subj,session,trial,rt,object_response,category,condition,imagename
subject-20,1,1,0.631623983383179,keyboard,oven,288,0001_tfr_s20_288_oven_00_oven1-keyboard1.png
subject-20,1,2,0.853317975997925,oven,truck,216,0002_tfr_s20_216_truck_00_truck2-cat3.png
subject-20,1,3,0.982667922973633,cat,airplane,72,0003_tfr_s20_72_airplane_00_airplane5-oven1.png
subject-20,1,4,0.598849058151245,chair,chair,144,0004_tfr_s20_144_chair_00_chair1-bird3.png
subject-20,1,5,0.753825902938843,airplane,airplane,324,0005_tfr_s20_324_airplane_00_airplane10-cat3.png
subject-20,1,6,0.848627090454102,elephant,elephant,252,0006_tfr_s20_252_elephant_00_elephant8-keyboard2.png
subject-20,1,7,0.829889059066772,oven,elephant,252,0007_tfr_s20_252_elephant_00_elephant10-chair2.png
subject-20,1,8,0.745445966720581,dog,dog,252,0008_tfr_s20_252_dog_00_dog1-bicycle3.png
subject-20,1,9,0.724119901657104,elephant,elephant,0,0009_tfr_s20_0_elephant_00_elephant1-bear1.png
subject-20,1,10,0.892157077789307,bird,dog,324,0010_tfr_s20_324_dog_00_dog5-bottle3.png
subject-20,1,11,0.632549047470093,bicycle,bicycle,72,0011_tfr_s20_72_bicycle_00_bicycle9-bottle3.png
subject-20,1,12,1.01686191558838,keyboard,bear,324,0012_tfr_s20_324_bear_00_bear3-keyboard3.png
subject-20,1,13,0.903187990188599,boat,boat,72,0013_tfr_s20_72_boat_00_boat3-elephant3.png
subject-20,1,14,1.2658360004425,airplane,elephant,108,0014_tfr_s20_108_elephant_00_elephant2-clock1.png
subject-20,1,15,0.95850396156311,boat,car,288,0015_tfr_s20_288_car_00_car3-airplane3.png
subject-20,1,16,1.29081106185913,bottle,boat,72,0016_tfr_s20_72_boat_00_boat6-keyboard2.png
subject-20,1,17,0.875970125198364,car,truck,144,0017_tfr_s20_144_truck_00_truck1-truck1.png
subject-20,1,18,0.913572788238525,dog,dog,36,0018_tfr_s20_36_dog_00_dog6-keyboard1.png
subject-20,1,19,0.762455224990845,dog,oven,216,0019_tfr_s20_216_oven_00_oven2-dog3.png
subject-20,1,20,0.571218967437744,dog,dog,288,0020_tfr_s20_288_dog_00_dog4-knife3.png
subject-20,1,21,0.614402055740356,bicycle,chair,36,0021_tfr_s20_36_chair_00_chair10-bear3.png
subject-20,1,22,1.23153400421143,car,car,72,0022_tfr_s20_72_car_00_car2-car1.png
subject-20,1,23,0.593600034713745,car,car,324,0023_tfr_s20_324_car_00_car7-boat3.png
subject-20,1,24,1.08601212501526,chair,keyboard,216,0024_tfr_s20_216_keyboard_00_keyboard1-bird3.png
subject-20,1,25,1.0643310546875,oven,boat,180,0025_tfr_s20_180_boat_00_boat10-bottle2.png
subject-20,1,26,0.635951042175293,boat,boat,144,0026_tfr_s20_144_boat_00_boat2-knife3.png
subject-20,1,27,1.33675098419189,bear,bear,72,0027_tfr_s20_72_bear_00_bear10-bear3.png
subject-20,1,28,1.03753805160522,chair,chair,288,0028_tfr_s20_288_chair_00_chair4-car2.png
subject-20,1,29,0.845201015472412,knife,knife,0,0029_tfr_s20_0_knife_00_knife10-airplane3.png
subject-20,1,30,0.670125007629395,bottle,bottle,180,0030_tfr_s20_180_bottle_00_bottle9-bottle1.png
subject-20,1,31,1.16230583190918,oven,clock,0,0031_tfr_s20_0_clock_00_clock1-oven3.png
subject-20,1,32,1.43332695960999,oven,oven,288,0032_tfr_s20_288_oven_00_oven3-truck2.png
subject-20,1,33,0.979676008224487,clock,clock,324,0033_tfr_s20_324_clock_00_clock10-oven1.png
subject-20,1,34,0.774227857589722,boat,truck,252,0034_tfr_s20_252_truck_00_truck4-bear1.png
subject-20,1,35,0.533817052841187,car,car,108,0035_tfr_s20_108_car_00_car10-airplane3.png
subject-20,1,36,0.72597599029541,truck,oven,108,0036_tfr_s20_108_oven_00_oven7-boat3.png
subject-20,1,37,1.11297988891602,chair,chair,216,0037_tfr_s20_216_chair_00_chair9-cat2.png
subject-20,1,38,1.3137629032135,knife,knife,288,0038_tfr_s20_288_knife_00_knife9-elephant1.png
subject-20,1,39,0.730334043502808,dog,dog,108,0039_tfr_s20_108_dog_00_dog9-oven2.png
subject-20,1,40,0.597784042358398,airplane,airplane,0,0040_tfr_s20_0_airplane_00_airplane2-airplane2.png
subject-20,1,41,0.622802019119263,bottle,bottle,252,0041_tfr_s20_252_bottle_00_bottle8-keyboard1.png
subject-20,1,42,0.698466062545776,dog,dog,72,0042_tfr_s20_72_dog_00_dog8-keyboard3.png
subject-20,1,43,0.72281813621521,clock,oven,144,0043_tfr_s20_144_oven_00_oven10-clock3.png
subject-20,1,44,1.46979212760925,airplane,airplane,180,0044_tfr_s20_180_airplane_00_airplane9-car1.png
subject-20,1,45,1.08335494995117,bottle,bottle,216,0045_tfr_s20_216_bottle_00_bottle5-truck1.png
subject-20,1,46,1.23029804229736,oven,knife,288,0046_tfr_s20_288_knife_00_knife5-airplane1.png
subject-20,1,47,0.763093233108521,airplane,airplane,216,0047_tfr_s20_216_airplane_00_airplane6-oven3.png
subject-20,1,48,0.871438980102539,cat,cat,288,0048_tfr_s20_288_cat_00_cat7-oven2.png
subject-20,1,49,0.765891075134277,knife,knife,108,0049_tfr_s20_108_knife_00_knife8-car1.png
subject-20,1,50,0.802032947540283,boat,car,36,0050_tfr_s20_36_car_00_car1-boat2.png
subject-20,1,51,0.696613073348999,cat,cat,144,0051_tfr_s20_144_cat_00_cat5-dog1.png
subject-20,1,52,0.95970892906189,clock,clock,144,0052_tfr_s20_144_clock_00_clock3-bear2.png
subject-20,1,53,0.76813817024231,knife,knife,0,0053_tfr_s20_0_knife_00_knife3-airplane1.png
subject-20,1,54,0.860375165939331,dog,cat,144,0054_tfr_s20_144_cat_00_cat3-bottle3.png
subject-20,1,55,0.684737920761108,dog,bear,144,0055_tfr_s20_144_bear_00_bear1-bicycle1.png
subject-20,1,56,0.760951995849609,bird,bird,324,0056_tfr_s20_324_bird_00_bird5-knife3.png
subject-20,1,57,1.50017809867859,boat,boat,72,0057_tfr_s20_72_boat_00_boat7-chair3.png
subject-20,1,58,0.729224920272827,clock,clock,36,0058_tfr_s20_36_clock_00_clock6-bicycle2.png
subject-20,1,59,0.731511116027832,elephant,elephant,108,0059_tfr_s20_108_elephant_00_elephant7-bicycle2.png
subject-20,1,60,0.854421138763428,cat,bird,252,0060_tfr_s20_252_bird_00_bird2-bicycle2.png
subject-20,1,61,0.824841022491455,car,bear,324,0061_tfr_s20_324_bear_00_bear9-car2.png
subject-20,1,62,0.854790925979614,clock,clock,324,0062_tfr_s20_324_clock_00_clock2-airplane1.png
subject-20,1,63,0.757333993911743,clock,keyboard,144,0063_tfr_s20_144_keyboard_00_keyboard8-clock1.png
subject-20,1,64,0.971694946289062,truck,oven,288,0064_tfr_s20_288_oven_00_oven9-car3.png
subject-20,1,65,0.75065803527832,car,clock,108,0065_tfr_s20_108_clock_00_clock7-oven1.png
subject-20,1,66,0.713093996047974,bear,bear,288,0066_tfr_s20_288_bear_00_bear8-truck3.png
subject-20,1,67,0.713767051696777,airplane,boat,144,0067_tfr_s20_144_boat_00_boat5-boat1.png
subject-20,1,68,0.735445022583008,airplane,airplane,108,0068_tfr_s20_108_airplane_00_airplane7-bottle1.png
subject-20,1,69,0.681808948516846,bicycle,bicycle,108,0069_tfr_s20_108_bicycle_00_bicycle5-chair2.png
subject-20,1,70,0.660104990005493,boat,boat,288,0070_tfr_s20_288_boat_00_boat4-boat3.png
subject-20,1,71,0.706530094146729,cat,cat,252,0071_tfr_s20_252_cat_00_cat6-truck1.png
subject-20,1,72,1.19416904449463,dog,cat,216,0072_tfr_s20_216_cat_00_cat2-bear2.png
subject-20,1,73,0.770401954650879,bicycle,bicycle,108,0073_tfr_s20_108_bicycle_00_bicycle7-dog1.png
subject-20,1,74,0.779178857803345,cat,cat,324,0074_tfr_s20_324_cat_00_cat9-keyboard1.png
subject-20,1,75,0.749090909957886,dog,dog,252,0075_tfr_s20_252_dog_00_dog10-knife1.png
subject-20,1,76,0.866415977478027,elephant,elephant,216,0076_tfr_s20_216_elephant_00_elephant6-knife1.png
subject-20,1,77,1.20470309257507,bottle,car,216,0077_tfr_s20_216_car_00_car6-bottle1.png
subject-20,1,78,0.637634038925171,bottle,bottle,324,0078_tfr_s20_324_bottle_00_bottle10-clock2.png
subject-20,1,79,1.39792490005493,bottle,bottle,36,0079_tfr_s20_36_bottle_00_bottle2-knife2.png
subject-20,1,80,0.851843118667603,knife,knife,72,0080_tfr_s20_72_knife_00_knife4-dog2.png
subject-20,1,81,1.12829494476318,chair,chair,144,0081_tfr_s20_144_chair_00_chair8-car1.png
subject-20,1,82,0.722902059555054,bicycle,bicycle,144,0082_tfr_s20_144_bicycle_00_bicycle4-truck2.png
subject-20,1,83,0.961181163787842,elephant,truck,180,0083_tfr_s20_180_truck_00_truck10-knife1.png
subject-20,1,84,0.953603982925415,car,truck,0,0084_tfr_s20_0_truck_00_truck8-car1.png
subject-20,1,85,0.870094060897827,bear,bird,144,0085_tfr_s20_144_bird_00_bird1-airplane1.png
subject-20,1,86,0.716591119766235,car,car,36,0086_tfr_s20_36_car_00_car9-car1.png
subject-20,1,87,0.877382040023804,dog,dog,324,0087_tfr_s20_324_dog_00_dog3-bear3.png
subject-20,1,88,1.05551099777222,boat,car,0,0088_tfr_s20_0_car_00_car4-car3.png
subject-20,1,89,1.13470697402954,boat,boat,216,0089_tfr_s20_216_boat_00_boat1-elephant2.png
subject-20,1,90,0.758634805679321,bird,bird,180,0090_tfr_s20_180_bird_00_bird10-airplane3.png
subject-20,1,91,0.797298908233643,bird,bird,144,0091_tfr_s20_144_bird_00_bird8-bicycle2.png
subject-20,1,92,0.658077001571655,car,dog,72,0092_tfr_s20_72_dog_00_dog2-dog1.png
subject-20,1,93,1.09043192863464,bicycle,bicycle,144,0093_tfr_s20_144_bicycle_00_bicycle2-bicycle3.png
subject-20,1,94,0.736763954162598,knife,knife,252,0094_tfr_s20_252_knife_00_knife7-car1.png
subject-20,1,95,1.25934910774231,oven,keyboard,0,0095_tfr_s20_0_keyboard_00_keyboard2-bottle1.png
subject-20,1,96,0.775490999221802,boat,bear,180,0096_tfr_s20_180_bear_00_bear6-knife3.png
subject-20,1,97,0.61355996131897,knife,knife,144,0097_tfr_s20_144_knife_00_knife1-keyboard3.png
subject-20,1,98,0.675854206085205,elephant,elephant,288,0098_tfr_s20_288_elephant_00_elephant9-dog1.png
subject-20,1,99,1.16110587120056,bear,bear,36,0099_tfr_s20_36_bear_00_bear2-knife1.png
subject-20,1,100,0.868906021118164,clock,clock,108,0100_tfr_s20_108_clock_00_clock9-bottle3.png
subject-20,1,101,1.19926309585571,cat,truck,0,0101_tfr_s20_0_truck_00_truck5-knife3.png
subject-20,1,102,0.545570135116577,bottle,bottle,108,0102_tfr_s20_108_bottle_00_bottle1-cat2.png
subject-20,1,103,0.884088039398193,keyboard,keyboard,216,0103_tfr_s20_216_keyboard_00_keyboard10-car1.png
subject-20,1,104,0.678252935409546,clock,clock,36,0104_tfr_s20_36_clock_00_clock8-clock3.png
subject-20,1,105,0.555307149887085,car,car,216,0105_tfr_s20_216_car_00_car8-car2.png
subject-20,1,106,0.539051055908203,bicycle,bicycle,216,0106_tfr_s20_216_bicycle_00_bicycle6-elephant1.png
subject-20,1,107,0.55563497543335,bottle,bottle,72,0107_tfr_s20_72_bottle_00_bottle3-cat1.png
subject-20,1,108,0.631666898727417,clock,clock,108,0108_tfr_s20_108_clock_00_clock5-bottle2.png
subject-20,1,109,0.918579816818237,elephant,bear,216,0109_tfr_s20_216_bear_00_bear5-bicycle1.png
subject-20,1,110,0.518620014190674,airplane,airplane,288,0110_tfr_s20_288_airplane_00_airplane8-truck1.png
subject-20,1,111,1.14134311676025,chair,chair,180,0111_tfr_s20_180_chair_00_chair5-clock1.png
subject-20,1,112,1.29592514038086,boat,keyboard,180,0112_tfr_s20_180_keyboard_00_keyboard9-chair2.png
subject-20,1,113,1.16424798965454,boat,truck,288,0113_tfr_s20_288_truck_00_truck9-chair2.png
subject-20,1,114,0.681205034255981,bicycle,bicycle,180,0114_tfr_s20_180_bicycle_00_bicycle1-elephant1.png
subject-20,1,115,0.54613995552063,bicycle,bicycle,144,0115_tfr_s20_144_bicycle_00_bicycle10-elephant2.png
subject-20,1,116,0.855167150497437,bird,cat,324,0116_tfr_s20_324_cat_00_cat4-airplane2.png
subject-20,1,117,0.769901990890503,keyboard,keyboard,324,0117_tfr_s20_324_keyboard_00_keyboard6-bottle2.png
subject-20,1,118,0.831450939178467,bird,bird,180,0118_tfr_s20_180_bird_00_bird6-elephant2.png
subject-20,1,119,1.32431793212891,car,truck,0,0119_tfr_s20_0_truck_00_truck6-oven2.png
subject-20,1,120,0.72453498840332,bicycle,bicycle,252,0120_tfr_s20_252_bicycle_00_bicycle8-chair3.png
subject-20,1,121,0.963673114776611,truck,truck,252,0121_tfr_s20_252_truck_00_truck3-airplane1.png
subject-20,1,122,1.02632594108582,bird,knife,144,0122_tfr_s20_144_knife_00_knife6-knife1.png
subject-20,1,123,0.726103067398071,airplane,airplane,72,0123_tfr_s20_72_airplane_00_airplane3-truck3.png
subject-20,1,124,0.977848052978516,keyboard,keyboard,180,0124_tfr_s20_180_keyboard_00_keyboard7-bear1.png
subject-20,1,125,0.63667893409729,bottle,bottle,180,0125_tfr_s20_180_bottle_00_bottle4-chair3.png
subject-20,1,126,0.915029048919678,bird,dog,252,0126_tfr_s20_252_dog_00_dog7-airplane2.png
subject-20,1,127,1.15958380699158,boat,boat,216,0127_tfr_s20_216_boat_00_boat9-truck3.png
subject-20,1,128,1.22984910011292,oven,oven,324,0128_tfr_s20_324_oven_00_oven8-boat1.png
subject-20,1,129,1.22252202033997,chair,chair,36,0129_tfr_s20_36_chair_00_chair7-chair3.png
subject-20,1,130,0.855302095413208,airplane,airplane,0,0130_tfr_s20_0_airplane_00_airplane4-dog1.png
subject-20,1,131,1.07731008529663,boat,car,36,0131_tfr_s20_36_car_00_car5-boat1.png
subject-20,1,132,0.670591115951538,bird,bird,36,0132_tfr_s20_36_bird_00_bird3-bird2.png
subject-20,1,133,0.595148086547852,bicycle,bicycle,0,0133_tfr_s20_0_bicycle_00_bicycle3-truck3.png
subject-20,1,134,1.38546109199524,chair,oven,252,0134_tfr_s20_252_oven_00_oven6-bird3.png
subject-20,1,135,1.37198781967163,bear,bear,288,0135_tfr_s20_288_bear_00_bear4-bicycle3.png
subject-20,1,136,1.05540204048157,truck,cat,72,0136_tfr_s20_72_cat_00_cat10-bird1.png
subject-20,1,137,0.626435041427612,keyboard,keyboard,144,0137_tfr_s20_144_keyboard_00_keyboard4-oven3.png
subject-20,1,138,1.21928906440735,bird,boat,252,0138_tfr_s20_252_boat_00_boat8-chair1.png
subject-20,1,139,0.797645807266235,elephant,elephant,144,0139_tfr_s20_144_elephant_00_elephant5-chair2.png
subject-20,1,140,0.527924060821533,airplane,airplane,144,0140_tfr_s20_144_airplane_00_airplane1-elephant1.png
subject-20,1,141,0.815382957458496,keyboard,keyboard,108,0141_tfr_s20_108_keyboard_00_keyboard5-elephant3.png
subject-20,1,142,0.859479904174805,bird,knife,216,0142_tfr_s20_216_knife_00_knife2-chair3.png
subject-20,1,143,0.94607400894165,keyboard,keyboard,324,0143_tfr_s20_324_keyboard_00_keyboard3-oven3.png
subject-20,1,144,0.846840858459473,bottle,bottle,252,0144_tfr_s20_252_bottle_00_bottle6-bicycle1.png
subject-20,1,145,0.539300918579102,elephant,elephant,216,0145_tfr_s20_216_elephant_00_elephant4-knife2.png
subject-20,1,146,0.677572011947632,bird,bird,216,0146_tfr_s20_216_bird_00_bird7-keyboard3.png
subject-20,1,147,1.15769004821777,car,cat,288,0147_tfr_s20_288_cat_00_cat8-cat3.png
subject-20,1,148,0.749906063079834,oven,oven,144,0148_tfr_s20_144_oven_00_oven5-cat3.png
subject-20,1,149,0.774319171905518,elephant,elephant,288,0149_tfr_s20_288_elephant_00_elephant3-bird1.png
subject-20,1,150,0.897353172302246,chair,chair,108,0150_tfr_s20_108_chair_00_chair3-boat2.png
subject-20,1,151,0.829480171203613,car,truck,324,0151_tfr_s20_324_truck_00_truck7-truck2.png
subject-20,1,152,1.12281107902527,bird,bird,324,0152_tfr_s20_324_bird_00_bird4-bird3.png
subject-20,1,153,0.768801927566528,chair,chair,288,0153_tfr_s20_288_chair_00_chair2-bicycle2.png
subject-20,1,154,0.618105888366699,bird,bird,36,0154_tfr_s20_36_bird_00_bird9-chair2.png
subject-20,1,155,0.956560850143433,oven,oven,0,0155_tfr_s20_0_oven_00_oven4-dog2.png
subject-20,1,156,1.47927284240723,cat,clock,288,0156_tfr_s20_288_clock_00_clock4-knife1.png
subject-20,1,157,0.97069787979126,chair,chair,0,0157_tfr_s20_0_chair_00_chair6-bottle3.png
subject-20,1,158,0.908653020858765,bear,bear,288,0158_tfr_s20_288_bear_00_bear7-elephant3.png
subject-20,1,159,0.879914999008179,cat,cat,108,0159_tfr_s20_108_cat_00_cat1-keyboard1.png
subject-20,1,160,0.555843114852905,bottle,bottle,144,0160_tfr_s20_144_bottle_00_bottle7-car2.png
