subj,session,trial,rt,object_response,category,condition,imagename
subject-25,1,1,0.669676780700684,cat,elephant,36,0001_tfr_s25_36_elephant_00_elephant8-chair1.png
subject-25,1,2,0.844827890396118,bicycle,bicycle,36,0002_tfr_s25_36_bicycle_00_bicycle5-car1.png
subject-25,1,3,0.861608982086182,knife,knife,288,0003_tfr_s25_288_knife_00_knife9-elephant1.png
subject-25,1,4,0.984256982803345,car,car,324,0004_tfr_s25_324_car_00_car7-bicycle1.png
subject-25,1,5,0.884512901306152,clock,oven,108,0005_tfr_s25_108_oven_00_oven6-clock2.png
subject-25,1,6,0.851934909820557,keyboard,cat,36,0006_tfr_s25_36_cat_00_cat7-keyboard1.png
subject-25,1,7,1.03118205070496,knife,truck,0,0007_tfr_s25_0_truck_00_truck1-knife2.png
subject-25,1,8,1.33154296875,elephant,bear,216,0008_tfr_s25_216_bear_00_bear3-knife1.png
subject-25,1,9,0.854131937026978,boat,airplane,72,0009_tfr_s25_72_airplane_00_airplane2-knife3.png
subject-25,1,10,1.15979504585266,cat,bear,324,0010_tfr_s25_324_bear_00_bear1-cat3.png
subject-25,1,11,0.822314023971558,boat,keyboard,324,0011_tfr_s25_324_keyboard_00_keyboard2-boat3.png
subject-25,1,12,1.00497603416443,bird,bird,252,0012_tfr_s25_252_bird_00_bird10-chair3.png
subject-25,1,13,0.940954923629761,bird,bird,36,0013_tfr_s25_36_bird_00_bird9-chair2.png
subject-25,1,14,1.21030807495117,boat,truck,144,0014_tfr_s25_144_truck_00_truck9-airplane3.png
subject-25,1,15,0.940366983413696,keyboard,oven,72,0015_tfr_s25_72_oven_00_oven9-keyboard3.png
subject-25,1,16,1.02984309196472,bicycle,bicycle,72,0016_tfr_s25_72_bicycle_00_bicycle7-boat2.png
subject-25,1,17,1.1132869720459,chair,chair,36,0017_tfr_s25_36_chair_00_chair9-elephant1.png
subject-25,1,18,0.973626136779785,bottle,bottle,252,0018_tfr_s25_252_bottle_00_bottle8-bear3.png
subject-25,1,19,0.982020139694214,bicycle,bicycle,252,0019_tfr_s25_252_bicycle_00_bicycle3-elephant2.png
subject-25,1,20,0.958980798721313,boat,boat,36,0020_tfr_s25_36_boat_00_boat5-dog1.png
subject-25,1,21,1.22065401077271,cat,bear,180,0021_tfr_s25_180_bear_00_bear7-dog1.png
subject-25,1,22,1.32936596870422,keyboard,truck,0,0022_tfr_s25_0_truck_00_truck4-truck3.png
subject-25,1,23,1.18241596221924,airplane,clock,288,0023_tfr_s25_288_clock_00_clock4-knife1.png
subject-25,1,24,1.19806408882141,keyboard,elephant,144,0024_tfr_s25_144_elephant_00_elephant10-keyboard1.png
subject-25,1,25,1.02280616760254,car,car,72,0025_tfr_s25_72_car_00_car10-dog3.png
subject-25,1,26,1.01568984985352,bicycle,bicycle,180,0026_tfr_s25_180_bicycle_00_bicycle8-bear3.png
subject-25,1,27,1.00763177871704,keyboard,clock,288,0027_tfr_s25_288_clock_00_clock7-keyboard1.png
subject-25,1,28,1.23819804191589,oven,oven,324,0028_tfr_s25_324_oven_00_oven8-boat1.png
subject-25,1,29,1.14717507362366,knife,knife,252,0029_tfr_s25_252_knife_00_knife8-oven2.png
subject-25,1,30,1.18193101882935,dog,dog,108,0030_tfr_s25_108_dog_00_dog9-oven2.png
subject-25,1,31,1.1531138420105,bird,bird,252,0031_tfr_s25_252_bird_00_bird7-car3.png
subject-25,1,32,1.25343704223633,car,bear,324,0032_tfr_s25_324_bear_00_bear9-car2.png
subject-25,1,33,1.35104298591614,boat,boat,36,0033_tfr_s25_36_boat_00_boat3-bicycle2.png
subject-25,1,34,1.37525701522827,chair,keyboard,180,0034_tfr_s25_180_keyboard_00_keyboard9-chair2.png
subject-25,1,35,1.45120096206665,boat,oven,108,0035_tfr_s25_108_oven_00_oven10-dog2.png
subject-25,1,36,1.23480701446533,airplane,knife,72,0036_tfr_s25_72_knife_00_knife4-dog2.png
subject-25,1,37,1.40263104438782,dog,dog,288,0037_tfr_s25_288_dog_00_dog6-bicycle1.png
subject-25,1,38,NaN,na,dog,324,0038_tfr_s25_324_dog_00_dog3-truck1.png
subject-25,1,39,1.14933300018311,bird,bird,36,0039_tfr_s25_36_bird_00_bird6-bottle1.png
subject-25,1,40,0.995843172073364,chair,chair,180,0040_tfr_s25_180_chair_00_chair10-bird3.png
subject-25,1,41,0.918671131134033,boat,boat,144,0041_tfr_s25_144_boat_00_boat8-oven3.png
subject-25,1,42,1.03529286384583,keyboard,car,324,0042_tfr_s25_324_car_00_car1-oven1.png
subject-25,1,43,1.20266914367676,cat,knife,72,0043_tfr_s25_72_knife_00_knife6-elephant3.png
subject-25,1,44,1.24196004867554,bird,truck,216,0044_tfr_s25_216_truck_00_truck10-cat1.png
subject-25,1,45,1.18218803405762,elephant,elephant,324,0045_tfr_s25_324_elephant_00_elephant9-keyboard1.png
subject-25,1,46,0.920495986938477,clock,clock,72,0046_tfr_s25_72_clock_00_clock10-bottle1.png
subject-25,1,47,1.27224612236023,bear,bear,252,0047_tfr_s25_252_bear_00_bear4-cat3.png
subject-25,1,48,0.921591997146606,knife,knife,216,0048_tfr_s25_216_knife_00_knife3-cat2.png
subject-25,1,49,0.851243019104004,bottle,bottle,216,0049_tfr_s25_216_bottle_00_bottle7-airplane2.png
subject-25,1,50,0.944278001785278,car,boat,144,0050_tfr_s25_144_boat_00_boat10-truck2.png
subject-25,1,51,1.0910210609436,bear,dog,108,0051_tfr_s25_108_dog_00_dog5-bear1.png
subject-25,1,52,0.91203498840332,oven,clock,144,0052_tfr_s25_144_clock_00_clock1-car1.png
subject-25,1,53,0.90439510345459,cat,keyboard,180,0053_tfr_s25_180_keyboard_00_keyboard3-chair1.png
subject-25,1,54,0.936568975448608,airplane,airplane,288,0054_tfr_s25_288_airplane_00_airplane10-bottle1.png
subject-25,1,55,0.804909944534302,cat,cat,288,0055_tfr_s25_288_cat_00_cat6-keyboard2.png
subject-25,1,56,1.10539603233337,elephant,elephant,288,0056_tfr_s25_288_elephant_00_elephant3-car2.png
subject-25,1,57,1.25834107398987,knife,boat,180,0057_tfr_s25_180_boat_00_boat2-clock1.png
subject-25,1,58,1.25676703453064,truck,truck,180,0058_tfr_s25_180_truck_00_truck3-bicycle2.png
subject-25,1,59,1.08128499984741,car,car,0,0059_tfr_s25_0_car_00_car9-bird2.png
subject-25,1,60,1.20404720306396,bicycle,bicycle,216,0060_tfr_s25_216_bicycle_00_bicycle6-bird2.png
subject-25,1,61,0.998627185821533,car,truck,72,0061_tfr_s25_72_truck_00_truck8-keyboard1.png
subject-25,1,62,1.1293580532074,elephant,bear,216,0062_tfr_s25_216_bear_00_bear5-keyboard2.png
subject-25,1,63,1.27592086791992,bird,bird,288,0063_tfr_s25_288_bird_00_bird4-boat1.png
subject-25,1,64,0.967602968215942,cat,cat,36,0064_tfr_s25_36_cat_00_cat1-knife2.png
subject-25,1,65,1.22814512252808,bottle,clock,108,0065_tfr_s25_108_clock_00_clock5-bottle2.png
subject-25,1,66,1.16670489311218,dog,dog,108,0066_tfr_s25_108_dog_00_dog4-dog3.png
subject-25,1,67,1.12945008277893,dog,dog,0,0067_tfr_s25_0_dog_00_dog1-truck1.png
subject-25,1,68,1.14590501785278,airplane,keyboard,144,0068_tfr_s25_144_keyboard_00_keyboard7-bicycle3.png
subject-25,1,69,1.00003504753113,chair,chair,144,0069_tfr_s25_144_chair_00_chair1-bird3.png
subject-25,1,70,1.17691802978516,bottle,car,0,0070_tfr_s25_0_car_00_car8-bottle3.png
subject-25,1,71,1.31516599655151,car,boat,72,0071_tfr_s25_72_boat_00_boat6-keyboard2.png
subject-25,1,72,1.13977980613708,elephant,elephant,0,0072_tfr_s25_0_elephant_00_elephant1-bottle1.png
subject-25,1,73,0.940717935562134,clock,truck,252,0073_tfr_s25_252_truck_00_truck2-clock1.png
subject-25,1,74,0.849369049072266,cat,oven,216,0074_tfr_s25_216_oven_00_oven7-bicycle3.png
subject-25,1,75,0.875553846359253,bird,bird,144,0075_tfr_s25_144_bird_00_bird5-clock2.png
subject-25,1,76,0.935892105102539,knife,knife,0,0076_tfr_s25_0_knife_00_knife1-clock3.png
subject-25,1,77,0.930143117904663,airplane,airplane,216,0077_tfr_s25_216_airplane_00_airplane6-oven3.png
subject-25,1,78,1.03690600395203,cat,keyboard,216,0078_tfr_s25_216_keyboard_00_keyboard1-bird3.png
subject-25,1,79,0.845227956771851,boat,boat,72,0079_tfr_s25_72_boat_00_boat7-bird3.png
subject-25,1,80,1.19913220405579,truck,truck,36,0080_tfr_s25_36_truck_00_truck5-cat3.png
subject-25,1,81,1.15934896469116,bottle,bottle,324,0081_tfr_s25_324_bottle_00_bottle4-dog1.png
subject-25,1,82,1.37357091903687,airplane,airplane,0,0082_tfr_s25_0_airplane_00_airplane4-elephant1.png
subject-25,1,83,1.24465107917786,bottle,cat,144,0083_tfr_s25_144_cat_00_cat3-bottle3.png
subject-25,1,84,1.08214402198792,airplane,airplane,108,0084_tfr_s25_108_airplane_00_airplane3-car1.png
subject-25,1,85,1.01472616195679,chair,chair,252,0085_tfr_s25_252_chair_00_chair3-keyboard1.png
subject-25,1,86,1.18297505378723,cat,dog,252,0086_tfr_s25_252_dog_00_dog7-cat1.png
subject-25,1,87,0.951442003250122,bottle,bottle,288,0087_tfr_s25_288_bottle_00_bottle10-truck3.png
subject-25,1,88,1.0220320224762,cat,cat,216,0088_tfr_s25_216_cat_00_cat2-bear2.png
subject-25,1,89,0.792335033416748,airplane,airplane,108,0089_tfr_s25_108_airplane_00_airplane8-bicycle1.png
subject-25,1,90,1.06892490386963,elephant,elephant,216,0090_tfr_s25_216_elephant_00_elephant6-bear1.png
subject-25,1,91,1.2236430644989,bird,bird,36,0091_tfr_s25_36_bird_00_bird3-airplane1.png
subject-25,1,92,1.16205596923828,dog,bear,0,0092_tfr_s25_0_bear_00_bear8-car1.png
subject-25,1,93,1.0162181854248,keyboard,oven,144,0093_tfr_s25_144_oven_00_oven4-keyboard3.png
subject-25,1,94,1.16347002983093,bottle,cat,36,0094_tfr_s25_36_cat_00_cat5-bottle3.png
subject-25,1,95,1.07774806022644,bottle,bottle,216,0095_tfr_s25_216_bottle_00_bottle3-bird1.png
subject-25,1,96,1.17805099487305,bottle,bottle,324,0096_tfr_s25_324_bottle_00_bottle6-knife1.png
subject-25,1,97,0.957080125808716,bottle,bottle,72,0097_tfr_s25_72_bottle_00_bottle2-boat3.png
subject-25,1,98,1.00357294082642,bottle,clock,108,0098_tfr_s25_108_clock_00_clock9-bottle3.png
subject-25,1,99,0.825785160064697,cat,truck,0,0099_tfr_s25_0_truck_00_truck6-oven2.png
subject-25,1,100,1.19674110412598,airplane,keyboard,324,0100_tfr_s25_324_keyboard_00_keyboard8-airplane2.png
subject-25,1,101,1.0955638885498,clock,keyboard,108,0101_tfr_s25_108_keyboard_00_keyboard10-elephant2.png
subject-25,1,102,1.17374491691589,airplane,boat,216,0102_tfr_s25_216_boat_00_boat4-car2.png
subject-25,1,103,0.974785804748535,bear,oven,324,0103_tfr_s25_324_oven_00_oven1-bear3.png
subject-25,1,104,0.807507991790771,elephant,elephant,144,0104_tfr_s25_144_elephant_00_elephant7-elephant1.png
subject-25,1,105,0.922318935394287,clock,clock,216,0105_tfr_s25_216_clock_00_clock8-knife3.png
subject-25,1,106,1.02218580245972,bicycle,bicycle,0,0106_tfr_s25_0_bicycle_00_bicycle9-airplane2.png
subject-25,1,107,1.39014601707458,bird,bear,216,0107_tfr_s25_216_bear_00_bear6-cat3.png
subject-25,1,108,1.16160202026367,dog,dog,324,0108_tfr_s25_324_dog_00_dog10-keyboard3.png
subject-25,1,109,1.45205903053284,cat,bear,72,0109_tfr_s25_72_bear_00_bear2-chair2.png
subject-25,1,110,1.13089394569397,chair,chair,180,0110_tfr_s25_180_chair_00_chair7-bicycle3.png
subject-25,1,111,1.10681891441345,knife,knife,0,0111_tfr_s25_0_knife_00_knife10-knife3.png
subject-25,1,112,1.10770201683044,oven,car,288,0112_tfr_s25_288_car_00_car4-oven3.png
subject-25,1,113,1.12988996505737,keyboard,clock,36,0113_tfr_s25_36_clock_00_clock2-keyboard3.png
subject-25,1,114,1.03913903236389,bird,bird,72,0114_tfr_s25_72_bird_00_bird1-truck3.png
subject-25,1,115,0.877506017684937,cat,cat,36,0115_tfr_s25_36_cat_00_cat4-clock2.png
subject-25,1,116,0.870137929916382,airplane,airplane,72,0116_tfr_s25_72_airplane_00_airplane9-bicycle3.png
subject-25,1,117,1.05407691001892,knife,knife,72,0117_tfr_s25_72_knife_00_knife7-truck1.png
subject-25,1,118,1.08686399459839,cat,car,180,0118_tfr_s25_180_car_00_car5-oven3.png
subject-25,1,119,1.11705589294434,oven,oven,108,0119_tfr_s25_108_oven_00_oven2-chair2.png
subject-25,1,120,0.993438005447388,chair,chair,252,0120_tfr_s25_252_chair_00_chair5-dog3.png
subject-25,1,121,0.939961194992065,oven,oven,0,0121_tfr_s25_0_oven_00_oven3-bird3.png
subject-25,1,122,1.15504598617554,airplane,airplane,252,0122_tfr_s25_252_airplane_00_airplane5-bicycle1.png
subject-25,1,123,1.1010639667511,bear,elephant,216,0123_tfr_s25_216_elephant_00_elephant2-dog2.png
subject-25,1,124,1.30980110168457,keyboard,oven,324,0124_tfr_s25_324_oven_00_oven5-airplane1.png
subject-25,1,125,1.14060807228088,chair,chair,216,0125_tfr_s25_216_chair_00_chair6-chair1.png
subject-25,1,126,0.989189147949219,bird,bird,72,0126_tfr_s25_72_bird_00_bird8-bird2.png
subject-25,1,127,1.3503429889679,bear,boat,216,0127_tfr_s25_216_boat_00_boat1-elephant2.png
subject-25,1,128,1.50001692771912,car,car,324,0128_tfr_s25_324_car_00_car3-elephant2.png
subject-25,1,129,0.889616966247559,elephant,elephant,36,0129_tfr_s25_36_elephant_00_elephant5-clock1.png
subject-25,1,130,1.37402701377869,airplane,keyboard,72,0130_tfr_s25_72_keyboard_00_keyboard4-bird1.png
subject-25,1,131,1.14990305900574,bicycle,bicycle,324,0131_tfr_s25_324_bicycle_00_bicycle4-cat1.png
subject-25,1,132,1.0670530796051,bird,bear,288,0132_tfr_s25_288_bear_00_bear10-bicycle2.png
subject-25,1,133,1.25222206115723,truck,cat,108,0133_tfr_s25_108_cat_00_cat10-truck3.png
subject-25,1,134,0.960726022720337,elephant,elephant,216,0134_tfr_s25_216_elephant_00_elephant4-oven2.png
subject-25,1,135,0.907697916030884,airplane,airplane,108,0135_tfr_s25_108_airplane_00_airplane1-bicycle2.png
subject-25,1,136,1.14531803131104,boat,boat,144,0136_tfr_s25_144_boat_00_boat9-knife1.png
subject-25,1,137,1.01318907737732,bicycle,bicycle,180,0137_tfr_s25_180_bicycle_00_bicycle1-elephant1.png
subject-25,1,138,1.11302900314331,oven,knife,324,0138_tfr_s25_324_knife_00_knife5-bottle2.png
subject-25,1,139,1.2520489692688,cat,cat,216,0139_tfr_s25_216_cat_00_cat8-truck1.png
subject-25,1,140,1.27460312843323,dog,dog,180,0140_tfr_s25_180_dog_00_dog8-bottle2.png
subject-25,1,141,1.37509393692017,bear,car,288,0141_tfr_s25_288_car_00_car2-dog1.png
subject-25,1,142,1.18386793136597,bicycle,bicycle,216,0142_tfr_s25_216_bicycle_00_bicycle10-boat2.png
subject-25,1,143,1.50025987625122,cat,cat,36,0143_tfr_s25_36_cat_00_cat9-bicycle1.png
subject-25,1,144,1.14696598052979,airplane,keyboard,288,0144_tfr_s25_288_keyboard_00_keyboard6-cat1.png
subject-25,1,145,1.31565403938293,bicycle,bicycle,324,0145_tfr_s25_324_bicycle_00_bicycle2-keyboard2.png
subject-25,1,146,1.15422415733337,cat,clock,216,0146_tfr_s25_216_clock_00_clock6-bear3.png
subject-25,1,147,0.976506948471069,chair,keyboard,324,0147_tfr_s25_324_keyboard_00_keyboard5-chair3.png
subject-25,1,148,1.10096597671509,dog,dog,72,0148_tfr_s25_72_dog_00_dog2-dog1.png
subject-25,1,149,1.16956186294556,bicycle,clock,72,0149_tfr_s25_72_clock_00_clock3-bicycle1.png
subject-25,1,150,1.06174898147583,chair,chair,252,0150_tfr_s25_252_chair_00_chair8-cat2.png
subject-25,1,151,1.09195280075073,bottle,bottle,0,0151_tfr_s25_0_bottle_00_bottle5-oven1.png
subject-25,1,152,0.9686598777771,chair,chair,144,0152_tfr_s25_144_chair_00_chair2-boat2.png
subject-25,1,153,1.1312210559845,bottle,bottle,108,0153_tfr_s25_108_bottle_00_bottle1-cat2.png
subject-25,1,154,1.145831823349,knife,knife,252,0154_tfr_s25_252_knife_00_knife2-bicycle3.png
subject-25,1,155,1.24627590179443,cat,bird,180,0155_tfr_s25_180_bird_00_bird2-bird2.png
subject-25,1,156,1.16095995903015,car,truck,324,0156_tfr_s25_324_truck_00_truck7-truck2.png
subject-25,1,157,1.26122117042542,airplane,airplane,36,0157_tfr_s25_36_airplane_00_airplane7-chair3.png
subject-25,1,158,0.81635594367981,bottle,bottle,144,0158_tfr_s25_144_bottle_00_bottle9-truck3.png
subject-25,1,159,0.824998140335083,chair,chair,144,0159_tfr_s25_144_chair_00_chair4-keyboard2.png
subject-25,1,160,1.2181351184845,car,car,144,0160_tfr_s25_144_car_00_car6-truck1.png
