subj,session,trial,rt,object_response,category,condition,imagename
subject-30,1,1,0.786403179168701,cat,bear,252,0001_tfr_s30_252_bear_00_bear1-dog2.png
subject-30,1,2,1.09443402290344,bottle,oven,216,0002_tfr_s30_216_oven_00_oven3-bottle2.png
subject-30,1,3,0.818397998809814,airplane,airplane,36,0003_tfr_s30_36_airplane_00_airplane1-keyboard1.png
subject-30,1,4,0.902328968048096,bicycle,bicycle,144,0004_tfr_s30_144_bicycle_00_bicycle5-cat2.png
subject-30,1,5,1.00205898284912,chair,knife,72,0005_tfr_s30_72_knife_00_knife6-elephant3.png
subject-30,1,6,0.848603963851929,chair,truck,144,0006_tfr_s30_144_truck_00_truck4-chair2.png
subject-30,1,7,1.18837118148804,knife,keyboard,72,0007_tfr_s30_72_keyboard_00_keyboard3-keyboard3.png
subject-30,1,8,1.08050322532654,oven,keyboard,144,0008_tfr_s30_144_keyboard_00_keyboard5-oven2.png
subject-30,1,9,1.39642715454102,airplane,airplane,0,0009_tfr_s30_0_airplane_00_airplane4-bear3.png
subject-30,1,10,0.98056697845459,keyboard,truck,252,0010_tfr_s30_252_truck_00_truck10-keyboard1.png
subject-30,1,11,0.863801002502441,bottle,bottle,288,0011_tfr_s30_288_bottle_00_bottle10-truck3.png
subject-30,1,12,1.39614987373352,knife,knife,180,0012_tfr_s30_180_knife_00_knife10-cat1.png
subject-30,1,13,1.15018391609192,chair,chair,216,0013_tfr_s30_216_chair_00_chair6-chair1.png
subject-30,1,14,0.804431915283203,chair,oven,72,0014_tfr_s30_72_oven_00_oven7-chair3.png
subject-30,1,15,1.19893407821655,keyboard,truck,324,0015_tfr_s30_324_truck_00_truck7-knife2.png
subject-30,1,16,1.16117691993713,chair,cat,288,0016_tfr_s30_288_cat_00_cat5-chair2.png
subject-30,1,17,1.10755395889282,car,cat,216,0017_tfr_s30_216_cat_00_cat8-truck1.png
subject-30,1,18,1.09915089607239,oven,boat,72,0018_tfr_s30_72_boat_00_boat7-bird3.png
subject-30,1,19,1.27683305740356,cat,cat,252,0019_tfr_s30_252_cat_00_cat6-truck1.png
subject-30,1,20,1.23118996620178,airplane,bear,72,0020_tfr_s30_72_bear_00_bear7-airplane3.png
subject-30,1,21,1.39369702339172,bicycle,bicycle,252,0021_tfr_s30_252_bicycle_00_bicycle2-boat1.png
subject-30,1,22,1.42308187484741,dog,dog,36,0022_tfr_s30_36_dog_00_dog6-bear1.png
subject-30,1,23,1.34746789932251,clock,clock,72,0023_tfr_s30_72_clock_00_clock10-bottle1.png
subject-30,1,24,0.863893032073975,cat,cat,108,0024_tfr_s30_108_cat_00_cat7-cat3.png
subject-30,1,25,1.18044304847717,keyboard,dog,216,0025_tfr_s30_216_dog_00_dog3-airplane3.png
subject-30,1,26,0.993788957595825,chair,chair,324,0026_tfr_s30_324_chair_00_chair2-clock1.png
subject-30,1,27,1.05629682540894,elephant,elephant,144,0027_tfr_s30_144_elephant_00_elephant7-bottle3.png
subject-30,1,28,0.980233192443848,airplane,airplane,288,0028_tfr_s30_288_airplane_00_airplane2-bird2.png
subject-30,1,29,1.50032877922058,keyboard,keyboard,72,0029_tfr_s30_72_keyboard_00_keyboard4-keyboard2.png
subject-30,1,30,0.875226974487305,bicycle,bicycle,36,0030_tfr_s30_36_bicycle_00_bicycle8-airplane3.png
subject-30,1,31,1.26987195014954,clock,clock,72,0031_tfr_s30_72_clock_00_clock4-clock3.png
subject-30,1,32,NaN,na,elephant,108,0032_tfr_s30_108_elephant_00_elephant3-knife2.png
subject-30,1,33,1.50034189224243,bird,bird,108,0033_tfr_s30_108_bird_00_bird3-dog2.png
subject-30,1,34,1.25326204299927,dog,dog,216,0034_tfr_s30_216_dog_00_dog1-knife3.png
subject-30,1,35,1.12374091148376,car,keyboard,0,0035_tfr_s30_0_keyboard_00_keyboard2-car3.png
subject-30,1,36,1.29991507530212,bottle,bottle,36,0036_tfr_s30_36_bottle_00_bottle1-keyboard3.png
subject-30,1,37,0.940167903900146,chair,chair,36,0037_tfr_s30_36_chair_00_chair7-knife1.png
subject-30,1,38,1.17273712158203,keyboard,airplane,0,0038_tfr_s30_0_airplane_00_airplane8-oven3.png
subject-30,1,39,1.08101916313171,elephant,elephant,0,0039_tfr_s30_0_elephant_00_elephant5-keyboard3.png
subject-30,1,40,1.5002269744873,airplane,bird,288,0040_tfr_s30_288_bird_00_bird6-cat1.png
subject-30,1,41,1.17387294769287,airplane,clock,36,0041_tfr_s30_36_clock_00_clock7-bird1.png
subject-30,1,42,1.34427785873413,boat,boat,36,0042_tfr_s30_36_boat_00_boat3-bicycle2.png
subject-30,1,43,0.859880208969116,knife,knife,0,0043_tfr_s30_0_knife_00_knife1-truck3.png
subject-30,1,44,0.962435960769653,bird,bear,216,0044_tfr_s30_216_bear_00_bear6-cat3.png
subject-30,1,45,1.15496277809143,cat,truck,180,0045_tfr_s30_180_truck_00_truck5-dog3.png
subject-30,1,46,1.5002498626709,elephant,car,0,0046_tfr_s30_0_car_00_car10-elephant1.png
subject-30,1,47,1.35562515258789,oven,knife,36,0047_tfr_s30_36_knife_00_knife9-truck1.png
subject-30,1,48,1.1798939704895,car,oven,252,0048_tfr_s30_252_oven_00_oven8-truck3.png
subject-30,1,49,1.31213212013245,bottle,car,216,0049_tfr_s30_216_car_00_car6-bottle1.png
subject-30,1,50,NaN,na,oven,216,0050_tfr_s30_216_oven_00_oven2-dog3.png
subject-30,1,51,1.3986930847168,elephant,elephant,288,0051_tfr_s30_288_elephant_00_elephant9-dog1.png
subject-30,1,52,1.1449921131134,chair,chair,144,0052_tfr_s30_144_chair_00_chair4-airplane3.png
subject-30,1,53,0.96141505241394,car,bear,0,0053_tfr_s30_0_bear_00_bear2-car2.png
subject-30,1,54,1.04759383201599,chair,bicycle,324,0054_tfr_s30_324_bicycle_00_bicycle7-keyboard3.png
subject-30,1,55,1.21580576896667,keyboard,knife,288,0055_tfr_s30_288_knife_00_knife5-airplane1.png
subject-30,1,56,1.0782778263092,keyboard,oven,288,0056_tfr_s30_288_oven_00_oven1-keyboard1.png
subject-30,1,57,1.3688440322876,dog,dog,36,0057_tfr_s30_36_dog_00_dog10-clock2.png
subject-30,1,58,1.47711706161499,airplane,bottle,216,0058_tfr_s30_216_bottle_00_bottle7-airplane2.png
subject-30,1,59,1.50003504753113,dog,truck,0,0059_tfr_s30_0_truck_00_truck8-dog1.png
subject-30,1,60,1.07730913162231,oven,boat,324,0060_tfr_s30_324_boat_00_boat10-bird1.png
subject-30,1,61,0.963649988174438,bottle,car,180,0061_tfr_s30_180_car_00_car2-bottle1.png
subject-30,1,62,1.37222409248352,bottle,bottle,72,0062_tfr_s30_72_bottle_00_bottle3-cat1.png
subject-30,1,63,1.04275488853455,boat,boat,144,0063_tfr_s30_144_boat_00_boat4-bicycle3.png
subject-30,1,64,1.03444910049438,chair,clock,0,0064_tfr_s30_0_clock_00_clock2-chair2.png
subject-30,1,65,1.29676103591919,bird,bird,72,0065_tfr_s30_72_bird_00_bird9-keyboard1.png
subject-30,1,66,1.26740598678589,boat,boat,144,0066_tfr_s30_144_boat_00_boat5-boat1.png
subject-30,1,67,1.29169511795044,knife,clock,324,0067_tfr_s30_324_clock_00_clock3-boat3.png
subject-30,1,68,1.16222715377808,boat,bird,252,0068_tfr_s30_252_bird_00_bird10-chair3.png
subject-30,1,69,1.1867241859436,car,car,36,0069_tfr_s30_36_car_00_car4-bear2.png
subject-30,1,70,1.04882097244263,keyboard,elephant,252,0070_tfr_s30_252_elephant_00_elephant4-keyboard3.png
subject-30,1,71,1.22536182403564,cat,bottle,108,0071_tfr_s30_108_bottle_00_bottle4-cat1.png
subject-30,1,72,0.889514923095703,chair,oven,36,0072_tfr_s30_36_oven_00_oven9-chair2.png
subject-30,1,73,1.18177390098572,chair,truck,252,0073_tfr_s30_252_truck_00_truck2-chair1.png
subject-30,1,74,0.973626852035522,cat,truck,72,0074_tfr_s30_72_truck_00_truck1-cat2.png
subject-30,1,75,0.902933835983276,airplane,airplane,72,0075_tfr_s30_72_airplane_00_airplane3-bird1.png
subject-30,1,76,1.06555509567261,cat,cat,36,0076_tfr_s30_36_cat_00_cat1-knife2.png
subject-30,1,77,1.31992411613464,car,boat,108,0077_tfr_s30_108_boat_00_boat8-truck2.png
subject-30,1,78,1.2066490650177,boat,bear,216,0078_tfr_s30_216_bear_00_bear8-boat1.png
subject-30,1,79,1.07676601409912,cat,chair,144,0079_tfr_s30_144_chair_00_chair1-bird3.png
subject-30,1,80,0.985054969787598,car,clock,144,0080_tfr_s30_144_clock_00_clock8-truck2.png
subject-30,1,81,1.2393000125885,elephant,car,324,0081_tfr_s30_324_car_00_car3-elephant2.png
subject-30,1,82,NaN,na,airplane,180,0082_tfr_s30_180_airplane_00_airplane9-car1.png
subject-30,1,83,NaN,na,bicycle,144,0083_tfr_s30_144_bicycle_00_bicycle3-bear2.png
subject-30,1,84,1.01780200004578,boat,truck,288,0084_tfr_s30_288_truck_00_truck9-car2.png
subject-30,1,85,1.28058981895447,car,oven,324,0085_tfr_s30_324_oven_00_oven6-airplane2.png
subject-30,1,86,0.878412961959839,clock,car,0,0086_tfr_s30_0_car_00_car8-clock3.png
subject-30,1,87,1.5003650188446,oven,bottle,108,0087_tfr_s30_108_bottle_00_bottle8-clock2.png
subject-30,1,88,1.02768898010254,bottle,keyboard,324,0088_tfr_s30_324_keyboard_00_keyboard6-bottle2.png
subject-30,1,89,1.37127614021301,cat,airplane,108,0089_tfr_s30_108_airplane_00_airplane7-dog1.png
subject-30,1,90,1.50022912025452,bottle,bottle,216,0090_tfr_s30_216_bottle_00_bottle6-oven2.png
subject-30,1,91,1.23621511459351,oven,knife,216,0091_tfr_s30_216_knife_00_knife7-bird2.png
subject-30,1,92,1.21497106552124,cat,elephant,216,0092_tfr_s30_216_elephant_00_elephant6-bear1.png
subject-30,1,93,0.839282035827637,cat,cat,36,0093_tfr_s30_36_cat_00_cat9-bicycle1.png
subject-30,1,94,0.877959966659546,bird,bird,72,0094_tfr_s30_72_bird_00_bird8-bird2.png
subject-30,1,95,0.986119031906128,cat,boat,36,0095_tfr_s30_36_boat_00_boat9-cat3.png
subject-30,1,96,0.794093132019043,car,keyboard,252,0096_tfr_s30_252_keyboard_00_keyboard8-car2.png
subject-30,1,97,1.50009298324585,cat,knife,72,0097_tfr_s30_72_knife_00_knife4-dog2.png
subject-30,1,98,0.989295959472656,clock,truck,72,0098_tfr_s30_72_truck_00_truck3-clock1.png
subject-30,1,99,1.2756519317627,chair,chair,288,0099_tfr_s30_288_chair_00_chair5-bird1.png
subject-30,1,100,1.02195501327515,boat,bear,288,0100_tfr_s30_288_bear_00_bear10-boat2.png
subject-30,1,101,0.913958072662354,bear,cat,72,0101_tfr_s30_72_cat_00_cat3-bicycle3.png
subject-30,1,102,0.922218084335327,clock,knife,36,0102_tfr_s30_36_knife_00_knife2-clock1.png
subject-30,1,103,1.25466012954712,bicycle,dog,180,0103_tfr_s30_180_dog_00_dog8-bottle2.png
subject-30,1,104,1.30899882316589,car,dog,0,0104_tfr_s30_0_dog_00_dog9-chair1.png
subject-30,1,105,1.04942297935486,chair,chair,72,0105_tfr_s30_72_chair_00_chair9-boat1.png
subject-30,1,106,0.898133993148804,cat,airplane,288,0106_tfr_s30_288_airplane_00_airplane6-bird3.png
subject-30,1,107,0.998589038848877,dog,cat,108,0107_tfr_s30_108_cat_00_cat4-dog3.png
subject-30,1,108,1.14458084106445,boat,car,36,0108_tfr_s30_36_car_00_car1-boat2.png
subject-30,1,109,0.983098983764648,car,bear,288,0109_tfr_s30_288_bear_00_bear4-bicycle3.png
subject-30,1,110,1.23926305770874,bear,bird,288,0110_tfr_s30_288_bird_00_bird2-cat2.png
subject-30,1,111,1.23952007293701,oven,bicycle,0,0111_tfr_s30_0_bicycle_00_bicycle9-truck2.png
subject-30,1,112,1.41026401519775,bird,car,0,0112_tfr_s30_0_car_00_car7-bear2.png
subject-30,1,113,1.39665699005127,cat,bird,216,0113_tfr_s30_216_bird_00_bird4-elephant2.png
subject-30,1,114,1.01315784454346,boat,clock,288,0114_tfr_s30_288_clock_00_clock6-car3.png
subject-30,1,115,1.09760713577271,truck,bicycle,0,0115_tfr_s30_0_bicycle_00_bicycle10-knife2.png
subject-30,1,116,1.04299092292786,bottle,cat,144,0116_tfr_s30_144_cat_00_cat10-bottle2.png
subject-30,1,117,1.37513995170593,bottle,elephant,0,0117_tfr_s30_0_elephant_00_elephant1-bottle1.png
subject-30,1,118,1.15961694717407,clock,bicycle,252,0118_tfr_s30_252_bicycle_00_bicycle4-clock3.png
subject-30,1,119,1.06218910217285,car,car,36,0119_tfr_s30_36_car_00_car9-car1.png
subject-30,1,120,1.06303310394287,car,elephant,252,0120_tfr_s30_252_elephant_00_elephant2-oven2.png
subject-30,1,121,0.840768814086914,cat,boat,108,0121_tfr_s30_108_boat_00_boat6-bear1.png
subject-30,1,122,0.941464900970459,airplane,knife,288,0122_tfr_s30_288_knife_00_knife3-knife2.png
subject-30,1,123,1.11996293067932,car,clock,144,0123_tfr_s30_144_clock_00_clock1-car1.png
subject-30,1,124,1.07442116737366,bottle,bottle,0,0124_tfr_s30_0_bottle_00_bottle5-oven1.png
subject-30,1,125,1.106369972229,boat,airplane,252,0125_tfr_s30_252_airplane_00_airplane5-bicycle1.png
subject-30,1,126,0.915034770965576,boat,clock,108,0126_tfr_s30_108_clock_00_clock5-boat1.png
subject-30,1,127,0.893581867218018,car,elephant,324,0127_tfr_s30_324_elephant_00_elephant8-car1.png
subject-30,1,128,1.06774687767029,bird,bird,144,0128_tfr_s30_144_bird_00_bird7-clock1.png
subject-30,1,129,0.922340869903564,cat,oven,0,0129_tfr_s30_0_oven_00_oven4-dog2.png
subject-30,1,130,0.933125972747803,bird,clock,324,0130_tfr_s30_324_clock_00_clock9-bird3.png
subject-30,1,131,1.26322197914124,knife,dog,216,0131_tfr_s30_216_dog_00_dog4-chair2.png
subject-30,1,132,0.800642013549805,bottle,bottle,108,0132_tfr_s30_108_bottle_00_bottle2-airplane3.png
subject-30,1,133,1.19495701789856,elephant,oven,108,0133_tfr_s30_108_oven_00_oven5-elephant3.png
subject-30,1,134,1.21172904968262,bottle,bear,288,0134_tfr_s30_288_bear_00_bear3-bottle3.png
subject-30,1,135,0.9739830493927,bottle,dog,0,0135_tfr_s30_0_dog_00_dog2-bottle2.png
subject-30,1,136,1.17422199249268,elephant,bicycle,216,0136_tfr_s30_216_bicycle_00_bicycle6-elephant1.png
subject-30,1,137,1.21472501754761,chair,chair,108,0137_tfr_s30_108_chair_00_chair3-bird2.png
subject-30,1,138,0.868702173233032,chair,bicycle,252,0138_tfr_s30_252_bicycle_00_bicycle1-cat2.png
subject-30,1,139,1.14395189285278,car,bird,72,0139_tfr_s30_72_bird_00_bird1-truck3.png
subject-30,1,140,0.952517986297607,elephant,keyboard,252,0140_tfr_s30_252_keyboard_00_keyboard1-elephant3.png
subject-30,1,141,0.960904121398926,oven,car,180,0141_tfr_s30_180_car_00_car5-oven3.png
subject-30,1,142,0.931140184402466,clock,keyboard,216,0142_tfr_s30_216_keyboard_00_keyboard7-clock1.png
subject-30,1,143,1.47715401649475,airplane,bear,216,0143_tfr_s30_216_bear_00_bear5-airplane1.png
subject-30,1,144,1.0315420627594,car,keyboard,180,0144_tfr_s30_180_keyboard_00_keyboard9-boat3.png
subject-30,1,145,1.31797289848328,elephant,dog,252,0145_tfr_s30_252_dog_00_dog7-bird1.png
subject-30,1,146,1.47233700752258,elephant,elephant,108,0146_tfr_s30_108_elephant_00_elephant10-elephant2.png
subject-30,1,147,1.34258913993835,elephant,airplane,324,0147_tfr_s30_324_airplane_00_airplane10-cat3.png
subject-30,1,148,0.851374864578247,car,knife,108,0148_tfr_s30_108_knife_00_knife8-car1.png
subject-30,1,149,0.891422986984253,bottle,bottle,108,0149_tfr_s30_108_bottle_00_bottle9-airplane1.png
subject-30,1,150,0.883898973464966,car,boat,216,0150_tfr_s30_216_boat_00_boat1-oven1.png
subject-30,1,151,1.02177596092224,chair,chair,0,0151_tfr_s30_0_chair_00_chair8-airplane3.png
subject-30,1,152,0.854389905929565,boat,keyboard,180,0152_tfr_s30_180_keyboard_00_keyboard10-boat1.png
subject-30,1,153,0.97904896736145,bottle,oven,0,0153_tfr_s30_0_oven_00_oven10-knife1.png
subject-30,1,154,1.27121901512146,clock,bear,0,0154_tfr_s30_0_bear_00_bear9-bird1.png
subject-30,1,155,0.987709999084473,car,truck,0,0155_tfr_s30_0_truck_00_truck6-oven2.png
subject-30,1,156,0.782151937484741,elephant,dog,252,0156_tfr_s30_252_dog_00_dog5-elephant2.png
subject-30,1,157,1.31442713737488,elephant,cat,216,0157_tfr_s30_216_cat_00_cat2-bear2.png
subject-30,1,158,1.00690698623657,clock,boat,180,0158_tfr_s30_180_boat_00_boat2-clock1.png
subject-30,1,159,1.19962191581726,bicycle,bird,324,0159_tfr_s30_324_bird_00_bird5-knife3.png
subject-30,1,160,0.901578903198242,clock,chair,36,0160_tfr_s30_36_chair_00_chair10-clock3.png
