subj,session,trial,rt,object_response,category,condition,imagename
vgg,1,1,NaN,airplane,airplane,0,0001_tfr_dnn_0_airplane_00_airplane1-bicycle2-108.png
vgg,1,2,NaN,airplane,airplane,0,0002_tfr_dnn_0_airplane_00_airplane1-bottle3-324.png
vgg,1,3,NaN,airplane,airplane,0,0003_tfr_dnn_0_airplane_00_airplane1-chair3-324.png
vgg,1,4,NaN,airplane,airplane,0,0004_tfr_dnn_0_airplane_00_airplane1-elephant1-144.png
vgg,1,5,NaN,airplane,airplane,0,0005_tfr_dnn_0_airplane_00_airplane1-keyboard1-36.png
vgg,1,6,NaN,cat,airplane,0,0006_tfr_dnn_0_airplane_00_airplane10-bear1-180.png
vgg,1,7,NaN,chair,airplane,0,0007_tfr_dnn_0_airplane_00_airplane10-boat3-0.png
vgg,1,8,NaN,bottle,airplane,0,0008_tfr_dnn_0_airplane_00_airplane10-bottle1-288.png
vgg,1,9,NaN,chair,airplane,0,0009_tfr_dnn_0_airplane_00_airplane10-car3-72.png
vgg,1,10,NaN,bird,airplane,0,0010_tfr_dnn_0_airplane_00_airplane10-cat3-324.png
vgg,1,11,NaN,chair,airplane,0,0011_tfr_dnn_0_airplane_00_airplane10-knife3-144.png
vgg,1,12,NaN,airplane,airplane,0,0012_tfr_dnn_0_airplane_00_airplane2-airplane2-0.png
vgg,1,13,NaN,bird,airplane,0,0013_tfr_dnn_0_airplane_00_airplane2-bear2-0.png
vgg,1,14,NaN,dog,airplane,0,0014_tfr_dnn_0_airplane_00_airplane2-bird2-288.png
vgg,1,15,NaN,bicycle,airplane,0,0015_tfr_dnn_0_airplane_00_airplane2-bottle2-72.png
vgg,1,16,NaN,chair,airplane,0,0016_tfr_dnn_0_airplane_00_airplane2-chair2-216.png
vgg,1,17,NaN,bird,airplane,0,0017_tfr_dnn_0_airplane_00_airplane2-dog2-252.png
vgg,1,18,NaN,chair,airplane,0,0018_tfr_dnn_0_airplane_00_airplane2-elephant3-288.png
vgg,1,19,NaN,knife,airplane,0,0019_tfr_dnn_0_airplane_00_airplane2-keyboard1-288.png
vgg,1,20,NaN,airplane,airplane,0,0020_tfr_dnn_0_airplane_00_airplane2-knife3-72.png
vgg,1,21,NaN,bird,airplane,0,0021_tfr_dnn_0_airplane_00_airplane2-truck1-0.png
vgg,1,22,NaN,airplane,airplane,0,0022_tfr_dnn_0_airplane_00_airplane3-bird1-72.png
vgg,1,23,NaN,airplane,airplane,0,0023_tfr_dnn_0_airplane_00_airplane3-boat2-36.png
vgg,1,24,NaN,airplane,airplane,0,0024_tfr_dnn_0_airplane_00_airplane3-bottle2-216.png
vgg,1,25,NaN,airplane,airplane,0,0025_tfr_dnn_0_airplane_00_airplane3-car1-108.png
vgg,1,26,NaN,airplane,airplane,0,0026_tfr_dnn_0_airplane_00_airplane3-keyboard2-216.png
vgg,1,27,NaN,airplane,airplane,0,0027_tfr_dnn_0_airplane_00_airplane3-knife1-180.png
vgg,1,28,NaN,airplane,airplane,0,0028_tfr_dnn_0_airplane_00_airplane3-oven2-144.png
vgg,1,29,NaN,airplane,airplane,0,0029_tfr_dnn_0_airplane_00_airplane3-truck3-72.png
vgg,1,30,NaN,chair,airplane,0,0030_tfr_dnn_0_airplane_00_airplane4-airplane2-72.png
vgg,1,31,NaN,bird,airplane,0,0031_tfr_dnn_0_airplane_00_airplane4-bear3-0.png
vgg,1,32,NaN,knife,airplane,0,0032_tfr_dnn_0_airplane_00_airplane4-bicycle3-180.png
vgg,1,33,NaN,airplane,airplane,0,0033_tfr_dnn_0_airplane_00_airplane4-bird2-252.png
vgg,1,34,NaN,truck,airplane,0,0034_tfr_dnn_0_airplane_00_airplane4-boat2-324.png
vgg,1,35,NaN,bird,airplane,0,0035_tfr_dnn_0_airplane_00_airplane4-cat3-144.png
vgg,1,36,NaN,knife,airplane,0,0036_tfr_dnn_0_airplane_00_airplane4-clock2-288.png
vgg,1,37,NaN,dog,airplane,0,0037_tfr_dnn_0_airplane_00_airplane4-dog1-0.png
vgg,1,38,NaN,bird,airplane,0,0038_tfr_dnn_0_airplane_00_airplane4-elephant1-0.png
vgg,1,39,NaN,bird,airplane,0,0039_tfr_dnn_0_airplane_00_airplane5-bear3-180.png
vgg,1,40,NaN,truck,airplane,0,0040_tfr_dnn_0_airplane_00_airplane5-bicycle1-252.png
vgg,1,41,NaN,airplane,airplane,0,0041_tfr_dnn_0_airplane_00_airplane5-car1-324.png
vgg,1,42,NaN,bird,airplane,0,0042_tfr_dnn_0_airplane_00_airplane5-dog3-144.png
vgg,1,43,NaN,knife,airplane,0,0043_tfr_dnn_0_airplane_00_airplane5-knife1-216.png
vgg,1,44,NaN,airplane,airplane,0,0044_tfr_dnn_0_airplane_00_airplane5-oven1-72.png
vgg,1,45,NaN,airplane,airplane,0,0045_tfr_dnn_0_airplane_00_airplane5-truck3-288.png
vgg,1,46,NaN,airplane,airplane,0,0046_tfr_dnn_0_airplane_00_airplane6-airplane3-36.png
vgg,1,47,NaN,dog,airplane,0,0047_tfr_dnn_0_airplane_00_airplane6-bird3-288.png
vgg,1,48,NaN,bird,airplane,0,0048_tfr_dnn_0_airplane_00_airplane6-chair1-36.png
vgg,1,49,NaN,chair,airplane,0,0049_tfr_dnn_0_airplane_00_airplane6-clock1-144.png
vgg,1,50,NaN,bird,airplane,0,0050_tfr_dnn_0_airplane_00_airplane6-dog2-108.png
vgg,1,51,NaN,knife,airplane,0,0051_tfr_dnn_0_airplane_00_airplane6-elephant2-216.png
vgg,1,52,NaN,knife,airplane,0,0052_tfr_dnn_0_airplane_00_airplane6-keyboard3-288.png
vgg,1,53,NaN,airplane,airplane,0,0053_tfr_dnn_0_airplane_00_airplane6-knife3-36.png
vgg,1,54,NaN,truck,airplane,0,0054_tfr_dnn_0_airplane_00_airplane6-oven3-216.png
vgg,1,55,NaN,airplane,airplane,0,0055_tfr_dnn_0_airplane_00_airplane6-truck3-216.png
vgg,1,56,NaN,airplane,airplane,0,0056_tfr_dnn_0_airplane_00_airplane7-airplane1-288.png
vgg,1,57,NaN,bird,airplane,0,0057_tfr_dnn_0_airplane_00_airplane7-bear3-144.png
vgg,1,58,NaN,bottle,airplane,0,0058_tfr_dnn_0_airplane_00_airplane7-bottle1-108.png
vgg,1,59,NaN,chair,airplane,0,0059_tfr_dnn_0_airplane_00_airplane7-car1-252.png
vgg,1,60,NaN,dog,airplane,0,0060_tfr_dnn_0_airplane_00_airplane7-cat2-180.png
vgg,1,61,NaN,chair,airplane,0,0061_tfr_dnn_0_airplane_00_airplane7-chair3-36.png
vgg,1,62,NaN,clock,airplane,0,0062_tfr_dnn_0_airplane_00_airplane7-clock3-288.png
vgg,1,63,NaN,dog,airplane,0,0063_tfr_dnn_0_airplane_00_airplane7-dog1-108.png
vgg,1,64,NaN,truck,airplane,0,0064_tfr_dnn_0_airplane_00_airplane8-bicycle1-108.png
vgg,1,65,NaN,bird,airplane,0,0065_tfr_dnn_0_airplane_00_airplane8-bird3-324.png
vgg,1,66,NaN,chair,airplane,0,0066_tfr_dnn_0_airplane_00_airplane8-boat1-288.png
vgg,1,67,NaN,bird,airplane,0,0067_tfr_dnn_0_airplane_00_airplane8-cat3-72.png
vgg,1,68,NaN,chair,airplane,0,0068_tfr_dnn_0_airplane_00_airplane8-chair2-144.png
vgg,1,69,NaN,truck,airplane,0,0069_tfr_dnn_0_airplane_00_airplane8-clock1-0.png
vgg,1,70,NaN,clock,airplane,0,0070_tfr_dnn_0_airplane_00_airplane8-oven3-0.png
vgg,1,71,NaN,chair,airplane,0,0071_tfr_dnn_0_airplane_00_airplane8-truck1-288.png
vgg,1,72,NaN,airplane,airplane,0,0072_tfr_dnn_0_airplane_00_airplane9-airplane2-216.png
vgg,1,73,NaN,chair,airplane,0,0073_tfr_dnn_0_airplane_00_airplane9-bicycle3-72.png
vgg,1,74,NaN,chair,airplane,0,0074_tfr_dnn_0_airplane_00_airplane9-boat1-36.png
vgg,1,75,NaN,bicycle,airplane,0,0075_tfr_dnn_0_airplane_00_airplane9-car1-180.png
vgg,1,76,NaN,chair,airplane,0,0076_tfr_dnn_0_airplane_00_airplane9-cat3-216.png
vgg,1,77,NaN,clock,airplane,0,0077_tfr_dnn_0_airplane_00_airplane9-clock1-324.png
vgg,1,78,NaN,chair,airplane,0,0078_tfr_dnn_0_airplane_00_airplane9-elephant1-216.png
vgg,1,79,NaN,chair,airplane,0,0079_tfr_dnn_0_airplane_00_airplane9-keyboard2-180.png
vgg,1,80,NaN,airplane,airplane,0,0080_tfr_dnn_0_airplane_00_airplane9-oven3-72.png
vgg,1,81,NaN,knife,bear,0,0081_tfr_dnn_0_bear_00_bear1-airplane1-324.png
vgg,1,82,NaN,dog,bear,0,0082_tfr_dnn_0_bear_00_bear1-bear3-180.png
vgg,1,83,NaN,clock,bear,0,0083_tfr_dnn_0_bear_00_bear1-bicycle1-144.png
vgg,1,84,NaN,chair,bear,0,0084_tfr_dnn_0_bear_00_bear1-boat3-180.png
vgg,1,85,NaN,bird,bear,0,0085_tfr_dnn_0_bear_00_bear1-cat3-324.png
vgg,1,86,NaN,chair,bear,0,0086_tfr_dnn_0_bear_00_bear1-chair2-36.png
vgg,1,87,NaN,dog,bear,0,0087_tfr_dnn_0_bear_00_bear1-dog2-252.png
vgg,1,88,NaN,keyboard,bear,0,0088_tfr_dnn_0_bear_00_bear1-keyboard3-0.png
vgg,1,89,NaN,knife,bear,0,0089_tfr_dnn_0_bear_00_bear1-knife1-144.png
vgg,1,90,NaN,bottle,bear,0,0090_tfr_dnn_0_bear_00_bear1-truck3-144.png
vgg,1,91,NaN,bird,bear,0,0091_tfr_dnn_0_bear_00_bear10-bear3-72.png
vgg,1,92,NaN,bicycle,bear,0,0092_tfr_dnn_0_bear_00_bear10-bicycle2-288.png
vgg,1,93,NaN,boat,bear,0,0093_tfr_dnn_0_bear_00_bear10-boat2-288.png
vgg,1,94,NaN,boat,bear,0,0094_tfr_dnn_0_bear_00_bear10-car1-324.png
vgg,1,95,NaN,cat,bear,0,0095_tfr_dnn_0_bear_00_bear10-cat2-252.png
vgg,1,96,NaN,clock,bear,0,0096_tfr_dnn_0_bear_00_bear10-clock2-252.png
vgg,1,97,NaN,bird,bear,0,0097_tfr_dnn_0_bear_00_bear10-elephant2-36.png
vgg,1,98,NaN,knife,bear,0,0098_tfr_dnn_0_bear_00_bear10-oven1-72.png
vgg,1,99,NaN,truck,bear,0,0099_tfr_dnn_0_bear_00_bear10-truck3-108.png
vgg,1,100,NaN,bottle,bear,0,0100_tfr_dnn_0_bear_00_bear2-airplane3-288.png
vgg,1,101,NaN,bottle,bear,0,0101_tfr_dnn_0_bear_00_bear2-bottle3-324.png
vgg,1,102,NaN,keyboard,bear,0,0102_tfr_dnn_0_bear_00_bear2-car2-0.png
vgg,1,103,NaN,chair,bear,0,0103_tfr_dnn_0_bear_00_bear2-chair2-72.png
vgg,1,104,NaN,clock,bear,0,0104_tfr_dnn_0_bear_00_bear2-clock3-216.png
vgg,1,105,NaN,bird,bear,0,0105_tfr_dnn_0_bear_00_bear2-dog3-0.png
vgg,1,106,NaN,cat,bear,0,0106_tfr_dnn_0_bear_00_bear2-elephant2-108.png
vgg,1,107,NaN,chair,bear,0,0107_tfr_dnn_0_bear_00_bear2-keyboard1-0.png
vgg,1,108,NaN,knife,bear,0,0108_tfr_dnn_0_bear_00_bear2-knife1-36.png
vgg,1,109,NaN,chair,bear,0,0109_tfr_dnn_0_bear_00_bear2-oven2-324.png
vgg,1,110,NaN,cat,bear,0,0110_tfr_dnn_0_bear_00_bear3-bear2-72.png
vgg,1,111,NaN,knife,bear,0,0111_tfr_dnn_0_bear_00_bear3-bird1-108.png
vgg,1,112,NaN,chair,bear,0,0112_tfr_dnn_0_bear_00_bear3-boat3-288.png
vgg,1,113,NaN,bottle,bear,0,0113_tfr_dnn_0_bear_00_bear3-bottle3-288.png
vgg,1,114,NaN,dog,bear,0,0114_tfr_dnn_0_bear_00_bear3-cat1-288.png
vgg,1,115,NaN,chair,bear,0,0115_tfr_dnn_0_bear_00_bear3-chair2-252.png
vgg,1,116,NaN,clock,bear,0,0116_tfr_dnn_0_bear_00_bear3-clock3-36.png
vgg,1,117,NaN,dog,bear,0,0117_tfr_dnn_0_bear_00_bear3-dog1-0.png
vgg,1,118,NaN,keyboard,bear,0,0118_tfr_dnn_0_bear_00_bear3-keyboard3-324.png
vgg,1,119,NaN,knife,bear,0,0119_tfr_dnn_0_bear_00_bear3-knife1-216.png
vgg,1,120,NaN,knife,bear,0,0120_tfr_dnn_0_bear_00_bear4-bicycle3-288.png
vgg,1,121,NaN,dog,bear,0,0121_tfr_dnn_0_bear_00_bear4-cat3-252.png
vgg,1,122,NaN,clock,bear,0,0122_tfr_dnn_0_bear_00_bear4-keyboard3-72.png
vgg,1,123,NaN,knife,bear,0,0123_tfr_dnn_0_bear_00_bear4-knife3-324.png
vgg,1,124,NaN,knife,bear,0,0124_tfr_dnn_0_bear_00_bear5-airplane1-216.png
vgg,1,125,NaN,bottle,bear,0,0125_tfr_dnn_0_bear_00_bear5-bicycle1-216.png
vgg,1,126,NaN,bird,bear,0,0126_tfr_dnn_0_bear_00_bear5-bird2-36.png
vgg,1,127,NaN,bottle,bear,0,0127_tfr_dnn_0_bear_00_bear5-boat1-252.png
vgg,1,128,NaN,bottle,bear,0,0128_tfr_dnn_0_bear_00_bear5-chair1-144.png
vgg,1,129,NaN,clock,bear,0,0129_tfr_dnn_0_bear_00_bear5-clock3-72.png
vgg,1,130,NaN,elephant,bear,0,0130_tfr_dnn_0_bear_00_bear5-elephant1-0.png
vgg,1,131,NaN,keyboard,bear,0,0131_tfr_dnn_0_bear_00_bear5-keyboard2-216.png
vgg,1,132,NaN,knife,bear,0,0132_tfr_dnn_0_bear_00_bear5-oven1-0.png
vgg,1,133,NaN,cat,bear,0,0133_tfr_dnn_0_bear_00_bear6-bear2-288.png
vgg,1,134,NaN,chair,bear,0,0134_tfr_dnn_0_bear_00_bear6-bicycle3-180.png
vgg,1,135,NaN,bird,bear,0,0135_tfr_dnn_0_bear_00_bear6-bird3-72.png
vgg,1,136,NaN,bottle,bear,0,0136_tfr_dnn_0_bear_00_bear6-bottle2-252.png
vgg,1,137,NaN,truck,bear,0,0137_tfr_dnn_0_bear_00_bear6-car1-288.png
vgg,1,138,NaN,cat,bear,0,0138_tfr_dnn_0_bear_00_bear6-cat3-216.png
vgg,1,139,NaN,dog,bear,0,0139_tfr_dnn_0_bear_00_bear6-dog2-180.png
vgg,1,140,NaN,knife,bear,0,0140_tfr_dnn_0_bear_00_bear6-elephant2-252.png
vgg,1,141,NaN,knife,bear,0,0141_tfr_dnn_0_bear_00_bear6-knife3-180.png
vgg,1,142,NaN,knife,bear,0,0142_tfr_dnn_0_bear_00_bear7-airplane3-72.png
vgg,1,143,NaN,bird,bear,0,0143_tfr_dnn_0_bear_00_bear7-bird3-0.png
vgg,1,144,NaN,chair,bear,0,0144_tfr_dnn_0_bear_00_bear7-chair1-36.png
vgg,1,145,NaN,dog,bear,0,0145_tfr_dnn_0_bear_00_bear7-dog1-180.png
vgg,1,146,NaN,bird,bear,0,0146_tfr_dnn_0_bear_00_bear7-elephant3-288.png
vgg,1,147,NaN,clock,bear,0,0147_tfr_dnn_0_bear_00_bear7-oven3-216.png
vgg,1,148,NaN,car,bear,0,0148_tfr_dnn_0_bear_00_bear7-truck1-108.png
vgg,1,149,NaN,truck,bear,0,0149_tfr_dnn_0_bear_00_bear8-boat1-216.png
vgg,1,150,NaN,bottle,bear,0,0150_tfr_dnn_0_bear_00_bear8-bottle3-36.png
vgg,1,151,NaN,car,bear,0,0151_tfr_dnn_0_bear_00_bear8-car1-0.png
vgg,1,152,NaN,clock,bear,0,0152_tfr_dnn_0_bear_00_bear8-clock1-144.png
vgg,1,153,NaN,bottle,bear,0,0153_tfr_dnn_0_bear_00_bear8-truck3-288.png
vgg,1,154,NaN,knife,bear,0,0154_tfr_dnn_0_bear_00_bear9-airplane1-36.png
vgg,1,155,NaN,bear,bear,0,0155_tfr_dnn_0_bear_00_bear9-bear1-36.png
vgg,1,156,NaN,bird,bear,0,0156_tfr_dnn_0_bear_00_bear9-bird1-0.png
vgg,1,157,NaN,bottle,bear,0,0157_tfr_dnn_0_bear_00_bear9-bottle1-252.png
vgg,1,158,NaN,car,bear,0,0158_tfr_dnn_0_bear_00_bear9-car2-324.png
vgg,1,159,NaN,keyboard,bear,0,0159_tfr_dnn_0_bear_00_bear9-oven1-144.png
vgg,1,160,NaN,bottle,bear,0,0160_tfr_dnn_0_bear_00_bear9-truck2-216.png
vgg,1,161,NaN,chair,bicycle,0,0161_tfr_dnn_0_bicycle_00_bicycle1-bear3-324.png
vgg,1,162,NaN,bicycle,bicycle,0,0162_tfr_dnn_0_bicycle_00_bicycle1-bicycle3-108.png
vgg,1,163,NaN,bicycle,bicycle,0,0163_tfr_dnn_0_bicycle_00_bicycle1-bird1-72.png
vgg,1,164,NaN,truck,bicycle,0,0164_tfr_dnn_0_bicycle_00_bicycle1-car3-0.png
vgg,1,165,NaN,chair,bicycle,0,0165_tfr_dnn_0_bicycle_00_bicycle1-cat2-252.png
vgg,1,166,NaN,bicycle,bicycle,0,0166_tfr_dnn_0_bicycle_00_bicycle1-chair2-36.png
vgg,1,167,NaN,bicycle,bicycle,0,0167_tfr_dnn_0_bicycle_00_bicycle1-clock2-252.png
vgg,1,168,NaN,clock,bicycle,0,0168_tfr_dnn_0_bicycle_00_bicycle1-dog1-180.png
vgg,1,169,NaN,bicycle,bicycle,0,0169_tfr_dnn_0_bicycle_00_bicycle1-elephant1-180.png
vgg,1,170,NaN,bicycle,bicycle,0,0170_tfr_dnn_0_bicycle_00_bicycle1-keyboard2-108.png
vgg,1,171,NaN,bicycle,bicycle,0,0171_tfr_dnn_0_bicycle_00_bicycle1-knife2-144.png
vgg,1,172,NaN,clock,bicycle,0,0172_tfr_dnn_0_bicycle_00_bicycle10-airplane1-288.png
vgg,1,173,NaN,clock,bicycle,0,0173_tfr_dnn_0_bicycle_00_bicycle10-boat2-216.png
vgg,1,174,NaN,clock,bicycle,0,0174_tfr_dnn_0_bicycle_00_bicycle10-car3-144.png
vgg,1,175,NaN,clock,bicycle,0,0175_tfr_dnn_0_bicycle_00_bicycle10-elephant2-144.png
vgg,1,176,NaN,clock,bicycle,0,0176_tfr_dnn_0_bicycle_00_bicycle10-knife2-0.png
vgg,1,177,NaN,clock,bicycle,0,0177_tfr_dnn_0_bicycle_00_bicycle10-oven1-324.png
vgg,1,178,NaN,clock,bicycle,0,0178_tfr_dnn_0_bicycle_00_bicycle2-airplane2-252.png
vgg,1,179,NaN,chair,bicycle,0,0179_tfr_dnn_0_bicycle_00_bicycle2-bear1-288.png
vgg,1,180,NaN,bird,bicycle,0,0180_tfr_dnn_0_bicycle_00_bicycle2-bicycle3-144.png
vgg,1,181,NaN,boat,bicycle,0,0181_tfr_dnn_0_bicycle_00_bicycle2-boat1-252.png
vgg,1,182,NaN,bicycle,bicycle,0,0182_tfr_dnn_0_bicycle_00_bicycle2-bottle1-72.png
vgg,1,183,NaN,chair,bicycle,0,0183_tfr_dnn_0_bicycle_00_bicycle2-cat3-0.png
vgg,1,184,NaN,chair,bicycle,0,0184_tfr_dnn_0_bicycle_00_bicycle2-dog1-216.png
vgg,1,185,NaN,chair,bicycle,0,0185_tfr_dnn_0_bicycle_00_bicycle2-keyboard2-324.png
vgg,1,186,NaN,chair,bicycle,0,0186_tfr_dnn_0_bicycle_00_bicycle2-knife2-108.png
vgg,1,187,NaN,chair,bicycle,0,0187_tfr_dnn_0_bicycle_00_bicycle2-oven3-36.png
vgg,1,188,NaN,bird,bicycle,0,0188_tfr_dnn_0_bicycle_00_bicycle3-bear2-144.png
vgg,1,189,NaN,chair,bicycle,0,0189_tfr_dnn_0_bicycle_00_bicycle3-bird3-108.png
vgg,1,190,NaN,chair,bicycle,0,0190_tfr_dnn_0_bicycle_00_bicycle3-boat3-72.png
vgg,1,191,NaN,clock,bicycle,0,0191_tfr_dnn_0_bicycle_00_bicycle3-chair1-216.png
vgg,1,192,NaN,chair,bicycle,0,0192_tfr_dnn_0_bicycle_00_bicycle3-clock2-108.png
vgg,1,193,NaN,bird,bicycle,0,0193_tfr_dnn_0_bicycle_00_bicycle3-dog1-72.png
vgg,1,194,NaN,chair,bicycle,0,0194_tfr_dnn_0_bicycle_00_bicycle3-elephant2-252.png
vgg,1,195,NaN,bicycle,bicycle,0,0195_tfr_dnn_0_bicycle_00_bicycle3-oven3-72.png
vgg,1,196,NaN,truck,bicycle,0,0196_tfr_dnn_0_bicycle_00_bicycle3-truck3-0.png
vgg,1,197,NaN,bicycle,bicycle,0,0197_tfr_dnn_0_bicycle_00_bicycle4-bird2-72.png
vgg,1,198,NaN,bicycle,bicycle,0,0198_tfr_dnn_0_bicycle_00_bicycle4-bottle2-288.png
vgg,1,199,NaN,bicycle,bicycle,0,0199_tfr_dnn_0_bicycle_00_bicycle4-car3-252.png
vgg,1,200,NaN,chair,bicycle,0,0200_tfr_dnn_0_bicycle_00_bicycle4-cat1-324.png
vgg,1,201,NaN,chair,bicycle,0,0201_tfr_dnn_0_bicycle_00_bicycle4-chair2-252.png
vgg,1,202,NaN,clock,bicycle,0,0202_tfr_dnn_0_bicycle_00_bicycle4-clock3-252.png
vgg,1,203,NaN,bicycle,bicycle,0,0203_tfr_dnn_0_bicycle_00_bicycle4-keyboard1-144.png
vgg,1,204,NaN,bicycle,bicycle,0,0204_tfr_dnn_0_bicycle_00_bicycle4-truck2-144.png
vgg,1,205,NaN,bicycle,bicycle,0,0205_tfr_dnn_0_bicycle_00_bicycle5-bicycle1-108.png
vgg,1,206,NaN,bicycle,bicycle,0,0206_tfr_dnn_0_bicycle_00_bicycle5-car1-36.png
vgg,1,207,NaN,chair,bicycle,0,0207_tfr_dnn_0_bicycle_00_bicycle5-cat2-144.png
vgg,1,208,NaN,chair,bicycle,0,0208_tfr_dnn_0_bicycle_00_bicycle5-chair2-108.png
vgg,1,209,NaN,knife,bicycle,0,0209_tfr_dnn_0_bicycle_00_bicycle6-airplane3-108.png
vgg,1,210,NaN,chair,bicycle,0,0210_tfr_dnn_0_bicycle_00_bicycle6-bird2-216.png
vgg,1,211,NaN,boat,bicycle,0,0211_tfr_dnn_0_bicycle_00_bicycle6-boat2-144.png
vgg,1,212,NaN,clock,bicycle,0,0212_tfr_dnn_0_bicycle_00_bicycle6-bottle2-36.png
vgg,1,213,NaN,knife,bicycle,0,0213_tfr_dnn_0_bicycle_00_bicycle6-cat3-216.png
vgg,1,214,NaN,clock,bicycle,0,0214_tfr_dnn_0_bicycle_00_bicycle6-clock1-216.png
vgg,1,215,NaN,knife,bicycle,0,0215_tfr_dnn_0_bicycle_00_bicycle6-elephant1-216.png
vgg,1,216,NaN,chair,bicycle,0,0216_tfr_dnn_0_bicycle_00_bicycle6-knife3-36.png
vgg,1,217,NaN,chair,bicycle,0,0217_tfr_dnn_0_bicycle_00_bicycle6-oven1-72.png
vgg,1,218,NaN,bicycle,bicycle,0,0218_tfr_dnn_0_bicycle_00_bicycle7-bear3-252.png
vgg,1,219,NaN,bicycle,bicycle,0,0219_tfr_dnn_0_bicycle_00_bicycle7-bird1-252.png
vgg,1,220,NaN,bicycle,bicycle,0,0220_tfr_dnn_0_bicycle_00_bicycle7-boat2-72.png
vgg,1,221,NaN,clock,bicycle,0,0221_tfr_dnn_0_bicycle_00_bicycle7-bottle3-324.png
vgg,1,222,NaN,clock,bicycle,0,0222_tfr_dnn_0_bicycle_00_bicycle7-dog1-108.png
vgg,1,223,NaN,bicycle,bicycle,0,0223_tfr_dnn_0_bicycle_00_bicycle7-elephant3-180.png
vgg,1,224,NaN,bicycle,bicycle,0,0224_tfr_dnn_0_bicycle_00_bicycle7-keyboard3-324.png
vgg,1,225,NaN,bicycle,bicycle,0,0225_tfr_dnn_0_bicycle_00_bicycle7-truck3-252.png
vgg,1,226,NaN,bicycle,bicycle,0,0226_tfr_dnn_0_bicycle_00_bicycle8-airplane3-36.png
vgg,1,227,NaN,chair,bicycle,0,0227_tfr_dnn_0_bicycle_00_bicycle8-bear3-180.png
vgg,1,228,NaN,bicycle,bicycle,0,0228_tfr_dnn_0_bicycle_00_bicycle8-bicycle2-216.png
vgg,1,229,NaN,clock,bicycle,0,0229_tfr_dnn_0_bicycle_00_bicycle8-chair3-252.png
vgg,1,230,NaN,clock,bicycle,0,0230_tfr_dnn_0_bicycle_00_bicycle8-oven3-252.png
vgg,1,231,NaN,bicycle,bicycle,0,0231_tfr_dnn_0_bicycle_00_bicycle8-truck2-324.png
vgg,1,232,NaN,bicycle,bicycle,0,0232_tfr_dnn_0_bicycle_00_bicycle9-airplane2-0.png
vgg,1,233,NaN,bicycle,bicycle,0,0233_tfr_dnn_0_bicycle_00_bicycle9-bicycle3-324.png
vgg,1,234,NaN,bicycle,bicycle,0,0234_tfr_dnn_0_bicycle_00_bicycle9-bottle3-72.png
vgg,1,235,NaN,bicycle,bicycle,0,0235_tfr_dnn_0_bicycle_00_bicycle9-car3-72.png
vgg,1,236,NaN,bicycle,bicycle,0,0236_tfr_dnn_0_bicycle_00_bicycle9-clock3-0.png
vgg,1,237,NaN,bicycle,bicycle,0,0237_tfr_dnn_0_bicycle_00_bicycle9-dog3-108.png
vgg,1,238,NaN,bicycle,bicycle,0,0238_tfr_dnn_0_bicycle_00_bicycle9-keyboard1-0.png
vgg,1,239,NaN,bicycle,bicycle,0,0239_tfr_dnn_0_bicycle_00_bicycle9-knife2-180.png
vgg,1,240,NaN,truck,bicycle,0,0240_tfr_dnn_0_bicycle_00_bicycle9-truck2-0.png
vgg,1,241,NaN,airplane,bird,0,0241_tfr_dnn_0_bird_00_bird1-airplane1-144.png
vgg,1,242,NaN,bird,bird,0,0242_tfr_dnn_0_bird_00_bird1-bear3-180.png
vgg,1,243,NaN,clock,bird,0,0243_tfr_dnn_0_bird_00_bird1-bicycle3-216.png
vgg,1,244,NaN,bottle,bird,0,0244_tfr_dnn_0_bird_00_bird1-bottle2-216.png
vgg,1,245,NaN,bird,bird,0,0245_tfr_dnn_0_bird_00_bird1-car1-108.png
vgg,1,246,NaN,clock,bird,0,0246_tfr_dnn_0_bird_00_bird1-clock1-0.png
vgg,1,247,NaN,bird,bird,0,0247_tfr_dnn_0_bird_00_bird1-elephant2-324.png
vgg,1,248,NaN,bird,bird,0,0248_tfr_dnn_0_bird_00_bird1-knife2-324.png
vgg,1,249,NaN,bottle,bird,0,0249_tfr_dnn_0_bird_00_bird1-truck3-72.png
vgg,1,250,NaN,chair,bird,0,0250_tfr_dnn_0_bird_00_bird10-airplane3-180.png
vgg,1,251,NaN,bottle,bird,0,0251_tfr_dnn_0_bird_00_bird10-boat3-0.png
vgg,1,252,NaN,bottle,bird,0,0252_tfr_dnn_0_bird_00_bird10-chair3-252.png
vgg,1,253,NaN,bottle,bird,0,0253_tfr_dnn_0_bird_00_bird10-oven3-324.png
vgg,1,254,NaN,knife,bird,0,0254_tfr_dnn_0_bird_00_bird2-airplane1-216.png
vgg,1,255,NaN,cat,bird,0,0255_tfr_dnn_0_bird_00_bird2-bear1-216.png
vgg,1,256,NaN,bottle,bird,0,0256_tfr_dnn_0_bird_00_bird2-bicycle2-252.png
vgg,1,257,NaN,bird,bird,0,0257_tfr_dnn_0_bird_00_bird2-bird2-180.png
vgg,1,258,NaN,boat,bird,0,0258_tfr_dnn_0_bird_00_bird2-boat2-144.png
vgg,1,259,NaN,bottle,bird,0,0259_tfr_dnn_0_bird_00_bird2-car3-288.png
vgg,1,260,NaN,cat,bird,0,0260_tfr_dnn_0_bird_00_bird2-cat2-288.png
vgg,1,261,NaN,bird,bird,0,0261_tfr_dnn_0_bird_00_bird2-dog2-144.png
vgg,1,262,NaN,bird,bird,0,0262_tfr_dnn_0_bird_00_bird2-elephant2-288.png
vgg,1,263,NaN,knife,bird,0,0263_tfr_dnn_0_bird_00_bird2-oven2-72.png
vgg,1,264,NaN,airplane,bird,0,0264_tfr_dnn_0_bird_00_bird3-airplane1-36.png
vgg,1,265,NaN,bird,bird,0,0265_tfr_dnn_0_bird_00_bird3-bear2-108.png
vgg,1,266,NaN,dog,bird,0,0266_tfr_dnn_0_bird_00_bird3-bicycle3-108.png
vgg,1,267,NaN,bottle,bird,0,0267_tfr_dnn_0_bird_00_bird3-bird2-36.png
vgg,1,268,NaN,bird,bird,0,0268_tfr_dnn_0_bird_00_bird3-cat3-108.png
vgg,1,269,NaN,chair,bird,0,0269_tfr_dnn_0_bird_00_bird3-chair1-288.png
vgg,1,270,NaN,dog,bird,0,0270_tfr_dnn_0_bird_00_bird3-dog2-108.png
vgg,1,271,NaN,chair,bird,0,0271_tfr_dnn_0_bird_00_bird3-keyboard2-252.png
vgg,1,272,NaN,knife,bird,0,0272_tfr_dnn_0_bird_00_bird3-knife1-324.png
vgg,1,273,NaN,bird,bird,0,0273_tfr_dnn_0_bird_00_bird4-bird3-324.png
vgg,1,274,NaN,chair,bird,0,0274_tfr_dnn_0_bird_00_bird4-boat1-288.png
vgg,1,275,NaN,truck,bird,0,0275_tfr_dnn_0_bird_00_bird4-car1-36.png
vgg,1,276,NaN,clock,bird,0,0276_tfr_dnn_0_bird_00_bird4-clock3-324.png
vgg,1,277,NaN,dog,bird,0,0277_tfr_dnn_0_bird_00_bird4-dog1-252.png
vgg,1,278,NaN,bird,bird,0,0278_tfr_dnn_0_bird_00_bird4-elephant2-216.png
vgg,1,279,NaN,chair,bird,0,0279_tfr_dnn_0_bird_00_bird4-keyboard2-108.png
vgg,1,280,NaN,knife,bird,0,0280_tfr_dnn_0_bird_00_bird4-knife1-216.png
vgg,1,281,NaN,knife,bird,0,0281_tfr_dnn_0_bird_00_bird4-oven2-252.png
vgg,1,282,NaN,bird,bird,0,0282_tfr_dnn_0_bird_00_bird4-truck1-108.png
vgg,1,283,NaN,bottle,bird,0,0283_tfr_dnn_0_bird_00_bird5-bottle2-108.png
vgg,1,284,NaN,knife,bird,0,0284_tfr_dnn_0_bird_00_bird5-car2-324.png
vgg,1,285,NaN,dog,bird,0,0285_tfr_dnn_0_bird_00_bird5-cat2-72.png
vgg,1,286,NaN,knife,bird,0,0286_tfr_dnn_0_bird_00_bird5-clock2-144.png
vgg,1,287,NaN,bird,bird,0,0287_tfr_dnn_0_bird_00_bird5-dog3-252.png
vgg,1,288,NaN,bird,bird,0,0288_tfr_dnn_0_bird_00_bird5-elephant1-36.png
vgg,1,289,NaN,chair,bird,0,0289_tfr_dnn_0_bird_00_bird5-keyboard2-0.png
vgg,1,290,NaN,knife,bird,0,0290_tfr_dnn_0_bird_00_bird5-knife3-324.png
vgg,1,291,NaN,bird,bird,0,0291_tfr_dnn_0_bird_00_bird5-oven2-144.png
vgg,1,292,NaN,bottle,bird,0,0292_tfr_dnn_0_bird_00_bird5-truck2-324.png
vgg,1,293,NaN,airplane,bird,0,0293_tfr_dnn_0_bird_00_bird6-airplane2-288.png
vgg,1,294,NaN,bird,bird,0,0294_tfr_dnn_0_bird_00_bird6-bear3-144.png
vgg,1,295,NaN,dog,bird,0,0295_tfr_dnn_0_bird_00_bird6-bicycle3-288.png
vgg,1,296,NaN,bird,bird,0,0296_tfr_dnn_0_bird_00_bird6-bird3-252.png
vgg,1,297,NaN,bird,bird,0,0297_tfr_dnn_0_bird_00_bird6-boat3-216.png
vgg,1,298,NaN,bottle,bird,0,0298_tfr_dnn_0_bird_00_bird6-bottle1-36.png
vgg,1,299,NaN,dog,bird,0,0299_tfr_dnn_0_bird_00_bird6-cat1-288.png
vgg,1,300,NaN,bird,bird,0,0300_tfr_dnn_0_bird_00_bird6-elephant2-180.png
vgg,1,301,NaN,knife,bird,0,0301_tfr_dnn_0_bird_00_bird6-truck1-72.png
vgg,1,302,NaN,clock,bird,0,0302_tfr_dnn_0_bird_00_bird7-bottle1-72.png
vgg,1,303,NaN,clock,bird,0,0303_tfr_dnn_0_bird_00_bird7-car3-252.png
vgg,1,304,NaN,chair,bird,0,0304_tfr_dnn_0_bird_00_bird7-chair3-72.png
vgg,1,305,NaN,clock,bird,0,0305_tfr_dnn_0_bird_00_bird7-clock1-144.png
vgg,1,306,NaN,chair,bird,0,0306_tfr_dnn_0_bird_00_bird7-keyboard3-216.png
vgg,1,307,NaN,chair,bird,0,0307_tfr_dnn_0_bird_00_bird7-truck3-180.png
vgg,1,308,NaN,bird,bird,0,0308_tfr_dnn_0_bird_00_bird8-bear3-72.png
vgg,1,309,NaN,knife,bird,0,0309_tfr_dnn_0_bird_00_bird8-bicycle2-144.png
vgg,1,310,NaN,bird,bird,0,0310_tfr_dnn_0_bird_00_bird8-bird2-72.png
vgg,1,311,NaN,chair,bird,0,0311_tfr_dnn_0_bird_00_bird8-chair1-144.png
vgg,1,312,NaN,clock,bird,0,0312_tfr_dnn_0_bird_00_bird8-clock1-288.png
vgg,1,313,NaN,cat,bird,0,0313_tfr_dnn_0_bird_00_bird8-dog3-36.png
vgg,1,314,NaN,knife,bird,0,0314_tfr_dnn_0_bird_00_bird8-knife3-252.png
vgg,1,315,NaN,knife,bird,0,0315_tfr_dnn_0_bird_00_bird8-oven3-36.png
vgg,1,316,NaN,bicycle,bird,0,0316_tfr_dnn_0_bird_00_bird9-boat2-252.png
vgg,1,317,NaN,bottle,bird,0,0317_tfr_dnn_0_bird_00_bird9-bottle3-252.png
vgg,1,318,NaN,bird,bird,0,0318_tfr_dnn_0_bird_00_bird9-cat3-216.png
vgg,1,319,NaN,chair,bird,0,0319_tfr_dnn_0_bird_00_bird9-chair2-36.png
vgg,1,320,NaN,knife,bird,0,0320_tfr_dnn_0_bird_00_bird9-keyboard1-72.png
vgg,1,321,NaN,airplane,boat,0,0321_tfr_dnn_0_boat_00_boat1-airplane2-0.png
vgg,1,322,NaN,dog,boat,0,0322_tfr_dnn_0_boat_00_boat1-bear2-144.png
vgg,1,323,NaN,chair,boat,0,0323_tfr_dnn_0_boat_00_boat1-bicycle3-0.png
vgg,1,324,NaN,chair,boat,0,0324_tfr_dnn_0_boat_00_boat1-boat3-108.png
vgg,1,325,NaN,knife,boat,0,0325_tfr_dnn_0_boat_00_boat1-car3-180.png
vgg,1,326,NaN,cat,boat,0,0326_tfr_dnn_0_boat_00_boat1-cat1-180.png
vgg,1,327,NaN,dog,boat,0,0327_tfr_dnn_0_boat_00_boat1-dog1-0.png
vgg,1,328,NaN,bird,boat,0,0328_tfr_dnn_0_boat_00_boat1-elephant2-216.png
vgg,1,329,NaN,knife,boat,0,0329_tfr_dnn_0_boat_00_boat1-oven1-216.png
vgg,1,330,NaN,knife,boat,0,0330_tfr_dnn_0_boat_00_boat10-bird1-324.png
vgg,1,331,NaN,knife,boat,0,0331_tfr_dnn_0_boat_00_boat10-bottle2-180.png
vgg,1,332,NaN,clock,boat,0,0332_tfr_dnn_0_boat_00_boat10-clock1-324.png
vgg,1,333,NaN,dog,boat,0,0333_tfr_dnn_0_boat_00_boat10-dog1-252.png
vgg,1,334,NaN,keyboard,boat,0,0334_tfr_dnn_0_boat_00_boat10-keyboard3-180.png
vgg,1,335,NaN,bottle,boat,0,0335_tfr_dnn_0_boat_00_boat10-knife1-288.png
vgg,1,336,NaN,knife,boat,0,0336_tfr_dnn_0_boat_00_boat10-truck2-144.png
vgg,1,337,NaN,cat,boat,0,0337_tfr_dnn_0_boat_00_boat2-bear1-144.png
vgg,1,338,NaN,bicycle,boat,0,0338_tfr_dnn_0_boat_00_boat2-bicycle1-72.png
vgg,1,339,NaN,bottle,boat,0,0339_tfr_dnn_0_boat_00_boat2-bottle2-216.png
vgg,1,340,NaN,boat,boat,0,0340_tfr_dnn_0_boat_00_boat2-car1-0.png
vgg,1,341,NaN,chair,boat,0,0341_tfr_dnn_0_boat_00_boat2-chair1-108.png
vgg,1,342,NaN,clock,boat,0,0342_tfr_dnn_0_boat_00_boat2-clock1-180.png
vgg,1,343,NaN,knife,boat,0,0343_tfr_dnn_0_boat_00_boat2-elephant2-252.png
vgg,1,344,NaN,knife,boat,0,0344_tfr_dnn_0_boat_00_boat2-keyboard3-108.png
vgg,1,345,NaN,knife,boat,0,0345_tfr_dnn_0_boat_00_boat2-knife3-144.png
vgg,1,346,NaN,bottle,boat,0,0346_tfr_dnn_0_boat_00_boat2-truck2-288.png
vgg,1,347,NaN,truck,boat,0,0347_tfr_dnn_0_boat_00_boat3-bicycle2-36.png
vgg,1,348,NaN,bottle,boat,0,0348_tfr_dnn_0_boat_00_boat3-bottle1-108.png
vgg,1,349,NaN,dog,boat,0,0349_tfr_dnn_0_boat_00_boat3-cat1-72.png
vgg,1,350,NaN,bird,boat,0,0350_tfr_dnn_0_boat_00_boat3-elephant3-72.png
vgg,1,351,NaN,truck,boat,0,0351_tfr_dnn_0_boat_00_boat3-truck3-72.png
vgg,1,352,NaN,boat,boat,0,0352_tfr_dnn_0_boat_00_boat4-airplane1-0.png
vgg,1,353,NaN,dog,boat,0,0353_tfr_dnn_0_boat_00_boat4-bear1-0.png
vgg,1,354,NaN,knife,boat,0,0354_tfr_dnn_0_boat_00_boat4-bicycle3-144.png
vgg,1,355,NaN,boat,boat,0,0355_tfr_dnn_0_boat_00_boat4-boat3-288.png
vgg,1,356,NaN,car,boat,0,0356_tfr_dnn_0_boat_00_boat4-car2-216.png
vgg,1,357,NaN,cat,boat,0,0357_tfr_dnn_0_boat_00_boat4-cat2-288.png
vgg,1,358,NaN,clock,boat,0,0358_tfr_dnn_0_boat_00_boat4-clock3-216.png
vgg,1,359,NaN,clock,boat,0,0359_tfr_dnn_0_boat_00_boat5-airplane2-288.png
vgg,1,360,NaN,bird,boat,0,0360_tfr_dnn_0_boat_00_boat5-bear1-36.png
vgg,1,361,NaN,chair,boat,0,0361_tfr_dnn_0_boat_00_boat5-bird1-108.png
vgg,1,362,NaN,boat,boat,0,0362_tfr_dnn_0_boat_00_boat5-boat1-144.png
vgg,1,363,NaN,bottle,boat,0,0363_tfr_dnn_0_boat_00_boat5-bottle3-0.png
vgg,1,364,NaN,chair,boat,0,0364_tfr_dnn_0_boat_00_boat5-chair2-144.png
vgg,1,365,NaN,clock,boat,0,0365_tfr_dnn_0_boat_00_boat5-clock1-144.png
vgg,1,366,NaN,bird,boat,0,0366_tfr_dnn_0_boat_00_boat5-dog1-36.png
vgg,1,367,NaN,chair,boat,0,0367_tfr_dnn_0_boat_00_boat5-knife2-216.png
vgg,1,368,NaN,chair,boat,0,0368_tfr_dnn_0_boat_00_boat5-oven1-72.png
vgg,1,369,NaN,knife,boat,0,0369_tfr_dnn_0_boat_00_boat6-bear1-108.png
vgg,1,370,NaN,knife,boat,0,0370_tfr_dnn_0_boat_00_boat6-bird1-0.png
vgg,1,371,NaN,boat,boat,0,0371_tfr_dnn_0_boat_00_boat6-boat2-108.png
vgg,1,372,NaN,clock,boat,0,0372_tfr_dnn_0_boat_00_boat6-bottle1-216.png
vgg,1,373,NaN,clock,boat,0,0373_tfr_dnn_0_boat_00_boat6-car3-216.png
vgg,1,374,NaN,knife,boat,0,0374_tfr_dnn_0_boat_00_boat6-chair3-0.png
vgg,1,375,NaN,clock,boat,0,0375_tfr_dnn_0_boat_00_boat6-keyboard2-72.png
vgg,1,376,NaN,clock,boat,0,0376_tfr_dnn_0_boat_00_boat6-oven3-324.png
vgg,1,377,NaN,knife,boat,0,0377_tfr_dnn_0_boat_00_boat7-bird3-72.png
vgg,1,378,NaN,knife,boat,0,0378_tfr_dnn_0_boat_00_boat7-cat3-180.png
vgg,1,379,NaN,knife,boat,0,0379_tfr_dnn_0_boat_00_boat7-chair3-72.png
vgg,1,380,NaN,knife,boat,0,0380_tfr_dnn_0_boat_00_boat7-elephant2-0.png
vgg,1,381,NaN,clock,boat,0,0381_tfr_dnn_0_boat_00_boat7-keyboard2-216.png
vgg,1,382,NaN,airplane,boat,0,0382_tfr_dnn_0_boat_00_boat8-airplane2-216.png
vgg,1,383,NaN,knife,boat,0,0383_tfr_dnn_0_boat_00_boat8-bicycle1-216.png
vgg,1,384,NaN,boat,boat,0,0384_tfr_dnn_0_boat_00_boat8-boat2-324.png
vgg,1,385,NaN,chair,boat,0,0385_tfr_dnn_0_boat_00_boat8-chair1-252.png
vgg,1,386,NaN,dog,boat,0,0386_tfr_dnn_0_boat_00_boat8-dog1-216.png
vgg,1,387,NaN,knife,boat,0,0387_tfr_dnn_0_boat_00_boat8-knife2-180.png
vgg,1,388,NaN,clock,boat,0,0388_tfr_dnn_0_boat_00_boat8-oven3-144.png
vgg,1,389,NaN,knife,boat,0,0389_tfr_dnn_0_boat_00_boat8-truck2-108.png
vgg,1,390,NaN,clock,boat,0,0390_tfr_dnn_0_boat_00_boat9-airplane2-324.png
vgg,1,391,NaN,truck,boat,0,0391_tfr_dnn_0_boat_00_boat9-bird2-288.png
vgg,1,392,NaN,boat,boat,0,0392_tfr_dnn_0_boat_00_boat9-car1-252.png
vgg,1,393,NaN,bird,boat,0,0393_tfr_dnn_0_boat_00_boat9-cat3-36.png
vgg,1,394,NaN,clock,boat,0,0394_tfr_dnn_0_boat_00_boat9-clock3-180.png
vgg,1,395,NaN,dog,boat,0,0395_tfr_dnn_0_boat_00_boat9-dog3-0.png
vgg,1,396,NaN,chair,boat,0,0396_tfr_dnn_0_boat_00_boat9-elephant3-180.png
vgg,1,397,NaN,clock,boat,0,0397_tfr_dnn_0_boat_00_boat9-keyboard3-36.png
vgg,1,398,NaN,knife,boat,0,0398_tfr_dnn_0_boat_00_boat9-knife1-144.png
vgg,1,399,NaN,truck,boat,0,0399_tfr_dnn_0_boat_00_boat9-oven1-288.png
vgg,1,400,NaN,truck,boat,0,0400_tfr_dnn_0_boat_00_boat9-truck3-216.png
vgg,1,401,NaN,bottle,bottle,0,0401_tfr_dnn_0_bottle_00_bottle1-airplane1-180.png
vgg,1,402,NaN,cat,bottle,0,0402_tfr_dnn_0_bottle_00_bottle1-bear1-108.png
vgg,1,403,NaN,bottle,bottle,0,0403_tfr_dnn_0_bottle_00_bottle1-bird1-180.png
vgg,1,404,NaN,bottle,bottle,0,0404_tfr_dnn_0_bottle_00_bottle1-bottle3-252.png
vgg,1,405,NaN,bottle,bottle,0,0405_tfr_dnn_0_bottle_00_bottle1-car3-72.png
vgg,1,406,NaN,cat,bottle,0,0406_tfr_dnn_0_bottle_00_bottle1-cat2-108.png
vgg,1,407,NaN,bottle,bottle,0,0407_tfr_dnn_0_bottle_00_bottle1-chair2-216.png
vgg,1,408,NaN,bottle,bottle,0,0408_tfr_dnn_0_bottle_00_bottle1-keyboard3-36.png
vgg,1,409,NaN,bottle,bottle,0,0409_tfr_dnn_0_bottle_00_bottle1-oven3-72.png
vgg,1,410,NaN,knife,bottle,0,0410_tfr_dnn_0_bottle_00_bottle10-bird1-324.png
vgg,1,411,NaN,bottle,bottle,0,0411_tfr_dnn_0_bottle_00_bottle10-car1-180.png
vgg,1,412,NaN,bottle,bottle,0,0412_tfr_dnn_0_bottle_00_bottle10-cat3-144.png
vgg,1,413,NaN,clock,bottle,0,0413_tfr_dnn_0_bottle_00_bottle10-clock2-324.png
vgg,1,414,NaN,bottle,bottle,0,0414_tfr_dnn_0_bottle_00_bottle10-elephant1-180.png
vgg,1,415,NaN,knife,bottle,0,0415_tfr_dnn_0_bottle_00_bottle10-keyboard3-144.png
vgg,1,416,NaN,bottle,bottle,0,0416_tfr_dnn_0_bottle_00_bottle10-truck3-288.png
vgg,1,417,NaN,knife,bottle,0,0417_tfr_dnn_0_bottle_00_bottle2-airplane3-108.png
vgg,1,418,NaN,bottle,bottle,0,0418_tfr_dnn_0_bottle_00_bottle2-bicycle2-252.png
vgg,1,419,NaN,bottle,bottle,0,0419_tfr_dnn_0_bottle_00_bottle2-boat3-72.png
vgg,1,420,NaN,chair,bottle,0,0420_tfr_dnn_0_bottle_00_bottle2-chair2-0.png
vgg,1,421,NaN,bottle,bottle,0,0421_tfr_dnn_0_bottle_00_bottle2-clock2-180.png
vgg,1,422,NaN,dog,bottle,0,0422_tfr_dnn_0_bottle_00_bottle2-dog3-108.png
vgg,1,423,NaN,bottle,bottle,0,0423_tfr_dnn_0_bottle_00_bottle2-elephant1-72.png
vgg,1,424,NaN,knife,bottle,0,0424_tfr_dnn_0_bottle_00_bottle2-knife2-36.png
vgg,1,425,NaN,bottle,bottle,0,0425_tfr_dnn_0_bottle_00_bottle3-bicycle3-0.png
vgg,1,426,NaN,bottle,bottle,0,0426_tfr_dnn_0_bottle_00_bottle3-bird1-216.png
vgg,1,427,NaN,bottle,bottle,0,0427_tfr_dnn_0_bottle_00_bottle3-bottle3-108.png
vgg,1,428,NaN,cat,bottle,0,0428_tfr_dnn_0_bottle_00_bottle3-cat1-72.png
vgg,1,429,NaN,knife,bottle,0,0429_tfr_dnn_0_bottle_00_bottle3-knife1-144.png
vgg,1,430,NaN,knife,bottle,0,0430_tfr_dnn_0_bottle_00_bottle3-oven3-36.png
vgg,1,431,NaN,bottle,bottle,0,0431_tfr_dnn_0_bottle_00_bottle3-truck3-36.png
vgg,1,432,NaN,bottle,bottle,0,0432_tfr_dnn_0_bottle_00_bottle4-bear2-72.png
vgg,1,433,NaN,bottle,bottle,0,0433_tfr_dnn_0_bottle_00_bottle4-boat3-216.png
vgg,1,434,NaN,bottle,bottle,0,0434_tfr_dnn_0_bottle_00_bottle4-bottle2-72.png
vgg,1,435,NaN,dog,bottle,0,0435_tfr_dnn_0_bottle_00_bottle4-cat1-108.png
vgg,1,436,NaN,bottle,bottle,0,0436_tfr_dnn_0_bottle_00_bottle4-chair3-180.png
vgg,1,437,NaN,clock,bottle,0,0437_tfr_dnn_0_bottle_00_bottle4-clock3-72.png
vgg,1,438,NaN,dog,bottle,0,0438_tfr_dnn_0_bottle_00_bottle4-dog1-324.png
vgg,1,439,NaN,clock,bottle,0,0439_tfr_dnn_0_bottle_00_bottle4-keyboard2-216.png
vgg,1,440,NaN,bottle,bottle,0,0440_tfr_dnn_0_bottle_00_bottle4-truck1-0.png
vgg,1,441,NaN,bottle,bottle,0,0441_tfr_dnn_0_bottle_00_bottle5-bear1-252.png
vgg,1,442,NaN,bottle,bottle,0,0442_tfr_dnn_0_bottle_00_bottle5-bird2-36.png
vgg,1,443,NaN,bottle,bottle,0,0443_tfr_dnn_0_bottle_00_bottle5-boat1-108.png
vgg,1,444,NaN,bottle,bottle,0,0444_tfr_dnn_0_bottle_00_bottle5-bottle2-36.png
vgg,1,445,NaN,bottle,bottle,0,0445_tfr_dnn_0_bottle_00_bottle5-car2-0.png
vgg,1,446,NaN,bottle,bottle,0,0446_tfr_dnn_0_bottle_00_bottle5-chair1-36.png
vgg,1,447,NaN,bottle,bottle,0,0447_tfr_dnn_0_bottle_00_bottle5-oven1-0.png
vgg,1,448,NaN,bottle,bottle,0,0448_tfr_dnn_0_bottle_00_bottle5-truck1-216.png
vgg,1,449,NaN,bottle,bottle,0,0449_tfr_dnn_0_bottle_00_bottle6-bicycle1-252.png
vgg,1,450,NaN,chair,bottle,0,0450_tfr_dnn_0_bottle_00_bottle6-chair2-288.png
vgg,1,451,NaN,bottle,bottle,0,0451_tfr_dnn_0_bottle_00_bottle6-elephant2-144.png
vgg,1,452,NaN,bottle,bottle,0,0452_tfr_dnn_0_bottle_00_bottle6-keyboard1-0.png
vgg,1,453,NaN,knife,bottle,0,0453_tfr_dnn_0_bottle_00_bottle6-knife1-324.png
vgg,1,454,NaN,bottle,bottle,0,0454_tfr_dnn_0_bottle_00_bottle6-oven2-216.png
vgg,1,455,NaN,bottle,bottle,0,0455_tfr_dnn_0_bottle_00_bottle7-airplane2-216.png
vgg,1,456,NaN,cat,bottle,0,0456_tfr_dnn_0_bottle_00_bottle7-bear1-216.png
vgg,1,457,NaN,bottle,bottle,0,0457_tfr_dnn_0_bottle_00_bottle7-bicycle3-108.png
vgg,1,458,NaN,dog,bottle,0,0458_tfr_dnn_0_bottle_00_bottle7-bird3-180.png
vgg,1,459,NaN,bird,bottle,0,0459_tfr_dnn_0_bottle_00_bottle7-boat1-252.png
vgg,1,460,NaN,knife,bottle,0,0460_tfr_dnn_0_bottle_00_bottle7-car2-144.png
vgg,1,461,NaN,cat,bottle,0,0461_tfr_dnn_0_bottle_00_bottle7-cat1-216.png
vgg,1,462,NaN,clock,bottle,0,0462_tfr_dnn_0_bottle_00_bottle7-clock3-324.png
vgg,1,463,NaN,dog,bottle,0,0463_tfr_dnn_0_bottle_00_bottle7-dog1-144.png
vgg,1,464,NaN,bottle,bottle,0,0464_tfr_dnn_0_bottle_00_bottle7-elephant3-216.png
vgg,1,465,NaN,knife,bottle,0,0465_tfr_dnn_0_bottle_00_bottle7-knife1-288.png
vgg,1,466,NaN,bird,bottle,0,0466_tfr_dnn_0_bottle_00_bottle8-airplane1-324.png
vgg,1,467,NaN,bird,bottle,0,0467_tfr_dnn_0_bottle_00_bottle8-bear3-252.png
vgg,1,468,NaN,bottle,bottle,0,0468_tfr_dnn_0_bottle_00_bottle8-bicycle3-144.png
vgg,1,469,NaN,clock,bottle,0,0469_tfr_dnn_0_bottle_00_bottle8-clock2-108.png
vgg,1,470,NaN,dog,bottle,0,0470_tfr_dnn_0_bottle_00_bottle8-dog1-0.png
vgg,1,471,NaN,bottle,bottle,0,0471_tfr_dnn_0_bottle_00_bottle8-elephant3-72.png
vgg,1,472,NaN,knife,bottle,0,0472_tfr_dnn_0_bottle_00_bottle8-keyboard1-252.png
vgg,1,473,NaN,bottle,bottle,0,0473_tfr_dnn_0_bottle_00_bottle8-oven2-72.png
vgg,1,474,NaN,bicycle,bottle,0,0474_tfr_dnn_0_bottle_00_bottle9-airplane1-108.png
vgg,1,475,NaN,bottle,bottle,0,0475_tfr_dnn_0_bottle_00_bottle9-boat2-36.png
vgg,1,476,NaN,bottle,bottle,0,0476_tfr_dnn_0_bottle_00_bottle9-bottle1-180.png
vgg,1,477,NaN,bottle,bottle,0,0477_tfr_dnn_0_bottle_00_bottle9-car1-144.png
vgg,1,478,NaN,bird,bottle,0,0478_tfr_dnn_0_bottle_00_bottle9-dog3-324.png
vgg,1,479,NaN,knife,bottle,0,0479_tfr_dnn_0_bottle_00_bottle9-knife1-252.png
vgg,1,480,NaN,bottle,bottle,0,0480_tfr_dnn_0_bottle_00_bottle9-truck3-144.png
vgg,1,481,NaN,bird,car,0,0481_tfr_dnn_0_car_00_car1-bicycle3-252.png
vgg,1,482,NaN,bird,car,0,0482_tfr_dnn_0_car_00_car1-bird2-108.png
vgg,1,483,NaN,boat,car,0,0483_tfr_dnn_0_car_00_car1-boat2-36.png
vgg,1,484,NaN,bottle,car,0,0484_tfr_dnn_0_car_00_car1-bottle3-252.png
vgg,1,485,NaN,dog,car,0,0485_tfr_dnn_0_car_00_car1-cat3-252.png
vgg,1,486,NaN,chair,car,0,0486_tfr_dnn_0_car_00_car1-chair1-288.png
vgg,1,487,NaN,clock,car,0,0487_tfr_dnn_0_car_00_car1-clock3-324.png
vgg,1,488,NaN,dog,car,0,0488_tfr_dnn_0_car_00_car1-dog2-144.png
vgg,1,489,NaN,elephant,car,0,0489_tfr_dnn_0_car_00_car1-elephant2-36.png
vgg,1,490,NaN,keyboard,car,0,0490_tfr_dnn_0_car_00_car1-keyboard3-144.png
vgg,1,491,NaN,knife,car,0,0491_tfr_dnn_0_car_00_car1-knife3-324.png
vgg,1,492,NaN,oven,car,0,0492_tfr_dnn_0_car_00_car1-oven1-324.png
vgg,1,493,NaN,knife,car,0,0493_tfr_dnn_0_car_00_car10-airplane3-108.png
vgg,1,494,NaN,dog,car,0,0494_tfr_dnn_0_car_00_car10-bicycle3-144.png
vgg,1,495,NaN,cat,car,0,0495_tfr_dnn_0_car_00_car10-cat2-72.png
vgg,1,496,NaN,dog,car,0,0496_tfr_dnn_0_car_00_car10-dog3-72.png
vgg,1,497,NaN,bird,car,0,0497_tfr_dnn_0_car_00_car10-elephant1-0.png
vgg,1,498,NaN,clock,car,0,0498_tfr_dnn_0_car_00_car10-keyboard3-36.png
vgg,1,499,NaN,knife,car,0,0499_tfr_dnn_0_car_00_car2-airplane1-252.png
vgg,1,500,NaN,bottle,car,0,0500_tfr_dnn_0_car_00_car2-bottle1-180.png
vgg,1,501,NaN,truck,car,0,0501_tfr_dnn_0_car_00_car2-car1-72.png
vgg,1,502,NaN,cat,car,0,0502_tfr_dnn_0_car_00_car2-cat2-0.png
vgg,1,503,NaN,dog,car,0,0503_tfr_dnn_0_car_00_car2-dog1-288.png
vgg,1,504,NaN,elephant,car,0,0504_tfr_dnn_0_car_00_car2-elephant2-216.png
vgg,1,505,NaN,keyboard,car,0,0505_tfr_dnn_0_car_00_car2-keyboard1-0.png
vgg,1,506,NaN,knife,car,0,0506_tfr_dnn_0_car_00_car2-knife3-36.png
vgg,1,507,NaN,truck,car,0,0507_tfr_dnn_0_car_00_car2-oven3-36.png
vgg,1,508,NaN,knife,car,0,0508_tfr_dnn_0_car_00_car3-airplane3-288.png
vgg,1,509,NaN,cat,car,0,0509_tfr_dnn_0_car_00_car3-bear1-180.png
vgg,1,510,NaN,bottle,car,0,0510_tfr_dnn_0_car_00_car3-bird2-216.png
vgg,1,511,NaN,car,car,0,0511_tfr_dnn_0_car_00_car3-car1-324.png
vgg,1,512,NaN,clock,car,0,0512_tfr_dnn_0_car_00_car3-clock2-324.png
vgg,1,513,NaN,knife,car,0,0513_tfr_dnn_0_car_00_car3-elephant2-324.png
vgg,1,514,NaN,car,car,0,0514_tfr_dnn_0_car_00_car3-truck2-216.png
vgg,1,515,NaN,boat,car,0,0515_tfr_dnn_0_car_00_car4-airplane1-0.png
vgg,1,516,NaN,bird,car,0,0516_tfr_dnn_0_car_00_car4-bear2-36.png
vgg,1,517,NaN,bird,car,0,0517_tfr_dnn_0_car_00_car4-bird1-324.png
vgg,1,518,NaN,keyboard,car,0,0518_tfr_dnn_0_car_00_car4-car3-0.png
vgg,1,519,NaN,chair,car,0,0519_tfr_dnn_0_car_00_car4-chair3-180.png
vgg,1,520,NaN,clock,car,0,0520_tfr_dnn_0_car_00_car4-oven3-288.png
vgg,1,521,NaN,boat,car,0,0521_tfr_dnn_0_car_00_car4-truck1-324.png
vgg,1,522,NaN,bird,car,0,0522_tfr_dnn_0_car_00_car5-bear3-288.png
vgg,1,523,NaN,truck,car,0,0523_tfr_dnn_0_car_00_car5-boat1-36.png
vgg,1,524,NaN,bottle,car,0,0524_tfr_dnn_0_car_00_car5-bottle2-180.png
vgg,1,525,NaN,dog,car,0,0525_tfr_dnn_0_car_00_car5-cat1-252.png
vgg,1,526,NaN,chair,car,0,0526_tfr_dnn_0_car_00_car5-chair2-72.png
vgg,1,527,NaN,clock,car,0,0527_tfr_dnn_0_car_00_car5-clock2-288.png
vgg,1,528,NaN,elephant,car,0,0528_tfr_dnn_0_car_00_car5-elephant2-180.png
vgg,1,529,NaN,clock,car,0,0529_tfr_dnn_0_car_00_car5-oven3-180.png
vgg,1,530,NaN,knife,car,0,0530_tfr_dnn_0_car_00_car5-truck1-108.png
vgg,1,531,NaN,chair,car,0,0531_tfr_dnn_0_car_00_car6-boat3-108.png
vgg,1,532,NaN,bottle,car,0,0532_tfr_dnn_0_car_00_car6-bottle1-216.png
vgg,1,533,NaN,dog,car,0,0533_tfr_dnn_0_car_00_car6-cat3-216.png
vgg,1,534,NaN,dog,car,0,0534_tfr_dnn_0_car_00_car6-dog2-288.png
vgg,1,535,NaN,keyboard,car,0,0535_tfr_dnn_0_car_00_car6-keyboard1-288.png
vgg,1,536,NaN,bottle,car,0,0536_tfr_dnn_0_car_00_car6-knife1-288.png
vgg,1,537,NaN,bottle,car,0,0537_tfr_dnn_0_car_00_car6-truck1-144.png
vgg,1,538,NaN,boat,car,0,0538_tfr_dnn_0_car_00_car7-airplane1-72.png
vgg,1,539,NaN,cat,car,0,0539_tfr_dnn_0_car_00_car7-bear2-0.png
vgg,1,540,NaN,truck,car,0,0540_tfr_dnn_0_car_00_car7-bicycle1-324.png
vgg,1,541,NaN,bird,car,0,0541_tfr_dnn_0_car_00_car7-bird3-324.png
vgg,1,542,NaN,bottle,car,0,0542_tfr_dnn_0_car_00_car7-boat3-324.png
vgg,1,543,NaN,bottle,car,0,0543_tfr_dnn_0_car_00_car7-chair3-216.png
vgg,1,544,NaN,clock,car,0,0544_tfr_dnn_0_car_00_car7-clock1-288.png
vgg,1,545,NaN,dog,car,0,0545_tfr_dnn_0_car_00_car7-dog1-0.png
vgg,1,546,NaN,knife,car,0,0546_tfr_dnn_0_car_00_car7-knife3-144.png
vgg,1,547,NaN,bottle,car,0,0547_tfr_dnn_0_car_00_car7-truck3-324.png
vgg,1,548,NaN,bottle,car,0,0548_tfr_dnn_0_car_00_car8-bicycle2-216.png
vgg,1,549,NaN,chair,car,0,0549_tfr_dnn_0_car_00_car8-boat3-252.png
vgg,1,550,NaN,bottle,car,0,0550_tfr_dnn_0_car_00_car8-bottle3-0.png
vgg,1,551,NaN,car,car,0,0551_tfr_dnn_0_car_00_car8-car2-216.png
vgg,1,552,NaN,clock,car,0,0552_tfr_dnn_0_car_00_car8-clock3-0.png
vgg,1,553,NaN,knife,car,0,0553_tfr_dnn_0_car_00_car8-knife2-324.png
vgg,1,554,NaN,clock,car,0,0554_tfr_dnn_0_car_00_car8-oven3-144.png
vgg,1,555,NaN,bird,car,0,0555_tfr_dnn_0_car_00_car9-bear3-252.png
vgg,1,556,NaN,bicycle,car,0,0556_tfr_dnn_0_car_00_car9-bicycle1-252.png
vgg,1,557,NaN,dog,car,0,0557_tfr_dnn_0_car_00_car9-bird2-0.png
vgg,1,558,NaN,car,car,0,0558_tfr_dnn_0_car_00_car9-car1-36.png
vgg,1,559,NaN,chair,car,0,0559_tfr_dnn_0_car_00_car9-chair1-252.png
vgg,1,560,NaN,keyboard,car,0,0560_tfr_dnn_0_car_00_car9-keyboard1-324.png
vgg,1,561,NaN,bird,cat,0,0561_tfr_dnn_0_cat_00_cat1-bird2-288.png
vgg,1,562,NaN,chair,cat,0,0562_tfr_dnn_0_cat_00_cat1-chair3-252.png
vgg,1,563,NaN,clock,cat,0,0563_tfr_dnn_0_cat_00_cat1-clock3-252.png
vgg,1,564,NaN,dog,cat,0,0564_tfr_dnn_0_cat_00_cat1-dog1-108.png
vgg,1,565,NaN,cat,cat,0,0565_tfr_dnn_0_cat_00_cat1-elephant2-216.png
vgg,1,566,NaN,knife,cat,0,0566_tfr_dnn_0_cat_00_cat1-keyboard1-108.png
vgg,1,567,NaN,knife,cat,0,0567_tfr_dnn_0_cat_00_cat1-knife2-36.png
vgg,1,568,NaN,dog,cat,0,0568_tfr_dnn_0_cat_00_cat1-oven3-36.png
vgg,1,569,NaN,bird,cat,0,0569_tfr_dnn_0_cat_00_cat1-truck1-324.png
vgg,1,570,NaN,boat,cat,0,0570_tfr_dnn_0_cat_00_cat10-airplane1-0.png
vgg,1,571,NaN,bear,cat,0,0571_tfr_dnn_0_cat_00_cat10-bear1-0.png
vgg,1,572,NaN,bird,cat,0,0572_tfr_dnn_0_cat_00_cat10-bird1-72.png
vgg,1,573,NaN,bottle,cat,0,0573_tfr_dnn_0_cat_00_cat10-bottle2-144.png
vgg,1,574,NaN,dog,cat,0,0574_tfr_dnn_0_cat_00_cat10-cat3-0.png
vgg,1,575,NaN,chair,cat,0,0575_tfr_dnn_0_cat_00_cat10-chair2-144.png
vgg,1,576,NaN,bird,cat,0,0576_tfr_dnn_0_cat_00_cat10-elephant2-72.png
vgg,1,577,NaN,knife,cat,0,0577_tfr_dnn_0_cat_00_cat10-knife2-324.png
vgg,1,578,NaN,truck,cat,0,0578_tfr_dnn_0_cat_00_cat10-truck3-108.png
vgg,1,579,NaN,knife,cat,0,0579_tfr_dnn_0_cat_00_cat2-airplane1-288.png
vgg,1,580,NaN,cat,cat,0,0580_tfr_dnn_0_cat_00_cat2-bear2-216.png
vgg,1,581,NaN,keyboard,cat,0,0581_tfr_dnn_0_cat_00_cat2-bicycle1-252.png
vgg,1,582,NaN,bird,cat,0,0582_tfr_dnn_0_cat_00_cat2-bird3-72.png
vgg,1,583,NaN,knife,cat,0,0583_tfr_dnn_0_cat_00_cat2-knife1-216.png
vgg,1,584,NaN,knife,cat,0,0584_tfr_dnn_0_cat_00_cat2-oven1-72.png
vgg,1,585,NaN,knife,cat,0,0585_tfr_dnn_0_cat_00_cat3-airplane1-72.png
vgg,1,586,NaN,cat,cat,0,0586_tfr_dnn_0_cat_00_cat3-bear2-72.png
vgg,1,587,NaN,knife,cat,0,0587_tfr_dnn_0_cat_00_cat3-bicycle3-72.png
vgg,1,588,NaN,boat,cat,0,0588_tfr_dnn_0_cat_00_cat3-boat1-324.png
vgg,1,589,NaN,bottle,cat,0,0589_tfr_dnn_0_cat_00_cat3-bottle3-144.png
vgg,1,590,NaN,clock,cat,0,0590_tfr_dnn_0_cat_00_cat3-clock1-180.png
vgg,1,591,NaN,bird,cat,0,0591_tfr_dnn_0_cat_00_cat3-elephant1-180.png
vgg,1,592,NaN,clock,cat,0,0592_tfr_dnn_0_cat_00_cat4-airplane2-324.png
vgg,1,593,NaN,bottle,cat,0,0593_tfr_dnn_0_cat_00_cat4-bicycle1-216.png
vgg,1,594,NaN,clock,cat,0,0594_tfr_dnn_0_cat_00_cat4-bottle3-252.png
vgg,1,595,NaN,bottle,cat,0,0595_tfr_dnn_0_cat_00_cat4-car1-216.png
vgg,1,596,NaN,cat,cat,0,0596_tfr_dnn_0_cat_00_cat4-cat3-216.png
vgg,1,597,NaN,chair,cat,0,0597_tfr_dnn_0_cat_00_cat4-chair1-288.png
vgg,1,598,NaN,chair,cat,0,0598_tfr_dnn_0_cat_00_cat4-clock2-36.png
vgg,1,599,NaN,cat,cat,0,0599_tfr_dnn_0_cat_00_cat4-dog3-108.png
vgg,1,600,NaN,cat,cat,0,0600_tfr_dnn_0_cat_00_cat4-knife2-108.png
vgg,1,601,NaN,chair,cat,0,0601_tfr_dnn_0_cat_00_cat4-oven3-216.png
vgg,1,602,NaN,bicycle,cat,0,0602_tfr_dnn_0_cat_00_cat5-bicycle1-108.png
vgg,1,603,NaN,boat,cat,0,0603_tfr_dnn_0_cat_00_cat5-boat1-36.png
vgg,1,604,NaN,bottle,cat,0,0604_tfr_dnn_0_cat_00_cat5-bottle3-36.png
vgg,1,605,NaN,truck,cat,0,0605_tfr_dnn_0_cat_00_cat5-car1-252.png
vgg,1,606,NaN,dog,cat,0,0606_tfr_dnn_0_cat_00_cat5-cat1-72.png
vgg,1,607,NaN,chair,cat,0,0607_tfr_dnn_0_cat_00_cat5-chair2-288.png
vgg,1,608,NaN,dog,cat,0,0608_tfr_dnn_0_cat_00_cat5-dog1-144.png
vgg,1,609,NaN,knife,cat,0,0609_tfr_dnn_0_cat_00_cat5-knife1-144.png
vgg,1,610,NaN,chair,cat,0,0610_tfr_dnn_0_cat_00_cat6-airplane2-252.png
vgg,1,611,NaN,cat,cat,0,0611_tfr_dnn_0_cat_00_cat6-bear1-216.png
vgg,1,612,NaN,cat,cat,0,0612_tfr_dnn_0_cat_00_cat6-bird3-180.png
vgg,1,613,NaN,boat,cat,0,0613_tfr_dnn_0_cat_00_cat6-boat2-180.png
vgg,1,614,NaN,knife,cat,0,0614_tfr_dnn_0_cat_00_cat6-car2-288.png
vgg,1,615,NaN,clock,cat,0,0615_tfr_dnn_0_cat_00_cat6-clock3-36.png
vgg,1,616,NaN,clock,cat,0,0616_tfr_dnn_0_cat_00_cat6-keyboard2-288.png
vgg,1,617,NaN,knife,cat,0,0617_tfr_dnn_0_cat_00_cat6-oven3-144.png
vgg,1,618,NaN,car,cat,0,0618_tfr_dnn_0_cat_00_cat6-truck1-252.png
vgg,1,619,NaN,bird,cat,0,0619_tfr_dnn_0_cat_00_cat7-bird2-108.png
vgg,1,620,NaN,dog,cat,0,0620_tfr_dnn_0_cat_00_cat7-cat3-108.png
vgg,1,621,NaN,clock,cat,0,0621_tfr_dnn_0_cat_00_cat7-clock3-0.png
vgg,1,622,NaN,dog,cat,0,0622_tfr_dnn_0_cat_00_cat7-dog1-324.png
vgg,1,623,NaN,keyboard,cat,0,0623_tfr_dnn_0_cat_00_cat7-keyboard1-36.png
vgg,1,624,NaN,chair,cat,0,0624_tfr_dnn_0_cat_00_cat7-oven2-288.png
vgg,1,625,NaN,boat,cat,0,0625_tfr_dnn_0_cat_00_cat8-boat2-288.png
vgg,1,626,NaN,truck,cat,0,0626_tfr_dnn_0_cat_00_cat8-car1-36.png
vgg,1,627,NaN,cat,cat,0,0627_tfr_dnn_0_cat_00_cat8-cat3-288.png
vgg,1,628,NaN,cat,cat,0,0628_tfr_dnn_0_cat_00_cat8-elephant2-36.png
vgg,1,629,NaN,clock,cat,0,0629_tfr_dnn_0_cat_00_cat8-keyboard3-0.png
vgg,1,630,NaN,chair,cat,0,0630_tfr_dnn_0_cat_00_cat8-truck1-216.png
vgg,1,631,NaN,cat,cat,0,0631_tfr_dnn_0_cat_00_cat9-bear1-108.png
vgg,1,632,NaN,bicycle,cat,0,0632_tfr_dnn_0_cat_00_cat9-bicycle1-36.png
vgg,1,633,NaN,chair,cat,0,0633_tfr_dnn_0_cat_00_cat9-boat1-108.png
vgg,1,634,NaN,bottle,cat,0,0634_tfr_dnn_0_cat_00_cat9-bottle1-108.png
vgg,1,635,NaN,bottle,cat,0,0635_tfr_dnn_0_cat_00_cat9-car1-108.png
vgg,1,636,NaN,chair,cat,0,0636_tfr_dnn_0_cat_00_cat9-chair1-72.png
vgg,1,637,NaN,dog,cat,0,0637_tfr_dnn_0_cat_00_cat9-dog3-144.png
vgg,1,638,NaN,clock,cat,0,0638_tfr_dnn_0_cat_00_cat9-elephant1-144.png
vgg,1,639,NaN,truck,cat,0,0639_tfr_dnn_0_cat_00_cat9-keyboard1-324.png
vgg,1,640,NaN,bottle,cat,0,0640_tfr_dnn_0_cat_00_cat9-truck2-252.png
vgg,1,641,NaN,cat,chair,0,0641_tfr_dnn_0_chair_00_chair1-bird3-144.png
vgg,1,642,NaN,dog,chair,0,0642_tfr_dnn_0_chair_00_chair1-cat1-0.png
vgg,1,643,NaN,dog,chair,0,0643_tfr_dnn_0_chair_00_chair1-dog1-144.png
vgg,1,644,NaN,knife,chair,0,0644_tfr_dnn_0_chair_00_chair1-elephant3-252.png
vgg,1,645,NaN,knife,chair,0,0645_tfr_dnn_0_chair_00_chair1-truck1-216.png
vgg,1,646,NaN,chair,chair,0,0646_tfr_dnn_0_chair_00_chair10-bear3-36.png
vgg,1,647,NaN,truck,chair,0,0647_tfr_dnn_0_chair_00_chair10-bicycle1-288.png
vgg,1,648,NaN,chair,chair,0,0648_tfr_dnn_0_chair_00_chair10-bird3-180.png
vgg,1,649,NaN,boat,chair,0,0649_tfr_dnn_0_chair_00_chair10-boat1-0.png
vgg,1,650,NaN,truck,chair,0,0650_tfr_dnn_0_chair_00_chair10-car1-0.png
vgg,1,651,NaN,chair,chair,0,0651_tfr_dnn_0_chair_00_chair10-chair2-0.png
vgg,1,652,NaN,clock,chair,0,0652_tfr_dnn_0_chair_00_chair10-clock3-36.png
vgg,1,653,NaN,chair,chair,0,0653_tfr_dnn_0_chair_00_chair10-elephant2-72.png
vgg,1,654,NaN,chair,chair,0,0654_tfr_dnn_0_chair_00_chair10-keyboard3-180.png
vgg,1,655,NaN,chair,chair,0,0655_tfr_dnn_0_chair_00_chair10-knife3-324.png
vgg,1,656,NaN,chair,chair,0,0656_tfr_dnn_0_chair_00_chair10-oven1-108.png
vgg,1,657,NaN,truck,chair,0,0657_tfr_dnn_0_chair_00_chair10-truck3-324.png
vgg,1,658,NaN,chair,chair,0,0658_tfr_dnn_0_chair_00_chair2-airplane3-108.png
vgg,1,659,NaN,chair,chair,0,0659_tfr_dnn_0_chair_00_chair2-bear3-144.png
vgg,1,660,NaN,chair,chair,0,0660_tfr_dnn_0_chair_00_chair2-bicycle2-288.png
vgg,1,661,NaN,chair,chair,0,0661_tfr_dnn_0_chair_00_chair2-boat2-144.png
vgg,1,662,NaN,clock,chair,0,0662_tfr_dnn_0_chair_00_chair2-clock1-324.png
vgg,1,663,NaN,chair,chair,0,0663_tfr_dnn_0_chair_00_chair2-elephant1-144.png
vgg,1,664,NaN,knife,chair,0,0664_tfr_dnn_0_chair_00_chair2-knife1-144.png
vgg,1,665,NaN,chair,chair,0,0665_tfr_dnn_0_chair_00_chair2-truck2-144.png
vgg,1,666,NaN,chair,chair,0,0666_tfr_dnn_0_chair_00_chair3-bear2-324.png
vgg,1,667,NaN,chair,chair,0,0667_tfr_dnn_0_chair_00_chair3-bird2-108.png
vgg,1,668,NaN,chair,chair,0,0668_tfr_dnn_0_chair_00_chair3-boat2-108.png
vgg,1,669,NaN,chair,chair,0,0669_tfr_dnn_0_chair_00_chair3-bottle2-108.png
vgg,1,670,NaN,chair,chair,0,0670_tfr_dnn_0_chair_00_chair3-car3-72.png
vgg,1,671,NaN,chair,chair,0,0671_tfr_dnn_0_chair_00_chair3-cat2-180.png
vgg,1,672,NaN,chair,chair,0,0672_tfr_dnn_0_chair_00_chair3-chair1-252.png
vgg,1,673,NaN,knife,chair,0,0673_tfr_dnn_0_chair_00_chair3-keyboard1-252.png
vgg,1,674,NaN,chair,chair,0,0674_tfr_dnn_0_chair_00_chair4-airplane3-144.png
vgg,1,675,NaN,chair,chair,0,0675_tfr_dnn_0_chair_00_chair4-bicycle2-180.png
vgg,1,676,NaN,knife,chair,0,0676_tfr_dnn_0_chair_00_chair4-car2-288.png
vgg,1,677,NaN,chair,chair,0,0677_tfr_dnn_0_chair_00_chair4-clock3-288.png
vgg,1,678,NaN,chair,chair,0,0678_tfr_dnn_0_chair_00_chair4-dog1-36.png
vgg,1,679,NaN,chair,chair,0,0679_tfr_dnn_0_chair_00_chair4-keyboard2-144.png
vgg,1,680,NaN,chair,chair,0,0680_tfr_dnn_0_chair_00_chair4-oven2-0.png
vgg,1,681,NaN,chair,chair,0,0681_tfr_dnn_0_chair_00_chair4-truck1-252.png
vgg,1,682,NaN,chair,chair,0,0682_tfr_dnn_0_chair_00_chair5-bird1-288.png
vgg,1,683,NaN,clock,chair,0,0683_tfr_dnn_0_chair_00_chair5-clock1-180.png
vgg,1,684,NaN,chair,chair,0,0684_tfr_dnn_0_chair_00_chair5-dog3-252.png
vgg,1,685,NaN,chair,chair,0,0685_tfr_dnn_0_chair_00_chair5-oven1-216.png
vgg,1,686,NaN,chair,chair,0,0686_tfr_dnn_0_chair_00_chair6-airplane3-252.png
vgg,1,687,NaN,chair,chair,0,0687_tfr_dnn_0_chair_00_chair6-bear3-288.png
vgg,1,688,NaN,boat,chair,0,0688_tfr_dnn_0_chair_00_chair6-boat2-252.png
vgg,1,689,NaN,bottle,chair,0,0689_tfr_dnn_0_chair_00_chair6-bottle3-0.png
vgg,1,690,NaN,chair,chair,0,0690_tfr_dnn_0_chair_00_chair6-chair1-216.png
vgg,1,691,NaN,chair,chair,0,0691_tfr_dnn_0_chair_00_chair6-dog2-288.png
vgg,1,692,NaN,knife,chair,0,0692_tfr_dnn_0_chair_00_chair7-airplane1-288.png
vgg,1,693,NaN,chair,chair,0,0693_tfr_dnn_0_chair_00_chair7-bicycle3-180.png
vgg,1,694,NaN,bottle,chair,0,0694_tfr_dnn_0_chair_00_chair7-bottle3-72.png
vgg,1,695,NaN,truck,chair,0,0695_tfr_dnn_0_chair_00_chair7-car1-216.png
vgg,1,696,NaN,chair,chair,0,0696_tfr_dnn_0_chair_00_chair7-cat3-0.png
vgg,1,697,NaN,chair,chair,0,0697_tfr_dnn_0_chair_00_chair7-chair3-36.png
vgg,1,698,NaN,dog,chair,0,0698_tfr_dnn_0_chair_00_chair7-dog3-216.png
vgg,1,699,NaN,chair,chair,0,0699_tfr_dnn_0_chair_00_chair7-elephant2-288.png
vgg,1,700,NaN,clock,chair,0,0700_tfr_dnn_0_chair_00_chair7-keyboard3-36.png
vgg,1,701,NaN,knife,chair,0,0701_tfr_dnn_0_chair_00_chair7-knife1-36.png
vgg,1,702,NaN,oven,chair,0,0702_tfr_dnn_0_chair_00_chair7-oven3-216.png
vgg,1,703,NaN,chair,chair,0,0703_tfr_dnn_0_chair_00_chair7-truck2-252.png
vgg,1,704,NaN,chair,chair,0,0704_tfr_dnn_0_chair_00_chair8-airplane3-0.png
vgg,1,705,NaN,knife,chair,0,0705_tfr_dnn_0_chair_00_chair8-bird2-216.png
vgg,1,706,NaN,chair,chair,0,0706_tfr_dnn_0_chair_00_chair8-bottle3-36.png
vgg,1,707,NaN,bottle,chair,0,0707_tfr_dnn_0_chair_00_chair8-car1-144.png
vgg,1,708,NaN,chair,chair,0,0708_tfr_dnn_0_chair_00_chair8-cat2-252.png
vgg,1,709,NaN,chair,chair,0,0709_tfr_dnn_0_chair_00_chair8-chair3-324.png
vgg,1,710,NaN,chair,chair,0,0710_tfr_dnn_0_chair_00_chair8-keyboard1-144.png
vgg,1,711,NaN,chair,chair,0,0711_tfr_dnn_0_chair_00_chair8-knife3-288.png
vgg,1,712,NaN,chair,chair,0,0712_tfr_dnn_0_chair_00_chair9-bear3-72.png
vgg,1,713,NaN,bicycle,chair,0,0713_tfr_dnn_0_chair_00_chair9-bicycle1-144.png
vgg,1,714,NaN,chair,chair,0,0714_tfr_dnn_0_chair_00_chair9-boat1-72.png
vgg,1,715,NaN,chair,chair,0,0715_tfr_dnn_0_chair_00_chair9-bottle2-288.png
vgg,1,716,NaN,chair,chair,0,0716_tfr_dnn_0_chair_00_chair9-cat2-216.png
vgg,1,717,NaN,chair,chair,0,0717_tfr_dnn_0_chair_00_chair9-clock2-72.png
vgg,1,718,NaN,chair,chair,0,0718_tfr_dnn_0_chair_00_chair9-elephant1-36.png
vgg,1,719,NaN,chair,chair,0,0719_tfr_dnn_0_chair_00_chair9-knife3-36.png
vgg,1,720,NaN,chair,chair,0,0720_tfr_dnn_0_chair_00_chair9-oven3-288.png
vgg,1,721,NaN,airplane,clock,0,0721_tfr_dnn_0_clock_00_clock1-airplane1-144.png
vgg,1,722,NaN,bicycle,clock,0,0722_tfr_dnn_0_clock_00_clock1-bicycle2-0.png
vgg,1,723,NaN,bird,clock,0,0723_tfr_dnn_0_clock_00_clock1-boat3-72.png
vgg,1,724,NaN,truck,clock,0,0724_tfr_dnn_0_clock_00_clock1-car1-144.png
vgg,1,725,NaN,dog,clock,0,0725_tfr_dnn_0_clock_00_clock1-cat3-252.png
vgg,1,726,NaN,chair,clock,0,0726_tfr_dnn_0_clock_00_clock1-chair2-72.png
vgg,1,727,NaN,dog,clock,0,0727_tfr_dnn_0_clock_00_clock1-dog1-0.png
vgg,1,728,NaN,elephant,clock,0,0728_tfr_dnn_0_clock_00_clock1-elephant2-324.png
vgg,1,729,NaN,knife,clock,0,0729_tfr_dnn_0_clock_00_clock1-knife2-180.png
vgg,1,730,NaN,truck,clock,0,0730_tfr_dnn_0_clock_00_clock1-oven3-0.png
vgg,1,731,NaN,car,clock,0,0731_tfr_dnn_0_clock_00_clock1-truck3-324.png
vgg,1,732,NaN,dog,clock,0,0732_tfr_dnn_0_clock_00_clock10-bicycle3-144.png
vgg,1,733,NaN,boat,clock,0,0733_tfr_dnn_0_clock_00_clock10-boat2-216.png
vgg,1,734,NaN,bottle,clock,0,0734_tfr_dnn_0_clock_00_clock10-bottle1-72.png
vgg,1,735,NaN,bottle,clock,0,0735_tfr_dnn_0_clock_00_clock10-chair2-216.png
vgg,1,736,NaN,bird,clock,0,0736_tfr_dnn_0_clock_00_clock10-dog1-144.png
vgg,1,737,NaN,bottle,clock,0,0737_tfr_dnn_0_clock_00_clock10-elephant2-252.png
vgg,1,738,NaN,chair,clock,0,0738_tfr_dnn_0_clock_00_clock10-oven1-324.png
vgg,1,739,NaN,clock,clock,0,0739_tfr_dnn_0_clock_00_clock2-airplane1-324.png
vgg,1,740,NaN,clock,clock,0,0740_tfr_dnn_0_clock_00_clock2-bird2-288.png
vgg,1,741,NaN,car,clock,0,0741_tfr_dnn_0_clock_00_clock2-car3-36.png
vgg,1,742,NaN,cat,clock,0,0742_tfr_dnn_0_clock_00_clock2-cat1-108.png
vgg,1,743,NaN,chair,clock,0,0743_tfr_dnn_0_clock_00_clock2-chair2-0.png
vgg,1,744,NaN,clock,clock,0,0744_tfr_dnn_0_clock_00_clock2-clock3-324.png
vgg,1,745,NaN,dog,clock,0,0745_tfr_dnn_0_clock_00_clock2-dog3-288.png
vgg,1,746,NaN,clock,clock,0,0746_tfr_dnn_0_clock_00_clock2-keyboard3-36.png
vgg,1,747,NaN,clock,clock,0,0747_tfr_dnn_0_clock_00_clock2-truck1-0.png
vgg,1,748,NaN,cat,clock,0,0748_tfr_dnn_0_clock_00_clock3-bear2-144.png
vgg,1,749,NaN,bicycle,clock,0,0749_tfr_dnn_0_clock_00_clock3-bicycle1-72.png
vgg,1,750,NaN,clock,clock,0,0750_tfr_dnn_0_clock_00_clock3-boat3-324.png
vgg,1,751,NaN,bottle,clock,0,0751_tfr_dnn_0_clock_00_clock3-bottle1-0.png
vgg,1,752,NaN,clock,clock,0,0752_tfr_dnn_0_clock_00_clock3-cat3-144.png
vgg,1,753,NaN,knife,clock,0,0753_tfr_dnn_0_clock_00_clock3-chair3-144.png
vgg,1,754,NaN,clock,clock,0,0754_tfr_dnn_0_clock_00_clock3-clock2-108.png
vgg,1,755,NaN,clock,clock,0,0755_tfr_dnn_0_clock_00_clock3-keyboard2-108.png
vgg,1,756,NaN,clock,clock,0,0756_tfr_dnn_0_clock_00_clock3-knife2-216.png
vgg,1,757,NaN,bear,clock,0,0757_tfr_dnn_0_clock_00_clock4-bear3-0.png
vgg,1,758,NaN,knife,clock,0,0758_tfr_dnn_0_clock_00_clock4-bicycle3-216.png
vgg,1,759,NaN,boat,clock,0,0759_tfr_dnn_0_clock_00_clock4-boat1-36.png
vgg,1,760,NaN,clock,clock,0,0760_tfr_dnn_0_clock_00_clock4-clock3-72.png
vgg,1,761,NaN,knife,clock,0,0761_tfr_dnn_0_clock_00_clock4-elephant2-216.png
vgg,1,762,NaN,keyboard,clock,0,0762_tfr_dnn_0_clock_00_clock4-keyboard2-72.png
vgg,1,763,NaN,knife,clock,0,0763_tfr_dnn_0_clock_00_clock4-knife1-288.png
vgg,1,764,NaN,knife,clock,0,0764_tfr_dnn_0_clock_00_clock4-oven3-180.png
vgg,1,765,NaN,clock,clock,0,0765_tfr_dnn_0_clock_00_clock5-airplane3-180.png
vgg,1,766,NaN,elephant,clock,0,0766_tfr_dnn_0_clock_00_clock5-bear2-0.png
vgg,1,767,NaN,chair,clock,0,0767_tfr_dnn_0_clock_00_clock5-bird1-324.png
vgg,1,768,NaN,clock,clock,0,0768_tfr_dnn_0_clock_00_clock5-boat1-108.png
vgg,1,769,NaN,bottle,clock,0,0769_tfr_dnn_0_clock_00_clock5-bottle2-108.png
vgg,1,770,NaN,car,clock,0,0770_tfr_dnn_0_clock_00_clock5-car2-72.png
vgg,1,771,NaN,bottle,clock,0,0771_tfr_dnn_0_clock_00_clock5-chair3-36.png
vgg,1,772,NaN,clock,clock,0,0772_tfr_dnn_0_clock_00_clock5-clock3-180.png
vgg,1,773,NaN,dog,clock,0,0773_tfr_dnn_0_clock_00_clock5-dog1-216.png
vgg,1,774,NaN,keyboard,clock,0,0774_tfr_dnn_0_clock_00_clock5-knife3-72.png
vgg,1,775,NaN,clock,clock,0,0775_tfr_dnn_0_clock_00_clock5-oven2-0.png
vgg,1,776,NaN,clock,clock,0,0776_tfr_dnn_0_clock_00_clock5-truck2-0.png
vgg,1,777,NaN,bird,clock,0,0777_tfr_dnn_0_clock_00_clock6-bear3-216.png
vgg,1,778,NaN,bottle,clock,0,0778_tfr_dnn_0_clock_00_clock6-bicycle2-36.png
vgg,1,779,NaN,chair,clock,0,0779_tfr_dnn_0_clock_00_clock6-bird1-108.png
vgg,1,780,NaN,clock,clock,0,0780_tfr_dnn_0_clock_00_clock6-car3-288.png
vgg,1,781,NaN,clock,clock,0,0781_tfr_dnn_0_clock_00_clock6-cat3-36.png
vgg,1,782,NaN,clock,clock,0,0782_tfr_dnn_0_clock_00_clock7-airplane3-252.png
vgg,1,783,NaN,chair,clock,0,0783_tfr_dnn_0_clock_00_clock7-bird1-36.png
vgg,1,784,NaN,bottle,clock,0,0784_tfr_dnn_0_clock_00_clock7-bottle2-288.png
vgg,1,785,NaN,bird,clock,0,0785_tfr_dnn_0_clock_00_clock7-elephant3-180.png
vgg,1,786,NaN,keyboard,clock,0,0786_tfr_dnn_0_clock_00_clock7-keyboard1-288.png
vgg,1,787,NaN,oven,clock,0,0787_tfr_dnn_0_clock_00_clock7-oven1-108.png
vgg,1,788,NaN,clock,clock,0,0788_tfr_dnn_0_clock_00_clock7-truck3-216.png
vgg,1,789,NaN,bicycle,clock,0,0789_tfr_dnn_0_clock_00_clock8-airplane1-108.png
vgg,1,790,NaN,cat,clock,0,0790_tfr_dnn_0_clock_00_clock8-cat2-180.png
vgg,1,791,NaN,clock,clock,0,0791_tfr_dnn_0_clock_00_clock8-clock3-36.png
vgg,1,792,NaN,bottle,clock,0,0792_tfr_dnn_0_clock_00_clock8-dog3-252.png
vgg,1,793,NaN,bottle,clock,0,0793_tfr_dnn_0_clock_00_clock8-elephant2-108.png
vgg,1,794,NaN,knife,clock,0,0794_tfr_dnn_0_clock_00_clock8-knife3-216.png
vgg,1,795,NaN,bottle,clock,0,0795_tfr_dnn_0_clock_00_clock8-truck2-144.png
vgg,1,796,NaN,cat,clock,0,0796_tfr_dnn_0_clock_00_clock9-bear1-72.png
vgg,1,797,NaN,clock,clock,0,0797_tfr_dnn_0_clock_00_clock9-bird3-324.png
vgg,1,798,NaN,bottle,clock,0,0798_tfr_dnn_0_clock_00_clock9-bottle3-108.png
vgg,1,799,NaN,clock,clock,0,0799_tfr_dnn_0_clock_00_clock9-car2-108.png
vgg,1,800,NaN,clock,clock,0,0800_tfr_dnn_0_clock_00_clock9-keyboard1-144.png
vgg,1,801,NaN,airplane,dog,0,0801_tfr_dnn_0_dog_00_dog1-airplane2-180.png
vgg,1,802,NaN,bear,dog,0,0802_tfr_dnn_0_dog_00_dog1-bear2-324.png
vgg,1,803,NaN,chair,dog,0,0803_tfr_dnn_0_dog_00_dog1-bicycle3-252.png
vgg,1,804,NaN,dog,dog,0,0804_tfr_dnn_0_dog_00_dog1-dog3-36.png
vgg,1,805,NaN,knife,dog,0,0805_tfr_dnn_0_dog_00_dog1-knife3-216.png
vgg,1,806,NaN,chair,dog,0,0806_tfr_dnn_0_dog_00_dog1-truck1-0.png
vgg,1,807,NaN,bottle,dog,0,0807_tfr_dnn_0_dog_00_dog10-bicycle1-252.png
vgg,1,808,NaN,bird,dog,0,0808_tfr_dnn_0_dog_00_dog10-bird3-288.png
vgg,1,809,NaN,bottle,dog,0,0809_tfr_dnn_0_dog_00_dog10-bottle1-36.png
vgg,1,810,NaN,boat,dog,0,0810_tfr_dnn_0_dog_00_dog10-car1-180.png
vgg,1,811,NaN,chair,dog,0,0811_tfr_dnn_0_dog_00_dog10-chair2-288.png
vgg,1,812,NaN,chair,dog,0,0812_tfr_dnn_0_dog_00_dog10-clock2-36.png
vgg,1,813,NaN,dog,dog,0,0813_tfr_dnn_0_dog_00_dog10-dog2-36.png
vgg,1,814,NaN,bird,dog,0,0814_tfr_dnn_0_dog_00_dog10-elephant1-324.png
vgg,1,815,NaN,knife,dog,0,0815_tfr_dnn_0_dog_00_dog10-keyboard3-324.png
vgg,1,816,NaN,knife,dog,0,0816_tfr_dnn_0_dog_00_dog10-knife1-252.png
vgg,1,817,NaN,boat,dog,0,0817_tfr_dnn_0_dog_00_dog2-boat2-72.png
vgg,1,818,NaN,bottle,dog,0,0818_tfr_dnn_0_dog_00_dog2-bottle2-0.png
vgg,1,819,NaN,car,dog,0,0819_tfr_dnn_0_dog_00_dog2-car2-180.png
vgg,1,820,NaN,cat,dog,0,0820_tfr_dnn_0_dog_00_dog2-cat2-36.png
vgg,1,821,NaN,dog,dog,0,0821_tfr_dnn_0_dog_00_dog2-dog1-72.png
vgg,1,822,NaN,knife,dog,0,0822_tfr_dnn_0_dog_00_dog2-knife2-288.png
vgg,1,823,NaN,knife,dog,0,0823_tfr_dnn_0_dog_00_dog2-oven3-180.png
vgg,1,824,NaN,bird,dog,0,0824_tfr_dnn_0_dog_00_dog3-airplane3-216.png
vgg,1,825,NaN,dog,dog,0,0825_tfr_dnn_0_dog_00_dog3-bear3-324.png
vgg,1,826,NaN,boat,dog,0,0826_tfr_dnn_0_dog_00_dog3-boat2-324.png
vgg,1,827,NaN,chair,dog,0,0827_tfr_dnn_0_dog_00_dog3-chair2-108.png
vgg,1,828,NaN,clock,dog,0,0828_tfr_dnn_0_dog_00_dog3-clock1-36.png
vgg,1,829,NaN,dog,dog,0,0829_tfr_dnn_0_dog_00_dog3-keyboard3-108.png
vgg,1,830,NaN,bird,dog,0,0830_tfr_dnn_0_dog_00_dog3-truck1-324.png
vgg,1,831,NaN,bicycle,dog,0,0831_tfr_dnn_0_dog_00_dog4-car3-144.png
vgg,1,832,NaN,chair,dog,0,0832_tfr_dnn_0_dog_00_dog4-chair2-216.png
vgg,1,833,NaN,clock,dog,0,0833_tfr_dnn_0_dog_00_dog4-clock2-288.png
vgg,1,834,NaN,dog,dog,0,0834_tfr_dnn_0_dog_00_dog4-dog3-108.png
vgg,1,835,NaN,bird,dog,0,0835_tfr_dnn_0_dog_00_dog4-elephant1-180.png
vgg,1,836,NaN,knife,dog,0,0836_tfr_dnn_0_dog_00_dog4-knife3-288.png
vgg,1,837,NaN,bottle,dog,0,0837_tfr_dnn_0_dog_00_dog4-truck2-0.png
vgg,1,838,NaN,truck,dog,0,0838_tfr_dnn_0_dog_00_dog5-airplane2-108.png
vgg,1,839,NaN,cat,dog,0,0839_tfr_dnn_0_dog_00_dog5-bear1-108.png
vgg,1,840,NaN,bird,dog,0,0840_tfr_dnn_0_dog_00_dog5-bird3-36.png
vgg,1,841,NaN,bird,dog,0,0841_tfr_dnn_0_dog_00_dog5-boat3-324.png
vgg,1,842,NaN,bottle,dog,0,0842_tfr_dnn_0_dog_00_dog5-bottle3-324.png
vgg,1,843,NaN,dog,dog,0,0843_tfr_dnn_0_dog_00_dog5-cat1-216.png
vgg,1,844,NaN,clock,dog,0,0844_tfr_dnn_0_dog_00_dog5-clock1-180.png
vgg,1,845,NaN,bird,dog,0,0845_tfr_dnn_0_dog_00_dog5-elephant2-252.png
vgg,1,846,NaN,oven,dog,0,0846_tfr_dnn_0_dog_00_dog5-oven1-180.png
vgg,1,847,NaN,bottle,dog,0,0847_tfr_dnn_0_dog_00_dog5-truck2-72.png
vgg,1,848,NaN,bear,dog,0,0848_tfr_dnn_0_dog_00_dog6-bear1-36.png
vgg,1,849,NaN,bicycle,dog,0,0849_tfr_dnn_0_dog_00_dog6-bicycle1-288.png
vgg,1,850,NaN,bird,dog,0,0850_tfr_dnn_0_dog_00_dog6-bird1-144.png
vgg,1,851,NaN,boat,dog,0,0851_tfr_dnn_0_dog_00_dog6-boat1-324.png
vgg,1,852,NaN,bottle,dog,0,0852_tfr_dnn_0_dog_00_dog6-bottle1-72.png
vgg,1,853,NaN,car,dog,0,0853_tfr_dnn_0_dog_00_dog6-car2-36.png
vgg,1,854,NaN,clock,dog,0,0854_tfr_dnn_0_dog_00_dog6-clock3-252.png
vgg,1,855,NaN,elephant,dog,0,0855_tfr_dnn_0_dog_00_dog6-elephant1-144.png
vgg,1,856,NaN,keyboard,dog,0,0856_tfr_dnn_0_dog_00_dog6-keyboard1-36.png
vgg,1,857,NaN,knife,dog,0,0857_tfr_dnn_0_dog_00_dog6-oven1-324.png
vgg,1,858,NaN,bird,dog,0,0858_tfr_dnn_0_dog_00_dog7-airplane2-252.png
vgg,1,859,NaN,bicycle,dog,0,0859_tfr_dnn_0_dog_00_dog7-bicycle2-180.png
vgg,1,860,NaN,bottle,dog,0,0860_tfr_dnn_0_dog_00_dog7-bird1-252.png
vgg,1,861,NaN,bottle,dog,0,0861_tfr_dnn_0_dog_00_dog7-car3-252.png
vgg,1,862,NaN,dog,dog,0,0862_tfr_dnn_0_dog_00_dog7-cat1-252.png
vgg,1,863,NaN,chair,dog,0,0863_tfr_dnn_0_dog_00_dog7-chair1-288.png
vgg,1,864,NaN,dog,dog,0,0864_tfr_dnn_0_dog_00_dog7-dog3-252.png
vgg,1,865,NaN,bottle,dog,0,0865_tfr_dnn_0_dog_00_dog7-keyboard2-144.png
vgg,1,866,NaN,bird,dog,0,0866_tfr_dnn_0_dog_00_dog8-bird2-0.png
vgg,1,867,NaN,bottle,dog,0,0867_tfr_dnn_0_dog_00_dog8-bottle2-180.png
vgg,1,868,NaN,cat,dog,0,0868_tfr_dnn_0_dog_00_dog8-cat2-324.png
vgg,1,869,NaN,cat,dog,0,0869_tfr_dnn_0_dog_00_dog8-keyboard3-72.png
vgg,1,870,NaN,clock,dog,0,0870_tfr_dnn_0_dog_00_dog8-knife1-288.png
vgg,1,871,NaN,chair,dog,0,0871_tfr_dnn_0_dog_00_dog8-oven2-144.png
vgg,1,872,NaN,bottle,dog,0,0872_tfr_dnn_0_dog_00_dog8-truck1-216.png
vgg,1,873,NaN,bird,dog,0,0873_tfr_dnn_0_dog_00_dog9-airplane2-216.png
vgg,1,874,NaN,bear,dog,0,0874_tfr_dnn_0_dog_00_dog9-bear1-0.png
vgg,1,875,NaN,dog,dog,0,0875_tfr_dnn_0_dog_00_dog9-bicycle1-108.png
vgg,1,876,NaN,chair,dog,0,0876_tfr_dnn_0_dog_00_dog9-boat3-72.png
vgg,1,877,NaN,dog,dog,0,0877_tfr_dnn_0_dog_00_dog9-cat3-108.png
vgg,1,878,NaN,chair,dog,0,0878_tfr_dnn_0_dog_00_dog9-chair1-0.png
vgg,1,879,NaN,bird,dog,0,0879_tfr_dnn_0_dog_00_dog9-elephant3-252.png
vgg,1,880,NaN,dog,dog,0,0880_tfr_dnn_0_dog_00_dog9-oven2-108.png
vgg,1,881,NaN,bear,elephant,0,0881_tfr_dnn_0_elephant_00_elephant1-bear1-0.png
vgg,1,882,NaN,chair,elephant,0,0882_tfr_dnn_0_elephant_00_elephant1-boat3-324.png
vgg,1,883,NaN,bottle,elephant,0,0883_tfr_dnn_0_elephant_00_elephant1-bottle1-0.png
vgg,1,884,NaN,knife,elephant,0,0884_tfr_dnn_0_elephant_00_elephant1-car2-108.png
vgg,1,885,NaN,cat,elephant,0,0885_tfr_dnn_0_elephant_00_elephant1-cat1-36.png
vgg,1,886,NaN,clock,elephant,0,0886_tfr_dnn_0_elephant_00_elephant1-clock2-324.png
vgg,1,887,NaN,airplane,elephant,0,0887_tfr_dnn_0_elephant_00_elephant10-airplane2-288.png
vgg,1,888,NaN,keyboard,elephant,0,0888_tfr_dnn_0_elephant_00_elephant10-bicycle2-180.png
vgg,1,889,NaN,bird,elephant,0,0889_tfr_dnn_0_elephant_00_elephant10-bird2-324.png
vgg,1,890,NaN,bottle,elephant,0,0890_tfr_dnn_0_elephant_00_elephant10-bottle1-108.png
vgg,1,891,NaN,cat,elephant,0,0891_tfr_dnn_0_elephant_00_elephant10-cat2-180.png
vgg,1,892,NaN,chair,elephant,0,0892_tfr_dnn_0_elephant_00_elephant10-chair2-252.png
vgg,1,893,NaN,elephant,elephant,0,0893_tfr_dnn_0_elephant_00_elephant10-elephant2-108.png
vgg,1,894,NaN,clock,elephant,0,0894_tfr_dnn_0_elephant_00_elephant10-keyboard1-144.png
vgg,1,895,NaN,knife,elephant,0,0895_tfr_dnn_0_elephant_00_elephant10-knife2-252.png
vgg,1,896,NaN,bird,elephant,0,0896_tfr_dnn_0_elephant_00_elephant2-bear2-72.png
vgg,1,897,NaN,bottle,elephant,0,0897_tfr_dnn_0_elephant_00_elephant2-car3-288.png
vgg,1,898,NaN,chair,elephant,0,0898_tfr_dnn_0_elephant_00_elephant2-chair3-0.png
vgg,1,899,NaN,clock,elephant,0,0899_tfr_dnn_0_elephant_00_elephant2-clock1-108.png
vgg,1,900,NaN,dog,elephant,0,0900_tfr_dnn_0_elephant_00_elephant2-dog2-216.png
vgg,1,901,NaN,clock,elephant,0,0901_tfr_dnn_0_elephant_00_elephant2-elephant2-288.png
vgg,1,902,NaN,bottle,elephant,0,0902_tfr_dnn_0_elephant_00_elephant2-oven2-252.png
vgg,1,903,NaN,bottle,elephant,0,0903_tfr_dnn_0_elephant_00_elephant2-truck2-180.png
vgg,1,904,NaN,clock,elephant,0,0904_tfr_dnn_0_elephant_00_elephant3-airplane2-108.png
vgg,1,905,NaN,chair,elephant,0,0905_tfr_dnn_0_elephant_00_elephant3-bicycle2-288.png
vgg,1,906,NaN,dog,elephant,0,0906_tfr_dnn_0_elephant_00_elephant3-bird1-288.png
vgg,1,907,NaN,bottle,elephant,0,0907_tfr_dnn_0_elephant_00_elephant3-car2-288.png
vgg,1,908,NaN,knife,elephant,0,0908_tfr_dnn_0_elephant_00_elephant3-chair3-216.png
vgg,1,909,NaN,knife,elephant,0,0909_tfr_dnn_0_elephant_00_elephant3-knife2-108.png
vgg,1,910,NaN,knife,elephant,0,0910_tfr_dnn_0_elephant_00_elephant3-oven2-0.png
vgg,1,911,NaN,clock,elephant,0,0911_tfr_dnn_0_elephant_00_elephant3-truck1-108.png
vgg,1,912,NaN,bird,elephant,0,0912_tfr_dnn_0_elephant_00_elephant4-bear3-36.png
vgg,1,913,NaN,bottle,elephant,0,0913_tfr_dnn_0_elephant_00_elephant4-bicycle2-36.png
vgg,1,914,NaN,truck,elephant,0,0914_tfr_dnn_0_elephant_00_elephant4-boat3-0.png
vgg,1,915,NaN,cat,elephant,0,0915_tfr_dnn_0_elephant_00_elephant4-dog3-0.png
vgg,1,916,NaN,knife,elephant,0,0916_tfr_dnn_0_elephant_00_elephant4-keyboard3-252.png
vgg,1,917,NaN,knife,elephant,0,0917_tfr_dnn_0_elephant_00_elephant4-knife2-216.png
vgg,1,918,NaN,oven,elephant,0,0918_tfr_dnn_0_elephant_00_elephant4-oven2-216.png
vgg,1,919,NaN,bottle,elephant,0,0919_tfr_dnn_0_elephant_00_elephant4-truck2-36.png
vgg,1,920,NaN,knife,elephant,0,0920_tfr_dnn_0_elephant_00_elephant5-airplane1-216.png
vgg,1,921,NaN,bird,elephant,0,0921_tfr_dnn_0_elephant_00_elephant5-bear3-252.png
vgg,1,922,NaN,knife,elephant,0,0922_tfr_dnn_0_elephant_00_elephant5-bird3-216.png
vgg,1,923,NaN,boat,elephant,0,0923_tfr_dnn_0_elephant_00_elephant5-boat2-324.png
vgg,1,924,NaN,knife,elephant,0,0924_tfr_dnn_0_elephant_00_elephant5-cat3-0.png
vgg,1,925,NaN,chair,elephant,0,0925_tfr_dnn_0_elephant_00_elephant5-chair2-144.png
vgg,1,926,NaN,clock,elephant,0,0926_tfr_dnn_0_elephant_00_elephant5-clock1-36.png
vgg,1,927,NaN,keyboard,elephant,0,0927_tfr_dnn_0_elephant_00_elephant5-keyboard3-0.png
vgg,1,928,NaN,knife,elephant,0,0928_tfr_dnn_0_elephant_00_elephant5-knife1-108.png
vgg,1,929,NaN,knife,elephant,0,0929_tfr_dnn_0_elephant_00_elephant5-oven3-0.png
vgg,1,930,NaN,cat,elephant,0,0930_tfr_dnn_0_elephant_00_elephant6-bear1-216.png
vgg,1,931,NaN,bird,elephant,0,0931_tfr_dnn_0_elephant_00_elephant6-bird3-36.png
vgg,1,932,NaN,chair,elephant,0,0932_tfr_dnn_0_elephant_00_elephant6-boat3-144.png
vgg,1,933,NaN,bottle,elephant,0,0933_tfr_dnn_0_elephant_00_elephant6-bottle2-216.png
vgg,1,934,NaN,clock,elephant,0,0934_tfr_dnn_0_elephant_00_elephant6-clock1-252.png
vgg,1,935,NaN,dog,elephant,0,0935_tfr_dnn_0_elephant_00_elephant6-dog3-216.png
vgg,1,936,NaN,knife,elephant,0,0936_tfr_dnn_0_elephant_00_elephant6-knife1-216.png
vgg,1,937,NaN,bird,elephant,0,0937_tfr_dnn_0_elephant_00_elephant7-airplane2-216.png
vgg,1,938,NaN,bicycle,elephant,0,0938_tfr_dnn_0_elephant_00_elephant7-bicycle2-108.png
vgg,1,939,NaN,boat,elephant,0,0939_tfr_dnn_0_elephant_00_elephant7-boat1-324.png
vgg,1,940,NaN,bottle,elephant,0,0940_tfr_dnn_0_elephant_00_elephant7-bottle3-144.png
vgg,1,941,NaN,bottle,elephant,0,0941_tfr_dnn_0_elephant_00_elephant7-car2-216.png
vgg,1,942,NaN,chair,elephant,0,0942_tfr_dnn_0_elephant_00_elephant7-clock2-144.png
vgg,1,943,NaN,cat,elephant,0,0943_tfr_dnn_0_elephant_00_elephant7-elephant1-144.png
vgg,1,944,NaN,bird,elephant,0,0944_tfr_dnn_0_elephant_00_elephant7-truck3-36.png
vgg,1,945,NaN,bird,elephant,0,0945_tfr_dnn_0_elephant_00_elephant8-airplane3-180.png
vgg,1,946,NaN,bicycle,elephant,0,0946_tfr_dnn_0_elephant_00_elephant8-bicycle1-72.png
vgg,1,947,NaN,car,elephant,0,0947_tfr_dnn_0_elephant_00_elephant8-car1-324.png
vgg,1,948,NaN,cat,elephant,0,0948_tfr_dnn_0_elephant_00_elephant8-cat1-216.png
vgg,1,949,NaN,bottle,elephant,0,0949_tfr_dnn_0_elephant_00_elephant8-chair1-36.png
vgg,1,950,NaN,dog,elephant,0,0950_tfr_dnn_0_elephant_00_elephant8-dog1-0.png
vgg,1,951,NaN,elephant,elephant,0,0951_tfr_dnn_0_elephant_00_elephant8-elephant1-252.png
vgg,1,952,NaN,keyboard,elephant,0,0952_tfr_dnn_0_elephant_00_elephant8-keyboard2-252.png
vgg,1,953,NaN,bottle,elephant,0,0953_tfr_dnn_0_elephant_00_elephant8-oven3-144.png
vgg,1,954,NaN,bird,elephant,0,0954_tfr_dnn_0_elephant_00_elephant9-bird3-180.png
vgg,1,955,NaN,bottle,elephant,0,0955_tfr_dnn_0_elephant_00_elephant9-bottle3-108.png
vgg,1,956,NaN,cat,elephant,0,0956_tfr_dnn_0_elephant_00_elephant9-cat2-252.png
vgg,1,957,NaN,cat,elephant,0,0957_tfr_dnn_0_elephant_00_elephant9-dog1-288.png
vgg,1,958,NaN,bird,elephant,0,0958_tfr_dnn_0_elephant_00_elephant9-elephant1-0.png
vgg,1,959,NaN,knife,elephant,0,0959_tfr_dnn_0_elephant_00_elephant9-keyboard1-324.png
vgg,1,960,NaN,bottle,elephant,0,0960_tfr_dnn_0_elephant_00_elephant9-truck1-180.png
vgg,1,961,NaN,knife,keyboard,0,0961_tfr_dnn_0_keyboard_00_keyboard1-bear3-180.png
vgg,1,962,NaN,knife,keyboard,0,0962_tfr_dnn_0_keyboard_00_keyboard1-bird3-216.png
vgg,1,963,NaN,knife,keyboard,0,0963_tfr_dnn_0_keyboard_00_keyboard1-bottle1-72.png
vgg,1,964,NaN,cat,keyboard,0,0964_tfr_dnn_0_keyboard_00_keyboard1-cat2-324.png
vgg,1,965,NaN,clock,keyboard,0,0965_tfr_dnn_0_keyboard_00_keyboard1-clock1-0.png
vgg,1,966,NaN,knife,keyboard,0,0966_tfr_dnn_0_keyboard_00_keyboard1-elephant3-252.png
vgg,1,967,NaN,knife,keyboard,0,0967_tfr_dnn_0_keyboard_00_keyboard1-knife2-252.png
vgg,1,968,NaN,airplane,keyboard,0,0968_tfr_dnn_0_keyboard_00_keyboard10-boat1-180.png
vgg,1,969,NaN,bottle,keyboard,0,0969_tfr_dnn_0_keyboard_00_keyboard10-bottle3-144.png
vgg,1,970,NaN,boat,keyboard,0,0970_tfr_dnn_0_keyboard_00_keyboard10-car1-216.png
vgg,1,971,NaN,dog,keyboard,0,0971_tfr_dnn_0_keyboard_00_keyboard10-dog3-324.png
vgg,1,972,NaN,knife,keyboard,0,0972_tfr_dnn_0_keyboard_00_keyboard10-elephant2-108.png
vgg,1,973,NaN,car,keyboard,0,0973_tfr_dnn_0_keyboard_00_keyboard10-truck1-0.png
vgg,1,974,NaN,boat,keyboard,0,0974_tfr_dnn_0_keyboard_00_keyboard2-boat3-324.png
vgg,1,975,NaN,bottle,keyboard,0,0975_tfr_dnn_0_keyboard_00_keyboard2-bottle1-0.png
vgg,1,976,NaN,car,keyboard,0,0976_tfr_dnn_0_keyboard_00_keyboard2-car3-0.png
vgg,1,977,NaN,dog,keyboard,0,0977_tfr_dnn_0_keyboard_00_keyboard2-dog1-108.png
vgg,1,978,NaN,knife,keyboard,0,0978_tfr_dnn_0_keyboard_00_keyboard2-elephant1-144.png
vgg,1,979,NaN,knife,keyboard,0,0979_tfr_dnn_0_keyboard_00_keyboard2-knife3-216.png
vgg,1,980,NaN,clock,keyboard,0,0980_tfr_dnn_0_keyboard_00_keyboard2-oven2-252.png
vgg,1,981,NaN,airplane,keyboard,0,0981_tfr_dnn_0_keyboard_00_keyboard3-airplane1-180.png
vgg,1,982,NaN,knife,keyboard,0,0982_tfr_dnn_0_keyboard_00_keyboard3-bear2-288.png
vgg,1,983,NaN,knife,keyboard,0,0983_tfr_dnn_0_keyboard_00_keyboard3-bird1-324.png
vgg,1,984,NaN,knife,keyboard,0,0984_tfr_dnn_0_keyboard_00_keyboard3-chair1-180.png
vgg,1,985,NaN,knife,keyboard,0,0985_tfr_dnn_0_keyboard_00_keyboard3-keyboard3-72.png
vgg,1,986,NaN,knife,keyboard,0,0986_tfr_dnn_0_keyboard_00_keyboard3-knife3-72.png
vgg,1,987,NaN,knife,keyboard,0,0987_tfr_dnn_0_keyboard_00_keyboard3-oven3-324.png
vgg,1,988,NaN,knife,keyboard,0,0988_tfr_dnn_0_keyboard_00_keyboard3-truck3-180.png
vgg,1,989,NaN,bicycle,keyboard,0,0989_tfr_dnn_0_keyboard_00_keyboard4-bicycle1-72.png
vgg,1,990,NaN,dog,keyboard,0,0990_tfr_dnn_0_keyboard_00_keyboard4-bird1-72.png
vgg,1,991,NaN,bottle,keyboard,0,0991_tfr_dnn_0_keyboard_00_keyboard4-bottle1-180.png
vgg,1,992,NaN,dog,keyboard,0,0992_tfr_dnn_0_keyboard_00_keyboard4-dog1-180.png
vgg,1,993,NaN,keyboard,keyboard,0,0993_tfr_dnn_0_keyboard_00_keyboard4-keyboard2-72.png
vgg,1,994,NaN,clock,keyboard,0,0994_tfr_dnn_0_keyboard_00_keyboard4-oven3-144.png
vgg,1,995,NaN,keyboard,keyboard,0,0995_tfr_dnn_0_keyboard_00_keyboard4-truck1-324.png
vgg,1,996,NaN,cat,keyboard,0,0996_tfr_dnn_0_keyboard_00_keyboard5-bear1-72.png
vgg,1,997,NaN,bicycle,keyboard,0,0997_tfr_dnn_0_keyboard_00_keyboard5-bicycle2-144.png
vgg,1,998,NaN,cat,keyboard,0,0998_tfr_dnn_0_keyboard_00_keyboard5-cat1-144.png
vgg,1,999,NaN,chair,keyboard,0,0999_tfr_dnn_0_keyboard_00_keyboard5-chair3-324.png
vgg,1,1000,NaN,clock,keyboard,0,1000_tfr_dnn_0_keyboard_00_keyboard5-clock1-180.png
vgg,1,1001,NaN,dog,keyboard,0,1001_tfr_dnn_0_keyboard_00_keyboard5-dog2-288.png
vgg,1,1002,NaN,knife,keyboard,0,1002_tfr_dnn_0_keyboard_00_keyboard5-elephant3-108.png
vgg,1,1003,NaN,keyboard,keyboard,0,1003_tfr_dnn_0_keyboard_00_keyboard5-keyboard1-108.png
vgg,1,1004,NaN,clock,keyboard,0,1004_tfr_dnn_0_keyboard_00_keyboard5-oven2-144.png
vgg,1,1005,NaN,bottle,keyboard,0,1005_tfr_dnn_0_keyboard_00_keyboard5-truck2-108.png
vgg,1,1006,NaN,knife,keyboard,0,1006_tfr_dnn_0_keyboard_00_keyboard6-airplane1-108.png
vgg,1,1007,NaN,bird,keyboard,0,1007_tfr_dnn_0_keyboard_00_keyboard6-bear3-36.png
vgg,1,1008,NaN,boat,keyboard,0,1008_tfr_dnn_0_keyboard_00_keyboard6-boat2-324.png
vgg,1,1009,NaN,knife,keyboard,0,1009_tfr_dnn_0_keyboard_00_keyboard6-bottle2-324.png
vgg,1,1010,NaN,knife,keyboard,0,1010_tfr_dnn_0_keyboard_00_keyboard6-car2-288.png
vgg,1,1011,NaN,cat,keyboard,0,1011_tfr_dnn_0_keyboard_00_keyboard6-cat1-288.png
vgg,1,1012,NaN,chair,keyboard,0,1012_tfr_dnn_0_keyboard_00_keyboard6-chair2-36.png
vgg,1,1013,NaN,clock,keyboard,0,1013_tfr_dnn_0_keyboard_00_keyboard6-clock1-36.png
vgg,1,1014,NaN,knife,keyboard,0,1014_tfr_dnn_0_keyboard_00_keyboard6-elephant3-36.png
vgg,1,1015,NaN,knife,keyboard,0,1015_tfr_dnn_0_keyboard_00_keyboard6-knife3-144.png
vgg,1,1016,NaN,airplane,keyboard,0,1016_tfr_dnn_0_keyboard_00_keyboard7-airplane2-288.png
vgg,1,1017,NaN,cat,keyboard,0,1017_tfr_dnn_0_keyboard_00_keyboard7-bear1-180.png
vgg,1,1018,NaN,knife,keyboard,0,1018_tfr_dnn_0_keyboard_00_keyboard7-bicycle3-144.png
vgg,1,1019,NaN,bird,keyboard,0,1019_tfr_dnn_0_keyboard_00_keyboard7-bird3-252.png
vgg,1,1020,NaN,dog,keyboard,0,1020_tfr_dnn_0_keyboard_00_keyboard7-cat1-72.png
vgg,1,1021,NaN,chair,keyboard,0,1021_tfr_dnn_0_keyboard_00_keyboard7-chair3-252.png
vgg,1,1022,NaN,clock,keyboard,0,1022_tfr_dnn_0_keyboard_00_keyboard7-clock1-216.png
vgg,1,1023,NaN,dog,keyboard,0,1023_tfr_dnn_0_keyboard_00_keyboard7-dog2-144.png
vgg,1,1024,NaN,knife,keyboard,0,1024_tfr_dnn_0_keyboard_00_keyboard7-knife1-72.png
vgg,1,1025,NaN,clock,keyboard,0,1025_tfr_dnn_0_keyboard_00_keyboard7-oven3-72.png
vgg,1,1026,NaN,bottle,keyboard,0,1026_tfr_dnn_0_keyboard_00_keyboard7-truck3-216.png
vgg,1,1027,NaN,boat,keyboard,0,1027_tfr_dnn_0_keyboard_00_keyboard8-airplane2-324.png
vgg,1,1028,NaN,bottle,keyboard,0,1028_tfr_dnn_0_keyboard_00_keyboard8-bicycle2-216.png
vgg,1,1029,NaN,truck,keyboard,0,1029_tfr_dnn_0_keyboard_00_keyboard8-boat2-36.png
vgg,1,1030,NaN,truck,keyboard,0,1030_tfr_dnn_0_keyboard_00_keyboard8-car2-252.png
vgg,1,1031,NaN,cat,keyboard,0,1031_tfr_dnn_0_keyboard_00_keyboard8-cat3-0.png
vgg,1,1032,NaN,clock,keyboard,0,1032_tfr_dnn_0_keyboard_00_keyboard8-clock1-144.png
vgg,1,1033,NaN,keyboard,keyboard,0,1033_tfr_dnn_0_keyboard_00_keyboard8-keyboard1-324.png
vgg,1,1034,NaN,knife,keyboard,0,1034_tfr_dnn_0_keyboard_00_keyboard9-airplane3-72.png
vgg,1,1035,NaN,bottle,keyboard,0,1035_tfr_dnn_0_keyboard_00_keyboard9-bicycle3-288.png
vgg,1,1036,NaN,bird,keyboard,0,1036_tfr_dnn_0_keyboard_00_keyboard9-bird3-36.png
vgg,1,1037,NaN,clock,keyboard,0,1037_tfr_dnn_0_keyboard_00_keyboard9-boat3-180.png
vgg,1,1038,NaN,truck,keyboard,0,1038_tfr_dnn_0_keyboard_00_keyboard9-car3-108.png
vgg,1,1039,NaN,chair,keyboard,0,1039_tfr_dnn_0_keyboard_00_keyboard9-chair2-180.png
vgg,1,1040,NaN,keyboard,keyboard,0,1040_tfr_dnn_0_keyboard_00_keyboard9-keyboard3-144.png
vgg,1,1041,NaN,knife,knife,0,1041_tfr_dnn_0_knife_00_knife1-airplane2-252.png
vgg,1,1042,NaN,knife,knife,0,1042_tfr_dnn_0_knife_00_knife1-bear1-108.png
vgg,1,1043,NaN,knife,knife,0,1043_tfr_dnn_0_knife_00_knife1-bottle1-72.png
vgg,1,1044,NaN,knife,knife,0,1044_tfr_dnn_0_knife_00_knife1-clock3-0.png
vgg,1,1045,NaN,knife,knife,0,1045_tfr_dnn_0_knife_00_knife1-keyboard3-144.png
vgg,1,1046,NaN,boat,knife,0,1046_tfr_dnn_0_knife_00_knife1-truck3-0.png
vgg,1,1047,NaN,knife,knife,0,1047_tfr_dnn_0_knife_00_knife10-airplane3-0.png
vgg,1,1048,NaN,knife,knife,0,1048_tfr_dnn_0_knife_00_knife10-bear2-324.png
vgg,1,1049,NaN,knife,knife,0,1049_tfr_dnn_0_knife_00_knife10-bird1-72.png
vgg,1,1050,NaN,boat,knife,0,1050_tfr_dnn_0_knife_00_knife10-boat2-72.png
vgg,1,1051,NaN,knife,knife,0,1051_tfr_dnn_0_knife_00_knife10-car2-144.png
vgg,1,1052,NaN,cat,knife,0,1052_tfr_dnn_0_knife_00_knife10-cat1-180.png
vgg,1,1053,NaN,chair,knife,0,1053_tfr_dnn_0_knife_00_knife10-chair2-36.png
vgg,1,1054,NaN,knife,knife,0,1054_tfr_dnn_0_knife_00_knife10-dog3-324.png
vgg,1,1055,NaN,knife,knife,0,1055_tfr_dnn_0_knife_00_knife10-elephant1-144.png
vgg,1,1056,NaN,knife,knife,0,1056_tfr_dnn_0_knife_00_knife10-keyboard1-288.png
vgg,1,1057,NaN,knife,knife,0,1057_tfr_dnn_0_knife_00_knife10-knife3-0.png
vgg,1,1058,NaN,knife,knife,0,1058_tfr_dnn_0_knife_00_knife10-truck2-288.png
vgg,1,1059,NaN,cat,knife,0,1059_tfr_dnn_0_knife_00_knife2-bear1-36.png
vgg,1,1060,NaN,bird,knife,0,1060_tfr_dnn_0_knife_00_knife2-bicycle3-252.png
vgg,1,1061,NaN,cat,knife,0,1061_tfr_dnn_0_knife_00_knife2-bird2-108.png
vgg,1,1062,NaN,boat,knife,0,1062_tfr_dnn_0_knife_00_knife2-boat1-288.png
vgg,1,1063,NaN,bottle,knife,0,1063_tfr_dnn_0_knife_00_knife2-bottle1-108.png
vgg,1,1064,NaN,cat,knife,0,1064_tfr_dnn_0_knife_00_knife2-cat2-108.png
vgg,1,1065,NaN,bottle,knife,0,1065_tfr_dnn_0_knife_00_knife2-chair3-216.png
vgg,1,1066,NaN,clock,knife,0,1066_tfr_dnn_0_knife_00_knife2-clock1-36.png
vgg,1,1067,NaN,knife,knife,0,1067_tfr_dnn_0_knife_00_knife2-oven2-72.png
vgg,1,1068,NaN,knife,knife,0,1068_tfr_dnn_0_knife_00_knife3-airplane1-0.png
vgg,1,1069,NaN,bird,knife,0,1069_tfr_dnn_0_knife_00_knife3-bear3-0.png
vgg,1,1070,NaN,knife,knife,0,1070_tfr_dnn_0_knife_00_knife3-bicycle2-324.png
vgg,1,1071,NaN,knife,knife,0,1071_tfr_dnn_0_knife_00_knife3-boat2-180.png
vgg,1,1072,NaN,bottle,knife,0,1072_tfr_dnn_0_knife_00_knife3-bottle3-216.png
vgg,1,1073,NaN,knife,knife,0,1073_tfr_dnn_0_knife_00_knife3-car3-0.png
vgg,1,1074,NaN,knife,knife,0,1074_tfr_dnn_0_knife_00_knife3-cat2-216.png
vgg,1,1075,NaN,knife,knife,0,1075_tfr_dnn_0_knife_00_knife3-clock3-324.png
vgg,1,1076,NaN,knife,knife,0,1076_tfr_dnn_0_knife_00_knife3-dog2-288.png
vgg,1,1077,NaN,knife,knife,0,1077_tfr_dnn_0_knife_00_knife3-keyboard1-216.png
vgg,1,1078,NaN,knife,knife,0,1078_tfr_dnn_0_knife_00_knife3-knife2-288.png
vgg,1,1079,NaN,knife,knife,0,1079_tfr_dnn_0_knife_00_knife3-oven3-324.png
vgg,1,1080,NaN,truck,knife,0,1080_tfr_dnn_0_knife_00_knife4-bicycle1-180.png
vgg,1,1081,NaN,truck,knife,0,1081_tfr_dnn_0_knife_00_knife4-boat2-252.png
vgg,1,1082,NaN,knife,knife,0,1082_tfr_dnn_0_knife_00_knife4-car3-216.png
vgg,1,1083,NaN,bird,knife,0,1083_tfr_dnn_0_knife_00_knife4-dog2-72.png
vgg,1,1084,NaN,knife,knife,0,1084_tfr_dnn_0_knife_00_knife4-elephant3-36.png
vgg,1,1085,NaN,knife,knife,0,1085_tfr_dnn_0_knife_00_knife4-keyboard3-252.png
vgg,1,1086,NaN,knife,knife,0,1086_tfr_dnn_0_knife_00_knife4-knife3-324.png
vgg,1,1087,NaN,knife,knife,0,1087_tfr_dnn_0_knife_00_knife5-airplane1-288.png
vgg,1,1088,NaN,knife,knife,0,1088_tfr_dnn_0_knife_00_knife5-bicycle3-144.png
vgg,1,1089,NaN,knife,knife,0,1089_tfr_dnn_0_knife_00_knife5-bird1-252.png
vgg,1,1090,NaN,knife,knife,0,1090_tfr_dnn_0_knife_00_knife5-bottle2-324.png
vgg,1,1091,NaN,cat,knife,0,1091_tfr_dnn_0_knife_00_knife5-cat2-144.png
vgg,1,1092,NaN,cat,knife,0,1092_tfr_dnn_0_knife_00_knife5-dog1-216.png
vgg,1,1093,NaN,knife,knife,0,1093_tfr_dnn_0_knife_00_knife5-elephant2-72.png
vgg,1,1094,NaN,chair,knife,0,1094_tfr_dnn_0_knife_00_knife5-oven2-324.png
vgg,1,1095,NaN,bird,knife,0,1095_tfr_dnn_0_knife_00_knife6-airplane2-108.png
vgg,1,1096,NaN,knife,knife,0,1096_tfr_dnn_0_knife_00_knife6-bicycle3-72.png
vgg,1,1097,NaN,knife,knife,0,1097_tfr_dnn_0_knife_00_knife6-cat3-324.png
vgg,1,1098,NaN,bottle,knife,0,1098_tfr_dnn_0_knife_00_knife6-chair1-72.png
vgg,1,1099,NaN,knife,knife,0,1099_tfr_dnn_0_knife_00_knife6-clock1-144.png
vgg,1,1100,NaN,bird,knife,0,1100_tfr_dnn_0_knife_00_knife6-dog1-288.png
vgg,1,1101,NaN,knife,knife,0,1101_tfr_dnn_0_knife_00_knife6-elephant3-72.png
vgg,1,1102,NaN,knife,knife,0,1102_tfr_dnn_0_knife_00_knife6-knife1-144.png
vgg,1,1103,NaN,knife,knife,0,1103_tfr_dnn_0_knife_00_knife7-bird2-216.png
vgg,1,1104,NaN,chair,knife,0,1104_tfr_dnn_0_knife_00_knife7-car1-252.png
vgg,1,1105,NaN,knife,knife,0,1105_tfr_dnn_0_knife_00_knife7-chair1-216.png
vgg,1,1106,NaN,knife,knife,0,1106_tfr_dnn_0_knife_00_knife7-clock3-72.png
vgg,1,1107,NaN,knife,knife,0,1107_tfr_dnn_0_knife_00_knife7-truck1-72.png
vgg,1,1108,NaN,dog,knife,0,1108_tfr_dnn_0_knife_00_knife8-bear2-144.png
vgg,1,1109,NaN,bird,knife,0,1109_tfr_dnn_0_knife_00_knife8-boat1-144.png
vgg,1,1110,NaN,bottle,knife,0,1110_tfr_dnn_0_knife_00_knife8-bottle3-36.png
vgg,1,1111,NaN,chair,knife,0,1111_tfr_dnn_0_knife_00_knife8-car1-108.png
vgg,1,1112,NaN,boat,knife,0,1112_tfr_dnn_0_knife_00_knife8-chair1-108.png
vgg,1,1113,NaN,chair,knife,0,1113_tfr_dnn_0_knife_00_knife8-oven2-252.png
vgg,1,1114,NaN,knife,knife,0,1114_tfr_dnn_0_knife_00_knife8-truck2-144.png
vgg,1,1115,NaN,knife,knife,0,1115_tfr_dnn_0_knife_00_knife9-bird2-288.png
vgg,1,1116,NaN,knife,knife,0,1116_tfr_dnn_0_knife_00_knife9-elephant1-288.png
vgg,1,1117,NaN,knife,knife,0,1117_tfr_dnn_0_knife_00_knife9-keyboard3-180.png
vgg,1,1118,NaN,knife,knife,0,1118_tfr_dnn_0_knife_00_knife9-knife2-0.png
vgg,1,1119,NaN,knife,knife,0,1119_tfr_dnn_0_knife_00_knife9-oven1-324.png
vgg,1,1120,NaN,bottle,knife,0,1120_tfr_dnn_0_knife_00_knife9-truck1-36.png
vgg,1,1121,NaN,airplane,oven,0,1121_tfr_dnn_0_oven_00_oven1-airplane3-0.png
vgg,1,1122,NaN,bear,oven,0,1122_tfr_dnn_0_oven_00_oven1-bear3-324.png
vgg,1,1123,NaN,bicycle,oven,0,1123_tfr_dnn_0_oven_00_oven1-bicycle2-144.png
vgg,1,1124,NaN,clock,oven,0,1124_tfr_dnn_0_oven_00_oven1-boat3-72.png
vgg,1,1125,NaN,chair,oven,0,1125_tfr_dnn_0_oven_00_oven1-chair2-72.png
vgg,1,1126,NaN,elephant,oven,0,1126_tfr_dnn_0_oven_00_oven1-elephant3-180.png
vgg,1,1127,NaN,keyboard,oven,0,1127_tfr_dnn_0_oven_00_oven1-keyboard1-288.png
vgg,1,1128,NaN,truck,oven,0,1128_tfr_dnn_0_oven_00_oven10-airplane3-252.png
vgg,1,1129,NaN,truck,oven,0,1129_tfr_dnn_0_oven_00_oven10-boat1-72.png
vgg,1,1130,NaN,bottle,oven,0,1130_tfr_dnn_0_oven_00_oven10-bottle1-180.png
vgg,1,1131,NaN,car,oven,0,1131_tfr_dnn_0_oven_00_oven10-car3-0.png
vgg,1,1132,NaN,cat,oven,0,1132_tfr_dnn_0_oven_00_oven10-cat2-324.png
vgg,1,1133,NaN,clock,oven,0,1133_tfr_dnn_0_oven_00_oven10-clock3-144.png
vgg,1,1134,NaN,dog,oven,0,1134_tfr_dnn_0_oven_00_oven10-dog2-108.png
vgg,1,1135,NaN,knife,oven,0,1135_tfr_dnn_0_oven_00_oven10-knife1-0.png
vgg,1,1136,NaN,oven,oven,0,1136_tfr_dnn_0_oven_00_oven10-oven1-72.png
vgg,1,1137,NaN,truck,oven,0,1137_tfr_dnn_0_oven_00_oven10-truck3-108.png
vgg,1,1138,NaN,elephant,oven,0,1138_tfr_dnn_0_oven_00_oven2-bear2-216.png
vgg,1,1139,NaN,bicycle,oven,0,1139_tfr_dnn_0_oven_00_oven2-bicycle1-324.png
vgg,1,1140,NaN,bird,oven,0,1140_tfr_dnn_0_oven_00_oven2-bird1-324.png
vgg,1,1141,NaN,chair,oven,0,1141_tfr_dnn_0_oven_00_oven2-chair2-108.png
vgg,1,1142,NaN,dog,oven,0,1142_tfr_dnn_0_oven_00_oven2-dog3-216.png
vgg,1,1143,NaN,elephant,oven,0,1143_tfr_dnn_0_oven_00_oven2-elephant2-144.png
vgg,1,1144,NaN,knife,oven,0,1144_tfr_dnn_0_oven_00_oven2-knife1-216.png
vgg,1,1145,NaN,truck,oven,0,1145_tfr_dnn_0_oven_00_oven2-truck2-180.png
vgg,1,1146,NaN,bottle,oven,0,1146_tfr_dnn_0_oven_00_oven3-bicycle2-0.png
vgg,1,1147,NaN,bird,oven,0,1147_tfr_dnn_0_oven_00_oven3-bird3-0.png
vgg,1,1148,NaN,bottle,oven,0,1148_tfr_dnn_0_oven_00_oven3-bottle2-216.png
vgg,1,1149,NaN,cat,oven,0,1149_tfr_dnn_0_oven_00_oven3-dog3-108.png
vgg,1,1150,NaN,oven,oven,0,1150_tfr_dnn_0_oven_00_oven3-oven2-180.png
vgg,1,1151,NaN,bottle,oven,0,1151_tfr_dnn_0_oven_00_oven3-truck2-288.png
vgg,1,1152,NaN,bear,oven,0,1152_tfr_dnn_0_oven_00_oven4-bear2-288.png
vgg,1,1153,NaN,keyboard,oven,0,1153_tfr_dnn_0_oven_00_oven4-bicycle3-144.png
vgg,1,1154,NaN,knife,oven,0,1154_tfr_dnn_0_oven_00_oven4-bird1-180.png
vgg,1,1155,NaN,knife,oven,0,1155_tfr_dnn_0_oven_00_oven4-car2-108.png
vgg,1,1156,NaN,chair,oven,0,1156_tfr_dnn_0_oven_00_oven4-chair3-0.png
vgg,1,1157,NaN,clock,oven,0,1157_tfr_dnn_0_oven_00_oven4-clock1-288.png
vgg,1,1158,NaN,dog,oven,0,1158_tfr_dnn_0_oven_00_oven4-dog2-0.png
vgg,1,1159,NaN,knife,oven,0,1159_tfr_dnn_0_oven_00_oven4-elephant3-144.png
vgg,1,1160,NaN,keyboard,oven,0,1160_tfr_dnn_0_oven_00_oven4-keyboard3-144.png
vgg,1,1161,NaN,chair,oven,0,1161_tfr_dnn_0_oven_00_oven4-truck2-108.png
vgg,1,1162,NaN,knife,oven,0,1162_tfr_dnn_0_oven_00_oven5-airplane1-324.png
vgg,1,1163,NaN,truck,oven,0,1163_tfr_dnn_0_oven_00_oven5-boat1-216.png
vgg,1,1164,NaN,boat,oven,0,1164_tfr_dnn_0_oven_00_oven5-car1-180.png
vgg,1,1165,NaN,cat,oven,0,1165_tfr_dnn_0_oven_00_oven5-cat3-144.png
vgg,1,1166,NaN,dog,oven,0,1166_tfr_dnn_0_oven_00_oven5-dog3-144.png
vgg,1,1167,NaN,chair,oven,0,1167_tfr_dnn_0_oven_00_oven5-elephant3-108.png
vgg,1,1168,NaN,chair,oven,0,1168_tfr_dnn_0_oven_00_oven5-oven1-288.png
vgg,1,1169,NaN,clock,oven,0,1169_tfr_dnn_0_oven_00_oven6-airplane2-324.png
vgg,1,1170,NaN,dog,oven,0,1170_tfr_dnn_0_oven_00_oven6-bear3-144.png
vgg,1,1171,NaN,dog,oven,0,1171_tfr_dnn_0_oven_00_oven6-bird3-252.png
vgg,1,1172,NaN,bottle,oven,0,1172_tfr_dnn_0_oven_00_oven6-bottle2-288.png
vgg,1,1173,NaN,clock,oven,0,1173_tfr_dnn_0_oven_00_oven6-clock2-108.png
vgg,1,1174,NaN,knife,oven,0,1174_tfr_dnn_0_oven_00_oven7-airplane3-324.png
vgg,1,1175,NaN,chair,oven,0,1175_tfr_dnn_0_oven_00_oven7-bear3-180.png
vgg,1,1176,NaN,chair,oven,0,1176_tfr_dnn_0_oven_00_oven7-bicycle3-216.png
vgg,1,1177,NaN,clock,oven,0,1177_tfr_dnn_0_oven_00_oven7-boat3-108.png
vgg,1,1178,NaN,truck,oven,0,1178_tfr_dnn_0_oven_00_oven7-car1-72.png
vgg,1,1179,NaN,cat,oven,0,1179_tfr_dnn_0_oven_00_oven7-cat2-288.png
vgg,1,1180,NaN,chair,oven,0,1180_tfr_dnn_0_oven_00_oven7-chair3-72.png
vgg,1,1181,NaN,clock,oven,0,1181_tfr_dnn_0_oven_00_oven7-clock2-288.png
vgg,1,1182,NaN,chair,oven,0,1182_tfr_dnn_0_oven_00_oven7-elephant2-108.png
vgg,1,1183,NaN,clock,oven,0,1183_tfr_dnn_0_oven_00_oven7-keyboard3-36.png
vgg,1,1184,NaN,knife,oven,0,1184_tfr_dnn_0_oven_00_oven7-knife2-108.png
vgg,1,1185,NaN,boat,oven,0,1185_tfr_dnn_0_oven_00_oven8-boat1-324.png
vgg,1,1186,NaN,bottle,oven,0,1186_tfr_dnn_0_oven_00_oven8-bottle2-324.png
vgg,1,1187,NaN,cat,oven,0,1187_tfr_dnn_0_oven_00_oven8-cat2-216.png
vgg,1,1188,NaN,clock,oven,0,1188_tfr_dnn_0_oven_00_oven8-clock3-72.png
vgg,1,1189,NaN,keyboard,oven,0,1189_tfr_dnn_0_oven_00_oven8-keyboard2-36.png
vgg,1,1190,NaN,knife,oven,0,1190_tfr_dnn_0_oven_00_oven8-knife1-180.png
vgg,1,1191,NaN,truck,oven,0,1191_tfr_dnn_0_oven_00_oven8-oven3-0.png
vgg,1,1192,NaN,chair,oven,0,1192_tfr_dnn_0_oven_00_oven8-truck3-252.png
vgg,1,1193,NaN,bird,oven,0,1193_tfr_dnn_0_oven_00_oven9-bird2-180.png
vgg,1,1194,NaN,bottle,oven,0,1194_tfr_dnn_0_oven_00_oven9-bottle1-144.png
vgg,1,1195,NaN,bottle,oven,0,1195_tfr_dnn_0_oven_00_oven9-car3-288.png
vgg,1,1196,NaN,cat,oven,0,1196_tfr_dnn_0_oven_00_oven9-cat1-324.png
vgg,1,1197,NaN,chair,oven,0,1197_tfr_dnn_0_oven_00_oven9-chair2-36.png
vgg,1,1198,NaN,clock,oven,0,1198_tfr_dnn_0_oven_00_oven9-keyboard3-72.png
vgg,1,1199,NaN,knife,oven,0,1199_tfr_dnn_0_oven_00_oven9-knife1-144.png
vgg,1,1200,NaN,truck,oven,0,1200_tfr_dnn_0_oven_00_oven9-oven3-288.png
vgg,1,1201,NaN,bicycle,truck,0,1201_tfr_dnn_0_truck_00_truck1-bicycle1-180.png
vgg,1,1202,NaN,knife,truck,0,1202_tfr_dnn_0_truck_00_truck1-bird2-72.png
vgg,1,1203,NaN,bottle,truck,0,1203_tfr_dnn_0_truck_00_truck1-bottle2-252.png
vgg,1,1204,NaN,cat,truck,0,1204_tfr_dnn_0_truck_00_truck1-cat2-72.png
vgg,1,1205,NaN,chair,truck,0,1205_tfr_dnn_0_truck_00_truck1-chair2-36.png
vgg,1,1206,NaN,knife,truck,0,1206_tfr_dnn_0_truck_00_truck1-knife2-0.png
vgg,1,1207,NaN,truck,truck,0,1207_tfr_dnn_0_truck_00_truck1-truck1-144.png
vgg,1,1208,NaN,bird,truck,0,1208_tfr_dnn_0_truck_00_truck10-bird3-252.png
vgg,1,1209,NaN,bottle,truck,0,1209_tfr_dnn_0_truck_00_truck10-bottle1-180.png
vgg,1,1210,NaN,cat,truck,0,1210_tfr_dnn_0_truck_00_truck10-cat1-216.png
vgg,1,1211,NaN,clock,truck,0,1211_tfr_dnn_0_truck_00_truck10-clock1-180.png
vgg,1,1212,NaN,chair,truck,0,1212_tfr_dnn_0_truck_00_truck10-keyboard1-252.png
vgg,1,1213,NaN,knife,truck,0,1213_tfr_dnn_0_truck_00_truck10-knife1-180.png
vgg,1,1214,NaN,airplane,truck,0,1214_tfr_dnn_0_truck_00_truck2-airplane1-216.png
vgg,1,1215,NaN,clock,truck,0,1215_tfr_dnn_0_truck_00_truck2-bicycle3-216.png
vgg,1,1216,NaN,bird,truck,0,1216_tfr_dnn_0_truck_00_truck2-bird3-144.png
vgg,1,1217,NaN,boat,truck,0,1217_tfr_dnn_0_truck_00_truck2-boat2-144.png
vgg,1,1218,NaN,dog,truck,0,1218_tfr_dnn_0_truck_00_truck2-cat3-216.png
vgg,1,1219,NaN,chair,truck,0,1219_tfr_dnn_0_truck_00_truck2-chair1-252.png
vgg,1,1220,NaN,clock,truck,0,1220_tfr_dnn_0_truck_00_truck2-clock1-252.png
vgg,1,1221,NaN,bird,truck,0,1221_tfr_dnn_0_truck_00_truck2-elephant3-180.png
vgg,1,1222,NaN,knife,truck,0,1222_tfr_dnn_0_truck_00_truck3-airplane1-252.png
vgg,1,1223,NaN,chair,truck,0,1223_tfr_dnn_0_truck_00_truck3-bicycle2-180.png
vgg,1,1224,NaN,bird,truck,0,1224_tfr_dnn_0_truck_00_truck3-bird1-216.png
vgg,1,1225,NaN,bird,truck,0,1225_tfr_dnn_0_truck_00_truck3-boat3-180.png
vgg,1,1226,NaN,bottle,truck,0,1226_tfr_dnn_0_truck_00_truck3-bottle3-72.png
vgg,1,1227,NaN,truck,truck,0,1227_tfr_dnn_0_truck_00_truck3-car3-108.png
vgg,1,1228,NaN,chair,truck,0,1228_tfr_dnn_0_truck_00_truck3-chair3-288.png
vgg,1,1229,NaN,clock,truck,0,1229_tfr_dnn_0_truck_00_truck3-clock1-72.png
vgg,1,1230,NaN,dog,truck,0,1230_tfr_dnn_0_truck_00_truck3-dog3-216.png
vgg,1,1231,NaN,keyboard,truck,0,1231_tfr_dnn_0_truck_00_truck3-keyboard3-216.png
vgg,1,1232,NaN,cat,truck,0,1232_tfr_dnn_0_truck_00_truck4-bear1-252.png
vgg,1,1233,NaN,truck,truck,0,1233_tfr_dnn_0_truck_00_truck4-boat3-108.png
vgg,1,1234,NaN,chair,truck,0,1234_tfr_dnn_0_truck_00_truck4-chair2-144.png
vgg,1,1235,NaN,dog,truck,0,1235_tfr_dnn_0_truck_00_truck4-dog1-252.png
vgg,1,1236,NaN,keyboard,truck,0,1236_tfr_dnn_0_truck_00_truck4-oven2-72.png
vgg,1,1237,NaN,truck,truck,0,1237_tfr_dnn_0_truck_00_truck4-truck3-0.png
vgg,1,1238,NaN,chair,truck,0,1238_tfr_dnn_0_truck_00_truck5-airplane2-36.png
vgg,1,1239,NaN,bird,truck,0,1239_tfr_dnn_0_truck_00_truck5-bear3-108.png
vgg,1,1240,NaN,truck,truck,0,1240_tfr_dnn_0_truck_00_truck5-boat2-36.png
vgg,1,1241,NaN,truck,truck,0,1241_tfr_dnn_0_truck_00_truck5-car3-324.png
vgg,1,1242,NaN,dog,truck,0,1242_tfr_dnn_0_truck_00_truck5-cat3-36.png
vgg,1,1243,NaN,dog,truck,0,1243_tfr_dnn_0_truck_00_truck5-dog3-180.png
vgg,1,1244,NaN,knife,truck,0,1244_tfr_dnn_0_truck_00_truck5-elephant3-108.png
vgg,1,1245,NaN,knife,truck,0,1245_tfr_dnn_0_truck_00_truck5-knife3-0.png
vgg,1,1246,NaN,cat,truck,0,1246_tfr_dnn_0_truck_00_truck6-bear1-216.png
vgg,1,1247,NaN,knife,truck,0,1247_tfr_dnn_0_truck_00_truck6-bicycle3-324.png
vgg,1,1248,NaN,bottle,truck,0,1248_tfr_dnn_0_truck_00_truck6-bottle2-144.png
vgg,1,1249,NaN,truck,truck,0,1249_tfr_dnn_0_truck_00_truck6-car2-144.png
vgg,1,1250,NaN,clock,truck,0,1250_tfr_dnn_0_truck_00_truck6-clock1-216.png
vgg,1,1251,NaN,bird,truck,0,1251_tfr_dnn_0_truck_00_truck6-elephant3-72.png
vgg,1,1252,NaN,knife,truck,0,1252_tfr_dnn_0_truck_00_truck6-knife3-216.png
vgg,1,1253,NaN,truck,truck,0,1253_tfr_dnn_0_truck_00_truck6-oven2-0.png
vgg,1,1254,NaN,knife,truck,0,1254_tfr_dnn_0_truck_00_truck6-truck1-216.png
vgg,1,1255,NaN,car,truck,0,1255_tfr_dnn_0_truck_00_truck7-airplane3-180.png
vgg,1,1256,NaN,bird,truck,0,1256_tfr_dnn_0_truck_00_truck7-bear3-252.png
vgg,1,1257,NaN,keyboard,truck,0,1257_tfr_dnn_0_truck_00_truck7-bicycle2-144.png
vgg,1,1258,NaN,bird,truck,0,1258_tfr_dnn_0_truck_00_truck7-bird2-252.png
vgg,1,1259,NaN,dog,truck,0,1259_tfr_dnn_0_truck_00_truck7-dog1-180.png
vgg,1,1260,NaN,dog,truck,0,1260_tfr_dnn_0_truck_00_truck7-elephant2-108.png
vgg,1,1261,NaN,keyboard,truck,0,1261_tfr_dnn_0_truck_00_truck7-keyboard2-144.png
vgg,1,1262,NaN,knife,truck,0,1262_tfr_dnn_0_truck_00_truck7-knife2-324.png
vgg,1,1263,NaN,oven,truck,0,1263_tfr_dnn_0_truck_00_truck7-oven2-216.png
vgg,1,1264,NaN,car,truck,0,1264_tfr_dnn_0_truck_00_truck7-truck2-324.png
vgg,1,1265,NaN,bottle,truck,0,1265_tfr_dnn_0_truck_00_truck8-bottle3-144.png
vgg,1,1266,NaN,car,truck,0,1266_tfr_dnn_0_truck_00_truck8-car1-0.png
vgg,1,1267,NaN,dog,truck,0,1267_tfr_dnn_0_truck_00_truck8-dog1-0.png
vgg,1,1268,NaN,clock,truck,0,1268_tfr_dnn_0_truck_00_truck8-keyboard1-72.png
vgg,1,1269,NaN,chair,truck,0,1269_tfr_dnn_0_truck_00_truck8-oven2-252.png
vgg,1,1270,NaN,chair,truck,0,1270_tfr_dnn_0_truck_00_truck9-airplane3-144.png
vgg,1,1271,NaN,dog,truck,0,1271_tfr_dnn_0_truck_00_truck9-bear3-0.png
vgg,1,1272,NaN,boat,truck,0,1272_tfr_dnn_0_truck_00_truck9-boat2-180.png
vgg,1,1273,NaN,car,truck,0,1273_tfr_dnn_0_truck_00_truck9-car2-288.png
vgg,1,1274,NaN,cat,truck,0,1274_tfr_dnn_0_truck_00_truck9-cat2-252.png
vgg,1,1275,NaN,chair,truck,0,1275_tfr_dnn_0_truck_00_truck9-chair2-288.png
vgg,1,1276,NaN,clock,truck,0,1276_tfr_dnn_0_truck_00_truck9-clock3-0.png
vgg,1,1277,NaN,elephant,truck,0,1277_tfr_dnn_0_truck_00_truck9-elephant1-72.png
vgg,1,1278,NaN,keyboard,truck,0,1278_tfr_dnn_0_truck_00_truck9-keyboard2-108.png
vgg,1,1279,NaN,clock,truck,0,1279_tfr_dnn_0_truck_00_truck9-oven3-180.png
vgg,1,1280,NaN,clock,truck,0,1280_tfr_dnn_0_truck_00_truck9-truck3-252.png
