subj,session,trial,rt,object_response,category,condition,imagename
subject-18,1,1,1.09016704559326,knife,oven,180,0001_tfr_s18_180_oven_00_oven8-knife1.png
subject-18,1,2,0.959666967391968,airplane,airplane,144,0002_tfr_s18_144_airplane_00_airplane1-elephant1.png
subject-18,1,3,0.906867980957031,bicycle,bicycle,144,0003_tfr_s18_144_bicycle_00_bicycle10-car3.png
subject-18,1,4,0.78065299987793,bicycle,bicycle,72,0004_tfr_s18_72_bicycle_00_bicycle7-boat2.png
subject-18,1,5,0.67273211479187,clock,cat,108,0005_tfr_s18_108_cat_00_cat9-bottle1.png
subject-18,1,6,0.826359987258911,bottle,dog,0,0006_tfr_s18_0_dog_00_dog2-bottle2.png
subject-18,1,7,0.863703966140747,bicycle,bird,72,0007_tfr_s18_72_bird_00_bird2-oven2.png
subject-18,1,8,0.76121711730957,chair,chair,36,0008_tfr_s18_36_chair_00_chair7-keyboard3.png
subject-18,1,9,0.977274179458618,bird,bird,252,0009_tfr_s18_252_bird_00_bird10-chair3.png
subject-18,1,10,0.739476919174194,clock,knife,144,0010_tfr_s18_144_knife_00_knife5-cat2.png
subject-18,1,11,0.760640144348145,chair,chair,252,0011_tfr_s18_252_chair_00_chair1-elephant3.png
subject-18,1,12,1.07703399658203,elephant,elephant,36,0012_tfr_s18_36_elephant_00_elephant7-truck3.png
subject-18,1,13,1.04697895050049,chair,chair,36,0013_tfr_s18_36_chair_00_chair9-elephant1.png
subject-18,1,14,0.931423902511597,knife,knife,108,0014_tfr_s18_108_knife_00_knife1-bear1.png
subject-18,1,15,0.85589599609375,airplane,airplane,288,0015_tfr_s18_288_airplane_00_airplane7-airplane1.png
subject-18,1,16,0.918262958526611,airplane,airplane,72,0016_tfr_s18_72_airplane_00_airplane2-bottle2.png
subject-18,1,17,0.756089925765991,bottle,bottle,144,0017_tfr_s18_144_bottle_00_bottle3-knife1.png
subject-18,1,18,0.702699184417725,bicycle,bicycle,0,0018_tfr_s18_0_bicycle_00_bicycle9-clock3.png
subject-18,1,19,0.910346031188965,cat,dog,252,0019_tfr_s18_252_dog_00_dog7-bird1.png
subject-18,1,20,0.940775156021118,knife,keyboard,72,0020_tfr_s18_72_keyboard_00_keyboard7-knife1.png
subject-18,1,21,0.880954027175903,cat,car,252,0021_tfr_s18_252_car_00_car5-cat1.png
subject-18,1,22,1.50020503997803,knife,keyboard,0,0022_tfr_s18_0_keyboard_00_keyboard8-cat3.png
subject-18,1,23,0.990005970001221,knife,dog,216,0023_tfr_s18_216_dog_00_dog1-knife3.png
subject-18,1,24,1.20449495315552,keyboard,truck,144,0024_tfr_s18_144_truck_00_truck7-keyboard2.png
subject-18,1,25,0.829020977020264,elephant,elephant,180,0025_tfr_s18_180_elephant_00_elephant9-truck1.png
subject-18,1,26,1.05860686302185,knife,keyboard,324,0026_tfr_s18_324_keyboard_00_keyboard6-boat2.png
subject-18,1,27,0.928615093231201,chair,chair,252,0027_tfr_s18_252_chair_00_chair5-dog3.png
subject-18,1,28,0.82921314239502,airplane,airplane,324,0028_tfr_s18_324_airplane_00_airplane10-cat3.png
subject-18,1,29,0.96934700012207,elephant,elephant,36,0029_tfr_s18_36_elephant_00_elephant6-bird3.png
subject-18,1,30,1.03743290901184,bottle,bottle,36,0030_tfr_s18_36_bottle_00_bottle5-bird2.png
subject-18,1,31,0.869815111160278,clock,clock,324,0031_tfr_s18_324_clock_00_clock3-boat3.png
subject-18,1,32,0.945770025253296,knife,car,180,0032_tfr_s18_180_car_00_car3-bear1.png
subject-18,1,33,0.808436155319214,keyboard,cat,0,0033_tfr_s18_0_cat_00_cat8-keyboard3.png
subject-18,1,34,1.37695813179016,bird,boat,0,0034_tfr_s18_0_boat_00_boat4-airplane1.png
subject-18,1,35,0.795450210571289,boat,boat,36,0035_tfr_s18_36_boat_00_boat5-bear1.png
subject-18,1,36,0.976242065429688,bird,bird,72,0036_tfr_s18_72_bird_00_bird8-bird2.png
subject-18,1,37,NaN,na,boat,324,0037_tfr_s18_324_boat_00_boat6-oven3.png
subject-18,1,38,0.888731002807617,bicycle,clock,0,0038_tfr_s18_0_clock_00_clock1-bicycle2.png
subject-18,1,39,0.751371145248413,clock,truck,180,0039_tfr_s18_180_truck_00_truck10-clock1.png
subject-18,1,40,0.897494077682495,oven,truck,180,0040_tfr_s18_180_truck_00_truck9-oven3.png
subject-18,1,41,0.776139974594116,oven,clock,216,0041_tfr_s18_216_clock_00_clock7-truck3.png
subject-18,1,42,1.06002998352051,keyboard,clock,108,0042_tfr_s18_108_clock_00_clock8-airplane1.png
subject-18,1,43,0.846295833587646,bottle,keyboard,180,0043_tfr_s18_180_keyboard_00_keyboard4-bottle1.png
subject-18,1,44,1.05226516723633,boat,cat,288,0044_tfr_s18_288_cat_00_cat7-oven2.png
subject-18,1,45,0.954831123352051,car,truck,0,0045_tfr_s18_0_truck_00_truck8-car1.png
subject-18,1,46,1.07632088661194,clock,bear,36,0046_tfr_s18_36_bear_00_bear3-clock3.png
subject-18,1,47,0.768779993057251,chair,keyboard,180,0047_tfr_s18_180_keyboard_00_keyboard9-chair2.png
subject-18,1,48,1.0316059589386,bottle,bottle,108,0048_tfr_s18_108_bottle_00_bottle4-cat1.png
subject-18,1,49,1.04773807525635,chair,chair,252,0049_tfr_s18_252_chair_00_chair6-airplane3.png
subject-18,1,50,0.947771072387695,chair,oven,288,0050_tfr_s18_288_oven_00_oven9-car3.png
subject-18,1,51,0.915817022323608,bear,bear,0,0051_tfr_s18_0_bear_00_bear5-oven1.png
subject-18,1,52,0.962321043014526,cat,boat,216,0052_tfr_s18_216_boat_00_boat8-bicycle1.png
subject-18,1,53,1.11610698699951,bird,dog,36,0053_tfr_s18_36_dog_00_dog6-car2.png
subject-18,1,54,0.894167900085449,bicycle,bicycle,216,0054_tfr_s18_216_bicycle_00_bicycle6-elephant1.png
subject-18,1,55,0.74844217300415,boat,boat,72,0055_tfr_s18_72_boat_00_boat7-bird3.png
subject-18,1,56,0.856748104095459,chair,chair,252,0056_tfr_s18_252_chair_00_chair3-keyboard1.png
subject-18,1,57,0.740057945251465,clock,knife,36,0057_tfr_s18_36_knife_00_knife2-clock1.png
subject-18,1,58,0.724602937698364,boat,car,288,0058_tfr_s18_288_car_00_car2-dog1.png
subject-18,1,59,1.12522292137146,keyboard,car,180,0059_tfr_s18_180_car_00_car4-chair3.png
subject-18,1,60,1.04182696342468,bicycle,bicycle,108,0060_tfr_s18_108_bicycle_00_bicycle5-bicycle1.png
subject-18,1,61,0.987901926040649,bear,elephant,216,0061_tfr_s18_216_elephant_00_elephant4-oven2.png
subject-18,1,62,0.803788900375366,bottle,bottle,72,0062_tfr_s18_72_bottle_00_bottle1-oven3.png
subject-18,1,63,1.14210200309753,boat,clock,108,0063_tfr_s18_108_clock_00_clock9-car2.png
subject-18,1,64,1.02673888206482,cat,dog,180,0064_tfr_s18_180_dog_00_dog5-oven1.png
subject-18,1,65,0.934828996658325,clock,boat,324,0065_tfr_s18_324_boat_00_boat10-bird1.png
subject-18,1,66,1.28918981552124,cat,bear,252,0066_tfr_s18_252_bear_00_bear1-dog2.png
subject-18,1,67,0.83539605140686,cat,knife,72,0067_tfr_s18_72_knife_00_knife6-elephant3.png
subject-18,1,68,0.981789112091064,bird,bird,252,0068_tfr_s18_252_bird_00_bird9-boat2.png
subject-18,1,69,0.882456064224243,bird,car,0,0069_tfr_s18_0_car_00_car9-bird2.png
subject-18,1,70,1.26876401901245,dog,cat,72,0070_tfr_s18_72_cat_00_cat3-bicycle3.png
subject-18,1,71,0.945460081100464,bicycle,boat,36,0071_tfr_s18_36_boat_00_boat3-bicycle2.png
subject-18,1,72,1.03973793983459,knife,knife,108,0072_tfr_s18_108_knife_00_knife8-car1.png
subject-18,1,73,0.986495018005371,knife,truck,108,0073_tfr_s18_108_truck_00_truck5-bear3.png
subject-18,1,74,0.971128940582275,chair,chair,0,0074_tfr_s18_0_chair_00_chair10-boat1.png
subject-18,1,75,0.925509929656982,boat,boat,36,0075_tfr_s18_36_boat_00_boat9-cat3.png
subject-18,1,76,1.22580289840698,bear,elephant,180,0076_tfr_s18_180_elephant_00_elephant10-cat2.png
subject-18,1,77,0.916563034057617,bicycle,bicycle,252,0077_tfr_s18_252_bicycle_00_bicycle4-clock3.png
subject-18,1,78,1.13905215263367,elephant,elephant,36,0078_tfr_s18_36_elephant_00_elephant1-cat1.png
subject-18,1,79,0.793823003768921,car,oven,0,0079_tfr_s18_0_oven_00_oven10-car3.png
subject-18,1,80,1.30218100547791,knife,boat,216,0080_tfr_s18_216_boat_00_boat2-bottle2.png
subject-18,1,81,1.11062788963318,airplane,airplane,72,0081_tfr_s18_72_airplane_00_airplane5-oven1.png
subject-18,1,82,1.04143285751343,cat,cat,108,0082_tfr_s18_108_cat_00_cat1-dog1.png
subject-18,1,83,1.1357581615448,bottle,truck,144,0083_tfr_s18_144_truck_00_truck6-bottle2.png
subject-18,1,84,0.858441829681396,boat,bear,108,0084_tfr_s18_108_bear_00_bear10-truck3.png
subject-18,1,85,0.790328025817871,airplane,airplane,36,0085_tfr_s18_36_airplane_00_airplane6-airplane3.png
subject-18,1,86,0.912641048431396,cat,bear,180,0086_tfr_s18_180_bear_00_bear6-dog2.png
subject-18,1,87,0.966933965682983,knife,knife,216,0087_tfr_s18_216_knife_00_knife4-car3.png
subject-18,1,88,NaN,na,clock,216,0088_tfr_s18_216_clock_00_clock4-bicycle3.png
subject-18,1,89,1.26994681358337,bottle,keyboard,0,0089_tfr_s18_0_keyboard_00_keyboard2-bottle1.png
subject-18,1,90,0.826052188873291,bottle,elephant,180,0090_tfr_s18_180_elephant_00_elephant2-truck2.png
subject-18,1,91,0.620800971984863,cat,cat,180,0091_tfr_s18_180_cat_00_cat6-bird3.png
subject-18,1,92,0.673215866088867,clock,oven,180,0092_tfr_s18_180_oven_00_oven1-elephant3.png
subject-18,1,93,0.733824014663696,bottle,bottle,216,0093_tfr_s18_216_bottle_00_bottle7-airplane2.png
subject-18,1,94,1.16620993614197,dog,dog,324,0094_tfr_s18_324_dog_00_dog8-cat2.png
subject-18,1,95,0.912447929382324,elephant,elephant,144,0095_tfr_s18_144_elephant_00_elephant5-chair2.png
subject-18,1,96,0.843005895614624,car,keyboard,216,0096_tfr_s18_216_keyboard_00_keyboard10-car1.png
subject-18,1,97,1.13485097885132,cat,boat,216,0097_tfr_s18_216_boat_00_boat1-elephant2.png
subject-18,1,98,0.743094205856323,cat,cat,216,0098_tfr_s18_216_cat_00_cat4-oven3.png
subject-18,1,99,0.897486925125122,keyboard,car,216,0099_tfr_s18_216_car_00_car7-chair3.png
subject-18,1,100,0.844305038452148,cat,airplane,0,0100_tfr_s18_0_airplane_00_airplane8-oven3.png
subject-18,1,101,0.728215217590332,boat,car,108,0101_tfr_s18_108_car_00_car6-boat3.png
subject-18,1,102,0.874987125396729,bear,oven,216,0102_tfr_s18_216_oven_00_oven2-bear2.png
subject-18,1,103,1.12839388847351,elephant,elephant,252,0103_tfr_s18_252_elephant_00_elephant8-elephant1.png
subject-18,1,104,0.799008131027222,knife,knife,288,0104_tfr_s18_288_knife_00_knife9-elephant1.png
subject-18,1,105,0.983515977859497,bird,truck,144,0105_tfr_s18_144_truck_00_truck2-bird3.png
subject-18,1,106,0.997950077056885,bear,truck,252,0106_tfr_s18_252_truck_00_truck4-dog1.png
subject-18,1,107,0.738240003585815,bottle,bottle,324,0107_tfr_s18_324_bottle_00_bottle10-clock2.png
subject-18,1,108,0.930468082427979,cat,cat,252,0108_tfr_s18_252_cat_00_cat2-bicycle1.png
subject-18,1,109,0.998809099197388,knife,knife,0,0109_tfr_s18_0_knife_00_knife10-airplane3.png
subject-18,1,110,0.991383075714111,airplane,clock,324,0110_tfr_s18_324_clock_00_clock2-airplane1.png
subject-18,1,111,0.807925939559937,boat,oven,180,0111_tfr_s18_180_oven_00_oven3-oven2.png
subject-18,1,112,0.708222150802612,bicycle,bicycle,144,0112_tfr_s18_144_bicycle_00_bicycle3-bear2.png
subject-18,1,113,1.05438303947449,knife,knife,216,0113_tfr_s18_216_knife_00_knife7-bird2.png
subject-18,1,114,0.801084995269775,cat,dog,288,0114_tfr_s18_288_dog_00_dog4-knife3.png
subject-18,1,115,0.901437044143677,car,bear,72,0115_tfr_s18_72_bear_00_bear7-airplane3.png
subject-18,1,116,0.847959995269775,cat,bear,144,0116_tfr_s18_144_bear_00_bear9-oven1.png
subject-18,1,117,0.870177030563354,airplane,airplane,216,0117_tfr_s18_216_airplane_00_airplane9-cat3.png
subject-18,1,118,0.908508062362671,cat,keyboard,108,0118_tfr_s18_108_keyboard_00_keyboard5-elephant3.png
subject-18,1,119,1.00901913642883,bird,bird,144,0119_tfr_s18_144_bird_00_bird7-clock1.png
subject-18,1,120,0.809169054031372,bottle,bottle,144,0120_tfr_s18_144_bottle_00_bottle6-elephant2.png
subject-18,1,121,0.701479196548462,bicycle,bicycle,36,0121_tfr_s18_36_bicycle_00_bicycle2-oven3.png
subject-18,1,122,0.726081132888794,oven,clock,108,0122_tfr_s18_108_clock_00_clock5-boat1.png
subject-18,1,123,0.818315029144287,knife,knife,216,0123_tfr_s18_216_knife_00_knife3-bottle3.png
subject-18,1,124,0.949380159378052,bicycle,bicycle,180,0124_tfr_s18_180_bicycle_00_bicycle1-elephant1.png
subject-18,1,125,0.795406818389893,oven,oven,144,0125_tfr_s18_144_oven_00_oven4-elephant3.png
subject-18,1,126,0.91670298576355,clock,clock,144,0126_tfr_s18_144_clock_00_clock10-bicycle3.png
subject-18,1,127,0.887001991271973,knife,bird,72,0127_tfr_s18_72_bird_00_bird6-truck1.png
subject-18,1,128,0.99379301071167,boat,oven,180,0128_tfr_s18_180_oven_00_oven5-car1.png
subject-18,1,129,0.777987957000732,cat,clock,216,0129_tfr_s18_216_clock_00_clock6-bear3.png
subject-18,1,130,1.11304211616516,bicycle,car,252,0130_tfr_s18_252_car_00_car1-bicycle3.png
subject-18,1,131,1.16719603538513,bear,truck,72,0131_tfr_s18_72_truck_00_truck1-cat2.png
subject-18,1,132,0.975450038909912,airplane,airplane,36,0132_tfr_s18_36_airplane_00_airplane3-boat2.png
subject-18,1,133,0.821547985076904,bottle,bottle,144,0133_tfr_s18_144_bottle_00_bottle9-car1.png
subject-18,1,134,0.936039924621582,bottle,cat,72,0134_tfr_s18_72_cat_00_cat10-bird1.png
subject-18,1,135,1.37668991088867,dog,dog,288,0135_tfr_s18_288_dog_00_dog10-bird3.png
subject-18,1,136,1.13676881790161,chair,chair,144,0136_tfr_s18_144_chair_00_chair8-keyboard1.png
subject-18,1,137,0.982990980148315,bear,bear,288,0137_tfr_s18_288_bear_00_bear4-bicycle3.png
subject-18,1,138,0.767298936843872,cat,oven,324,0138_tfr_s18_324_oven_00_oven6-airplane2.png
subject-18,1,139,0.69989800453186,oven,oven,72,0139_tfr_s18_72_oven_00_oven7-chair3.png
subject-18,1,140,0.998187065124512,bird,bird,108,0140_tfr_s18_108_bird_00_bird5-bottle2.png
subject-18,1,141,1.00681686401367,keyboard,car,144,0141_tfr_s18_144_car_00_car8-oven3.png
subject-18,1,142,0.845367908477783,chair,chair,0,0142_tfr_s18_0_chair_00_chair4-oven2.png
subject-18,1,143,0.861684083938599,knife,keyboard,72,0143_tfr_s18_72_keyboard_00_keyboard3-keyboard3.png
subject-18,1,144,0.761989116668701,bottle,bear,36,0144_tfr_s18_36_bear_00_bear8-bottle3.png
subject-18,1,145,0.784296035766602,clock,bottle,108,0145_tfr_s18_108_bottle_00_bottle8-clock2.png
subject-18,1,146,0.830533981323242,cat,dog,324,0146_tfr_s18_324_dog_00_dog3-bear3.png
subject-18,1,147,0.800408124923706,car,cat,252,0147_tfr_s18_252_cat_00_cat5-car1.png
subject-18,1,148,0.714648008346558,clock,keyboard,216,0148_tfr_s18_216_keyboard_00_keyboard1-bird3.png
subject-18,1,149,0.907388925552368,bottle,car,108,0149_tfr_s18_108_car_00_car10-airplane3.png
subject-18,1,150,0.829674959182739,cat,bear,324,0150_tfr_s18_324_bear_00_bear2-oven2.png
subject-18,1,151,0.71589994430542,clock,bird,0,0151_tfr_s18_0_bird_00_bird1-clock1.png
subject-18,1,152,0.768302917480469,bottle,bottle,72,0152_tfr_s18_72_bottle_00_bottle2-elephant1.png
subject-18,1,153,0.822168827056885,chair,chair,144,0153_tfr_s18_144_chair_00_chair2-truck2.png
subject-18,1,154,1.0226891040802,bird,bird,108,0154_tfr_s18_108_bird_00_bird3-bear2.png
subject-18,1,155,0.952971935272217,elephant,elephant,108,0155_tfr_s18_108_elephant_00_elephant3-knife2.png
subject-18,1,156,0.950622081756592,airplane,airplane,0,0156_tfr_s18_0_airplane_00_airplane4-bear3.png
subject-18,1,157,1.27313899993896,dog,dog,0,0157_tfr_s18_0_dog_00_dog9-bear1.png
subject-18,1,158,0.84319806098938,keyboard,truck,288,0158_tfr_s18_288_truck_00_truck3-chair3.png
subject-18,1,159,0.851291179656982,bicycle,bicycle,216,0159_tfr_s18_216_bicycle_00_bicycle8-bicycle2.png
subject-18,1,160,1.15194702148438,boat,bird,216,0160_tfr_s18_216_bird_00_bird4-knife1.png
