subj,session,trial,rt,object_response,category,condition,imagename
subject-01,1,1,0.790414810180664,bottle,bottle,pow,0001_pow_s01_pow_bottle_35_n03983396_9695.png
subject-01,1,2,0.751901865005493,elephant,elephant,0,0002_pow_s01_0_elephant_35_n02504013_6141.png
subject-01,1,3,0.719691038131714,oven,oven,pow,0003_pow_s01_pow_oven_35_n04111531_892.png
subject-01,1,4,0.879903078079224,truck,truck,0,0004_pow_s01_0_truck_35_n04467665_57697.png
subject-01,1,5,0.772341966629028,boat,boat,pow,0005_pow_s01_pow_boat_35_n04612504_857.png
subject-01,1,6,0.940447092056274,boat,bear,0,0006_pow_s01_0_bear_35_n02134084_13029.png
subject-01,1,7,0.740814924240112,elephant,elephant,pow,0007_pow_s01_pow_elephant_35_n02504013_8534.png
subject-01,1,8,0.871114015579224,bicycle,bicycle,0,0008_pow_s01_0_bicycle_35_n03792782_70690.png
subject-01,1,9,1.03169894218445,knife,keyboard,pow,0009_pow_s01_pow_keyboard_35_n03085013_19416.png
subject-01,1,10,0.701861143112183,oven,oven,pow,0010_pow_s01_pow_oven_35_n04111531_11405.png
subject-01,1,11,0.561558961868286,car,car,0,0011_pow_s01_0_car_35_n03100240_9150.png
subject-01,1,12,0.76688289642334,bicycle,bicycle,0,0012_pow_s01_0_bicycle_35_n03792782_2435.png
subject-01,1,13,0.742214918136597,cat,cat,0,0013_pow_s01_0_cat_35_n02123394_593.png
subject-01,1,14,0.894476890563965,bird,bird,0,0014_pow_s01_0_bird_35_n01537544_292.png
subject-01,1,15,1.21550107002258,keyboard,keyboard,0,0015_pow_s01_0_keyboard_35_n03085013_10659.png
subject-01,1,16,1.26985812187195,keyboard,keyboard,0,0016_pow_s01_0_keyboard_35_n03085013_3656.png
subject-01,1,17,0.646929979324341,clock,clock,0,0017_pow_s01_0_clock_35_n02708093_2498.png
subject-01,1,18,0.58424711227417,cat,cat,0,0018_pow_s01_0_cat_35_n02125311_53223.png
subject-01,1,19,0.606603860855103,boat,boat,0,0019_pow_s01_0_boat_35_n02951358_5718.png
subject-01,1,20,0.637006044387817,oven,oven,pow,0020_pow_s01_pow_oven_35_n04111531_18949.png
subject-01,1,21,0.736653089523315,cat,cat,pow,0021_pow_s01_pow_cat_35_n02125311_40746.png
subject-01,1,22,0.658634185791016,clock,clock,0,0022_pow_s01_0_clock_35_n03196217_5300.png
subject-01,1,23,1.104651927948,keyboard,keyboard,pow,0023_pow_s01_pow_keyboard_35_n03085013_22386.png
subject-01,1,24,0.680783033370972,clock,clock,pow,0024_pow_s01_pow_clock_35_n02708093_6.png
subject-01,1,25,0.573356866836548,boat,boat,pow,0025_pow_s01_pow_boat_35_n04273569_23293.png
subject-01,1,26,0.703706979751587,truck,truck,0,0026_pow_s01_0_truck_35_n04467665_7290.png
subject-01,1,27,0.833797931671143,car,car,pow,0027_pow_s01_pow_car_35_n02814533_40913.png
subject-01,1,28,0.663934946060181,chair,chair,0,0028_pow_s01_0_chair_35_n03376595_6240.png
subject-01,1,29,0.850392818450928,dog,dog,pow,0029_pow_s01_pow_dog_35_n02108000_6061.png
subject-01,1,30,0.886157989501953,knife,knife,pow,0030_pow_s01_pow_knife_35_n03041632_46103.png
subject-01,1,31,0.700285196304321,bottle,bottle,pow,0031_pow_s01_pow_bottle_35_n04591713_3402.png
subject-01,1,32,0.508436918258667,cat,cat,0,0032_pow_s01_0_cat_35_n02124075_13663.png
subject-01,1,33,0.751394987106323,airplane,airplane,0,0033_pow_s01_0_airplane_35_n02690373_5126.png
subject-01,1,34,0.659591913223267,clock,clock,0,0034_pow_s01_0_clock_35_n04548280_183.png
subject-01,1,35,0.706466913223267,keyboard,keyboard,0,0035_pow_s01_0_keyboard_35_n03085013_24449.png
subject-01,1,36,0.803960084915161,dog,dog,pow,0036_pow_s01_pow_dog_35_n02105855_3310.png
subject-01,1,37,1.18342399597168,car,car,pow,0037_pow_s01_pow_car_35_n02814533_95669.png
subject-01,1,38,0.690818071365356,bicycle,bicycle,0,0038_pow_s01_0_bicycle_35_n02835271_24131.png
subject-01,1,39,0.517996072769165,boat,boat,0,0039_pow_s01_0_boat_35_n03344393_12983.png
subject-01,1,40,0.634682893753052,bird,bird,0,0040_pow_s01_0_bird_35_n02027492_7770.png
subject-01,1,41,0.773448944091797,clock,clock,pow,0041_pow_s01_pow_clock_35_n02708093_384.png
subject-01,1,42,0.770808935165405,knife,knife,0,0042_pow_s01_0_knife_35_n03041632_30196.png
subject-01,1,43,0.679244995117188,airplane,airplane,pow,0043_pow_s01_pow_airplane_35_n02690373_5465.png
subject-01,1,44,0.68743896484375,car,car,0,0044_pow_s01_0_car_35_n02814533_35174.png
subject-01,1,45,0.639158964157104,airplane,airplane,pow,0045_pow_s01_pow_airplane_35_n02690373_10931.png
subject-01,1,46,0.623257160186768,bottle,bottle,0,0046_pow_s01_0_bottle_35_n03983396_13698.png
subject-01,1,47,0.515300035476685,boat,boat,pow,0047_pow_s01_pow_boat_35_n03344393_8258.png
subject-01,1,48,0.708064079284668,dog,dog,0,0048_pow_s01_0_dog_35_n02109961_66260.png
subject-01,1,49,0.753702878952026,bottle,bottle,pow,0049_pow_s01_pow_bottle_35_n04557648_9790.png
subject-01,1,50,0.990002155303955,dog,bird,0,0050_pow_s01_0_bird_35_n01820546_9729.png
subject-01,1,51,0.584195852279663,truck,truck,0,0051_pow_s01_0_truck_35_n03796401_10878.png
subject-01,1,52,0.882475137710571,keyboard,keyboard,0,0052_pow_s01_0_keyboard_35_n04505470_8828.png
subject-01,1,53,0.753007173538208,truck,truck,0,0053_pow_s01_0_truck_35_n03796401_322.png
subject-01,1,54,0.628947973251343,airplane,airplane,0,0054_pow_s01_0_airplane_35_n02690373_8560.png
subject-01,1,55,0.714432001113892,bicycle,bicycle,pow,0055_pow_s01_pow_bicycle_35_n03792782_1715.png
subject-01,1,56,1.01499009132385,cat,dog,0,0056_pow_s01_0_dog_35_n02091032_250.png
subject-01,1,57,0.630378007888794,cat,cat,pow,0057_pow_s01_pow_cat_35_n02123159_7465.png
subject-01,1,58,0.760731935501099,chair,chair,pow,0058_pow_s01_pow_chair_35_n04099969_7934.png
subject-01,1,59,0.99898886680603,dog,dog,0,0059_pow_s01_0_dog_35_n02088632_2321.png
subject-01,1,60,0.660802841186523,chair,chair,0,0060_pow_s01_0_chair_35_n04099969_2113.png
subject-01,1,61,1.05983400344849,airplane,boat,pow,0061_pow_s01_pow_boat_35_n03662601_7642.png
subject-01,1,62,0.69235897064209,bear,bear,0,0062_pow_s01_0_bear_35_n02134418_559.png
subject-01,1,63,1.14377999305725,bird,bird,0,0063_pow_s01_0_bird_35_n01833805_16468.png
subject-01,1,64,0.882143020629883,knife,knife,pow,0064_pow_s01_pow_knife_35_n03041632_32292.png
subject-01,1,65,0.882962942123413,bottle,bottle,pow,0065_pow_s01_pow_bottle_35_n03937543_5625.png
subject-01,1,66,0.936616897583008,bottle,keyboard,pow,0066_pow_s01_pow_keyboard_35_n04505470_4761.png
subject-01,1,67,0.707396984100342,car,car,0,0067_pow_s01_0_car_35_n02814533_79224.png
subject-01,1,68,0.713831901550293,bicycle,bicycle,0,0068_pow_s01_0_bicycle_35_n03792782_68319.png
subject-01,1,69,0.789566993713379,clock,clock,pow,0069_pow_s01_pow_clock_35_n02708093_2546.png
subject-01,1,70,0.620096921920776,bicycle,bicycle,pow,0070_pow_s01_pow_bicycle_35_n02835271_20149.png
subject-01,1,71,0.612276792526245,bear,bear,0,0071_pow_s01_0_bear_35_n02134418_10576.png
subject-01,1,72,0.741269826889038,bear,bear,0,0072_pow_s01_0_bear_35_n02134084_13205.png
subject-01,1,73,0.626360893249512,cat,elephant,pow,0073_pow_s01_pow_elephant_35_n02504013_7467.png
subject-01,1,74,0.750968217849731,knife,knife,pow,0074_pow_s01_pow_knife_35_n03041632_29276.png
subject-01,1,75,0.618391990661621,elephant,elephant,pow,0075_pow_s01_pow_elephant_35_n02504458_3616.png
subject-01,1,76,0.8646399974823,bicycle,bicycle,0,0076_pow_s01_0_bicycle_35_n03792782_3333.png
subject-01,1,77,0.765496969223022,airplane,airplane,0,0077_pow_s01_0_airplane_35_n02690373_7281.png
subject-01,1,78,1.47961497306824,oven,bottle,pow,0078_pow_s01_pow_bottle_35_n04557648_85.png
subject-01,1,79,0.988806009292603,clock,clock,pow,0079_pow_s01_pow_clock_35_n04548280_6792.png
subject-01,1,80,0.810532808303833,knife,knife,0,0080_pow_s01_0_knife_35_n03041632_34769.png
subject-01,1,81,0.649336099624634,bicycle,bicycle,0,0081_pow_s01_0_bicycle_35_n03792782_12751.png
subject-01,1,82,0.6959228515625,dog,dog,pow,0082_pow_s01_pow_dog_35_n02094258_794.png
subject-01,1,83,0.79544997215271,clock,clock,pow,0083_pow_s01_pow_clock_35_n04548280_1106.png
subject-01,1,84,0.657953977584839,knife,knife,0,0084_pow_s01_0_knife_35_n03041632_20504.png
subject-01,1,85,0.69626784324646,cat,cat,0,0085_pow_s01_0_cat_35_n02123597_14639.png
subject-01,1,86,0.647582054138184,truck,truck,0,0086_pow_s01_0_truck_35_n03417042_9023.png
subject-01,1,87,0.878377914428711,chair,chair,0,0087_pow_s01_0_chair_35_n04099969_114.png
subject-01,1,88,0.632540941238403,bottle,bottle,0,0088_pow_s01_0_bottle_35_n03983396_11632.png
subject-01,1,89,0.638266086578369,bottle,bottle,pow,0089_pow_s01_pow_bottle_35_n02823428_5374.png
subject-01,1,90,0.862837076187134,chair,chair,0,0090_pow_s01_0_chair_35_n04099969_5364.png
subject-01,1,91,0.622671842575073,cat,cat,0,0091_pow_s01_0_cat_35_n02123045_939.png
subject-01,1,92,0.738579988479614,truck,truck,0,0092_pow_s01_0_truck_35_n04467665_3714.png
subject-01,1,93,0.930980920791626,boat,boat,pow,0093_pow_s01_pow_boat_35_n04612504_3064.png
subject-01,1,94,1.14615297317505,clock,clock,pow,0094_pow_s01_pow_clock_35_n03196217_2859.png
subject-01,1,95,0.808467864990234,bear,bear,pow,0095_pow_s01_pow_bear_35_n02132136_15462.png
subject-01,1,96,1.12255120277405,car,car,0,0096_pow_s01_0_car_35_n02814533_1297.png
subject-01,1,97,0.960557222366333,car,airplane,pow,0097_pow_s01_pow_airplane_35_n02690373_5149.png
subject-01,1,98,1.41197800636292,dog,dog,0,0098_pow_s01_0_dog_35_n02107683_1934.png
subject-01,1,99,0.607039928436279,clock,clock,0,0099_pow_s01_0_clock_35_n03196217_713.png
subject-01,1,100,0.652940988540649,car,car,pow,0100_pow_s01_pow_car_35_n02814533_96695.png
subject-01,1,101,0.62124490737915,bicycle,bicycle,0,0101_pow_s01_0_bicycle_35_n02835271_19875.png
subject-01,1,102,0.967700004577637,clock,oven,0,0102_pow_s01_0_oven_35_n04111531_807.png
subject-01,1,103,0.705228090286255,keyboard,keyboard,pow,0103_pow_s01_pow_keyboard_35_n03085013_6432.png
subject-01,1,104,0.5225670337677,oven,oven,0,0104_pow_s01_0_oven_35_n04111531_14903.png
subject-01,1,105,0.768310785293579,airplane,airplane,0,0105_pow_s01_0_airplane_35_n02690373_10129.png
subject-01,1,106,0.69884991645813,knife,knife,0,0106_pow_s01_0_knife_35_n03041632_44238.png
subject-01,1,107,0.766947031021118,car,car,0,0107_pow_s01_0_car_35_n02814533_75419.png
subject-01,1,108,0.713558912277222,elephant,elephant,pow,0108_pow_s01_pow_elephant_35_n02504013_7309.png
subject-01,1,109,0.805490016937256,bicycle,bicycle,0,0109_pow_s01_0_bicycle_35_n02835271_8017.png
subject-01,1,110,0.635525941848755,oven,knife,0,0110_pow_s01_0_knife_35_n03041632_37274.png
subject-01,1,111,0.668692111968994,cat,cat,0,0111_pow_s01_0_cat_35_n02123394_1899.png
subject-01,1,112,0.952371120452881,bird,bird,0,0112_pow_s01_0_bird_35_n01855672_55167.png
subject-01,1,113,0.998923063278198,truck,truck,pow,0113_pow_s01_pow_truck_35_n03796401_9105.png
subject-01,1,114,1.15895485877991,airplane,airplane,0,0114_pow_s01_0_airplane_35_n02690373_10404.png
subject-01,1,115,0.888491153717041,clock,clock,0,0115_pow_s01_0_clock_35_n03196217_4879.png
subject-01,1,116,1.01373815536499,knife,knife,0,0116_pow_s01_0_knife_35_n03041632_13424.png
subject-01,1,117,0.96558690071106,keyboard,keyboard,pow,0117_pow_s01_pow_keyboard_35_n04505470_1253.png
subject-01,1,118,0.827811002731323,clock,clock,pow,0118_pow_s01_pow_clock_35_n03196217_3647.png
subject-01,1,119,1.04173398017883,airplane,airplane,0,0119_pow_s01_0_airplane_35_n02690373_3493.png
subject-01,1,120,1.2561628818512,knife,knife,pow,0120_pow_s01_pow_knife_35_n03041632_85416.png
subject-01,1,121,0.571762084960938,oven,oven,0,0121_pow_s01_0_oven_35_n04111531_15852.png
subject-01,1,122,0.734133005142212,car,car,pow,0122_pow_s01_pow_car_35_n02814533_874.png
subject-01,1,123,0.680600881576538,bottle,bottle,0,0123_pow_s01_0_bottle_35_n03937543_5567.png
subject-01,1,124,0.632797002792358,bird,bird,pow,0124_pow_s01_pow_bird_35_n01860187_486.png
subject-01,1,125,0.724962949752808,cat,bear,0,0125_pow_s01_0_bear_35_n02132136_8033.png
subject-01,1,126,0.778566122055054,bicycle,bicycle,0,0126_pow_s01_0_bicycle_35_n02835271_3256.png
subject-01,1,127,1.16369891166687,cat,dog,pow,0127_pow_s01_pow_dog_35_n02111129_513.png
subject-01,1,128,0.948119878768921,bird,elephant,pow,0128_pow_s01_pow_elephant_35_n02504013_482.png
subject-01,1,129,0.877585887908936,chair,chair,pow,0129_pow_s01_pow_chair_35_n04099969_5577.png
subject-01,1,130,0.731688022613525,bear,bear,0,0130_pow_s01_0_bear_35_n02134418_2547.png
subject-01,1,131,0.554292917251587,oven,oven,pow,0131_pow_s01_pow_oven_35_n04111531_4407.png
subject-01,1,132,0.686548948287964,knife,knife,0,0132_pow_s01_0_knife_35_n03041632_21560.png
subject-01,1,133,0.600483894348145,airplane,airplane,0,0133_pow_s01_0_airplane_35_n02690373_4873.png
subject-01,1,134,0.585447072982788,chair,chair,0,0134_pow_s01_0_chair_35_n04099969_15676.png
subject-01,1,135,0.72168493270874,elephant,elephant,0,0135_pow_s01_0_elephant_35_n02504013_891.png
subject-01,1,136,1.26647901535034,truck,truck,0,0136_pow_s01_0_truck_35_n03417042_4934.png
subject-01,1,137,0.521292924880981,cat,cat,0,0137_pow_s01_0_cat_35_n02123045_12010.png
subject-01,1,138,1.1138641834259,oven,chair,0,0138_pow_s01_0_chair_35_n04429376_24073.png
subject-01,1,139,0.737603902816772,bicycle,bicycle,pow,0139_pow_s01_pow_bicycle_35_n03792782_5034.png
subject-01,1,140,0.635948896408081,airplane,airplane,pow,0140_pow_s01_pow_airplane_35_n02690373_6231.png
subject-01,1,141,0.927661895751953,elephant,bear,pow,0141_pow_s01_pow_bear_35_n02134418_904.png
subject-01,1,142,1.31243896484375,elephant,truck,pow,0142_pow_s01_pow_truck_35_n03417042_1479.png
subject-01,1,143,0.644608020782471,keyboard,keyboard,pow,0143_pow_s01_pow_keyboard_35_n03085013_20882.png
subject-01,1,144,0.566897869110107,clock,clock,0,0144_pow_s01_0_clock_35_n02708093_3509.png
subject-01,1,145,0.788589000701904,chair,chair,pow,0145_pow_s01_pow_chair_35_n03376595_9651.png
subject-01,1,146,0.85165810585022,chair,chair,0,0146_pow_s01_0_chair_35_n03376595_9653.png
subject-01,1,147,0.827404022216797,knife,knife,pow,0147_pow_s01_pow_knife_35_n03041632_21818.png
subject-01,1,148,0.819628000259399,bear,bear,pow,0148_pow_s01_pow_bear_35_n02134418_1826.png
subject-01,1,149,1.07425904273987,car,bear,0,0149_pow_s01_0_bear_35_n02132136_10654.png
subject-01,1,150,0.825793981552124,chair,chair,pow,0150_pow_s01_pow_chair_35_n04099969_24041.png
subject-01,1,151,0.764842987060547,bear,bear,0,0151_pow_s01_0_bear_35_n02132136_23202.png
subject-01,1,152,0.76426100730896,car,car,0,0152_pow_s01_0_car_35_n04285008_4749.png
subject-01,1,153,0.611129999160767,car,car,0,0153_pow_s01_0_car_35_n04285008_7870.png
subject-01,1,154,0.811141967773438,elephant,elephant,0,0154_pow_s01_0_elephant_35_n02504458_3250.png
subject-01,1,155,1.05692100524902,elephant,oven,pow,0155_pow_s01_pow_oven_35_n04111531_7283.png
subject-01,1,156,0.611415863037109,airplane,airplane,0,0156_pow_s01_0_airplane_35_n02690373_5714.png
subject-01,1,157,0.871758937835693,clock,clock,pow,0157_pow_s01_pow_clock_35_n04548280_17907.png
subject-01,1,158,0.710159063339233,car,car,0,0158_pow_s01_0_car_35_n04285008_16647.png
subject-01,1,159,0.755428075790405,keyboard,keyboard,0,0159_pow_s01_0_keyboard_35_n03085013_7858.png
subject-01,1,160,0.731905937194824,car,car,pow,0160_pow_s01_pow_car_35_n04285008_8443.png
subject-01,1,161,0.653279066085815,car,car,0,0161_pow_s01_0_car_35_n03100240_18756.png
subject-01,1,162,0.661529064178467,elephant,elephant,0,0162_pow_s01_0_elephant_35_n02504458_7302.png
subject-01,1,163,0.567374229431152,bird,bird,0,0163_pow_s01_0_bird_35_n01534433_4900.png
subject-01,1,164,0.622477054595947,cat,cat,0,0164_pow_s01_0_cat_35_n02125311_20179.png
subject-01,1,165,1.0903000831604,chair,chair,pow,0165_pow_s01_pow_chair_35_n03376595_9048.png
subject-01,1,166,0.743605136871338,car,car,0,0166_pow_s01_0_car_35_n02814533_93487.png
subject-01,1,167,0.720101833343506,truck,truck,pow,0167_pow_s01_pow_truck_35_n03796401_3618.png
subject-01,1,168,0.729388952255249,boat,boat,pow,0168_pow_s01_pow_boat_35_n02951358_14504.png
subject-01,1,169,0.71300196647644,boat,truck,pow,0169_pow_s01_pow_truck_35_n03417042_3913.png
subject-01,1,170,0.691578149795532,clock,chair,0,0170_pow_s01_0_chair_35_n04429376_16372.png
subject-01,1,171,0.652143955230713,keyboard,keyboard,pow,0171_pow_s01_pow_keyboard_35_n03085013_20453.png
subject-01,1,172,0.8265061378479,keyboard,keyboard,pow,0172_pow_s01_pow_keyboard_35_n03085013_22713.png
subject-01,1,173,0.71107006072998,car,car,pow,0173_pow_s01_pow_car_35_n04285008_13259.png
subject-01,1,174,0.887020111083984,elephant,elephant,pow,0174_pow_s01_pow_elephant_35_n02504458_3891.png
subject-01,1,175,0.803208827972412,elephant,elephant,0,0175_pow_s01_0_elephant_35_n02504013_7232.png
subject-01,1,176,0.925843000411987,dog,dog,0,0176_pow_s01_0_dog_35_n02086240_519.png
subject-01,1,177,0.804407119750977,clock,clock,pow,0177_pow_s01_pow_clock_35_n02708093_2283.png
subject-01,1,178,0.809455156326294,keyboard,keyboard,pow,0178_pow_s01_pow_keyboard_35_n03085013_24374.png
subject-01,1,179,0.742181062698364,bird,bird,0,0179_pow_s01_0_bird_35_n01819313_2722.png
subject-01,1,180,0.864116907119751,airplane,airplane,0,0180_pow_s01_0_airplane_35_n02690373_4945.png
subject-01,1,181,0.972174882888794,truck,truck,0,0181_pow_s01_0_truck_35_n04467665_19132.png
subject-01,1,182,0.787382125854492,car,car,pow,0182_pow_s01_pow_car_35_n03100240_4065.png
subject-01,1,183,1.14207100868225,cat,chair,pow,0183_pow_s01_pow_chair_35_n04429376_9630.png
subject-01,1,184,0.669648885726929,airplane,airplane,0,0184_pow_s01_0_airplane_35_n02690373_4681.png
subject-01,1,185,0.969751119613647,bird,cat,pow,0185_pow_s01_pow_cat_35_n02123159_4952.png
subject-01,1,186,0.78466796875,bottle,bottle,pow,0186_pow_s01_pow_bottle_35_n04579145_4389.png
subject-01,1,187,1.50026893615723,chair,clock,pow,0187_pow_s01_pow_clock_35_n03196217_5206.png
subject-01,1,188,NaN,na,bicycle,pow,0188_pow_s01_pow_bicycle_35_n03792782_471.png
subject-01,1,189,1.03998994827271,car,car,pow,0189_pow_s01_pow_car_35_n02814533_27588.png
subject-01,1,190,0.977536916732788,cat,cat,pow,0190_pow_s01_pow_cat_35_n02123394_159.png
subject-01,1,191,0.769680976867676,bicycle,bicycle,pow,0191_pow_s01_pow_bicycle_35_n03792782_15561.png
subject-01,1,192,0.732024192810059,bottle,oven,0,0192_pow_s01_0_oven_35_n04111531_7355.png
subject-01,1,193,0.691372871398926,oven,oven,0,0193_pow_s01_0_oven_35_n04111531_5110.png
subject-01,1,194,0.767080068588257,oven,oven,0,0194_pow_s01_0_oven_35_n04111531_4750.png
subject-01,1,195,1.12751293182373,truck,truck,pow,0195_pow_s01_pow_truck_35_n04467665_3411.png
subject-01,1,196,1.30581998825073,bicycle,truck,0,0196_pow_s01_0_truck_35_n03417042_3327.png
subject-01,1,197,0.711557865142822,elephant,elephant,pow,0197_pow_s01_pow_elephant_35_n02504013_6552.png
subject-01,1,198,0.944669008255005,dog,dog,pow,0198_pow_s01_pow_dog_35_n02111500_3896.png
subject-01,1,199,0.935960054397583,oven,oven,pow,0199_pow_s01_pow_oven_35_n04111531_2923.png
subject-01,1,200,0.758474111557007,truck,truck,0,0200_pow_s01_0_truck_35_n03796401_20861.png
subject-01,1,201,0.828695774078369,truck,truck,pow,0201_pow_s01_pow_truck_35_n03417042_16403.png
subject-01,1,202,0.557656049728394,oven,bear,pow,0202_pow_s01_pow_bear_35_n02134084_22032.png
subject-01,1,203,0.650731086730957,cat,cat,pow,0203_pow_s01_pow_cat_35_n02123597_111.png
subject-01,1,204,0.759706974029541,chair,chair,pow,0204_pow_s01_pow_chair_35_n03376595_3304.png
subject-01,1,205,0.773329973220825,dog,dog,pow,0205_pow_s01_pow_dog_35_n02109525_23299.png
subject-01,1,206,0.852419853210449,knife,knife,pow,0206_pow_s01_pow_knife_35_n03041632_4269.png
subject-01,1,207,1.05287599563599,bird,bird,pow,0207_pow_s01_pow_bird_35_n01796340_9255.png
subject-01,1,208,1.05318903923035,clock,chair,0,0208_pow_s01_0_chair_35_n04429376_8069.png
subject-01,1,209,1.17594885826111,car,car,pow,0209_pow_s01_pow_car_35_n04285008_5699.png
subject-01,1,210,0.983378171920776,knife,oven,pow,0210_pow_s01_pow_oven_35_n04111531_9455.png
subject-01,1,211,0.89189600944519,truck,truck,pow,0211_pow_s01_pow_truck_35_n04467665_45611.png
subject-01,1,212,0.960370063781738,truck,truck,0,0212_pow_s01_0_truck_35_n03796401_15097.png
subject-01,1,213,0.744491100311279,bottle,bottle,pow,0213_pow_s01_pow_bottle_35_n04579145_3894.png
subject-01,1,214,0.760402917861938,bicycle,bicycle,0,0214_pow_s01_0_bicycle_35_n03792782_15845.png
subject-01,1,215,0.801707983016968,boat,boat,0,0215_pow_s01_0_boat_35_n03344393_10748.png
subject-01,1,216,0.837373018264771,truck,truck,0,0216_pow_s01_0_truck_35_n04467665_64402.png
subject-01,1,217,0.731734037399292,elephant,elephant,0,0217_pow_s01_0_elephant_35_n02504458_7013.png
subject-01,1,218,0.846518039703369,keyboard,keyboard,0,0218_pow_s01_0_keyboard_35_n04505470_8937.png
subject-01,1,219,0.769949913024902,elephant,elephant,pow,0219_pow_s01_pow_elephant_35_n02504013_18988.png
subject-01,1,220,0.895204067230225,bicycle,bicycle,pow,0220_pow_s01_pow_bicycle_35_n02835271_3329.png
subject-01,1,221,0.647201061248779,clock,clock,0,0221_pow_s01_0_clock_35_n02708093_5.png
subject-01,1,222,0.625212907791138,chair,chair,pow,0222_pow_s01_pow_chair_35_n04099969_20900.png
subject-01,1,223,0.885081052780151,dog,dog,pow,0223_pow_s01_pow_dog_35_n02110958_8916.png
subject-01,1,224,0.863546133041382,car,car,0,0224_pow_s01_0_car_35_n02814533_13079.png
subject-01,1,225,0.677037954330444,knife,knife,0,0225_pow_s01_0_knife_35_n03041632_32785.png
subject-01,1,226,0.722855091094971,keyboard,keyboard,0,0226_pow_s01_0_keyboard_35_n04505470_751.png
subject-01,1,227,0.607152938842773,boat,boat,0,0227_pow_s01_0_boat_35_n03662601_2120.png
subject-01,1,228,1.17555713653564,bicycle,bicycle,pow,0228_pow_s01_pow_bicycle_35_n02835271_1436.png
subject-01,1,229,0.600088119506836,clock,clock,pow,0229_pow_s01_pow_clock_35_n02708093_3645.png
subject-01,1,230,0.691995859146118,bird,bird,0,0230_pow_s01_0_bird_35_n01843383_2122.png
subject-01,1,231,0.660734176635742,bird,bird,pow,0231_pow_s01_pow_bird_35_n01860187_2052.png
subject-01,1,232,0.884978055953979,bear,bear,0,0232_pow_s01_0_bear_35_n02134418_4513.png
subject-01,1,233,1.42025589942932,dog,truck,0,0233_pow_s01_0_truck_35_n03417042_213.png
subject-01,1,234,0.561392068862915,boat,boat,pow,0234_pow_s01_pow_boat_35_n03344393_8407.png
subject-01,1,235,0.62929892539978,bicycle,bicycle,0,0235_pow_s01_0_bicycle_35_n03792782_10395.png
subject-01,1,236,0.580781221389771,boat,boat,pow,0236_pow_s01_pow_boat_35_n04273569_15625.png
subject-01,1,237,0.481220960617065,boat,boat,0,0237_pow_s01_0_boat_35_n02951358_29779.png
subject-01,1,238,0.759086847305298,cat,cat,pow,0238_pow_s01_pow_cat_35_n02125311_8963.png
subject-01,1,239,0.865015029907227,bird,bird,0,0239_pow_s01_0_bird_35_n02002556_3463.png
subject-01,1,240,0.705486059188843,keyboard,keyboard,pow,0240_pow_s01_pow_keyboard_35_n04505470_5125.png
subject-01,1,241,0.682114124298096,clock,bird,pow,0241_pow_s01_pow_bird_35_n01798484_962.png
subject-01,1,242,0.757702112197876,knife,knife,0,0242_pow_s01_0_knife_35_n03041632_11932.png
subject-01,1,243,0.626320123672485,car,car,0,0243_pow_s01_0_car_35_n04285008_5897.png
subject-01,1,244,0.550848960876465,oven,oven,0,0244_pow_s01_0_oven_35_n04111531_4.png
subject-01,1,245,0.650452852249146,bicycle,bicycle,pow,0245_pow_s01_pow_bicycle_35_n03792782_51296.png
subject-01,1,246,0.688154935836792,oven,oven,0,0246_pow_s01_0_oven_35_n04111531_12843.png
subject-01,1,247,0.773287057876587,airplane,airplane,pow,0247_pow_s01_pow_airplane_35_n02690373_2147.png
subject-01,1,248,1.20048689842224,boat,boat,0,0248_pow_s01_0_boat_35_n03662601_16106.png
subject-01,1,249,0.732846021652222,oven,oven,pow,0249_pow_s01_pow_oven_35_n04111531_6393.png
subject-01,1,250,0.792306184768677,knife,knife,0,0250_pow_s01_0_knife_35_n03041632_6575.png
subject-01,1,251,0.737900972366333,keyboard,keyboard,0,0251_pow_s01_0_keyboard_35_n03085013_20710.png
subject-01,1,252,0.752622842788696,cat,cat,0,0252_pow_s01_0_cat_35_n02123045_8031.png
subject-01,1,253,0.677508115768433,oven,oven,0,0253_pow_s01_0_oven_35_n04111531_6049.png
subject-01,1,254,0.885359048843384,dog,cat,pow,0254_pow_s01_pow_cat_35_n02125311_5013.png
subject-01,1,255,0.993433952331543,bottle,bottle,0,0255_pow_s01_0_bottle_35_n04560804_647.png
subject-01,1,256,0.74776291847229,elephant,elephant,pow,0256_pow_s01_pow_elephant_35_n02504458_4716.png
subject-01,1,257,0.970289945602417,boat,boat,0,0257_pow_s01_0_boat_35_n03662601_13754.png
subject-01,1,258,0.832122087478638,dog,dog,pow,0258_pow_s01_pow_dog_35_n02091467_7264.png
subject-01,1,259,0.932857990264893,bear,bear,pow,0259_pow_s01_pow_bear_35_n02134084_18469.png
subject-01,1,260,0.81678581237793,truck,truck,pow,0260_pow_s01_pow_truck_35_n03417042_1182.png
subject-01,1,261,0.701822996139526,chair,chair,pow,0261_pow_s01_pow_chair_35_n03376595_11661.png
subject-01,1,262,0.756397008895874,bottle,bottle,0,0262_pow_s01_0_bottle_35_n03983396_3675.png
subject-01,1,263,1.13478708267212,bird,bear,pow,0263_pow_s01_pow_bear_35_n02133161_505.png
subject-01,1,264,0.850851058959961,airplane,airplane,pow,0264_pow_s01_pow_airplane_35_n02690373_2498.png
subject-01,1,265,0.995271921157837,knife,knife,pow,0265_pow_s01_pow_knife_35_n03041632_94995.png
subject-01,1,266,0.857434988021851,oven,oven,0,0266_pow_s01_0_oven_35_n04111531_2156.png
subject-01,1,267,0.811043977737427,cat,cat,pow,0267_pow_s01_pow_cat_35_n02123159_2043.png
subject-01,1,268,0.770968914031982,boat,boat,pow,0268_pow_s01_pow_boat_35_n03344393_3519.png
subject-01,1,269,0.887290954589844,knife,knife,pow,0269_pow_s01_pow_knife_35_n03041632_27960.png
subject-01,1,270,0.895738840103149,clock,clock,0,0270_pow_s01_0_clock_35_n03196217_3333.png
subject-01,1,271,1.16599988937378,truck,truck,pow,0271_pow_s01_pow_truck_35_n03417042_19955.png
subject-01,1,272,0.650694131851196,dog,dog,0,0272_pow_s01_0_dog_35_n02086646_7920.png
subject-01,1,273,1.05843591690063,elephant,bear,pow,0273_pow_s01_pow_bear_35_n02134418_5684.png
subject-01,1,274,0.612409830093384,cat,cat,pow,0274_pow_s01_pow_cat_35_n02125311_30246.png
subject-01,1,275,0.95978307723999,knife,knife,pow,0275_pow_s01_pow_knife_35_n03041632_2438.png
subject-01,1,276,0.591697931289673,cat,cat,0,0276_pow_s01_0_cat_35_n02125311_20238.png
subject-01,1,277,0.613467931747437,car,car,0,0277_pow_s01_0_car_35_n03100240_10244.png
subject-01,1,278,0.773776769638062,bird,bird,0,0278_pow_s01_0_bird_35_n01616318_2186.png
subject-01,1,279,0.644737005233765,bottle,bottle,pow,0279_pow_s01_pow_bottle_35_n02823428_3328.png
subject-01,1,280,0.706669092178345,airplane,airplane,0,0280_pow_s01_0_airplane_35_n02690373_2607.png
subject-01,1,281,0.766320943832397,elephant,elephant,0,0281_pow_s01_0_elephant_35_n02504013_5186.png
subject-01,1,282,0.76119589805603,bird,bird,0,0282_pow_s01_0_bird_35_n01531178_17387.png
subject-01,1,283,1.22809505462646,airplane,airplane,pow,0283_pow_s01_pow_airplane_35_n02690373_8461.png
subject-01,1,284,0.520622968673706,cat,cat,0,0284_pow_s01_0_cat_35_n02123159_5270.png
subject-01,1,285,0.942439079284668,truck,oven,pow,0285_pow_s01_pow_oven_35_n04111531_4904.png
subject-01,1,286,0.696830034255981,elephant,elephant,pow,0286_pow_s01_pow_elephant_35_n02504013_1081.png
subject-01,1,287,0.829163074493408,airplane,airplane,0,0287_pow_s01_0_airplane_35_n02690373_6618.png
subject-01,1,288,0.789412021636963,bear,bear,pow,0288_pow_s01_pow_bear_35_n02133161_6679.png
subject-01,1,289,0.712971925735474,elephant,elephant,0,0289_pow_s01_0_elephant_35_n02504458_5331.png
subject-01,1,290,0.805777072906494,airplane,airplane,0,0290_pow_s01_0_airplane_35_n02690373_3415.png
subject-01,1,291,0.736084938049316,knife,knife,0,0291_pow_s01_0_knife_35_n03041632_11475.png
subject-01,1,292,0.884887933731079,oven,oven,pow,0292_pow_s01_pow_oven_35_n04111531_3193.png
subject-01,1,293,0.714418888092041,elephant,elephant,pow,0293_pow_s01_pow_elephant_35_n02504013_1854.png
subject-01,1,294,0.751734018325806,truck,truck,pow,0294_pow_s01_pow_truck_35_n03796401_1789.png
subject-01,1,295,0.644295930862427,elephant,elephant,0,0295_pow_s01_0_elephant_35_n02504458_4721.png
subject-01,1,296,0.611065864562988,cat,cat,pow,0296_pow_s01_pow_cat_35_n02123159_5170.png
subject-01,1,297,0.598106145858765,cat,cat,0,0297_pow_s01_0_cat_35_n02124075_4189.png
subject-01,1,298,0.682237148284912,bicycle,bicycle,0,0298_pow_s01_0_bicycle_35_n02835271_6094.png
subject-01,1,299,0.873938083648682,truck,truck,pow,0299_pow_s01_pow_truck_35_n04467665_37935.png
subject-01,1,300,0.598641872406006,cat,cat,pow,0300_pow_s01_pow_cat_35_n02123394_3786.png
subject-01,1,301,0.66081690788269,bicycle,bicycle,pow,0301_pow_s01_pow_bicycle_35_n02835271_747.png
subject-01,1,302,0.751067161560059,bird,bird,0,0302_pow_s01_0_bird_35_n01795545_14302.png
subject-01,1,303,0.713455200195312,clock,clock,0,0303_pow_s01_0_clock_35_n03196217_1519.png
subject-01,1,304,1.10602307319641,clock,clock,pow,0304_pow_s01_pow_clock_35_n04548280_2654.png
subject-01,1,305,0.759537935256958,airplane,airplane,pow,0305_pow_s01_pow_airplane_35_n02690373_8521.png
subject-01,1,306,0.752583980560303,knife,knife,0,0306_pow_s01_0_knife_35_n03041632_29427.png
subject-01,1,307,0.669427156448364,bird,bird,pow,0307_pow_s01_pow_bird_35_n01592084_5716.png
subject-01,1,308,1.36862802505493,cat,cat,pow,0308_pow_s01_pow_cat_35_n02123159_4687.png
subject-01,1,309,0.745193958282471,boat,boat,0,0309_pow_s01_0_boat_35_n04612504_18536.png
subject-01,1,310,0.861785888671875,dog,dog,0,0310_pow_s01_0_dog_35_n02087394_10517.png
subject-01,1,311,1.2157998085022,keyboard,keyboard,pow,0311_pow_s01_pow_keyboard_35_n04505470_10191.png
subject-01,1,312,1.10049200057983,bottle,cat,pow,0312_pow_s01_pow_cat_35_n02123394_3718.png
subject-01,1,313,0.792945861816406,airplane,airplane,0,0313_pow_s01_0_airplane_35_n02690373_12976.png
subject-01,1,314,0.616393089294434,cat,cat,0,0314_pow_s01_0_cat_35_n02125311_33516.png
subject-01,1,315,0.73296594619751,airplane,airplane,0,0315_pow_s01_0_airplane_35_n02690373_2967.png
subject-01,1,316,0.571619987487793,boat,boat,0,0316_pow_s01_0_boat_35_n03662601_4059.png
subject-01,1,317,0.604434967041016,bottle,bottle,0,0317_pow_s01_0_bottle_35_n02823428_4569.png
subject-01,1,318,0.664968013763428,elephant,chair,pow,0318_pow_s01_pow_chair_35_n03376595_235.png
subject-01,1,319,0.764358997344971,bear,bear,pow,0319_pow_s01_pow_bear_35_n02134418_848.png
subject-01,1,320,0.694823980331421,clock,clock,0,0320_pow_s01_0_clock_35_n02708093_41.png
subject-01,1,321,0.713732957839966,truck,truck,pow,0321_pow_s01_pow_truck_35_n03417042_15903.png
subject-01,1,322,0.959735155105591,boat,boat,0,0322_pow_s01_0_boat_35_n02951358_14877.png
subject-01,1,323,1.01434016227722,car,car,0,0323_pow_s01_0_car_35_n03100240_5808.png
subject-01,1,324,0.570891857147217,chair,chair,0,0324_pow_s01_0_chair_35_n02791124_7193.png
subject-01,1,325,0.447844982147217,boat,boat,pow,0325_pow_s01_pow_boat_35_n02951358_34234.png
subject-01,1,326,0.730936050415039,car,car,pow,0326_pow_s01_pow_car_35_n04285008_15071.png
subject-01,1,327,0.609244108200073,chair,chair,0,0327_pow_s01_0_chair_35_n02791124_359.png
subject-01,1,328,0.601747035980225,bear,bear,pow,0328_pow_s01_pow_bear_35_n02134084_17218.png
subject-01,1,329,0.893996000289917,clock,clock,pow,0329_pow_s01_pow_clock_35_n04548280_5406.png
subject-01,1,330,1.05639910697937,bottle,bottle,0,0330_pow_s01_0_bottle_35_n03983396_17636.png
subject-01,1,331,0.611158132553101,cat,cat,0,0331_pow_s01_0_cat_35_n02123045_9907.png
subject-01,1,332,0.86454701423645,truck,truck,pow,0332_pow_s01_pow_truck_35_n04467665_63626.png
subject-01,1,333,0.641226053237915,keyboard,keyboard,pow,0333_pow_s01_pow_keyboard_35_n03085013_3859.png
subject-01,1,334,0.665791034698486,cat,cat,0,0334_pow_s01_0_cat_35_n02123159_4914.png
subject-01,1,335,0.57893705368042,cat,cat,0,0335_pow_s01_0_cat_35_n02123159_643.png
subject-01,1,336,1.27160596847534,truck,truck,0,0336_pow_s01_0_truck_35_n03796401_5873.png
subject-01,1,337,0.685286045074463,car,car,0,0337_pow_s01_0_car_35_n03100240_6103.png
subject-01,1,338,0.771899938583374,boat,boat,pow,0338_pow_s01_pow_boat_35_n04273569_14262.png
subject-01,1,339,0.486260890960693,oven,oven,0,0339_pow_s01_0_oven_35_n04111531_13296.png
subject-01,1,340,0.673066854476929,oven,oven,pow,0340_pow_s01_pow_oven_35_n04111531_8805.png
subject-01,1,341,0.648519992828369,bicycle,bicycle,0,0341_pow_s01_0_bicycle_35_n03792782_13399.png
subject-01,1,342,0.703252077102661,bird,bird,pow,0342_pow_s01_pow_bird_35_n01614925_8653.png
subject-01,1,343,0.840676069259644,clock,clock,pow,0343_pow_s01_pow_clock_35_n03196217_3104.png
subject-01,1,344,1.0672550201416,bear,elephant,pow,0344_pow_s01_pow_elephant_35_n02504013_6584.png
subject-01,1,345,0.730403184890747,bird,bird,0,0345_pow_s01_0_bird_35_n01824575_3046.png
subject-01,1,346,0.637764930725098,clock,clock,pow,0346_pow_s01_pow_clock_35_n04548280_4473.png
subject-01,1,347,0.989655017852783,bird,bear,pow,0347_pow_s01_pow_bear_35_n02133161_10441.png
subject-01,1,348,1.36023688316345,airplane,airplane,pow,0348_pow_s01_pow_airplane_35_n02690373_4578.png
subject-01,1,349,1.05351495742798,truck,truck,pow,0349_pow_s01_pow_truck_35_n03417042_18625.png
subject-01,1,350,0.606688976287842,oven,oven,pow,0350_pow_s01_pow_oven_35_n04111531_12702.png
subject-01,1,351,0.561092138290405,boat,boat,0,0351_pow_s01_0_boat_35_n03344393_7374.png
subject-01,1,352,0.693543910980225,chair,chair,pow,0352_pow_s01_pow_chair_35_n02791124_28.png
subject-01,1,353,0.691754817962646,bear,bear,pow,0353_pow_s01_pow_bear_35_n02132136_3603.png
subject-01,1,354,0.924249887466431,car,car,0,0354_pow_s01_0_car_35_n04285008_8616.png
subject-01,1,355,1.05473399162292,chair,chair,pow,0355_pow_s01_pow_chair_35_n04429376_10438.png
subject-01,1,356,0.708571910858154,bicycle,bicycle,pow,0356_pow_s01_pow_bicycle_35_n02835271_13234.png
subject-01,1,357,0.638671875,bear,bear,pow,0357_pow_s01_pow_bear_35_n02134418_5830.png
subject-01,1,358,0.692445039749146,airplane,airplane,pow,0358_pow_s01_pow_airplane_35_n02690373_4225.png
subject-01,1,359,0.869052886962891,keyboard,keyboard,pow,0359_pow_s01_pow_keyboard_35_n03085013_29452.png
subject-01,1,360,0.530423879623413,boat,boat,0,0360_pow_s01_0_boat_35_n02951358_14624.png
subject-01,1,361,1.15157985687256,elephant,knife,pow,0361_pow_s01_pow_knife_35_n03041632_3617.png
subject-01,1,362,0.63604998588562,bicycle,bicycle,pow,0362_pow_s01_pow_bicycle_35_n03792782_30246.png
subject-01,1,363,0.768243789672852,bird,bird,0,0363_pow_s01_0_bird_35_n02028035_8994.png
subject-01,1,364,0.628132104873657,airplane,airplane,0,0364_pow_s01_0_airplane_35_n02690373_4763.png
subject-01,1,365,0.766556978225708,elephant,elephant,0,0365_pow_s01_0_elephant_35_n02504458_4463.png
subject-01,1,366,0.499193906784058,bird,bird,pow,0366_pow_s01_pow_bird_35_n01532829_15193.png
subject-01,1,367,0.745093107223511,car,car,0,0367_pow_s01_0_car_35_n04285008_7508.png
subject-01,1,368,0.759260177612305,knife,knife,0,0368_pow_s01_0_knife_35_n03041632_10802.png
subject-01,1,369,0.80587100982666,keyboard,keyboard,pow,0369_pow_s01_pow_keyboard_35_n03085013_24653.png
subject-01,1,370,0.773189067840576,truck,truck,pow,0370_pow_s01_pow_truck_35_n03796401_142.png
subject-01,1,371,0.86011004447937,cat,cat,0,0371_pow_s01_0_cat_35_n02125311_28447.png
subject-01,1,372,0.798458099365234,chair,chair,0,0372_pow_s01_0_chair_35_n02791124_2003.png
subject-01,1,373,0.936869144439697,truck,truck,0,0373_pow_s01_0_truck_35_n04467665_356.png
subject-01,1,374,0.884627103805542,cat,cat,0,0374_pow_s01_0_cat_35_n02123597_14032.png
subject-01,1,375,0.753216028213501,cat,cat,0,0375_pow_s01_0_cat_35_n02123394_506.png
subject-01,1,376,1.19928097724915,car,car,pow,0376_pow_s01_pow_car_35_n04285008_10287.png
subject-01,1,377,0.699787139892578,cat,cat,pow,0377_pow_s01_pow_cat_35_n02125311_12361.png
subject-01,1,378,0.954396963119507,knife,knife,0,0378_pow_s01_0_knife_35_n03041632_18236.png
subject-01,1,379,0.832557916641235,chair,chair,pow,0379_pow_s01_pow_chair_35_n02791124_713.png
subject-01,1,380,0.809149980545044,knife,knife,pow,0380_pow_s01_pow_knife_35_n03041632_12651.png
subject-01,1,381,1.37128496170044,keyboard,keyboard,pow,0381_pow_s01_pow_keyboard_35_n03085013_22669.png
subject-01,1,382,1.23887801170349,bottle,bottle,0,0382_pow_s01_0_bottle_35_n03937543_1680.png
subject-01,1,383,0.877456903457642,elephant,elephant,pow,0383_pow_s01_pow_elephant_35_n02504458_5444.png
subject-01,1,384,1.15690612792969,airplane,airplane,pow,0384_pow_s01_pow_airplane_35_n02690373_8942.png
subject-01,1,385,0.780961036682129,cat,cat,0,0385_pow_s01_0_cat_35_n02123159_2246.png
subject-01,1,386,0.949635028839111,truck,boat,pow,0386_pow_s01_pow_boat_35_n03662601_15566.png
subject-01,1,387,0.649186134338379,oven,oven,0,0387_pow_s01_0_oven_35_n04111531_5694.png
subject-01,1,388,0.941534996032715,keyboard,keyboard,pow,0388_pow_s01_pow_keyboard_35_n03085013_17937.png
subject-01,1,389,0.826205015182495,elephant,elephant,0,0389_pow_s01_0_elephant_35_n02504013_1916.png
subject-01,1,390,0.849960088729858,airplane,airplane,pow,0390_pow_s01_pow_airplane_35_n02690373_10510.png
subject-01,1,391,0.818378925323486,dog,dog,pow,0391_pow_s01_pow_dog_35_n02100583_3987.png
subject-01,1,392,1.35607004165649,chair,chair,0,0392_pow_s01_0_chair_35_n04099969_8029.png
subject-01,1,393,0.62625789642334,bear,bear,0,0393_pow_s01_0_bear_35_n02134084_19791.png
subject-01,1,394,0.718276023864746,bottle,bottle,0,0394_pow_s01_0_bottle_35_n04560804_17783.png
subject-01,1,395,0.718752861022949,truck,truck,pow,0395_pow_s01_pow_truck_35_n03417042_11165.png
subject-01,1,396,0.573748111724854,cat,cat,pow,0396_pow_s01_pow_cat_35_n02123045_5228.png
subject-01,1,397,0.92778491973877,chair,chair,pow,0397_pow_s01_pow_chair_35_n02791124_16085.png
subject-01,1,398,0.710875034332275,keyboard,keyboard,0,0398_pow_s01_0_keyboard_35_n03085013_7058.png
subject-01,1,399,1.24081993103027,dog,dog,0,0399_pow_s01_0_dog_35_n02093754_4677.png
subject-01,1,400,0.84154486656189,bicycle,bicycle,0,0400_pow_s01_0_bicycle_35_n03792782_7878.png
subject-01,1,401,0.939058065414429,truck,truck,pow,0401_pow_s01_pow_truck_35_n03417042_7581.png
subject-01,1,402,0.955719947814941,bottle,bottle,pow,0402_pow_s01_pow_bottle_35_n02823428_12740.png
subject-01,1,403,0.726418972015381,knife,knife,0,0403_pow_s01_0_knife_35_n03041632_30573.png
subject-01,1,404,0.823832035064697,truck,truck,pow,0404_pow_s01_pow_truck_35_n04467665_8824.png
subject-01,1,405,0.848198890686035,bear,bear,0,0405_pow_s01_0_bear_35_n02132136_4157.png
subject-01,1,406,0.648904085159302,chair,chair,pow,0406_pow_s01_pow_chair_35_n03376595_14619.png
subject-01,1,407,0.699978113174438,boat,boat,pow,0407_pow_s01_pow_boat_35_n02951358_912.png
subject-01,1,408,0.96247410774231,bottle,bottle,pow,0408_pow_s01_pow_bottle_35_n03983396_2864.png
subject-01,1,409,0.855422973632812,bird,knife,pow,0409_pow_s01_pow_knife_35_n03041632_31037.png
subject-01,1,410,0.717184066772461,car,car,pow,0410_pow_s01_pow_car_35_n04285008_402.png
subject-01,1,411,0.833810091018677,clock,clock,0,0411_pow_s01_0_clock_35_n02708093_6734.png
subject-01,1,412,0.742300033569336,bicycle,bicycle,0,0412_pow_s01_0_bicycle_35_n02835271_4534.png
subject-01,1,413,1.08073306083679,bird,boat,pow,0413_pow_s01_pow_boat_35_n04273569_3460.png
subject-01,1,414,1.01117992401123,oven,oven,pow,0414_pow_s01_pow_oven_35_n04111531_3580.png
subject-01,1,415,0.634884119033813,bottle,bottle,0,0415_pow_s01_0_bottle_35_n04591713_5129.png
subject-01,1,416,0.897733926773071,elephant,elephant,pow,0416_pow_s01_pow_elephant_35_n02504458_3463.png
subject-01,1,417,0.88450288772583,dog,dog,pow,0417_pow_s01_pow_dog_35_n02096585_1894.png
subject-01,1,418,0.868710994720459,elephant,elephant,pow,0418_pow_s01_pow_elephant_35_n02504013_1702.png
subject-01,1,419,0.72863507270813,keyboard,keyboard,pow,0419_pow_s01_pow_keyboard_35_n03085013_19618.png
subject-01,1,420,0.85310697555542,airplane,airplane,pow,0420_pow_s01_pow_airplane_35_n02690373_1819.png
subject-01,1,421,0.736173868179321,oven,oven,0,0421_pow_s01_0_oven_35_n04111531_4189.png
subject-01,1,422,0.620331048965454,bird,bird,0,0422_pow_s01_0_bird_35_n02013706_1016.png
subject-01,1,423,0.561217069625854,chair,chair,0,0423_pow_s01_0_chair_35_n03376595_10881.png
subject-01,1,424,0.696171998977661,oven,oven,pow,0424_pow_s01_pow_oven_35_n04111531_6211.png
subject-01,1,425,0.55371880531311,bird,bird,pow,0425_pow_s01_pow_bird_35_n01614925_5578.png
subject-01,1,426,0.853369951248169,elephant,elephant,0,0426_pow_s01_0_elephant_35_n02504013_2476.png
subject-01,1,427,0.749665021896362,chair,chair,0,0427_pow_s01_0_chair_35_n03376595_7660.png
subject-01,1,428,0.649538993835449,chair,chair,0,0428_pow_s01_0_chair_35_n04099969_9713.png
subject-01,1,429,0.703689098358154,airplane,airplane,pow,0429_pow_s01_pow_airplane_35_n02690373_1071.png
subject-01,1,430,1.10882878303528,bird,bird,pow,0430_pow_s01_pow_bird_35_n01532829_4536.png
subject-01,1,431,0.70163106918335,car,car,0,0431_pow_s01_0_car_35_n03100240_17583.png
subject-01,1,432,0.679986953735352,oven,oven,pow,0432_pow_s01_pow_oven_35_n04111531_11781.png
subject-01,1,433,0.669792890548706,bottle,bottle,0,0433_pow_s01_0_bottle_35_n04560804_3801.png
subject-01,1,434,0.656467914581299,cat,cat,pow,0434_pow_s01_pow_cat_35_n02123159_463.png
subject-01,1,435,0.726977825164795,car,car,0,0435_pow_s01_0_car_35_n03100240_3073.png
subject-01,1,436,0.640445947647095,bottle,bottle,pow,0436_pow_s01_pow_bottle_35_n03937543_11347.png
subject-01,1,437,0.80296802520752,dog,dog,pow,0437_pow_s01_pow_dog_35_n02088364_12272.png
subject-01,1,438,0.862690925598145,keyboard,keyboard,0,0438_pow_s01_0_keyboard_35_n04505470_1728.png
subject-01,1,439,0.562889814376831,oven,oven,0,0439_pow_s01_0_oven_35_n04111531_10306.png
subject-01,1,440,0.757807970046997,car,car,0,0440_pow_s01_0_car_35_n04285008_8052.png
subject-01,1,441,0.834262132644653,car,car,0,0441_pow_s01_0_car_35_n03100240_5387.png
subject-01,1,442,0.663658857345581,bird,bird,0,0442_pow_s01_0_bird_35_n02056570_5891.png
subject-01,1,443,0.864407062530518,clock,clock,pow,0443_pow_s01_pow_clock_35_n04548280_4947.png
subject-01,1,444,0.856434106826782,clock,clock,pow,0444_pow_s01_pow_clock_35_n04548280_4739.png
subject-01,1,445,1.26478099822998,keyboard,knife,pow,0445_pow_s01_pow_knife_35_n03041632_85488.png
subject-01,1,446,0.889088153839111,keyboard,keyboard,0,0446_pow_s01_0_keyboard_35_n03085013_23354.png
subject-01,1,447,1.38884305953979,cat,knife,0,0447_pow_s01_0_knife_35_n03041632_4305.png
subject-01,1,448,0.627022981643677,clock,clock,0,0448_pow_s01_0_clock_35_n02708093_8179.png
subject-01,1,449,0.764094829559326,knife,knife,0,0449_pow_s01_0_knife_35_n03041632_120.png
subject-01,1,450,0.548509836196899,cat,cat,pow,0450_pow_s01_pow_cat_35_n02123045_13199.png
subject-01,1,451,0.723608016967773,knife,knife,pow,0451_pow_s01_pow_knife_35_n03041632_44019.png
subject-01,1,452,0.969923973083496,boat,boat,0,0452_pow_s01_0_boat_35_n03662601_81.png
subject-01,1,453,0.808125972747803,car,car,pow,0453_pow_s01_pow_car_35_n04285008_2185.png
subject-01,1,454,0.67772102355957,oven,oven,pow,0454_pow_s01_pow_oven_35_n04111531_1873.png
subject-01,1,455,0.76998496055603,bicycle,bicycle,0,0455_pow_s01_0_bicycle_35_n02835271_18537.png
subject-01,1,456,0.60976505279541,bird,bird,0,0456_pow_s01_0_bird_35_n02006656_4031.png
subject-01,1,457,1.21685194969177,boat,boat,0,0457_pow_s01_0_boat_35_n03662601_6230.png
subject-01,1,458,0.847368001937866,cat,cat,0,0458_pow_s01_0_cat_35_n02123597_7081.png
subject-01,1,459,0.703581094741821,cat,keyboard,0,0459_pow_s01_0_keyboard_35_n03085013_24272.png
subject-01,1,460,0.950025081634521,truck,truck,pow,0460_pow_s01_pow_truck_35_n03417042_1841.png
subject-01,1,461,0.926639080047607,boat,boat,0,0461_pow_s01_0_boat_35_n03344393_3323.png
subject-01,1,462,1.14315390586853,dog,dog,0,0462_pow_s01_0_dog_35_n02095889_7413.png
subject-01,1,463,0.834973812103271,dog,dog,0,0463_pow_s01_0_dog_35_n02109047_17100.png
subject-01,1,464,0.805275917053223,car,car,0,0464_pow_s01_0_car_35_n03100240_1435.png
subject-01,1,465,0.960007905960083,bicycle,bicycle,0,0465_pow_s01_0_bicycle_35_n02835271_15617.png
subject-01,1,466,0.905514001846313,car,car,pow,0466_pow_s01_pow_car_35_n03100240_3874.png
subject-01,1,467,0.959773063659668,clock,clock,0,0467_pow_s01_0_clock_35_n03196217_3762.png
subject-01,1,468,0.736468076705933,bear,bear,0,0468_pow_s01_0_bear_35_n02134084_22051.png
subject-01,1,469,0.774826049804688,keyboard,keyboard,0,0469_pow_s01_0_keyboard_35_n03085013_22996.png
subject-01,1,470,0.915447950363159,bottle,bottle,0,0470_pow_s01_0_bottle_35_n02823428_2007.png
subject-01,1,471,0.737610101699829,clock,clock,pow,0471_pow_s01_pow_clock_35_n04548280_82.png
subject-01,1,472,1.04693293571472,car,bird,pow,0472_pow_s01_pow_bird_35_n01537544_20224.png
subject-01,1,473,0.640733003616333,bottle,bottle,pow,0473_pow_s01_pow_bottle_35_n04591713_6827.png
subject-01,1,474,0.870532035827637,bicycle,bicycle,0,0474_pow_s01_0_bicycle_35_n02835271_3027.png
subject-01,1,475,0.738955974578857,dog,dog,0,0475_pow_s01_0_dog_35_n02095570_2009.png
subject-01,1,476,1.40935516357422,chair,bear,0,0476_pow_s01_0_bear_35_n02133161_1360.png
subject-01,1,477,0.86337685585022,truck,truck,0,0477_pow_s01_0_truck_35_n03417042_27231.png
subject-01,1,478,0.717480897903442,oven,oven,pow,0478_pow_s01_pow_oven_35_n04111531_23046.png
subject-01,1,479,0.655987977981567,keyboard,keyboard,0,0479_pow_s01_0_keyboard_35_n04505470_5137.png
subject-01,1,480,0.793857097625732,chair,chair,pow,0480_pow_s01_pow_chair_35_n02791124_13435.png
subject-01,1,481,1.0058810710907,bird,knife,pow,0481_pow_s01_pow_knife_35_n03041632_84048.png
subject-01,1,482,0.761180877685547,car,car,pow,0482_pow_s01_pow_car_35_n03100240_6259.png
subject-01,1,483,0.743930101394653,airplane,airplane,0,0483_pow_s01_0_airplane_35_n02690373_3729.png
subject-01,1,484,0.790920972824097,bicycle,bicycle,0,0484_pow_s01_0_bicycle_35_n02835271_10832.png
subject-01,1,485,0.768714189529419,bear,bear,pow,0485_pow_s01_pow_bear_35_n02134418_4666.png
subject-01,1,486,0.745141983032227,bicycle,bicycle,0,0486_pow_s01_0_bicycle_35_n02835271_9135.png
subject-01,1,487,0.553361892700195,oven,oven,0,0487_pow_s01_0_oven_35_n04111531_19795.png
subject-01,1,488,0.694610118865967,elephant,elephant,0,0488_pow_s01_0_elephant_35_n02504013_306.png
subject-01,1,489,0.816076993942261,bird,bird,pow,0489_pow_s01_pow_bird_35_n01582220_2882.png
subject-01,1,490,1.04026293754578,oven,oven,0,0490_pow_s01_0_oven_35_n04111531_8398.png
subject-01,1,491,0.64972996711731,airplane,airplane,0,0491_pow_s01_0_airplane_35_n02690373_4107.png
subject-01,1,492,0.864102840423584,dog,dog,pow,0492_pow_s01_pow_dog_35_n02097298_6578.png
subject-01,1,493,0.65591287612915,bear,bear,0,0493_pow_s01_0_bear_35_n02133161_12167.png
subject-01,1,494,0.717576026916504,dog,dog,0,0494_pow_s01_0_dog_35_n02100735_1445.png
subject-01,1,495,0.864145040512085,bird,bird,0,0495_pow_s01_0_bird_35_n01537544_5372.png
subject-01,1,496,0.826446056365967,bottle,bottle,pow,0496_pow_s01_pow_bottle_35_n04579145_2999.png
subject-01,1,497,0.595053911209106,bicycle,bicycle,0,0497_pow_s01_0_bicycle_35_n03792782_19116.png
subject-01,1,498,0.626790046691895,oven,oven,pow,0498_pow_s01_pow_oven_35_n04111531_20591.png
subject-01,1,499,0.71934986114502,oven,oven,0,0499_pow_s01_0_oven_35_n04111531_6094.png
subject-01,1,500,0.632894039154053,oven,oven,0,0500_pow_s01_0_oven_35_n04111531_13172.png
subject-01,1,501,0.757836103439331,dog,cat,pow,0501_pow_s01_pow_cat_35_n02123394_530.png
subject-01,1,502,0.71729302406311,bird,bird,0,0502_pow_s01_0_bird_35_n02018207_19525.png
subject-01,1,503,0.87883996963501,airplane,airplane,pow,0503_pow_s01_pow_airplane_35_n02690373_60.png
subject-01,1,504,0.901471853256226,truck,truck,pow,0504_pow_s01_pow_truck_35_n03417042_24155.png
subject-01,1,505,0.788485050201416,boat,boat,pow,0505_pow_s01_pow_boat_35_n04612504_2479.png
subject-01,1,506,0.777606010437012,airplane,airplane,pow,0506_pow_s01_pow_airplane_35_n02690373_4471.png
subject-01,1,507,0.626526117324829,bear,bear,0,0507_pow_s01_0_bear_35_n02134084_11187.png
subject-01,1,508,1.1649649143219,bottle,chair,pow,0508_pow_s01_pow_chair_35_n04429376_1838.png
subject-01,1,509,1.0072979927063,bicycle,bicycle,pow,0509_pow_s01_pow_bicycle_35_n03792782_56250.png
subject-01,1,510,1.29142880439758,boat,elephant,pow,0510_pow_s01_pow_elephant_35_n02504013_7191.png
subject-01,1,511,1.5001220703125,knife,knife,0,0511_pow_s01_0_knife_35_n03041632_7982.png
subject-01,1,512,0.691479921340942,clock,clock,pow,0512_pow_s01_pow_clock_35_n04548280_2943.png
subject-01,1,513,1.02165579795837,truck,truck,pow,0513_pow_s01_pow_truck_35_n04467665_21942.png
subject-01,1,514,0.892827033996582,car,car,0,0514_pow_s01_0_car_35_n02814533_11273.png
subject-01,1,515,1.22220706939697,bird,cat,0,0515_pow_s01_0_cat_35_n02125311_27218.png
subject-01,1,516,0.774718999862671,elephant,elephant,0,0516_pow_s01_0_elephant_35_n02504013_1454.png
subject-01,1,517,0.631082057952881,chair,chair,0,0517_pow_s01_0_chair_35_n04099969_4816.png
subject-01,1,518,0.653642892837524,bicycle,bicycle,0,0518_pow_s01_0_bicycle_35_n02835271_19557.png
subject-01,1,519,0.666661977767944,dog,dog,pow,0519_pow_s01_pow_dog_35_n02088632_1732.png
subject-01,1,520,0.62923789024353,airplane,airplane,0,0520_pow_s01_0_airplane_35_n02690373_7276.png
subject-01,1,521,0.872163057327271,elephant,elephant,pow,0521_pow_s01_pow_elephant_35_n02504013_2865.png
subject-01,1,522,1.00475096702576,bottle,bottle,pow,0522_pow_s01_pow_bottle_35_n03983396_2944.png
subject-01,1,523,0.85746693611145,dog,dog,0,0523_pow_s01_0_dog_35_n02100583_5392.png
subject-01,1,524,0.819343090057373,oven,oven,0,0524_pow_s01_0_oven_35_n04111531_6445.png
subject-01,1,525,0.782051086425781,chair,chair,0,0525_pow_s01_0_chair_35_n04099969_39507.png
subject-01,1,526,0.843078136444092,bicycle,bicycle,pow,0526_pow_s01_pow_bicycle_35_n03792782_14931.png
subject-01,1,527,0.628146171569824,clock,clock,pow,0527_pow_s01_pow_clock_35_n02708093_148.png
subject-01,1,528,0.766388893127441,dog,dog,pow,0528_pow_s01_pow_dog_35_n02094258_6800.png
subject-01,1,529,0.920284986495972,truck,truck,0,0529_pow_s01_0_truck_35_n03796401_3326.png
subject-01,1,530,1.16688299179077,bear,bear,0,0530_pow_s01_0_bear_35_n02134084_3840.png
subject-01,1,531,0.775022983551025,knife,knife,pow,0531_pow_s01_pow_knife_35_n03041632_18959.png
subject-01,1,532,0.642673015594482,oven,bird,pow,0532_pow_s01_pow_bird_35_n02009229_1091.png
subject-01,1,533,0.94490909576416,airplane,airplane,pow,0533_pow_s01_pow_airplane_35_n02690373_5277.png
subject-01,1,534,1.2286741733551,car,boat,0,0534_pow_s01_0_boat_35_n03662601_19840.png
subject-01,1,535,0.673219919204712,chair,chair,0,0535_pow_s01_0_chair_35_n04099969_10516.png
subject-01,1,536,1.02102208137512,dog,dog,pow,0536_pow_s01_pow_dog_35_n02105641_6742.png
subject-01,1,537,0.82259202003479,dog,dog,pow,0537_pow_s01_pow_dog_35_n02104029_3041.png
subject-01,1,538,0.759949922561646,oven,oven,0,0538_pow_s01_0_oven_35_n04111531_1725.png
subject-01,1,539,0.77708101272583,bird,bird,pow,0539_pow_s01_pow_bird_35_n02002556_12696.png
subject-01,1,540,0.853320121765137,chair,chair,pow,0540_pow_s01_pow_chair_35_n03376595_6409.png
subject-01,1,541,0.998998165130615,cat,cat,pow,0541_pow_s01_pow_cat_35_n02125311_28114.png
subject-01,1,542,0.723803997039795,boat,boat,0,0542_pow_s01_0_boat_35_n03344393_7669.png
subject-01,1,543,0.708250999450684,cat,cat,0,0543_pow_s01_0_cat_35_n02123394_5586.png
subject-01,1,544,0.79405689239502,bear,bear,pow,0544_pow_s01_pow_bear_35_n02132136_30306.png
subject-01,1,545,0.724396228790283,boat,boat,0,0545_pow_s01_0_boat_35_n04612504_19147.png
subject-01,1,546,0.662472009658813,clock,clock,pow,0546_pow_s01_pow_clock_35_n04548280_8841.png
subject-01,1,547,0.754669189453125,bicycle,bicycle,0,0547_pow_s01_0_bicycle_35_n02835271_10738.png
subject-01,1,548,0.763284921646118,bottle,bottle,0,0548_pow_s01_0_bottle_35_n03983396_10013.png
subject-01,1,549,0.671237945556641,chair,chair,pow,0549_pow_s01_pow_chair_35_n03376595_13703.png
subject-01,1,550,0.802118062973022,clock,clock,0,0550_pow_s01_0_clock_35_n04548280_7135.png
subject-01,1,551,1.01039886474609,clock,truck,pow,0551_pow_s01_pow_truck_35_n03796401_6737.png
subject-01,1,552,0.993916988372803,car,car,0,0552_pow_s01_0_car_35_n02814533_59762.png
subject-01,1,553,0.878466844558716,keyboard,keyboard,pow,0553_pow_s01_pow_keyboard_35_n03085013_8364.png
subject-01,1,554,0.910227060317993,bottle,bottle,pow,0554_pow_s01_pow_bottle_35_n03983396_4241.png
subject-01,1,555,0.848337888717651,elephant,elephant,pow,0555_pow_s01_pow_elephant_35_n02504013_1763.png
subject-01,1,556,0.862736940383911,airplane,airplane,pow,0556_pow_s01_pow_airplane_35_n02690373_18304.png
subject-01,1,557,0.757296085357666,bear,bear,0,0557_pow_s01_0_bear_35_n02134418_4657.png
subject-01,1,558,0.733577013015747,bicycle,bicycle,0,0558_pow_s01_0_bicycle_35_n03792782_7713.png
subject-01,1,559,0.792886018753052,keyboard,keyboard,0,0559_pow_s01_0_keyboard_35_n03085013_23658.png
subject-01,1,560,1.15557813644409,airplane,airplane,pow,0560_pow_s01_pow_airplane_35_n02690373_763.png
subject-01,1,561,0.980741024017334,bicycle,bicycle,0,0561_pow_s01_0_bicycle_35_n03792782_21148.png
subject-01,1,562,0.88618016242981,clock,clock,pow,0562_pow_s01_pow_clock_35_n04548280_2765.png
subject-01,1,563,0.640727043151855,chair,chair,pow,0563_pow_s01_pow_chair_35_n02791124_15457.png
subject-01,1,564,0.872708082199097,clock,chair,0,0564_pow_s01_0_chair_35_n04429376_17074.png
subject-01,1,565,1.16233706474304,bird,boat,pow,0565_pow_s01_pow_boat_35_n03344393_6892.png
subject-01,1,566,1.04086494445801,bear,bear,0,0566_pow_s01_0_bear_35_n02134084_15968.png
subject-01,1,567,0.904109001159668,keyboard,keyboard,0,0567_pow_s01_0_keyboard_35_n03085013_24522.png
subject-01,1,568,1.13412189483643,truck,truck,pow,0568_pow_s01_pow_truck_35_n03417042_9610.png
subject-01,1,569,0.663934946060181,oven,oven,pow,0569_pow_s01_pow_oven_35_n04111531_12103.png
subject-01,1,570,0.93549919128418,knife,knife,pow,0570_pow_s01_pow_knife_35_n03041632_22214.png
subject-01,1,571,0.811542987823486,bird,bird,0,0571_pow_s01_0_bird_35_n02027492_9905.png
subject-01,1,572,0.852608919143677,airplane,airplane,pow,0572_pow_s01_pow_airplane_35_n02690373_4704.png
subject-01,1,573,0.736815929412842,bottle,bottle,pow,0573_pow_s01_pow_bottle_35_n03983396_6889.png
subject-01,1,574,0.65888500213623,chair,chair,0,0574_pow_s01_0_chair_35_n03376595_7772.png
subject-01,1,575,0.812516927719116,bicycle,bicycle,pow,0575_pow_s01_pow_bicycle_35_n02835271_840.png
subject-01,1,576,0.73708701133728,truck,truck,pow,0576_pow_s01_pow_truck_35_n03796401_2934.png
subject-01,1,577,0.550964832305908,oven,oven,0,0577_pow_s01_0_oven_35_n04111531_10476.png
subject-01,1,578,0.897292137145996,clock,knife,0,0578_pow_s01_0_knife_35_n03041632_7380.png
subject-01,1,579,0.597517013549805,clock,clock,pow,0579_pow_s01_pow_clock_35_n04548280_6411.png
subject-01,1,580,0.621724128723145,chair,chair,0,0580_pow_s01_0_chair_35_n04099969_17428.png
subject-01,1,581,0.71416711807251,keyboard,keyboard,pow,0581_pow_s01_pow_keyboard_35_n03085013_4636.png
subject-01,1,582,0.669082880020142,bird,bird,0,0582_pow_s01_0_bird_35_n02028035_5332.png
subject-01,1,583,0.644198894500732,elephant,elephant,0,0583_pow_s01_0_elephant_35_n02504013_6615.png
subject-01,1,584,0.791007995605469,truck,truck,0,0584_pow_s01_0_truck_35_n03417042_4574.png
subject-01,1,585,1.1695249080658,keyboard,oven,0,0585_pow_s01_0_oven_35_n04111531_5582.png
subject-01,1,586,0.823143005371094,bicycle,bicycle,pow,0586_pow_s01_pow_bicycle_35_n03792782_6023.png
subject-01,1,587,0.661290168762207,bottle,bottle,0,0587_pow_s01_0_bottle_35_n04591713_7164.png
subject-01,1,588,0.832188844680786,bottle,bottle,pow,0588_pow_s01_pow_bottle_35_n04591713_1407.png
subject-01,1,589,0.767863988876343,elephant,elephant,pow,0589_pow_s01_pow_elephant_35_n02504013_21616.png
subject-01,1,590,0.830397129058838,elephant,elephant,0,0590_pow_s01_0_elephant_35_n02504013_4457.png
subject-01,1,591,0.747309923171997,clock,clock,0,0591_pow_s01_0_clock_35_n03196217_10246.png
subject-01,1,592,0.930783033370972,cat,cat,pow,0592_pow_s01_pow_cat_35_n02123045_11501.png
subject-01,1,593,0.738891839981079,elephant,elephant,pow,0593_pow_s01_pow_elephant_35_n02504458_8254.png
subject-01,1,594,0.645007133483887,bird,bird,0,0594_pow_s01_0_bird_35_n01530575_10212.png
subject-01,1,595,0.614931106567383,clock,clock,0,0595_pow_s01_0_clock_35_n02708093_7535.png
subject-01,1,596,0.699533939361572,car,car,0,0596_pow_s01_0_car_35_n02814533_93476.png
subject-01,1,597,0.961629152297974,elephant,bird,pow,0597_pow_s01_pow_bird_35_n01537544_7301.png
subject-01,1,598,1.2137930393219,cat,cat,0,0598_pow_s01_0_cat_35_n02123159_5224.png
subject-01,1,599,0.716225147247314,bicycle,bicycle,pow,0599_pow_s01_pow_bicycle_35_n03792782_4931.png
subject-01,1,600,0.630483150482178,bird,bird,pow,0600_pow_s01_pow_bird_35_n02025239_15554.png
subject-01,1,601,0.708430051803589,elephant,elephant,0,0601_pow_s01_0_elephant_35_n02504013_6973.png
subject-01,1,602,0.692280054092407,car,car,0,0602_pow_s01_0_car_35_n02814533_3561.png
subject-01,1,603,0.961513042449951,airplane,keyboard,pow,0603_pow_s01_pow_keyboard_35_n03085013_24793.png
subject-01,1,604,0.71465802192688,clock,clock,0,0604_pow_s01_0_clock_35_n03196217_1376.png
subject-01,1,605,0.593605995178223,oven,oven,pow,0605_pow_s01_pow_oven_35_n04111531_5212.png
subject-01,1,606,0.668272018432617,car,car,pow,0606_pow_s01_pow_car_35_n03100240_14206.png
subject-01,1,607,0.761744022369385,car,car,0,0607_pow_s01_0_car_35_n04285008_13174.png
subject-01,1,608,0.75451397895813,oven,oven,0,0608_pow_s01_0_oven_35_n04111531_6120.png
subject-01,1,609,0.970234870910645,boat,bear,0,0609_pow_s01_0_bear_35_n02134418_2714.png
subject-01,1,610,0.562371969223022,keyboard,chair,pow,0610_pow_s01_pow_chair_35_n03376595_360.png
subject-01,1,611,0.832966089248657,elephant,elephant,0,0611_pow_s01_0_elephant_35_n02504013_3410.png
subject-01,1,612,1.18520092964172,knife,oven,0,0612_pow_s01_0_oven_35_n04111531_1050.png
subject-01,1,613,1.07113718986511,keyboard,keyboard,pow,0613_pow_s01_pow_keyboard_35_n03085013_2277.png
subject-01,1,614,1.03385186195374,chair,chair,pow,0614_pow_s01_pow_chair_35_n04429376_353.png
subject-01,1,615,0.688715934753418,bird,bird,pow,0615_pow_s01_pow_bird_35_n01820546_6471.png
subject-01,1,616,0.62746787071228,chair,chair,0,0616_pow_s01_0_chair_35_n03376595_7010.png
subject-01,1,617,1.00408887863159,car,car,pow,0617_pow_s01_pow_car_35_n02814533_46997.png
subject-01,1,618,0.80273699760437,keyboard,keyboard,0,0618_pow_s01_0_keyboard_35_n04505470_5131.png
subject-01,1,619,0.917759895324707,car,car,0,0619_pow_s01_0_car_35_n03100240_5719.png
subject-01,1,620,0.934132814407349,car,car,0,0620_pow_s01_0_car_35_n02814533_4374.png
subject-01,1,621,0.925964832305908,bird,bird,0,0621_pow_s01_0_bird_35_n01614925_11281.png
subject-01,1,622,0.979937076568604,car,car,pow,0622_pow_s01_pow_car_35_n02814533_7420.png
subject-01,1,623,0.595088958740234,oven,oven,0,0623_pow_s01_0_oven_35_n04111531_10436.png
subject-01,1,624,0.861897945404053,bottle,bottle,pow,0624_pow_s01_pow_bottle_35_n03983396_12895.png
subject-01,1,625,1.10212898254395,airplane,airplane,pow,0625_pow_s01_pow_airplane_35_n02690373_10455.png
subject-01,1,626,0.847781896591187,truck,truck,pow,0626_pow_s01_pow_truck_35_n04467665_31539.png
subject-01,1,627,1.26234817504883,keyboard,keyboard,0,0627_pow_s01_0_keyboard_35_n04505470_3531.png
subject-01,1,628,0.949718952178955,elephant,elephant,0,0628_pow_s01_0_elephant_35_n02504013_9618.png
subject-01,1,629,0.754890203475952,cat,cat,0,0629_pow_s01_0_cat_35_n02123394_4286.png
subject-01,1,630,1.24784994125366,dog,dog,0,0630_pow_s01_0_dog_35_n02111500_3947.png
subject-01,1,631,0.734509944915771,clock,clock,0,0631_pow_s01_0_clock_35_n04548280_7565.png
subject-01,1,632,0.864096879959106,bicycle,bicycle,pow,0632_pow_s01_pow_bicycle_35_n02835271_4313.png
subject-01,1,633,1.27847719192505,chair,chair,pow,0633_pow_s01_pow_chair_35_n02791124_16913.png
subject-01,1,634,0.979295015335083,chair,chair,pow,0634_pow_s01_pow_chair_35_n04429376_32124.png
subject-01,1,635,0.987056016921997,boat,boat,0,0635_pow_s01_0_boat_35_n04273569_5767.png
subject-01,1,636,1.0709810256958,bird,bird,pow,0636_pow_s01_pow_bird_35_n01855672_8550.png
subject-01,1,637,1.18734908103943,airplane,airplane,pow,0637_pow_s01_pow_airplane_35_n02690373_2676.png
subject-01,1,638,0.802047967910767,cat,cat,0,0638_pow_s01_0_cat_35_n02123045_3505.png
subject-01,1,639,0.764486074447632,oven,oven,pow,0639_pow_s01_pow_oven_35_n04111531_1989.png
subject-01,1,640,1.03513288497925,bear,bear,0,0640_pow_s01_0_bear_35_n02134418_261.png
subject-01,1,641,0.652014017105103,bird,bird,pow,0641_pow_s01_pow_bird_35_n01537544_9745.png
subject-01,1,642,0.773953914642334,clock,oven,pow,0642_pow_s01_pow_oven_35_n04111531_2462.png
subject-01,1,643,0.957730770111084,knife,knife,pow,0643_pow_s01_pow_knife_35_n03041632_29858.png
subject-01,1,644,0.451818943023682,oven,oven,0,0644_pow_s01_0_oven_35_n04111531_3805.png
subject-01,1,645,0.652740001678467,car,car,pow,0645_pow_s01_pow_car_35_n04285008_6037.png
subject-01,1,646,0.737051010131836,airplane,airplane,0,0646_pow_s01_0_airplane_35_n02690373_9165.png
subject-01,1,647,0.774643898010254,clock,clock,0,0647_pow_s01_0_clock_35_n03196217_6185.png
subject-01,1,648,0.713316917419434,airplane,airplane,pow,0648_pow_s01_pow_airplane_35_n02690373_7740.png
subject-01,1,649,0.705003023147583,knife,knife,0,0649_pow_s01_0_knife_35_n03041632_13465.png
subject-01,1,650,0.867195844650269,cat,cat,pow,0650_pow_s01_pow_cat_35_n02124075_3383.png
subject-01,1,651,0.72996997833252,airplane,airplane,0,0651_pow_s01_0_airplane_35_n02690373_1229.png
subject-01,1,652,0.735745191574097,chair,chair,0,0652_pow_s01_0_chair_35_n04099969_16079.png
subject-01,1,653,1.24406003952026,dog,dog,pow,0653_pow_s01_pow_dog_35_n02099601_447.png
subject-01,1,654,0.720206022262573,bottle,bottle,pow,0654_pow_s01_pow_bottle_35_n03937543_2936.png
subject-01,1,655,0.86901593208313,dog,dog,pow,0655_pow_s01_pow_dog_35_n02097298_7577.png
subject-01,1,656,0.661051034927368,dog,dog,pow,0656_pow_s01_pow_dog_35_n02098105_2157.png
subject-01,1,657,0.791027069091797,knife,knife,pow,0657_pow_s01_pow_knife_35_n03041632_56436.png
subject-01,1,658,0.721102952957153,clock,chair,pow,0658_pow_s01_pow_chair_35_n04429376_13678.png
subject-01,1,659,0.799942970275879,truck,truck,0,0659_pow_s01_0_truck_35_n03417042_2062.png
subject-01,1,660,0.599472999572754,oven,oven,pow,0660_pow_s01_pow_oven_35_n04111531_4146.png
subject-01,1,661,0.707775115966797,cat,cat,0,0661_pow_s01_0_cat_35_n02125311_475.png
subject-01,1,662,1.28352212905884,bear,dog,pow,0662_pow_s01_pow_dog_35_n02100735_10683.png
subject-01,1,663,0.591337919235229,clock,clock,0,0663_pow_s01_0_clock_35_n04548280_4768.png
subject-01,1,664,0.753648042678833,airplane,airplane,0,0664_pow_s01_0_airplane_35_n02690373_4350.png
subject-01,1,665,0.805769920349121,elephant,elephant,0,0665_pow_s01_0_elephant_35_n02504013_6257.png
subject-01,1,666,0.605508089065552,clock,clock,0,0666_pow_s01_0_clock_35_n04548280_2601.png
subject-01,1,667,0.759763956069946,elephant,elephant,0,0667_pow_s01_0_elephant_35_n02504013_5087.png
subject-01,1,668,1.43079495429993,boat,knife,0,0668_pow_s01_0_knife_35_n03041632_5102.png
subject-01,1,669,0.761129140853882,boat,boat,pow,0669_pow_s01_pow_boat_35_n04273569_31649.png
subject-01,1,670,1.19103002548218,oven,knife,0,0670_pow_s01_0_knife_35_n03041632_22241.png
subject-01,1,671,0.731377124786377,keyboard,keyboard,pow,0671_pow_s01_pow_keyboard_35_n04505470_4844.png
subject-01,1,672,0.653244018554688,clock,clock,0,0672_pow_s01_0_clock_35_n03196217_1234.png
subject-01,1,673,0.786209106445312,car,car,0,0673_pow_s01_0_car_35_n03100240_24505.png
subject-01,1,674,0.554197072982788,clock,clock,0,0674_pow_s01_0_clock_35_n03196217_5907.png
subject-01,1,675,0.563040971755981,clock,clock,pow,0675_pow_s01_pow_clock_35_n04548280_2362.png
subject-01,1,676,0.90979790687561,bottle,bottle,pow,0676_pow_s01_pow_bottle_35_n03983396_2256.png
subject-01,1,677,1.03987789154053,elephant,elephant,0,0677_pow_s01_0_elephant_35_n02504458_13382.png
subject-01,1,678,0.601938009262085,keyboard,keyboard,pow,0678_pow_s01_pow_keyboard_35_n03085013_24591.png
subject-01,1,679,0.742929935455322,elephant,elephant,0,0679_pow_s01_0_elephant_35_n02504013_10922.png
subject-01,1,680,0.904809951782227,bicycle,bicycle,0,0680_pow_s01_0_bicycle_35_n03792782_11306.png
subject-01,1,681,0.718549966812134,bicycle,bicycle,pow,0681_pow_s01_pow_bicycle_35_n02835271_542.png
subject-01,1,682,0.89768385887146,car,truck,0,0682_pow_s01_0_truck_35_n03796401_4181.png
subject-01,1,683,0.665613174438477,bear,bear,0,0683_pow_s01_0_bear_35_n02134084_21207.png
subject-01,1,684,0.941693782806396,dog,dog,0,0684_pow_s01_0_dog_35_n02085936_1706.png
subject-01,1,685,1.32646489143372,bear,bear,pow,0685_pow_s01_pow_bear_35_n02134084_6901.png
subject-01,1,686,0.766046047210693,oven,oven,0,0686_pow_s01_0_oven_35_n04111531_13277.png
subject-01,1,687,0.780762910842896,keyboard,keyboard,pow,0687_pow_s01_pow_keyboard_35_n03085013_24665.png
subject-01,1,688,0.910604000091553,knife,knife,pow,0688_pow_s01_pow_knife_35_n03041632_94620.png
subject-01,1,689,0.902177095413208,dog,dog,pow,0689_pow_s01_pow_dog_35_n02093256_1772.png
subject-01,1,690,0.581354141235352,cat,cat,pow,0690_pow_s01_pow_cat_35_n02124075_10456.png
subject-01,1,691,0.781183958053589,truck,truck,0,0691_pow_s01_0_truck_35_n03417042_17888.png
subject-01,1,692,0.643326044082642,boat,boat,pow,0692_pow_s01_pow_boat_35_n04612504_22353.png
subject-01,1,693,0.752054214477539,bottle,bottle,0,0693_pow_s01_0_bottle_35_n03983396_16628.png
subject-01,1,694,0.773327112197876,elephant,elephant,pow,0694_pow_s01_pow_elephant_35_n02504013_213.png
subject-01,1,695,1.19629907608032,oven,knife,pow,0695_pow_s01_pow_knife_35_n03041632_36789.png
subject-01,1,696,0.760294198989868,bottle,bottle,pow,0696_pow_s01_pow_bottle_35_n03983396_16742.png
subject-01,1,697,0.7121741771698,keyboard,keyboard,0,0697_pow_s01_0_keyboard_35_n03085013_7892.png
subject-01,1,698,0.699449062347412,keyboard,keyboard,0,0698_pow_s01_0_keyboard_35_n04505470_2869.png
subject-01,1,699,0.853716135025024,dog,dog,0,0699_pow_s01_0_dog_35_n02094258_654.png
subject-01,1,700,0.853331804275513,truck,truck,pow,0700_pow_s01_pow_truck_35_n03796401_3273.png
subject-01,1,701,0.775959968566895,dog,dog,pow,0701_pow_s01_pow_dog_35_n02105056_6724.png
subject-01,1,702,0.724750995635986,clock,clock,pow,0702_pow_s01_pow_clock_35_n04548280_3999.png
subject-01,1,703,0.792335987091064,elephant,elephant,pow,0703_pow_s01_pow_elephant_35_n02504013_9678.png
subject-01,1,704,1.03275299072266,boat,boat,pow,0704_pow_s01_pow_boat_35_n04273569_11997.png
subject-01,1,705,1.36308598518372,boat,bear,pow,0705_pow_s01_pow_bear_35_n02134418_1041.png
subject-01,1,706,0.825216054916382,keyboard,keyboard,pow,0706_pow_s01_pow_keyboard_35_n04505470_1904.png
subject-01,1,707,0.696078062057495,boat,boat,0,0707_pow_s01_0_boat_35_n03344393_4106.png
subject-01,1,708,0.618305921554565,bird,bird,0,0708_pow_s01_0_bird_35_n01833805_7528.png
subject-01,1,709,1.39409899711609,knife,knife,pow,0709_pow_s01_pow_knife_35_n03041632_9302.png
subject-01,1,710,0.580025196075439,oven,oven,0,0710_pow_s01_0_oven_35_n04111531_20369.png
subject-01,1,711,0.535191059112549,cat,cat,pow,0711_pow_s01_pow_cat_35_n02123045_3375.png
subject-01,1,712,0.693893909454346,cat,dog,0,0712_pow_s01_0_dog_35_n02101006_11799.png
subject-01,1,713,0.878271102905273,bear,bear,pow,0713_pow_s01_pow_bear_35_n02134418_2298.png
subject-01,1,714,0.932870864868164,bottle,bottle,0,0714_pow_s01_0_bottle_35_n03983396_5093.png
subject-01,1,715,0.916172981262207,knife,knife,0,0715_pow_s01_0_knife_35_n03041632_16020.png
subject-01,1,716,0.818705081939697,knife,knife,pow,0716_pow_s01_pow_knife_35_n03041632_24114.png
subject-01,1,717,0.955240964889526,bird,bird,0,0717_pow_s01_0_bird_35_n01829413_6608.png
subject-01,1,718,0.803044080734253,car,car,pow,0718_pow_s01_pow_car_35_n02814533_61184.png
subject-01,1,719,0.633620023727417,clock,clock,0,0719_pow_s01_0_clock_35_n02708093_2295.png
subject-01,1,720,0.749511003494263,cat,cat,pow,0720_pow_s01_pow_cat_35_n02125311_10174.png
subject-01,1,721,0.795737028121948,elephant,elephant,pow,0721_pow_s01_pow_elephant_35_n02504458_3143.png
subject-01,1,722,0.880590200424194,bottle,bottle,0,0722_pow_s01_0_bottle_35_n04557648_9310.png
subject-01,1,723,0.825926065444946,keyboard,keyboard,0,0723_pow_s01_0_keyboard_35_n03085013_21166.png
subject-01,1,724,0.842384099960327,bear,bear,pow,0724_pow_s01_pow_bear_35_n02132136_10352.png
subject-01,1,725,1.01099395751953,truck,truck,0,0725_pow_s01_0_truck_35_n04467665_2098.png
subject-01,1,726,0.819097995758057,clock,clock,pow,0726_pow_s01_pow_clock_35_n02708093_2710.png
subject-01,1,727,1.28244805335999,truck,truck,pow,0727_pow_s01_pow_truck_35_n03417042_6608.png
subject-01,1,728,0.966072797775269,bird,bird,pow,0728_pow_s01_pow_bird_35_n01824575_10337.png
subject-01,1,729,0.843778848648071,bear,bear,0,0729_pow_s01_0_bear_35_n02134418_2590.png
subject-01,1,730,0.653007984161377,cat,cat,pow,0730_pow_s01_pow_cat_35_n02123597_6370.png
subject-01,1,731,1.16708302497864,knife,knife,pow,0731_pow_s01_pow_knife_35_n03041632_82197.png
subject-01,1,732,1.19106793403625,car,truck,pow,0732_pow_s01_pow_truck_35_n04467665_42823.png
subject-01,1,733,1.37552881240845,bottle,chair,pow,0733_pow_s01_pow_chair_35_n04429376_30249.png
subject-01,1,734,0.605740070343018,bear,bear,0,0734_pow_s01_0_bear_35_n02134084_18372.png
subject-01,1,735,0.528711080551147,boat,boat,pow,0735_pow_s01_pow_boat_35_n02951358_16261.png
subject-01,1,736,1.01325798034668,dog,dog,0,0736_pow_s01_0_dog_35_n02104365_3004.png
subject-01,1,737,0.805682897567749,dog,dog,pow,0737_pow_s01_pow_dog_35_n02110185_8777.png
subject-01,1,738,0.680712938308716,cat,cat,pow,0738_pow_s01_pow_cat_35_n02123597_5514.png
subject-01,1,739,0.789175987243652,bear,bear,0,0739_pow_s01_0_bear_35_n02134084_14168.png
subject-01,1,740,0.684410810470581,cat,cat,0,0740_pow_s01_0_cat_35_n02124075_2843.png
subject-01,1,741,0.673223972320557,bicycle,bicycle,0,0741_pow_s01_0_bicycle_35_n02835271_12799.png
subject-01,1,742,0.852283000946045,airplane,airplane,pow,0742_pow_s01_pow_airplane_35_n02690373_4042.png
subject-01,1,743,0.690981149673462,keyboard,keyboard,pow,0743_pow_s01_pow_keyboard_35_n03085013_20732.png
subject-01,1,744,0.665792942047119,dog,dog,0,0744_pow_s01_0_dog_35_n02112706_3099.png
subject-01,1,745,0.798480033874512,knife,knife,pow,0745_pow_s01_pow_knife_35_n03041632_42472.png
subject-01,1,746,0.698516130447388,chair,chair,0,0746_pow_s01_0_chair_35_n03376595_6652.png
subject-01,1,747,0.828871011734009,bottle,bottle,0,0747_pow_s01_0_bottle_35_n04557648_132.png
subject-01,1,748,0.623662948608398,boat,boat,0,0748_pow_s01_0_boat_35_n03344393_8380.png
subject-01,1,749,0.750119924545288,dog,dog,0,0749_pow_s01_0_dog_35_n02113624_1707.png
subject-01,1,750,0.603583812713623,dog,dog,pow,0750_pow_s01_pow_dog_35_n02107908_5597.png
subject-01,1,751,1.0718879699707,boat,boat,0,0751_pow_s01_0_boat_35_n02951358_31965.png
subject-01,1,752,0.716958045959473,keyboard,keyboard,pow,0752_pow_s01_pow_keyboard_35_n03085013_21183.png
subject-01,1,753,0.647486925125122,bear,bear,pow,0753_pow_s01_pow_bear_35_n02132136_4699.png
subject-01,1,754,0.577203035354614,dog,dog,0,0754_pow_s01_0_dog_35_n02105162_1003.png
subject-01,1,755,0.685547113418579,airplane,airplane,pow,0755_pow_s01_pow_airplane_35_n02690373_4320.png
subject-01,1,756,0.877466917037964,keyboard,keyboard,0,0756_pow_s01_0_keyboard_35_n03085013_23291.png
subject-01,1,757,0.723881959915161,bottle,bottle,pow,0757_pow_s01_pow_bottle_35_n04557648_2282.png
subject-01,1,758,0.816294193267822,bottle,bottle,0,0758_pow_s01_0_bottle_35_n04560804_20335.png
subject-01,1,759,0.800528049468994,bicycle,bicycle,pow,0759_pow_s01_pow_bicycle_35_n02835271_21339.png
subject-01,1,760,0.895374059677124,car,car,pow,0760_pow_s01_pow_car_35_n02814533_58196.png
subject-01,1,761,0.832741022109985,boat,boat,pow,0761_pow_s01_pow_boat_35_n02951358_5064.png
subject-01,1,762,1.37646389007568,keyboard,keyboard,0,0762_pow_s01_0_keyboard_35_n03085013_20906.png
subject-01,1,763,0.971061944961548,bicycle,bicycle,pow,0763_pow_s01_pow_bicycle_35_n02835271_324.png
subject-01,1,764,0.839133024215698,bottle,bottle,pow,0764_pow_s01_pow_bottle_35_n02823428_1733.png
subject-01,1,765,1.03943991661072,bottle,bottle,pow,0765_pow_s01_pow_bottle_35_n04557648_1184.png
subject-01,1,766,0.872039794921875,oven,oven,pow,0766_pow_s01_pow_oven_35_n04111531_19240.png
subject-01,1,767,0.939818859100342,car,car,pow,0767_pow_s01_pow_car_35_n04285008_8465.png
subject-01,1,768,1.09402513504028,bicycle,bicycle,0,0768_pow_s01_0_bicycle_35_n02835271_5196.png
subject-01,1,769,0.902991056442261,car,car,0,0769_pow_s01_0_car_35_n03100240_17108.png
subject-01,1,770,0.926593065261841,boat,boat,0,0770_pow_s01_0_boat_35_n03662601_10120.png
subject-01,1,771,0.935662984848022,elephant,elephant,pow,0771_pow_s01_pow_elephant_35_n02504013_7353.png
subject-01,1,772,1.50007796287537,boat,truck,pow,0772_pow_s01_pow_truck_35_n04467665_3876.png
subject-01,1,773,0.757552862167358,elephant,elephant,pow,0773_pow_s01_pow_elephant_35_n02504013_7026.png
subject-01,1,774,1.31185293197632,bird,bird,0,0774_pow_s01_0_bird_35_n02007558_7112.png
subject-01,1,775,0.928366899490356,oven,oven,pow,0775_pow_s01_pow_oven_35_n04111531_22797.png
subject-01,1,776,0.989737987518311,bicycle,bicycle,pow,0776_pow_s01_pow_bicycle_35_n02835271_5643.png
subject-01,1,777,0.920263051986694,bear,bear,pow,0777_pow_s01_pow_bear_35_n02134084_13588.png
subject-01,1,778,0.844845771789551,bottle,bottle,0,0778_pow_s01_0_bottle_35_n02823428_3028.png
subject-01,1,779,1.50018095970154,dog,dog,0,0779_pow_s01_0_dog_35_n02088364_5801.png
subject-01,1,780,1.02960395812988,bird,bird,pow,0780_pow_s01_pow_bird_35_n01818515_10185.png
subject-01,1,781,1.50044107437134,dog,dog,0,0781_pow_s01_0_dog_35_n02099601_11986.png
subject-01,1,782,0.883274078369141,keyboard,keyboard,pow,0782_pow_s01_pow_keyboard_35_n03085013_1698.png
subject-01,1,783,1.04571008682251,truck,truck,pow,0783_pow_s01_pow_truck_35_n03417042_26102.png
subject-01,1,784,0.762294054031372,bird,bird,0,0784_pow_s01_0_bird_35_n02025239_2961.png
subject-01,1,785,0.929943084716797,elephant,elephant,0,0785_pow_s01_0_elephant_35_n02504458_7777.png
subject-01,1,786,0.738653182983398,airplane,airplane,0,0786_pow_s01_0_airplane_35_n02690373_9802.png
subject-01,1,787,0.946637153625488,knife,knife,0,0787_pow_s01_0_knife_35_n03041632_46720.png
subject-01,1,788,1.17011713981628,knife,knife,0,0788_pow_s01_0_knife_35_n03041632_102887.png
subject-01,1,789,0.740913152694702,car,car,0,0789_pow_s01_0_car_35_n03100240_8483.png
subject-01,1,790,0.90130615234375,chair,chair,pow,0790_pow_s01_pow_chair_35_n03376595_596.png
subject-01,1,791,0.901329040527344,knife,knife,0,0791_pow_s01_0_knife_35_n03041632_31483.png
subject-01,1,792,0.724263191223145,bottle,bottle,0,0792_pow_s01_0_bottle_35_n03937543_2941.png
subject-01,1,793,0.609125852584839,cat,cat,pow,0793_pow_s01_pow_cat_35_n02123597_589.png
subject-01,1,794,NaN,na,elephant,0,0794_pow_s01_0_elephant_35_n02504458_7841.png
subject-01,1,795,0.646560907363892,bear,bear,0,0795_pow_s01_0_bear_35_n02134084_9774.png
subject-01,1,796,0.617007970809937,boat,boat,pow,0796_pow_s01_pow_boat_35_n02951358_537.png
subject-01,1,797,0.738943815231323,bottle,bottle,0,0797_pow_s01_0_bottle_35_n04560804_8921.png
subject-01,1,798,0.768929958343506,airplane,airplane,0,0798_pow_s01_0_airplane_35_n02690373_9709.png
subject-01,1,799,0.877112150192261,elephant,elephant,pow,0799_pow_s01_pow_elephant_35_n02504013_24810.png
subject-01,1,800,0.530488014221191,car,car,pow,0800_pow_s01_pow_car_35_n02814533_24730.png
subject-01,1,801,0.767703056335449,elephant,elephant,pow,0801_pow_s01_pow_elephant_35_n02504013_1830.png
subject-01,1,802,1.03845500946045,boat,boat,0,0802_pow_s01_0_boat_35_n02951358_18804.png
subject-01,1,803,0.596947908401489,oven,oven,pow,0803_pow_s01_pow_oven_35_n04111531_6955.png
subject-01,1,804,0.643502950668335,elephant,elephant,0,0804_pow_s01_0_elephant_35_n02504458_6618.png
subject-01,1,805,0.922534942626953,bear,bear,0,0805_pow_s01_0_bear_35_n02132136_10979.png
subject-01,1,806,0.738496065139771,car,car,pow,0806_pow_s01_pow_car_35_n02814533_65623.png
subject-01,1,807,0.639212131500244,elephant,elephant,0,0807_pow_s01_0_elephant_35_n02504458_568.png
subject-01,1,808,0.732226133346558,bicycle,bicycle,pow,0808_pow_s01_pow_bicycle_35_n03792782_8172.png
subject-01,1,809,0.593830108642578,bear,bear,0,0809_pow_s01_0_bear_35_n02134084_15558.png
subject-01,1,810,0.923929929733276,bottle,bottle,0,0810_pow_s01_0_bottle_35_n02823428_1149.png
subject-01,1,811,0.60259485244751,oven,oven,pow,0811_pow_s01_pow_oven_35_n04111531_5967.png
subject-01,1,812,0.602229833602905,elephant,bird,pow,0812_pow_s01_pow_bird_35_n02017213_5095.png
subject-01,1,813,0.941011905670166,dog,dog,0,0813_pow_s01_0_dog_35_n02099601_2980.png
subject-01,1,814,0.978705167770386,elephant,elephant,0,0814_pow_s01_0_elephant_35_n02504013_7273.png
subject-01,1,815,0.669378995895386,airplane,airplane,pow,0815_pow_s01_pow_airplane_35_n02690373_911.png
subject-01,1,816,0.722018003463745,dog,dog,0,0816_pow_s01_0_dog_35_n02093256_1102.png
subject-01,1,817,0.792335987091064,cat,cat,pow,0817_pow_s01_pow_cat_35_n02124075_9723.png
subject-01,1,818,0.870301008224487,bicycle,bicycle,pow,0818_pow_s01_pow_bicycle_35_n02835271_9092.png
subject-01,1,819,0.608464002609253,oven,oven,pow,0819_pow_s01_pow_oven_35_n04111531_14441.png
subject-01,1,820,0.963197946548462,bear,bear,0,0820_pow_s01_0_bear_35_n02133161_2044.png
subject-01,1,821,0.600349903106689,airplane,airplane,0,0821_pow_s01_0_airplane_35_n02690373_13384.png
subject-01,1,822,0.633029222488403,bottle,bottle,0,0822_pow_s01_0_bottle_35_n03983396_4178.png
subject-01,1,823,0.89366888999939,dog,dog,pow,0823_pow_s01_pow_dog_35_n02113023_12143.png
subject-01,1,824,0.747906923294067,elephant,elephant,0,0824_pow_s01_0_elephant_35_n02504013_18498.png
subject-01,1,825,1.07240200042725,airplane,boat,pow,0825_pow_s01_pow_boat_35_n03344393_6713.png
subject-01,1,826,0.689198017120361,clock,clock,pow,0826_pow_s01_pow_clock_35_n04548280_5189.png
subject-01,1,827,0.78056001663208,keyboard,keyboard,0,0827_pow_s01_0_keyboard_35_n04505470_4515.png
subject-01,1,828,1.06472492218018,dog,dog,0,0828_pow_s01_0_dog_35_n02090622_1852.png
subject-01,1,829,0.735106945037842,bicycle,bicycle,0,0829_pow_s01_0_bicycle_35_n03792782_11390.png
subject-01,1,830,0.480888843536377,cat,cat,pow,0830_pow_s01_pow_cat_35_n02123597_1027.png
subject-01,1,831,1.40932893753052,truck,truck,0,0831_pow_s01_0_truck_35_n03417042_3422.png
subject-01,1,832,1.40366077423096,truck,truck,0,0832_pow_s01_0_truck_35_n03417042_7036.png
subject-01,1,833,1.22473812103271,bottle,bottle,pow,0833_pow_s01_pow_bottle_35_n02823428_6327.png
subject-01,1,834,0.871320009231567,chair,chair,0,0834_pow_s01_0_chair_35_n04429376_54570.png
subject-01,1,835,1.33333897590637,dog,dog,pow,0835_pow_s01_pow_dog_35_n02088364_7145.png
subject-01,1,836,0.573167085647583,oven,oven,pow,0836_pow_s01_pow_oven_35_n04111531_23668.png
subject-01,1,837,0.774269819259644,bird,cat,0,0837_pow_s01_0_cat_35_n02125311_2103.png
subject-01,1,838,1.08840107917786,clock,bottle,pow,0838_pow_s01_pow_bottle_35_n02823428_6250.png
subject-01,1,839,0.741742134094238,keyboard,keyboard,0,0839_pow_s01_0_keyboard_35_n03085013_19343.png
subject-01,1,840,0.888183116912842,boat,boat,pow,0840_pow_s01_pow_boat_35_n03344393_6978.png
subject-01,1,841,0.636900901794434,cat,cat,0,0841_pow_s01_0_cat_35_n02123045_9947.png
subject-01,1,842,0.696607828140259,boat,boat,0,0842_pow_s01_0_boat_35_n03344393_7412.png
subject-01,1,843,0.989159822463989,clock,clock,pow,0843_pow_s01_pow_clock_35_n02708093_3755.png
subject-01,1,844,0.683141946792603,elephant,elephant,pow,0844_pow_s01_pow_elephant_35_n02504013_6693.png
subject-01,1,845,1.0056300163269,bottle,bottle,0,0845_pow_s01_0_bottle_35_n03983396_12525.png
subject-01,1,846,0.805788040161133,truck,truck,0,0846_pow_s01_0_truck_35_n04467665_45983.png
subject-01,1,847,0.62222695350647,oven,oven,pow,0847_pow_s01_pow_oven_35_n04111531_6181.png
subject-01,1,848,0.676745891571045,clock,clock,0,0848_pow_s01_0_clock_35_n04548280_16378.png
subject-01,1,849,1.42287302017212,bird,bottle,0,0849_pow_s01_0_bottle_35_n04557648_10171.png
subject-01,1,850,0.901348114013672,airplane,airplane,0,0850_pow_s01_0_airplane_35_n02690373_1206.png
subject-01,1,851,0.869216918945312,truck,truck,pow,0851_pow_s01_pow_truck_35_n04467665_3433.png
subject-01,1,852,0.708176136016846,bird,bird,0,0852_pow_s01_0_bird_35_n02051845_539.png
subject-01,1,853,0.916127920150757,bottle,bottle,pow,0853_pow_s01_pow_bottle_35_n04557648_94.png
subject-01,1,854,0.600407123565674,boat,boat,0,0854_pow_s01_0_boat_35_n03662601_18676.png
subject-01,1,855,0.508749008178711,oven,oven,0,0855_pow_s01_0_oven_35_n04111531_2074.png
subject-01,1,856,0.863192081451416,bear,bear,0,0856_pow_s01_0_bear_35_n02134084_23292.png
subject-01,1,857,1.15517902374268,dog,cat,0,0857_pow_s01_0_cat_35_n02125311_55770.png
subject-01,1,858,0.572009086608887,clock,clock,pow,0858_pow_s01_pow_clock_35_n04548280_8348.png
subject-01,1,859,0.79312801361084,elephant,elephant,0,0859_pow_s01_0_elephant_35_n02504458_4414.png
subject-01,1,860,1.48550009727478,bird,bird,0,0860_pow_s01_0_bird_35_n01616318_1935.png
subject-01,1,861,0.7480788230896,clock,clock,0,0861_pow_s01_0_clock_35_n03196217_6467.png
subject-01,1,862,0.777698993682861,truck,truck,pow,0862_pow_s01_pow_truck_35_n03796401_3427.png
subject-01,1,863,0.640395879745483,elephant,elephant,pow,0863_pow_s01_pow_elephant_35_n02504458_5982.png
subject-01,1,864,0.902622938156128,bicycle,bicycle,pow,0864_pow_s01_pow_bicycle_35_n03792782_6735.png
subject-01,1,865,0.856854915618896,chair,chair,0,0865_pow_s01_0_chair_35_n04429376_31206.png
subject-01,1,866,0.911495923995972,car,boat,pow,0866_pow_s01_pow_boat_35_n04273569_23162.png
subject-01,1,867,0.903526067733765,boat,boat,0,0867_pow_s01_0_boat_35_n04273569_12651.png
subject-01,1,868,0.704428911209106,bottle,bottle,pow,0868_pow_s01_pow_bottle_35_n04591713_7005.png
subject-01,1,869,0.612649917602539,keyboard,keyboard,pow,0869_pow_s01_pow_keyboard_35_n04505470_4521.png
subject-01,1,870,0.796581983566284,chair,chair,0,0870_pow_s01_0_chair_35_n04099969_1163.png
subject-01,1,871,0.728660106658936,car,car,pow,0871_pow_s01_pow_car_35_n04285008_7776.png
subject-01,1,872,0.629678010940552,bicycle,bicycle,0,0872_pow_s01_0_bicycle_35_n02835271_27777.png
subject-01,1,873,0.643457889556885,dog,dog,0,0873_pow_s01_0_dog_35_n02106550_4880.png
subject-01,1,874,0.483914852142334,cat,cat,pow,0874_pow_s01_pow_cat_35_n02123045_11224.png
subject-01,1,875,0.989842891693115,airplane,airplane,0,0875_pow_s01_0_airplane_35_n02690373_8069.png
subject-01,1,876,0.772931098937988,airplane,airplane,pow,0876_pow_s01_pow_airplane_35_n02690373_4402.png
subject-01,1,877,1.31996583938599,elephant,elephant,0,0877_pow_s01_0_elephant_35_n02504458_6079.png
subject-01,1,878,0.689915180206299,bicycle,bicycle,pow,0878_pow_s01_pow_bicycle_35_n03792782_12885.png
subject-01,1,879,0.966588020324707,knife,knife,0,0879_pow_s01_0_knife_35_n03041632_32377.png
subject-01,1,880,0.690633058547974,boat,boat,pow,0880_pow_s01_pow_boat_35_n03344393_815.png
subject-01,1,881,0.737133026123047,bear,bear,pow,0881_pow_s01_pow_bear_35_n02134418_3232.png
subject-01,1,882,1.22123503684998,bird,bear,pow,0882_pow_s01_pow_bear_35_n02134418_3073.png
subject-01,1,883,0.622087955474854,bottle,bottle,0,0883_pow_s01_0_bottle_35_n02823428_3611.png
subject-01,1,884,1.03764700889587,bird,bird,0,0884_pow_s01_0_bird_35_n02002556_5447.png
subject-01,1,885,0.622123956680298,bird,bird,0,0885_pow_s01_0_bird_35_n02009229_8793.png
subject-01,1,886,0.501081943511963,boat,boat,pow,0886_pow_s01_pow_boat_35_n04612504_8636.png
subject-01,1,887,0.784393072128296,elephant,elephant,pow,0887_pow_s01_pow_elephant_35_n02504458_2888.png
subject-01,1,888,0.844480037689209,bear,bear,0,0888_pow_s01_0_bear_35_n02133161_14945.png
subject-01,1,889,0.807034015655518,airplane,airplane,0,0889_pow_s01_0_airplane_35_n02690373_19104.png
subject-01,1,890,1.1366720199585,airplane,truck,0,0890_pow_s01_0_truck_35_n04467665_72639.png
subject-01,1,891,0.690397977828979,bottle,bottle,0,0891_pow_s01_0_bottle_35_n03983396_24837.png
subject-01,1,892,0.913149118423462,dog,dog,pow,0892_pow_s01_pow_dog_35_n02102040_312.png
subject-01,1,893,0.674525022506714,bottle,bottle,0,0893_pow_s01_0_bottle_35_n03983396_6281.png
subject-01,1,894,0.721025228500366,car,car,pow,0894_pow_s01_pow_car_35_n03100240_24471.png
subject-01,1,895,0.638055086135864,bicycle,bicycle,pow,0895_pow_s01_pow_bicycle_35_n02835271_11573.png
subject-01,1,896,0.758473873138428,knife,knife,0,0896_pow_s01_0_knife_35_n03041632_45312.png
subject-01,1,897,0.689137935638428,dog,dog,0,0897_pow_s01_0_dog_35_n02106166_5135.png
subject-01,1,898,0.635322093963623,bottle,bottle,0,0898_pow_s01_0_bottle_35_n03983396_4879.png
subject-01,1,899,0.773237943649292,keyboard,keyboard,pow,0899_pow_s01_pow_keyboard_35_n04505470_1358.png
subject-01,1,900,0.767487049102783,keyboard,keyboard,0,0900_pow_s01_0_keyboard_35_n04505470_5902.png
subject-01,1,901,0.629929065704346,knife,knife,0,0901_pow_s01_0_knife_35_n03041632_3247.png
subject-01,1,902,0.781715154647827,bear,dog,pow,0902_pow_s01_pow_dog_35_n02100735_3553.png
subject-01,1,903,0.628396034240723,bear,bear,0,0903_pow_s01_0_bear_35_n02132136_24633.png
subject-01,1,904,1.21550893783569,airplane,airplane,0,0904_pow_s01_0_airplane_35_n02690373_7107.png
subject-01,1,905,1.07465386390686,bear,bear,pow,0905_pow_s01_pow_bear_35_n02132136_29029.png
subject-01,1,906,0.652748107910156,bicycle,bicycle,0,0906_pow_s01_0_bicycle_35_n03792782_3765.png
subject-01,1,907,1.32181191444397,dog,dog,pow,0907_pow_s01_pow_dog_35_n02093428_16873.png
subject-01,1,908,0.61306095123291,clock,clock,pow,0908_pow_s01_pow_clock_35_n03196217_3362.png
subject-01,1,909,0.776239156723022,dog,dog,pow,0909_pow_s01_pow_dog_35_n02095570_8343.png
subject-01,1,910,0.484276056289673,cat,cat,0,0910_pow_s01_0_cat_35_n02123597_6990.png
subject-01,1,911,0.630377054214478,bear,bear,pow,0911_pow_s01_pow_bear_35_n02134418_1974.png
subject-01,1,912,0.653220176696777,keyboard,knife,pow,0912_pow_s01_pow_knife_35_n03041632_76163.png
subject-01,1,913,0.539005041122437,boat,boat,0,0913_pow_s01_0_boat_35_n04273569_19796.png
subject-01,1,914,0.645548820495605,truck,truck,0,0914_pow_s01_0_truck_35_n04467665_58815.png
subject-01,1,915,0.746243000030518,oven,oven,pow,0915_pow_s01_pow_oven_35_n04111531_14269.png
subject-01,1,916,0.707044839859009,truck,truck,0,0916_pow_s01_0_truck_35_n03417042_15893.png
subject-01,1,917,0.561629056930542,clock,clock,0,0917_pow_s01_0_clock_35_n03196217_9786.png
subject-01,1,918,1.24607920646667,bear,bear,pow,0918_pow_s01_pow_bear_35_n02134084_9539.png
subject-01,1,919,NaN,na,airplane,pow,0919_pow_s01_pow_airplane_35_n02690373_7676.png
subject-01,1,920,0.462267160415649,boat,boat,0,0920_pow_s01_0_boat_35_n03344393_5511.png
subject-01,1,921,1.07687091827393,dog,knife,pow,0921_pow_s01_pow_knife_35_n03041632_13194.png
subject-01,1,922,0.623656988143921,car,car,pow,0922_pow_s01_pow_car_35_n04285008_15954.png
subject-01,1,923,0.556183815002441,bicycle,bicycle,0,0923_pow_s01_0_bicycle_35_n03792782_1424.png
subject-01,1,924,0.732863903045654,bear,bear,pow,0924_pow_s01_pow_bear_35_n02132136_8457.png
subject-01,1,925,1.30869507789612,dog,dog,pow,0925_pow_s01_pow_dog_35_n02108915_8164.png
subject-01,1,926,0.62454080581665,elephant,elephant,0,0926_pow_s01_0_elephant_35_n02504013_1715.png
subject-01,1,927,0.700632095336914,chair,chair,pow,0927_pow_s01_pow_chair_35_n04099969_5294.png
subject-01,1,928,0.747347831726074,chair,chair,pow,0928_pow_s01_pow_chair_35_n04429376_12691.png
subject-01,1,929,0.747566938400269,cat,cat,0,0929_pow_s01_0_cat_35_n02123394_1997.png
subject-01,1,930,1.0012571811676,chair,chair,pow,0930_pow_s01_pow_chair_35_n02791124_3018.png
subject-01,1,931,0.648125886917114,boat,boat,pow,0931_pow_s01_pow_boat_35_n03344393_5798.png
subject-01,1,932,0.708648920059204,bird,bird,pow,0932_pow_s01_pow_bird_35_n01537544_9881.png
subject-01,1,933,0.678153038024902,bottle,bottle,pow,0933_pow_s01_pow_bottle_35_n03983396_2998.png
subject-01,1,934,0.678908109664917,bird,bird,pow,0934_pow_s01_pow_bird_35_n01819313_6752.png
subject-01,1,935,0.895421981811523,truck,truck,0,0935_pow_s01_0_truck_35_n03796401_22759.png
subject-01,1,936,0.69304895401001,airplane,airplane,0,0936_pow_s01_0_airplane_35_n02690373_1797.png
subject-01,1,937,0.771398782730103,car,car,pow,0937_pow_s01_pow_car_35_n02814533_3754.png
subject-01,1,938,1.17816495895386,dog,dog,0,0938_pow_s01_0_dog_35_n02102973_7681.png
subject-01,1,939,0.655927896499634,bird,bird,pow,0939_pow_s01_pow_bird_35_n01829413_943.png
subject-01,1,940,1.03482294082642,oven,keyboard,pow,0940_pow_s01_pow_keyboard_35_n04505470_7728.png
subject-01,1,941,0.786700010299683,bird,bird,pow,0941_pow_s01_pow_bird_35_n02017213_15747.png
subject-01,1,942,0.986339807510376,dog,dog,0,0942_pow_s01_0_dog_35_n02110958_368.png
subject-01,1,943,0.949028968811035,bear,bear,pow,0943_pow_s01_pow_bear_35_n02132136_15870.png
subject-01,1,944,0.948711156845093,bottle,bottle,pow,0944_pow_s01_pow_bottle_35_n04560804_3847.png
subject-01,1,945,0.61103081703186,boat,boat,pow,0945_pow_s01_pow_boat_35_n04612504_10662.png
subject-01,1,946,0.672019004821777,cat,cat,pow,0946_pow_s01_pow_cat_35_n02123597_6405.png
subject-01,1,947,0.649648904800415,keyboard,keyboard,0,0947_pow_s01_0_keyboard_35_n03085013_19096.png
subject-01,1,948,0.820527076721191,bottle,bottle,pow,0948_pow_s01_pow_bottle_35_n02823428_774.png
subject-01,1,949,0.629744052886963,cat,dog,pow,0949_pow_s01_pow_dog_35_n02110063_6748.png
subject-01,1,950,0.956352949142456,truck,truck,pow,0950_pow_s01_pow_truck_35_n04467665_6626.png
subject-01,1,951,0.580145120620728,oven,oven,pow,0951_pow_s01_pow_oven_35_n04111531_18916.png
subject-01,1,952,0.772451877593994,keyboard,keyboard,pow,0952_pow_s01_pow_keyboard_35_n03085013_21325.png
subject-01,1,953,0.747691869735718,bird,bird,pow,0953_pow_s01_pow_bird_35_n01534433_14336.png
subject-01,1,954,0.610324144363403,airplane,airplane,pow,0954_pow_s01_pow_airplane_35_n02690373_12966.png
subject-01,1,955,0.548330068588257,clock,clock,0,0955_pow_s01_0_clock_35_n04548280_11806.png
subject-01,1,956,0.656730175018311,boat,airplane,pow,0956_pow_s01_pow_airplane_35_n02690373_9264.png
subject-01,1,957,0.786285877227783,bicycle,bicycle,pow,0957_pow_s01_pow_bicycle_35_n03792782_11625.png
subject-01,1,958,0.53314995765686,clock,clock,0,0958_pow_s01_0_clock_35_n03196217_2607.png
subject-01,1,959,0.53287410736084,clock,clock,0,0959_pow_s01_0_clock_35_n04548280_280.png
subject-01,1,960,1.08465886116028,truck,truck,0,0960_pow_s01_0_truck_35_n03417042_27966.png
subject-01,1,961,0.964761018753052,clock,knife,pow,0961_pow_s01_pow_knife_35_n03041632_84240.png
subject-01,1,962,0.611353158950806,car,car,0,0962_pow_s01_0_car_35_n04285008_1313.png
subject-01,1,963,0.55656886100769,chair,chair,pow,0963_pow_s01_pow_chair_35_n04099969_24378.png
subject-01,1,964,0.765359878540039,clock,clock,pow,0964_pow_s01_pow_clock_35_n04548280_1960.png
subject-01,1,965,0.642142057418823,car,car,pow,0965_pow_s01_pow_car_35_n04285008_5528.png
subject-01,1,966,0.587430953979492,oven,oven,pow,0966_pow_s01_pow_oven_35_n04111531_15743.png
subject-01,1,967,0.878834962844849,chair,chair,pow,0967_pow_s01_pow_chair_35_n02791124_1594.png
subject-01,1,968,0.580592155456543,oven,oven,0,0968_pow_s01_0_oven_35_n04111531_4585.png
subject-01,1,969,0.739861965179443,knife,knife,pow,0969_pow_s01_pow_knife_35_n03041632_27963.png
subject-01,1,970,0.702338933944702,bottle,bottle,0,0970_pow_s01_0_bottle_35_n03983396_21920.png
subject-01,1,971,0.581295967102051,oven,oven,0,0971_pow_s01_0_oven_35_n04111531_7625.png
subject-01,1,972,0.5867760181427,bear,bear,pow,0972_pow_s01_pow_bear_35_n02133161_6028.png
subject-01,1,973,0.624835968017578,bear,bear,pow,0973_pow_s01_pow_bear_35_n02132136_18276.png
subject-01,1,974,0.700921058654785,boat,boat,0,0974_pow_s01_0_boat_35_n03662601_5849.png
subject-01,1,975,0.892566204071045,bear,dog,pow,0975_pow_s01_pow_dog_35_n02104029_54.png
subject-01,1,976,0.639611005783081,clock,clock,pow,0976_pow_s01_pow_clock_35_n02708093_1023.png
subject-01,1,977,0.893912792205811,airplane,airplane,pow,0977_pow_s01_pow_airplane_35_n02690373_6755.png
subject-01,1,978,0.770141839981079,bird,bird,0,0978_pow_s01_0_bird_35_n01817953_31391.png
subject-01,1,979,0.69491982460022,bicycle,bicycle,pow,0979_pow_s01_pow_bicycle_35_n03792782_4167.png
subject-01,1,980,1.50025200843811,cat,cat,0,0980_pow_s01_0_cat_35_n02123159_6927.png
subject-01,1,981,0.56312108039856,bicycle,bicycle,0,0981_pow_s01_0_bicycle_35_n03792782_18529.png
subject-01,1,982,0.695895910263062,bicycle,bicycle,0,0982_pow_s01_0_bicycle_35_n02835271_8271.png
subject-01,1,983,0.580219030380249,airplane,airplane,pow,0983_pow_s01_pow_airplane_35_n02690373_5866.png
subject-01,1,984,0.594493865966797,boat,boat,pow,0984_pow_s01_pow_boat_35_n03344393_6260.png
subject-01,1,985,0.624458074569702,boat,boat,pow,0985_pow_s01_pow_boat_35_n04273569_113.png
subject-01,1,986,0.678359031677246,bear,bear,0,0986_pow_s01_0_bear_35_n02132136_900.png
subject-01,1,987,0.549007892608643,car,car,0,0987_pow_s01_0_car_35_n02814533_4449.png
subject-01,1,988,1.0099630355835,cat,cat,pow,0988_pow_s01_pow_cat_35_n02123394_2448.png
subject-01,1,989,0.649755954742432,clock,clock,0,0989_pow_s01_0_clock_35_n02708093_8079.png
subject-01,1,990,1.50011682510376,elephant,elephant,pow,0990_pow_s01_pow_elephant_35_n02504013_6420.png
subject-01,1,991,0.781546115875244,oven,oven,pow,0991_pow_s01_pow_oven_35_n04111531_7883.png
subject-01,1,992,0.948857069015503,boat,boat,0,0992_pow_s01_0_boat_35_n03662601_13847.png
subject-01,1,993,0.83349609375,truck,truck,0,0993_pow_s01_0_truck_35_n03417042_3659.png
subject-01,1,994,0.766077995300293,oven,oven,0,0994_pow_s01_0_oven_35_n04111531_19631.png
subject-01,1,995,0.64264702796936,boat,boat,pow,0995_pow_s01_pow_boat_35_n02951358_28889.png
subject-01,1,996,1.02089905738831,airplane,airplane,0,0996_pow_s01_0_airplane_35_n02690373_306.png
subject-01,1,997,0.596940994262695,car,car,0,0997_pow_s01_0_car_35_n02814533_18077.png
subject-01,1,998,0.605211973190308,elephant,elephant,0,0998_pow_s01_0_elephant_35_n02504013_354.png
subject-01,1,999,1.12863898277283,clock,chair,0,0999_pow_s01_0_chair_35_n04429376_6480.png
subject-01,1,1000,1.11256003379822,dog,dog,0,1000_pow_s01_0_dog_35_n02108000_6270.png
subject-01,1,1001,0.728975057601929,car,car,pow,1001_pow_s01_pow_car_35_n02814533_40876.png
subject-01,1,1002,0.874806880950928,bird,bird,0,1002_pow_s01_0_bird_35_n01817953_689.png
subject-01,1,1003,0.835072040557861,oven,keyboard,pow,1003_pow_s01_pow_keyboard_35_n03085013_22966.png
subject-01,1,1004,0.719053030014038,bicycle,bicycle,pow,1004_pow_s01_pow_bicycle_35_n02835271_1701.png
subject-01,1,1005,0.482071876525879,boat,boat,0,1005_pow_s01_0_boat_35_n04612504_2089.png
subject-01,1,1006,0.681946992874146,bear,bear,pow,1006_pow_s01_pow_bear_35_n02133161_8982.png
subject-01,1,1007,0.79889702796936,keyboard,keyboard,0,1007_pow_s01_0_keyboard_35_n03085013_23086.png
subject-01,1,1008,0.734314918518066,clock,clock,0,1008_pow_s01_0_clock_35_n03196217_3558.png
subject-01,1,1009,0.697447061538696,bird,bird,pow,1009_pow_s01_pow_bird_35_n01796340_11783.png
subject-01,1,1010,0.7377769947052,bicycle,bicycle,pow,1010_pow_s01_pow_bicycle_35_n03792782_4830.png
subject-01,1,1011,0.875066995620728,oven,bicycle,pow,1011_pow_s01_pow_bicycle_35_n02835271_771.png
subject-01,1,1012,0.659772157669067,oven,oven,0,1012_pow_s01_0_oven_35_n04111531_3976.png
subject-01,1,1013,0.522600173950195,boat,boat,pow,1013_pow_s01_pow_boat_35_n04612504_12657.png
subject-01,1,1014,0.543832063674927,clock,clock,pow,1014_pow_s01_pow_clock_35_n03196217_3063.png
subject-01,1,1015,1.35054898262024,airplane,boat,0,1015_pow_s01_0_boat_35_n04612504_434.png
subject-01,1,1016,0.951135873794556,car,truck,0,1016_pow_s01_0_truck_35_n03417042_27326.png
subject-01,1,1017,0.888481855392456,elephant,elephant,0,1017_pow_s01_0_elephant_35_n02504013_3843.png
subject-01,1,1018,1.06725406646729,dog,bird,pow,1018_pow_s01_pow_bird_35_n01514859_12245.png
subject-01,1,1019,0.789263010025024,knife,knife,0,1019_pow_s01_0_knife_35_n03041632_29355.png
subject-01,1,1020,0.689659118652344,bicycle,bicycle,pow,1020_pow_s01_pow_bicycle_35_n03792782_3357.png
subject-01,1,1021,0.72035813331604,airplane,airplane,0,1021_pow_s01_0_airplane_35_n02690373_6914.png
subject-01,1,1022,0.84441614151001,knife,knife,0,1022_pow_s01_0_knife_35_n03041632_383.png
subject-01,1,1023,0.949917078018188,bottle,bottle,0,1023_pow_s01_0_bottle_35_n02823428_641.png
subject-01,1,1024,0.720578193664551,bottle,bottle,pow,1024_pow_s01_pow_bottle_35_n04591713_1767.png
subject-01,1,1025,0.766637802124023,oven,oven,0,1025_pow_s01_0_oven_35_n04111531_19000.png
subject-01,1,1026,0.813376188278198,car,car,pow,1026_pow_s01_pow_car_35_n04285008_11745.png
subject-01,1,1027,0.74268913269043,boat,boat,pow,1027_pow_s01_pow_boat_35_n04273569_28992.png
subject-01,1,1028,0.847866058349609,bicycle,bicycle,0,1028_pow_s01_0_bicycle_35_n02835271_22263.png
subject-01,1,1029,0.556268930435181,keyboard,keyboard,0,1029_pow_s01_0_keyboard_35_n03085013_23465.png
subject-01,1,1030,0.649178981781006,chair,chair,0,1030_pow_s01_0_chair_35_n04429376_10544.png
subject-01,1,1031,0.656732082366943,keyboard,keyboard,0,1031_pow_s01_0_keyboard_35_n03085013_6986.png
subject-01,1,1032,0.54126501083374,oven,oven,pow,1032_pow_s01_pow_oven_35_n04111531_452.png
subject-01,1,1033,1.0800518989563,keyboard,clock,0,1033_pow_s01_0_clock_35_n02708093_353.png
subject-01,1,1034,0.757377147674561,bird,bird,pow,1034_pow_s01_pow_bird_35_n02017213_4528.png
subject-01,1,1035,1.44233798980713,truck,truck,0,1035_pow_s01_0_truck_35_n04467665_68137.png
subject-01,1,1036,0.826799154281616,keyboard,keyboard,0,1036_pow_s01_0_keyboard_35_n03085013_20138.png
subject-01,1,1037,1.48066306114197,keyboard,knife,pow,1037_pow_s01_pow_knife_35_n03041632_102764.png
subject-01,1,1038,1.30552196502686,truck,truck,pow,1038_pow_s01_pow_truck_35_n03796401_296.png
subject-01,1,1039,0.728212118148804,clock,clock,pow,1039_pow_s01_pow_clock_35_n02708093_6822.png
subject-01,1,1040,1.4421010017395,keyboard,truck,0,1040_pow_s01_0_truck_35_n03796401_8964.png
subject-01,1,1041,NaN,na,dog,0,1041_pow_s01_0_dog_35_n02086240_1231.png
subject-01,1,1042,0.928908824920654,elephant,elephant,pow,1042_pow_s01_pow_elephant_35_n02504458_5320.png
subject-01,1,1043,1.00921607017517,bear,bear,pow,1043_pow_s01_pow_bear_35_n02132136_31257.png
subject-01,1,1044,0.764276027679443,cat,cat,pow,1044_pow_s01_pow_cat_35_n02123394_1817.png
subject-01,1,1045,0.718271970748901,boat,boat,0,1045_pow_s01_0_boat_35_n02951358_30149.png
subject-01,1,1046,0.623311042785645,keyboard,keyboard,0,1046_pow_s01_0_keyboard_35_n03085013_19759.png
subject-01,1,1047,0.939789056777954,bear,bear,0,1047_pow_s01_0_bear_35_n02134418_4475.png
subject-01,1,1048,0.694183111190796,cat,cat,pow,1048_pow_s01_pow_cat_35_n02123394_4713.png
subject-01,1,1049,0.814262866973877,airplane,airplane,0,1049_pow_s01_0_airplane_35_n02690373_6614.png
subject-01,1,1050,0.769032955169678,dog,dog,0,1050_pow_s01_0_dog_35_n02106030_22.png
subject-01,1,1051,0.652976036071777,clock,bottle,0,1051_pow_s01_0_bottle_35_n04579145_2202.png
subject-01,1,1052,0.831274032592773,knife,knife,pow,1052_pow_s01_pow_knife_35_n03041632_37513.png
subject-01,1,1053,0.683304786682129,clock,clock,0,1053_pow_s01_0_clock_35_n04548280_5011.png
subject-01,1,1054,0.791210889816284,car,car,pow,1054_pow_s01_pow_car_35_n03100240_7056.png
subject-01,1,1055,0.683791875839233,car,car,pow,1055_pow_s01_pow_car_35_n03100240_10502.png
subject-01,1,1056,0.884135961532593,truck,bottle,pow,1056_pow_s01_pow_bottle_35_n03937543_2177.png
subject-01,1,1057,0.608595132827759,bear,bear,pow,1057_pow_s01_pow_bear_35_n02134084_5827.png
subject-01,1,1058,0.700986862182617,dog,dog,0,1058_pow_s01_0_dog_35_n02091831_4183.png
subject-01,1,1059,0.639887094497681,chair,chair,0,1059_pow_s01_0_chair_35_n04099969_13105.png
subject-01,1,1060,0.794270992279053,chair,chair,pow,1060_pow_s01_pow_chair_35_n03376595_2916.png
subject-01,1,1061,0.847659826278687,car,car,pow,1061_pow_s01_pow_car_35_n03100240_15676.png
