subj,session,trial,rt,object_response,category,condition,imagename
subject-06,1,1,0.983650922775269,airplane,airplane,pow,0001_pow_s06_pow_airplane_35_n02690373_8765.png
subject-06,1,2,0.698215007781982,oven,oven,0,0002_pow_s06_0_oven_35_n04111531_3159.png
subject-06,1,3,0.552232027053833,car,truck,pow,0003_pow_s06_pow_truck_35_n03796401_28190.png
subject-06,1,4,0.658172845840454,oven,oven,pow,0004_pow_s06_pow_oven_35_n04111531_769.png
subject-06,1,5,0.534723043441772,airplane,airplane,pow,0005_pow_s06_pow_airplane_35_n02690373_891.png
subject-06,1,6,0.786693096160889,dog,dog,pow,0006_pow_s06_pow_dog_35_n02100735_8149.png
subject-06,1,7,0.746851205825806,cat,cat,0,0007_pow_s06_0_cat_35_n02123597_2232.png
subject-06,1,8,0.647361993789673,bicycle,bicycle,pow,0008_pow_s06_pow_bicycle_35_n03792782_12844.png
subject-06,1,9,0.769341945648193,elephant,dog,pow,0009_pow_s06_pow_dog_35_n02113624_8130.png
subject-06,1,10,0.799875020980835,truck,truck,0,0010_pow_s06_0_truck_35_n03796401_9627.png
subject-06,1,11,0.836100101470947,oven,knife,pow,0011_pow_s06_pow_knife_35_n03041632_20433.png
subject-06,1,12,0.896033048629761,airplane,airplane,pow,0012_pow_s06_pow_airplane_35_n02690373_8783.png
subject-06,1,13,0.726721048355103,bear,bear,0,0013_pow_s06_0_bear_35_n02134084_15118.png
subject-06,1,14,0.656441926956177,bird,bird,pow,0014_pow_s06_pow_bird_35_n02033041_2320.png
subject-06,1,15,0.679636001586914,bird,bird,0,0015_pow_s06_0_bird_35_n01797886_26842.png
subject-06,1,16,0.568166971206665,bird,bird,pow,0016_pow_s06_pow_bird_35_n01797886_7202.png
subject-06,1,17,0.533129215240479,oven,oven,0,0017_pow_s06_0_oven_35_n04111531_22291.png
subject-06,1,18,0.763558864593506,bicycle,bicycle,pow,0018_pow_s06_pow_bicycle_35_n02835271_2904.png
subject-06,1,19,0.763838052749634,bottle,bottle,0,0019_pow_s06_0_bottle_35_n02823428_7624.png
subject-06,1,20,0.632437944412231,airplane,airplane,0,0020_pow_s06_0_airplane_35_n02690373_6887.png
subject-06,1,21,0.741051197052002,truck,truck,0,0021_pow_s06_0_truck_35_n04467665_20622.png
subject-06,1,22,0.607086896896362,chair,chair,0,0022_pow_s06_0_chair_35_n04429376_17343.png
subject-06,1,23,0.745085000991821,bird,bird,pow,0023_pow_s06_pow_bird_35_n02025239_3382.png
subject-06,1,24,0.938180923461914,truck,truck,0,0024_pow_s06_0_truck_35_n04467665_8806.png
subject-06,1,25,1.22034597396851,knife,knife,pow,0025_pow_s06_pow_knife_35_n03041632_2184.png
subject-06,1,26,0.742822885513306,bear,bear,0,0026_pow_s06_0_bear_35_n02132136_5146.png
subject-06,1,27,1.07320284843445,elephant,dog,pow,0027_pow_s06_pow_dog_35_n02111129_2206.png
subject-06,1,28,0.879209995269775,keyboard,keyboard,0,0028_pow_s06_0_keyboard_35_n04505470_986.png
subject-06,1,29,0.696004867553711,bear,bear,pow,0029_pow_s06_pow_bear_35_n02134418_5909.png
subject-06,1,30,1.04018807411194,keyboard,keyboard,0,0030_pow_s06_0_keyboard_35_n03085013_21055.png
subject-06,1,31,0.654892921447754,bird,bird,0,0031_pow_s06_0_bird_35_n01843383_26687.png
subject-06,1,32,1.29321908950806,dog,dog,pow,0032_pow_s06_pow_dog_35_n02110806_6127.png
subject-06,1,33,0.593585014343262,boat,boat,0,0033_pow_s06_0_boat_35_n03662601_28399.png
subject-06,1,34,0.93782901763916,clock,clock,0,0034_pow_s06_0_clock_35_n04548280_2383.png
subject-06,1,35,0.598519086837769,bear,bear,0,0035_pow_s06_0_bear_35_n02134084_23661.png
subject-06,1,36,0.682822227478027,truck,truck,pow,0036_pow_s06_pow_truck_35_n03796401_9446.png
subject-06,1,37,0.675309181213379,car,car,pow,0037_pow_s06_pow_car_35_n02814533_75173.png
subject-06,1,38,1.27954602241516,bird,boat,pow,0038_pow_s06_pow_boat_35_n04612504_6144.png
subject-06,1,39,0.858108043670654,bear,oven,pow,0039_pow_s06_pow_oven_35_n04111531_2770.png
subject-06,1,40,0.732287168502808,clock,clock,pow,0040_pow_s06_pow_clock_35_n04548280_6296.png
subject-06,1,41,0.51083517074585,bear,bear,pow,0041_pow_s06_pow_bear_35_n02133161_13503.png
subject-06,1,42,0.763021945953369,truck,truck,pow,0042_pow_s06_pow_truck_35_n04467665_26416.png
subject-06,1,43,1.18531203269958,clock,keyboard,0,0043_pow_s06_0_keyboard_35_n04505470_7728.png
subject-06,1,44,0.99989914894104,bear,oven,0,0044_pow_s06_0_oven_35_n04111531_1989.png
subject-06,1,45,0.738291025161743,bicycle,bicycle,pow,0045_pow_s06_pow_bicycle_35_n03792782_14370.png
subject-06,1,46,0.998721837997437,bottle,bottle,0,0046_pow_s06_0_bottle_35_n03983396_9199.png
subject-06,1,47,0.583166122436523,clock,clock,0,0047_pow_s06_0_clock_35_n02708093_7257.png
subject-06,1,48,0.62773609161377,bear,bear,pow,0048_pow_s06_pow_bear_35_n02134084_3755.png
subject-06,1,49,0.658330917358398,bicycle,bicycle,0,0049_pow_s06_0_bicycle_35_n02835271_12950.png
subject-06,1,50,0.988569974899292,dog,dog,pow,0050_pow_s06_pow_dog_35_n02113023_3683.png
subject-06,1,51,0.653285980224609,cat,cat,0,0051_pow_s06_0_cat_35_n02123045_10203.png
subject-06,1,52,0.61611008644104,dog,dog,pow,0052_pow_s06_pow_dog_35_n02108000_5423.png
subject-06,1,53,0.70625901222229,bear,bear,pow,0053_pow_s06_pow_bear_35_n02134418_628.png
subject-06,1,54,0.636682987213135,bicycle,bicycle,0,0054_pow_s06_0_bicycle_35_n02835271_8017.png
subject-06,1,55,0.613160133361816,chair,chair,0,0055_pow_s06_0_chair_35_n02791124_1466.png
subject-06,1,56,0.66750693321228,bicycle,bicycle,0,0056_pow_s06_0_bicycle_35_n03792782_1933.png
subject-06,1,57,0.841367959976196,keyboard,keyboard,pow,0057_pow_s06_pow_keyboard_35_n03085013_18909.png
subject-06,1,58,0.701814889907837,bottle,bottle,0,0058_pow_s06_0_bottle_35_n04557648_3662.png
subject-06,1,59,0.74009895324707,keyboard,keyboard,pow,0059_pow_s06_pow_keyboard_35_n03085013_20483.png
subject-06,1,60,0.532238960266113,bird,bird,0,0060_pow_s06_0_bird_35_n02028035_12299.png
subject-06,1,61,0.814326047897339,elephant,elephant,0,0061_pow_s06_0_elephant_35_n02504458_6792.png
subject-06,1,62,0.49025297164917,clock,clock,0,0062_pow_s06_0_clock_35_n04548280_5525.png
subject-06,1,63,0.864336013793945,bicycle,bicycle,pow,0063_pow_s06_pow_bicycle_35_n03792782_10366.png
subject-06,1,64,0.886924028396606,dog,dog,0,0064_pow_s06_0_dog_35_n02086240_6128.png
subject-06,1,65,1.2411470413208,bicycle,bicycle,pow,0065_pow_s06_pow_bicycle_35_n03792782_442.png
subject-06,1,66,1.18227505683899,dog,dog,pow,0066_pow_s06_pow_dog_35_n02105056_11214.png
subject-06,1,67,0.622763156890869,keyboard,keyboard,0,0067_pow_s06_0_keyboard_35_n03085013_11469.png
subject-06,1,68,0.620961904525757,airplane,airplane,0,0068_pow_s06_0_airplane_35_n02690373_6459.png
subject-06,1,69,1.15146112442017,airplane,oven,0,0069_pow_s06_0_oven_35_n04111531_1362.png
subject-06,1,70,1.03594994544983,clock,dog,pow,0070_pow_s06_pow_dog_35_n02096051_892.png
subject-06,1,71,0.91193699836731,bear,dog,pow,0071_pow_s06_pow_dog_35_n02113712_5712.png
subject-06,1,72,0.869829893112183,truck,truck,0,0072_pow_s06_0_truck_35_n04467665_24996.png
subject-06,1,73,0.940594911575317,bottle,bottle,pow,0073_pow_s06_pow_bottle_35_n02823428_4569.png
subject-06,1,74,0.823477983474731,bird,bird,0,0074_pow_s06_0_bird_35_n01833805_3733.png
subject-06,1,75,0.861334085464478,truck,truck,0,0075_pow_s06_0_truck_35_n04467665_30504.png
subject-06,1,76,0.728940963745117,bottle,oven,0,0076_pow_s06_0_oven_35_n04111531_81.png
subject-06,1,77,0.850902080535889,chair,chair,0,0077_pow_s06_0_chair_35_n02791124_3018.png
subject-06,1,78,0.657370090484619,car,car,pow,0078_pow_s06_pow_car_35_n04285008_8974.png
subject-06,1,79,0.909847021102905,bear,elephant,0,0079_pow_s06_0_elephant_35_n02504013_6976.png
subject-06,1,80,1.13956904411316,keyboard,keyboard,pow,0080_pow_s06_pow_keyboard_35_n04505470_2595.png
subject-06,1,81,0.983728170394897,bird,bird,pow,0081_pow_s06_pow_bird_35_n02006656_5132.png
subject-06,1,82,0.651830911636353,bicycle,bicycle,pow,0082_pow_s06_pow_bicycle_35_n03792782_49889.png
subject-06,1,83,1.38839197158813,truck,boat,0,0083_pow_s06_0_boat_35_n03344393_3328.png
subject-06,1,84,0.664032936096191,chair,chair,0,0084_pow_s06_0_chair_35_n04099969_7492.png
subject-06,1,85,0.710624933242798,truck,truck,0,0085_pow_s06_0_truck_35_n03417042_20826.png
subject-06,1,86,0.529279947280884,car,car,0,0086_pow_s06_0_car_35_n04285008_312.png
subject-06,1,87,0.981818199157715,oven,oven,pow,0087_pow_s06_pow_oven_35_n04111531_8917.png
subject-06,1,88,0.696200132369995,bicycle,bicycle,pow,0088_pow_s06_pow_bicycle_35_n02835271_6094.png
subject-06,1,89,1.32862305641174,bird,cat,pow,0089_pow_s06_pow_cat_35_n02124075_5369.png
subject-06,1,90,0.873178005218506,elephant,elephant,0,0090_pow_s06_0_elephant_35_n02504458_6202.png
subject-06,1,91,0.649779081344604,bicycle,bicycle,pow,0091_pow_s06_pow_bicycle_35_n02835271_14157.png
subject-06,1,92,0.523484945297241,oven,oven,0,0092_pow_s06_0_oven_35_n04111531_6695.png
subject-06,1,93,0.537894010543823,clock,clock,pow,0093_pow_s06_pow_clock_35_n04548280_8649.png
subject-06,1,94,0.99810004234314,keyboard,keyboard,pow,0094_pow_s06_pow_keyboard_35_n03085013_20914.png
subject-06,1,95,0.912756204605103,elephant,elephant,0,0095_pow_s06_0_elephant_35_n02504458_3118.png
subject-06,1,96,0.796844959259033,dog,dog,pow,0096_pow_s06_pow_dog_35_n02102177_702.png
subject-06,1,97,0.678021192550659,bicycle,bicycle,pow,0097_pow_s06_pow_bicycle_35_n03792782_1004.png
subject-06,1,98,0.578675985336304,bear,bear,0,0098_pow_s06_0_bear_35_n02133161_11276.png
subject-06,1,99,1.05291509628296,bicycle,bicycle,pow,0099_pow_s06_pow_bicycle_35_n03792782_3410.png
subject-06,1,100,0.545179128646851,bottle,bottle,0,0100_pow_s06_0_bottle_35_n03983396_313.png
subject-06,1,101,0.845815896987915,cat,cat,0,0101_pow_s06_0_cat_35_n02123394_2518.png
subject-06,1,102,0.943955898284912,cat,cat,0,0102_pow_s06_0_cat_35_n02125311_31958.png
subject-06,1,103,0.973973035812378,knife,knife,0,0103_pow_s06_0_knife_35_n03041632_3926.png
subject-06,1,104,0.910681009292603,knife,knife,0,0104_pow_s06_0_knife_35_n03041632_31367.png
subject-06,1,105,0.756788015365601,knife,knife,0,0105_pow_s06_0_knife_35_n03041632_6575.png
subject-06,1,106,0.725245952606201,airplane,airplane,0,0106_pow_s06_0_airplane_35_n02690373_3408.png
subject-06,1,107,1.00163602828979,cat,cat,0,0107_pow_s06_0_cat_35_n02123394_6528.png
subject-06,1,108,0.662310123443604,truck,truck,pow,0108_pow_s06_pow_truck_35_n03417042_4188.png
subject-06,1,109,1.05291390419006,truck,truck,0,0109_pow_s06_0_truck_35_n03417042_7204.png
subject-06,1,110,0.612520933151245,boat,boat,pow,0110_pow_s06_pow_boat_35_n02951358_26332.png
subject-06,1,111,0.791127920150757,bear,oven,0,0111_pow_s06_0_oven_35_n04111531_13831.png
subject-06,1,112,0.987429141998291,knife,bottle,pow,0112_pow_s06_pow_bottle_35_n03983396_3516.png
subject-06,1,113,0.504066944122314,car,car,0,0113_pow_s06_0_car_35_n04285008_8396.png
subject-06,1,114,0.664109945297241,bottle,bottle,0,0114_pow_s06_0_bottle_35_n03983396_5408.png
subject-06,1,115,0.632272958755493,airplane,airplane,0,0115_pow_s06_0_airplane_35_n02690373_6516.png
subject-06,1,116,0.998869895935059,car,bottle,pow,0116_pow_s06_pow_bottle_35_n02823428_1545.png
subject-06,1,117,0.577200174331665,car,car,pow,0117_pow_s06_pow_car_35_n03100240_6951.png
subject-06,1,118,0.729496002197266,oven,oven,pow,0118_pow_s06_pow_oven_35_n04111531_5290.png
subject-06,1,119,1.08191704750061,bear,elephant,pow,0119_pow_s06_pow_elephant_35_n02504458_3147.png
subject-06,1,120,0.974415063858032,airplane,airplane,pow,0120_pow_s06_pow_airplane_35_n02690373_12896.png
subject-06,1,121,0.734755992889404,car,car,0,0121_pow_s06_0_car_35_n03100240_10208.png
subject-06,1,122,1.31681704521179,airplane,bird,0,0122_pow_s06_0_bird_35_n01818515_14240.png
subject-06,1,123,0.493123054504395,bicycle,bicycle,0,0123_pow_s06_0_bicycle_35_n02835271_24498.png
subject-06,1,124,0.653569936752319,elephant,elephant,pow,0124_pow_s06_pow_elephant_35_n02504013_6660.png
subject-06,1,125,0.921496152877808,knife,knife,pow,0125_pow_s06_pow_knife_35_n03041632_737.png
subject-06,1,126,0.581680059432983,bottle,bottle,pow,0126_pow_s06_pow_bottle_35_n02823428_4336.png
subject-06,1,127,1.07384204864502,knife,boat,0,0127_pow_s06_0_boat_35_n04273569_1449.png
subject-06,1,128,0.804657936096191,clock,clock,0,0128_pow_s06_0_clock_35_n04548280_3080.png
subject-06,1,129,1.02475905418396,knife,keyboard,0,0129_pow_s06_0_keyboard_35_n04505470_2250.png
subject-06,1,130,0.732774019241333,airplane,airplane,0,0130_pow_s06_0_airplane_35_n02690373_3362.png
subject-06,1,131,0.717107057571411,bottle,bottle,0,0131_pow_s06_0_bottle_35_n04560804_2685.png
subject-06,1,132,0.631814956665039,cat,dog,0,0132_pow_s06_0_dog_35_n02100735_2043.png
subject-06,1,133,0.70018196105957,truck,truck,pow,0133_pow_s06_pow_truck_35_n03417042_5752.png
subject-06,1,134,1.14496684074402,car,knife,pow,0134_pow_s06_pow_knife_35_n03041632_25479.png
subject-06,1,135,0.767199039459229,keyboard,keyboard,pow,0135_pow_s06_pow_keyboard_35_n04505470_7659.png
subject-06,1,136,0.905549049377441,elephant,elephant,0,0136_pow_s06_0_elephant_35_n02504013_2997.png
subject-06,1,137,0.641921043395996,bottle,bottle,0,0137_pow_s06_0_bottle_35_n02823428_1186.png
subject-06,1,138,0.618389844894409,keyboard,keyboard,0,0138_pow_s06_0_keyboard_35_n03085013_19581.png
subject-06,1,139,NaN,na,bottle,pow,0139_pow_s06_pow_bottle_35_n04557648_1014.png
subject-06,1,140,0.816884994506836,chair,chair,0,0140_pow_s06_0_chair_35_n04429376_7439.png
subject-06,1,141,0.855111837387085,bottle,bottle,0,0141_pow_s06_0_bottle_35_n04591713_6667.png
subject-06,1,142,0.637037992477417,car,car,0,0142_pow_s06_0_car_35_n02814533_73184.png
subject-06,1,143,0.997118949890137,truck,truck,pow,0143_pow_s06_pow_truck_35_n03417042_15045.png
subject-06,1,144,0.65713095664978,elephant,elephant,0,0144_pow_s06_0_elephant_35_n02504458_4884.png
subject-06,1,145,0.557828903198242,boat,boat,0,0145_pow_s06_0_boat_35_n04273569_3893.png
subject-06,1,146,0.731866836547852,bicycle,bicycle,0,0146_pow_s06_0_bicycle_35_n03792782_10929.png
subject-06,1,147,0.678102970123291,bear,bear,pow,0147_pow_s06_pow_bear_35_n02134084_22801.png
subject-06,1,148,0.792415142059326,knife,knife,pow,0148_pow_s06_pow_knife_35_n03041632_12748.png
subject-06,1,149,0.690944910049438,oven,oven,0,0149_pow_s06_0_oven_35_n04111531_14848.png
subject-06,1,150,1.18850994110107,keyboard,bottle,pow,0150_pow_s06_pow_bottle_35_n03983396_5726.png
subject-06,1,151,0.632991075515747,chair,chair,pow,0151_pow_s06_pow_chair_35_n04099969_5730.png
subject-06,1,152,0.633452177047729,bird,bird,0,0152_pow_s06_0_bird_35_n01614925_8489.png
subject-06,1,153,1.16138505935669,dog,dog,0,0153_pow_s06_0_dog_35_n02098286_5042.png
subject-06,1,154,0.729036092758179,keyboard,keyboard,pow,0154_pow_s06_pow_keyboard_35_n03085013_7780.png
subject-06,1,155,0.756974935531616,dog,cat,0,0155_pow_s06_0_cat_35_n02123394_432.png
subject-06,1,156,0.763309001922607,clock,clock,pow,0156_pow_s06_pow_clock_35_n04548280_1202.png
subject-06,1,157,0.755535840988159,chair,chair,0,0157_pow_s06_0_chair_35_n02791124_57.png
subject-06,1,158,1.28409886360168,keyboard,clock,pow,0158_pow_s06_pow_clock_35_n03196217_4232.png
subject-06,1,159,0.722790002822876,knife,knife,pow,0159_pow_s06_pow_knife_35_n03041632_12707.png
subject-06,1,160,0.645148992538452,keyboard,keyboard,0,0160_pow_s06_0_keyboard_35_n03085013_19601.png
subject-06,1,161,0.830491065979004,car,car,pow,0161_pow_s06_pow_car_35_n02814533_45193.png
subject-06,1,162,0.814832210540771,bicycle,bicycle,pow,0162_pow_s06_pow_bicycle_35_n02835271_15512.png
subject-06,1,163,0.742760896682739,clock,clock,0,0163_pow_s06_0_clock_35_n04548280_23.png
subject-06,1,164,0.781124114990234,bottle,bottle,pow,0164_pow_s06_pow_bottle_35_n03983396_3338.png
subject-06,1,165,0.727644920349121,dog,dog,0,0165_pow_s06_0_dog_35_n02108000_6083.png
subject-06,1,166,0.902141094207764,dog,dog,0,0166_pow_s06_0_dog_35_n02101556_2801.png
subject-06,1,167,0.648732900619507,keyboard,keyboard,pow,0167_pow_s06_pow_keyboard_35_n04505470_4513.png
subject-06,1,168,0.660505056381226,bottle,bottle,pow,0168_pow_s06_pow_bottle_35_n03983396_3702.png
subject-06,1,169,0.798479080200195,oven,oven,pow,0169_pow_s06_pow_oven_35_n04111531_1482.png
subject-06,1,170,0.466796159744263,clock,clock,0,0170_pow_s06_0_clock_35_n04548280_7854.png
subject-06,1,171,0.764989137649536,bottle,bottle,0,0171_pow_s06_0_bottle_35_n03937543_7493.png
subject-06,1,172,0.64159107208252,keyboard,keyboard,pow,0172_pow_s06_pow_keyboard_35_n03085013_2853.png
subject-06,1,173,0.969725847244263,keyboard,chair,pow,0173_pow_s06_pow_chair_35_n04429376_19103.png
subject-06,1,174,0.754185914993286,airplane,airplane,pow,0174_pow_s06_pow_airplane_35_n02690373_2700.png
subject-06,1,175,1.19811415672302,knife,knife,pow,0175_pow_s06_pow_knife_35_n03041632_13465.png
subject-06,1,176,1.11248517036438,bicycle,bird,pow,0176_pow_s06_pow_bird_35_n02037110_8813.png
subject-06,1,177,0.652062892913818,car,car,pow,0177_pow_s06_pow_car_35_n02814533_93092.png
subject-06,1,178,0.720299959182739,knife,knife,0,0178_pow_s06_0_knife_35_n03041632_33326.png
subject-06,1,179,0.772408962249756,clock,clock,0,0179_pow_s06_0_clock_35_n03196217_2805.png
subject-06,1,180,0.940776824951172,chair,chair,0,0180_pow_s06_0_chair_35_n02791124_346.png
subject-06,1,181,0.685139179229736,airplane,airplane,pow,0181_pow_s06_pow_airplane_35_n02690373_19118.png
subject-06,1,182,0.661588191986084,airplane,airplane,pow,0182_pow_s06_pow_airplane_35_n02690373_17130.png
subject-06,1,183,0.629863023757935,bird,bird,pow,0183_pow_s06_pow_bird_35_n01601694_7891.png
subject-06,1,184,1.01983594894409,cat,elephant,0,0184_pow_s06_0_elephant_35_n02504013_5774.png
subject-06,1,185,1.50029706954956,cat,chair,pow,0185_pow_s06_pow_chair_35_n03376595_25.png
subject-06,1,186,0.631783008575439,keyboard,keyboard,pow,0186_pow_s06_pow_keyboard_35_n03085013_23867.png
subject-06,1,187,0.684044122695923,elephant,elephant,pow,0187_pow_s06_pow_elephant_35_n02504458_6524.png
subject-06,1,188,1.09847116470337,oven,oven,pow,0188_pow_s06_pow_oven_35_n04111531_12942.png
subject-06,1,189,1.14304685592651,oven,bottle,pow,0189_pow_s06_pow_bottle_35_n04560804_15559.png
subject-06,1,190,1.20335912704468,bottle,bottle,0,0190_pow_s06_0_bottle_35_n04557648_2430.png
subject-06,1,191,0.855538129806519,elephant,elephant,0,0191_pow_s06_0_elephant_35_n02504458_6433.png
subject-06,1,192,1.04793310165405,boat,boat,0,0192_pow_s06_0_boat_35_n02951358_8456.png
subject-06,1,193,0.762253999710083,clock,clock,0,0193_pow_s06_0_clock_35_n02708093_151.png
subject-06,1,194,0.814904928207397,car,car,pow,0194_pow_s06_pow_car_35_n03100240_7139.png
subject-06,1,195,0.875058889389038,airplane,airplane,0,0195_pow_s06_0_airplane_35_n02690373_1051.png
subject-06,1,196,0.981167793273926,elephant,elephant,pow,0196_pow_s06_pow_elephant_35_n02504458_4426.png
subject-06,1,197,1.12555408477783,elephant,dog,0,0197_pow_s06_0_dog_35_n02093428_967.png
subject-06,1,198,0.77012300491333,knife,knife,0,0198_pow_s06_0_knife_35_n03041632_21477.png
subject-06,1,199,1.29268503189087,boat,boat,pow,0199_pow_s06_pow_boat_35_n03662601_17151.png
subject-06,1,200,1.19905185699463,cat,bear,pow,0200_pow_s06_pow_bear_35_n02133161_12349.png
subject-06,1,201,0.821864128112793,car,car,pow,0201_pow_s06_pow_car_35_n04285008_3005.png
subject-06,1,202,0.890373945236206,knife,knife,0,0202_pow_s06_0_knife_35_n03041632_51339.png
subject-06,1,203,0.80460000038147,chair,chair,pow,0203_pow_s06_pow_chair_35_n03376595_1149.png
subject-06,1,204,0.986983060836792,dog,dog,pow,0204_pow_s06_pow_dog_35_n02110063_12344.png
subject-06,1,205,0.787262201309204,bear,bear,pow,0205_pow_s06_pow_bear_35_n02132136_23594.png
subject-06,1,206,0.893835067749023,elephant,elephant,0,0206_pow_s06_0_elephant_35_n02504458_3066.png
subject-06,1,207,0.4841148853302,car,car,0,0207_pow_s06_0_car_35_n03100240_3955.png
subject-06,1,208,0.721901893615723,knife,knife,pow,0208_pow_s06_pow_knife_35_n03041632_38610.png
subject-06,1,209,0.888561010360718,knife,knife,0,0209_pow_s06_0_knife_35_n03041632_31301.png
subject-06,1,210,0.634963989257812,knife,knife,pow,0210_pow_s06_pow_knife_35_n03041632_2973.png
subject-06,1,211,0.747332811355591,cat,cat,pow,0211_pow_s06_pow_cat_35_n02123597_9846.png
subject-06,1,212,0.655828952789307,cat,cat,pow,0212_pow_s06_pow_cat_35_n02124075_10590.png
subject-06,1,213,0.569905042648315,truck,boat,0,0213_pow_s06_0_boat_35_n03344393_7706.png
subject-06,1,214,0.782402038574219,keyboard,keyboard,0,0214_pow_s06_0_keyboard_35_n03085013_17452.png
subject-06,1,215,0.683758974075317,bicycle,bicycle,pow,0215_pow_s06_pow_bicycle_35_n02835271_13608.png
subject-06,1,216,0.673878192901611,bicycle,bicycle,0,0216_pow_s06_0_bicycle_35_n02835271_8180.png
subject-06,1,217,0.750421047210693,oven,oven,pow,0217_pow_s06_pow_oven_35_n04111531_8290.png
subject-06,1,218,0.824544906616211,bicycle,bicycle,pow,0218_pow_s06_pow_bicycle_35_n03792782_975.png
subject-06,1,219,1.02336406707764,chair,chair,0,0219_pow_s06_0_chair_35_n03376595_1994.png
subject-06,1,220,0.937509059906006,elephant,elephant,pow,0220_pow_s06_pow_elephant_35_n02504458_5849.png
subject-06,1,221,1.19007015228271,bicycle,oven,pow,0221_pow_s06_pow_oven_35_n04111531_2592.png
subject-06,1,222,0.920823097229004,boat,boat,0,0222_pow_s06_0_boat_35_n04612504_10055.png
subject-06,1,223,1.28666806221008,truck,truck,0,0223_pow_s06_0_truck_35_n04467665_30023.png
subject-06,1,224,0.786684989929199,airplane,airplane,pow,0224_pow_s06_pow_airplane_35_n02690373_9.png
subject-06,1,225,0.868911027908325,knife,knife,0,0225_pow_s06_0_knife_35_n03041632_36235.png
subject-06,1,226,0.953233957290649,bear,bear,pow,0226_pow_s06_pow_bear_35_n02133161_4524.png
subject-06,1,227,0.505272150039673,cat,cat,pow,0227_pow_s06_pow_cat_35_n02123159_4318.png
subject-06,1,228,1.10360789299011,bird,bird,pow,0228_pow_s06_pow_bird_35_n02009912_10384.png
subject-06,1,229,0.863826036453247,bear,bear,pow,0229_pow_s06_pow_bear_35_n02132136_7199.png
subject-06,1,230,0.854208946228027,chair,chair,pow,0230_pow_s06_pow_chair_35_n04099969_2109.png
subject-06,1,231,0.836183071136475,knife,knife,0,0231_pow_s06_0_knife_35_n03041632_2644.png
subject-06,1,232,0.536575078964233,boat,boat,pow,0232_pow_s06_pow_boat_35_n02951358_33657.png
subject-06,1,233,0.827001810073853,car,car,pow,0233_pow_s06_pow_car_35_n02814533_15771.png
subject-06,1,234,0.77131199836731,bicycle,bicycle,pow,0234_pow_s06_pow_bicycle_35_n03792782_9635.png
subject-06,1,235,0.539868116378784,clock,clock,0,0235_pow_s06_0_clock_35_n02708093_1923.png
subject-06,1,236,0.837998151779175,boat,boat,pow,0236_pow_s06_pow_boat_35_n03344393_9777.png
subject-06,1,237,0.890737056732178,bear,bird,pow,0237_pow_s06_pow_bird_35_n01824575_1034.png
subject-06,1,238,1.09657692909241,elephant,elephant,pow,0238_pow_s06_pow_elephant_35_n02504458_6301.png
subject-06,1,239,0.686709880828857,bottle,bottle,pow,0239_pow_s06_pow_bottle_35_n03983396_7763.png
subject-06,1,240,1.26859593391418,chair,oven,pow,0240_pow_s06_pow_oven_35_n04111531_3265.png
subject-06,1,241,0.76903510093689,car,car,0,0241_pow_s06_0_car_35_n02814533_13770.png
subject-06,1,242,0.997380971908569,cat,cat,pow,0242_pow_s06_pow_cat_35_n02124075_8629.png
subject-06,1,243,1.01152300834656,bird,bird,0,0243_pow_s06_0_bird_35_n01824575_11372.png
subject-06,1,244,NaN,na,oven,pow,0244_pow_s06_pow_oven_35_n04111531_9334.png
subject-06,1,245,1.07790803909302,cat,cat,pow,0245_pow_s06_pow_cat_35_n02123597_6854.png
subject-06,1,246,1.16030120849609,bird,bird,pow,0246_pow_s06_pow_bird_35_n02025239_4737.png
subject-06,1,247,0.636549949645996,bird,bird,0,0247_pow_s06_0_bird_35_n02033041_9728.png
subject-06,1,248,0.680389881134033,airplane,airplane,0,0248_pow_s06_0_airplane_35_n02690373_10514.png
subject-06,1,249,0.546518087387085,oven,oven,0,0249_pow_s06_0_oven_35_n04111531_2086.png
subject-06,1,250,0.63075590133667,chair,chair,pow,0250_pow_s06_pow_chair_35_n02791124_4296.png
subject-06,1,251,0.591162919998169,oven,oven,pow,0251_pow_s06_pow_oven_35_n04111531_12510.png
subject-06,1,252,1.15727496147156,boat,keyboard,pow,0252_pow_s06_pow_keyboard_35_n03085013_22217.png
subject-06,1,253,1.12507295608521,keyboard,chair,pow,0253_pow_s06_pow_chair_35_n04429376_48374.png
subject-06,1,254,0.977235078811646,bicycle,bicycle,0,0254_pow_s06_0_bicycle_35_n02835271_14670.png
subject-06,1,255,1.09759593009949,bottle,bottle,pow,0255_pow_s06_pow_bottle_35_n04591713_3753.png
subject-06,1,256,1.44961500167847,oven,boat,pow,0256_pow_s06_pow_boat_35_n04273569_15735.png
subject-06,1,257,0.80419921875,boat,boat,0,0257_pow_s06_0_boat_35_n03344393_1945.png
subject-06,1,258,0.648662090301514,bear,bear,pow,0258_pow_s06_pow_bear_35_n02133161_1219.png
subject-06,1,259,0.608882904052734,cat,cat,pow,0259_pow_s06_pow_cat_35_n02124075_10061.png
subject-06,1,260,0.960815906524658,clock,clock,0,0260_pow_s06_0_clock_35_n03196217_1622.png
subject-06,1,261,1.14338898658752,knife,knife,pow,0261_pow_s06_pow_knife_35_n03041632_3171.png
subject-06,1,262,1.07398104667664,car,car,0,0262_pow_s06_0_car_35_n04285008_12727.png
subject-06,1,263,1.40198993682861,airplane,airplane,0,0263_pow_s06_0_airplane_35_n02690373_3047.png
subject-06,1,264,0.870469093322754,elephant,elephant,0,0264_pow_s06_0_elephant_35_n02504458_5423.png
subject-06,1,265,0.592499971389771,boat,boat,pow,0265_pow_s06_pow_boat_35_n03344393_4213.png
subject-06,1,266,0.799084901809692,car,boat,0,0266_pow_s06_0_boat_35_n02951358_94.png
subject-06,1,267,0.835006952285767,chair,chair,0,0267_pow_s06_0_chair_35_n02791124_17035.png
subject-06,1,268,1.24127411842346,boat,boat,pow,0268_pow_s06_pow_boat_35_n03662601_37095.png
subject-06,1,269,0.638592004776001,chair,bottle,pow,0269_pow_s06_pow_bottle_35_n02823428_3935.png
subject-06,1,270,0.958962202072144,chair,chair,pow,0270_pow_s06_pow_chair_35_n03376595_15447.png
subject-06,1,271,1.13533210754395,bottle,bottle,0,0271_pow_s06_0_bottle_35_n04557648_455.png
subject-06,1,272,0.603399991989136,bottle,bottle,pow,0272_pow_s06_pow_bottle_35_n03983396_20499.png
subject-06,1,273,0.947973012924194,keyboard,keyboard,0,0273_pow_s06_0_keyboard_35_n04505470_518.png
subject-06,1,274,0.870497941970825,oven,oven,0,0274_pow_s06_0_oven_35_n04111531_9611.png
subject-06,1,275,1.34472990036011,oven,knife,pow,0275_pow_s06_pow_knife_35_n03041632_27929.png
subject-06,1,276,0.583230018615723,bear,bear,0,0276_pow_s06_0_bear_35_n02134084_34722.png
subject-06,1,277,0.577584028244019,boat,boat,0,0277_pow_s06_0_boat_35_n04612504_37673.png
subject-06,1,278,1.08984112739563,boat,boat,pow,0278_pow_s06_pow_boat_35_n03662601_16441.png
subject-06,1,279,0.965698003768921,knife,knife,pow,0279_pow_s06_pow_knife_35_n03041632_40283.png
subject-06,1,280,1.26455593109131,boat,truck,pow,0280_pow_s06_pow_truck_35_n03796401_11473.png
subject-06,1,281,1.23284196853638,airplane,airplane,pow,0281_pow_s06_pow_airplane_35_n02690373_5870.png
subject-06,1,282,0.914957046508789,bear,bird,pow,0282_pow_s06_pow_bird_35_n01532829_1943.png
subject-06,1,283,0.999022960662842,boat,boat,pow,0283_pow_s06_pow_boat_35_n02951358_2537.png
subject-06,1,284,1.19029879570007,knife,bird,0,0284_pow_s06_0_bird_35_n01817953_1457.png
subject-06,1,285,0.691158056259155,bird,bird,pow,0285_pow_s06_pow_bird_35_n02009912_3735.png
subject-06,1,286,0.781816005706787,dog,dog,0,0286_pow_s06_0_dog_35_n02098105_7952.png
subject-06,1,287,1.004634141922,airplane,airplane,0,0287_pow_s06_0_airplane_35_n02690373_6200.png
subject-06,1,288,0.743591070175171,bicycle,bicycle,pow,0288_pow_s06_pow_bicycle_35_n02835271_2594.png
subject-06,1,289,0.688333988189697,bird,bird,0,0289_pow_s06_0_bird_35_n01819313_16699.png
subject-06,1,290,0.586088180541992,car,car,pow,0290_pow_s06_pow_car_35_n03100240_2148.png
subject-06,1,291,0.63870096206665,truck,truck,pow,0291_pow_s06_pow_truck_35_n03417042_29793.png
subject-06,1,292,0.693407773971558,airplane,airplane,0,0292_pow_s06_0_airplane_35_n02690373_7375.png
subject-06,1,293,0.691493034362793,keyboard,keyboard,0,0293_pow_s06_0_keyboard_35_n04505470_4603.png
subject-06,1,294,0.881870031356812,knife,knife,0,0294_pow_s06_0_knife_35_n03041632_13478.png
subject-06,1,295,0.817940950393677,bear,chair,pow,0295_pow_s06_pow_chair_35_n04099969_7925.png
subject-06,1,296,1.36191987991333,knife,knife,0,0296_pow_s06_0_knife_35_n03041632_15099.png
subject-06,1,297,0.73763108253479,truck,truck,0,0297_pow_s06_0_truck_35_n04467665_39237.png
subject-06,1,298,1.01179599761963,elephant,elephant,pow,0298_pow_s06_pow_elephant_35_n02504458_4981.png
subject-06,1,299,0.641895055770874,cat,cat,0,0299_pow_s06_0_cat_35_n02124075_10245.png
subject-06,1,300,1.34584212303162,chair,clock,pow,0300_pow_s06_pow_clock_35_n04548280_2522.png
subject-06,1,301,0.664407014846802,oven,oven,pow,0301_pow_s06_pow_oven_35_n04111531_14934.png
subject-06,1,302,0.698993921279907,oven,oven,pow,0302_pow_s06_pow_oven_35_n04111531_20429.png
subject-06,1,303,0.613040924072266,truck,truck,pow,0303_pow_s06_pow_truck_35_n03796401_22643.png
subject-06,1,304,1.44688320159912,knife,knife,pow,0304_pow_s06_pow_knife_35_n03041632_36277.png
subject-06,1,305,0.922968864440918,bottle,bottle,pow,0305_pow_s06_pow_bottle_35_n03983396_4642.png
subject-06,1,306,0.68346905708313,clock,clock,0,0306_pow_s06_0_clock_35_n04548280_1233.png
subject-06,1,307,0.682063817977905,elephant,elephant,pow,0307_pow_s06_pow_elephant_35_n02504013_5893.png
subject-06,1,308,0.872667074203491,bicycle,bicycle,pow,0308_pow_s06_pow_bicycle_35_n02835271_8531.png
subject-06,1,309,0.717236042022705,truck,truck,pow,0309_pow_s06_pow_truck_35_n04467665_1077.png
subject-06,1,310,0.823102951049805,bicycle,bicycle,pow,0310_pow_s06_pow_bicycle_35_n02835271_9106.png
subject-06,1,311,1.39706802368164,elephant,elephant,pow,0311_pow_s06_pow_elephant_35_n02504458_7322.png
subject-06,1,312,0.919519186019897,truck,truck,pow,0312_pow_s06_pow_truck_35_n04467665_136.png
subject-06,1,313,0.894121885299683,chair,chair,pow,0313_pow_s06_pow_chair_35_n04099969_6406.png
subject-06,1,314,0.970586061477661,elephant,elephant,pow,0314_pow_s06_pow_elephant_35_n02504013_10857.png
subject-06,1,315,0.708904027938843,elephant,elephant,0,0315_pow_s06_0_elephant_35_n02504458_3608.png
subject-06,1,316,0.799790859222412,car,car,0,0316_pow_s06_0_car_35_n02814533_13601.png
subject-06,1,317,0.927918195724487,knife,knife,pow,0317_pow_s06_pow_knife_35_n03041632_79317.png
subject-06,1,318,0.979444026947021,truck,truck,pow,0318_pow_s06_pow_truck_35_n04467665_6814.png
subject-06,1,319,0.539185047149658,clock,clock,0,0319_pow_s06_0_clock_35_n04548280_5305.png
subject-06,1,320,0.975935935974121,bottle,bottle,pow,0320_pow_s06_pow_bottle_35_n03983396_9050.png
subject-06,1,321,1.03314113616943,clock,clock,pow,0321_pow_s06_pow_clock_35_n02708093_3417.png
subject-06,1,322,0.741671085357666,boat,boat,0,0322_pow_s06_0_boat_35_n03662601_8171.png
subject-06,1,323,0.647701025009155,bird,bird,pow,0323_pow_s06_pow_bird_35_n01843065_2609.png
subject-06,1,324,0.483990907669067,car,car,0,0324_pow_s06_0_car_35_n03100240_16466.png
subject-06,1,325,0.980148077011108,elephant,bear,pow,0325_pow_s06_pow_bear_35_n02133161_4247.png
subject-06,1,326,0.526508808135986,keyboard,keyboard,0,0326_pow_s06_0_keyboard_35_n03085013_20898.png
subject-06,1,327,1.40114283561707,car,truck,0,0327_pow_s06_0_truck_35_n03796401_1556.png
subject-06,1,328,0.831568002700806,dog,dog,0,0328_pow_s06_0_dog_35_n02108000_6847.png
subject-06,1,329,0.630238056182861,clock,clock,0,0329_pow_s06_0_clock_35_n03196217_970.png
subject-06,1,330,0.652626037597656,clock,clock,0,0330_pow_s06_0_clock_35_n02708093_6795.png
subject-06,1,331,0.943266153335571,bottle,bottle,0,0331_pow_s06_0_bottle_35_n04579145_7403.png
subject-06,1,332,0.681467056274414,elephant,elephant,pow,0332_pow_s06_pow_elephant_35_n02504458_12705.png
subject-06,1,333,1.45393395423889,dog,bicycle,pow,0333_pow_s06_pow_bicycle_35_n03792782_8113.png
subject-06,1,334,0.829444169998169,airplane,airplane,pow,0334_pow_s06_pow_airplane_35_n02690373_6663.png
subject-06,1,335,0.844096183776855,cat,cat,pow,0335_pow_s06_pow_cat_35_n02123597_9954.png
subject-06,1,336,1.44834518432617,oven,oven,0,0336_pow_s06_0_oven_35_n04111531_7593.png
subject-06,1,337,0.508347034454346,clock,clock,0,0337_pow_s06_0_clock_35_n02708093_2824.png
subject-06,1,338,0.830856084823608,oven,truck,pow,0338_pow_s06_pow_truck_35_n03417042_1635.png
subject-06,1,339,0.905255079269409,elephant,elephant,0,0339_pow_s06_0_elephant_35_n02504458_6222.png
subject-06,1,340,1.08182191848755,keyboard,keyboard,0,0340_pow_s06_0_keyboard_35_n04505470_1217.png
subject-06,1,341,0.942661046981812,bird,bird,0,0341_pow_s06_0_bird_35_n01560419_2113.png
subject-06,1,342,1.05694603919983,bicycle,bicycle,pow,0342_pow_s06_pow_bicycle_35_n03792782_6152.png
subject-06,1,343,0.769231081008911,dog,dog,0,0343_pow_s06_0_dog_35_n02111500_8317.png
subject-06,1,344,0.702996969223022,car,car,pow,0344_pow_s06_pow_car_35_n03100240_5550.png
subject-06,1,345,1.04730105400085,truck,truck,pow,0345_pow_s06_pow_truck_35_n03417042_4975.png
subject-06,1,346,0.883760213851929,truck,truck,0,0346_pow_s06_0_truck_35_n04467665_90715.png
subject-06,1,347,1.17452502250671,oven,bottle,pow,0347_pow_s06_pow_bottle_35_n03983396_5672.png
subject-06,1,348,0.766669988632202,boat,boat,0,0348_pow_s06_0_boat_35_n03344393_9716.png
subject-06,1,349,0.665163993835449,bear,bear,0,0349_pow_s06_0_bear_35_n02132136_1219.png
subject-06,1,350,0.885708093643188,knife,knife,0,0350_pow_s06_0_knife_35_n03041632_1964.png
subject-06,1,351,0.783981084823608,airplane,airplane,pow,0351_pow_s06_pow_airplane_35_n02690373_4921.png
subject-06,1,352,0.75224494934082,chair,chair,pow,0352_pow_s06_pow_chair_35_n04099969_9306.png
subject-06,1,353,1.01074409484863,elephant,elephant,pow,0353_pow_s06_pow_elephant_35_n02504013_21542.png
subject-06,1,354,0.733003854751587,bear,bear,pow,0354_pow_s06_pow_bear_35_n02133161_12580.png
subject-06,1,355,0.939789056777954,bear,bear,0,0355_pow_s06_0_bear_35_n02134418_4503.png
subject-06,1,356,0.84605598449707,chair,chair,0,0356_pow_s06_0_chair_35_n02791124_1558.png
subject-06,1,357,0.722794055938721,truck,truck,pow,0357_pow_s06_pow_truck_35_n03796401_10276.png
subject-06,1,358,0.621121883392334,car,car,0,0358_pow_s06_0_car_35_n04285008_757.png
subject-06,1,359,0.735016107559204,cat,dog,0,0359_pow_s06_0_dog_35_n02086910_7062.png
subject-06,1,360,0.95552396774292,airplane,airplane,pow,0360_pow_s06_pow_airplane_35_n02690373_3150.png
subject-06,1,361,1.04579997062683,dog,dog,pow,0361_pow_s06_pow_dog_35_n02093647_7495.png
subject-06,1,362,0.760443925857544,cat,bear,0,0362_pow_s06_0_bear_35_n02133161_1197.png
subject-06,1,363,0.888375997543335,bicycle,bicycle,0,0363_pow_s06_0_bicycle_35_n03792782_1412.png
subject-06,1,364,0.769177913665771,cat,cat,pow,0364_pow_s06_pow_cat_35_n02123045_5080.png
subject-06,1,365,0.753736972808838,bicycle,bicycle,pow,0365_pow_s06_pow_bicycle_35_n02835271_24639.png
subject-06,1,366,0.898131132125854,truck,truck,pow,0366_pow_s06_pow_truck_35_n04467665_7093.png
subject-06,1,367,0.826633930206299,boat,boat,0,0367_pow_s06_0_boat_35_n03344393_3845.png
subject-06,1,368,0.794972896575928,chair,chair,pow,0368_pow_s06_pow_chair_35_n02791124_2606.png
subject-06,1,369,1.48566198348999,chair,clock,0,0369_pow_s06_0_clock_35_n04548280_2826.png
subject-06,1,370,0.991541147232056,clock,clock,pow,0370_pow_s06_pow_clock_35_n02708093_464.png
subject-06,1,371,0.673892974853516,bird,bird,pow,0371_pow_s06_pow_bird_35_n01833805_5548.png
subject-06,1,372,1.00226712226868,bicycle,bicycle,pow,0372_pow_s06_pow_bicycle_35_n02835271_18171.png
subject-06,1,373,1.11638498306274,oven,bear,pow,0373_pow_s06_pow_bear_35_n02134418_3630.png
subject-06,1,374,1.21492218971252,dog,dog,pow,0374_pow_s06_pow_dog_35_n02101006_8697.png
subject-06,1,375,1.28877091407776,knife,knife,pow,0375_pow_s06_pow_knife_35_n03041632_5302.png
subject-06,1,376,0.780928134918213,bottle,bottle,pow,0376_pow_s06_pow_bottle_35_n04560804_21531.png
subject-06,1,377,0.809202909469604,bicycle,bicycle,0,0377_pow_s06_0_bicycle_35_n03792782_9004.png
subject-06,1,378,0.585379123687744,oven,oven,pow,0378_pow_s06_pow_oven_35_n04111531_17809.png
subject-06,1,379,0.422026872634888,cat,cat,0,0379_pow_s06_0_cat_35_n02123045_7048.png
subject-06,1,380,0.696211814880371,oven,oven,pow,0380_pow_s06_pow_oven_35_n04111531_8687.png
subject-06,1,381,0.742796182632446,clock,clock,0,0381_pow_s06_0_clock_35_n04548280_1236.png
subject-06,1,382,1.13135695457458,bear,bird,pow,0382_pow_s06_pow_bird_35_n01818515_34580.png
subject-06,1,383,0.54773998260498,bicycle,bicycle,0,0383_pow_s06_0_bicycle_35_n03792782_9782.png
subject-06,1,384,0.722033023834229,car,car,pow,0384_pow_s06_pow_car_35_n04285008_2196.png
subject-06,1,385,0.896143913269043,bear,bear,pow,0385_pow_s06_pow_bear_35_n02133161_5325.png
subject-06,1,386,1.03473997116089,cat,dog,pow,0386_pow_s06_pow_dog_35_n02090379_473.png
subject-06,1,387,NaN,na,cat,pow,0387_pow_s06_pow_cat_35_n02123597_722.png
subject-06,1,388,0.647874116897583,chair,chair,pow,0388_pow_s06_pow_chair_35_n04099969_6911.png
subject-06,1,389,0.538091897964478,car,car,pow,0389_pow_s06_pow_car_35_n04285008_3891.png
subject-06,1,390,0.512505054473877,keyboard,keyboard,pow,0390_pow_s06_pow_keyboard_35_n03085013_22597.png
subject-06,1,391,0.788850069046021,boat,boat,0,0391_pow_s06_0_boat_35_n02951358_13562.png
subject-06,1,392,1.28547787666321,oven,boat,pow,0392_pow_s06_pow_boat_35_n03344393_9209.png
subject-06,1,393,0.578082084655762,bird,bird,pow,0393_pow_s06_pow_bird_35_n01819313_3551.png
subject-06,1,394,0.729831218719482,bear,bear,0,0394_pow_s06_0_bear_35_n02132136_2096.png
subject-06,1,395,0.903774976730347,bear,dog,0,0395_pow_s06_0_dog_35_n02111500_8950.png
subject-06,1,396,0.934282064437866,oven,oven,0,0396_pow_s06_0_oven_35_n04111531_1612.png
subject-06,1,397,0.939019918441772,car,car,0,0397_pow_s06_0_car_35_n04285008_17059.png
subject-06,1,398,0.79306697845459,bear,bear,0,0398_pow_s06_0_bear_35_n02133161_8662.png
subject-06,1,399,0.767477035522461,bird,bird,0,0399_pow_s06_0_bird_35_n02056570_9155.png
subject-06,1,400,0.711022138595581,bear,bear,pow,0400_pow_s06_pow_bear_35_n02132136_258.png
subject-06,1,401,0.723212003707886,oven,truck,pow,0401_pow_s06_pow_truck_35_n04467665_2295.png
subject-06,1,402,0.577863931655884,car,car,0,0402_pow_s06_0_car_35_n04285008_860.png
subject-06,1,403,0.590183019638062,oven,oven,0,0403_pow_s06_0_oven_35_n04111531_15743.png
subject-06,1,404,0.682682037353516,car,car,pow,0404_pow_s06_pow_car_35_n03100240_2313.png
subject-06,1,405,0.641051054000854,cat,cat,0,0405_pow_s06_0_cat_35_n02123159_6106.png
subject-06,1,406,1.06325912475586,car,car,pow,0406_pow_s06_pow_car_35_n02814533_35863.png
subject-06,1,407,0.715528011322021,oven,oven,0,0407_pow_s06_0_oven_35_n04111531_452.png
subject-06,1,408,0.92782998085022,dog,dog,pow,0408_pow_s06_pow_dog_35_n02088632_6220.png
subject-06,1,409,1.11810207366943,elephant,elephant,0,0409_pow_s06_0_elephant_35_n02504013_8162.png
subject-06,1,410,1.40046191215515,knife,knife,pow,0410_pow_s06_pow_knife_35_n03041632_20595.png
subject-06,1,411,0.53043007850647,chair,chair,0,0411_pow_s06_0_chair_35_n03376595_4004.png
subject-06,1,412,0.942845106124878,bicycle,bicycle,0,0412_pow_s06_0_bicycle_35_n02835271_8928.png
subject-06,1,413,1.06553101539612,truck,truck,pow,0413_pow_s06_pow_truck_35_n04467665_3502.png
subject-06,1,414,1.10155916213989,chair,bottle,pow,0414_pow_s06_pow_bottle_35_n04557648_2445.png
subject-06,1,415,0.829104900360107,knife,knife,0,0415_pow_s06_0_knife_35_n03041632_16606.png
subject-06,1,416,0.951421022415161,bear,airplane,pow,0416_pow_s06_pow_airplane_35_n02690373_6536.png
subject-06,1,417,0.619952917098999,bear,bear,0,0417_pow_s06_0_bear_35_n02132136_2358.png
subject-06,1,418,0.878454923629761,elephant,elephant,0,0418_pow_s06_0_elephant_35_n02504013_1094.png
subject-06,1,419,0.62451696395874,chair,chair,0,0419_pow_s06_0_chair_35_n04099969_4146.png
subject-06,1,420,0.621047019958496,airplane,airplane,0,0420_pow_s06_0_airplane_35_n02690373_464.png
subject-06,1,421,0.935066938400269,elephant,elephant,0,0421_pow_s06_0_elephant_35_n02504458_1439.png
subject-06,1,422,0.809368848800659,dog,dog,0,0422_pow_s06_0_dog_35_n02109525_36778.png
subject-06,1,423,1.00782704353333,keyboard,keyboard,pow,0423_pow_s06_pow_keyboard_35_n04505470_1537.png
subject-06,1,424,1.07393598556519,car,car,pow,0424_pow_s06_pow_car_35_n04285008_6278.png
subject-06,1,425,0.642531871795654,bicycle,bicycle,0,0425_pow_s06_0_bicycle_35_n03792782_51414.png
subject-06,1,426,1.05689811706543,bicycle,bicycle,pow,0426_pow_s06_pow_bicycle_35_n03792782_14605.png
subject-06,1,427,0.631455183029175,boat,boat,pow,0427_pow_s06_pow_boat_35_n04612504_168.png
subject-06,1,428,0.599531888961792,boat,boat,0,0428_pow_s06_0_boat_35_n04273569_5388.png
subject-06,1,429,0.660072088241577,clock,clock,0,0429_pow_s06_0_clock_35_n04548280_3605.png
subject-06,1,430,0.750395059585571,chair,chair,0,0430_pow_s06_0_chair_35_n04099969_1644.png
subject-06,1,431,1.05509185791016,truck,truck,0,0431_pow_s06_0_truck_35_n03796401_21464.png
subject-06,1,432,0.61749792098999,clock,clock,0,0432_pow_s06_0_clock_35_n04548280_3353.png
subject-06,1,433,0.553499937057495,bicycle,bicycle,0,0433_pow_s06_0_bicycle_35_n02835271_1436.png
subject-06,1,434,1.06561613082886,oven,oven,0,0434_pow_s06_0_oven_35_n04111531_6500.png
subject-06,1,435,1.24762606620789,bicycle,knife,0,0435_pow_s06_0_knife_35_n03041632_2319.png
subject-06,1,436,1.38410091400146,chair,dog,0,0436_pow_s06_0_dog_35_n02091134_14646.png
subject-06,1,437,0.962182998657227,truck,truck,pow,0437_pow_s06_pow_truck_35_n03417042_8690.png
subject-06,1,438,0.706406116485596,bird,bird,pow,0438_pow_s06_pow_bird_35_n01614925_2821.png
subject-06,1,439,0.575016021728516,bird,bird,0,0439_pow_s06_0_bird_35_n02027492_3963.png
subject-06,1,440,0.619396924972534,elephant,elephant,0,0440_pow_s06_0_elephant_35_n02504013_2924.png
subject-06,1,441,0.701912879943848,cat,cat,0,0441_pow_s06_0_cat_35_n02124075_11135.png
subject-06,1,442,0.900251865386963,cat,dog,pow,0442_pow_s06_pow_dog_35_n02097298_279.png
subject-06,1,443,1.50006198883057,knife,knife,0,0443_pow_s06_0_knife_35_n03041632_2438.png
subject-06,1,444,0.675243139266968,dog,dog,pow,0444_pow_s06_pow_dog_35_n02096294_5051.png
subject-06,1,445,0.505853891372681,boat,boat,0,0445_pow_s06_0_boat_35_n03662601_15781.png
subject-06,1,446,0.725850820541382,cat,cat,pow,0446_pow_s06_pow_cat_35_n02125311_1172.png
subject-06,1,447,0.472348928451538,cat,cat,pow,0447_pow_s06_pow_cat_35_n02123045_3896.png
subject-06,1,448,0.684691190719604,keyboard,keyboard,0,0448_pow_s06_0_keyboard_35_n03085013_2676.png
subject-06,1,449,0.483165979385376,car,car,0,0449_pow_s06_0_car_35_n02814533_45210.png
subject-06,1,450,0.713570833206177,clock,clock,pow,0450_pow_s06_pow_clock_35_n04548280_6811.png
subject-06,1,451,1.23401808738708,clock,bird,pow,0451_pow_s06_pow_bird_35_n02017213_5409.png
subject-06,1,452,0.564557075500488,bird,bird,pow,0452_pow_s06_pow_bird_35_n02027492_1678.png
subject-06,1,453,0.624867916107178,bird,bird,0,0453_pow_s06_0_bird_35_n02025239_392.png
subject-06,1,454,0.569090843200684,bird,bird,pow,0454_pow_s06_pow_bird_35_n02037110_21381.png
subject-06,1,455,0.543540000915527,oven,oven,0,0455_pow_s06_0_oven_35_n04111531_695.png
subject-06,1,456,0.731103181838989,truck,truck,0,0456_pow_s06_0_truck_35_n03417042_8439.png
subject-06,1,457,0.806657791137695,elephant,elephant,0,0457_pow_s06_0_elephant_35_n02504013_4406.png
subject-06,1,458,0.797033071517944,car,car,pow,0458_pow_s06_pow_car_35_n04285008_2750.png
subject-06,1,459,1.26802897453308,bottle,bottle,0,0459_pow_s06_0_bottle_35_n03983396_4503.png
subject-06,1,460,0.690300941467285,bicycle,bicycle,0,0460_pow_s06_0_bicycle_35_n02835271_7753.png
subject-06,1,461,0.934799194335938,oven,bear,pow,0461_pow_s06_pow_bear_35_n02134084_10766.png
subject-06,1,462,0.92500901222229,truck,boat,0,0462_pow_s06_0_boat_35_n03662601_26467.png
subject-06,1,463,0.446759939193726,boat,boat,pow,0463_pow_s06_pow_boat_35_n04612504_15034.png
subject-06,1,464,0.55317497253418,knife,knife,0,0464_pow_s06_0_knife_35_n03041632_53874.png
subject-06,1,465,0.943472146987915,car,car,0,0465_pow_s06_0_car_35_n04285008_14234.png
subject-06,1,466,0.726009130477905,car,truck,0,0466_pow_s06_0_truck_35_n03796401_1835.png
subject-06,1,467,1.05423283576965,truck,truck,pow,0467_pow_s06_pow_truck_35_n03417042_29849.png
subject-06,1,468,0.952852964401245,knife,knife,0,0468_pow_s06_0_knife_35_n03041632_14817.png
subject-06,1,469,0.50480580329895,cat,cat,0,0469_pow_s06_0_cat_35_n02124075_4399.png
subject-06,1,470,0.819356918334961,car,car,pow,0470_pow_s06_pow_car_35_n03100240_9484.png
subject-06,1,471,0.439414024353027,clock,clock,pow,0471_pow_s06_pow_clock_35_n04548280_8037.png
subject-06,1,472,0.716277837753296,car,car,0,0472_pow_s06_0_car_35_n03100240_23195.png
subject-06,1,473,1.50016903877258,chair,knife,pow,0473_pow_s06_pow_knife_35_n03041632_13612.png
subject-06,1,474,0.913119077682495,clock,clock,0,0474_pow_s06_0_clock_35_n03196217_5934.png
subject-06,1,475,0.979162931442261,bottle,bottle,pow,0475_pow_s06_pow_bottle_35_n04579145_4896.png
subject-06,1,476,0.485536098480225,oven,oven,pow,0476_pow_s06_pow_oven_35_n04111531_7072.png
subject-06,1,477,NaN,na,bear,0,0477_pow_s06_0_bear_35_n02134418_60.png
subject-06,1,478,0.773730993270874,knife,knife,0,0478_pow_s06_0_knife_35_n03041632_46720.png
subject-06,1,479,0.462439060211182,boat,boat,0,0479_pow_s06_0_boat_35_n03344393_8474.png
subject-06,1,480,0.574737071990967,knife,knife,0,0480_pow_s06_0_knife_35_n03041632_42472.png
subject-06,1,481,1.12936186790466,bird,knife,pow,0481_pow_s06_pow_knife_35_n03041632_35116.png
subject-06,1,482,0.713945865631104,car,car,pow,0482_pow_s06_pow_car_35_n03100240_16209.png
subject-06,1,483,0.541864156723022,boat,boat,0,0483_pow_s06_0_boat_35_n03662601_11276.png
subject-06,1,484,0.732818126678467,truck,truck,pow,0484_pow_s06_pow_truck_35_n03417042_2253.png
subject-06,1,485,1.00101685523987,keyboard,clock,pow,0485_pow_s06_pow_clock_35_n03196217_10790.png
subject-06,1,486,0.591484069824219,bicycle,bicycle,0,0486_pow_s06_0_bicycle_35_n02835271_25519.png
subject-06,1,487,NaN,na,knife,pow,0487_pow_s06_pow_knife_35_n03041632_33255.png
subject-06,1,488,0.496280908584595,bird,bird,pow,0488_pow_s06_pow_bird_35_n02033041_9947.png
subject-06,1,489,0.624140024185181,bird,bird,0,0489_pow_s06_0_bird_35_n01828970_25642.png
subject-06,1,490,0.74699592590332,cat,dog,pow,0490_pow_s06_pow_dog_35_n02112350_2363.png
subject-06,1,491,1.25903701782227,oven,oven,pow,0491_pow_s06_pow_oven_35_n04111531_5077.png
subject-06,1,492,0.596748113632202,clock,clock,0,0492_pow_s06_0_clock_35_n03196217_5149.png
subject-06,1,493,1.15522813796997,elephant,elephant,pow,0493_pow_s06_pow_elephant_35_n02504013_2808.png
subject-06,1,494,0.531520128250122,bicycle,bicycle,0,0494_pow_s06_0_bicycle_35_n03792782_7301.png
subject-06,1,495,0.589923858642578,oven,oven,0,0495_pow_s06_0_oven_35_n04111531_688.png
subject-06,1,496,0.942662000656128,bear,bear,pow,0496_pow_s06_pow_bear_35_n02133161_8668.png
subject-06,1,497,0.624191045761108,bicycle,bicycle,0,0497_pow_s06_0_bicycle_35_n03792782_296.png
subject-06,1,498,0.922470092773438,keyboard,keyboard,pow,0498_pow_s06_pow_keyboard_35_n03085013_24332.png
subject-06,1,499,0.997277975082397,elephant,elephant,0,0499_pow_s06_0_elephant_35_n02504458_5941.png
subject-06,1,500,0.527204036712646,cat,cat,0,0500_pow_s06_0_cat_35_n02124075_11489.png
subject-06,1,501,0.985595941543579,dog,oven,0,0501_pow_s06_0_oven_35_n04111531_9174.png
subject-06,1,502,0.537773847579956,boat,boat,pow,0502_pow_s06_pow_boat_35_n04273569_17880.png
subject-06,1,503,0.974515914916992,bear,elephant,pow,0503_pow_s06_pow_elephant_35_n02504013_1370.png
subject-06,1,504,0.634850025177002,boat,boat,pow,0504_pow_s06_pow_boat_35_n02951358_11125.png
subject-06,1,505,0.655273199081421,keyboard,keyboard,0,0505_pow_s06_0_keyboard_35_n03085013_18968.png
subject-06,1,506,1.47513699531555,oven,oven,0,0506_pow_s06_0_oven_35_n04111531_4795.png
subject-06,1,507,0.545215129852295,clock,clock,pow,0507_pow_s06_pow_clock_35_n02708093_3702.png
subject-06,1,508,0.987478017807007,dog,keyboard,0,0508_pow_s06_0_keyboard_35_n03085013_24122.png
subject-06,1,509,0.44011402130127,car,car,0,0509_pow_s06_0_car_35_n03100240_23751.png
subject-06,1,510,0.630405902862549,car,car,0,0510_pow_s06_0_car_35_n04285008_5955.png
subject-06,1,511,1.15112400054932,dog,dog,pow,0511_pow_s06_pow_dog_35_n02107142_58751.png
subject-06,1,512,1.11939692497253,chair,chair,pow,0512_pow_s06_pow_chair_35_n03376595_10690.png
subject-06,1,513,0.771930932998657,keyboard,keyboard,pow,0513_pow_s06_pow_keyboard_35_n03085013_5812.png
subject-06,1,514,0.840511083602905,chair,chair,0,0514_pow_s06_0_chair_35_n04099969_3623.png
subject-06,1,515,1.3068859577179,knife,bottle,0,0515_pow_s06_0_bottle_35_n04591713_5589.png
subject-06,1,516,0.521730899810791,boat,boat,0,0516_pow_s06_0_boat_35_n04273569_6637.png
subject-06,1,517,0.511852979660034,cat,cat,0,0517_pow_s06_0_cat_35_n02124075_8747.png
subject-06,1,518,0.702430009841919,boat,boat,0,0518_pow_s06_0_boat_35_n02951358_11022.png
subject-06,1,519,0.447130918502808,cat,cat,0,0519_pow_s06_0_cat_35_n02123597_11648.png
subject-06,1,520,1.04534006118774,dog,dog,pow,0520_pow_s06_pow_dog_35_n02091831_12873.png
subject-06,1,521,0.814172983169556,bear,bear,0,0521_pow_s06_0_bear_35_n02134418_5317.png
subject-06,1,522,0.804712057113647,bear,bear,pow,0522_pow_s06_pow_bear_35_n02133161_835.png
subject-06,1,523,0.956932067871094,oven,oven,pow,0523_pow_s06_pow_oven_35_n04111531_2795.png
subject-06,1,524,0.793282032012939,bird,bird,0,0524_pow_s06_0_bird_35_n01558993_7074.png
subject-06,1,525,0.523534059524536,clock,clock,pow,0525_pow_s06_pow_clock_35_n02708093_4255.png
subject-06,1,526,0.712272167205811,bird,bird,pow,0526_pow_s06_pow_bird_35_n01797886_2579.png
subject-06,1,527,0.888564109802246,chair,oven,pow,0527_pow_s06_pow_oven_35_n04111531_3193.png
subject-06,1,528,0.934291839599609,chair,truck,0,0528_pow_s06_0_truck_35_n03417042_94.png
subject-06,1,529,0.740741968154907,elephant,elephant,pow,0529_pow_s06_pow_elephant_35_n02504013_24810.png
subject-06,1,530,0.633680105209351,clock,clock,pow,0530_pow_s06_pow_clock_35_n03196217_1219.png
subject-06,1,531,0.577716112136841,cat,cat,0,0531_pow_s06_0_cat_35_n02123159_2999.png
subject-06,1,532,1.02823305130005,airplane,truck,pow,0532_pow_s06_pow_truck_35_n03417042_5090.png
subject-06,1,533,1.31835103034973,chair,oven,0,0533_pow_s06_0_oven_35_n04111531_15616.png
subject-06,1,534,0.608490943908691,cat,cat,pow,0534_pow_s06_pow_cat_35_n02123045_7004.png
subject-06,1,535,0.615067958831787,bicycle,bicycle,pow,0535_pow_s06_pow_bicycle_35_n03792782_2628.png
subject-06,1,536,1.02768206596375,keyboard,keyboard,pow,0536_pow_s06_pow_keyboard_35_n04505470_539.png
subject-06,1,537,0.696125984191895,clock,clock,0,0537_pow_s06_0_clock_35_n04548280_427.png
subject-06,1,538,0.778162956237793,bicycle,bicycle,0,0538_pow_s06_0_bicycle_35_n02835271_848.png
subject-06,1,539,0.576465845108032,cat,cat,pow,0539_pow_s06_pow_cat_35_n02123045_7288.png
subject-06,1,540,0.889196872711182,dog,dog,0,0540_pow_s06_0_dog_35_n02107574_3352.png
subject-06,1,541,0.941298961639404,truck,truck,0,0541_pow_s06_0_truck_35_n04467665_22454.png
subject-06,1,542,0.72393798828125,airplane,airplane,0,0542_pow_s06_0_airplane_35_n02690373_6803.png
subject-06,1,543,0.814379215240479,elephant,elephant,pow,0543_pow_s06_pow_elephant_35_n02504458_5277.png
subject-06,1,544,1.2206859588623,dog,dog,pow,0544_pow_s06_pow_dog_35_n02090622_6587.png
subject-06,1,545,0.802619218826294,car,car,0,0545_pow_s06_0_car_35_n02814533_11760.png
subject-06,1,546,0.563050031661987,boat,boat,pow,0546_pow_s06_pow_boat_35_n04612504_34707.png
subject-06,1,547,1.23465490341187,bear,elephant,pow,0547_pow_s06_pow_elephant_35_n02504013_5969.png
subject-06,1,548,0.902534961700439,bottle,bottle,0,0548_pow_s06_0_bottle_35_n02823428_14080.png
subject-06,1,549,0.793010950088501,oven,cat,pow,0549_pow_s06_pow_cat_35_n02125311_47140.png
subject-06,1,550,1.23513507843018,oven,knife,pow,0550_pow_s06_pow_knife_35_n03041632_52702.png
subject-06,1,551,0.873372077941895,bottle,bottle,0,0551_pow_s06_0_bottle_35_n03983396_2306.png
subject-06,1,552,0.693928003311157,bicycle,bicycle,0,0552_pow_s06_0_bicycle_35_n03792782_5494.png
subject-06,1,553,1.13019585609436,dog,dog,pow,0553_pow_s06_pow_dog_35_n02093256_7502.png
subject-06,1,554,0.852783918380737,truck,truck,0,0554_pow_s06_0_truck_35_n04467665_70763.png
subject-06,1,555,0.872312068939209,dog,cat,0,0555_pow_s06_0_cat_35_n02123394_6490.png
subject-06,1,556,0.730633020401001,bear,bear,0,0556_pow_s06_0_bear_35_n02134418_3858.png
subject-06,1,557,1.40552997589111,dog,chair,pow,0557_pow_s06_pow_chair_35_n04099969_8360.png
subject-06,1,558,0.527323007583618,cat,cat,pow,0558_pow_s06_pow_cat_35_n02123597_578.png
subject-06,1,559,0.902089834213257,car,car,pow,0559_pow_s06_pow_car_35_n02814533_10268.png
subject-06,1,560,1.10822200775146,elephant,elephant,0,0560_pow_s06_0_elephant_35_n02504013_2208.png
subject-06,1,561,0.468607187271118,clock,clock,pow,0561_pow_s06_pow_clock_35_n04548280_9738.png
subject-06,1,562,0.980990886688232,elephant,elephant,pow,0562_pow_s06_pow_elephant_35_n02504458_6830.png
subject-06,1,563,0.481488943099976,car,car,pow,0563_pow_s06_pow_car_35_n02814533_65530.png
subject-06,1,564,0.869246006011963,bottle,bottle,pow,0564_pow_s06_pow_bottle_35_n02823428_2965.png
subject-06,1,565,0.905496835708618,bicycle,boat,pow,0565_pow_s06_pow_boat_35_n02951358_32698.png
subject-06,1,566,0.765916109085083,car,boat,pow,0566_pow_s06_pow_boat_35_n04273569_20158.png
subject-06,1,567,0.756081819534302,cat,cat,0,0567_pow_s06_0_cat_35_n02123159_4962.png
subject-06,1,568,1.12218904495239,keyboard,knife,pow,0568_pow_s06_pow_knife_35_n03041632_17820.png
subject-06,1,569,0.866975069046021,knife,knife,0,0569_pow_s06_0_knife_35_n03041632_31363.png
subject-06,1,570,0.749421119689941,dog,dog,0,0570_pow_s06_0_dog_35_n02110958_685.png
subject-06,1,571,1.17181205749512,elephant,elephant,pow,0571_pow_s06_pow_elephant_35_n02504458_9255.png
subject-06,1,572,0.83034086227417,keyboard,keyboard,0,0572_pow_s06_0_keyboard_35_n04505470_5329.png
subject-06,1,573,0.837028980255127,bear,bear,0,0573_pow_s06_0_bear_35_n02134084_1536.png
subject-06,1,574,1.11944818496704,clock,clock,pow,0574_pow_s06_pow_clock_35_n02708093_2943.png
subject-06,1,575,0.879982948303223,chair,boat,pow,0575_pow_s06_pow_boat_35_n03662601_9089.png
subject-06,1,576,1.11333012580872,bottle,bottle,0,0576_pow_s06_0_bottle_35_n03983396_5335.png
subject-06,1,577,0.83160400390625,dog,dog,pow,0577_pow_s06_pow_dog_35_n02102177_2519.png
subject-06,1,578,0.576411008834839,bear,bear,0,0578_pow_s06_0_bear_35_n02133161_3774.png
subject-06,1,579,0.782660961151123,bear,bear,pow,0579_pow_s06_pow_bear_35_n02132136_10979.png
subject-06,1,580,0.71085000038147,bottle,bottle,0,0580_pow_s06_0_bottle_35_n04560804_19346.png
subject-06,1,581,0.839339017868042,bottle,bottle,0,0581_pow_s06_0_bottle_35_n02823428_3928.png
subject-06,1,582,0.761955976486206,knife,bear,0,0582_pow_s06_0_bear_35_n02134418_3900.png
subject-06,1,583,0.865890979766846,chair,chair,0,0583_pow_s06_0_chair_35_n04429376_28491.png
subject-06,1,584,0.633835077285767,boat,airplane,pow,0584_pow_s06_pow_airplane_35_n02690373_4144.png
subject-06,1,585,0.661823987960815,knife,knife,0,0585_pow_s06_0_knife_35_n03041632_8468.png
subject-06,1,586,0.760133981704712,bicycle,bicycle,0,0586_pow_s06_0_bicycle_35_n02835271_17617.png
subject-06,1,587,1.00255417823792,bear,bear,0,0587_pow_s06_0_bear_35_n02132136_322.png
subject-06,1,588,0.686773061752319,bicycle,bottle,pow,0588_pow_s06_pow_bottle_35_n04560804_570.png
subject-06,1,589,0.799100160598755,airplane,airplane,0,0589_pow_s06_0_airplane_35_n02690373_20122.png
subject-06,1,590,0.483618974685669,airplane,airplane,0,0590_pow_s06_0_airplane_35_n02690373_10228.png
subject-06,1,591,1.50003004074097,bird,elephant,0,0591_pow_s06_0_elephant_35_n02504013_5963.png
subject-06,1,592,0.556617975234985,airplane,airplane,pow,0592_pow_s06_pow_airplane_35_n02690373_7647.png
subject-06,1,593,0.8230140209198,dog,dog,0,0593_pow_s06_0_dog_35_n02085936_6092.png
subject-06,1,594,1.49999403953552,dog,dog,0,0594_pow_s06_0_dog_35_n02097298_9085.png
subject-06,1,595,0.603533029556274,cat,cat,pow,0595_pow_s06_pow_cat_35_n02123159_6146.png
subject-06,1,596,0.555278062820435,bird,bird,0,0596_pow_s06_0_bird_35_n01616318_1732.png
subject-06,1,597,0.495784044265747,cat,cat,pow,0597_pow_s06_pow_cat_35_n02123159_6291.png
subject-06,1,598,1.05660891532898,keyboard,keyboard,pow,0598_pow_s06_pow_keyboard_35_n03085013_23986.png
subject-06,1,599,0.776948213577271,car,car,pow,0599_pow_s06_pow_car_35_n02814533_4687.png
subject-06,1,600,1.43745684623718,elephant,elephant,0,0600_pow_s06_0_elephant_35_n02504013_2736.png
subject-06,1,601,0.989907026290894,keyboard,keyboard,0,0601_pow_s06_0_keyboard_35_n04505470_807.png
subject-06,1,602,1.50016403198242,bottle,bottle,pow,0602_pow_s06_pow_bottle_35_n04557648_2613.png
subject-06,1,603,0.716914176940918,dog,dog,pow,0603_pow_s06_pow_dog_35_n02093647_1538.png
subject-06,1,604,1.34496593475342,cat,cat,0,0604_pow_s06_0_cat_35_n02124075_3699.png
subject-06,1,605,0.735244989395142,bear,bear,0,0605_pow_s06_0_bear_35_n02134084_3958.png
subject-06,1,606,0.98757004737854,oven,oven,pow,0606_pow_s06_pow_oven_35_n04111531_14325.png
subject-06,1,607,0.610432863235474,bicycle,bicycle,pow,0607_pow_s06_pow_bicycle_35_n03792782_28630.png
subject-06,1,608,0.930329084396362,clock,clock,pow,0608_pow_s06_pow_clock_35_n02708093_6228.png
subject-06,1,609,0.536262989044189,boat,boat,0,0609_pow_s06_0_boat_35_n03662601_11583.png
subject-06,1,610,0.881078004837036,keyboard,bottle,pow,0610_pow_s06_pow_bottle_35_n04560804_11775.png
subject-06,1,611,0.908876180648804,truck,truck,pow,0611_pow_s06_pow_truck_35_n03417042_11306.png
subject-06,1,612,0.752713918685913,truck,truck,0,0612_pow_s06_0_truck_35_n03417042_6317.png
subject-06,1,613,1.17914390563965,elephant,cat,0,0613_pow_s06_0_cat_35_n02125311_24724.png
subject-06,1,614,0.939275979995728,keyboard,keyboard,pow,0614_pow_s06_pow_keyboard_35_n03085013_21325.png
subject-06,1,615,0.829416990280151,bicycle,bicycle,0,0615_pow_s06_0_bicycle_35_n03792782_22908.png
subject-06,1,616,0.935864925384521,elephant,elephant,pow,0616_pow_s06_pow_elephant_35_n02504013_1266.png
subject-06,1,617,1.08196711540222,chair,chair,pow,0617_pow_s06_pow_chair_35_n03376595_8252.png
subject-06,1,618,1.08839297294617,bear,elephant,pow,0618_pow_s06_pow_elephant_35_n02504013_2402.png
subject-06,1,619,0.916937112808228,oven,oven,pow,0619_pow_s06_pow_oven_35_n04111531_283.png
subject-06,1,620,1.00168895721436,car,car,pow,0620_pow_s06_pow_car_35_n04285008_9774.png
subject-06,1,621,0.846047878265381,chair,chair,0,0621_pow_s06_0_chair_35_n02791124_2999.png
subject-06,1,622,0.996596097946167,car,car,pow,0622_pow_s06_pow_car_35_n03100240_17583.png
subject-06,1,623,0.856605052947998,airplane,airplane,0,0623_pow_s06_0_airplane_35_n02690373_6524.png
subject-06,1,624,0.725023984909058,keyboard,keyboard,pow,0624_pow_s06_pow_keyboard_35_n04505470_4704.png
subject-06,1,625,0.991626977920532,chair,chair,0,0625_pow_s06_0_chair_35_n03376595_9122.png
subject-06,1,626,0.866153955459595,elephant,elephant,0,0626_pow_s06_0_elephant_35_n02504013_3224.png
subject-06,1,627,1.31072497367859,boat,knife,pow,0627_pow_s06_pow_knife_35_n03041632_13509.png
subject-06,1,628,0.708903789520264,airplane,airplane,pow,0628_pow_s06_pow_airplane_35_n02690373_1426.png
subject-06,1,629,0.685214042663574,truck,truck,0,0629_pow_s06_0_truck_35_n04467665_19747.png
subject-06,1,630,0.835846185684204,dog,dog,pow,0630_pow_s06_pow_dog_35_n02097474_8382.png
subject-06,1,631,0.466264009475708,bear,bear,0,0631_pow_s06_0_bear_35_n02134084_23280.png
subject-06,1,632,0.624969959259033,cat,cat,0,0632_pow_s06_0_cat_35_n02123159_11496.png
subject-06,1,633,0.784974098205566,keyboard,keyboard,pow,0633_pow_s06_pow_keyboard_35_n04505470_5880.png
subject-06,1,634,0.935254096984863,car,car,0,0634_pow_s06_0_car_35_n03100240_10774.png
subject-06,1,635,1.13355588912964,bird,bird,0,0635_pow_s06_0_bird_35_n01855032_2478.png
subject-06,1,636,1.20708799362183,clock,keyboard,0,0636_pow_s06_0_keyboard_35_n03085013_18979.png
subject-06,1,637,0.973330974578857,bird,bird,pow,0637_pow_s06_pow_bird_35_n01833805_19627.png
subject-06,1,638,0.987876176834106,clock,clock,pow,0638_pow_s06_pow_clock_35_n02708093_4878.png
subject-06,1,639,0.648354053497314,boat,boat,pow,0639_pow_s06_pow_boat_35_n03344393_5588.png
subject-06,1,640,0.930957078933716,car,car,0,0640_pow_s06_0_car_35_n03100240_6376.png
subject-06,1,641,1.0646800994873,chair,chair,pow,0641_pow_s06_pow_chair_35_n02791124_2233.png
subject-06,1,642,1.070955991745,elephant,elephant,0,0642_pow_s06_0_elephant_35_n02504458_10112.png
subject-06,1,643,0.869462966918945,dog,dog,0,0643_pow_s06_0_dog_35_n02100735_539.png
subject-06,1,644,0.751905918121338,chair,knife,pow,0644_pow_s06_pow_knife_35_n03041632_24950.png
subject-06,1,645,0.544282913208008,car,car,0,0645_pow_s06_0_car_35_n02814533_84322.png
subject-06,1,646,0.948593139648438,chair,chair,pow,0646_pow_s06_pow_chair_35_n02791124_6731.png
subject-06,1,647,0.847025871276855,airplane,airplane,pow,0647_pow_s06_pow_airplane_35_n02690373_4552.png
subject-06,1,648,0.445252895355225,clock,clock,pow,0648_pow_s06_pow_clock_35_n04548280_338.png
subject-06,1,649,0.827451944351196,airplane,airplane,0,0649_pow_s06_0_airplane_35_n02690373_4029.png
subject-06,1,650,0.756294965744019,chair,chair,0,0650_pow_s06_0_chair_35_n04099969_7065.png
subject-06,1,651,0.876479864120483,cat,cat,0,0651_pow_s06_0_cat_35_n02125311_18402.png
subject-06,1,652,0.712964057922363,dog,dog,0,0652_pow_s06_0_dog_35_n02088364_13361.png
subject-06,1,653,0.84967303276062,keyboard,keyboard,0,0653_pow_s06_0_keyboard_35_n03085013_22260.png
subject-06,1,654,0.772164106369019,bicycle,bicycle,0,0654_pow_s06_0_bicycle_35_n03792782_28970.png
subject-06,1,655,0.88451886177063,bear,bear,pow,0655_pow_s06_pow_bear_35_n02134418_4129.png
subject-06,1,656,1.24997687339783,bird,bird,0,0656_pow_s06_0_bird_35_n02018207_10803.png
subject-06,1,657,1.21841716766357,chair,chair,pow,0657_pow_s06_pow_chair_35_n02791124_3310.png
subject-06,1,658,1.06079196929932,keyboard,keyboard,pow,0658_pow_s06_pow_keyboard_35_n04505470_4790.png
subject-06,1,659,0.790975093841553,chair,chair,0,0659_pow_s06_0_chair_35_n04429376_41755.png
subject-06,1,660,1.24383878707886,oven,oven,0,0660_pow_s06_0_oven_35_n04111531_7345.png
subject-06,1,661,1.45616817474365,keyboard,clock,0,0661_pow_s06_0_clock_35_n03196217_7931.png
subject-06,1,662,0.824389934539795,keyboard,keyboard,0,0662_pow_s06_0_keyboard_35_n03085013_19547.png
subject-06,1,663,1.02868294715881,bird,bird,0,0663_pow_s06_0_bird_35_n02051845_3938.png
subject-06,1,664,0.734259843826294,truck,truck,0,0664_pow_s06_0_truck_35_n03417042_17099.png
subject-06,1,665,0.808016061782837,keyboard,airplane,pow,0665_pow_s06_pow_airplane_35_n02690373_5056.png
subject-06,1,666,1.05209803581238,keyboard,keyboard,0,0666_pow_s06_0_keyboard_35_n03085013_26556.png
subject-06,1,667,0.788456916809082,bird,bird,0,0667_pow_s06_0_bird_35_n02051845_30394.png
subject-06,1,668,0.554735898971558,chair,chair,pow,0668_pow_s06_pow_chair_35_n04099969_3404.png
subject-06,1,669,0.691275119781494,car,car,0,0669_pow_s06_0_car_35_n04285008_7630.png
subject-06,1,670,0.713732004165649,truck,truck,0,0670_pow_s06_0_truck_35_n04467665_9833.png
subject-06,1,671,0.942012071609497,bear,bear,0,0671_pow_s06_0_bear_35_n02132136_28791.png
subject-06,1,672,0.764467000961304,chair,chair,0,0672_pow_s06_0_chair_35_n02791124_5724.png
subject-06,1,673,0.571004152297974,boat,boat,0,0673_pow_s06_0_boat_35_n03344393_5091.png
subject-06,1,674,0.721498966217041,car,car,0,0674_pow_s06_0_car_35_n02814533_41478.png
subject-06,1,675,1.50002098083496,car,car,pow,0675_pow_s06_pow_car_35_n02814533_22093.png
subject-06,1,676,0.463674068450928,keyboard,keyboard,0,0676_pow_s06_0_keyboard_35_n04505470_2972.png
subject-06,1,677,0.475973844528198,car,car,pow,0677_pow_s06_pow_car_35_n04285008_3160.png
subject-06,1,678,1.48034596443176,bottle,chair,pow,0678_pow_s06_pow_chair_35_n03376595_4242.png
subject-06,1,679,0.578337907791138,bird,bird,pow,0679_pow_s06_pow_bird_35_n02009912_300.png
subject-06,1,680,0.844321012496948,elephant,elephant,pow,0680_pow_s06_pow_elephant_35_n02504013_7831.png
subject-06,1,681,1.17319703102112,bird,bird,0,0681_pow_s06_0_bird_35_n01829413_5534.png
subject-06,1,682,1.00945401191711,chair,bottle,0,0682_pow_s06_0_bottle_35_n04591713_2070.png
subject-06,1,683,0.731934070587158,clock,clock,pow,0683_pow_s06_pow_clock_35_n04548280_5408.png
subject-06,1,684,0.843564033508301,car,car,0,0684_pow_s06_0_car_35_n03100240_8588.png
subject-06,1,685,0.650255918502808,boat,boat,pow,0685_pow_s06_pow_boat_35_n02951358_6378.png
subject-06,1,686,0.740691900253296,bicycle,bicycle,0,0686_pow_s06_0_bicycle_35_n03792782_3181.png
subject-06,1,687,0.791010856628418,car,car,0,0687_pow_s06_0_car_35_n02814533_1823.png
subject-06,1,688,1.01112103462219,knife,knife,pow,0688_pow_s06_pow_knife_35_n03041632_4708.png
subject-06,1,689,1.00937104225159,knife,knife,pow,0689_pow_s06_pow_knife_35_n03041632_12651.png
subject-06,1,690,1.00030016899109,dog,dog,0,0690_pow_s06_0_dog_35_n02088364_4281.png
subject-06,1,691,0.982472896575928,truck,truck,0,0691_pow_s06_0_truck_35_n03417042_10612.png
subject-06,1,692,1.15712308883667,car,car,0,0692_pow_s06_0_car_35_n03100240_5281.png
subject-06,1,693,0.900857925415039,clock,clock,pow,0693_pow_s06_pow_clock_35_n04548280_360.png
subject-06,1,694,NaN,na,oven,0,0694_pow_s06_0_oven_35_n04111531_5304.png
subject-06,1,695,0.735450983047485,keyboard,keyboard,pow,0695_pow_s06_pow_keyboard_35_n03085013_23287.png
subject-06,1,696,0.99616813659668,bird,cat,pow,0696_pow_s06_pow_cat_35_n02123159_4952.png
subject-06,1,697,0.770465135574341,clock,oven,pow,0697_pow_s06_pow_oven_35_n04111531_5168.png
subject-06,1,698,0.874107837677002,chair,chair,0,0698_pow_s06_0_chair_35_n04429376_24699.png
subject-06,1,699,0.73373818397522,bicycle,bicycle,0,0699_pow_s06_0_bicycle_35_n02835271_1706.png
subject-06,1,700,0.846601009368896,car,car,pow,0700_pow_s06_pow_car_35_n02814533_58398.png
subject-06,1,701,1.16688990592957,truck,truck,0,0701_pow_s06_0_truck_35_n03417042_10993.png
subject-06,1,702,0.988857984542847,elephant,elephant,pow,0702_pow_s06_pow_elephant_35_n02504458_1600.png
subject-06,1,703,0.755229949951172,clock,clock,pow,0703_pow_s06_pow_clock_35_n04548280_2273.png
subject-06,1,704,0.907850027084351,bicycle,bicycle,0,0704_pow_s06_0_bicycle_35_n03792782_47694.png
subject-06,1,705,0.806137084960938,boat,boat,0,0705_pow_s06_0_boat_35_n04612504_41457.png
subject-06,1,706,1.0022931098938,elephant,elephant,0,0706_pow_s06_0_elephant_35_n02504013_5217.png
subject-06,1,707,0.678778171539307,bottle,bottle,pow,0707_pow_s06_pow_bottle_35_n04591713_2305.png
subject-06,1,708,0.61456298828125,boat,boat,0,0708_pow_s06_0_boat_35_n04273569_622.png
subject-06,1,709,0.948596954345703,elephant,elephant,pow,0709_pow_s06_pow_elephant_35_n02504013_2233.png
subject-06,1,710,0.58693790435791,clock,clock,pow,0710_pow_s06_pow_clock_35_n03196217_9115.png
subject-06,1,711,0.761200904846191,dog,dog,pow,0711_pow_s06_pow_dog_35_n02098286_3192.png
subject-06,1,712,0.665855884552002,elephant,elephant,0,0712_pow_s06_0_elephant_35_n02504458_1680.png
subject-06,1,713,0.650454998016357,airplane,airplane,0,0713_pow_s06_0_airplane_35_n02690373_1171.png
subject-06,1,714,0.708784103393555,bird,bird,pow,0714_pow_s06_pow_bird_35_n02028035_6238.png
subject-06,1,715,0.760941028594971,chair,truck,0,0715_pow_s06_0_truck_35_n03796401_6644.png
subject-06,1,716,0.935420989990234,airplane,bear,0,0716_pow_s06_0_bear_35_n02134084_18488.png
subject-06,1,717,0.955570936203003,chair,elephant,pow,0717_pow_s06_pow_elephant_35_n02504013_10462.png
subject-06,1,718,0.729830026626587,bird,bird,pow,0718_pow_s06_pow_bird_35_n02009912_8346.png
subject-06,1,719,0.712517023086548,truck,truck,0,0719_pow_s06_0_truck_35_n03796401_4582.png
subject-06,1,720,0.818739891052246,bear,bear,0,0720_pow_s06_0_bear_35_n02132136_9656.png
subject-06,1,721,0.77128791809082,keyboard,keyboard,0,0721_pow_s06_0_keyboard_35_n04505470_3132.png
subject-06,1,722,0.607416868209839,cat,cat,0,0722_pow_s06_0_cat_35_n02123597_2146.png
subject-06,1,723,0.666032075881958,keyboard,keyboard,0,0723_pow_s06_0_keyboard_35_n03085013_23100.png
subject-06,1,724,0.89455509185791,bird,bird,0,0724_pow_s06_0_bird_35_n01534433_6927.png
subject-06,1,725,0.884987831115723,bird,airplane,pow,0725_pow_s06_pow_airplane_35_n02690373_10203.png
subject-06,1,726,0.798968076705933,knife,knife,pow,0726_pow_s06_pow_knife_35_n03041632_379.png
subject-06,1,727,0.919324159622192,bird,oven,0,0727_pow_s06_0_oven_35_n04111531_6533.png
subject-06,1,728,1.22043490409851,clock,clock,0,0728_pow_s06_0_clock_35_n02708093_7801.png
subject-06,1,729,1.31105995178223,bird,bear,0,0729_pow_s06_0_bear_35_n02132136_798.png
subject-06,1,730,0.625149965286255,keyboard,keyboard,0,0730_pow_s06_0_keyboard_35_n04505470_169.png
subject-06,1,731,0.807753086090088,boat,boat,0,0731_pow_s06_0_boat_35_n04612504_3761.png
subject-06,1,732,0.544384956359863,cat,cat,pow,0732_pow_s06_pow_cat_35_n02123597_7603.png
subject-06,1,733,1.37266492843628,car,car,0,0733_pow_s06_0_car_35_n03100240_10436.png
subject-06,1,734,0.925262928009033,bear,bear,pow,0734_pow_s06_pow_bear_35_n02133161_6152.png
subject-06,1,735,1.16801691055298,truck,truck,pow,0735_pow_s06_pow_truck_35_n03417042_27907.png
subject-06,1,736,0.77414608001709,keyboard,keyboard,pow,0736_pow_s06_pow_keyboard_35_n03085013_18918.png
subject-06,1,737,0.742321014404297,keyboard,keyboard,pow,0737_pow_s06_pow_keyboard_35_n04505470_734.png
subject-06,1,738,0.563083171844482,cat,cat,0,0738_pow_s06_0_cat_35_n02123597_5460.png
subject-06,1,739,0.573457002639771,boat,boat,0,0739_pow_s06_0_boat_35_n03344393_8713.png
subject-06,1,740,0.969825983047485,knife,knife,0,0740_pow_s06_0_knife_35_n03041632_31932.png
subject-06,1,741,0.930389881134033,elephant,elephant,pow,0741_pow_s06_pow_elephant_35_n02504458_7871.png
subject-06,1,742,0.583093881607056,boat,boat,pow,0742_pow_s06_pow_boat_35_n03344393_9852.png
subject-06,1,743,0.486987829208374,boat,boat,pow,0743_pow_s06_pow_boat_35_n03344393_10556.png
subject-06,1,744,1.1454119682312,bear,bear,pow,0744_pow_s06_pow_bear_35_n02134418_851.png
subject-06,1,745,0.681504964828491,airplane,airplane,0,0745_pow_s06_0_airplane_35_n02690373_1416.png
subject-06,1,746,0.63332986831665,bear,bear,0,0746_pow_s06_0_bear_35_n02134418_3774.png
subject-06,1,747,1.06788301467896,dog,chair,0,0747_pow_s06_0_chair_35_n03376595_18184.png
subject-06,1,748,0.535493135452271,oven,oven,0,0748_pow_s06_0_oven_35_n04111531_1922.png
subject-06,1,749,0.563468933105469,cat,cat,pow,0749_pow_s06_pow_cat_35_n02123597_3842.png
subject-06,1,750,1.05993700027466,oven,knife,0,0750_pow_s06_0_knife_35_n03041632_47703.png
subject-06,1,751,0.682832956314087,cat,cat,pow,0751_pow_s06_pow_cat_35_n02123597_23346.png
subject-06,1,752,0.656906127929688,bottle,bottle,0,0752_pow_s06_0_bottle_35_n03937543_3938.png
subject-06,1,753,1.22346305847168,car,car,pow,0753_pow_s06_pow_car_35_n04285008_15006.png
subject-06,1,754,0.696774005889893,airplane,airplane,0,0754_pow_s06_0_airplane_35_n02690373_3827.png
subject-06,1,755,0.879227876663208,bicycle,bicycle,pow,0755_pow_s06_pow_bicycle_35_n03792782_11417.png
subject-06,1,756,0.639273881912231,car,car,pow,0756_pow_s06_pow_car_35_n03100240_3310.png
subject-06,1,757,0.697703838348389,elephant,elephant,pow,0757_pow_s06_pow_elephant_35_n02504458_11270.png
subject-06,1,758,0.956130981445312,bicycle,bicycle,pow,0758_pow_s06_pow_bicycle_35_n03792782_10617.png
subject-06,1,759,0.56221604347229,cat,cat,0,0759_pow_s06_0_cat_35_n02123597_3408.png
subject-06,1,760,0.806843042373657,bottle,chair,pow,0760_pow_s06_pow_chair_35_n02791124_15739.png
subject-06,1,761,0.75140118598938,dog,dog,0,0761_pow_s06_0_dog_35_n02096294_12418.png
subject-06,1,762,1.07983493804932,airplane,airplane,pow,0762_pow_s06_pow_airplane_35_n02690373_9759.png
subject-06,1,763,0.929907083511353,bottle,bottle,0,0763_pow_s06_0_bottle_35_n04560804_5334.png
subject-06,1,764,1.12045192718506,elephant,elephant,0,0764_pow_s06_0_elephant_35_n02504458_6946.png
subject-06,1,765,1.0406608581543,cat,bird,pow,0765_pow_s06_pow_bird_35_n02007558_9566.png
subject-06,1,766,1.1688768863678,chair,bottle,0,0766_pow_s06_0_bottle_35_n02823428_4145.png
subject-06,1,767,0.704734086990356,keyboard,keyboard,pow,0767_pow_s06_pow_keyboard_35_n04505470_1105.png
subject-06,1,768,1.34894609451294,chair,knife,pow,0768_pow_s06_pow_knife_35_n03041632_21345.png
subject-06,1,769,1.20720911026001,keyboard,bicycle,pow,0769_pow_s06_pow_bicycle_35_n02835271_8574.png
subject-06,1,770,0.613574981689453,cat,cat,0,0770_pow_s06_0_cat_35_n02123394_2010.png
subject-06,1,771,0.741876125335693,chair,chair,pow,0771_pow_s06_pow_chair_35_n04099969_381.png
subject-06,1,772,1.16214299201965,keyboard,keyboard,pow,0772_pow_s06_pow_keyboard_35_n04505470_4748.png
subject-06,1,773,1.02065300941467,truck,truck,0,0773_pow_s06_0_truck_35_n04467665_81731.png
subject-06,1,774,0.881018877029419,clock,clock,0,0774_pow_s06_0_clock_35_n04548280_10476.png
subject-06,1,775,0.833602905273438,chair,chair,pow,0775_pow_s06_pow_chair_35_n04099969_1622.png
subject-06,1,776,1.20014619827271,car,car,0,0776_pow_s06_0_car_35_n04285008_10356.png
subject-06,1,777,0.81367301940918,keyboard,keyboard,pow,0777_pow_s06_pow_keyboard_35_n03085013_7605.png
subject-06,1,778,0.818405866622925,dog,dog,0,0778_pow_s06_0_dog_35_n02096585_1862.png
subject-06,1,779,1.25475692749023,chair,chair,pow,0779_pow_s06_pow_chair_35_n04099969_15406.png
subject-06,1,780,0.469163179397583,boat,boat,pow,0780_pow_s06_pow_boat_35_n03662601_2671.png
subject-06,1,781,1.22725605964661,dog,bear,0,0781_pow_s06_0_bear_35_n02132136_10560.png
subject-06,1,782,1.06401681900024,knife,knife,0,0782_pow_s06_0_knife_35_n03041632_1407.png
subject-06,1,783,0.654268026351929,bottle,bottle,0,0783_pow_s06_0_bottle_35_n04591713_3195.png
subject-06,1,784,1.05847001075745,dog,dog,0,0784_pow_s06_0_dog_35_n02099267_5314.png
subject-06,1,785,1.14541006088257,bird,bird,0,0785_pow_s06_0_bird_35_n01514859_3516.png
subject-06,1,786,0.689125776290894,car,car,0,0786_pow_s06_0_car_35_n03100240_1326.png
subject-06,1,787,0.825540065765381,boat,boat,pow,0787_pow_s06_pow_boat_35_n04612504_12456.png
subject-06,1,788,1.13511610031128,chair,chair,0,0788_pow_s06_0_chair_35_n04429376_14519.png
subject-06,1,789,1.0176420211792,oven,knife,pow,0789_pow_s06_pow_knife_35_n03041632_95293.png
subject-06,1,790,1.0998420715332,chair,chair,0,0790_pow_s06_0_chair_35_n02791124_8604.png
subject-06,1,791,1.02854585647583,boat,dog,0,0791_pow_s06_0_dog_35_n02101006_7762.png
subject-06,1,792,0.826236009597778,bear,bear,0,0792_pow_s06_0_bear_35_n02132136_20883.png
subject-06,1,793,0.962558031082153,oven,knife,pow,0793_pow_s06_pow_knife_35_n03041632_26710.png
subject-06,1,794,1.02095818519592,oven,cat,pow,0794_pow_s06_pow_cat_35_n02123394_829.png
subject-06,1,795,1.37334799766541,bird,bird,0,0795_pow_s06_0_bird_35_n01843383_3019.png
subject-06,1,796,1.04760718345642,keyboard,keyboard,0,0796_pow_s06_0_keyboard_35_n04505470_26.png
subject-06,1,797,0.775805950164795,airplane,airplane,0,0797_pow_s06_0_airplane_35_n02690373_1644.png
subject-06,1,798,0.866267919540405,bear,bear,pow,0798_pow_s06_pow_bear_35_n02133161_461.png
subject-06,1,799,1.16252398490906,dog,dog,pow,0799_pow_s06_pow_dog_35_n02107574_1984.png
subject-06,1,800,0.830534219741821,elephant,elephant,0,0800_pow_s06_0_elephant_35_n02504458_567.png
subject-06,1,801,0.56385612487793,boat,boat,0,0801_pow_s06_0_boat_35_n03662601_22218.png
subject-06,1,802,0.46218204498291,boat,boat,pow,0802_pow_s06_pow_boat_35_n02951358_13215.png
subject-06,1,803,0.706717967987061,bottle,bottle,0,0803_pow_s06_0_bottle_35_n04591713_4691.png
subject-06,1,804,0.643110990524292,airplane,airplane,0,0804_pow_s06_0_airplane_35_n02690373_20033.png
subject-06,1,805,0.555592060089111,airplane,airplane,0,0805_pow_s06_0_airplane_35_n02690373_8804.png
subject-06,1,806,0.630313873291016,bird,bird,0,0806_pow_s06_0_bird_35_n02018207_10651.png
subject-06,1,807,0.728482007980347,clock,clock,0,0807_pow_s06_0_clock_35_n03196217_276.png
subject-06,1,808,0.581016778945923,keyboard,keyboard,0,0808_pow_s06_0_keyboard_35_n03085013_4780.png
subject-06,1,809,0.531558036804199,cat,cat,pow,0809_pow_s06_pow_cat_35_n02123045_6320.png
subject-06,1,810,0.876116991043091,cat,bear,pow,0810_pow_s06_pow_bear_35_n02134084_7692.png
subject-06,1,811,1.35664510726929,knife,clock,pow,0811_pow_s06_pow_clock_35_n03196217_3994.png
subject-06,1,812,0.755185842514038,car,car,pow,0812_pow_s06_pow_car_35_n04285008_8641.png
subject-06,1,813,0.785549879074097,knife,knife,pow,0813_pow_s06_pow_knife_35_n03041632_28129.png
subject-06,1,814,1.06608104705811,airplane,airplane,pow,0814_pow_s06_pow_airplane_35_n02690373_9318.png
subject-06,1,815,0.810832977294922,bottle,clock,pow,0815_pow_s06_pow_clock_35_n03196217_5888.png
subject-06,1,816,0.801074028015137,knife,knife,0,0816_pow_s06_0_knife_35_n03041632_33739.png
subject-06,1,817,0.445446014404297,car,car,0,0817_pow_s06_0_car_35_n04285008_2850.png
subject-06,1,818,0.995495080947876,clock,clock,pow,0818_pow_s06_pow_clock_35_n03196217_2224.png
subject-06,1,819,0.785979986190796,chair,chair,pow,0819_pow_s06_pow_chair_35_n04099969_9105.png
subject-06,1,820,1.19001293182373,knife,oven,pow,0820_pow_s06_pow_oven_35_n04111531_14095.png
subject-06,1,821,0.678940057754517,chair,chair,0,0821_pow_s06_0_chair_35_n02791124_2358.png
subject-06,1,822,1.35947704315186,car,car,0,0822_pow_s06_0_car_35_n02814533_72864.png
subject-06,1,823,1.01962685585022,chair,bicycle,pow,0823_pow_s06_pow_bicycle_35_n02835271_11995.png
subject-06,1,824,0.810470104217529,elephant,elephant,pow,0824_pow_s06_pow_elephant_35_n02504013_9301.png
subject-06,1,825,1.19279599189758,knife,knife,pow,0825_pow_s06_pow_knife_35_n03041632_31037.png
subject-06,1,826,0.59949803352356,cat,cat,0,0826_pow_s06_0_cat_35_n02123159_3010.png
subject-06,1,827,1.04175782203674,oven,oven,pow,0827_pow_s06_pow_oven_35_n04111531_15718.png
subject-06,1,828,0.701839208602905,bird,bird,0,0828_pow_s06_0_bird_35_n01531178_3231.png
subject-06,1,829,0.606544017791748,keyboard,keyboard,0,0829_pow_s06_0_keyboard_35_n03085013_20957.png
subject-06,1,830,0.850878953933716,dog,dog,0,0830_pow_s06_0_dog_35_n02108422_1975.png
subject-06,1,831,0.519301891326904,bird,bird,pow,0831_pow_s06_pow_bird_35_n01824575_1145.png
subject-06,1,832,0.620253086090088,bicycle,bicycle,0,0832_pow_s06_0_bicycle_35_n02835271_9202.png
subject-06,1,833,1.09426617622375,oven,oven,pow,0833_pow_s06_pow_oven_35_n04111531_13018.png
subject-06,1,834,0.608610153198242,bear,bear,0,0834_pow_s06_0_bear_35_n02132136_129.png
subject-06,1,835,0.47481894493103,oven,oven,0,0835_pow_s06_0_oven_35_n04111531_13277.png
subject-06,1,836,1.16335391998291,knife,keyboard,0,0836_pow_s06_0_keyboard_35_n03085013_24268.png
subject-06,1,837,0.764030933380127,keyboard,keyboard,pow,0837_pow_s06_pow_keyboard_35_n04505470_4357.png
subject-06,1,838,0.792321920394897,keyboard,keyboard,0,0838_pow_s06_0_keyboard_35_n03085013_3489.png
subject-06,1,839,0.834313869476318,bear,bear,pow,0839_pow_s06_pow_bear_35_n02134084_10316.png
subject-06,1,840,0.924561023712158,bottle,chair,pow,0840_pow_s06_pow_chair_35_n03376595_30.png
subject-06,1,841,0.644495010375977,knife,knife,pow,0841_pow_s06_pow_knife_35_n03041632_42196.png
subject-06,1,842,0.780641078948975,boat,boat,0,0842_pow_s06_0_boat_35_n03344393_4425.png
subject-06,1,843,0.724831104278564,boat,boat,0,0843_pow_s06_0_boat_35_n03662601_4756.png
subject-06,1,844,0.607576131820679,oven,chair,pow,0844_pow_s06_pow_chair_35_n03376595_4730.png
subject-06,1,845,0.911961078643799,airplane,airplane,0,0845_pow_s06_0_airplane_35_n02690373_4294.png
subject-06,1,846,1.11623382568359,elephant,elephant,pow,0846_pow_s06_pow_elephant_35_n02504013_2438.png
subject-06,1,847,0.946545839309692,bear,clock,pow,0847_pow_s06_pow_clock_35_n04548280_6122.png
subject-06,1,848,0.896569967269897,bear,bear,pow,0848_pow_s06_pow_bear_35_n02134418_4657.png
subject-06,1,849,1.28734803199768,airplane,airplane,0,0849_pow_s06_0_airplane_35_n02690373_17063.png
subject-06,1,850,0.547821998596191,bear,bear,0,0850_pow_s06_0_bear_35_n02134084_4401.png
subject-06,1,851,0.689038991928101,airplane,airplane,0,0851_pow_s06_0_airplane_35_n02690373_4586.png
subject-06,1,852,0.67864990234375,boat,boat,pow,0852_pow_s06_pow_boat_35_n03662601_9957.png
subject-06,1,853,0.837212085723877,dog,dog,0,0853_pow_s06_0_dog_35_n02108915_6724.png
subject-06,1,854,0.727874040603638,oven,clock,pow,0854_pow_s06_pow_clock_35_n03196217_5206.png
subject-06,1,855,0.788463115692139,bicycle,bicycle,pow,0855_pow_s06_pow_bicycle_35_n03792782_42978.png
subject-06,1,856,0.746477842330933,bear,elephant,0,0856_pow_s06_0_elephant_35_n02504458_130.png
subject-06,1,857,0.453122854232788,clock,clock,0,0857_pow_s06_0_clock_35_n03196217_1792.png
subject-06,1,858,0.735162973403931,elephant,elephant,0,0858_pow_s06_0_elephant_35_n02504458_14316.png
subject-06,1,859,0.717998027801514,bottle,bottle,0,0859_pow_s06_0_bottle_35_n03937543_3042.png
subject-06,1,860,0.913737058639526,airplane,airplane,0,0860_pow_s06_0_airplane_35_n02690373_8069.png
subject-06,1,861,1.08836007118225,knife,knife,0,0861_pow_s06_0_knife_35_n03041632_94202.png
subject-06,1,862,0.672806978225708,bear,bear,0,0862_pow_s06_0_bear_35_n02133161_10.png
subject-06,1,863,0.706454992294312,cat,cat,pow,0863_pow_s06_pow_cat_35_n02123159_7184.png
subject-06,1,864,1.28644704818726,bear,bear,0,0864_pow_s06_0_bear_35_n02134418_932.png
subject-06,1,865,NaN,na,chair,0,0865_pow_s06_0_chair_35_n02791124_7207.png
subject-06,1,866,0.807077169418335,dog,dog,0,0866_pow_s06_0_dog_35_n02112706_4901.png
subject-06,1,867,0.459344863891602,cat,cat,pow,0867_pow_s06_pow_cat_35_n02123159_1657.png
subject-06,1,868,0.839845895767212,car,car,pow,0868_pow_s06_pow_car_35_n02814533_94404.png
subject-06,1,869,0.892185211181641,bottle,bottle,0,0869_pow_s06_0_bottle_35_n03937543_2267.png
subject-06,1,870,0.796264171600342,bicycle,bicycle,0,0870_pow_s06_0_bicycle_35_n03792782_1442.png
subject-06,1,871,0.848525047302246,knife,knife,0,0871_pow_s06_0_knife_35_n03041632_7495.png
subject-06,1,872,0.875728130340576,truck,truck,pow,0872_pow_s06_pow_truck_35_n04467665_8955.png
subject-06,1,873,1.39382910728455,elephant,elephant,0,0873_pow_s06_0_elephant_35_n02504013_4407.png
subject-06,1,874,0.708655118942261,dog,dog,pow,0874_pow_s06_pow_dog_35_n02113799_2291.png
subject-06,1,875,0.806782007217407,oven,oven,0,0875_pow_s06_0_oven_35_n04111531_13822.png
subject-06,1,876,0.997505903244019,airplane,airplane,pow,0876_pow_s06_pow_airplane_35_n02690373_5869.png
subject-06,1,877,0.663617134094238,keyboard,keyboard,pow,0877_pow_s06_pow_keyboard_35_n03085013_21150.png
subject-06,1,878,0.799998998641968,oven,oven,pow,0878_pow_s06_pow_oven_35_n04111531_4998.png
subject-06,1,879,0.566490888595581,cat,cat,pow,0879_pow_s06_pow_cat_35_n02123597_6491.png
subject-06,1,880,0.980602979660034,cat,cat,0,0880_pow_s06_0_cat_35_n02123159_3548.png
subject-06,1,881,0.579001903533936,cat,cat,0,0881_pow_s06_0_cat_35_n02123159_3216.png
subject-06,1,882,0.891584873199463,bear,bear,pow,0882_pow_s06_pow_bear_35_n02133161_1458.png
subject-06,1,883,0.90381383895874,boat,boat,pow,0883_pow_s06_pow_boat_35_n03344393_3389.png
subject-06,1,884,0.686182975769043,car,car,pow,0884_pow_s06_pow_car_35_n04285008_3316.png
subject-06,1,885,0.700824022293091,airplane,airplane,pow,0885_pow_s06_pow_airplane_35_n02690373_9071.png
subject-06,1,886,1.50000500679016,airplane,knife,0,0886_pow_s06_0_knife_35_n03041632_39342.png
subject-06,1,887,0.833523035049438,keyboard,keyboard,0,0887_pow_s06_0_keyboard_35_n04505470_2583.png
subject-06,1,888,1.41613411903381,bottle,bottle,pow,0888_pow_s06_pow_bottle_35_n03937543_3678.png
subject-06,1,889,0.660068035125732,bird,bird,0,0889_pow_s06_0_bird_35_n01530575_6016.png
subject-06,1,890,0.604322910308838,cat,cat,pow,0890_pow_s06_pow_cat_35_n02123394_3724.png
subject-06,1,891,0.946314811706543,clock,clock,pow,0891_pow_s06_pow_clock_35_n03196217_4519.png
subject-06,1,892,0.470237016677856,clock,clock,0,0892_pow_s06_0_clock_35_n04548280_3701.png
subject-06,1,893,0.822013854980469,oven,oven,0,0893_pow_s06_0_oven_35_n04111531_3353.png
subject-06,1,894,0.766442060470581,boat,boat,0,0894_pow_s06_0_boat_35_n02951358_1752.png
subject-06,1,895,0.840593099594116,cat,cat,pow,0895_pow_s06_pow_cat_35_n02125311_5619.png
subject-06,1,896,0.999340057373047,dog,dog,0,0896_pow_s06_0_dog_35_n02110958_3992.png
subject-06,1,897,0.875679969787598,truck,truck,0,0897_pow_s06_0_truck_35_n03417042_28404.png
subject-06,1,898,0.704153060913086,keyboard,keyboard,0,0898_pow_s06_0_keyboard_35_n04505470_9331.png
subject-06,1,899,0.770704984664917,airplane,airplane,0,0899_pow_s06_0_airplane_35_n02690373_4195.png
subject-06,1,900,0.744861125946045,keyboard,keyboard,pow,0900_pow_s06_pow_keyboard_35_n04505470_4922.png
subject-06,1,901,0.811146974563599,dog,dog,0,0901_pow_s06_0_dog_35_n02097298_10056.png
subject-06,1,902,0.547132015228271,bear,bear,0,0902_pow_s06_0_bear_35_n02133161_19652.png
subject-06,1,903,0.851521015167236,bear,keyboard,pow,0903_pow_s06_pow_keyboard_35_n03085013_18685.png
subject-06,1,904,0.65832781791687,car,car,0,0904_pow_s06_0_car_35_n04285008_15271.png
subject-06,1,905,0.794342041015625,elephant,elephant,0,0905_pow_s06_0_elephant_35_n02504458_4562.png
subject-06,1,906,0.654863834381104,oven,truck,pow,0906_pow_s06_pow_truck_35_n03417042_6893.png
subject-06,1,907,1.1971709728241,chair,chair,0,0907_pow_s06_0_chair_35_n02791124_16058.png
subject-06,1,908,0.565369129180908,oven,oven,pow,0908_pow_s06_pow_oven_35_n04111531_7050.png
subject-06,1,909,1.32395315170288,bird,cat,pow,0909_pow_s06_pow_cat_35_n02123045_8751.png
subject-06,1,910,0.898254156112671,bicycle,bicycle,pow,0910_pow_s06_pow_bicycle_35_n03792782_6678.png
subject-06,1,911,0.851037979125977,knife,knife,0,0911_pow_s06_0_knife_35_n03041632_289.png
subject-06,1,912,0.854029893875122,bottle,bottle,pow,0912_pow_s06_pow_bottle_35_n04560804_14815.png
subject-06,1,913,0.744356155395508,bear,bear,0,0913_pow_s06_0_bear_35_n02134084_7599.png
subject-06,1,914,0.834897994995117,chair,chair,0,0914_pow_s06_0_chair_35_n02791124_17001.png
subject-06,1,915,0.822859048843384,truck,truck,pow,0915_pow_s06_pow_truck_35_n03417042_20382.png
subject-06,1,916,1.11333608627319,clock,clock,0,0916_pow_s06_0_clock_35_n02708093_2432.png
subject-06,1,917,1.30185198783875,bear,cat,pow,0917_pow_s06_pow_cat_35_n02124075_2993.png
subject-06,1,918,0.618200063705444,clock,clock,pow,0918_pow_s06_pow_clock_35_n04548280_3398.png
subject-06,1,919,0.868726015090942,bear,bear,pow,0919_pow_s06_pow_bear_35_n02133161_16147.png
subject-06,1,920,1.15131711959839,oven,chair,pow,0920_pow_s06_pow_chair_35_n04429376_10054.png
subject-06,1,921,1.26406788825989,knife,chair,pow,0921_pow_s06_pow_chair_35_n02791124_2813.png
subject-06,1,922,0.732159852981567,oven,truck,pow,0922_pow_s06_pow_truck_35_n03796401_4094.png
subject-06,1,923,0.651397943496704,chair,chair,0,0923_pow_s06_0_chair_35_n04099969_3436.png
subject-06,1,924,1.29384994506836,dog,dog,pow,0924_pow_s06_pow_dog_35_n02105855_22.png
subject-06,1,925,1.49031090736389,dog,dog,pow,0925_pow_s06_pow_dog_35_n02106382_7580.png
subject-06,1,926,0.982869863510132,truck,truck,pow,0926_pow_s06_pow_truck_35_n03796401_27515.png
subject-06,1,927,1.18710398674011,chair,chair,pow,0927_pow_s06_pow_chair_35_n02791124_1097.png
subject-06,1,928,0.45533299446106,boat,boat,0,0928_pow_s06_0_boat_35_n03344393_2362.png
subject-06,1,929,0.813616991043091,chair,chair,pow,0929_pow_s06_pow_chair_35_n04429376_23039.png
subject-06,1,930,0.803790092468262,bicycle,bicycle,0,0930_pow_s06_0_bicycle_35_n02835271_13404.png
subject-06,1,931,0.686597108840942,chair,chair,0,0931_pow_s06_0_chair_35_n04429376_19623.png
subject-06,1,932,1.21487593650818,oven,truck,0,0932_pow_s06_0_truck_35_n03417042_3327.png
subject-06,1,933,0.64356803894043,boat,boat,pow,0933_pow_s06_pow_boat_35_n04273569_16740.png
subject-06,1,934,1.02564287185669,bird,bird,0,0934_pow_s06_0_bird_35_n02007558_20134.png
subject-06,1,935,1.05994701385498,knife,knife,pow,0935_pow_s06_pow_knife_35_n03041632_20517.png
subject-06,1,936,1.16662287712097,bird,bird,0,0936_pow_s06_0_bird_35_n02028035_16486.png
subject-06,1,937,0.764652013778687,bear,bear,pow,0937_pow_s06_pow_bear_35_n02134084_5084.png
subject-06,1,938,0.85269021987915,bicycle,bicycle,pow,0938_pow_s06_pow_bicycle_35_n03792782_1418.png
subject-06,1,939,0.759467840194702,airplane,airplane,0,0939_pow_s06_0_airplane_35_n02690373_5266.png
subject-06,1,940,0.6038658618927,bird,bird,0,0940_pow_s06_0_bird_35_n01843383_13393.png
subject-06,1,941,0.556625843048096,cat,cat,pow,0941_pow_s06_pow_cat_35_n02123045_15476.png
subject-06,1,942,0.868306159973145,airplane,airplane,pow,0942_pow_s06_pow_airplane_35_n02690373_6929.png
subject-06,1,943,0.97967791557312,bottle,bottle,0,0943_pow_s06_0_bottle_35_n03983396_16316.png
subject-06,1,944,1.03009104728699,airplane,airplane,pow,0944_pow_s06_pow_airplane_35_n02690373_3620.png
subject-06,1,945,0.606694936752319,knife,knife,pow,0945_pow_s06_pow_knife_35_n03041632_38433.png
subject-06,1,946,0.940751075744629,knife,elephant,pow,0946_pow_s06_pow_elephant_35_n02504013_1900.png
subject-06,1,947,0.779455184936523,dog,dog,pow,0947_pow_s06_pow_dog_35_n02093647_1494.png
subject-06,1,948,0.799897193908691,airplane,airplane,pow,0948_pow_s06_pow_airplane_35_n02690373_4310.png
subject-06,1,949,0.698384046554565,bird,bird,pow,0949_pow_s06_pow_bird_35_n02009912_13815.png
subject-06,1,950,0.942892074584961,bear,bear,0,0950_pow_s06_0_bear_35_n02133161_5347.png
subject-06,1,951,0.909129858016968,boat,oven,pow,0951_pow_s06_pow_oven_35_n04111531_10420.png
subject-06,1,952,0.983443021774292,dog,dog,pow,0952_pow_s06_pow_dog_35_n02101388_2820.png
subject-06,1,953,0.735717058181763,bottle,bottle,0,0953_pow_s06_0_bottle_35_n03983396_10814.png
subject-06,1,954,0.484791994094849,boat,boat,pow,0954_pow_s06_pow_boat_35_n04612504_17104.png
subject-06,1,955,0.926955938339233,airplane,airplane,0,0955_pow_s06_0_airplane_35_n02690373_3383.png
subject-06,1,956,0.80112886428833,bird,bird,0,0956_pow_s06_0_bird_35_n01798484_6411.png
subject-06,1,957,0.831423997879028,knife,clock,0,0957_pow_s06_0_clock_35_n04548280_4345.png
subject-06,1,958,0.643868207931519,airplane,airplane,pow,0958_pow_s06_pow_airplane_35_n02690373_5824.png
subject-06,1,959,0.480333805084229,clock,clock,pow,0959_pow_s06_pow_clock_35_n04548280_1324.png
subject-06,1,960,0.524352073669434,airplane,airplane,pow,0960_pow_s06_pow_airplane_35_n02690373_1450.png
subject-06,1,961,0.822278022766113,cat,cat,0,0961_pow_s06_0_cat_35_n02123159_4313.png
subject-06,1,962,0.904333114624023,chair,chair,0,0962_pow_s06_0_chair_35_n04099969_6309.png
subject-06,1,963,0.870576143264771,truck,truck,pow,0963_pow_s06_pow_truck_35_n03417042_21055.png
subject-06,1,964,0.798672914505005,elephant,elephant,pow,0964_pow_s06_pow_elephant_35_n02504458_4963.png
subject-06,1,965,0.534755945205688,keyboard,keyboard,0,0965_pow_s06_0_keyboard_35_n03085013_10035.png
subject-06,1,966,0.457158088684082,clock,clock,pow,0966_pow_s06_pow_clock_35_n04548280_10291.png
subject-06,1,967,0.523256063461304,cat,cat,0,0967_pow_s06_0_cat_35_n02123597_439.png
subject-06,1,968,0.611615896224976,bird,bird,0,0968_pow_s06_0_bird_35_n02037110_2771.png
subject-06,1,969,1.13163208961487,bird,bird,pow,0969_pow_s06_pow_bird_35_n02011460_2514.png
subject-06,1,970,0.645704984664917,cat,cat,pow,0970_pow_s06_pow_cat_35_n02124075_8031.png
subject-06,1,971,1.27213406562805,airplane,airplane,0,0971_pow_s06_0_airplane_35_n02690373_6534.png
subject-06,1,972,0.486822128295898,clock,clock,0,0972_pow_s06_0_clock_35_n04548280_4358.png
subject-06,1,973,0.920722961425781,dog,dog,pow,0973_pow_s06_pow_dog_35_n02113712_1321.png
subject-06,1,974,1.08673405647278,oven,oven,0,0974_pow_s06_0_oven_35_n04111531_16198.png
subject-06,1,975,1.17666006088257,chair,chair,0,0975_pow_s06_0_chair_35_n04099969_8567.png
subject-06,1,976,0.721211194992065,bicycle,bicycle,pow,0976_pow_s06_pow_bicycle_35_n02835271_10538.png
subject-06,1,977,1.13379907608032,truck,truck,pow,0977_pow_s06_pow_truck_35_n03417042_5335.png
subject-06,1,978,0.610095024108887,keyboard,keyboard,0,0978_pow_s06_0_keyboard_35_n03085013_20490.png
subject-06,1,979,1.21398282051086,bear,dog,0,0979_pow_s06_0_dog_35_n02088094_1907.png
subject-06,1,980,1.14253091812134,clock,keyboard,pow,0980_pow_s06_pow_keyboard_35_n03085013_12482.png
subject-06,1,981,0.640632152557373,bird,bird,pow,0981_pow_s06_pow_bird_35_n01824575_6843.png
subject-06,1,982,0.614627838134766,chair,chair,0,0982_pow_s06_0_chair_35_n04099969_6398.png
subject-06,1,983,0.887022972106934,airplane,airplane,pow,0983_pow_s06_pow_airplane_35_n02690373_4251.png
subject-06,1,984,0.9914710521698,airplane,airplane,0,0984_pow_s06_0_airplane_35_n02690373_6406.png
subject-06,1,985,0.89474892616272,airplane,airplane,0,0985_pow_s06_0_airplane_35_n02690373_9718.png
subject-06,1,986,0.670835971832275,bicycle,bicycle,pow,0986_pow_s06_pow_bicycle_35_n02835271_7454.png
subject-06,1,987,1.20456314086914,airplane,airplane,pow,0987_pow_s06_pow_airplane_35_n02690373_5628.png
subject-06,1,988,0.941459894180298,dog,dog,0,0988_pow_s06_0_dog_35_n02107908_5371.png
subject-06,1,989,1.20717811584473,oven,bottle,pow,0989_pow_s06_pow_bottle_35_n02823428_14859.png
subject-06,1,990,1.13300585746765,airplane,airplane,0,0990_pow_s06_0_airplane_35_n02690373_2268.png
subject-06,1,991,0.801630973815918,boat,boat,pow,0991_pow_s06_pow_boat_35_n03662601_7271.png
subject-06,1,992,0.738265991210938,elephant,elephant,pow,0992_pow_s06_pow_elephant_35_n02504013_5593.png
subject-06,1,993,0.704159021377563,airplane,boat,pow,0993_pow_s06_pow_boat_35_n04273569_18041.png
subject-06,1,994,0.870766878128052,bicycle,bicycle,0,0994_pow_s06_0_bicycle_35_n02835271_10849.png
subject-06,1,995,0.791415929794312,oven,oven,0,0995_pow_s06_0_oven_35_n04111531_15635.png
subject-06,1,996,0.773547172546387,truck,truck,0,0996_pow_s06_0_truck_35_n04467665_8674.png
subject-06,1,997,1.17201900482178,oven,knife,0,0997_pow_s06_0_knife_35_n03041632_3617.png
subject-06,1,998,0.632346868515015,clock,clock,pow,0998_pow_s06_pow_clock_35_n03196217_5742.png
subject-06,1,999,0.990764141082764,truck,truck,pow,0999_pow_s06_pow_truck_35_n04467665_61362.png
subject-06,1,1000,1.0114438533783,knife,bottle,pow,1000_pow_s06_pow_bottle_35_n02823428_3687.png
subject-06,1,1001,1.27760410308838,oven,bear,pow,1001_pow_s06_pow_bear_35_n02134418_119.png
subject-06,1,1002,0.937742948532104,elephant,elephant,pow,1002_pow_s06_pow_elephant_35_n02504458_6762.png
subject-06,1,1003,0.750381946563721,bicycle,bicycle,0,1003_pow_s06_0_bicycle_35_n03792782_23912.png
subject-06,1,1004,1.09452509880066,cat,dog,pow,1004_pow_s06_pow_dog_35_n02113624_5432.png
subject-06,1,1005,1.09331679344177,keyboard,oven,0,1005_pow_s06_0_oven_35_n04111531_12903.png
subject-06,1,1006,1.15954113006592,bird,bird,pow,1006_pow_s06_pow_bird_35_n01616318_798.png
subject-06,1,1007,0.634291887283325,bird,bird,pow,1007_pow_s06_pow_bird_35_n02013706_2468.png
subject-06,1,1008,0.732756853103638,chair,chair,0,1008_pow_s06_0_chair_35_n04429376_14880.png
subject-06,1,1009,0.62319803237915,elephant,elephant,0,1009_pow_s06_0_elephant_35_n02504013_1994.png
subject-06,1,1010,0.759333848953247,boat,boat,pow,1010_pow_s06_pow_boat_35_n03344393_623.png
subject-06,1,1011,1.09369897842407,elephant,elephant,0,1011_pow_s06_0_elephant_35_n02504458_5231.png
subject-06,1,1012,0.691937923431396,elephant,elephant,0,1012_pow_s06_0_elephant_35_n02504013_6865.png
subject-06,1,1013,0.528366088867188,clock,clock,0,1013_pow_s06_0_clock_35_n04548280_1323.png
subject-06,1,1014,0.834638118743896,boat,knife,0,1014_pow_s06_0_knife_35_n03041632_3079.png
subject-06,1,1015,0.700875997543335,truck,truck,0,1015_pow_s06_0_truck_35_n04467665_6115.png
subject-06,1,1016,0.812959909439087,cat,dog,0,1016_pow_s06_0_dog_35_n02104365_9983.png
subject-06,1,1017,0.689550876617432,chair,chair,0,1017_pow_s06_0_chair_35_n04429376_534.png
subject-06,1,1018,0.580198049545288,car,car,pow,1018_pow_s06_pow_car_35_n04285008_4038.png
subject-06,1,1019,1.002032995224,truck,truck,pow,1019_pow_s06_pow_truck_35_n04467665_19645.png
subject-06,1,1020,0.962622165679932,dog,dog,pow,1020_pow_s06_pow_dog_35_n02097209_5197.png
subject-06,1,1021,0.941864013671875,elephant,boat,pow,1021_pow_s06_pow_boat_35_n03662601_6632.png
subject-06,1,1022,0.701915979385376,oven,oven,pow,1022_pow_s06_pow_oven_35_n04111531_9498.png
subject-06,1,1023,0.746386051177979,bicycle,bicycle,0,1023_pow_s06_0_bicycle_35_n03792782_6876.png
subject-06,1,1024,0.858798027038574,knife,knife,pow,1024_pow_s06_pow_knife_35_n03041632_19866.png
subject-06,1,1025,0.565193891525269,keyboard,bottle,pow,1025_pow_s06_pow_bottle_35_n02823428_13621.png
subject-06,1,1026,0.739910840988159,bird,bird,0,1026_pow_s06_0_bird_35_n02028035_22624.png
subject-06,1,1027,0.630285978317261,truck,truck,0,1027_pow_s06_0_truck_35_n04467665_54161.png
subject-06,1,1028,0.780925035476685,oven,oven,0,1028_pow_s06_0_oven_35_n04111531_15467.png
subject-06,1,1029,1.11712694168091,bicycle,bicycle,0,1029_pow_s06_0_bicycle_35_n03792782_5106.png
subject-06,1,1030,0.637302160263062,bicycle,bicycle,0,1030_pow_s06_0_bicycle_35_n02835271_24241.png
subject-06,1,1031,1.34189414978027,oven,knife,0,1031_pow_s06_0_knife_35_n03041632_84048.png
subject-06,1,1032,0.694299936294556,bottle,bottle,pow,1032_pow_s06_pow_bottle_35_n02823428_6114.png
subject-06,1,1033,0.646464824676514,clock,clock,pow,1033_pow_s06_pow_clock_35_n02708093_470.png
subject-06,1,1034,0.980918884277344,elephant,elephant,pow,1034_pow_s06_pow_elephant_35_n02504013_3300.png
subject-06,1,1035,0.841495037078857,bottle,bottle,0,1035_pow_s06_0_bottle_35_n03937543_3755.png
subject-06,1,1036,0.837826013565063,car,car,0,1036_pow_s06_0_car_35_n04285008_16409.png
subject-06,1,1037,0.758116960525513,knife,knife,0,1037_pow_s06_0_knife_35_n03041632_8151.png
subject-06,1,1038,0.680274963378906,keyboard,keyboard,pow,1038_pow_s06_pow_keyboard_35_n04505470_2422.png
subject-06,1,1039,0.700623035430908,cat,cat,0,1039_pow_s06_0_cat_35_n02125311_45806.png
subject-06,1,1040,0.537197113037109,bottle,bottle,0,1040_pow_s06_0_bottle_35_n04560804_6644.png
subject-06,1,1041,0.573710203170776,airplane,airplane,pow,1041_pow_s06_pow_airplane_35_n02690373_2293.png
subject-06,1,1042,0.492921829223633,airplane,airplane,pow,1042_pow_s06_pow_airplane_35_n02690373_9619.png
subject-06,1,1043,0.627568006515503,elephant,elephant,pow,1043_pow_s06_pow_elephant_35_n02504458_4626.png
subject-06,1,1044,0.787910938262939,clock,boat,0,1044_pow_s06_0_boat_35_n03344393_352.png
subject-06,1,1045,0.46263599395752,clock,clock,0,1045_pow_s06_0_clock_35_n02708093_664.png
subject-06,1,1046,0.8607017993927,airplane,airplane,0,1046_pow_s06_0_airplane_35_n02690373_9533.png
subject-06,1,1047,0.664494037628174,airplane,airplane,0,1047_pow_s06_0_airplane_35_n02690373_2496.png
subject-06,1,1048,1.47487020492554,boat,boat,0,1048_pow_s06_0_boat_35_n03662601_8516.png
subject-06,1,1049,0.896915912628174,keyboard,keyboard,pow,1049_pow_s06_pow_keyboard_35_n03085013_23929.png
subject-06,1,1050,0.563179016113281,oven,oven,pow,1050_pow_s06_pow_oven_35_n04111531_16144.png
subject-06,1,1051,0.745723962783813,bottle,bottle,0,1051_pow_s06_0_bottle_35_n03937543_4754.png
subject-06,1,1052,0.911663770675659,truck,truck,0,1052_pow_s06_0_truck_35_n04467665_2044.png
subject-06,1,1053,1.30752086639404,knife,knife,0,1053_pow_s06_0_knife_35_n03041632_10263.png
subject-06,1,1054,1.20581197738647,oven,chair,pow,1054_pow_s06_pow_chair_35_n04429376_7957.png
subject-06,1,1055,0.596219062805176,car,car,0,1055_pow_s06_0_car_35_n03100240_14948.png
subject-06,1,1056,0.624466180801392,knife,knife,0,1056_pow_s06_0_knife_35_n03041632_16172.png
subject-06,1,1057,0.674887895584106,bear,bear,pow,1057_pow_s06_pow_bear_35_n02133161_1608.png
subject-06,1,1058,0.75717306137085,cat,cat,0,1058_pow_s06_0_cat_35_n02124075_9339.png
subject-06,1,1059,1.23938608169556,bear,bird,0,1059_pow_s06_0_bird_35_n02009912_1653.png
subject-06,1,1060,1.05926895141602,car,car,pow,1060_pow_s06_pow_car_35_n04285008_8099.png
subject-06,1,1061,0.925831079483032,bird,bear,pow,1061_pow_s06_pow_bear_35_n02134084_273.png
