subj,session,trial,rt,object_response,category,condition,imagename
subject-02,1,1,0.757191181182861,bear,dog,pow,0001_pow_s02_pow_dog_35_n02097298_12109.png
subject-02,1,2,0.497365951538086,chair,chair,pow,0002_pow_s02_pow_chair_35_n03376595_7394.png
subject-02,1,3,0.644177198410034,car,car,0,0003_pow_s02_0_car_35_n03100240_17523.png
subject-02,1,4,0.635976076126099,bird,bird,0,0004_pow_s02_0_bird_35_n01795545_17809.png
subject-02,1,5,0.968609094619751,truck,oven,pow,0005_pow_s02_pow_oven_35_n04111531_6298.png
subject-02,1,6,0.560181856155396,boat,boat,0,0006_pow_s02_0_boat_35_n03344393_4376.png
subject-02,1,7,0.498117923736572,boat,boat,pow,0007_pow_s02_pow_boat_35_n03344393_629.png
subject-02,1,8,0.530810117721558,boat,boat,0,0008_pow_s02_0_boat_35_n04273569_39.png
subject-02,1,9,0.590724945068359,oven,oven,0,0009_pow_s02_0_oven_35_n04111531_27.png
subject-02,1,10,0.798530101776123,dog,dog,pow,0010_pow_s02_pow_dog_35_n02102177_7619.png
subject-02,1,11,0.753424882888794,boat,boat,0,0011_pow_s02_0_boat_35_n04273569_3460.png
subject-02,1,12,0.577059984207153,bear,bear,0,0012_pow_s02_0_bear_35_n02134418_1174.png
subject-02,1,13,0.669632911682129,boat,boat,pow,0013_pow_s02_pow_boat_35_n03344393_6363.png
subject-02,1,14,0.532140970230103,chair,chair,0,0014_pow_s02_0_chair_35_n04099969_14537.png
subject-02,1,15,0.63268518447876,bird,bird,0,0015_pow_s02_0_bird_35_n02027492_15798.png
subject-02,1,16,0.725181102752686,chair,dog,pow,0016_pow_s02_pow_dog_35_n02091032_1239.png
subject-02,1,17,0.77935791015625,truck,truck,pow,0017_pow_s02_pow_truck_35_n03417042_7444.png
subject-02,1,18,0.565939903259277,cat,cat,0,0018_pow_s02_0_cat_35_n02124075_15230.png
subject-02,1,19,0.574034929275513,dog,dog,pow,0019_pow_s02_pow_dog_35_n02091831_1232.png
subject-02,1,20,0.68874716758728,bicycle,bicycle,pow,0020_pow_s02_pow_bicycle_35_n02835271_14383.png
subject-02,1,21,0.896594047546387,oven,chair,pow,0021_pow_s02_pow_chair_35_n02791124_3221.png
subject-02,1,22,1.10561299324036,cat,cat,0,0022_pow_s02_0_cat_35_n02125311_10094.png
subject-02,1,23,0.654040098190308,airplane,airplane,0,0023_pow_s02_0_airplane_35_n02690373_2092.png
subject-02,1,24,0.78488302230835,keyboard,bottle,pow,0024_pow_s02_pow_bottle_35_n03937543_2600.png
subject-02,1,25,0.762510061264038,dog,dog,pow,0025_pow_s02_pow_dog_35_n02096294_11328.png
subject-02,1,26,0.492650032043457,bottle,keyboard,pow,0026_pow_s02_pow_keyboard_35_n04505470_147.png
subject-02,1,27,0.847765922546387,keyboard,keyboard,pow,0027_pow_s02_pow_keyboard_35_n03085013_5714.png
subject-02,1,28,0.672446966171265,dog,dog,0,0028_pow_s02_0_dog_35_n02102973_4816.png
subject-02,1,29,0.772304058074951,elephant,elephant,0,0029_pow_s02_0_elephant_35_n02504013_7210.png
subject-02,1,30,0.849020004272461,airplane,airplane,0,0030_pow_s02_0_airplane_35_n02690373_2856.png
subject-02,1,31,0.806394100189209,cat,bird,pow,0031_pow_s02_pow_bird_35_n01818515_7114.png
subject-02,1,32,0.798422813415527,cat,cat,pow,0032_pow_s02_pow_cat_35_n02124075_13747.png
subject-02,1,33,0.722968101501465,dog,dog,pow,0033_pow_s02_pow_dog_35_n02111500_8188.png
subject-02,1,34,0.745858907699585,clock,clock,pow,0034_pow_s02_pow_clock_35_n03196217_2246.png
subject-02,1,35,0.532068014144897,bear,bear,0,0035_pow_s02_0_bear_35_n02132136_9497.png
subject-02,1,36,0.695134878158569,knife,knife,0,0036_pow_s02_0_knife_35_n03041632_35116.png
subject-02,1,37,0.750227928161621,car,car,pow,0037_pow_s02_pow_car_35_n03100240_18984.png
subject-02,1,38,0.596769094467163,elephant,elephant,0,0038_pow_s02_0_elephant_35_n02504458_10661.png
subject-02,1,39,0.52144980430603,chair,chair,0,0039_pow_s02_0_chair_35_n03376595_6800.png
subject-02,1,40,0.637896060943604,airplane,airplane,0,0040_pow_s02_0_airplane_35_n02690373_8069.png
subject-02,1,41,0.654366970062256,airplane,airplane,pow,0041_pow_s02_pow_airplane_35_n02690373_6223.png
subject-02,1,42,0.546677112579346,cat,cat,pow,0042_pow_s02_pow_cat_35_n02123045_10543.png
subject-02,1,43,0.717155933380127,oven,oven,0,0043_pow_s02_0_oven_35_n04111531_3477.png
subject-02,1,44,0.585631847381592,elephant,elephant,pow,0044_pow_s02_pow_elephant_35_n02504013_17878.png
subject-02,1,45,0.46523904800415,cat,cat,0,0045_pow_s02_0_cat_35_n02123597_386.png
subject-02,1,46,0.788911819458008,boat,boat,pow,0046_pow_s02_pow_boat_35_n04273569_20406.png
subject-02,1,47,0.687103033065796,bicycle,bicycle,pow,0047_pow_s02_pow_bicycle_35_n02835271_5751.png
subject-02,1,48,0.658150196075439,boat,boat,0,0048_pow_s02_0_boat_35_n03344393_1657.png
subject-02,1,49,0.742547988891602,truck,truck,0,0049_pow_s02_0_truck_35_n04467665_63645.png
subject-02,1,50,0.634528160095215,bottle,bottle,0,0050_pow_s02_0_bottle_35_n04579145_6452.png
subject-02,1,51,0.705401182174683,cat,knife,pow,0051_pow_s02_pow_knife_35_n03041632_86338.png
subject-02,1,52,0.559539079666138,bird,bird,0,0052_pow_s02_0_bird_35_n01592084_3028.png
subject-02,1,53,0.500375986099243,airplane,airplane,0,0053_pow_s02_0_airplane_35_n02690373_3956.png
subject-02,1,54,0.56855297088623,cat,cat,0,0054_pow_s02_0_cat_35_n02124075_379.png
subject-02,1,55,0.723419904708862,truck,keyboard,pow,0055_pow_s02_pow_keyboard_35_n03085013_23916.png
subject-02,1,56,0.515421152114868,bear,bear,0,0056_pow_s02_0_bear_35_n02132136_10841.png
subject-02,1,57,0.424171924591064,bird,bird,0,0057_pow_s02_0_bird_35_n02006656_3422.png
subject-02,1,58,0.462492942810059,clock,clock,pow,0058_pow_s02_pow_clock_35_n02708093_1701.png
subject-02,1,59,0.63860297203064,dog,dog,pow,0059_pow_s02_pow_dog_35_n02091244_6439.png
subject-02,1,60,0.832804918289185,bear,bear,pow,0060_pow_s02_pow_bear_35_n02132136_8118.png
subject-02,1,61,0.939250946044922,boat,boat,pow,0061_pow_s02_pow_boat_35_n03344393_4608.png
subject-02,1,62,0.509227991104126,car,car,pow,0062_pow_s02_pow_car_35_n03100240_21377.png
subject-02,1,63,1.06373691558838,oven,oven,0,0063_pow_s02_0_oven_35_n04111531_2831.png
subject-02,1,64,0.525854825973511,bear,bear,pow,0064_pow_s02_pow_bear_35_n02134418_2231.png
subject-02,1,65,0.648308038711548,knife,knife,0,0065_pow_s02_0_knife_35_n03041632_11475.png
subject-02,1,66,0.695146083831787,bicycle,bicycle,pow,0066_pow_s02_pow_bicycle_35_n03792782_4545.png
subject-02,1,67,0.487109899520874,car,car,0,0067_pow_s02_0_car_35_n02814533_27150.png
subject-02,1,68,0.650352954864502,bear,bear,pow,0068_pow_s02_pow_bear_35_n02134418_1019.png
subject-02,1,69,0.550519943237305,airplane,airplane,pow,0069_pow_s02_pow_airplane_35_n02690373_17063.png
subject-02,1,70,0.553045988082886,chair,chair,pow,0070_pow_s02_pow_chair_35_n02791124_1229.png
subject-02,1,71,0.55404806137085,car,car,0,0071_pow_s02_0_car_35_n03100240_21334.png
subject-02,1,72,1.00021004676819,clock,clock,0,0072_pow_s02_0_clock_35_n02708093_7119.png
subject-02,1,73,1.18495917320251,knife,knife,0,0073_pow_s02_0_knife_35_n03041632_13108.png
subject-02,1,74,0.563115119934082,boat,boat,0,0074_pow_s02_0_boat_35_n03662601_26031.png
subject-02,1,75,0.709439992904663,clock,clock,pow,0075_pow_s02_pow_clock_35_n04548280_3036.png
subject-02,1,76,0.615836143493652,bicycle,bicycle,pow,0076_pow_s02_pow_bicycle_35_n03792782_23560.png
subject-02,1,77,0.948178052902222,cat,bird,pow,0077_pow_s02_pow_bird_35_n01824575_906.png
subject-02,1,78,0.740637063980103,knife,bottle,0,0078_pow_s02_0_bottle_35_n04591713_2070.png
subject-02,1,79,0.532348155975342,airplane,airplane,0,0079_pow_s02_0_airplane_35_n02690373_7099.png
subject-02,1,80,0.596862077713013,keyboard,keyboard,0,0080_pow_s02_0_keyboard_35_n03085013_20891.png
subject-02,1,81,0.751163005828857,knife,knife,0,0081_pow_s02_0_knife_35_n03041632_26340.png
subject-02,1,82,0.743681907653809,car,car,0,0082_pow_s02_0_car_35_n04285008_10462.png
subject-02,1,83,0.521764993667603,bicycle,bicycle,pow,0083_pow_s02_pow_bicycle_35_n03792782_798.png
subject-02,1,84,0.435959815979004,bear,bear,pow,0084_pow_s02_pow_bear_35_n02132136_4817.png
subject-02,1,85,0.706486940383911,bicycle,bicycle,pow,0085_pow_s02_pow_bicycle_35_n03792782_4076.png
subject-02,1,86,0.767275810241699,chair,oven,pow,0086_pow_s02_pow_oven_35_n04111531_10339.png
subject-02,1,87,0.499634027481079,car,car,0,0087_pow_s02_0_car_35_n03100240_8588.png
subject-02,1,88,0.59144115447998,clock,clock,pow,0088_pow_s02_pow_clock_35_n03196217_4434.png
subject-02,1,89,0.706193923950195,bear,bear,pow,0089_pow_s02_pow_bear_35_n02134418_397.png
subject-02,1,90,0.652966976165771,chair,chair,pow,0090_pow_s02_pow_chair_35_n02791124_16127.png
subject-02,1,91,0.614877939224243,bottle,bottle,pow,0091_pow_s02_pow_bottle_35_n03983396_9614.png
subject-02,1,92,0.699578046798706,clock,clock,pow,0092_pow_s02_pow_clock_35_n02708093_2469.png
subject-02,1,93,0.837772846221924,chair,chair,pow,0093_pow_s02_pow_chair_35_n04429376_13328.png
subject-02,1,94,0.770169019699097,car,car,pow,0094_pow_s02_pow_car_35_n03100240_8187.png
subject-02,1,95,0.833142042160034,keyboard,keyboard,0,0095_pow_s02_0_keyboard_35_n03085013_19051.png
subject-02,1,96,0.684299945831299,keyboard,keyboard,0,0096_pow_s02_0_keyboard_35_n04505470_209.png
subject-02,1,97,0.663332939147949,clock,clock,0,0097_pow_s02_0_clock_35_n04548280_15276.png
subject-02,1,98,0.793294906616211,car,car,0,0098_pow_s02_0_car_35_n02814533_46997.png
subject-02,1,99,0.839750051498413,bird,bird,0,0099_pow_s02_0_bird_35_n01843383_2172.png
subject-02,1,100,0.577533006668091,bear,bear,pow,0100_pow_s02_pow_bear_35_n02134418_551.png
subject-02,1,101,0.754812002182007,dog,dog,0,0101_pow_s02_0_dog_35_n02099712_5839.png
subject-02,1,102,0.671138048171997,airplane,airplane,pow,0102_pow_s02_pow_airplane_35_n02690373_19353.png
subject-02,1,103,0.709466934204102,bear,bear,pow,0103_pow_s02_pow_bear_35_n02133161_14204.png
subject-02,1,104,0.625740051269531,cat,cat,pow,0104_pow_s02_pow_cat_35_n02123394_3761.png
subject-02,1,105,0.4862220287323,airplane,airplane,0,0105_pow_s02_0_airplane_35_n02690373_4183.png
subject-02,1,106,0.54127311706543,truck,truck,0,0106_pow_s02_0_truck_35_n03796401_12730.png
subject-02,1,107,0.866156101226807,boat,clock,pow,0107_pow_s02_pow_clock_35_n04548280_2490.png
subject-02,1,108,0.534470081329346,chair,chair,0,0108_pow_s02_0_chair_35_n04099969_5577.png
subject-02,1,109,0.605077981948853,airplane,airplane,pow,0109_pow_s02_pow_airplane_35_n02690373_1773.png
subject-02,1,110,0.705373048782349,airplane,airplane,0,0110_pow_s02_0_airplane_35_n02690373_7487.png
subject-02,1,111,0.669523954391479,airplane,airplane,pow,0111_pow_s02_pow_airplane_35_n02690373_4306.png
subject-02,1,112,0.471124887466431,bottle,bottle,0,0112_pow_s02_0_bottle_35_n04560804_9899.png
subject-02,1,113,0.555282115936279,oven,oven,pow,0113_pow_s02_pow_oven_35_n04111531_6783.png
subject-02,1,114,0.755146980285645,chair,bird,pow,0114_pow_s02_pow_bird_35_n02009912_24704.png
subject-02,1,115,0.609181880950928,knife,knife,pow,0115_pow_s02_pow_knife_35_n03041632_9302.png
subject-02,1,116,0.594165086746216,boat,boat,pow,0116_pow_s02_pow_boat_35_n04612504_4302.png
subject-02,1,117,0.756366014480591,clock,clock,0,0117_pow_s02_0_clock_35_n02708093_8104.png
subject-02,1,118,0.481125831604004,oven,oven,pow,0118_pow_s02_pow_oven_35_n04111531_9831.png
subject-02,1,119,0.525809049606323,bottle,bottle,0,0119_pow_s02_0_bottle_35_n03983396_2130.png
subject-02,1,120,0.626310110092163,dog,dog,0,0120_pow_s02_0_dog_35_n02086079_22925.png
subject-02,1,121,0.710315942764282,dog,dog,pow,0121_pow_s02_pow_dog_35_n02090379_5471.png
subject-02,1,122,0.540044069290161,dog,dog,0,0122_pow_s02_0_dog_35_n02112350_1819.png
subject-02,1,123,0.678400039672852,keyboard,keyboard,0,0123_pow_s02_0_keyboard_35_n03085013_19497.png
subject-02,1,124,0.663156986236572,keyboard,keyboard,pow,0124_pow_s02_pow_keyboard_35_n04505470_84.png
subject-02,1,125,0.893898010253906,chair,chair,0,0125_pow_s02_0_chair_35_n02791124_392.png
subject-02,1,126,0.672117948532104,dog,dog,0,0126_pow_s02_0_dog_35_n02108551_25538.png
subject-02,1,127,0.688771963119507,truck,truck,pow,0127_pow_s02_pow_truck_35_n03417042_21379.png
subject-02,1,128,0.673762083053589,dog,dog,0,0128_pow_s02_0_dog_35_n02107574_5063.png
subject-02,1,129,0.6494140625,airplane,airplane,0,0129_pow_s02_0_airplane_35_n02690373_7499.png
subject-02,1,130,0.511821985244751,truck,truck,0,0130_pow_s02_0_truck_35_n04467665_71086.png
subject-02,1,131,0.650763034820557,bear,bear,0,0131_pow_s02_0_bear_35_n02133161_14423.png
subject-02,1,132,0.602970838546753,bottle,bottle,0,0132_pow_s02_0_bottle_35_n04579145_4807.png
subject-02,1,133,1.00349020957947,bird,elephant,pow,0133_pow_s02_pow_elephant_35_n02504458_1790.png
subject-02,1,134,1.11162519454956,oven,bicycle,pow,0134_pow_s02_pow_bicycle_35_n02835271_12852.png
subject-02,1,135,0.612514019012451,bottle,bottle,pow,0135_pow_s02_pow_bottle_35_n03937543_8250.png
subject-02,1,136,0.437350034713745,cat,cat,pow,0136_pow_s02_pow_cat_35_n02123159_1501.png
subject-02,1,137,0.775313854217529,airplane,airplane,pow,0137_pow_s02_pow_airplane_35_n02690373_4202.png
subject-02,1,138,0.698011875152588,keyboard,keyboard,pow,0138_pow_s02_pow_keyboard_35_n04505470_5561.png
subject-02,1,139,0.781973123550415,clock,clock,0,0139_pow_s02_0_clock_35_n04548280_6922.png
subject-02,1,140,0.590719938278198,bicycle,bicycle,pow,0140_pow_s02_pow_bicycle_35_n03792782_1778.png
subject-02,1,141,0.713304996490479,car,car,0,0141_pow_s02_0_car_35_n03100240_2640.png
subject-02,1,142,0.459518909454346,airplane,airplane,pow,0142_pow_s02_pow_airplane_35_n02690373_9642.png
subject-02,1,143,0.743894100189209,truck,truck,0,0143_pow_s02_0_truck_35_n04467665_48928.png
subject-02,1,144,0.428262948989868,bird,bird,0,0144_pow_s02_0_bird_35_n01531178_46670.png
subject-02,1,145,0.62955117225647,chair,chair,0,0145_pow_s02_0_chair_35_n02791124_2487.png
subject-02,1,146,0.721472978591919,elephant,elephant,pow,0146_pow_s02_pow_elephant_35_n02504013_1785.png
subject-02,1,147,0.63093900680542,keyboard,keyboard,pow,0147_pow_s02_pow_keyboard_35_n03085013_20960.png
subject-02,1,148,0.799010992050171,truck,chair,pow,0148_pow_s02_pow_chair_35_n04099969_6266.png
subject-02,1,149,1.0215790271759,car,bottle,pow,0149_pow_s02_pow_bottle_35_n04591713_779.png
subject-02,1,150,0.691793203353882,oven,chair,pow,0150_pow_s02_pow_chair_35_n04429376_12972.png
subject-02,1,151,0.630367040634155,boat,boat,0,0151_pow_s02_0_boat_35_n03344393_3618.png
subject-02,1,152,0.653726100921631,airplane,airplane,0,0152_pow_s02_0_airplane_35_n02690373_4061.png
subject-02,1,153,0.786402940750122,elephant,bicycle,pow,0153_pow_s02_pow_bicycle_35_n03792782_18830.png
subject-02,1,154,0.776839971542358,bicycle,bicycle,0,0154_pow_s02_0_bicycle_35_n03792782_11169.png
subject-02,1,155,0.607319116592407,oven,oven,0,0155_pow_s02_0_oven_35_n04111531_21173.png
subject-02,1,156,0.501538038253784,bird,bird,pow,0156_pow_s02_pow_bird_35_n02028035_4053.png
subject-02,1,157,0.545775890350342,keyboard,keyboard,0,0157_pow_s02_0_keyboard_35_n03085013_3755.png
subject-02,1,158,0.938343048095703,dog,dog,pow,0158_pow_s02_pow_dog_35_n02099849_1759.png
subject-02,1,159,0.492686033248901,car,car,0,0159_pow_s02_0_car_35_n02814533_45050.png
subject-02,1,160,0.684828042984009,boat,boat,pow,0160_pow_s02_pow_boat_35_n03662601_16276.png
subject-02,1,161,0.620512008666992,dog,dog,0,0161_pow_s02_0_dog_35_n02102040_4272.png
subject-02,1,162,0.589277029037476,elephant,elephant,0,0162_pow_s02_0_elephant_35_n02504458_4954.png
subject-02,1,163,0.897733926773071,bear,cat,pow,0163_pow_s02_pow_cat_35_n02125311_2570.png
subject-02,1,164,0.765996932983398,chair,chair,0,0164_pow_s02_0_chair_35_n04429376_54570.png
subject-02,1,165,0.928938865661621,bird,bird,pow,0165_pow_s02_pow_bird_35_n02018207_3074.png
subject-02,1,166,0.567248821258545,elephant,elephant,pow,0166_pow_s02_pow_elephant_35_n02504458_4327.png
subject-02,1,167,0.697767019271851,elephant,elephant,0,0167_pow_s02_0_elephant_35_n02504458_6171.png
subject-02,1,168,0.765910863876343,chair,chair,pow,0168_pow_s02_pow_chair_35_n03376595_9527.png
subject-02,1,169,0.749847888946533,airplane,airplane,0,0169_pow_s02_0_airplane_35_n02690373_1094.png
subject-02,1,170,0.563916921615601,bicycle,bicycle,pow,0170_pow_s02_pow_bicycle_35_n02835271_6826.png
subject-02,1,171,0.610971927642822,bear,bear,pow,0171_pow_s02_pow_bear_35_n02134418_3267.png
subject-02,1,172,0.770208120346069,bottle,bottle,pow,0172_pow_s02_pow_bottle_35_n02823428_13048.png
subject-02,1,173,0.50860595703125,oven,oven,pow,0173_pow_s02_pow_oven_35_n04111531_21963.png
subject-02,1,174,0.646193027496338,bottle,bottle,0,0174_pow_s02_0_bottle_35_n03937543_10215.png
subject-02,1,175,0.87677001953125,bicycle,bicycle,0,0175_pow_s02_0_bicycle_35_n02835271_269.png
subject-02,1,176,0.617936134338379,car,car,pow,0176_pow_s02_pow_car_35_n04285008_12794.png
subject-02,1,177,0.602577924728394,keyboard,keyboard,0,0177_pow_s02_0_keyboard_35_n04505470_4224.png
subject-02,1,178,1.03261804580688,chair,oven,pow,0178_pow_s02_pow_oven_35_n04111531_9208.png
subject-02,1,179,0.724829912185669,elephant,elephant,0,0179_pow_s02_0_elephant_35_n02504013_3634.png
subject-02,1,180,0.730979919433594,dog,dog,0,0180_pow_s02_0_dog_35_n02113624_724.png
subject-02,1,181,0.623313188552856,elephant,elephant,0,0181_pow_s02_0_elephant_35_n02504013_2012.png
subject-02,1,182,0.794528961181641,dog,dog,pow,0182_pow_s02_pow_dog_35_n02108422_2911.png
subject-02,1,183,0.838300943374634,bear,bear,0,0183_pow_s02_0_bear_35_n02134418_1218.png
subject-02,1,184,0.708325862884521,bicycle,bicycle,0,0184_pow_s02_0_bicycle_35_n02835271_2580.png
subject-02,1,185,0.568883895874023,chair,chair,pow,0185_pow_s02_pow_chair_35_n03376595_2393.png
subject-02,1,186,1.13763189315796,oven,keyboard,pow,0186_pow_s02_pow_keyboard_35_n03085013_19585.png
subject-02,1,187,0.554604053497314,airplane,airplane,0,0187_pow_s02_0_airplane_35_n02690373_6854.png
subject-02,1,188,0.478579998016357,dog,dog,pow,0188_pow_s02_pow_dog_35_n02106166_12520.png
subject-02,1,189,0.485295057296753,airplane,airplane,pow,0189_pow_s02_pow_airplane_35_n02690373_2059.png
subject-02,1,190,0.523813009262085,bicycle,bicycle,0,0190_pow_s02_0_bicycle_35_n02835271_14879.png
subject-02,1,191,0.724567890167236,boat,boat,0,0191_pow_s02_0_boat_35_n03662601_19488.png
subject-02,1,192,0.551431894302368,car,car,0,0192_pow_s02_0_car_35_n02814533_79224.png
subject-02,1,193,0.605468988418579,airplane,airplane,0,0193_pow_s02_0_airplane_35_n02690373_5010.png
subject-02,1,194,0.566092967987061,bird,bird,0,0194_pow_s02_0_bird_35_n02017213_52.png
subject-02,1,195,0.742092847824097,knife,knife,0,0195_pow_s02_0_knife_35_n03041632_24883.png
subject-02,1,196,0.912092208862305,bottle,bottle,pow,0196_pow_s02_pow_bottle_35_n02823428_8752.png
subject-02,1,197,0.81041693687439,bear,bear,pow,0197_pow_s02_pow_bear_35_n02134084_6186.png
subject-02,1,198,0.741530895233154,oven,boat,pow,0198_pow_s02_pow_boat_35_n03662601_1834.png
subject-02,1,199,0.503362894058228,chair,chair,pow,0199_pow_s02_pow_chair_35_n02791124_8866.png
subject-02,1,200,0.695968866348267,bottle,bottle,0,0200_pow_s02_0_bottle_35_n02823428_1491.png
subject-02,1,201,0.643548965454102,bird,bird,0,0201_pow_s02_0_bird_35_n01601694_10669.png
subject-02,1,202,0.711477041244507,airplane,airplane,0,0202_pow_s02_0_airplane_35_n02690373_19152.png
subject-02,1,203,0.519953012466431,bicycle,bicycle,pow,0203_pow_s02_pow_bicycle_35_n03792782_47774.png
subject-02,1,204,0.826827049255371,bear,bird,pow,0204_pow_s02_pow_bird_35_n01534433_14250.png
subject-02,1,205,0.733353853225708,bottle,bottle,pow,0205_pow_s02_pow_bottle_35_n03937543_3233.png
subject-02,1,206,0.45704984664917,keyboard,keyboard,pow,0206_pow_s02_pow_keyboard_35_n03085013_24455.png
subject-02,1,207,0.833549022674561,oven,oven,pow,0207_pow_s02_pow_oven_35_n04111531_2260.png
subject-02,1,208,0.648064136505127,bicycle,bicycle,0,0208_pow_s02_0_bicycle_35_n03792782_4474.png
subject-02,1,209,0.540067195892334,clock,clock,0,0209_pow_s02_0_clock_35_n02708093_6216.png
subject-02,1,210,0.801179885864258,dog,dog,0,0210_pow_s02_0_dog_35_n02106382_2370.png
subject-02,1,211,0.663996934890747,bottle,bottle,0,0211_pow_s02_0_bottle_35_n04591713_6493.png
subject-02,1,212,1.04789805412292,oven,truck,pow,0212_pow_s02_pow_truck_35_n03417042_10126.png
subject-02,1,213,0.954555034637451,oven,oven,0,0213_pow_s02_0_oven_35_n04111531_7667.png
subject-02,1,214,0.562792062759399,chair,chair,pow,0214_pow_s02_pow_chair_35_n04099969_2335.png
subject-02,1,215,0.531429052352905,bird,bird,0,0215_pow_s02_0_bird_35_n01592084_6017.png
subject-02,1,216,0.631986141204834,car,car,0,0216_pow_s02_0_car_35_n03100240_8483.png
subject-02,1,217,0.439909219741821,chair,chair,0,0217_pow_s02_0_chair_35_n04099969_47090.png
subject-02,1,218,1.18464708328247,bird,bird,pow,0218_pow_s02_pow_bird_35_n01829413_673.png
subject-02,1,219,0.523580074310303,keyboard,keyboard,pow,0219_pow_s02_pow_keyboard_35_n03085013_20852.png
subject-02,1,220,0.632004022598267,boat,boat,0,0220_pow_s02_0_boat_35_n02951358_30149.png
subject-02,1,221,0.586694002151489,oven,knife,0,0221_pow_s02_0_knife_35_n03041632_49363.png
subject-02,1,222,0.500729084014893,oven,oven,0,0222_pow_s02_0_oven_35_n04111531_20823.png
subject-02,1,223,0.531385898590088,bottle,bottle,0,0223_pow_s02_0_bottle_35_n04591713_2362.png
subject-02,1,224,0.385921001434326,cat,cat,0,0224_pow_s02_0_cat_35_n02123159_4265.png
subject-02,1,225,0.466771125793457,keyboard,keyboard,pow,0225_pow_s02_pow_keyboard_35_n03085013_5751.png
subject-02,1,226,0.567205905914307,dog,dog,0,0226_pow_s02_0_dog_35_n02096585_8775.png
subject-02,1,227,0.505989074707031,bird,bird,0,0227_pow_s02_0_bird_35_n01560419_7814.png
subject-02,1,228,0.574624061584473,bottle,chair,0,0228_pow_s02_0_chair_35_n04429376_16680.png
subject-02,1,229,0.461812973022461,car,car,0,0229_pow_s02_0_car_35_n03100240_1879.png
subject-02,1,230,0.476491928100586,cat,cat,0,0230_pow_s02_0_cat_35_n02123159_820.png
subject-02,1,231,0.68471097946167,truck,truck,0,0231_pow_s02_0_truck_35_n03796401_15942.png
subject-02,1,232,0.507521152496338,boat,boat,0,0232_pow_s02_0_boat_35_n04273569_5498.png
subject-02,1,233,0.67598295211792,bear,bear,pow,0233_pow_s02_pow_bear_35_n02134084_6799.png
subject-02,1,234,0.598793983459473,chair,chair,0,0234_pow_s02_0_chair_35_n03376595_14748.png
subject-02,1,235,0.622895956039429,truck,truck,0,0235_pow_s02_0_truck_35_n03417042_29444.png
subject-02,1,236,0.645308017730713,bicycle,bicycle,0,0236_pow_s02_0_bicycle_35_n02835271_1573.png
subject-02,1,237,0.612838983535767,bird,bird,0,0237_pow_s02_0_bird_35_n02013706_1964.png
subject-02,1,238,0.373399019241333,clock,clock,pow,0238_pow_s02_pow_clock_35_n04548280_6968.png
subject-02,1,239,0.587618112564087,bear,bear,0,0239_pow_s02_0_bear_35_n02134084_17529.png
subject-02,1,240,0.896283864974976,airplane,airplane,pow,0240_pow_s02_pow_airplane_35_n02690373_10228.png
subject-02,1,241,0.48064112663269,cat,keyboard,0,0241_pow_s02_0_keyboard_35_n03085013_23254.png
subject-02,1,242,0.411393880844116,oven,oven,0,0242_pow_s02_0_oven_35_n04111531_114.png
subject-02,1,243,0.725490093231201,truck,oven,pow,0243_pow_s02_pow_oven_35_n04111531_7717.png
subject-02,1,244,0.526239156723022,clock,clock,0,0244_pow_s02_0_clock_35_n02708093_4201.png
subject-02,1,245,0.547908067703247,cat,cat,pow,0245_pow_s02_pow_cat_35_n02125311_40332.png
subject-02,1,246,0.432853937149048,bird,bird,pow,0246_pow_s02_pow_bird_35_n01616318_52364.png
subject-02,1,247,0.484076976776123,keyboard,keyboard,pow,0247_pow_s02_pow_keyboard_35_n03085013_28083.png
subject-02,1,248,0.598191022872925,bear,bear,pow,0248_pow_s02_pow_bear_35_n02132136_4021.png
subject-02,1,249,0.557976007461548,bottle,bottle,pow,0249_pow_s02_pow_bottle_35_n04557648_5475.png
subject-02,1,250,0.53185510635376,chair,chair,0,0250_pow_s02_0_chair_35_n04099969_23930.png
subject-02,1,251,0.946125030517578,bird,cat,pow,0251_pow_s02_pow_cat_35_n02125311_8172.png
subject-02,1,252,0.378549098968506,cat,cat,pow,0252_pow_s02_pow_cat_35_n02124075_1059.png
subject-02,1,253,0.714835166931152,keyboard,keyboard,0,0253_pow_s02_0_keyboard_35_n04505470_5111.png
subject-02,1,254,0.791130065917969,bottle,bottle,pow,0254_pow_s02_pow_bottle_35_n03983396_5611.png
subject-02,1,255,0.413435935974121,oven,oven,0,0255_pow_s02_0_oven_35_n04111531_283.png
subject-02,1,256,0.813727140426636,bird,bird,pow,0256_pow_s02_pow_bird_35_n01796340_4885.png
subject-02,1,257,0.844282865524292,dog,dog,pow,0257_pow_s02_pow_dog_35_n02098286_3278.png
subject-02,1,258,0.728708982467651,dog,dog,0,0258_pow_s02_0_dog_35_n02099601_5470.png
subject-02,1,259,0.521046161651611,clock,clock,pow,0259_pow_s02_pow_clock_35_n02708093_2482.png
subject-02,1,260,0.527769804000854,clock,clock,pow,0260_pow_s02_pow_clock_35_n03196217_2239.png
subject-02,1,261,0.804287910461426,bird,boat,pow,0261_pow_s02_pow_boat_35_n03344393_10476.png
subject-02,1,262,0.542382955551147,elephant,elephant,0,0262_pow_s02_0_elephant_35_n02504458_9813.png
subject-02,1,263,0.764912128448486,elephant,elephant,0,0263_pow_s02_0_elephant_35_n02504458_1519.png
subject-02,1,264,0.694839954376221,bear,bear,0,0264_pow_s02_0_bear_35_n02134418_650.png
subject-02,1,265,1.04749798774719,truck,truck,pow,0265_pow_s02_pow_truck_35_n03417042_10038.png
subject-02,1,266,0.57978892326355,chair,chair,0,0266_pow_s02_0_chair_35_n03376595_8917.png
subject-02,1,267,0.661702871322632,bird,bird,0,0267_pow_s02_0_bird_35_n01531178_1390.png
subject-02,1,268,0.976790904998779,cat,oven,pow,0268_pow_s02_pow_oven_35_n04111531_12725.png
subject-02,1,269,0.522042989730835,cat,cat,0,0269_pow_s02_0_cat_35_n02123045_16528.png
subject-02,1,270,0.644567012786865,airplane,airplane,pow,0270_pow_s02_pow_airplane_35_n02690373_2155.png
subject-02,1,271,0.545297145843506,bird,bird,0,0271_pow_s02_0_bird_35_n01843065_1566.png
subject-02,1,272,0.864796876907349,boat,boat,pow,0272_pow_s02_pow_boat_35_n03662601_15781.png
subject-02,1,273,0.414403915405273,clock,clock,0,0273_pow_s02_0_clock_35_n02708093_6572.png
subject-02,1,274,0.542382955551147,oven,oven,0,0274_pow_s02_0_oven_35_n04111531_15267.png
subject-02,1,275,0.464915037155151,chair,chair,pow,0275_pow_s02_pow_chair_35_n04099969_8873.png
subject-02,1,276,0.557867050170898,bicycle,bicycle,pow,0276_pow_s02_pow_bicycle_35_n03792782_18707.png
subject-02,1,277,0.704602956771851,dog,dog,0,0277_pow_s02_0_dog_35_n02097209_5899.png
subject-02,1,278,0.430408954620361,clock,clock,0,0278_pow_s02_0_clock_35_n04548280_4178.png
subject-02,1,279,0.615692853927612,dog,bear,pow,0279_pow_s02_pow_bear_35_n02133161_5064.png
subject-02,1,280,0.440353870391846,boat,boat,pow,0280_pow_s02_pow_boat_35_n03344393_6897.png
subject-02,1,281,0.62276291847229,clock,clock,0,0281_pow_s02_0_clock_35_n02708093_544.png
subject-02,1,282,0.523419141769409,bird,bird,pow,0282_pow_s02_pow_bird_35_n02009229_700.png
subject-02,1,283,0.853420972824097,bird,bird,pow,0283_pow_s02_pow_bird_35_n02009912_29487.png
subject-02,1,284,0.613981008529663,knife,knife,pow,0284_pow_s02_pow_knife_35_n03041632_11773.png
subject-02,1,285,0.736168146133423,dog,dog,pow,0285_pow_s02_pow_dog_35_n02112350_4203.png
subject-02,1,286,0.582846164703369,oven,knife,pow,0286_pow_s02_pow_knife_35_n03041632_2644.png
subject-02,1,287,0.750185012817383,bottle,truck,pow,0287_pow_s02_pow_truck_35_n03417042_20021.png
subject-02,1,288,0.742862939834595,bear,bear,pow,0288_pow_s02_pow_bear_35_n02133161_10018.png
subject-02,1,289,0.712115049362183,bicycle,bicycle,pow,0289_pow_s02_pow_bicycle_35_n03792782_20190.png
subject-02,1,290,0.459072113037109,bottle,keyboard,0,0290_pow_s02_0_keyboard_35_n03085013_20673.png
subject-02,1,291,0.897357940673828,cat,bird,pow,0291_pow_s02_pow_bird_35_n01532829_3914.png
subject-02,1,292,0.773893117904663,knife,oven,pow,0292_pow_s02_pow_oven_35_n04111531_1818.png
subject-02,1,293,0.596382141113281,keyboard,keyboard,pow,0293_pow_s02_pow_keyboard_35_n03085013_19285.png
subject-02,1,294,0.572610139846802,car,car,0,0294_pow_s02_0_car_35_n02814533_9785.png
subject-02,1,295,0.511147975921631,cat,keyboard,pow,0295_pow_s02_pow_keyboard_35_n03085013_21004.png
subject-02,1,296,0.573670864105225,bicycle,bicycle,pow,0296_pow_s02_pow_bicycle_35_n02835271_11332.png
subject-02,1,297,0.388123989105225,cat,cat,0,0297_pow_s02_0_cat_35_n02124075_700.png
subject-02,1,298,0.426677942276001,clock,clock,0,0298_pow_s02_0_clock_35_n02708093_4255.png
subject-02,1,299,1.10946011543274,elephant,elephant,pow,0299_pow_s02_pow_elephant_35_n02504013_6141.png
subject-02,1,300,0.933902025222778,cat,cat,pow,0300_pow_s02_pow_cat_35_n02123045_909.png
subject-02,1,301,0.594672918319702,truck,truck,pow,0301_pow_s02_pow_truck_35_n03417042_18699.png
subject-02,1,302,0.74065899848938,boat,bicycle,pow,0302_pow_s02_pow_bicycle_35_n03792782_7357.png
subject-02,1,303,0.541399955749512,truck,truck,0,0303_pow_s02_0_truck_35_n03417042_19955.png
subject-02,1,304,0.586251974105835,bird,bird,0,0304_pow_s02_0_bird_35_n01592084_553.png
subject-02,1,305,0.633158922195435,oven,oven,pow,0305_pow_s02_pow_oven_35_n04111531_1556.png
subject-02,1,306,0.571490049362183,bottle,bottle,0,0306_pow_s02_0_bottle_35_n04557648_587.png
subject-02,1,307,1.08600306510925,knife,bird,pow,0307_pow_s02_pow_bird_35_n01532829_671.png
subject-02,1,308,0.448402166366577,boat,boat,pow,0308_pow_s02_pow_boat_35_n03344393_562.png
subject-02,1,309,0.563977003097534,cat,cat,0,0309_pow_s02_0_cat_35_n02125311_14455.png
subject-02,1,310,0.501802921295166,keyboard,keyboard,pow,0310_pow_s02_pow_keyboard_35_n03085013_21645.png
subject-02,1,311,0.565018892288208,car,car,0,0311_pow_s02_0_car_35_n04285008_901.png
subject-02,1,312,0.509360074996948,truck,truck,0,0312_pow_s02_0_truck_35_n03417042_1029.png
subject-02,1,313,0.710201025009155,dog,dog,0,0313_pow_s02_0_dog_35_n02096294_2375.png
subject-02,1,314,0.710484981536865,truck,truck,pow,0314_pow_s02_pow_truck_35_n03796401_10366.png
subject-02,1,315,0.700905084609985,knife,knife,0,0315_pow_s02_0_knife_35_n03041632_7680.png
subject-02,1,316,0.793246984481812,bear,bear,pow,0316_pow_s02_pow_bear_35_n02134084_7467.png
subject-02,1,317,0.98311710357666,oven,knife,pow,0317_pow_s02_pow_knife_35_n03041632_12242.png
subject-02,1,318,1.10550403594971,oven,bottle,pow,0318_pow_s02_pow_bottle_35_n02823428_4530.png
subject-02,1,319,1.11147499084473,bottle,truck,0,0319_pow_s02_0_truck_35_n03796401_7073.png
subject-02,1,320,0.682770013809204,bear,bottle,pow,0320_pow_s02_pow_bottle_35_n04560804_15432.png
subject-02,1,321,0.477066993713379,clock,clock,0,0321_pow_s02_0_clock_35_n04548280_18914.png
subject-02,1,322,0.339994192123413,cat,cat,pow,0322_pow_s02_pow_cat_35_n02124075_5224.png
subject-02,1,323,0.562585115432739,truck,truck,0,0323_pow_s02_0_truck_35_n04467665_50746.png
subject-02,1,324,0.476753950119019,car,car,0,0324_pow_s02_0_car_35_n03100240_10502.png
subject-02,1,325,0.523969888687134,keyboard,keyboard,pow,0325_pow_s02_pow_keyboard_35_n04505470_5098.png
subject-02,1,326,0.692632913589478,bird,bird,0,0326_pow_s02_0_bird_35_n01860187_2904.png
subject-02,1,327,0.444517850875854,bird,bird,0,0327_pow_s02_0_bird_35_n02009912_4987.png
subject-02,1,328,0.807910919189453,elephant,elephant,0,0328_pow_s02_0_elephant_35_n02504458_10013.png
subject-02,1,329,0.560009956359863,bear,bear,0,0329_pow_s02_0_bear_35_n02134084_4018.png
subject-02,1,330,0.538375854492188,chair,chair,pow,0330_pow_s02_pow_chair_35_n04429376_12605.png
subject-02,1,331,0.745875120162964,truck,truck,0,0331_pow_s02_0_truck_35_n03417042_5458.png
subject-02,1,332,0.74406909942627,elephant,elephant,0,0332_pow_s02_0_elephant_35_n02504458_2739.png
subject-02,1,333,0.629060983657837,elephant,elephant,0,0333_pow_s02_0_elephant_35_n02504458_6218.png
subject-02,1,334,0.650392055511475,bear,bear,0,0334_pow_s02_0_bear_35_n02134084_7595.png
subject-02,1,335,0.743094921112061,knife,knife,0,0335_pow_s02_0_knife_35_n03041632_21017.png
subject-02,1,336,0.60362720489502,bottle,bottle,pow,0336_pow_s02_pow_bottle_35_n04591713_4685.png
subject-02,1,337,0.588366031646729,bear,bear,0,0337_pow_s02_0_bear_35_n02134084_16632.png
subject-02,1,338,0.732631921768188,bird,bird,pow,0338_pow_s02_pow_bird_35_n01558993_8020.png
subject-02,1,339,0.56323504447937,bicycle,bicycle,pow,0339_pow_s02_pow_bicycle_35_n03792782_8080.png
subject-02,1,340,0.947721004486084,cat,oven,pow,0340_pow_s02_pow_oven_35_n04111531_4944.png
subject-02,1,341,0.82431697845459,knife,knife,0,0341_pow_s02_0_knife_35_n03041632_23087.png
subject-02,1,342,0.808769941329956,truck,truck,0,0342_pow_s02_0_truck_35_n03796401_24013.png
subject-02,1,343,0.737429857254028,bird,bird,pow,0343_pow_s02_pow_bird_35_n01560419_13.png
subject-02,1,344,0.484359979629517,car,car,pow,0344_pow_s02_pow_car_35_n04285008_8383.png
subject-02,1,345,0.607217073440552,bottle,bottle,0,0345_pow_s02_0_bottle_35_n03983396_22326.png
subject-02,1,346,0.891200065612793,bicycle,bicycle,pow,0346_pow_s02_pow_bicycle_35_n03792782_42927.png
subject-02,1,347,0.589488983154297,elephant,elephant,0,0347_pow_s02_0_elephant_35_n02504458_1022.png
subject-02,1,348,0.589990139007568,bottle,bottle,pow,0348_pow_s02_pow_bottle_35_n04591713_14895.png
subject-02,1,349,0.703885078430176,airplane,airplane,pow,0349_pow_s02_pow_airplane_35_n02690373_5300.png
subject-02,1,350,0.672666072845459,truck,truck,pow,0350_pow_s02_pow_truck_35_n04467665_4401.png
subject-02,1,351,0.471153974533081,clock,clock,pow,0351_pow_s02_pow_clock_35_n04548280_3049.png
subject-02,1,352,0.592952966690063,car,car,pow,0352_pow_s02_pow_car_35_n02814533_94404.png
subject-02,1,353,0.693769931793213,truck,truck,0,0353_pow_s02_0_truck_35_n04467665_23695.png
subject-02,1,354,0.600401163101196,bottle,bottle,pow,0354_pow_s02_pow_bottle_35_n04560804_7013.png
subject-02,1,355,0.576524972915649,bird,bird,pow,0355_pow_s02_pow_bird_35_n01796340_8661.png
subject-02,1,356,0.819580078125,cat,oven,pow,0356_pow_s02_pow_oven_35_n04111531_6628.png
subject-02,1,357,0.503952980041504,chair,chair,0,0357_pow_s02_0_chair_35_n02791124_3535.png
subject-02,1,358,0.472254991531372,cat,cat,0,0358_pow_s02_0_cat_35_n02123597_1516.png
subject-02,1,359,0.499606132507324,elephant,elephant,0,0359_pow_s02_0_elephant_35_n02504458_5766.png
subject-02,1,360,0.952434062957764,dog,dog,0,0360_pow_s02_0_dog_35_n02099712_929.png
subject-02,1,361,0.644399166107178,oven,oven,0,0361_pow_s02_0_oven_35_n04111531_10290.png
subject-02,1,362,0.467358112335205,airplane,airplane,0,0362_pow_s02_0_airplane_35_n02690373_5253.png
subject-02,1,363,0.583762884140015,boat,boat,0,0363_pow_s02_0_boat_35_n03344393_456.png
subject-02,1,364,0.422686100006104,chair,chair,0,0364_pow_s02_0_chair_35_n02791124_5411.png
subject-02,1,365,1.21901988983154,oven,oven,0,0365_pow_s02_0_oven_35_n04111531_5802.png
subject-02,1,366,0.905133962631226,truck,clock,pow,0366_pow_s02_pow_clock_35_n02708093_8143.png
subject-02,1,367,0.553877115249634,oven,oven,0,0367_pow_s02_0_oven_35_n04111531_6536.png
subject-02,1,368,0.438369989395142,boat,boat,0,0368_pow_s02_0_boat_35_n02951358_29495.png
subject-02,1,369,0.927222967147827,airplane,boat,0,0369_pow_s02_0_boat_35_n03662601_23433.png
subject-02,1,370,0.433950185775757,keyboard,keyboard,pow,0370_pow_s02_pow_keyboard_35_n03085013_21241.png
subject-02,1,371,1.01031804084778,bird,boat,pow,0371_pow_s02_pow_boat_35_n02951358_5732.png
subject-02,1,372,0.448399066925049,chair,chair,pow,0372_pow_s02_pow_chair_35_n04099969_9302.png
subject-02,1,373,0.600507020950317,keyboard,keyboard,0,0373_pow_s02_0_keyboard_35_n03085013_21948.png
subject-02,1,374,0.961331129074097,bear,elephant,pow,0374_pow_s02_pow_elephant_35_n02504013_3805.png
subject-02,1,375,0.537609100341797,bear,bear,0,0375_pow_s02_0_bear_35_n02134418_6256.png
subject-02,1,376,0.73806095123291,clock,clock,0,0376_pow_s02_0_clock_35_n03196217_71.png
subject-02,1,377,0.461232900619507,cat,cat,0,0377_pow_s02_0_cat_35_n02125311_13013.png
subject-02,1,378,0.867633104324341,bottle,bottle,pow,0378_pow_s02_pow_bottle_35_n04560804_9981.png
subject-02,1,379,0.690173149108887,car,car,0,0379_pow_s02_0_car_35_n04285008_15954.png
subject-02,1,380,0.712311029434204,airplane,airplane,pow,0380_pow_s02_pow_airplane_35_n02690373_3150.png
subject-02,1,381,0.527215003967285,bear,bear,0,0381_pow_s02_0_bear_35_n02134084_581.png
subject-02,1,382,0.625225067138672,airplane,airplane,pow,0382_pow_s02_pow_airplane_35_n02690373_10114.png
subject-02,1,383,1.40957903862,bear,elephant,pow,0383_pow_s02_pow_elephant_35_n02504013_2609.png
subject-02,1,384,0.632389068603516,cat,bird,pow,0384_pow_s02_pow_bird_35_n01601694_704.png
subject-02,1,385,0.600404024124146,dog,dog,0,0385_pow_s02_0_dog_35_n02091244_2353.png
subject-02,1,386,0.531238079071045,car,car,pow,0386_pow_s02_pow_car_35_n02814533_1884.png
subject-02,1,387,0.65366005897522,bear,bear,0,0387_pow_s02_0_bear_35_n02134418_545.png
subject-02,1,388,0.651747941970825,dog,bottle,pow,0388_pow_s02_pow_bottle_35_n03983396_5055.png
subject-02,1,389,0.552978992462158,truck,truck,0,0389_pow_s02_0_truck_35_n04467665_53339.png
subject-02,1,390,1.25919985771179,bird,oven,pow,0390_pow_s02_pow_oven_35_n04111531_6622.png
subject-02,1,391,0.451467990875244,keyboard,keyboard,0,0391_pow_s02_0_keyboard_35_n04505470_4575.png
subject-02,1,392,0.482167959213257,car,car,0,0392_pow_s02_0_car_35_n04285008_5032.png
subject-02,1,393,1.13459300994873,boat,bicycle,0,0393_pow_s02_0_bicycle_35_n03792782_1363.png
subject-02,1,394,0.680020809173584,dog,cat,pow,0394_pow_s02_pow_cat_35_n02123597_337.png
subject-02,1,395,0.571977853775024,bicycle,bicycle,0,0395_pow_s02_0_bicycle_35_n03792782_40118.png
subject-02,1,396,0.748120069503784,airplane,chair,pow,0396_pow_s02_pow_chair_35_n04429376_46146.png
subject-02,1,397,0.716552972793579,knife,knife,pow,0397_pow_s02_pow_knife_35_n03041632_16172.png
subject-02,1,398,0.422940015792847,chair,chair,pow,0398_pow_s02_pow_chair_35_n04099969_1669.png
subject-02,1,399,0.699079036712646,keyboard,keyboard,pow,0399_pow_s02_pow_keyboard_35_n04505470_3531.png
subject-02,1,400,0.743566989898682,oven,oven,pow,0400_pow_s02_pow_oven_35_n04111531_23668.png
subject-02,1,401,0.520084142684937,bird,bird,0,0401_pow_s02_0_bird_35_n01601694_11271.png
subject-02,1,402,0.434843063354492,chair,chair,pow,0402_pow_s02_pow_chair_35_n04099969_14958.png
subject-02,1,403,0.595515012741089,car,car,pow,0403_pow_s02_pow_car_35_n03100240_1377.png
subject-02,1,404,0.779649019241333,cat,bear,pow,0404_pow_s02_pow_bear_35_n02134418_5807.png
subject-02,1,405,0.579958915710449,boat,boat,pow,0405_pow_s02_pow_boat_35_n03344393_10001.png
subject-02,1,406,0.532399892807007,boat,boat,0,0406_pow_s02_0_boat_35_n03344393_9092.png
subject-02,1,407,0.63098406791687,truck,truck,pow,0407_pow_s02_pow_truck_35_n04467665_4840.png
subject-02,1,408,0.875324010848999,bicycle,bicycle,pow,0408_pow_s02_pow_bicycle_35_n03792782_10929.png
subject-02,1,409,0.584048986434937,bird,bird,pow,0409_pow_s02_pow_bird_35_n02037110_9123.png
subject-02,1,410,0.622792959213257,dog,cat,pow,0410_pow_s02_pow_cat_35_n02123045_8595.png
subject-02,1,411,0.78044605255127,knife,knife,0,0411_pow_s02_0_knife_35_n03041632_39883.png
subject-02,1,412,0.626606941223145,clock,clock,pow,0412_pow_s02_pow_clock_35_n02708093_3385.png
subject-02,1,413,0.457128047943115,car,car,0,0413_pow_s02_0_car_35_n02814533_62356.png
subject-02,1,414,0.586076021194458,oven,bottle,pow,0414_pow_s02_pow_bottle_35_n03983396_2746.png
subject-02,1,415,0.677608013153076,truck,truck,0,0415_pow_s02_0_truck_35_n04467665_69171.png
subject-02,1,416,1.15269899368286,knife,knife,0,0416_pow_s02_0_knife_35_n03041632_23968.png
subject-02,1,417,0.983277082443237,knife,knife,pow,0417_pow_s02_pow_knife_35_n03041632_48675.png
subject-02,1,418,0.835498094558716,truck,truck,pow,0418_pow_s02_pow_truck_35_n03417042_7544.png
subject-02,1,419,0.628390073776245,dog,dog,pow,0419_pow_s02_pow_dog_35_n02099267_364.png
subject-02,1,420,0.793815851211548,bottle,clock,pow,0420_pow_s02_pow_clock_35_n03196217_2291.png
subject-02,1,421,1.02920818328857,truck,oven,0,0421_pow_s02_0_oven_35_n04111531_2051.png
subject-02,1,422,0.568182945251465,keyboard,keyboard,0,0422_pow_s02_0_keyboard_35_n03085013_10661.png
subject-02,1,423,0.614034175872803,bottle,bottle,0,0423_pow_s02_0_bottle_35_n03983396_9904.png
subject-02,1,424,1.05848598480225,bird,bicycle,0,0424_pow_s02_0_bicycle_35_n02835271_8266.png
subject-02,1,425,0.68964695930481,knife,knife,0,0425_pow_s02_0_knife_35_n03041632_17859.png
subject-02,1,426,0.995726108551025,elephant,bear,pow,0426_pow_s02_pow_bear_35_n02134418_4352.png
subject-02,1,427,0.840644121170044,bird,bottle,pow,0427_pow_s02_pow_bottle_35_n03937543_349.png
subject-02,1,428,0.655033826828003,airplane,airplane,0,0428_pow_s02_0_airplane_35_n02690373_1167.png
subject-02,1,429,0.417699098587036,oven,oven,0,0429_pow_s02_0_oven_35_n04111531_12769.png
subject-02,1,430,0.669845819473267,bottle,bottle,pow,0430_pow_s02_pow_bottle_35_n04591713_1164.png
subject-02,1,431,0.638460159301758,bottle,bottle,0,0431_pow_s02_0_bottle_35_n04591713_2180.png
subject-02,1,432,0.560503005981445,bicycle,bicycle,pow,0432_pow_s02_pow_bicycle_35_n03792782_11625.png
subject-02,1,433,0.439135789871216,bird,bird,pow,0433_pow_s02_pow_bird_35_n01843065_11752.png
subject-02,1,434,1.17031979560852,bear,elephant,0,0434_pow_s02_0_elephant_35_n02504458_5231.png
subject-02,1,435,0.438704967498779,dog,dog,pow,0435_pow_s02_pow_dog_35_n02107683_278.png
subject-02,1,436,0.599299907684326,bird,bird,0,0436_pow_s02_0_bird_35_n01795545_11192.png
subject-02,1,437,0.405915975570679,cat,cat,pow,0437_pow_s02_pow_cat_35_n02123159_3785.png
subject-02,1,438,0.858497858047485,cat,dog,pow,0438_pow_s02_pow_dog_35_n02113712_1158.png
subject-02,1,439,0.581027030944824,chair,chair,0,0439_pow_s02_0_chair_35_n02791124_15873.png
subject-02,1,440,0.473536014556885,car,car,pow,0440_pow_s02_pow_car_35_n03100240_9892.png
subject-02,1,441,0.918009996414185,clock,knife,pow,0441_pow_s02_pow_knife_35_n03041632_30565.png
subject-02,1,442,0.831997871398926,truck,truck,0,0442_pow_s02_0_truck_35_n04467665_3874.png
subject-02,1,443,0.541293144226074,boat,boat,0,0443_pow_s02_0_boat_35_n03344393_4888.png
subject-02,1,444,0.468729019165039,boat,boat,pow,0444_pow_s02_pow_boat_35_n03662601_24639.png
subject-02,1,445,0.574817895889282,airplane,airplane,0,0445_pow_s02_0_airplane_35_n02690373_3775.png
subject-02,1,446,0.605343818664551,knife,knife,0,0446_pow_s02_0_knife_35_n03041632_7090.png
subject-02,1,447,0.641602039337158,bicycle,bicycle,pow,0447_pow_s02_pow_bicycle_35_n03792782_40881.png
subject-02,1,448,0.572113037109375,chair,chair,pow,0448_pow_s02_pow_chair_35_n04099969_17087.png
subject-02,1,449,0.663191080093384,chair,chair,0,0449_pow_s02_0_chair_35_n04429376_9212.png
subject-02,1,450,0.370880842208862,cat,keyboard,pow,0450_pow_s02_pow_keyboard_35_n03085013_24404.png
subject-02,1,451,0.5919189453125,boat,boat,0,0451_pow_s02_0_boat_35_n04273569_8541.png
subject-02,1,452,0.838681936264038,bicycle,boat,pow,0452_pow_s02_pow_boat_35_n02951358_33918.png
subject-02,1,453,0.661034107208252,chair,chair,0,0453_pow_s02_0_chair_35_n04429376_12767.png
subject-02,1,454,0.551835060119629,bicycle,bicycle,pow,0454_pow_s02_pow_bicycle_35_n03792782_126.png
subject-02,1,455,0.568961143493652,bird,bird,pow,0455_pow_s02_pow_bird_35_n02017213_1006.png
subject-02,1,456,0.559046030044556,cat,cat,pow,0456_pow_s02_pow_cat_35_n02123597_14791.png
subject-02,1,457,0.757730960845947,oven,bottle,pow,0457_pow_s02_pow_bottle_35_n04557648_1600.png
subject-02,1,458,1.00982713699341,truck,oven,pow,0458_pow_s02_pow_oven_35_n04111531_2739.png
subject-02,1,459,0.534693002700806,bear,bear,0,0459_pow_s02_0_bear_35_n02132136_1528.png
subject-02,1,460,0.541341066360474,chair,chair,pow,0460_pow_s02_pow_chair_35_n04429376_6147.png
subject-02,1,461,1.13122487068176,dog,dog,pow,0461_pow_s02_pow_dog_35_n02097658_3115.png
subject-02,1,462,0.553864002227783,dog,dog,0,0462_pow_s02_0_dog_35_n02105251_8591.png
subject-02,1,463,0.668516159057617,truck,truck,pow,0463_pow_s02_pow_truck_35_n04467665_26416.png
subject-02,1,464,0.57071590423584,dog,dog,0,0464_pow_s02_0_dog_35_n02088632_2207.png
subject-02,1,465,0.445128917694092,oven,oven,pow,0465_pow_s02_pow_oven_35_n04111531_2116.png
subject-02,1,466,0.720881938934326,keyboard,keyboard,pow,0466_pow_s02_pow_keyboard_35_n03085013_20661.png
subject-02,1,467,0.665367126464844,car,car,0,0467_pow_s02_0_car_35_n04285008_3274.png
subject-02,1,468,0.496553182601929,airplane,airplane,pow,0468_pow_s02_pow_airplane_35_n02690373_4495.png
subject-02,1,469,0.603057146072388,elephant,elephant,pow,0469_pow_s02_pow_elephant_35_n02504013_3264.png
subject-02,1,470,0.595532894134521,cat,cat,0,0470_pow_s02_0_cat_35_n02123159_7629.png
subject-02,1,471,0.58049488067627,elephant,elephant,0,0471_pow_s02_0_elephant_35_n02504013_213.png
subject-02,1,472,0.561894178390503,airplane,airplane,0,0472_pow_s02_0_airplane_35_n02690373_1663.png
subject-02,1,473,0.514487028121948,chair,chair,pow,0473_pow_s02_pow_chair_35_n02791124_422.png
subject-02,1,474,0.559130907058716,knife,knife,0,0474_pow_s02_0_knife_35_n03041632_22286.png
subject-02,1,475,0.810833930969238,elephant,elephant,pow,0475_pow_s02_pow_elephant_35_n02504013_3708.png
subject-02,1,476,0.925204038619995,bird,knife,pow,0476_pow_s02_pow_knife_35_n03041632_46112.png
subject-02,1,477,0.823546886444092,truck,knife,pow,0477_pow_s02_pow_knife_35_n03041632_26236.png
subject-02,1,478,0.775731086730957,bird,bird,0,0478_pow_s02_0_bird_35_n01818515_8187.png
subject-02,1,479,0.406903028488159,chair,chair,0,0479_pow_s02_0_chair_35_n04429376_26222.png
subject-02,1,480,1.04257702827454,oven,chair,0,0480_pow_s02_0_chair_35_n02791124_2611.png
subject-02,1,481,0.511605978012085,oven,oven,0,0481_pow_s02_0_oven_35_n04111531_20056.png
subject-02,1,482,0.387892961502075,keyboard,keyboard,0,0482_pow_s02_0_keyboard_35_n04505470_5161.png
subject-02,1,483,0.40275502204895,cat,cat,pow,0483_pow_s02_pow_cat_35_n02123045_7334.png
subject-02,1,484,0.50835394859314,bottle,bottle,0,0484_pow_s02_0_bottle_35_n04591713_1472.png
subject-02,1,485,0.55333399772644,chair,chair,0,0485_pow_s02_0_chair_35_n02791124_3817.png
subject-02,1,486,0.56801700592041,boat,boat,pow,0486_pow_s02_pow_boat_35_n02951358_728.png
subject-02,1,487,0.528186082839966,keyboard,keyboard,0,0487_pow_s02_0_keyboard_35_n04505470_4621.png
subject-02,1,488,0.582862138748169,keyboard,keyboard,pow,0488_pow_s02_pow_keyboard_35_n03085013_21082.png
subject-02,1,489,0.481642961502075,cat,cat,0,0489_pow_s02_0_cat_35_n02125311_13188.png
subject-02,1,490,0.541864156723022,bear,bear,0,0490_pow_s02_0_bear_35_n02132136_17373.png
subject-02,1,491,0.579721927642822,clock,clock,0,0491_pow_s02_0_clock_35_n02708093_1917.png
subject-02,1,492,0.678573846817017,keyboard,bottle,0,0492_pow_s02_0_bottle_35_n04557648_2703.png
subject-02,1,493,0.492800951004028,oven,oven,0,0493_pow_s02_0_oven_35_n04111531_7955.png
subject-02,1,494,0.653234958648682,airplane,airplane,0,0494_pow_s02_0_airplane_35_n02690373_10079.png
subject-02,1,495,0.47619104385376,keyboard,keyboard,0,0495_pow_s02_0_keyboard_35_n04505470_1537.png
subject-02,1,496,0.361070871353149,cat,cat,0,0496_pow_s02_0_cat_35_n02125311_10649.png
subject-02,1,497,0.528916120529175,bottle,bottle,pow,0497_pow_s02_pow_bottle_35_n03983396_10671.png
subject-02,1,498,0.527636051177979,bottle,bottle,pow,0498_pow_s02_pow_bottle_35_n04591713_7408.png
subject-02,1,499,0.433353185653687,chair,chair,0,0499_pow_s02_0_chair_35_n04099969_5513.png
subject-02,1,500,0.470381021499634,oven,knife,pow,0500_pow_s02_pow_knife_35_n03041632_93026.png
subject-02,1,501,0.517035007476807,bear,bear,0,0501_pow_s02_0_bear_35_n02132136_2719.png
subject-02,1,502,0.637254953384399,oven,oven,0,0502_pow_s02_0_oven_35_n04111531_8263.png
subject-02,1,503,0.575295209884644,boat,boat,pow,0503_pow_s02_pow_boat_35_n02951358_634.png
subject-02,1,504,0.459857940673828,boat,boat,0,0504_pow_s02_0_boat_35_n03662601_13834.png
subject-02,1,505,0.766109943389893,knife,knife,pow,0505_pow_s02_pow_knife_35_n03041632_31367.png
subject-02,1,506,0.540135145187378,chair,chair,0,0506_pow_s02_0_chair_35_n03376595_3177.png
subject-02,1,507,0.601133823394775,car,car,pow,0507_pow_s02_pow_car_35_n02814533_10062.png
subject-02,1,508,0.406899929046631,keyboard,keyboard,0,0508_pow_s02_0_keyboard_35_n04505470_9446.png
subject-02,1,509,0.913136005401611,keyboard,keyboard,0,0509_pow_s02_0_keyboard_35_n04505470_10596.png
subject-02,1,510,0.728749990463257,cat,cat,pow,0510_pow_s02_pow_cat_35_n02123394_2996.png
subject-02,1,511,0.7203688621521,knife,knife,0,0511_pow_s02_0_knife_35_n03041632_11326.png
subject-02,1,512,0.719419956207275,bird,bird,pow,0512_pow_s02_pow_bird_35_n01582220_11032.png
subject-02,1,513,0.495619058609009,boat,boat,pow,0513_pow_s02_pow_boat_35_n02951358_15309.png
subject-02,1,514,0.616020202636719,airplane,airplane,pow,0514_pow_s02_pow_airplane_35_n02690373_6914.png
subject-02,1,515,0.638231039047241,cat,cat,pow,0515_pow_s02_pow_cat_35_n02123394_8212.png
subject-02,1,516,0.56044602394104,bear,bear,0,0516_pow_s02_0_bear_35_n02132136_10572.png
subject-02,1,517,0.628099918365479,truck,truck,pow,0517_pow_s02_pow_truck_35_n03417042_1376.png
subject-02,1,518,0.581157922744751,truck,truck,0,0518_pow_s02_0_truck_35_n03417042_28394.png
subject-02,1,519,0.533280849456787,car,car,0,0519_pow_s02_0_car_35_n03100240_9626.png
subject-02,1,520,0.87201189994812,clock,clock,0,0520_pow_s02_0_clock_35_n03196217_1809.png
subject-02,1,521,0.438329935073853,oven,oven,0,0521_pow_s02_0_oven_35_n04111531_5279.png
subject-02,1,522,0.845008134841919,bicycle,bicycle,0,0522_pow_s02_0_bicycle_35_n02835271_19907.png
subject-02,1,523,0.621223926544189,car,car,pow,0523_pow_s02_pow_car_35_n04285008_4749.png
subject-02,1,524,0.673784971237183,boat,boat,pow,0524_pow_s02_pow_boat_35_n03344393_1753.png
subject-02,1,525,0.612658023834229,boat,boat,pow,0525_pow_s02_pow_boat_35_n03344393_3247.png
subject-02,1,526,0.456889152526855,bear,bear,0,0526_pow_s02_0_bear_35_n02134084_40633.png
subject-02,1,527,0.810915946960449,car,clock,pow,0527_pow_s02_pow_clock_35_n04548280_5482.png
subject-02,1,528,0.801939964294434,bird,bird,pow,0528_pow_s02_pow_bird_35_n02051845_14981.png
subject-02,1,529,0.493952989578247,clock,clock,pow,0529_pow_s02_pow_clock_35_n02708093_6257.png
subject-02,1,530,0.70682692527771,bear,bear,pow,0530_pow_s02_pow_bear_35_n02134418_3592.png
subject-02,1,531,0.607912063598633,clock,clock,0,0531_pow_s02_0_clock_35_n04548280_15154.png
subject-02,1,532,0.598162174224854,truck,truck,0,0532_pow_s02_0_truck_35_n03417042_16688.png
subject-02,1,533,0.542594909667969,dog,dog,0,0533_pow_s02_0_dog_35_n02091032_8054.png
subject-02,1,534,0.710639953613281,bicycle,bicycle,0,0534_pow_s02_0_bicycle_35_n03792782_8945.png
subject-02,1,535,0.365740060806274,cat,cat,pow,0535_pow_s02_pow_cat_35_n02123045_9332.png
subject-02,1,536,0.48857593536377,bottle,bottle,0,0536_pow_s02_0_bottle_35_n03983396_9176.png
subject-02,1,537,0.541106939315796,boat,elephant,pow,0537_pow_s02_pow_elephant_35_n02504458_3228.png
subject-02,1,538,0.439818143844604,boat,boat,0,0538_pow_s02_0_boat_35_n04612504_34934.png
subject-02,1,539,0.536406993865967,car,car,pow,0539_pow_s02_pow_car_35_n04285008_3916.png
subject-02,1,540,0.373641014099121,boat,boat,0,0540_pow_s02_0_boat_35_n04612504_4310.png
subject-02,1,541,0.563743114471436,bicycle,bicycle,pow,0541_pow_s02_pow_bicycle_35_n03792782_21832.png
subject-02,1,542,0.588689088821411,bear,bear,0,0542_pow_s02_0_bear_35_n02132136_6823.png
subject-02,1,543,0.693555116653442,dog,dog,pow,0543_pow_s02_pow_dog_35_n02086910_4519.png
subject-02,1,544,0.452945947647095,cat,cat,0,0544_pow_s02_0_cat_35_n02125311_12136.png
subject-02,1,545,0.805670022964478,knife,keyboard,pow,0545_pow_s02_pow_keyboard_35_n03085013_2092.png
subject-02,1,546,0.682010889053345,elephant,elephant,pow,0546_pow_s02_pow_elephant_35_n02504013_15805.png
subject-02,1,547,0.626434803009033,car,car,0,0547_pow_s02_0_car_35_n02814533_44090.png
subject-02,1,548,0.472495794296265,cat,cat,pow,0548_pow_s02_pow_cat_35_n02123394_3503.png
subject-02,1,549,0.914858102798462,bird,bear,pow,0549_pow_s02_pow_bear_35_n02132136_23202.png
subject-02,1,550,0.637676954269409,elephant,elephant,pow,0550_pow_s02_pow_elephant_35_n02504458_1410.png
subject-02,1,551,0.667739868164062,keyboard,oven,0,0551_pow_s02_0_oven_35_n04111531_2456.png
subject-02,1,552,0.758158922195435,boat,boat,pow,0552_pow_s02_pow_boat_35_n02951358_13276.png
subject-02,1,553,0.597414970397949,dog,dog,pow,0553_pow_s02_pow_dog_35_n02105855_5952.png
subject-02,1,554,0.49514102935791,airplane,airplane,pow,0554_pow_s02_pow_airplane_35_n02690373_4213.png
subject-02,1,555,0.638893127441406,cat,cat,0,0555_pow_s02_0_cat_35_n02124075_6986.png
subject-02,1,556,0.670348167419434,cat,oven,pow,0556_pow_s02_pow_oven_35_n04111531_3470.png
subject-02,1,557,0.676126003265381,bicycle,bicycle,pow,0557_pow_s02_pow_bicycle_35_n02835271_14862.png
subject-02,1,558,0.598978996276855,clock,clock,0,0558_pow_s02_0_clock_35_n02708093_6414.png
subject-02,1,559,0.696893930435181,elephant,elephant,0,0559_pow_s02_0_elephant_35_n02504013_6027.png
subject-02,1,560,0.587576866149902,bird,bird,0,0560_pow_s02_0_bird_35_n02002556_6061.png
subject-02,1,561,0.69310998916626,truck,truck,pow,0561_pow_s02_pow_truck_35_n03417042_15913.png
subject-02,1,562,0.529916048049927,boat,boat,pow,0562_pow_s02_pow_boat_35_n04273569_16551.png
subject-02,1,563,1.21986198425293,clock,knife,0,0563_pow_s02_0_knife_35_n03041632_13612.png
subject-02,1,564,1.05927419662476,knife,knife,pow,0564_pow_s02_pow_knife_35_n03041632_33198.png
subject-02,1,565,0.513797998428345,chair,chair,0,0565_pow_s02_0_chair_35_n02791124_4921.png
subject-02,1,566,0.534420013427734,airplane,airplane,0,0566_pow_s02_0_airplane_35_n02690373_6535.png
subject-02,1,567,0.715806007385254,oven,clock,0,0567_pow_s02_0_clock_35_n04548280_9097.png
subject-02,1,568,0.454048156738281,clock,clock,pow,0568_pow_s02_pow_clock_35_n04548280_1324.png
subject-02,1,569,0.368169069290161,boat,boat,0,0569_pow_s02_0_boat_35_n02951358_34926.png
subject-02,1,570,0.404916048049927,chair,chair,0,0570_pow_s02_0_chair_35_n04429376_10158.png
subject-02,1,571,0.857571125030518,bear,bear,0,0571_pow_s02_0_bear_35_n02134084_572.png
subject-02,1,572,0.739588975906372,airplane,airplane,pow,0572_pow_s02_pow_airplane_35_n02690373_1611.png
subject-02,1,573,0.48564600944519,cat,cat,0,0573_pow_s02_0_cat_35_n02125311_8689.png
subject-02,1,574,0.868829011917114,bottle,bottle,0,0574_pow_s02_0_bottle_35_n04560804_29778.png
subject-02,1,575,0.474270105361938,cat,cat,0,0575_pow_s02_0_cat_35_n02123159_3850.png
subject-02,1,576,0.542938232421875,bicycle,bicycle,pow,0576_pow_s02_pow_bicycle_35_n03792782_7008.png
subject-02,1,577,0.571751117706299,boat,boat,pow,0577_pow_s02_pow_boat_35_n02951358_3704.png
subject-02,1,578,0.501803159713745,oven,oven,0,0578_pow_s02_0_oven_35_n04111531_695.png
subject-02,1,579,0.60033106803894,knife,knife,pow,0579_pow_s02_pow_knife_35_n03041632_383.png
subject-02,1,580,0.466717958450317,airplane,airplane,0,0580_pow_s02_0_airplane_35_n02690373_6942.png
subject-02,1,581,0.483678817749023,bicycle,bicycle,pow,0581_pow_s02_pow_bicycle_35_n03792782_16408.png
subject-02,1,582,0.436614990234375,boat,boat,pow,0582_pow_s02_pow_boat_35_n03344393_3434.png
subject-02,1,583,0.723611116409302,bear,bear,0,0583_pow_s02_0_bear_35_n02134418_3053.png
subject-02,1,584,0.440317153930664,clock,clock,pow,0584_pow_s02_pow_clock_35_n04548280_9755.png
subject-02,1,585,0.415798902511597,boat,boat,0,0585_pow_s02_0_boat_35_n03344393_728.png
subject-02,1,586,0.737889051437378,knife,knife,0,0586_pow_s02_0_knife_35_n03041632_52040.png
subject-02,1,587,0.527919054031372,keyboard,keyboard,pow,0587_pow_s02_pow_keyboard_35_n04505470_4534.png
subject-02,1,588,0.834372997283936,bottle,truck,pow,0588_pow_s02_pow_truck_35_n04467665_23516.png
subject-02,1,589,0.557210922241211,keyboard,keyboard,pow,0589_pow_s02_pow_keyboard_35_n04505470_2792.png
subject-02,1,590,0.455504894256592,airplane,airplane,0,0590_pow_s02_0_airplane_35_n02690373_10395.png
subject-02,1,591,0.594506025314331,car,car,0,0591_pow_s02_0_car_35_n02814533_48541.png
subject-02,1,592,0.492673873901367,airplane,airplane,0,0592_pow_s02_0_airplane_35_n02690373_7624.png
subject-02,1,593,0.590948104858398,bear,bear,pow,0593_pow_s02_pow_bear_35_n02134084_433.png
subject-02,1,594,0.660449981689453,chair,chair,0,0594_pow_s02_0_chair_35_n04099969_14610.png
subject-02,1,595,0.598755836486816,car,car,pow,0595_pow_s02_pow_car_35_n02814533_4121.png
subject-02,1,596,0.581743001937866,bottle,bottle,pow,0596_pow_s02_pow_bottle_35_n04557648_2282.png
subject-02,1,597,0.690778970718384,cat,cat,pow,0597_pow_s02_pow_cat_35_n02125311_45867.png
subject-02,1,598,0.818586111068726,clock,clock,0,0598_pow_s02_0_clock_35_n04548280_5076.png
subject-02,1,599,0.448869943618774,keyboard,keyboard,0,0599_pow_s02_0_keyboard_35_n04505470_4617.png
subject-02,1,600,0.609529972076416,clock,clock,pow,0600_pow_s02_pow_clock_35_n02708093_1897.png
subject-02,1,601,0.854453086853027,bicycle,bicycle,0,0601_pow_s02_0_bicycle_35_n02835271_7038.png
subject-02,1,602,0.5678551197052,bottle,bottle,0,0602_pow_s02_0_bottle_35_n04560804_14792.png
subject-02,1,603,0.412264823913574,bottle,bottle,0,0603_pow_s02_0_bottle_35_n03983396_10471.png
subject-02,1,604,0.494293928146362,chair,chair,pow,0604_pow_s02_pow_chair_35_n02791124_3121.png
subject-02,1,605,0.584551811218262,bottle,bottle,pow,0605_pow_s02_pow_bottle_35_n03983396_2198.png
subject-02,1,606,0.545462131500244,car,car,0,0606_pow_s02_0_car_35_n03100240_9641.png
subject-02,1,607,0.635792016983032,dog,dog,pow,0607_pow_s02_pow_dog_35_n02112018_7545.png
subject-02,1,608,0.39029598236084,boat,boat,pow,0608_pow_s02_pow_boat_35_n04612504_6601.png
subject-02,1,609,0.572463035583496,oven,truck,pow,0609_pow_s02_pow_truck_35_n03417042_11072.png
subject-02,1,610,0.754736185073853,cat,knife,pow,0610_pow_s02_pow_knife_35_n03041632_32350.png
subject-02,1,611,0.669441938400269,airplane,airplane,pow,0611_pow_s02_pow_airplane_35_n02690373_5724.png
subject-02,1,612,0.706083059310913,dog,dog,0,0612_pow_s02_0_dog_35_n02113023_4078.png
subject-02,1,613,0.744013071060181,bird,bird,0,0613_pow_s02_0_bird_35_n01797886_4861.png
subject-02,1,614,0.616985082626343,car,car,pow,0614_pow_s02_pow_car_35_n02814533_11078.png
subject-02,1,615,0.920795917510986,cat,cat,0,0615_pow_s02_0_cat_35_n02125311_412.png
subject-02,1,616,0.451771974563599,bottle,bottle,0,0616_pow_s02_0_bottle_35_n04557648_11206.png
subject-02,1,617,0.604315996170044,keyboard,keyboard,0,0617_pow_s02_0_keyboard_35_n04505470_5047.png
subject-02,1,618,0.573127031326294,dog,bear,0,0618_pow_s02_0_bear_35_n02134418_2440.png
subject-02,1,619,0.749549150466919,bear,bear,0,0619_pow_s02_0_bear_35_n02134418_1487.png
subject-02,1,620,0.777491807937622,dog,dog,pow,0620_pow_s02_pow_dog_35_n02101388_1984.png
subject-02,1,621,0.729992151260376,bottle,clock,pow,0621_pow_s02_pow_clock_35_n04548280_4522.png
subject-02,1,622,0.650180101394653,cat,cat,0,0622_pow_s02_0_cat_35_n02123045_11485.png
subject-02,1,623,0.396010875701904,cat,cat,pow,0623_pow_s02_pow_cat_35_n02123045_4812.png
subject-02,1,624,0.978855133056641,dog,dog,pow,0624_pow_s02_pow_dog_35_n02110185_1688.png
subject-02,1,625,0.760837078094482,chair,chair,pow,0625_pow_s02_pow_chair_35_n04429376_54754.png
subject-02,1,626,0.699751853942871,elephant,elephant,0,0626_pow_s02_0_elephant_35_n02504458_1327.png
subject-02,1,627,0.736037969589233,bear,dog,pow,0627_pow_s02_pow_dog_35_n02107312_7211.png
subject-02,1,628,0.451627969741821,clock,clock,0,0628_pow_s02_0_clock_35_n03196217_4254.png
subject-02,1,629,0.443225860595703,keyboard,keyboard,pow,0629_pow_s02_pow_keyboard_35_n03085013_19096.png
subject-02,1,630,0.579703092575073,bicycle,knife,pow,0630_pow_s02_pow_knife_35_n03041632_80829.png
subject-02,1,631,0.809221029281616,bottle,bottle,0,0631_pow_s02_0_bottle_35_n03937543_9165.png
subject-02,1,632,0.763545989990234,oven,knife,pow,0632_pow_s02_pow_knife_35_n03041632_19866.png
subject-02,1,633,0.5696120262146,elephant,elephant,pow,0633_pow_s02_pow_elephant_35_n02504458_11740.png
subject-02,1,634,0.444267988204956,clock,clock,0,0634_pow_s02_0_clock_35_n02708093_7537.png
subject-02,1,635,0.474915981292725,bicycle,bicycle,0,0635_pow_s02_0_bicycle_35_n02835271_12700.png
subject-02,1,636,0.619132041931152,elephant,elephant,pow,0636_pow_s02_pow_elephant_35_n02504013_5811.png
subject-02,1,637,0.471833944320679,bird,bird,pow,0637_pow_s02_pow_bird_35_n02025239_628.png
subject-02,1,638,0.394275903701782,cat,cat,pow,0638_pow_s02_pow_cat_35_n02125311_25091.png
subject-02,1,639,0.531087160110474,truck,truck,0,0639_pow_s02_0_truck_35_n03796401_713.png
subject-02,1,640,0.554513216018677,cat,elephant,pow,0640_pow_s02_pow_elephant_35_n02504013_673.png
subject-02,1,641,0.549237966537476,bear,bear,pow,0641_pow_s02_pow_bear_35_n02134418_28023.png
subject-02,1,642,0.825818061828613,boat,knife,pow,0642_pow_s02_pow_knife_35_n03041632_48151.png
subject-02,1,643,0.516877174377441,bird,bird,pow,0643_pow_s02_pow_bird_35_n01855032_2360.png
subject-02,1,644,0.738846063613892,truck,truck,pow,0644_pow_s02_pow_truck_35_n03796401_14571.png
subject-02,1,645,0.458582878112793,bicycle,bicycle,0,0645_pow_s02_0_bicycle_35_n02835271_13063.png
subject-02,1,646,0.588617086410522,knife,knife,pow,0646_pow_s02_pow_knife_35_n03041632_12651.png
subject-02,1,647,0.371409893035889,cat,cat,0,0647_pow_s02_0_cat_35_n02124075_8673.png
subject-02,1,648,0.929993867874146,bird,bicycle,pow,0648_pow_s02_pow_bicycle_35_n03792782_3253.png
subject-02,1,649,0.684890031814575,truck,truck,pow,0649_pow_s02_pow_truck_35_n03796401_1791.png
subject-02,1,650,0.407124042510986,bottle,bottle,pow,0650_pow_s02_pow_bottle_35_n02823428_1305.png
subject-02,1,651,0.665649175643921,car,car,pow,0651_pow_s02_pow_car_35_n02814533_7247.png
subject-02,1,652,0.558004140853882,bear,bear,pow,0652_pow_s02_pow_bear_35_n02133161_15612.png
subject-02,1,653,0.663981914520264,oven,oven,0,0653_pow_s02_0_oven_35_n04111531_7878.png
subject-02,1,654,0.538480043411255,car,car,0,0654_pow_s02_0_car_35_n03100240_18646.png
subject-02,1,655,0.66192102432251,dog,dog,pow,0655_pow_s02_pow_dog_35_n02099267_8400.png
subject-02,1,656,0.629852056503296,bicycle,bicycle,0,0656_pow_s02_0_bicycle_35_n02835271_12806.png
subject-02,1,657,0.490287065505981,cat,cat,0,0657_pow_s02_0_cat_35_n02123597_85.png
subject-02,1,658,0.7484450340271,knife,knife,pow,0658_pow_s02_pow_knife_35_n03041632_52702.png
subject-02,1,659,0.43280291557312,clock,clock,0,0659_pow_s02_0_clock_35_n02708093_3535.png
subject-02,1,660,0.985274076461792,car,truck,pow,0660_pow_s02_pow_truck_35_n04467665_37935.png
subject-02,1,661,0.44598913192749,clock,clock,pow,0661_pow_s02_pow_clock_35_n04548280_4560.png
subject-02,1,662,0.368396997451782,boat,boat,0,0662_pow_s02_0_boat_35_n04273569_24921.png
subject-02,1,663,0.650403022766113,bird,bird,0,0663_pow_s02_0_bird_35_n02056570_8616.png
subject-02,1,664,0.43541693687439,bird,bird,0,0664_pow_s02_0_bird_35_n01530575_3903.png
subject-02,1,665,0.395648002624512,clock,clock,pow,0665_pow_s02_pow_clock_35_n04548280_9743.png
subject-02,1,666,0.424322128295898,chair,chair,pow,0666_pow_s02_pow_chair_35_n04099969_14056.png
subject-02,1,667,0.576694011688232,bear,bear,pow,0667_pow_s02_pow_bear_35_n02134418_3534.png
subject-02,1,668,0.661763906478882,bird,clock,pow,0668_pow_s02_pow_clock_35_n02708093_420.png
subject-02,1,669,0.50026798248291,bicycle,bicycle,0,0669_pow_s02_0_bicycle_35_n03792782_2628.png
subject-02,1,670,0.460798978805542,boat,boat,0,0670_pow_s02_0_boat_35_n04612504_5947.png
subject-02,1,671,0.498173952102661,bottle,bottle,0,0671_pow_s02_0_bottle_35_n03983396_2115.png
subject-02,1,672,0.520158052444458,bicycle,bicycle,0,0672_pow_s02_0_bicycle_35_n02835271_3989.png
subject-02,1,673,0.596855878829956,bird,bear,0,0673_pow_s02_0_bear_35_n02133161_3922.png
subject-02,1,674,0.565237045288086,truck,truck,pow,0674_pow_s02_pow_truck_35_n04467665_48953.png
subject-02,1,675,0.472253084182739,bottle,bottle,pow,0675_pow_s02_pow_bottle_35_n03983396_24004.png
subject-02,1,676,0.715914011001587,airplane,airplane,0,0676_pow_s02_0_airplane_35_n02690373_4310.png
subject-02,1,677,0.397515058517456,clock,clock,pow,0677_pow_s02_pow_clock_35_n04548280_8917.png
subject-02,1,678,0.37437891960144,clock,clock,0,0678_pow_s02_0_clock_35_n02708093_5031.png
subject-02,1,679,0.703383922576904,truck,truck,pow,0679_pow_s02_pow_truck_35_n04467665_5674.png
subject-02,1,680,0.495028018951416,chair,chair,0,0680_pow_s02_0_chair_35_n03376595_14102.png
subject-02,1,681,0.515657186508179,chair,chair,pow,0681_pow_s02_pow_chair_35_n04429376_9022.png
subject-02,1,682,0.767995119094849,car,car,0,0682_pow_s02_0_car_35_n04285008_4868.png
subject-02,1,683,0.682526826858521,car,chair,pow,0683_pow_s02_pow_chair_35_n02791124_2713.png
subject-02,1,684,0.972388029098511,cat,bear,0,0684_pow_s02_0_bear_35_n02133161_1490.png
subject-02,1,685,0.878885984420776,bicycle,bicycle,0,0685_pow_s02_0_bicycle_35_n03792782_7108.png
subject-02,1,686,0.563366889953613,cat,dog,0,0686_pow_s02_0_dog_35_n02111500_4980.png
subject-02,1,687,0.538469076156616,truck,truck,pow,0687_pow_s02_pow_truck_35_n04467665_48264.png
subject-02,1,688,0.592257022857666,keyboard,keyboard,0,0688_pow_s02_0_keyboard_35_n04505470_5151.png
subject-02,1,689,0.567766189575195,truck,truck,0,0689_pow_s02_0_truck_35_n03417042_29855.png
subject-02,1,690,0.54355788230896,elephant,elephant,0,0690_pow_s02_0_elephant_35_n02504458_6902.png
subject-02,1,691,1.01269817352295,oven,keyboard,pow,0691_pow_s02_pow_keyboard_35_n04505470_6601.png
subject-02,1,692,0.649892091751099,truck,truck,0,0692_pow_s02_0_truck_35_n04467665_33086.png
subject-02,1,693,0.580034971237183,bicycle,bicycle,pow,0693_pow_s02_pow_bicycle_35_n02835271_13489.png
subject-02,1,694,0.610614061355591,dog,dog,pow,0694_pow_s02_pow_dog_35_n02089867_8806.png
subject-02,1,695,0.617294788360596,knife,knife,0,0695_pow_s02_0_knife_35_n03041632_21859.png
subject-02,1,696,0.498849868774414,keyboard,keyboard,0,0696_pow_s02_0_keyboard_35_n03085013_1808.png
subject-02,1,697,0.743923902511597,knife,knife,pow,0697_pow_s02_pow_knife_35_n03041632_43634.png
subject-02,1,698,0.573807954788208,car,car,0,0698_pow_s02_0_car_35_n04285008_588.png
subject-02,1,699,0.793778896331787,dog,dog,0,0699_pow_s02_0_dog_35_n02093991_394.png
subject-02,1,700,0.954298973083496,oven,knife,0,0700_pow_s02_0_knife_35_n03041632_22964.png
subject-02,1,701,0.493312120437622,bicycle,bicycle,0,0701_pow_s02_0_bicycle_35_n03792782_10617.png
subject-02,1,702,0.513109922409058,clock,clock,0,0702_pow_s02_0_clock_35_n04548280_10167.png
subject-02,1,703,0.597530841827393,boat,boat,0,0703_pow_s02_0_boat_35_n02951358_4443.png
subject-02,1,704,0.664213895797729,bicycle,bicycle,0,0704_pow_s02_0_bicycle_35_n03792782_12453.png
subject-02,1,705,0.624537944793701,car,car,0,0705_pow_s02_0_car_35_n02814533_29925.png
subject-02,1,706,0.977219104766846,car,car,0,0706_pow_s02_0_car_35_n02814533_75173.png
subject-02,1,707,0.631996870040894,bottle,bottle,pow,0707_pow_s02_pow_bottle_35_n03937543_4797.png
subject-02,1,708,0.538670063018799,truck,truck,0,0708_pow_s02_0_truck_35_n04467665_14719.png
subject-02,1,709,0.459152936935425,bottle,bottle,pow,0709_pow_s02_pow_bottle_35_n03983396_23143.png
subject-02,1,710,0.719763994216919,bear,cat,0,0710_pow_s02_0_cat_35_n02125311_55486.png
subject-02,1,711,0.550019979476929,oven,oven,pow,0711_pow_s02_pow_oven_35_n04111531_49.png
subject-02,1,712,0.816284894943237,knife,knife,pow,0712_pow_s02_pow_knife_35_n03041632_6557.png
subject-02,1,713,0.446633100509644,cat,cat,0,0713_pow_s02_0_cat_35_n02123597_1174.png
subject-02,1,714,0.699187040328979,elephant,elephant,0,0714_pow_s02_0_elephant_35_n02504458_5457.png
subject-02,1,715,0.667536973953247,dog,dog,0,0715_pow_s02_0_dog_35_n02092339_3623.png
subject-02,1,716,1.01960492134094,bird,bird,pow,0716_pow_s02_pow_bird_35_n01820546_7837.png
subject-02,1,717,0.825856924057007,bird,bird,pow,0717_pow_s02_pow_bird_35_n01532829_10127.png
subject-02,1,718,0.562650918960571,keyboard,keyboard,0,0718_pow_s02_0_keyboard_35_n03085013_20262.png
subject-02,1,719,0.593101978302002,truck,truck,0,0719_pow_s02_0_truck_35_n03796401_8100.png
subject-02,1,720,0.937397003173828,truck,truck,0,0720_pow_s02_0_truck_35_n03796401_19997.png
subject-02,1,721,0.857754945755005,bear,cat,pow,0721_pow_s02_pow_cat_35_n02123394_3695.png
subject-02,1,722,0.465779066085815,clock,clock,pow,0722_pow_s02_pow_clock_35_n02708093_2857.png
subject-02,1,723,0.727171182632446,car,car,pow,0723_pow_s02_pow_car_35_n02814533_12779.png
subject-02,1,724,0.425541877746582,oven,oven,pow,0724_pow_s02_pow_oven_35_n04111531_21896.png
subject-02,1,725,0.661897897720337,boat,boat,pow,0725_pow_s02_pow_boat_35_n03344393_1637.png
subject-02,1,726,0.522557020187378,knife,knife,0,0726_pow_s02_0_knife_35_n03041632_29125.png
subject-02,1,727,0.537172079086304,keyboard,keyboard,0,0727_pow_s02_0_keyboard_35_n04505470_264.png
subject-02,1,728,0.544204950332642,bicycle,bicycle,pow,0728_pow_s02_pow_bicycle_35_n02835271_27610.png
subject-02,1,729,1.09625387191772,truck,truck,pow,0729_pow_s02_pow_truck_35_n03417042_3288.png
subject-02,1,730,0.534884929656982,airplane,airplane,0,0730_pow_s02_0_airplane_35_n02690373_3492.png
subject-02,1,731,0.495896100997925,bear,bear,pow,0731_pow_s02_pow_bear_35_n02132136_30976.png
subject-02,1,732,0.723934173583984,cat,elephant,pow,0732_pow_s02_pow_elephant_35_n02504013_3695.png
subject-02,1,733,0.492569923400879,dog,dog,pow,0733_pow_s02_pow_dog_35_n02108422_8463.png
subject-02,1,734,0.530938148498535,keyboard,keyboard,pow,0734_pow_s02_pow_keyboard_35_n03085013_7091.png
subject-02,1,735,0.683873891830444,elephant,elephant,0,0735_pow_s02_0_elephant_35_n02504013_22508.png
subject-02,1,736,0.444143056869507,airplane,airplane,0,0736_pow_s02_0_airplane_35_n02690373_2042.png
subject-02,1,737,0.688663005828857,bird,bird,0,0737_pow_s02_0_bird_35_n01833805_4211.png
subject-02,1,738,0.732384920120239,knife,knife,0,0738_pow_s02_0_knife_35_n03041632_22051.png
subject-02,1,739,0.600857973098755,bottle,bottle,pow,0739_pow_s02_pow_bottle_35_n04591713_4474.png
subject-02,1,740,0.631529092788696,airplane,airplane,pow,0740_pow_s02_pow_airplane_35_n02690373_1051.png
subject-02,1,741,1.06819701194763,car,car,0,0741_pow_s02_0_car_35_n03100240_9908.png
subject-02,1,742,0.892253875732422,car,car,pow,0742_pow_s02_pow_car_35_n03100240_7113.png
subject-02,1,743,0.584989070892334,bicycle,bicycle,pow,0743_pow_s02_pow_bicycle_35_n02835271_1918.png
subject-02,1,744,0.469594955444336,keyboard,keyboard,0,0744_pow_s02_0_keyboard_35_n04505470_4498.png
subject-02,1,745,0.827917098999023,oven,oven,0,0745_pow_s02_0_oven_35_n04111531_21869.png
subject-02,1,746,0.596158981323242,dog,dog,0,0746_pow_s02_0_dog_35_n02097130_3007.png
subject-02,1,747,0.656848192214966,bottle,bicycle,pow,0747_pow_s02_pow_bicycle_35_n03792782_14907.png
subject-02,1,748,0.708669185638428,truck,truck,pow,0748_pow_s02_pow_truck_35_n03417042_3448.png
subject-02,1,749,0.523546934127808,cat,cat,0,0749_pow_s02_0_cat_35_n02124075_14633.png
subject-02,1,750,0.522269010543823,boat,airplane,pow,0750_pow_s02_pow_airplane_35_n02690373_4617.png
subject-02,1,751,0.598440170288086,bird,bird,pow,0751_pow_s02_pow_bird_35_n01860187_20976.png
subject-02,1,752,0.550781965255737,chair,chair,0,0752_pow_s02_0_chair_35_n04429376_3820.png
subject-02,1,753,0.473399877548218,chair,chair,0,0753_pow_s02_0_chair_35_n02791124_16264.png
subject-02,1,754,0.601480007171631,bicycle,bicycle,0,0754_pow_s02_0_bicycle_35_n03792782_18275.png
subject-02,1,755,0.938199996948242,bear,bear,0,0755_pow_s02_0_bear_35_n02133161_6349.png
subject-02,1,756,0.460196018218994,cat,cat,pow,0756_pow_s02_pow_cat_35_n02123045_10143.png
subject-02,1,757,0.552915811538696,airplane,airplane,pow,0757_pow_s02_pow_airplane_35_n02690373_2525.png
subject-02,1,758,0.65116810798645,car,car,pow,0758_pow_s02_pow_car_35_n03100240_8256.png
subject-02,1,759,1.31012797355652,elephant,elephant,pow,0759_pow_s02_pow_elephant_35_n02504458_5614.png
subject-02,1,760,0.524302959442139,car,car,0,0760_pow_s02_0_car_35_n04285008_5029.png
subject-02,1,761,0.754569053649902,dog,dog,pow,0761_pow_s02_pow_dog_35_n02091134_1820.png
subject-02,1,762,0.59922194480896,chair,bottle,pow,0762_pow_s02_pow_bottle_35_n03983396_5582.png
subject-02,1,763,0.597650051116943,dog,dog,0,0763_pow_s02_0_dog_35_n02094433_6859.png
subject-02,1,764,0.612421035766602,dog,dog,0,0764_pow_s02_0_dog_35_n02111500_7681.png
subject-02,1,765,0.63474702835083,knife,knife,0,0765_pow_s02_0_knife_35_n03041632_54627.png
subject-02,1,766,0.563313961029053,airplane,airplane,pow,0766_pow_s02_pow_airplane_35_n02690373_8304.png
subject-02,1,767,0.401787042617798,airplane,airplane,pow,0767_pow_s02_pow_airplane_35_n02690373_9533.png
subject-02,1,768,0.568071126937866,knife,knife,pow,0768_pow_s02_pow_knife_35_n03041632_51581.png
subject-02,1,769,0.559969902038574,cat,cat,0,0769_pow_s02_0_cat_35_n02123159_1102.png
subject-02,1,770,0.543522119522095,keyboard,keyboard,0,0770_pow_s02_0_keyboard_35_n03085013_2139.png
subject-02,1,771,0.590035915374756,boat,boat,0,0771_pow_s02_0_boat_35_n03662601_7626.png
subject-02,1,772,0.802676200866699,truck,airplane,pow,0772_pow_s02_pow_airplane_35_n02690373_7145.png
subject-02,1,773,0.738597869873047,truck,truck,0,0773_pow_s02_0_truck_35_n04467665_12177.png
subject-02,1,774,0.599802017211914,oven,oven,pow,0774_pow_s02_pow_oven_35_n04111531_1054.png
subject-02,1,775,0.462183952331543,clock,clock,0,0775_pow_s02_0_clock_35_n04548280_5503.png
subject-02,1,776,0.974960088729858,dog,knife,0,0776_pow_s02_0_knife_35_n03041632_98864.png
subject-02,1,777,0.70549488067627,dog,dog,pow,0777_pow_s02_pow_dog_35_n02087394_27737.png
subject-02,1,778,0.717128992080688,car,bear,pow,0778_pow_s02_pow_bear_35_n02134418_2457.png
subject-02,1,779,0.923753023147583,bird,oven,pow,0779_pow_s02_pow_oven_35_n04111531_2930.png
subject-02,1,780,0.462303161621094,cat,cat,pow,0780_pow_s02_pow_cat_35_n02123394_7325.png
subject-02,1,781,0.591306924819946,bird,bird,0,0781_pow_s02_0_bird_35_n02011460_8577.png
subject-02,1,782,0.488914966583252,oven,oven,pow,0782_pow_s02_pow_oven_35_n04111531_5756.png
subject-02,1,783,0.657629013061523,bird,bird,pow,0783_pow_s02_pow_bird_35_n01531178_5497.png
subject-02,1,784,0.555799007415771,boat,boat,0,0784_pow_s02_0_boat_35_n04612504_5216.png
subject-02,1,785,0.608762979507446,dog,dog,0,0785_pow_s02_0_dog_35_n02109525_832.png
subject-02,1,786,0.736202955245972,cat,dog,0,0786_pow_s02_0_dog_35_n02104365_1468.png
subject-02,1,787,0.489233016967773,bird,bird,0,0787_pow_s02_0_bird_35_n01560419_2432.png
subject-02,1,788,0.925326108932495,elephant,elephant,pow,0788_pow_s02_pow_elephant_35_n02504013_165.png
subject-02,1,789,0.602111101150513,truck,truck,pow,0789_pow_s02_pow_truck_35_n04467665_55823.png
subject-02,1,790,0.700711011886597,knife,knife,pow,0790_pow_s02_pow_knife_35_n03041632_992.png
subject-02,1,791,0.461443901062012,keyboard,keyboard,0,0791_pow_s02_0_keyboard_35_n04505470_7388.png
subject-02,1,792,0.490010023117065,elephant,elephant,pow,0792_pow_s02_pow_elephant_35_n02504013_5182.png
subject-02,1,793,0.634679079055786,bottle,clock,pow,0793_pow_s02_pow_clock_35_n04548280_1.png
subject-02,1,794,0.848907947540283,boat,elephant,pow,0794_pow_s02_pow_elephant_35_n02504458_696.png
subject-02,1,795,0.630892992019653,knife,knife,0,0795_pow_s02_0_knife_35_n03041632_37513.png
subject-02,1,796,0.529102087020874,bicycle,bicycle,0,0796_pow_s02_0_bicycle_35_n02835271_7592.png
subject-02,1,797,0.457217931747437,airplane,airplane,0,0797_pow_s02_0_airplane_35_n02690373_1815.png
subject-02,1,798,0.750005960464478,elephant,elephant,0,0798_pow_s02_0_elephant_35_n02504013_5027.png
subject-02,1,799,0.809285879135132,dog,dog,0,0799_pow_s02_0_dog_35_n02108000_6970.png
subject-02,1,800,0.523699998855591,bicycle,bicycle,pow,0800_pow_s02_pow_bicycle_35_n02835271_22623.png
subject-02,1,801,0.627587795257568,cat,cat,0,0801_pow_s02_0_cat_35_n02123159_9537.png
subject-02,1,802,0.517478942871094,bear,bear,0,0802_pow_s02_0_bear_35_n02133161_14361.png
subject-02,1,803,0.616328001022339,bear,bear,0,0803_pow_s02_0_bear_35_n02134084_2247.png
subject-02,1,804,0.37105393409729,bird,bird,0,0804_pow_s02_0_bird_35_n02037110_4923.png
subject-02,1,805,0.50632119178772,clock,clock,pow,0805_pow_s02_pow_clock_35_n04548280_377.png
subject-02,1,806,0.429853916168213,bear,bear,pow,0806_pow_s02_pow_bear_35_n02132136_1624.png
subject-02,1,807,0.642040014266968,knife,knife,0,0807_pow_s02_0_knife_35_n03041632_1671.png
subject-02,1,808,0.756855964660645,elephant,elephant,pow,0808_pow_s02_pow_elephant_35_n02504013_4997.png
subject-02,1,809,0.595518112182617,bottle,chair,pow,0809_pow_s02_pow_chair_35_n04429376_21254.png
subject-02,1,810,0.469731092453003,truck,truck,0,0810_pow_s02_0_truck_35_n04467665_4593.png
subject-02,1,811,0.430655956268311,cat,keyboard,0,0811_pow_s02_0_keyboard_35_n03085013_23295.png
subject-02,1,812,0.460785865783691,bear,bear,pow,0812_pow_s02_pow_bear_35_n02132136_6856.png
subject-02,1,813,0.697046041488647,truck,truck,0,0813_pow_s02_0_truck_35_n04467665_42414.png
subject-02,1,814,0.563209056854248,bicycle,bicycle,0,0814_pow_s02_0_bicycle_35_n02835271_10915.png
subject-02,1,815,0.756162881851196,oven,clock,pow,0815_pow_s02_pow_clock_35_n04548280_7662.png
subject-02,1,816,0.847069025039673,dog,dog,pow,0816_pow_s02_pow_dog_35_n02108915_653.png
subject-02,1,817,0.545377969741821,dog,dog,0,0817_pow_s02_0_dog_35_n02092339_4462.png
subject-02,1,818,0.730103015899658,knife,keyboard,0,0818_pow_s02_0_keyboard_35_n04505470_8828.png
subject-02,1,819,1.06612706184387,chair,chair,pow,0819_pow_s02_pow_chair_35_n04429376_9482.png
subject-02,1,820,0.903028964996338,elephant,elephant,pow,0820_pow_s02_pow_elephant_35_n02504458_1623.png
subject-02,1,821,0.671178817749023,oven,knife,pow,0821_pow_s02_pow_knife_35_n03041632_7832.png
subject-02,1,822,0.479976177215576,oven,oven,0,0822_pow_s02_0_oven_35_n04111531_12942.png
subject-02,1,823,0.478446006774902,bicycle,bicycle,0,0823_pow_s02_0_bicycle_35_n02835271_12453.png
subject-02,1,824,0.500663995742798,truck,truck,pow,0824_pow_s02_pow_truck_35_n03417042_4939.png
subject-02,1,825,0.453571796417236,oven,oven,pow,0825_pow_s02_pow_oven_35_n04111531_687.png
subject-02,1,826,1.01136302947998,keyboard,knife,0,0826_pow_s02_0_knife_35_n03041632_36806.png
subject-02,1,827,0.503658056259155,bicycle,bicycle,0,0827_pow_s02_0_bicycle_35_n03792782_13230.png
subject-02,1,828,0.840177059173584,bottle,bottle,0,0828_pow_s02_0_bottle_35_n04557648_2206.png
subject-02,1,829,0.762810945510864,elephant,elephant,pow,0829_pow_s02_pow_elephant_35_n02504458_3160.png
subject-02,1,830,0.461658000946045,cat,cat,pow,0830_pow_s02_pow_cat_35_n02125311_22057.png
subject-02,1,831,0.4755859375,keyboard,keyboard,pow,0831_pow_s02_pow_keyboard_35_n03085013_20267.png
subject-02,1,832,0.458298921585083,oven,oven,0,0832_pow_s02_0_oven_35_n04111531_15682.png
subject-02,1,833,0.597001075744629,dog,dog,0,0833_pow_s02_0_dog_35_n02099429_5298.png
subject-02,1,834,0.571609973907471,keyboard,keyboard,pow,0834_pow_s02_pow_keyboard_35_n04505470_4978.png
subject-02,1,835,0.878189086914062,boat,boat,0,0835_pow_s02_0_boat_35_n03344393_5884.png
subject-02,1,836,0.546705007553101,boat,boat,pow,0836_pow_s02_pow_boat_35_n04273569_11898.png
subject-02,1,837,0.974668979644775,airplane,chair,pow,0837_pow_s02_pow_chair_35_n04429376_13678.png
subject-02,1,838,0.527529001235962,chair,chair,pow,0838_pow_s02_pow_chair_35_n02791124_4706.png
subject-02,1,839,0.611536026000977,bear,bear,0,0839_pow_s02_0_bear_35_n02133161_1271.png
subject-02,1,840,0.440369844436646,clock,clock,pow,0840_pow_s02_pow_clock_35_n03196217_4417.png
subject-02,1,841,0.546273946762085,car,car,pow,0841_pow_s02_pow_car_35_n04285008_7353.png
subject-02,1,842,0.590906858444214,clock,clock,0,0842_pow_s02_0_clock_35_n04548280_10183.png
subject-02,1,843,0.476131916046143,airplane,airplane,0,0843_pow_s02_0_airplane_35_n02690373_7591.png
subject-02,1,844,0.390316963195801,airplane,airplane,pow,0844_pow_s02_pow_airplane_35_n02690373_8599.png
subject-02,1,845,0.723082780838013,bicycle,bicycle,0,0845_pow_s02_0_bicycle_35_n03792782_1105.png
subject-02,1,846,0.507115125656128,airplane,airplane,pow,0846_pow_s02_pow_airplane_35_n02690373_9445.png
subject-02,1,847,0.713845014572144,bottle,bottle,pow,0847_pow_s02_pow_bottle_35_n04560804_4704.png
subject-02,1,848,0.558551073074341,elephant,elephant,0,0848_pow_s02_0_elephant_35_n02504458_12374.png
subject-02,1,849,1.0021710395813,truck,boat,pow,0849_pow_s02_pow_boat_35_n03344393_3805.png
subject-02,1,850,0.395040988922119,boat,boat,0,0850_pow_s02_0_boat_35_n03662601_12134.png
subject-02,1,851,0.593922853469849,elephant,elephant,0,0851_pow_s02_0_elephant_35_n02504013_6590.png
subject-02,1,852,0.659392118453979,car,car,pow,0852_pow_s02_pow_car_35_n03100240_5456.png
subject-02,1,853,0.482936859130859,truck,truck,0,0853_pow_s02_0_truck_35_n03417042_28773.png
subject-02,1,854,0.65125298500061,bear,bear,pow,0854_pow_s02_pow_bear_35_n02132136_16887.png
subject-02,1,855,0.734094142913818,dog,dog,pow,0855_pow_s02_pow_dog_35_n02086646_3471.png
subject-02,1,856,0.636102914810181,knife,knife,0,0856_pow_s02_0_knife_35_n03041632_17820.png
subject-02,1,857,0.71263599395752,truck,truck,pow,0857_pow_s02_pow_truck_35_n04467665_19081.png
subject-02,1,858,0.764474868774414,cat,cat,0,0858_pow_s02_0_cat_35_n02125311_4805.png
subject-02,1,859,0.509529829025269,truck,truck,0,0859_pow_s02_0_truck_35_n04467665_66065.png
subject-02,1,860,0.615043878555298,airplane,airplane,0,0860_pow_s02_0_airplane_35_n02690373_20350.png
subject-02,1,861,0.583991050720215,oven,oven,pow,0861_pow_s02_pow_oven_35_n04111531_8081.png
subject-02,1,862,0.658359050750732,knife,knife,0,0862_pow_s02_0_knife_35_n03041632_105081.png
subject-02,1,863,0.810724020004272,elephant,elephant,pow,0863_pow_s02_pow_elephant_35_n02504013_22813.png
subject-02,1,864,0.892750024795532,dog,dog,pow,0864_pow_s02_pow_dog_35_n02098286_99.png
subject-02,1,865,0.75341796875,bird,bird,0,0865_pow_s02_0_bird_35_n01795545_3732.png
subject-02,1,866,0.629632949829102,elephant,elephant,0,0866_pow_s02_0_elephant_35_n02504458_155.png
subject-02,1,867,0.554299831390381,cat,cat,pow,0867_pow_s02_pow_cat_35_n02123045_12666.png
subject-02,1,868,0.568558931350708,dog,dog,0,0868_pow_s02_0_dog_35_n02108422_7132.png
subject-02,1,869,0.553122997283936,car,car,0,0869_pow_s02_0_car_35_n04285008_6920.png
subject-02,1,870,0.543529987335205,boat,boat,0,0870_pow_s02_0_boat_35_n04273569_3598.png
subject-02,1,871,0.357867002487183,keyboard,keyboard,pow,0871_pow_s02_pow_keyboard_35_n04505470_3970.png
subject-02,1,872,0.655965805053711,clock,clock,0,0872_pow_s02_0_clock_35_n04548280_2451.png
subject-02,1,873,0.502742052078247,oven,oven,pow,0873_pow_s02_pow_oven_35_n04111531_22493.png
subject-02,1,874,0.525891780853271,bird,bird,0,0874_pow_s02_0_bird_35_n01855672_14591.png
subject-02,1,875,0.667325019836426,elephant,elephant,0,0875_pow_s02_0_elephant_35_n02504013_4159.png
subject-02,1,876,0.468334913253784,keyboard,keyboard,pow,0876_pow_s02_pow_keyboard_35_n04505470_533.png
subject-02,1,877,0.728392124176025,car,car,pow,0877_pow_s02_pow_car_35_n03100240_11445.png
subject-02,1,878,0.718744993209839,clock,clock,pow,0878_pow_s02_pow_clock_35_n02708093_3841.png
subject-02,1,879,0.725414037704468,car,boat,pow,0879_pow_s02_pow_boat_35_n02951358_15203.png
subject-02,1,880,0.678061008453369,dog,cat,pow,0880_pow_s02_pow_cat_35_n02123394_2984.png
subject-02,1,881,0.646232128143311,dog,dog,pow,0881_pow_s02_pow_dog_35_n02086910_15997.png
subject-02,1,882,0.844234943389893,elephant,elephant,pow,0882_pow_s02_pow_elephant_35_n02504458_1328.png
subject-02,1,883,0.588701963424683,keyboard,keyboard,pow,0883_pow_s02_pow_keyboard_35_n04505470_4827.png
subject-02,1,884,0.71189284324646,airplane,airplane,pow,0884_pow_s02_pow_airplane_35_n02690373_4691.png
subject-02,1,885,0.696096181869507,bottle,bottle,0,0885_pow_s02_0_bottle_35_n04591713_4291.png
subject-02,1,886,0.503539085388184,car,car,pow,0886_pow_s02_pow_car_35_n03100240_3286.png
subject-02,1,887,0.504868984222412,bottle,oven,0,0887_pow_s02_0_oven_35_n04111531_14871.png
subject-02,1,888,0.754961013793945,bear,bear,pow,0888_pow_s02_pow_bear_35_n02132136_3740.png
subject-02,1,889,0.571599006652832,bottle,bottle,0,0889_pow_s02_0_bottle_35_n02823428_6084.png
subject-02,1,890,0.738072872161865,keyboard,keyboard,0,0890_pow_s02_0_keyboard_35_n03085013_23109.png
subject-02,1,891,0.943444967269897,elephant,elephant,pow,0891_pow_s02_pow_elephant_35_n02504013_3911.png
subject-02,1,892,0.619776010513306,airplane,airplane,pow,0892_pow_s02_pow_airplane_35_n02690373_2733.png
subject-02,1,893,0.504403114318848,cat,cat,pow,0893_pow_s02_pow_cat_35_n02123045_3486.png
subject-02,1,894,0.611154079437256,keyboard,knife,pow,0894_pow_s02_pow_knife_35_n03041632_2630.png
subject-02,1,895,0.740050077438354,knife,knife,0,0895_pow_s02_0_knife_35_n03041632_26710.png
subject-02,1,896,0.754012823104858,cat,bear,pow,0896_pow_s02_pow_bear_35_n02134418_2502.png
subject-02,1,897,0.523473978042603,cat,cat,0,0897_pow_s02_0_cat_35_n02123597_7933.png
subject-02,1,898,0.54867696762085,keyboard,keyboard,pow,0898_pow_s02_pow_keyboard_35_n04505470_112.png
subject-02,1,899,0.422940015792847,cat,bird,pow,0899_pow_s02_pow_bird_35_n01796340_1901.png
subject-02,1,900,0.507725954055786,car,bear,0,0900_pow_s02_0_bear_35_n02134084_11781.png
subject-02,1,901,0.444291830062866,clock,clock,0,0901_pow_s02_0_clock_35_n02708093_3691.png
subject-02,1,902,0.503808975219727,bottle,bottle,pow,0902_pow_s02_pow_bottle_35_n03983396_9776.png
subject-02,1,903,0.526015043258667,airplane,airplane,pow,0903_pow_s02_pow_airplane_35_n02690373_6887.png
subject-02,1,904,0.946903944015503,bear,bear,pow,0904_pow_s02_pow_bear_35_n02134084_6381.png
subject-02,1,905,0.444621086120605,elephant,elephant,0,0905_pow_s02_0_elephant_35_n02504458_5592.png
subject-02,1,906,0.621113061904907,car,car,pow,0906_pow_s02_pow_car_35_n03100240_12883.png
subject-02,1,907,0.467701196670532,cat,cat,0,0907_pow_s02_0_cat_35_n02123045_10203.png
subject-02,1,908,0.718858957290649,airplane,airplane,0,0908_pow_s02_0_airplane_35_n02690373_9959.png
subject-02,1,909,0.611279010772705,bicycle,bicycle,pow,0909_pow_s02_pow_bicycle_35_n02835271_8694.png
subject-02,1,910,0.341636180877686,cat,cat,pow,0910_pow_s02_pow_cat_35_n02123597_8113.png
subject-02,1,911,0.600075960159302,chair,bear,pow,0911_pow_s02_pow_bear_35_n02134418_1906.png
subject-02,1,912,0.644084930419922,elephant,elephant,pow,0912_pow_s02_pow_elephant_35_n02504013_3857.png
subject-02,1,913,0.421133041381836,bicycle,bicycle,pow,0913_pow_s02_pow_bicycle_35_n03792782_9094.png
subject-02,1,914,0.572997093200684,car,car,pow,0914_pow_s02_pow_car_35_n02814533_28783.png
subject-02,1,915,0.526046991348267,bear,bear,pow,0915_pow_s02_pow_bear_35_n02133161_2880.png
subject-02,1,916,0.777653217315674,keyboard,keyboard,pow,0916_pow_s02_pow_keyboard_35_n03085013_4542.png
subject-02,1,917,0.446566104888916,cat,cat,0,0917_pow_s02_0_cat_35_n02123045_8085.png
subject-02,1,918,0.390942096710205,boat,boat,pow,0918_pow_s02_pow_boat_35_n03662601_32252.png
subject-02,1,919,0.505820035934448,oven,oven,0,0919_pow_s02_0_oven_35_n04111531_4998.png
subject-02,1,920,0.903643846511841,chair,oven,pow,0920_pow_s02_pow_oven_35_n04111531_10583.png
subject-02,1,921,0.809622049331665,airplane,airplane,pow,0921_pow_s02_pow_airplane_35_n02690373_3641.png
subject-02,1,922,0.675973176956177,car,car,pow,0922_pow_s02_pow_car_35_n02814533_62992.png
subject-02,1,923,0.543705940246582,car,car,pow,0923_pow_s02_pow_car_35_n02814533_37285.png
subject-02,1,924,0.57203197479248,boat,boat,0,0924_pow_s02_0_boat_35_n02951358_11401.png
subject-02,1,925,0.665393829345703,elephant,elephant,0,0925_pow_s02_0_elephant_35_n02504458_6.png
subject-02,1,926,0.609171867370605,airplane,airplane,pow,0926_pow_s02_pow_airplane_35_n02690373_4320.png
subject-02,1,927,0.770076990127563,bottle,keyboard,0,0927_pow_s02_0_keyboard_35_n03085013_20704.png
subject-02,1,928,0.392520189285278,cat,cat,pow,0928_pow_s02_pow_cat_35_n02123394_1778.png
subject-02,1,929,0.699082851409912,bird,bird,pow,0929_pow_s02_pow_bird_35_n01855672_13898.png
subject-02,1,930,0.54353404045105,car,car,pow,0930_pow_s02_pow_car_35_n03100240_6311.png
subject-02,1,931,0.557669162750244,chair,chair,0,0931_pow_s02_0_chair_35_n02791124_7156.png
subject-02,1,932,0.626223087310791,bird,bird,0,0932_pow_s02_0_bird_35_n01817953_13813.png
subject-02,1,933,0.399992227554321,cat,cat,pow,0933_pow_s02_pow_cat_35_n02123045_9721.png
subject-02,1,934,0.514815092086792,chair,chair,pow,0934_pow_s02_pow_chair_35_n02791124_6021.png
subject-02,1,935,0.583078861236572,bear,bear,0,0935_pow_s02_0_bear_35_n02133161_546.png
subject-02,1,936,0.652304887771606,airplane,boat,pow,0936_pow_s02_pow_boat_35_n03662601_10278.png
subject-02,1,937,0.720623970031738,truck,truck,0,0937_pow_s02_0_truck_35_n03417042_234.png
subject-02,1,938,0.840965986251831,bear,boat,pow,0938_pow_s02_pow_boat_35_n02951358_9958.png
subject-02,1,939,0.408951997756958,keyboard,keyboard,0,0939_pow_s02_0_keyboard_35_n03085013_8867.png
subject-02,1,940,0.51569390296936,keyboard,keyboard,0,0940_pow_s02_0_keyboard_35_n03085013_22496.png
subject-02,1,941,0.737751960754395,bear,bear,0,0941_pow_s02_0_bear_35_n02134084_15882.png
subject-02,1,942,0.536427021026611,oven,oven,pow,0942_pow_s02_pow_oven_35_n04111531_3905.png
subject-02,1,943,0.443452119827271,cat,cat,0,0943_pow_s02_0_cat_35_n02125311_11797.png
subject-02,1,944,0.574263095855713,clock,clock,pow,0944_pow_s02_pow_clock_35_n04548280_2411.png
subject-02,1,945,0.743167161941528,car,car,0,0945_pow_s02_0_car_35_n03100240_6822.png
subject-02,1,946,0.581901073455811,chair,chair,0,0946_pow_s02_0_chair_35_n02791124_6375.png
subject-02,1,947,0.371915102005005,bottle,bottle,0,0947_pow_s02_0_bottle_35_n03983396_10330.png
subject-02,1,948,0.557089805603027,truck,truck,pow,0948_pow_s02_pow_truck_35_n03417042_2110.png
subject-02,1,949,0.701287031173706,keyboard,keyboard,0,0949_pow_s02_0_keyboard_35_n03085013_21973.png
subject-02,1,950,0.853839874267578,oven,bottle,0,0950_pow_s02_0_bottle_35_n04557648_12225.png
subject-02,1,951,0.409014940261841,clock,clock,0,0951_pow_s02_0_clock_35_n02708093_7998.png
subject-02,1,952,0.39962911605835,bird,bird,pow,0952_pow_s02_pow_bird_35_n01616318_160.png
subject-02,1,953,0.530155897140503,elephant,elephant,pow,0953_pow_s02_pow_elephant_35_n02504013_846.png
subject-02,1,954,0.596122026443481,cat,cat,pow,0954_pow_s02_pow_cat_35_n02123045_11034.png
subject-02,1,955,0.548709154129028,chair,chair,pow,0955_pow_s02_pow_chair_35_n04099969_7653.png
subject-02,1,956,0.732715129852295,oven,oven,0,0956_pow_s02_0_oven_35_n04111531_2923.png
subject-02,1,957,0.569137811660767,chair,chair,pow,0957_pow_s02_pow_chair_35_n03376595_8920.png
subject-02,1,958,0.415744066238403,bear,bear,pow,0958_pow_s02_pow_bear_35_n02134084_666.png
subject-02,1,959,0.406271934509277,cat,cat,pow,0959_pow_s02_pow_cat_35_n02123045_2465.png
subject-02,1,960,0.557770013809204,bear,bear,pow,0960_pow_s02_pow_bear_35_n02132136_8312.png
subject-02,1,961,0.770675897598267,bicycle,bottle,0,0961_pow_s02_0_bottle_35_n03983396_11929.png
subject-02,1,962,0.530399084091187,clock,clock,0,0962_pow_s02_0_clock_35_n03196217_4970.png
subject-02,1,963,0.551176786422729,boat,elephant,pow,0963_pow_s02_pow_elephant_35_n02504458_5941.png
subject-02,1,964,0.781615972518921,elephant,elephant,pow,0964_pow_s02_pow_elephant_35_n02504458_7993.png
subject-02,1,965,0.850509881973267,bicycle,bicycle,0,0965_pow_s02_0_bicycle_35_n02835271_608.png
subject-02,1,966,0.518960952758789,airplane,airplane,0,0966_pow_s02_0_airplane_35_n02690373_3542.png
subject-02,1,967,0.479688882827759,airplane,airplane,0,0967_pow_s02_0_airplane_35_n02690373_2389.png
subject-02,1,968,1.12928986549377,bottle,knife,pow,0968_pow_s02_pow_knife_35_n03041632_15250.png
subject-02,1,969,0.429884910583496,cat,cat,0,0969_pow_s02_0_cat_35_n02124075_924.png
subject-02,1,970,0.696906089782715,airplane,bird,0,0970_pow_s02_0_bird_35_n01796340_6657.png
subject-02,1,971,0.935496091842651,boat,boat,0,0971_pow_s02_0_boat_35_n03344393_2421.png
subject-02,1,972,0.587768077850342,truck,truck,0,0972_pow_s02_0_truck_35_n03796401_9514.png
subject-02,1,973,0.624377012252808,truck,truck,0,0973_pow_s02_0_truck_35_n03417042_7621.png
subject-02,1,974,0.525094985961914,truck,truck,pow,0974_pow_s02_pow_truck_35_n04467665_66535.png
subject-02,1,975,0.685207843780518,bird,bird,pow,0975_pow_s02_pow_bird_35_n02056570_9608.png
subject-02,1,976,0.66038703918457,bottle,bottle,0,0976_pow_s02_0_bottle_35_n04560804_15029.png
subject-02,1,977,0.858867883682251,knife,knife,0,0977_pow_s02_0_knife_35_n03041632_101673.png
subject-02,1,978,0.659721851348877,bottle,bottle,0,0978_pow_s02_0_bottle_35_n02823428_6083.png
subject-02,1,979,0.926136016845703,knife,knife,pow,0979_pow_s02_pow_knife_35_n03041632_7448.png
subject-02,1,980,0.49498987197876,cat,cat,pow,0980_pow_s02_pow_cat_35_n02124075_12815.png
subject-02,1,981,0.587684154510498,airplane,airplane,pow,0981_pow_s02_pow_airplane_35_n02690373_10938.png
subject-02,1,982,0.647485017776489,keyboard,keyboard,0,0982_pow_s02_0_keyboard_35_n03085013_21444.png
subject-02,1,983,0.676664113998413,bottle,bottle,0,0983_pow_s02_0_bottle_35_n03937543_3105.png
subject-02,1,984,0.720387935638428,bicycle,bicycle,0,0984_pow_s02_0_bicycle_35_n02835271_2333.png
subject-02,1,985,0.619185924530029,bear,bear,pow,0985_pow_s02_pow_bear_35_n02132136_24476.png
subject-02,1,986,0.696041822433472,elephant,elephant,0,0986_pow_s02_0_elephant_35_n02504458_150.png
subject-02,1,987,0.51776909828186,dog,dog,0,0987_pow_s02_0_dog_35_n02100236_10615.png
subject-02,1,988,0.616794109344482,bear,bear,0,0988_pow_s02_0_bear_35_n02134418_982.png
subject-02,1,989,0.676352024078369,airplane,airplane,0,0989_pow_s02_0_airplane_35_n02690373_5427.png
subject-02,1,990,0.458688020706177,airplane,boat,0,0990_pow_s02_0_boat_35_n03662601_8709.png
subject-02,1,991,0.734997034072876,truck,truck,pow,0991_pow_s02_pow_truck_35_n03417042_28600.png
subject-02,1,992,0.513864040374756,knife,knife,0,0992_pow_s02_0_knife_35_n03041632_4214.png
subject-02,1,993,0.498605966567993,airplane,airplane,pow,0993_pow_s02_pow_airplane_35_n02690373_2440.png
subject-02,1,994,0.567209959030151,bicycle,bicycle,0,0994_pow_s02_0_bicycle_35_n03792782_14293.png
subject-02,1,995,0.489153861999512,bird,bird,0,0995_pow_s02_0_bird_35_n01843065_3806.png
subject-02,1,996,1.05565404891968,knife,knife,0,0996_pow_s02_0_knife_35_n03041632_94620.png
subject-02,1,997,0.456583023071289,oven,oven,0,0997_pow_s02_0_oven_35_n04111531_11110.png
subject-02,1,998,0.821988105773926,car,car,0,0998_pow_s02_0_car_35_n04285008_12045.png
subject-02,1,999,0.645239114761353,car,car,pow,0999_pow_s02_pow_car_35_n04285008_5838.png
subject-02,1,1000,0.667260885238647,airplane,airplane,0,1000_pow_s02_0_airplane_35_n02690373_9762.png
subject-02,1,1001,0.511009931564331,bear,bear,0,1001_pow_s02_0_bear_35_n02134084_4431.png
subject-02,1,1002,0.585155010223389,boat,boat,pow,1002_pow_s02_pow_boat_35_n02951358_13865.png
subject-02,1,1003,0.439718008041382,keyboard,keyboard,0,1003_pow_s02_0_keyboard_35_n04505470_4651.png
subject-02,1,1004,0.476006031036377,oven,oven,0,1004_pow_s02_0_oven_35_n04111531_18430.png
subject-02,1,1005,0.436148881912231,bear,bear,0,1005_pow_s02_0_bear_35_n02134418_2022.png
subject-02,1,1006,0.842826128005981,oven,knife,pow,1006_pow_s02_pow_knife_35_n03041632_11613.png
subject-02,1,1007,0.574067115783691,bottle,bottle,pow,1007_pow_s02_pow_bottle_35_n03937543_9489.png
subject-02,1,1008,0.626744985580444,truck,truck,pow,1008_pow_s02_pow_truck_35_n03796401_2380.png
subject-02,1,1009,0.662369012832642,dog,dog,0,1009_pow_s02_0_dog_35_n02088364_5352.png
subject-02,1,1010,0.506834030151367,dog,elephant,pow,1010_pow_s02_pow_elephant_35_n02504013_9012.png
subject-02,1,1011,0.406746864318848,chair,chair,0,1011_pow_s02_0_chair_35_n04099969_25322.png
subject-02,1,1012,0.581593990325928,airplane,airplane,0,1012_pow_s02_0_airplane_35_n02690373_3032.png
subject-02,1,1013,0.804176092147827,car,car,pow,1013_pow_s02_pow_car_35_n03100240_17417.png
subject-02,1,1014,0.548936128616333,truck,truck,pow,1014_pow_s02_pow_truck_35_n03796401_29612.png
subject-02,1,1015,1.10199093818665,knife,knife,pow,1015_pow_s02_pow_knife_35_n03041632_25772.png
subject-02,1,1016,0.515577077865601,elephant,elephant,0,1016_pow_s02_0_elephant_35_n02504458_11270.png
subject-02,1,1017,0.600301027297974,elephant,elephant,pow,1017_pow_s02_pow_elephant_35_n02504013_2861.png
subject-02,1,1018,0.520231008529663,oven,oven,pow,1018_pow_s02_pow_oven_35_n04111531_5991.png
subject-02,1,1019,0.443204879760742,bicycle,bicycle,0,1019_pow_s02_0_bicycle_35_n02835271_5825.png
subject-02,1,1020,0.411772012710571,bottle,bottle,0,1020_pow_s02_0_bottle_35_n03983396_6889.png
subject-02,1,1021,0.758944034576416,knife,knife,0,1021_pow_s02_0_knife_35_n03041632_90125.png
subject-02,1,1022,0.649257898330688,cat,cat,0,1022_pow_s02_0_cat_35_n02123597_6582.png
subject-02,1,1023,0.40939998626709,bird,bird,pow,1023_pow_s02_pow_bird_35_n02033041_6493.png
subject-02,1,1024,0.824159860610962,bottle,bottle,0,1024_pow_s02_0_bottle_35_n04557648_1403.png
subject-02,1,1025,0.562458992004395,chair,chair,0,1025_pow_s02_0_chair_35_n02791124_9162.png
subject-02,1,1026,0.799048185348511,bicycle,bicycle,0,1026_pow_s02_0_bicycle_35_n03792782_5086.png
subject-02,1,1027,1.19730091094971,elephant,elephant,0,1027_pow_s02_0_elephant_35_n02504458_7804.png
subject-02,1,1028,0.727643966674805,airplane,airplane,pow,1028_pow_s02_pow_airplane_35_n02690373_764.png
subject-02,1,1029,0.404844045639038,oven,oven,pow,1029_pow_s02_pow_oven_35_n04111531_8046.png
subject-02,1,1030,0.496959924697876,boat,boat,0,1030_pow_s02_0_boat_35_n04612504_22090.png
subject-02,1,1031,0.60369086265564,car,car,pow,1031_pow_s02_pow_car_35_n03100240_3207.png
subject-02,1,1032,0.446437120437622,cat,cat,0,1032_pow_s02_0_cat_35_n02123597_14279.png
subject-02,1,1033,0.812721967697144,oven,oven,pow,1033_pow_s02_pow_oven_35_n04111531_5336.png
subject-02,1,1034,0.672824859619141,bird,bird,0,1034_pow_s02_0_bird_35_n01828970_7.png
subject-02,1,1035,0.841259956359863,car,car,0,1035_pow_s02_0_car_35_n03100240_1471.png
subject-02,1,1036,1.42324614524841,bird,oven,0,1036_pow_s02_0_oven_35_n04111531_19126.png
subject-02,1,1037,0.521292924880981,bicycle,bicycle,0,1037_pow_s02_0_bicycle_35_n03792782_16290.png
subject-02,1,1038,0.413861989974976,oven,truck,0,1038_pow_s02_0_truck_35_n03417042_3280.png
subject-02,1,1039,0.682616949081421,elephant,elephant,0,1039_pow_s02_0_elephant_35_n02504458_6464.png
subject-02,1,1040,0.69739294052124,bird,bird,pow,1040_pow_s02_pow_bird_35_n01514859_257.png
subject-02,1,1041,0.904114961624146,truck,truck,0,1041_pow_s02_0_truck_35_n04467665_37155.png
subject-02,1,1042,0.596081972122192,bicycle,bicycle,pow,1042_pow_s02_pow_bicycle_35_n02835271_14914.png
subject-02,1,1043,0.701059818267822,car,car,pow,1043_pow_s02_pow_car_35_n02814533_39958.png
subject-02,1,1044,0.477261066436768,oven,oven,0,1044_pow_s02_0_oven_35_n04111531_10399.png
subject-02,1,1045,0.575364112854004,bicycle,elephant,pow,1045_pow_s02_pow_elephant_35_n02504458_5641.png
subject-02,1,1046,0.398453950881958,clock,clock,0,1046_pow_s02_0_clock_35_n04548280_5519.png
subject-02,1,1047,0.729159832000732,knife,knife,pow,1047_pow_s02_pow_knife_35_n03041632_8051.png
subject-02,1,1048,0.643662929534912,cat,chair,pow,1048_pow_s02_pow_chair_35_n02791124_4193.png
subject-02,1,1049,0.650175094604492,bottle,bottle,pow,1049_pow_s02_pow_bottle_35_n04591713_3429.png
subject-02,1,1050,0.588937997817993,oven,boat,pow,1050_pow_s02_pow_boat_35_n04612504_9581.png
subject-02,1,1051,0.527506828308105,clock,clock,0,1051_pow_s02_0_clock_35_n04548280_5221.png
subject-02,1,1052,0.656946182250977,bird,dog,pow,1052_pow_s02_pow_dog_35_n02097298_9735.png
subject-02,1,1053,0.725549936294556,bird,bird,0,1053_pow_s02_0_bird_35_n01824575_2746.png
subject-02,1,1054,0.72347092628479,elephant,elephant,0,1054_pow_s02_0_elephant_35_n02504458_2577.png
subject-02,1,1055,0.415549993515015,clock,clock,pow,1055_pow_s02_pow_clock_35_n02708093_8311.png
subject-02,1,1056,0.368149042129517,oven,oven,0,1056_pow_s02_0_oven_35_n04111531_21822.png
subject-02,1,1057,0.482953071594238,airplane,airplane,0,1057_pow_s02_0_airplane_35_n02690373_5204.png
subject-02,1,1058,0.443137884140015,oven,oven,pow,1058_pow_s02_pow_oven_35_n04111531_18052.png
subject-02,1,1059,0.820406913757324,car,truck,0,1059_pow_s02_0_truck_35_n04467665_32937.png
