subj,session,trial,rt,object_response,category,condition,imagename
subject-03,1,1,1.21417284011841,cat,dog,pow,0001_pow_s03_pow_dog_35_n02097298_12109.png
subject-03,1,2,0.90642786026001,chair,chair,pow,0002_pow_s03_pow_chair_35_n03376595_7394.png
subject-03,1,3,0.736892938613892,car,car,0,0003_pow_s03_0_car_35_n03100240_17523.png
subject-03,1,4,0.907723188400269,bird,bird,0,0004_pow_s03_0_bird_35_n01795545_17809.png
subject-03,1,5,0.997843980789185,oven,oven,pow,0005_pow_s03_pow_oven_35_n04111531_5336.png
subject-03,1,6,0.722337961196899,boat,boat,0,0006_pow_s03_0_boat_35_n04612504_22090.png
subject-03,1,7,1.29060196876526,boat,boat,pow,0007_pow_s03_pow_boat_35_n03344393_10001.png
subject-03,1,8,1.01317191123962,airplane,boat,0,0008_pow_s03_0_boat_35_n04273569_39.png
subject-03,1,9,1.21904301643372,bird,oven,0,0009_pow_s03_0_oven_35_n04111531_21382.png
subject-03,1,10,0.957463979721069,dog,dog,pow,0010_pow_s03_pow_dog_35_n02102177_7619.png
subject-03,1,11,0.733703136444092,boat,boat,0,0011_pow_s03_0_boat_35_n04612504_4310.png
subject-03,1,12,NaN,na,bear,0,0012_pow_s03_0_bear_35_n02134418_1174.png
subject-03,1,13,1.04836201667786,bird,boat,pow,0013_pow_s03_pow_boat_35_n03662601_15781.png
subject-03,1,14,0.786569833755493,chair,chair,0,0014_pow_s03_0_chair_35_n03376595_14102.png
subject-03,1,15,1.08484601974487,bird,bird,0,0015_pow_s03_0_bird_35_n02027492_15798.png
subject-03,1,16,1.13930416107178,dog,dog,pow,0016_pow_s03_pow_dog_35_n02091032_1239.png
subject-03,1,17,1.25330209732056,truck,truck,pow,0017_pow_s03_pow_truck_35_n03796401_1055.png
subject-03,1,18,0.845592021942139,cat,cat,0,0018_pow_s03_0_cat_35_n02124075_15230.png
subject-03,1,19,NaN,na,dog,pow,0019_pow_s03_pow_dog_35_n02091831_1232.png
subject-03,1,20,0.781920909881592,bicycle,bicycle,pow,0020_pow_s03_pow_bicycle_35_n02835271_11332.png
subject-03,1,21,0.996284008026123,chair,chair,pow,0021_pow_s03_pow_chair_35_n02791124_422.png
subject-03,1,22,0.940323114395142,cat,cat,0,0022_pow_s03_0_cat_35_n02125311_10094.png
subject-03,1,23,0.748589038848877,airplane,airplane,0,0023_pow_s03_0_airplane_35_n02690373_2092.png
subject-03,1,24,1.15494203567505,oven,bottle,pow,0024_pow_s03_pow_bottle_35_n03937543_2600.png
subject-03,1,25,0.931225061416626,cat,dog,pow,0025_pow_s03_pow_dog_35_n02096294_11328.png
subject-03,1,26,0.79169487953186,clock,keyboard,pow,0026_pow_s03_pow_keyboard_35_n04505470_6601.png
subject-03,1,27,1.06806778907776,keyboard,keyboard,pow,0027_pow_s03_pow_keyboard_35_n04505470_4827.png
subject-03,1,28,1.12255382537842,dog,dog,0,0028_pow_s03_0_dog_35_n02102973_4816.png
subject-03,1,29,0.958981037139893,elephant,elephant,0,0029_pow_s03_0_elephant_35_n02504013_7210.png
subject-03,1,30,0.919061899185181,airplane,airplane,0,0030_pow_s03_0_airplane_35_n02690373_2856.png
subject-03,1,31,1.30355191230774,cat,bird,pow,0031_pow_s03_pow_bird_35_n01818515_7114.png
subject-03,1,32,0.863521814346313,cat,cat,pow,0032_pow_s03_pow_cat_35_n02123597_14791.png
subject-03,1,33,0.964235782623291,cat,dog,pow,0033_pow_s03_pow_dog_35_n02111500_8188.png
subject-03,1,34,0.74079704284668,clock,clock,pow,0034_pow_s03_pow_clock_35_n02708093_3841.png
subject-03,1,35,1.33876895904541,bear,bear,0,0035_pow_s03_0_bear_35_n02132136_9497.png
subject-03,1,36,1.33691310882568,knife,knife,0,0036_pow_s03_0_knife_35_n03041632_17820.png
subject-03,1,37,1.31346297264099,bird,car,pow,0037_pow_s03_pow_car_35_n03100240_18984.png
subject-03,1,38,1.15178799629211,elephant,elephant,0,0038_pow_s03_0_elephant_35_n02504458_10661.png
subject-03,1,39,1.18216013908386,chair,chair,0,0039_pow_s03_0_chair_35_n04429376_3820.png
subject-03,1,40,1.19643592834473,airplane,airplane,0,0040_pow_s03_0_airplane_35_n02690373_8069.png
subject-03,1,41,1.17274117469788,airplane,airplane,pow,0041_pow_s03_pow_airplane_35_n02690373_1773.png
subject-03,1,42,1.05719900131226,cat,cat,pow,0042_pow_s03_pow_cat_35_n02123045_909.png
subject-03,1,43,1.24130487442017,keyboard,oven,0,0043_pow_s03_0_oven_35_n04111531_12942.png
subject-03,1,44,1.50043392181396,dog,elephant,pow,0044_pow_s03_pow_elephant_35_n02504013_3911.png
subject-03,1,45,0.786579847335815,cat,cat,0,0045_pow_s03_0_cat_35_n02123597_386.png
subject-03,1,46,1.16875505447388,oven,boat,pow,0046_pow_s03_pow_boat_35_n03662601_1834.png
subject-03,1,47,1.50014901161194,oven,bicycle,pow,0047_pow_s03_pow_bicycle_35_n02835271_13489.png
subject-03,1,48,1.44883513450623,bicycle,boat,0,0048_pow_s03_0_boat_35_n03344393_1657.png
subject-03,1,49,1.24712705612183,oven,truck,0,0049_pow_s03_0_truck_35_n03417042_5458.png
subject-03,1,50,1.06144404411316,bottle,bottle,0,0050_pow_s03_0_bottle_35_n03983396_2115.png
subject-03,1,51,1.46191310882568,bottle,knife,pow,0051_pow_s03_pow_knife_35_n03041632_93026.png
subject-03,1,52,1.0227198600769,bird,bird,0,0052_pow_s03_0_bird_35_n01592084_3028.png
subject-03,1,53,0.869138956069946,airplane,airplane,0,0053_pow_s03_0_airplane_35_n02690373_3956.png
subject-03,1,54,1.07579898834229,cat,cat,0,0054_pow_s03_0_cat_35_n02124075_379.png
subject-03,1,55,0.776509046554565,cat,keyboard,pow,0055_pow_s03_pow_keyboard_35_n03085013_21004.png
subject-03,1,56,NaN,na,bear,0,0056_pow_s03_0_bear_35_n02132136_10841.png
subject-03,1,57,NaN,na,bird,0,0057_pow_s03_0_bird_35_n02006656_3422.png
subject-03,1,58,0.618858098983765,clock,clock,pow,0058_pow_s03_pow_clock_35_n02708093_1701.png
subject-03,1,59,0.970934152603149,cat,dog,pow,0059_pow_s03_pow_dog_35_n02091244_6439.png
subject-03,1,60,0.855047941207886,bear,bear,pow,0060_pow_s03_pow_bear_35_n02132136_8118.png
subject-03,1,61,1.25374412536621,oven,boat,pow,0061_pow_s03_pow_boat_35_n03662601_16276.png
subject-03,1,62,0.822239875793457,car,car,pow,0062_pow_s03_pow_car_35_n03100240_21377.png
subject-03,1,63,1.0824658870697,chair,oven,0,0063_pow_s03_0_oven_35_n04111531_21869.png
subject-03,1,64,1.37528705596924,dog,bear,pow,0064_pow_s03_pow_bear_35_n02134418_2231.png
subject-03,1,65,1.23525905609131,knife,knife,0,0065_pow_s03_0_knife_35_n03041632_21017.png
subject-03,1,66,1.08744788169861,cat,bicycle,pow,0066_pow_s03_pow_bicycle_35_n02835271_12852.png
subject-03,1,67,0.926048994064331,car,car,0,0067_pow_s03_0_car_35_n02814533_27150.png
subject-03,1,68,1.29450297355652,dog,bear,pow,0068_pow_s03_pow_bear_35_n02134418_1019.png
subject-03,1,69,1.04643702507019,airplane,airplane,pow,0069_pow_s03_pow_airplane_35_n02690373_2059.png
subject-03,1,70,0.806571960449219,cat,chair,pow,0070_pow_s03_pow_chair_35_n04099969_14958.png
subject-03,1,71,0.815223932266235,car,car,0,0071_pow_s03_0_car_35_n03100240_21334.png
subject-03,1,72,0.975035190582275,clock,clock,0,0072_pow_s03_0_clock_35_n04548280_6922.png
subject-03,1,73,1.14292597770691,knife,knife,0,0073_pow_s03_0_knife_35_n03041632_23968.png
subject-03,1,74,0.965726137161255,boat,boat,0,0074_pow_s03_0_boat_35_n03662601_12134.png
subject-03,1,75,0.793857097625732,oven,clock,pow,0075_pow_s03_pow_clock_35_n03196217_2246.png
subject-03,1,76,0.74036693572998,cat,bicycle,pow,0076_pow_s03_pow_bicycle_35_n03792782_4076.png
subject-03,1,77,1.50026607513428,bird,bird,pow,0077_pow_s03_pow_bird_35_n01824575_906.png
subject-03,1,78,0.930592060089111,knife,bottle,0,0078_pow_s03_0_bottle_35_n04591713_2070.png
subject-03,1,79,1.18243789672852,airplane,airplane,0,0079_pow_s03_0_airplane_35_n02690373_3775.png
subject-03,1,80,1.3806779384613,keyboard,keyboard,0,0080_pow_s03_0_keyboard_35_n03085013_6610.png
subject-03,1,81,1.24646687507629,knife,knife,0,0081_pow_s03_0_knife_35_n03041632_7090.png
subject-03,1,82,0.708795070648193,car,car,0,0082_pow_s03_0_car_35_n04285008_10462.png
subject-03,1,83,1.08287906646729,bicycle,bicycle,pow,0083_pow_s03_pow_bicycle_35_n03792782_798.png
subject-03,1,84,1.33716106414795,bear,bear,pow,0084_pow_s03_pow_bear_35_n02132136_4817.png
subject-03,1,85,0.967646837234497,cat,bicycle,pow,0085_pow_s03_pow_bicycle_35_n03792782_18830.png
subject-03,1,86,1.2037570476532,truck,oven,pow,0086_pow_s03_pow_oven_35_n04111531_10339.png
subject-03,1,87,1.00151300430298,car,car,0,0087_pow_s03_0_car_35_n03100240_8588.png
subject-03,1,88,1.13187217712402,oven,clock,pow,0088_pow_s03_pow_clock_35_n03196217_4434.png
subject-03,1,89,1.09253191947937,bear,bear,pow,0089_pow_s03_pow_bear_35_n02134084_6799.png
subject-03,1,90,1.02243685722351,oven,chair,pow,0090_pow_s03_pow_chair_35_n04429376_13678.png
subject-03,1,91,0.822914123535156,cat,bottle,pow,0091_pow_s03_pow_bottle_35_n03983396_9614.png
subject-03,1,92,0.975289106369019,clock,clock,pow,0092_pow_s03_pow_clock_35_n02708093_2469.png
subject-03,1,93,0.859357118606567,chair,chair,pow,0093_pow_s03_pow_chair_35_n04099969_2335.png
subject-03,1,94,0.987568140029907,car,car,pow,0094_pow_s03_pow_car_35_n03100240_8187.png
subject-03,1,95,0.971760034561157,keyboard,keyboard,0,0095_pow_s03_0_keyboard_35_n04505470_5047.png
subject-03,1,96,1.46233320236206,keyboard,keyboard,0,0096_pow_s03_0_keyboard_35_n04505470_4621.png
subject-03,1,97,0.80302095413208,clock,clock,0,0097_pow_s03_0_clock_35_n02708093_6216.png
subject-03,1,98,0.917398929595947,car,car,0,0098_pow_s03_0_car_35_n02814533_46997.png
subject-03,1,99,0.969790935516357,bird,bird,0,0099_pow_s03_0_bird_35_n01843383_2172.png
subject-03,1,100,1.43479299545288,elephant,bear,pow,0100_pow_s03_pow_bear_35_n02134418_551.png
subject-03,1,101,1.32532501220703,dog,dog,0,0101_pow_s03_0_dog_35_n02099712_5839.png
subject-03,1,102,0.968700885772705,cat,airplane,pow,0102_pow_s03_pow_airplane_35_n02690373_2155.png
subject-03,1,103,1.27482509613037,elephant,bear,pow,0103_pow_s03_pow_bear_35_n02133161_14204.png
subject-03,1,104,1.50023484230042,cat,cat,pow,0104_pow_s03_pow_cat_35_n02123394_8250.png
subject-03,1,105,0.82706093788147,airplane,airplane,0,0105_pow_s03_0_airplane_35_n02690373_4183.png
subject-03,1,106,1.04171991348267,truck,truck,0,0106_pow_s03_0_truck_35_n03417042_7621.png
subject-03,1,107,1.02379679679871,bird,clock,pow,0107_pow_s03_pow_clock_35_n03196217_6375.png
subject-03,1,108,1.12400603294373,chair,chair,0,0108_pow_s03_0_chair_35_n03376595_10021.png
subject-03,1,109,0.792703151702881,airplane,airplane,pow,0109_pow_s03_pow_airplane_35_n02690373_2525.png
subject-03,1,110,1.1290340423584,airplane,airplane,0,0110_pow_s03_0_airplane_35_n02690373_5204.png
subject-03,1,111,1.01386189460754,airplane,airplane,pow,0111_pow_s03_pow_airplane_35_n02690373_6914.png
subject-03,1,112,0.751495838165283,bottle,bottle,0,0112_pow_s03_0_bottle_35_n04560804_9899.png
subject-03,1,113,1.12002301216125,keyboard,oven,pow,0113_pow_s03_pow_oven_35_n04111531_6783.png
subject-03,1,114,1.41837096214294,keyboard,bird,pow,0114_pow_s03_pow_bird_35_n02009912_24704.png
subject-03,1,115,1.03266000747681,cat,knife,pow,0115_pow_s03_pow_knife_35_n03041632_86338.png
subject-03,1,116,0.987066030502319,bird,boat,pow,0116_pow_s03_pow_boat_35_n02951358_13276.png
subject-03,1,117,0.75566291809082,clock,clock,0,0117_pow_s03_0_clock_35_n03196217_71.png
subject-03,1,118,0.870234966278076,oven,oven,pow,0118_pow_s03_pow_oven_35_n04111531_5756.png
subject-03,1,119,0.768550157546997,bottle,bottle,0,0119_pow_s03_0_bottle_35_n03983396_2130.png
subject-03,1,120,0.806790113449097,cat,dog,0,0120_pow_s03_0_dog_35_n02086079_22925.png
subject-03,1,121,1.01266193389893,dog,dog,pow,0121_pow_s03_pow_dog_35_n02090379_5471.png
subject-03,1,122,1.04870390892029,dog,dog,0,0122_pow_s03_0_dog_35_n02112350_1819.png
subject-03,1,123,0.573286056518555,cat,keyboard,0,0123_pow_s03_0_keyboard_35_n03085013_23295.png
subject-03,1,124,1.01789307594299,keyboard,keyboard,pow,0124_pow_s03_pow_keyboard_35_n04505470_4534.png
subject-03,1,125,1.04029297828674,oven,chair,0,0125_pow_s03_0_chair_35_n03376595_7835.png
subject-03,1,126,0.992706060409546,dog,dog,0,0126_pow_s03_0_dog_35_n02108551_25538.png
subject-03,1,127,0.944582939147949,truck,truck,pow,0127_pow_s03_pow_truck_35_n04467665_4401.png
subject-03,1,128,1.00487494468689,dog,dog,0,0128_pow_s03_0_dog_35_n02107574_5063.png
subject-03,1,129,1.00746011734009,airplane,airplane,0,0129_pow_s03_0_airplane_35_n02690373_7499.png
subject-03,1,130,1.05369901657104,truck,truck,0,0130_pow_s03_0_truck_35_n03796401_15942.png
subject-03,1,131,NaN,na,bear,0,0131_pow_s03_0_bear_35_n02133161_14423.png
subject-03,1,132,0.720800161361694,bottle,bottle,0,0132_pow_s03_0_bottle_35_n04579145_4807.png
subject-03,1,133,1.5000479221344,cat,elephant,pow,0133_pow_s03_pow_elephant_35_n02504458_5641.png
subject-03,1,134,0.941627979278564,bicycle,bicycle,pow,0134_pow_s03_pow_bicycle_35_n03792782_11625.png
subject-03,1,135,1.17011094093323,bottle,bottle,pow,0135_pow_s03_pow_bottle_35_n03937543_8250.png
subject-03,1,136,1.46825003623962,cat,cat,pow,0136_pow_s03_pow_cat_35_n02123045_2465.png
subject-03,1,137,0.914505004882812,airplane,airplane,pow,0137_pow_s03_pow_airplane_35_n02690373_17063.png
subject-03,1,138,0.860888957977295,oven,keyboard,pow,0138_pow_s03_pow_keyboard_35_n03085013_19096.png
subject-03,1,139,0.697319030761719,clock,clock,0,0139_pow_s03_0_clock_35_n04548280_18914.png
subject-03,1,140,0.857372045516968,bicycle,bicycle,pow,0140_pow_s03_pow_bicycle_35_n03792782_21832.png
subject-03,1,141,0.979324102401733,car,car,0,0141_pow_s03_0_car_35_n03100240_2640.png
subject-03,1,142,0.901685953140259,airplane,airplane,pow,0142_pow_s03_pow_airplane_35_n02690373_10228.png
subject-03,1,143,0.891778945922852,truck,truck,0,0143_pow_s03_0_truck_35_n04467665_48928.png
subject-03,1,144,0.997133016586304,bird,bird,0,0144_pow_s03_0_bird_35_n01531178_46670.png
subject-03,1,145,1.12538194656372,chair,chair,0,0145_pow_s03_0_chair_35_n02791124_15873.png
subject-03,1,146,0.87761402130127,bear,elephant,pow,0146_pow_s03_pow_elephant_35_n02504013_2609.png
subject-03,1,147,1.39166188240051,keyboard,keyboard,pow,0147_pow_s03_pow_keyboard_35_n04505470_4978.png
subject-03,1,148,1.08217000961304,chair,chair,pow,0148_pow_s03_pow_chair_35_n02791124_3121.png
subject-03,1,149,1.26640486717224,bird,bottle,pow,0149_pow_s03_pow_bottle_35_n04591713_779.png
subject-03,1,150,1.17296195030212,chair,chair,pow,0150_pow_s03_pow_chair_35_n04099969_7653.png
subject-03,1,151,0.611463785171509,boat,boat,0,0151_pow_s03_0_boat_35_n04612504_3657.png
subject-03,1,152,0.779787063598633,airplane,airplane,0,0152_pow_s03_0_airplane_35_n02690373_4061.png
subject-03,1,153,1.14816808700562,bicycle,bicycle,pow,0153_pow_s03_pow_bicycle_35_n03792782_126.png
subject-03,1,154,1.22452592849731,bicycle,bicycle,0,0154_pow_s03_0_bicycle_35_n03792782_4474.png
subject-03,1,155,1.09295701980591,chair,oven,0,0155_pow_s03_0_oven_35_n04111531_7667.png
subject-03,1,156,0.877692937850952,bird,bird,pow,0156_pow_s03_pow_bird_35_n02028035_4053.png
subject-03,1,157,0.843760013580322,keyboard,keyboard,0,0157_pow_s03_0_keyboard_35_n04505470_5161.png
subject-03,1,158,1.06646513938904,bird,dog,pow,0158_pow_s03_pow_dog_35_n02099849_1759.png
subject-03,1,159,1.39628005027771,car,car,0,0159_pow_s03_0_car_35_n02814533_45050.png
subject-03,1,160,1.0485508441925,oven,boat,pow,0160_pow_s03_pow_boat_35_n02951358_15309.png
subject-03,1,161,1.12430095672607,dog,dog,0,0161_pow_s03_0_dog_35_n02102040_4272.png
subject-03,1,162,0.778118133544922,elephant,elephant,0,0162_pow_s03_0_elephant_35_n02504458_4954.png
subject-03,1,163,1.02290415763855,cat,cat,pow,0163_pow_s03_pow_cat_35_n02125311_2570.png
subject-03,1,164,0.583378791809082,chair,chair,0,0164_pow_s03_0_chair_35_n02791124_16264.png
subject-03,1,165,1.12767195701599,cat,bird,pow,0165_pow_s03_pow_bird_35_n02018207_3074.png
subject-03,1,166,0.797929048538208,elephant,elephant,pow,0166_pow_s03_pow_elephant_35_n02504458_1410.png
subject-03,1,167,1.0180721282959,elephant,elephant,0,0167_pow_s03_0_elephant_35_n02504458_3491.png
subject-03,1,168,1.02403092384338,bird,chair,pow,0168_pow_s03_pow_chair_35_n02791124_1229.png
subject-03,1,169,0.808171987533569,airplane,airplane,0,0169_pow_s03_0_airplane_35_n02690373_20350.png
subject-03,1,170,1.12881088256836,bicycle,bicycle,pow,0170_pow_s03_pow_bicycle_35_n02835271_22623.png
subject-03,1,171,1.32128119468689,bird,bear,pow,0171_pow_s03_pow_bear_35_n02134418_3267.png
subject-03,1,172,1.18984293937683,bottle,bottle,pow,0172_pow_s03_pow_bottle_35_n02823428_13048.png
subject-03,1,173,1.01851415634155,oven,oven,pow,0173_pow_s03_pow_oven_35_n04111531_21963.png
subject-03,1,174,0.994639158248901,bottle,bottle,0,0174_pow_s03_0_bottle_35_n04591713_2180.png
subject-03,1,175,1.02167296409607,cat,bicycle,0,0175_pow_s03_0_bicycle_35_n02835271_269.png
subject-03,1,176,0.92795205116272,car,car,pow,0176_pow_s03_pow_car_35_n04285008_12794.png
subject-03,1,177,0.734624862670898,keyboard,keyboard,0,0177_pow_s03_0_keyboard_35_n03085013_19051.png
subject-03,1,178,1.19937705993652,cat,oven,pow,0178_pow_s03_pow_oven_35_n04111531_9208.png
subject-03,1,179,1.19974207878113,elephant,elephant,0,0179_pow_s03_0_elephant_35_n02504013_22508.png
subject-03,1,180,0.914210081100464,cat,dog,0,0180_pow_s03_0_dog_35_n02113624_724.png
subject-03,1,181,1.08898687362671,boat,elephant,0,0181_pow_s03_0_elephant_35_n02504458_2709.png
subject-03,1,182,0.965235948562622,cat,dog,pow,0182_pow_s03_pow_dog_35_n02108422_2911.png
subject-03,1,183,0.971011877059937,cat,bear,0,0183_pow_s03_0_bear_35_n02134418_1218.png
subject-03,1,184,0.717851877212524,bicycle,bicycle,0,0184_pow_s03_0_bicycle_35_n02835271_2580.png
subject-03,1,185,1.13759088516235,bird,chair,pow,0185_pow_s03_pow_chair_35_n02791124_6021.png
subject-03,1,186,0.743636131286621,keyboard,keyboard,pow,0186_pow_s03_pow_keyboard_35_n03085013_21082.png
subject-03,1,187,1.39590787887573,airplane,airplane,0,0187_pow_s03_0_airplane_35_n02690373_6854.png
subject-03,1,188,1.07788920402527,dog,dog,pow,0188_pow_s03_pow_dog_35_n02106166_12520.png
subject-03,1,189,1.11636900901794,airplane,airplane,pow,0189_pow_s03_pow_airplane_35_n02690373_6887.png
subject-03,1,190,1.36878395080566,bicycle,bicycle,0,0190_pow_s03_0_bicycle_35_n03792782_13230.png
subject-03,1,191,1.02971601486206,boat,boat,0,0191_pow_s03_0_boat_35_n03662601_19488.png
subject-03,1,192,1.33612895011902,car,car,0,0192_pow_s03_0_car_35_n02814533_79224.png
subject-03,1,193,0.750377893447876,airplane,airplane,0,0193_pow_s03_0_airplane_35_n02690373_5010.png
subject-03,1,194,1.06518292427063,bird,bird,0,0194_pow_s03_0_bird_35_n02017213_52.png
subject-03,1,195,1.4316201210022,bottle,knife,0,0195_pow_s03_0_knife_35_n03041632_22964.png
subject-03,1,196,0.847755908966064,bottle,bottle,pow,0196_pow_s03_pow_bottle_35_n02823428_8752.png
subject-03,1,197,1.33046507835388,bear,bear,pow,0197_pow_s03_pow_bear_35_n02134084_6186.png
subject-03,1,198,1.06876802444458,bird,boat,pow,0198_pow_s03_pow_boat_35_n03344393_1637.png
subject-03,1,199,0.988802909851074,chair,chair,pow,0199_pow_s03_pow_chair_35_n04099969_8873.png
subject-03,1,200,0.918823003768921,bottle,bottle,0,0200_pow_s03_0_bottle_35_n03983396_10174.png
subject-03,1,201,1.0575430393219,bird,bird,0,0201_pow_s03_0_bird_35_n01601694_10669.png
subject-03,1,202,0.863954067230225,airplane,airplane,0,0202_pow_s03_0_airplane_35_n02690373_19152.png
subject-03,1,203,1.00051307678223,bird,bicycle,pow,0203_pow_s03_pow_bicycle_35_n03792782_3253.png
subject-03,1,204,1.10650610923767,bird,bird,pow,0204_pow_s03_pow_bird_35_n01534433_14250.png
subject-03,1,205,1.35091209411621,bottle,bottle,pow,0205_pow_s03_pow_bottle_35_n03937543_3233.png
subject-03,1,206,1.38108205795288,knife,keyboard,pow,0206_pow_s03_pow_keyboard_35_n03085013_19585.png
subject-03,1,207,0.91159987449646,oven,oven,pow,0207_pow_s03_pow_oven_35_n04111531_2260.png
subject-03,1,208,0.794082164764404,bicycle,bicycle,0,0208_pow_s03_0_bicycle_35_n03792782_14931.png
subject-03,1,209,1.23272800445557,oven,clock,0,0209_pow_s03_0_clock_35_n03196217_5636.png
subject-03,1,210,0.784673929214478,cat,dog,0,0210_pow_s03_0_dog_35_n02106382_2370.png
subject-03,1,211,0.64497709274292,bottle,bottle,0,0211_pow_s03_0_bottle_35_n02823428_6083.png
subject-03,1,212,1.22768306732178,truck,truck,pow,0212_pow_s03_pow_truck_35_n03417042_7544.png
subject-03,1,213,1.21791005134583,oven,oven,0,0213_pow_s03_0_oven_35_n04111531_12053.png
subject-03,1,214,1.46272087097168,boat,chair,pow,0214_pow_s03_pow_chair_35_n02791124_2713.png
subject-03,1,215,0.86275315284729,bird,bird,0,0215_pow_s03_0_bird_35_n01592084_6017.png
subject-03,1,216,0.807054042816162,car,car,0,0216_pow_s03_0_car_35_n03100240_8483.png
subject-03,1,217,0.983482122421265,chair,chair,0,0217_pow_s03_0_chair_35_n02791124_3817.png
subject-03,1,218,0.789324998855591,bird,bird,pow,0218_pow_s03_pow_bird_35_n01829413_673.png
subject-03,1,219,1.37778806686401,keyboard,keyboard,pow,0219_pow_s03_pow_keyboard_35_n03085013_12399.png
subject-03,1,220,0.89191198348999,boat,boat,0,0220_pow_s03_0_boat_35_n04273569_3460.png
subject-03,1,221,1.26608109474182,chair,knife,0,0221_pow_s03_0_knife_35_n03041632_94620.png
subject-03,1,222,1.45054483413696,keyboard,oven,0,0222_pow_s03_0_oven_35_n04111531_3477.png
subject-03,1,223,1.16472816467285,bottle,bottle,0,0223_pow_s03_0_bottle_35_n03937543_10215.png
subject-03,1,224,0.670934915542603,cat,cat,0,0224_pow_s03_0_cat_35_n02123159_4265.png
subject-03,1,225,1.04570508003235,keyboard,keyboard,pow,0225_pow_s03_pow_keyboard_35_n04505470_2792.png
subject-03,1,226,1.11395597457886,dog,dog,0,0226_pow_s03_0_dog_35_n02096585_8775.png
subject-03,1,227,1.47227191925049,bird,bird,0,0227_pow_s03_0_bird_35_n01560419_7814.png
subject-03,1,228,NaN,na,chair,0,0228_pow_s03_0_chair_35_n03376595_6800.png
subject-03,1,229,1.14702200889587,car,car,0,0229_pow_s03_0_car_35_n03100240_1879.png
subject-03,1,230,0.836874961853027,cat,cat,0,0230_pow_s03_0_cat_35_n02123159_820.png
subject-03,1,231,1.50003886222839,truck,truck,0,0231_pow_s03_0_truck_35_n04467665_4593.png
subject-03,1,232,1.07372498512268,boat,boat,0,0232_pow_s03_0_boat_35_n04273569_5498.png
subject-03,1,233,1.40171098709106,dog,bear,pow,0233_pow_s03_pow_bear_35_n02134084_666.png
subject-03,1,234,1.03239607810974,chair,chair,0,0234_pow_s03_0_chair_35_n02791124_6375.png
subject-03,1,235,0.998749971389771,truck,truck,0,0235_pow_s03_0_truck_35_n04467665_33086.png
subject-03,1,236,0.983045101165771,bicycle,bicycle,0,0236_pow_s03_0_bicycle_35_n02835271_1573.png
subject-03,1,237,1.04947280883789,bird,bird,0,0237_pow_s03_0_bird_35_n02013706_1964.png
subject-03,1,238,1.50032997131348,bear,clock,pow,0238_pow_s03_pow_clock_35_n04548280_7662.png
subject-03,1,239,1.19243407249451,bird,bear,0,0239_pow_s03_0_bear_35_n02134084_17529.png
subject-03,1,240,1.16081094741821,airplane,airplane,pow,0240_pow_s03_pow_airplane_35_n02690373_4358.png
subject-03,1,241,1.12671589851379,keyboard,keyboard,0,0241_pow_s03_0_keyboard_35_n03085013_1808.png
subject-03,1,242,1.1411030292511,bottle,oven,0,0242_pow_s03_0_oven_35_n04111531_6536.png
subject-03,1,243,0.99366021156311,bird,oven,pow,0243_pow_s03_pow_oven_35_n04111531_1818.png
subject-03,1,244,0.645124912261963,clock,clock,0,0244_pow_s03_0_clock_35_n04548280_5629.png
subject-03,1,245,0.94331693649292,cat,cat,pow,0245_pow_s03_pow_cat_35_n02124075_13747.png
subject-03,1,246,0.955804824829102,bird,bird,pow,0246_pow_s03_pow_bird_35_n01616318_52364.png
subject-03,1,247,0.732440948486328,keyboard,keyboard,pow,0247_pow_s03_pow_keyboard_35_n03085013_24455.png
subject-03,1,248,0.952898979187012,bear,bear,pow,0248_pow_s03_pow_bear_35_n02132136_4021.png
subject-03,1,249,1.45151901245117,elephant,bottle,pow,0249_pow_s03_pow_bottle_35_n04557648_5475.png
subject-03,1,250,0.873748779296875,chair,chair,0,0250_pow_s03_0_chair_35_n02791124_7156.png
subject-03,1,251,1.36369395256042,cat,cat,pow,0251_pow_s03_pow_cat_35_n02125311_8172.png
subject-03,1,252,0.640136957168579,cat,cat,pow,0252_pow_s03_pow_cat_35_n02124075_1059.png
subject-03,1,253,1.50012493133545,keyboard,keyboard,0,0253_pow_s03_0_keyboard_35_n03085013_3755.png
subject-03,1,254,1.03722715377808,bottle,bottle,pow,0254_pow_s03_pow_bottle_35_n03983396_5611.png
subject-03,1,255,1.26565790176392,chair,oven,0,0255_pow_s03_0_oven_35_n04111531_283.png
subject-03,1,256,0.872200012207031,bird,bird,pow,0256_pow_s03_pow_bird_35_n01796340_4885.png
subject-03,1,257,1.3928530216217,dog,dog,pow,0257_pow_s03_pow_dog_35_n02098286_3278.png
subject-03,1,258,1.23134207725525,dog,dog,0,0258_pow_s03_0_dog_35_n02099601_5470.png
subject-03,1,259,0.934466123580933,clock,clock,pow,0259_pow_s03_pow_clock_35_n02708093_2482.png
subject-03,1,260,1.05717706680298,clock,clock,pow,0260_pow_s03_pow_clock_35_n03196217_2239.png
subject-03,1,261,1.35568499565125,keyboard,boat,pow,0261_pow_s03_pow_boat_35_n03662601_10278.png
subject-03,1,262,1.19970083236694,elephant,elephant,0,0262_pow_s03_0_elephant_35_n02504458_6218.png
subject-03,1,263,1.06612491607666,elephant,elephant,0,0263_pow_s03_0_elephant_35_n02504458_1404.png
subject-03,1,264,1.37834906578064,chair,bear,0,0264_pow_s03_0_bear_35_n02134418_650.png
subject-03,1,265,1.41446590423584,boat,truck,pow,0265_pow_s03_pow_truck_35_n03417042_7444.png
subject-03,1,266,0.907104969024658,chair,chair,0,0266_pow_s03_0_chair_35_n04099969_25322.png
subject-03,1,267,1.1730968952179,bird,bird,0,0267_pow_s03_0_bird_35_n01531178_1390.png
subject-03,1,268,1.31730508804321,cat,oven,pow,0268_pow_s03_pow_oven_35_n04111531_7076.png
subject-03,1,269,1.05568909645081,cat,cat,0,0269_pow_s03_0_cat_35_n02123045_16528.png
subject-03,1,270,0.846288204193115,airplane,airplane,pow,0270_pow_s03_pow_airplane_35_n02690373_8304.png
subject-03,1,271,0.928844928741455,bird,bird,0,0271_pow_s03_0_bird_35_n01843065_1566.png
subject-03,1,272,1.37294697761536,cat,boat,pow,0272_pow_s03_pow_boat_35_n02951358_12866.png
subject-03,1,273,0.595135927200317,clock,clock,0,0273_pow_s03_0_clock_35_n04548280_8474.png
subject-03,1,274,1.18602299690247,bird,oven,0,0274_pow_s03_0_oven_35_n04111531_7878.png
subject-03,1,275,0.921596050262451,chair,chair,pow,0275_pow_s03_pow_chair_35_n04099969_14056.png
subject-03,1,276,1.2639479637146,bird,bicycle,pow,0276_pow_s03_pow_bicycle_35_n03792782_8080.png
subject-03,1,277,1.15650200843811,chair,dog,0,0277_pow_s03_0_dog_35_n02097209_5899.png
subject-03,1,278,0.931047916412354,clock,clock,0,0278_pow_s03_0_clock_35_n04548280_15154.png
subject-03,1,279,0.891000032424927,bird,bear,pow,0279_pow_s03_pow_bear_35_n02133161_5064.png
subject-03,1,280,0.743494033813477,boat,boat,pow,0280_pow_s03_pow_boat_35_n03344393_3247.png
subject-03,1,281,0.671303033828735,clock,clock,0,0281_pow_s03_0_clock_35_n02708093_1917.png
subject-03,1,282,1.26757502555847,cat,bird,pow,0282_pow_s03_pow_bird_35_n02009229_700.png
subject-03,1,283,0.967948198318481,elephant,bird,pow,0283_pow_s03_pow_bird_35_n02009912_29487.png
subject-03,1,284,NaN,na,knife,pow,0284_pow_s03_pow_knife_35_n03041632_33198.png
subject-03,1,285,1.14022493362427,dog,dog,pow,0285_pow_s03_pow_dog_35_n02112350_4203.png
subject-03,1,286,1.36891102790833,cat,knife,pow,0286_pow_s03_pow_knife_35_n03041632_24798.png
subject-03,1,287,1.09163308143616,car,truck,pow,0287_pow_s03_pow_truck_35_n03796401_10366.png
subject-03,1,288,1.50017786026001,bear,bear,pow,0288_pow_s03_pow_bear_35_n02133161_10018.png
subject-03,1,289,1.47853398323059,dog,bicycle,pow,0289_pow_s03_pow_bicycle_35_n03792782_20190.png
subject-03,1,290,1.50016784667969,keyboard,keyboard,0,0290_pow_s03_0_keyboard_35_n03085013_23109.png
subject-03,1,291,1.12869596481323,bear,bird,pow,0291_pow_s03_pow_bird_35_n01532829_3914.png
subject-03,1,292,0.675189971923828,cat,oven,pow,0292_pow_s03_pow_oven_35_n04111531_4944.png
subject-03,1,293,1.3011839389801,keyboard,keyboard,pow,0293_pow_s03_pow_keyboard_35_n04505470_4569.png
subject-03,1,294,1.00809597969055,car,car,0,0294_pow_s03_0_car_35_n02814533_9785.png
subject-03,1,295,0.852169036865234,cat,keyboard,pow,0295_pow_s03_pow_keyboard_35_n03085013_7009.png
subject-03,1,296,1.06682300567627,chair,bicycle,pow,0296_pow_s03_pow_bicycle_35_n02835271_5751.png
subject-03,1,297,0.765190124511719,cat,cat,0,0297_pow_s03_0_cat_35_n02124075_700.png
subject-03,1,298,0.647023916244507,clock,clock,0,0298_pow_s03_0_clock_35_n04548280_11597.png
subject-03,1,299,1.15348792076111,bird,elephant,pow,0299_pow_s03_pow_elephant_35_n02504013_6141.png
subject-03,1,300,1.0821099281311,cat,cat,pow,0300_pow_s03_pow_cat_35_n02123159_1501.png
subject-03,1,301,0.896533012390137,oven,truck,pow,0301_pow_s03_pow_truck_35_n03417042_3288.png
subject-03,1,302,1.12512397766113,bicycle,bicycle,pow,0302_pow_s03_pow_bicycle_35_n03792782_16408.png
subject-03,1,303,0.83942699432373,truck,truck,0,0303_pow_s03_0_truck_35_n04467665_12177.png
subject-03,1,304,1.05997586250305,bird,bird,0,0304_pow_s03_0_bird_35_n01592084_553.png
subject-03,1,305,0.866651058197021,oven,oven,pow,0305_pow_s03_pow_oven_35_n04111531_1556.png
subject-03,1,306,0.905146837234497,bottle,bottle,0,0306_pow_s03_0_bottle_35_n04557648_587.png
subject-03,1,307,0.679677963256836,oven,bird,pow,0307_pow_s03_pow_bird_35_n01532829_671.png
subject-03,1,308,0.878339052200317,cat,boat,pow,0308_pow_s03_pow_boat_35_n02951358_13865.png
subject-03,1,309,1.01407504081726,cat,cat,0,0309_pow_s03_0_cat_35_n02125311_14455.png
subject-03,1,310,0.72527003288269,keyboard,keyboard,pow,0310_pow_s03_pow_keyboard_35_n03085013_19285.png
subject-03,1,311,0.969746112823486,car,car,0,0311_pow_s03_0_car_35_n04285008_901.png
subject-03,1,312,1.39042997360229,truck,truck,0,0312_pow_s03_0_truck_35_n03417042_1029.png
subject-03,1,313,1.3207380771637,dog,dog,0,0313_pow_s03_0_dog_35_n02096294_2375.png
subject-03,1,314,1.13294696807861,airplane,truck,pow,0314_pow_s03_pow_truck_35_n03417042_21379.png
subject-03,1,315,0.971323013305664,oven,knife,0,0315_pow_s03_0_knife_35_n03041632_49363.png
subject-03,1,316,1.4916079044342,bear,bear,pow,0316_pow_s03_pow_bear_35_n02134084_7467.png
subject-03,1,317,NaN,na,knife,pow,0317_pow_s03_pow_knife_35_n03041632_11773.png
subject-03,1,318,NaN,na,bottle,pow,0318_pow_s03_pow_bottle_35_n02823428_4530.png
subject-03,1,319,0.970064878463745,truck,truck,0,0319_pow_s03_0_truck_35_n04467665_3874.png
subject-03,1,320,0.808580875396729,bear,bottle,pow,0320_pow_s03_pow_bottle_35_n04560804_15432.png
subject-03,1,321,0.861377000808716,clock,clock,0,0321_pow_s03_0_clock_35_n02708093_544.png
subject-03,1,322,0.521854162216187,cat,cat,pow,0322_pow_s03_pow_cat_35_n02124075_5224.png
subject-03,1,323,1.08832788467407,truck,truck,0,0323_pow_s03_0_truck_35_n04467665_53339.png
subject-03,1,324,0.727153062820435,car,car,0,0324_pow_s03_0_car_35_n03100240_10502.png
subject-03,1,325,0.762967109680176,keyboard,keyboard,pow,0325_pow_s03_pow_keyboard_35_n04505470_84.png
subject-03,1,326,0.94249415397644,bottle,bird,0,0326_pow_s03_0_bird_35_n01860187_2904.png
subject-03,1,327,1.29446792602539,bird,bird,0,0327_pow_s03_0_bird_35_n02009912_4987.png
subject-03,1,328,0.747224092483521,elephant,elephant,0,0328_pow_s03_0_elephant_35_n02504458_10013.png
subject-03,1,329,1.12173104286194,bear,bear,0,0329_pow_s03_0_bear_35_n02134084_4018.png
subject-03,1,330,0.798025131225586,bottle,chair,pow,0330_pow_s03_pow_chair_35_n04429376_21254.png
subject-03,1,331,0.926506042480469,truck,truck,0,0331_pow_s03_0_truck_35_n03417042_18450.png
subject-03,1,332,0.824179887771606,elephant,elephant,0,0332_pow_s03_0_elephant_35_n02504458_1519.png
subject-03,1,333,1.36659502983093,elephant,elephant,0,0333_pow_s03_0_elephant_35_n02504458_2577.png
subject-03,1,334,0.851166009902954,bear,bear,0,0334_pow_s03_0_bear_35_n02134084_7595.png
subject-03,1,335,0.819888114929199,cat,knife,0,0335_pow_s03_0_knife_35_n03041632_102887.png
subject-03,1,336,1.19419097900391,bottle,bottle,pow,0336_pow_s03_pow_bottle_35_n04591713_4685.png
subject-03,1,337,0.868481159210205,bear,bear,0,0337_pow_s03_0_bear_35_n02134084_16632.png
subject-03,1,338,1.04525089263916,bird,bird,pow,0338_pow_s03_pow_bird_35_n01558993_8020.png
subject-03,1,339,0.919344902038574,bicycle,bicycle,pow,0339_pow_s03_pow_bicycle_35_n03792782_1344.png
subject-03,1,340,1.00130200386047,keyboard,oven,pow,0340_pow_s03_pow_oven_35_n04111531_585.png
subject-03,1,341,1.26786494255066,chair,knife,0,0341_pow_s03_0_knife_35_n03041632_13108.png
subject-03,1,342,1.2445387840271,truck,truck,0,0342_pow_s03_0_truck_35_n03796401_21256.png
subject-03,1,343,0.997032880783081,cat,bird,pow,0343_pow_s03_pow_bird_35_n01560419_13.png
subject-03,1,344,1.44125699996948,oven,car,pow,0344_pow_s03_pow_car_35_n04285008_8383.png
subject-03,1,345,0.824074029922485,bottle,bottle,0,0345_pow_s03_0_bottle_35_n04557648_11206.png
subject-03,1,346,0.729768037796021,bicycle,bicycle,pow,0346_pow_s03_pow_bicycle_35_n03792782_10367.png
subject-03,1,347,1.5002760887146,bear,elephant,0,0347_pow_s03_0_elephant_35_n02504458_5231.png
subject-03,1,348,1.50012183189392,bottle,bottle,pow,0348_pow_s03_pow_bottle_35_n04591713_14895.png
subject-03,1,349,0.59519100189209,airplane,airplane,pow,0349_pow_s03_pow_airplane_35_n02690373_2733.png
subject-03,1,350,0.912865877151489,truck,truck,pow,0350_pow_s03_pow_truck_35_n03796401_29612.png
subject-03,1,351,0.76482105255127,clock,clock,pow,0351_pow_s03_pow_clock_35_n04548280_3049.png
subject-03,1,352,0.925215005874634,car,car,pow,0352_pow_s03_pow_car_35_n02814533_94404.png
subject-03,1,353,0.923579931259155,truck,truck,0,0353_pow_s03_0_truck_35_n03417042_29855.png
subject-03,1,354,0.920498847961426,bottle,bottle,pow,0354_pow_s03_pow_bottle_35_n04560804_7013.png
subject-03,1,355,NaN,na,bird,pow,0355_pow_s03_pow_bird_35_n01796340_8661.png
subject-03,1,356,1.27073001861572,bottle,oven,pow,0356_pow_s03_pow_oven_35_n04111531_6628.png
subject-03,1,357,1.023353099823,chair,chair,0,0357_pow_s03_0_chair_35_n04099969_14610.png
subject-03,1,358,0.975443840026855,cat,cat,0,0358_pow_s03_0_cat_35_n02123597_1516.png
subject-03,1,359,1.22606897354126,elephant,elephant,0,0359_pow_s03_0_elephant_35_n02504458_5766.png
subject-03,1,360,1.50018191337585,dog,dog,0,0360_pow_s03_0_dog_35_n02099712_929.png
subject-03,1,361,1.13713693618774,cat,oven,0,0361_pow_s03_0_oven_35_n04111531_10290.png
subject-03,1,362,0.905193090438843,airplane,airplane,0,0362_pow_s03_0_airplane_35_n02690373_5253.png
subject-03,1,363,0.86535906791687,boat,boat,0,0363_pow_s03_0_boat_35_n03344393_5884.png
subject-03,1,364,0.919082880020142,chair,chair,0,0364_pow_s03_0_chair_35_n04099969_47090.png
subject-03,1,365,1.33150577545166,car,oven,0,0365_pow_s03_0_oven_35_n04111531_2923.png
subject-03,1,366,1.02359485626221,clock,clock,pow,0366_pow_s03_pow_clock_35_n02708093_798.png
subject-03,1,367,1.19856214523315,bird,oven,0,0367_pow_s03_0_oven_35_n04111531_10399.png
subject-03,1,368,0.880769968032837,airplane,boat,0,0368_pow_s03_0_boat_35_n03662601_8709.png
subject-03,1,369,1.50003695487976,airplane,boat,0,0369_pow_s03_0_boat_35_n03662601_23433.png
subject-03,1,370,0.930969953536987,keyboard,keyboard,pow,0370_pow_s03_pow_keyboard_35_n03085013_1797.png
subject-03,1,371,0.829360961914062,boat,boat,pow,0371_pow_s03_pow_boat_35_n03344393_629.png
subject-03,1,372,1.4797260761261,oven,chair,pow,0372_pow_s03_pow_chair_35_n04099969_6241.png
subject-03,1,373,0.69625186920166,cat,keyboard,0,0373_pow_s03_0_keyboard_35_n03085013_23254.png
subject-03,1,374,0.953680038452148,elephant,elephant,pow,0374_pow_s03_pow_elephant_35_n02504013_846.png
subject-03,1,375,0.928112030029297,bear,bear,0,0375_pow_s03_0_bear_35_n02134418_6256.png
subject-03,1,376,1.41864395141602,keyboard,clock,0,0376_pow_s03_0_clock_35_n03196217_10190.png
subject-03,1,377,0.863290071487427,cat,cat,0,0377_pow_s03_0_cat_35_n02125311_13013.png
subject-03,1,378,0.755547046661377,bottle,bottle,pow,0378_pow_s03_pow_bottle_35_n04560804_9981.png
subject-03,1,379,1.00596308708191,car,car,0,0379_pow_s03_0_car_35_n04285008_15954.png
subject-03,1,380,0.896497964859009,airplane,airplane,pow,0380_pow_s03_pow_airplane_35_n02690373_3150.png
subject-03,1,381,1.50040292739868,bear,bear,0,0381_pow_s03_0_bear_35_n02134084_581.png
subject-03,1,382,1.2612669467926,airplane,airplane,pow,0382_pow_s03_pow_airplane_35_n02690373_4495.png
subject-03,1,383,0.89974308013916,elephant,elephant,pow,0383_pow_s03_pow_elephant_35_n02504013_17878.png
subject-03,1,384,0.744374990463257,cat,bird,pow,0384_pow_s03_pow_bird_35_n01601694_704.png
subject-03,1,385,1.24859094619751,dog,dog,0,0385_pow_s03_0_dog_35_n02091244_2353.png
subject-03,1,386,0.995354890823364,car,car,pow,0386_pow_s03_pow_car_35_n02814533_1884.png
subject-03,1,387,0.945974111557007,cat,bear,0,0387_pow_s03_0_bear_35_n02134418_545.png
subject-03,1,388,1.47434496879578,dog,bottle,pow,0388_pow_s03_pow_bottle_35_n03983396_5055.png
subject-03,1,389,1.25634908676147,truck,truck,0,0389_pow_s03_0_truck_35_n04467665_32937.png
subject-03,1,390,NaN,na,oven,pow,0390_pow_s03_pow_oven_35_n04111531_6622.png
subject-03,1,391,1.32898211479187,chair,keyboard,0,0391_pow_s03_0_keyboard_35_n04505470_10596.png
subject-03,1,392,0.773793935775757,car,car,0,0392_pow_s03_0_car_35_n04285008_5032.png
subject-03,1,393,1.21768498420715,bicycle,bicycle,0,0393_pow_s03_0_bicycle_35_n03792782_18275.png
subject-03,1,394,1.10795402526855,bird,cat,pow,0394_pow_s03_pow_cat_35_n02123597_337.png
subject-03,1,395,1.50014686584473,truck,bicycle,0,0395_pow_s03_0_bicycle_35_n03792782_5106.png
subject-03,1,396,1.45698690414429,chair,chair,pow,0396_pow_s03_pow_chair_35_n04429376_9388.png
subject-03,1,397,1.00945901870728,cat,knife,pow,0397_pow_s03_pow_knife_35_n03041632_24113.png
subject-03,1,398,1.12178707122803,chair,chair,pow,0398_pow_s03_pow_chair_35_n04099969_1669.png
subject-03,1,399,1.32431387901306,keyboard,keyboard,pow,0399_pow_s03_pow_keyboard_35_n03085013_20267.png
subject-03,1,400,1.17659997940063,oven,oven,pow,0400_pow_s03_pow_oven_35_n04111531_23668.png
subject-03,1,401,1.16746592521667,bird,bird,0,0401_pow_s03_0_bird_35_n01601694_11271.png
subject-03,1,402,0.942057847976685,oven,chair,pow,0402_pow_s03_pow_chair_35_n04429376_54754.png
subject-03,1,403,1.01040983200073,car,car,pow,0403_pow_s03_pow_car_35_n03100240_1377.png
subject-03,1,404,0.893018007278442,cat,bear,pow,0404_pow_s03_pow_bear_35_n02134418_5807.png
subject-03,1,405,1.26712203025818,car,boat,pow,0405_pow_s03_pow_boat_35_n04273569_16551.png
subject-03,1,406,1.30946111679077,boat,boat,0,0406_pow_s03_0_boat_35_n03344393_9092.png
subject-03,1,407,1.2539849281311,truck,truck,pow,0407_pow_s03_pow_truck_35_n03417042_3448.png
subject-03,1,408,0.784281015396118,bicycle,bicycle,pow,0408_pow_s03_pow_bicycle_35_n03792782_23560.png
subject-03,1,409,1.15097308158875,bird,bird,pow,0409_pow_s03_pow_bird_35_n02037110_9123.png
subject-03,1,410,0.903302907943726,cat,cat,pow,0410_pow_s03_pow_cat_35_n02123045_10143.png
subject-03,1,411,1.38370609283447,oven,knife,0,0411_pow_s03_0_knife_35_n03041632_13509.png
subject-03,1,412,1.41989994049072,clock,clock,pow,0412_pow_s03_pow_clock_35_n04548280_6968.png
subject-03,1,413,1.13395309448242,car,car,0,0413_pow_s03_0_car_35_n02814533_62356.png
subject-03,1,414,1.50040698051453,cat,bottle,pow,0414_pow_s03_pow_bottle_35_n03983396_2746.png
subject-03,1,415,1.1992769241333,truck,truck,0,0415_pow_s03_0_truck_35_n04467665_69171.png
subject-03,1,416,NaN,na,knife,0,0416_pow_s03_0_knife_35_n03041632_17859.png
subject-03,1,417,1.50012612342834,oven,knife,pow,0417_pow_s03_pow_knife_35_n03041632_15754.png
subject-03,1,418,1.17667007446289,truck,truck,pow,0418_pow_s03_pow_truck_35_n04467665_19081.png
subject-03,1,419,1.50038313865662,dog,dog,pow,0419_pow_s03_pow_dog_35_n02099267_364.png
subject-03,1,420,1.29510402679443,oven,clock,pow,0420_pow_s03_pow_clock_35_n03196217_2291.png
subject-03,1,421,1.03121709823608,keyboard,oven,0,0421_pow_s03_0_oven_35_n04111531_695.png
subject-03,1,422,1.11872315406799,keyboard,keyboard,0,0422_pow_s03_0_keyboard_35_n04505470_4224.png
subject-03,1,423,1.12528800964355,bottle,bottle,0,0423_pow_s03_0_bottle_35_n02823428_1491.png
subject-03,1,424,1.03800916671753,bicycle,bicycle,0,0424_pow_s03_0_bicycle_35_n03792782_5086.png
subject-03,1,425,0.95228910446167,knife,knife,0,0425_pow_s03_0_knife_35_n03041632_104379.png
subject-03,1,426,0.964679002761841,elephant,bear,pow,0426_pow_s03_pow_bear_35_n02134418_4352.png
subject-03,1,427,1.10037899017334,cat,bottle,pow,0427_pow_s03_pow_bottle_35_n03937543_349.png
subject-03,1,428,1.18692493438721,airplane,airplane,0,0428_pow_s03_0_airplane_35_n02690373_6988.png
subject-03,1,429,0.939344882965088,oven,oven,0,0429_pow_s03_0_oven_35_n04111531_4998.png
subject-03,1,430,0.93571400642395,cat,bottle,pow,0430_pow_s03_pow_bottle_35_n04591713_1164.png
subject-03,1,431,0.834307193756104,bottle,bottle,0,0431_pow_s03_0_bottle_35_n04579145_6452.png
subject-03,1,432,NaN,na,bicycle,pow,0432_pow_s03_pow_bicycle_35_n03792782_8550.png
subject-03,1,433,0.931152820587158,bird,bird,pow,0433_pow_s03_pow_bird_35_n01843065_11752.png
subject-03,1,434,1.19532299041748,bear,elephant,0,0434_pow_s03_0_elephant_35_n02504013_4159.png
subject-03,1,435,1.06346201896667,dog,dog,pow,0435_pow_s03_pow_dog_35_n02107683_278.png
subject-03,1,436,0.991936922073364,bird,bird,0,0436_pow_s03_0_bird_35_n01795545_11192.png
subject-03,1,437,0.844130039215088,cat,cat,pow,0437_pow_s03_pow_cat_35_n02123159_3785.png
subject-03,1,438,1.30897402763367,bird,dog,pow,0438_pow_s03_pow_dog_35_n02113712_1158.png
subject-03,1,439,1.11452698707581,chair,chair,0,0439_pow_s03_0_chair_35_n02791124_5411.png
subject-03,1,440,1.08932995796204,car,car,pow,0440_pow_s03_pow_car_35_n03100240_9892.png
subject-03,1,441,1.40971302986145,cat,knife,pow,0441_pow_s03_pow_knife_35_n03041632_105581.png
subject-03,1,442,0.937999963760376,truck,truck,0,0442_pow_s03_0_truck_35_n03417042_19955.png
subject-03,1,443,0.906772136688232,boat,boat,0,0443_pow_s03_0_boat_35_n03344393_3618.png
subject-03,1,444,1.34116387367249,boat,boat,pow,0444_pow_s03_pow_boat_35_n03344393_4608.png
subject-03,1,445,0.925384998321533,airplane,airplane,0,0445_pow_s03_0_airplane_35_n02690373_9128.png
subject-03,1,446,0.983930110931396,knife,knife,0,0446_pow_s03_0_knife_35_n03041632_105081.png
subject-03,1,447,1.20435786247253,bicycle,bicycle,pow,0447_pow_s03_pow_bicycle_35_n02835271_6826.png
subject-03,1,448,0.924363851547241,cat,chair,pow,0448_pow_s03_pow_chair_35_n02791124_3221.png
subject-03,1,449,0.830229997634888,chair,chair,0,0449_pow_s03_0_chair_35_n04099969_14537.png
subject-03,1,450,1.08873701095581,keyboard,keyboard,pow,0450_pow_s03_pow_keyboard_35_n04505470_112.png
subject-03,1,451,1.35526299476624,clock,boat,0,0451_pow_s03_0_boat_35_n03344393_4376.png
subject-03,1,452,1.42974615097046,boat,boat,pow,0452_pow_s03_pow_boat_35_n02951358_3704.png
subject-03,1,453,1.35049510002136,bird,chair,0,0453_pow_s03_0_chair_35_n03376595_6500.png
subject-03,1,454,1.0869300365448,bicycle,bicycle,pow,0454_pow_s03_pow_bicycle_35_n03792782_47774.png
subject-03,1,455,1.00136303901672,cat,bird,pow,0455_pow_s03_pow_bird_35_n02017213_1006.png
subject-03,1,456,0.838093996047974,cat,cat,pow,0456_pow_s03_pow_cat_35_n02123045_4812.png
subject-03,1,457,1.08828711509705,chair,bottle,pow,0457_pow_s03_pow_bottle_35_n04557648_1600.png
subject-03,1,458,NaN,na,oven,pow,0458_pow_s03_pow_oven_35_n04111531_2739.png
subject-03,1,459,1.03132009506226,bear,bear,0,0459_pow_s03_0_bear_35_n02132136_1528.png
subject-03,1,460,1.02737307548523,bird,chair,pow,0460_pow_s03_pow_chair_35_n04099969_55680.png
subject-03,1,461,1.05569696426392,cat,dog,pow,0461_pow_s03_pow_dog_35_n02097658_3115.png
subject-03,1,462,1.00015807151794,dog,dog,0,0462_pow_s03_0_dog_35_n02105251_8591.png
subject-03,1,463,1.37448215484619,truck,truck,pow,0463_pow_s03_pow_truck_35_n04467665_66535.png
subject-03,1,464,1.12724709510803,dog,dog,0,0464_pow_s03_0_dog_35_n02088632_2207.png
subject-03,1,465,0.947202920913696,cat,oven,pow,0465_pow_s03_pow_oven_35_n04111531_2116.png
subject-03,1,466,0.70760703086853,keyboard,keyboard,pow,0466_pow_s03_pow_keyboard_35_n03085013_4542.png
subject-03,1,467,0.719828844070435,car,car,0,0467_pow_s03_0_car_35_n04285008_3274.png
subject-03,1,468,1.02359390258789,airplane,airplane,pow,0468_pow_s03_pow_airplane_35_n02690373_9533.png
subject-03,1,469,NaN,na,elephant,pow,0469_pow_s03_pow_elephant_35_n02504458_2719.png
subject-03,1,470,1.46106004714966,bear,cat,0,0470_pow_s03_0_cat_35_n02123159_7629.png
subject-03,1,471,1.26744484901428,elephant,elephant,0,0471_pow_s03_0_elephant_35_n02504013_213.png
subject-03,1,472,1.13376212120056,airplane,airplane,0,0472_pow_s03_0_airplane_35_n02690373_1663.png
subject-03,1,473,0.986155033111572,chair,chair,pow,0473_pow_s03_pow_chair_35_n04429376_6147.png
subject-03,1,474,1.00032091140747,knife,knife,0,0474_pow_s03_0_knife_35_n03041632_54627.png
subject-03,1,475,0.920915126800537,elephant,elephant,pow,0475_pow_s03_pow_elephant_35_n02504013_3857.png
subject-03,1,476,0.903216123580933,knife,knife,pow,0476_pow_s03_pow_knife_35_n03041632_48675.png
subject-03,1,477,1.34583616256714,knife,knife,pow,0477_pow_s03_pow_knife_35_n03041632_2644.png
subject-03,1,478,0.998601913452148,cat,bird,0,0478_pow_s03_0_bird_35_n01818515_8187.png
subject-03,1,479,0.726630926132202,chair,chair,0,0479_pow_s03_0_chair_35_n02791124_2487.png
subject-03,1,480,1.1174910068512,chair,chair,0,0480_pow_s03_0_chair_35_n04429376_10158.png
subject-03,1,481,1.03425288200378,oven,oven,0,0481_pow_s03_0_oven_35_n04111531_10710.png
subject-03,1,482,0.710875034332275,keyboard,keyboard,0,0482_pow_s03_0_keyboard_35_n03085013_20891.png
subject-03,1,483,1.33690190315247,dog,cat,pow,0483_pow_s03_pow_cat_35_n02123394_3503.png
subject-03,1,484,0.743449211120605,bottle,bottle,0,0484_pow_s03_0_bottle_35_n04591713_1472.png
subject-03,1,485,1.03971004486084,chair,chair,0,0485_pow_s03_0_chair_35_n03376595_3177.png
subject-03,1,486,1.0304160118103,bird,boat,pow,0486_pow_s03_pow_boat_35_n02951358_15203.png
subject-03,1,487,0.760761022567749,keyboard,keyboard,0,0487_pow_s03_0_keyboard_35_n04505470_9446.png
subject-03,1,488,0.903080940246582,keyboard,keyboard,pow,0488_pow_s03_pow_keyboard_35_n04505470_3531.png
subject-03,1,489,0.953444957733154,cat,cat,0,0489_pow_s03_0_cat_35_n02125311_13188.png
subject-03,1,490,1.23569107055664,bear,bear,0,0490_pow_s03_0_bear_35_n02132136_17373.png
subject-03,1,491,0.804190874099731,clock,clock,0,0491_pow_s03_0_clock_35_n03196217_4254.png
subject-03,1,492,1.07666802406311,keyboard,bottle,0,0492_pow_s03_0_bottle_35_n04557648_2703.png
subject-03,1,493,1.14536213874817,oven,oven,0,0493_pow_s03_0_oven_35_n04111531_21822.png
subject-03,1,494,1.4636538028717,airplane,airplane,0,0494_pow_s03_0_airplane_35_n02690373_7487.png
subject-03,1,495,0.894169092178345,keyboard,keyboard,0,0495_pow_s03_0_keyboard_35_n03085013_10661.png
subject-03,1,496,0.760700941085815,cat,cat,0,0496_pow_s03_0_cat_35_n02125311_10649.png
subject-03,1,497,0.751260042190552,bottle,bottle,pow,0497_pow_s03_pow_bottle_35_n03983396_10671.png
subject-03,1,498,0.89355206489563,bottle,bottle,pow,0498_pow_s03_pow_bottle_35_n04591713_7408.png
subject-03,1,499,1.00587582588196,chair,chair,0,0499_pow_s03_0_chair_35_n04429376_12767.png
subject-03,1,500,1.11840796470642,cat,knife,pow,0500_pow_s03_pow_knife_35_n03041632_26236.png
subject-03,1,501,NaN,na,bear,0,0501_pow_s03_0_bear_35_n02132136_2719.png
subject-03,1,502,0.945007801055908,oven,oven,0,0502_pow_s03_0_oven_35_n04111531_8688.png
subject-03,1,503,1.04151201248169,bird,boat,pow,0503_pow_s03_pow_boat_35_n02951358_33918.png
subject-03,1,504,0.671701908111572,boat,boat,0,0504_pow_s03_0_boat_35_n04612504_5947.png
subject-03,1,505,1.23026704788208,keyboard,knife,pow,0505_pow_s03_pow_knife_35_n03041632_30565.png
subject-03,1,506,1.06499814987183,chair,chair,0,0506_pow_s03_0_chair_35_n03376595_14748.png
subject-03,1,507,1.42340302467346,car,car,pow,0507_pow_s03_pow_car_35_n02814533_10062.png
subject-03,1,508,0.707934856414795,keyboard,keyboard,0,0508_pow_s03_0_keyboard_35_n03085013_22496.png
subject-03,1,509,0.952439069747925,keyboard,keyboard,0,0509_pow_s03_0_keyboard_35_n03085013_18876.png
subject-03,1,510,0.994987010955811,bottle,cat,pow,0510_pow_s03_pow_cat_35_n02123394_7325.png
subject-03,1,511,NaN,na,knife,0,0511_pow_s03_0_knife_35_n03041632_11475.png
subject-03,1,512,1.28997683525085,bird,bird,pow,0512_pow_s03_pow_bird_35_n01582220_11032.png
subject-03,1,513,0.858227014541626,cat,boat,pow,0513_pow_s03_pow_boat_35_n02951358_9958.png
subject-03,1,514,0.686872959136963,airplane,airplane,pow,0514_pow_s03_pow_airplane_35_n02690373_9001.png
subject-03,1,515,1.50023102760315,bear,cat,pow,0515_pow_s03_pow_cat_35_n02123394_8212.png
subject-03,1,516,1.42611980438232,bear,bear,0,0516_pow_s03_0_bear_35_n02132136_10572.png
subject-03,1,517,1.38628005981445,cat,truck,pow,0517_pow_s03_pow_truck_35_n03417042_10126.png
subject-03,1,518,1.36078906059265,truck,truck,0,0518_pow_s03_0_truck_35_n03417042_28394.png
subject-03,1,519,1.28076195716858,car,car,0,0519_pow_s03_0_car_35_n03100240_9626.png
subject-03,1,520,1.10911917686462,clock,clock,0,0520_pow_s03_0_clock_35_n02708093_7119.png
subject-03,1,521,1.43553185462952,cat,oven,0,0521_pow_s03_0_oven_35_n04111531_21248.png
subject-03,1,522,1.15791296958923,bicycle,bicycle,0,0522_pow_s03_0_bicycle_35_n02835271_19907.png
subject-03,1,523,1.13247203826904,car,car,pow,0523_pow_s03_pow_car_35_n04285008_4749.png
subject-03,1,524,1.15337109565735,bird,boat,pow,0524_pow_s03_pow_boat_35_n03344393_10476.png
subject-03,1,525,0.789007902145386,boat,boat,pow,0525_pow_s03_pow_boat_35_n03344393_562.png
subject-03,1,526,NaN,na,bear,0,0526_pow_s03_0_bear_35_n02134084_40633.png
subject-03,1,527,0.989436864852905,clock,clock,pow,0527_pow_s03_pow_clock_35_n04548280_5482.png
subject-03,1,528,1.23202395439148,cat,bird,pow,0528_pow_s03_pow_bird_35_n02051845_14981.png
subject-03,1,529,0.878727197647095,clock,clock,pow,0529_pow_s03_pow_clock_35_n04548280_4560.png
subject-03,1,530,1.25421595573425,cat,bear,pow,0530_pow_s03_pow_bear_35_n02134418_3592.png
subject-03,1,531,0.936408996582031,clock,clock,0,0531_pow_s03_0_clock_35_n04548280_13425.png
subject-03,1,532,NaN,na,truck,0,0532_pow_s03_0_truck_35_n03417042_16688.png
subject-03,1,533,1.50034189224243,dog,dog,0,0533_pow_s03_0_dog_35_n02091032_8054.png
subject-03,1,534,1.37941908836365,bird,bicycle,0,0534_pow_s03_0_bicycle_35_n03792782_1105.png
subject-03,1,535,NaN,na,cat,pow,0535_pow_s03_pow_cat_35_n02125311_40332.png
subject-03,1,536,0.943250894546509,bottle,bottle,0,0536_pow_s03_0_bottle_35_n03983396_9176.png
subject-03,1,537,1.20192313194275,bear,elephant,pow,0537_pow_s03_pow_elephant_35_n02504013_165.png
subject-03,1,538,1.00610589981079,boat,boat,0,0538_pow_s03_0_boat_35_n04612504_34934.png
subject-03,1,539,1.39653396606445,car,car,pow,0539_pow_s03_pow_car_35_n04285008_3916.png
subject-03,1,540,NaN,na,boat,0,0540_pow_s03_0_boat_35_n02951358_4609.png
subject-03,1,541,1.50031113624573,bicycle,bicycle,pow,0541_pow_s03_pow_bicycle_35_n03792782_40881.png
subject-03,1,542,1.49283313751221,bear,bear,0,0542_pow_s03_0_bear_35_n02132136_6823.png
subject-03,1,543,1.03721380233765,cat,dog,pow,0543_pow_s03_pow_dog_35_n02086910_4519.png
subject-03,1,544,1.08986711502075,cat,cat,0,0544_pow_s03_0_cat_35_n02125311_12136.png
subject-03,1,545,1.11779880523682,keyboard,keyboard,pow,0545_pow_s03_pow_keyboard_35_n03085013_20852.png
subject-03,1,546,1.13854789733887,elephant,elephant,pow,0546_pow_s03_pow_elephant_35_n02504458_1623.png
subject-03,1,547,0.859021902084351,car,car,0,0547_pow_s03_0_car_35_n02814533_44090.png
subject-03,1,548,0.971570014953613,cat,cat,pow,0548_pow_s03_pow_cat_35_n02125311_25091.png
subject-03,1,549,1.253830909729,dog,bear,pow,0549_pow_s03_pow_bear_35_n02132136_23202.png
subject-03,1,550,1.19959211349487,cat,elephant,pow,0550_pow_s03_pow_elephant_35_n02504013_9012.png
subject-03,1,551,1.28202295303345,oven,oven,0,0551_pow_s03_0_oven_35_n04111531_2456.png
subject-03,1,552,1.31818604469299,bird,boat,pow,0552_pow_s03_pow_boat_35_n02951358_728.png
subject-03,1,553,1.19783997535706,dog,dog,pow,0553_pow_s03_pow_dog_35_n02105855_5952.png
subject-03,1,554,0.642107009887695,airplane,airplane,pow,0554_pow_s03_pow_airplane_35_n02690373_9642.png
subject-03,1,555,0.662456035614014,cat,cat,0,0555_pow_s03_0_cat_35_n02124075_6986.png
subject-03,1,556,0.821011066436768,cat,oven,pow,0556_pow_s03_pow_oven_35_n04111531_3470.png
subject-03,1,557,1.11967086791992,bicycle,bicycle,pow,0557_pow_s03_pow_bicycle_35_n03792782_1778.png
subject-03,1,558,1.20009708404541,clock,clock,0,0558_pow_s03_0_clock_35_n02708093_6572.png
subject-03,1,559,1.19523787498474,elephant,elephant,0,0559_pow_s03_0_elephant_35_n02504013_6027.png
subject-03,1,560,1.49095678329468,bird,bird,0,0560_pow_s03_0_bird_35_n02002556_6061.png
subject-03,1,561,1.11354184150696,truck,truck,pow,0561_pow_s03_pow_truck_35_n03417042_15913.png
subject-03,1,562,1.48551416397095,cat,boat,pow,0562_pow_s03_pow_boat_35_n04612504_9581.png
subject-03,1,563,NaN,na,knife,0,0563_pow_s03_0_knife_35_n03041632_9580.png
subject-03,1,564,1.01233506202698,knife,knife,pow,0564_pow_s03_pow_knife_35_n03041632_383.png
subject-03,1,565,0.92926287651062,chair,chair,0,0565_pow_s03_0_chair_35_n02791124_3535.png
subject-03,1,566,1.17950201034546,airplane,airplane,0,0566_pow_s03_0_airplane_35_n02690373_6535.png
subject-03,1,567,NaN,na,clock,0,0567_pow_s03_0_clock_35_n04548280_5076.png
subject-03,1,568,1.50005602836609,clock,clock,pow,0568_pow_s03_pow_clock_35_n04548280_1324.png
subject-03,1,569,1.46275210380554,boat,boat,0,0569_pow_s03_0_boat_35_n02951358_4443.png
subject-03,1,570,0.700978994369507,chair,chair,0,0570_pow_s03_0_chair_35_n02791124_9162.png
subject-03,1,571,0.959038972854614,cat,bear,0,0571_pow_s03_0_bear_35_n02134084_572.png
subject-03,1,572,1.31570410728455,airplane,airplane,pow,0572_pow_s03_pow_airplane_35_n02690373_19353.png
subject-03,1,573,0.829530000686646,cat,cat,0,0573_pow_s03_0_cat_35_n02125311_8689.png
subject-03,1,574,0.980000019073486,bottle,bottle,0,0574_pow_s03_0_bottle_35_n03983396_6889.png
subject-03,1,575,1.36004304885864,dog,cat,0,0575_pow_s03_0_cat_35_n02123159_3850.png
subject-03,1,576,1.44244790077209,knife,bicycle,pow,0576_pow_s03_pow_bicycle_35_n03792782_42927.png
subject-03,1,577,1.48682689666748,boat,boat,pow,0577_pow_s03_pow_boat_35_n04612504_4302.png
subject-03,1,578,1.23115396499634,cat,oven,0,0578_pow_s03_0_oven_35_n04111531_2831.png
subject-03,1,579,1.34933590888977,bird,knife,pow,0579_pow_s03_pow_knife_35_n03041632_56454.png
subject-03,1,580,0.733391046524048,airplane,airplane,0,0580_pow_s03_0_airplane_35_n02690373_6942.png
subject-03,1,581,1.05401802062988,bicycle,bicycle,pow,0581_pow_s03_pow_bicycle_35_n02835271_14914.png
subject-03,1,582,1.21246814727783,cat,boat,pow,0582_pow_s03_pow_boat_35_n04273569_20406.png
subject-03,1,583,1.39262008666992,dog,bear,0,0583_pow_s03_0_bear_35_n02134418_3053.png
subject-03,1,584,0.677145004272461,clock,clock,pow,0584_pow_s03_pow_clock_35_n02708093_3385.png
subject-03,1,585,0.97379994392395,boat,boat,0,0585_pow_s03_0_boat_35_n03662601_26031.png
subject-03,1,586,1.50007295608521,bottle,knife,0,0586_pow_s03_0_knife_35_n03041632_39883.png
subject-03,1,587,1.25200295448303,keyboard,keyboard,pow,0587_pow_s03_pow_keyboard_35_n03085013_28083.png
subject-03,1,588,1.04898810386658,truck,truck,pow,0588_pow_s03_pow_truck_35_n03796401_2380.png
subject-03,1,589,NaN,na,keyboard,pow,0589_pow_s03_pow_keyboard_35_n03085013_20960.png
subject-03,1,590,0.967597961425781,airplane,airplane,0,0590_pow_s03_0_airplane_35_n02690373_3492.png
subject-03,1,591,0.939712047576904,car,car,0,0591_pow_s03_0_car_35_n02814533_48541.png
subject-03,1,592,1.01418399810791,airplane,airplane,0,0592_pow_s03_0_airplane_35_n02690373_7099.png
subject-03,1,593,1.3028359413147,cat,bear,pow,0593_pow_s03_pow_bear_35_n02134084_433.png
subject-03,1,594,1.50027012825012,clock,chair,0,0594_pow_s03_0_chair_35_n04429376_54570.png
subject-03,1,595,1.02971601486206,car,car,pow,0595_pow_s03_pow_car_35_n02814533_4121.png
subject-03,1,596,1.26596188545227,bottle,bottle,pow,0596_pow_s03_pow_bottle_35_n04557648_2282.png
subject-03,1,597,1.50055003166199,bird,cat,pow,0597_pow_s03_pow_cat_35_n02125311_45867.png
subject-03,1,598,0.743827104568481,clock,clock,0,0598_pow_s03_0_clock_35_n02708093_5031.png
subject-03,1,599,0.902017116546631,keyboard,keyboard,0,0599_pow_s03_0_keyboard_35_n04505470_209.png
subject-03,1,600,0.984093904495239,chair,clock,pow,0600_pow_s03_pow_clock_35_n04548280_1.png
subject-03,1,601,0.971931934356689,cat,bicycle,0,0601_pow_s03_0_bicycle_35_n03792782_1363.png
subject-03,1,602,0.754553079605103,bottle,bottle,0,0602_pow_s03_0_bottle_35_n04560804_14792.png
subject-03,1,603,0.821051120758057,bottle,bottle,0,0603_pow_s03_0_bottle_35_n04591713_6308.png
subject-03,1,604,1.17139101028442,oven,chair,pow,0604_pow_s03_pow_chair_35_n04429376_12972.png
subject-03,1,605,1.45382499694824,bottle,bottle,pow,0605_pow_s03_pow_bottle_35_n03983396_2198.png
subject-03,1,606,1.2908308506012,car,car,0,0606_pow_s03_0_car_35_n03100240_9641.png
subject-03,1,607,0.9271080493927,cat,dog,pow,0607_pow_s03_pow_dog_35_n02112018_7545.png
subject-03,1,608,1.49062204360962,boat,boat,pow,0608_pow_s03_pow_boat_35_n03344393_3805.png
subject-03,1,609,NaN,na,truck,pow,0609_pow_s03_pow_truck_35_n04467665_48264.png
subject-03,1,610,0.747626066207886,cat,knife,pow,0610_pow_s03_pow_knife_35_n03041632_9759.png
subject-03,1,611,1.50039005279541,bird,airplane,pow,0611_pow_s03_pow_airplane_35_n02690373_4691.png
subject-03,1,612,1.31014394760132,dog,dog,0,0612_pow_s03_0_dog_35_n02113023_4078.png
subject-03,1,613,0.962652921676636,cat,bird,0,0613_pow_s03_0_bird_35_n01797886_4861.png
subject-03,1,614,1.31278610229492,car,car,pow,0614_pow_s03_pow_car_35_n02814533_11078.png
subject-03,1,615,1.46282815933228,cat,cat,0,0615_pow_s03_0_cat_35_n02125311_412.png
subject-03,1,616,NaN,na,bottle,0,0616_pow_s03_0_bottle_35_n02823428_6084.png
subject-03,1,617,0.735840082168579,keyboard,keyboard,0,0617_pow_s03_0_keyboard_35_n04505470_4498.png
subject-03,1,618,1.16269207000732,dog,bear,0,0618_pow_s03_0_bear_35_n02134418_2440.png
subject-03,1,619,1.49917387962341,bear,bear,0,0619_pow_s03_0_bear_35_n02134418_1487.png
subject-03,1,620,1.11837601661682,bear,dog,pow,0620_pow_s03_pow_dog_35_n02101388_1984.png
subject-03,1,621,1.50016117095947,bear,clock,pow,0621_pow_s03_pow_clock_35_n04548280_4522.png
subject-03,1,622,NaN,na,cat,0,0622_pow_s03_0_cat_35_n02123045_11485.png
subject-03,1,623,1.1018180847168,cat,cat,pow,0623_pow_s03_pow_cat_35_n02123394_3695.png
subject-03,1,624,1.15414214134216,elephant,dog,pow,0624_pow_s03_pow_dog_35_n02110185_1688.png
subject-03,1,625,1.08841705322266,chair,chair,pow,0625_pow_s03_pow_chair_35_n04429376_13328.png
subject-03,1,626,1.10857510566711,elephant,elephant,0,0626_pow_s03_0_elephant_35_n02504458_6171.png
subject-03,1,627,0.974979877471924,cat,dog,pow,0627_pow_s03_pow_dog_35_n02107312_7211.png
subject-03,1,628,1.0175039768219,clock,clock,0,0628_pow_s03_0_clock_35_n02708093_8104.png
subject-03,1,629,1.42193794250488,keyboard,keyboard,pow,0629_pow_s03_pow_keyboard_35_n03085013_5714.png
subject-03,1,630,1.50004196166992,knife,knife,pow,0630_pow_s03_pow_knife_35_n03041632_15250.png
subject-03,1,631,1.50036787986755,bottle,bottle,0,0631_pow_s03_0_bottle_35_n03937543_9165.png
subject-03,1,632,1.46748089790344,cat,knife,pow,0632_pow_s03_pow_knife_35_n03041632_31367.png
subject-03,1,633,1.27208685874939,cat,elephant,pow,0633_pow_s03_pow_elephant_35_n02504458_1790.png
subject-03,1,634,0.740294933319092,clock,clock,0,0634_pow_s03_0_clock_35_n02708093_7998.png
subject-03,1,635,NaN,na,bicycle,0,0635_pow_s03_0_bicycle_35_n03792782_16290.png
subject-03,1,636,1.50003290176392,bird,elephant,pow,0636_pow_s03_pow_elephant_35_n02504458_1328.png
subject-03,1,637,1.4836151599884,bird,bird,pow,0637_pow_s03_pow_bird_35_n02025239_628.png
subject-03,1,638,1.4958598613739,dog,cat,pow,0638_pow_s03_pow_cat_35_n02123045_8595.png
subject-03,1,639,1.38415288925171,boat,truck,0,0639_pow_s03_0_truck_35_n04467665_42414.png
subject-03,1,640,NaN,na,elephant,pow,0640_pow_s03_pow_elephant_35_n02504458_5614.png
subject-03,1,641,1.10317397117615,bear,bear,pow,0641_pow_s03_pow_bear_35_n02134418_28023.png
subject-03,1,642,NaN,na,knife,pow,0642_pow_s03_pow_knife_35_n03041632_9302.png
subject-03,1,643,1.19777703285217,cat,bird,pow,0643_pow_s03_pow_bird_35_n01855032_2360.png
subject-03,1,644,1.46400904655457,bottle,truck,pow,0644_pow_s03_pow_truck_35_n03417042_11072.png
subject-03,1,645,0.738732099533081,bicycle,bicycle,0,0645_pow_s03_0_bicycle_35_n02835271_13063.png
subject-03,1,646,1.14317989349365,airplane,knife,pow,0646_pow_s03_pow_knife_35_n03041632_8051.png
subject-03,1,647,0.695854902267456,cat,cat,0,0647_pow_s03_0_cat_35_n02124075_8673.png
subject-03,1,648,1.35433602333069,bear,bicycle,pow,0648_pow_s03_pow_bicycle_35_n03792782_4545.png
subject-03,1,649,1.11213207244873,truck,truck,pow,0649_pow_s03_pow_truck_35_n03796401_5535.png
subject-03,1,650,1.02468395233154,bottle,bottle,pow,0650_pow_s03_pow_bottle_35_n02823428_1305.png
subject-03,1,651,1.22110795974731,car,car,pow,0651_pow_s03_pow_car_35_n02814533_7247.png
subject-03,1,652,1.21099901199341,bear,bear,pow,0652_pow_s03_pow_bear_35_n02133161_15612.png
subject-03,1,653,0.801622867584229,oven,oven,0,0653_pow_s03_0_oven_35_n04111531_8263.png
subject-03,1,654,0.881808042526245,car,car,0,0654_pow_s03_0_car_35_n03100240_18646.png
subject-03,1,655,1.44040417671204,dog,dog,pow,0655_pow_s03_pow_dog_35_n02099267_8400.png
subject-03,1,656,0.759624004364014,bicycle,bicycle,0,0656_pow_s03_0_bicycle_35_n02835271_2333.png
subject-03,1,657,0.92603588104248,cat,cat,0,0657_pow_s03_0_cat_35_n02123597_85.png
subject-03,1,658,1.25241184234619,cat,knife,pow,0658_pow_s03_pow_knife_35_n03041632_80829.png
subject-03,1,659,0.650918960571289,clock,clock,0,0659_pow_s03_0_clock_35_n02708093_6414.png
subject-03,1,660,0.917524099349976,oven,truck,pow,0660_pow_s03_pow_truck_35_n03417042_3861.png
subject-03,1,661,0.9078528881073,clock,clock,pow,0661_pow_s03_pow_clock_35_n02708093_5327.png
subject-03,1,662,1.25822186470032,boat,boat,0,0662_pow_s03_0_boat_35_n04273569_24921.png
subject-03,1,663,1.50028085708618,bird,bird,0,0663_pow_s03_0_bird_35_n02056570_8616.png
subject-03,1,664,1.04555106163025,bird,bird,0,0664_pow_s03_0_bird_35_n01530575_3903.png
subject-03,1,665,0.957807064056396,clock,clock,pow,0665_pow_s03_pow_clock_35_n04548280_9743.png
subject-03,1,666,1.36209106445312,chair,chair,pow,0666_pow_s03_pow_chair_35_n04099969_9079.png
subject-03,1,667,0.949527978897095,bear,bear,pow,0667_pow_s03_pow_bear_35_n02134418_3534.png
subject-03,1,668,1.5003080368042,bird,clock,pow,0668_pow_s03_pow_clock_35_n02708093_420.png
subject-03,1,669,0.849430084228516,bicycle,bicycle,0,0669_pow_s03_0_bicycle_35_n03792782_2628.png
subject-03,1,670,1.0321159362793,boat,boat,0,0670_pow_s03_0_boat_35_n02951358_34926.png
subject-03,1,671,1.15216708183289,keyboard,bottle,0,0671_pow_s03_0_bottle_35_n04560804_29778.png
subject-03,1,672,1.14860081672668,bicycle,bicycle,0,0672_pow_s03_0_bicycle_35_n02835271_3989.png
subject-03,1,673,1.46908497810364,bottle,bear,0,0673_pow_s03_0_bear_35_n02133161_3922.png
subject-03,1,674,1.49999594688416,boat,truck,pow,0674_pow_s03_pow_truck_35_n04467665_1974.png
subject-03,1,675,1.4099268913269,boat,bottle,pow,0675_pow_s03_pow_bottle_35_n03983396_24004.png
subject-03,1,676,0.792253971099854,airplane,airplane,0,0676_pow_s03_0_airplane_35_n02690373_4310.png
subject-03,1,677,1.12049102783203,oven,clock,pow,0677_pow_s03_pow_clock_35_n02708093_8143.png
subject-03,1,678,0.824722051620483,clock,clock,0,0678_pow_s03_0_clock_35_n03196217_4970.png
subject-03,1,679,1.38284516334534,truck,truck,pow,0679_pow_s03_pow_truck_35_n04467665_48953.png
subject-03,1,680,1.31770706176758,oven,chair,0,0680_pow_s03_0_chair_35_n04429376_16680.png
subject-03,1,681,1.45378589630127,cat,chair,pow,0681_pow_s03_pow_chair_35_n04429376_9482.png
subject-03,1,682,1.0780611038208,car,car,0,0682_pow_s03_0_car_35_n04285008_4868.png
subject-03,1,683,1.25873589515686,chair,chair,pow,0683_pow_s03_pow_chair_35_n04099969_9302.png
subject-03,1,684,1.50022196769714,dog,bear,0,0684_pow_s03_0_bear_35_n02133161_1490.png
subject-03,1,685,0.906951904296875,bicycle,bicycle,0,0685_pow_s03_0_bicycle_35_n03792782_7108.png
subject-03,1,686,0.827026844024658,cat,dog,0,0686_pow_s03_0_dog_35_n02111500_4980.png
subject-03,1,687,1.4693911075592,truck,truck,pow,0687_pow_s03_pow_truck_35_n03417042_4939.png
subject-03,1,688,1.01384687423706,keyboard,keyboard,0,0688_pow_s03_0_keyboard_35_n04505470_5111.png
subject-03,1,689,1.36465811729431,bear,truck,0,0689_pow_s03_0_truck_35_n03796401_12730.png
subject-03,1,690,1.23142004013062,bear,elephant,0,0690_pow_s03_0_elephant_35_n02504458_6902.png
subject-03,1,691,1.17356204986572,keyboard,keyboard,pow,0691_pow_s03_pow_keyboard_35_n04505470_533.png
subject-03,1,692,1.07181000709534,bottle,truck,0,0692_pow_s03_0_truck_35_n03796401_7073.png
subject-03,1,693,0.884202003479004,bicycle,bicycle,pow,0693_pow_s03_pow_bicycle_35_n03792782_18707.png
subject-03,1,694,NaN,na,dog,pow,0694_pow_s03_pow_dog_35_n02089867_8806.png
subject-03,1,695,0.947062969207764,knife,knife,0,0695_pow_s03_0_knife_35_n03041632_6309.png
subject-03,1,696,1.13740587234497,keyboard,keyboard,0,0696_pow_s03_0_keyboard_35_n04505470_4617.png
subject-03,1,697,0.735874891281128,cat,knife,pow,0697_pow_s03_pow_knife_35_n03041632_15174.png
subject-03,1,698,0.916479110717773,car,car,0,0698_pow_s03_0_car_35_n04285008_588.png
subject-03,1,699,1.12913012504578,dog,dog,0,0699_pow_s03_0_dog_35_n02093991_394.png
subject-03,1,700,0.743568897247314,cat,knife,0,0700_pow_s03_0_knife_35_n03041632_29125.png
subject-03,1,701,0.955542087554932,bicycle,bicycle,0,0701_pow_s03_0_bicycle_35_n02835271_7038.png
subject-03,1,702,0.85993504524231,cat,clock,0,0702_pow_s03_0_clock_35_n03196217_1809.png
subject-03,1,703,0.826364040374756,boat,boat,0,0703_pow_s03_0_boat_35_n03344393_4888.png
subject-03,1,704,1.03085494041443,bicycle,bicycle,0,0704_pow_s03_0_bicycle_35_n02835271_14879.png
subject-03,1,705,1.12751293182373,car,car,0,0705_pow_s03_0_car_35_n02814533_29925.png
subject-03,1,706,1.16374015808105,car,car,0,0706_pow_s03_0_car_35_n02814533_75173.png
subject-03,1,707,1.40577793121338,bottle,bottle,pow,0707_pow_s03_pow_bottle_35_n03937543_4797.png
subject-03,1,708,NaN,na,truck,0,0708_pow_s03_0_truck_35_n04467665_14719.png
subject-03,1,709,0.846534967422485,bottle,bottle,pow,0709_pow_s03_pow_bottle_35_n03983396_23143.png
subject-03,1,710,1.45878005027771,dog,cat,0,0710_pow_s03_0_cat_35_n02125311_55486.png
subject-03,1,711,0.97148585319519,cat,oven,pow,0711_pow_s03_pow_oven_35_n04111531_6298.png
subject-03,1,712,1.00826191902161,bird,knife,pow,0712_pow_s03_pow_knife_35_n03041632_2630.png
subject-03,1,713,1.10407996177673,cat,cat,0,0713_pow_s03_0_cat_35_n02123597_1174.png
subject-03,1,714,1.09209799766541,elephant,elephant,0,0714_pow_s03_0_elephant_35_n02504458_9813.png
subject-03,1,715,1.25068688392639,dog,dog,0,0715_pow_s03_0_dog_35_n02092339_3623.png
subject-03,1,716,1.46329402923584,dog,bird,pow,0716_pow_s03_pow_bird_35_n01820546_7837.png
subject-03,1,717,1.4214940071106,bird,bird,pow,0717_pow_s03_pow_bird_35_n01532829_10127.png
subject-03,1,718,NaN,na,keyboard,0,0718_pow_s03_0_keyboard_35_n04505470_2623.png
subject-03,1,719,1.19993591308594,truck,truck,0,0719_pow_s03_0_truck_35_n03796401_24013.png
subject-03,1,720,1.49136686325073,truck,truck,0,0720_pow_s03_0_truck_35_n03417042_29444.png
subject-03,1,721,0.727253913879395,cat,cat,pow,0721_pow_s03_pow_cat_35_n02123045_3486.png
subject-03,1,722,1.1998028755188,clock,clock,pow,0722_pow_s03_pow_clock_35_n02708093_2857.png
subject-03,1,723,1.32793688774109,car,car,pow,0723_pow_s03_pow_car_35_n02814533_12779.png
subject-03,1,724,1.40825891494751,bird,oven,pow,0724_pow_s03_pow_oven_35_n04111531_1054.png
subject-03,1,725,NaN,na,boat,pow,0725_pow_s03_pow_boat_35_n02951358_634.png
subject-03,1,726,1.34078907966614,cat,knife,0,0726_pow_s03_0_knife_35_n03041632_23087.png
subject-03,1,727,0.760879039764404,keyboard,keyboard,0,0727_pow_s03_0_keyboard_35_n03085013_19497.png
subject-03,1,728,1.39527201652527,truck,bicycle,pow,0728_pow_s03_pow_bicycle_35_n02835271_13935.png
subject-03,1,729,1.17781901359558,truck,truck,pow,0729_pow_s03_pow_truck_35_n03796401_1791.png
subject-03,1,730,0.768350124359131,airplane,airplane,0,0730_pow_s03_0_airplane_35_n02690373_6853.png
subject-03,1,731,1.36158108711243,bear,bear,pow,0731_pow_s03_pow_bear_35_n02132136_30976.png
subject-03,1,732,NaN,na,elephant,pow,0732_pow_s03_pow_elephant_35_n02504458_5941.png
subject-03,1,733,1.50023508071899,bear,dog,pow,0733_pow_s03_pow_dog_35_n02108422_8463.png
subject-03,1,734,0.946871042251587,keyboard,keyboard,pow,0734_pow_s03_pow_keyboard_35_n04505470_5098.png
subject-03,1,735,1.05946683883667,bear,elephant,0,0735_pow_s03_0_elephant_35_n02504458_7804.png
subject-03,1,736,1.06377482414246,airplane,airplane,0,0736_pow_s03_0_airplane_35_n02690373_2042.png
subject-03,1,737,1.28455710411072,bottle,bird,0,0737_pow_s03_0_bird_35_n01833805_4211.png
subject-03,1,738,1.38860487937927,knife,knife,0,0738_pow_s03_0_knife_35_n03041632_20517.png
subject-03,1,739,0.932532072067261,bottle,bottle,pow,0739_pow_s03_pow_bottle_35_n04591713_4474.png
subject-03,1,740,NaN,na,airplane,pow,0740_pow_s03_pow_airplane_35_n02690373_7145.png
subject-03,1,741,1.07386994361877,car,car,0,0741_pow_s03_0_car_35_n03100240_9908.png
subject-03,1,742,1.00217700004578,cat,car,pow,0742_pow_s03_pow_car_35_n03100240_7113.png
subject-03,1,743,1.28267908096313,bicycle,bicycle,pow,0743_pow_s03_pow_bicycle_35_n02835271_27610.png
subject-03,1,744,1.2650740146637,oven,keyboard,0,0744_pow_s03_0_keyboard_35_n03085013_20673.png
subject-03,1,745,1.47762703895569,bottle,oven,0,0745_pow_s03_0_oven_35_n04111531_19126.png
subject-03,1,746,1.40405488014221,cat,dog,0,0746_pow_s03_0_dog_35_n02097130_3007.png
subject-03,1,747,1.49159789085388,dog,bicycle,pow,0747_pow_s03_pow_bicycle_35_n03792782_7357.png
subject-03,1,748,1.2600040435791,truck,truck,pow,0748_pow_s03_pow_truck_35_n04467665_26416.png
subject-03,1,749,1.47863817214966,cat,cat,0,0749_pow_s03_0_cat_35_n02124075_14633.png
subject-03,1,750,1.23924207687378,cat,airplane,pow,0750_pow_s03_pow_airplane_35_n02690373_5300.png
subject-03,1,751,1.40267491340637,bird,bird,pow,0751_pow_s03_pow_bird_35_n01860187_20976.png
subject-03,1,752,0.747064113616943,chair,chair,0,0752_pow_s03_0_chair_35_n04099969_5577.png
subject-03,1,753,1.50016307830811,clock,chair,0,0753_pow_s03_0_chair_35_n04429376_26222.png
subject-03,1,754,1.48570394515991,bird,bicycle,0,0754_pow_s03_0_bicycle_35_n03792782_12453.png
subject-03,1,755,1.06783986091614,elephant,bear,0,0755_pow_s03_0_bear_35_n02133161_6349.png
subject-03,1,756,1.02026891708374,dog,cat,pow,0756_pow_s03_pow_cat_35_n02123394_2996.png
subject-03,1,757,0.978965997695923,airplane,airplane,pow,0757_pow_s03_pow_airplane_35_n02690373_4320.png
subject-03,1,758,1.50032114982605,car,car,pow,0758_pow_s03_pow_car_35_n03100240_8256.png
subject-03,1,759,0.995283842086792,elephant,elephant,pow,0759_pow_s03_pow_elephant_35_n02504458_11740.png
subject-03,1,760,0.907553911209106,car,car,0,0760_pow_s03_0_car_35_n04285008_5029.png
subject-03,1,761,NaN,na,dog,pow,0761_pow_s03_pow_dog_35_n02091134_1820.png
subject-03,1,762,1.2161009311676,bottle,bottle,pow,0762_pow_s03_pow_bottle_35_n03983396_5582.png
subject-03,1,763,1.50002813339233,elephant,dog,0,0763_pow_s03_0_dog_35_n02094433_6859.png
subject-03,1,764,1.20315718650818,dog,dog,0,0764_pow_s03_0_dog_35_n02111500_7681.png
subject-03,1,765,0.860886096954346,knife,knife,0,0765_pow_s03_0_knife_35_n03041632_37513.png
subject-03,1,766,1.08742785453796,cat,airplane,pow,0766_pow_s03_pow_airplane_35_n02690373_2837.png
subject-03,1,767,1.33977699279785,boat,airplane,pow,0767_pow_s03_pow_airplane_35_n02690373_6223.png
subject-03,1,768,1.45211791992188,knife,knife,pow,0768_pow_s03_pow_knife_35_n03041632_16172.png
subject-03,1,769,1.50010585784912,dog,cat,0,0769_pow_s03_0_cat_35_n02123159_1102.png
subject-03,1,770,1.05524778366089,keyboard,keyboard,0,0770_pow_s03_0_keyboard_35_n04505470_264.png
subject-03,1,771,NaN,na,boat,0,0771_pow_s03_0_boat_35_n03662601_7626.png
subject-03,1,772,1.26353287696838,airplane,airplane,pow,0772_pow_s03_pow_airplane_35_n02690373_9445.png
subject-03,1,773,0.908169031143188,truck,truck,0,0773_pow_s03_0_truck_35_n04467665_23695.png
subject-03,1,774,1.33430790901184,bear,oven,pow,0774_pow_s03_pow_oven_35_n04111531_12725.png
subject-03,1,775,0.762585163116455,clock,clock,0,0775_pow_s03_0_clock_35_n02708093_3535.png
subject-03,1,776,1.50018191337585,oven,knife,0,0776_pow_s03_0_knife_35_n03041632_24883.png
subject-03,1,777,1.20370388031006,elephant,dog,pow,0777_pow_s03_pow_dog_35_n02087394_27737.png
subject-03,1,778,1.5001540184021,bird,bear,pow,0778_pow_s03_pow_bear_35_n02134418_2457.png
subject-03,1,779,1.44252586364746,bear,oven,pow,0779_pow_s03_pow_oven_35_n04111531_2930.png
subject-03,1,780,1.2550630569458,dog,cat,pow,0780_pow_s03_pow_cat_35_n02123394_2984.png
subject-03,1,781,1.14563798904419,cat,bird,0,0781_pow_s03_0_bird_35_n02011460_8577.png
subject-03,1,782,1.14161705970764,cat,oven,pow,0782_pow_s03_pow_oven_35_n04111531_7717.png
subject-03,1,783,1.17018914222717,bird,bird,pow,0783_pow_s03_pow_bird_35_n01531178_5497.png
subject-03,1,784,0.822991132736206,boat,boat,0,0784_pow_s03_0_boat_35_n03662601_13834.png
subject-03,1,785,0.972657918930054,dog,dog,0,0785_pow_s03_0_dog_35_n02109525_832.png
subject-03,1,786,0.985101938247681,cat,dog,0,0786_pow_s03_0_dog_35_n02104365_1468.png
subject-03,1,787,0.873823881149292,bird,bird,0,0787_pow_s03_0_bird_35_n01560419_2432.png
subject-03,1,788,1.0774199962616,dog,elephant,pow,0788_pow_s03_pow_elephant_35_n02504013_1165.png
subject-03,1,789,1.18970084190369,cat,truck,pow,0789_pow_s03_pow_truck_35_n03796401_14571.png
subject-03,1,790,1.36402893066406,chair,knife,pow,0790_pow_s03_pow_knife_35_n03041632_86783.png
subject-03,1,791,0.796972990036011,keyboard,keyboard,0,0791_pow_s03_0_keyboard_35_n03085013_8867.png
subject-03,1,792,1.49074196815491,elephant,elephant,pow,0792_pow_s03_pow_elephant_35_n02504013_673.png
subject-03,1,793,1.2971019744873,clock,clock,pow,0793_pow_s03_pow_clock_35_n04548280_3036.png
subject-03,1,794,NaN,na,elephant,pow,0794_pow_s03_pow_elephant_35_n02504013_3805.png
subject-03,1,795,NaN,na,knife,0,0795_pow_s03_0_knife_35_n03041632_90125.png
subject-03,1,796,0.871664047241211,bicycle,bicycle,0,0796_pow_s03_0_bicycle_35_n02835271_7592.png
subject-03,1,797,0.915899991989136,airplane,airplane,0,0797_pow_s03_0_airplane_35_n02690373_1815.png
subject-03,1,798,1.4261519908905,bear,elephant,0,0798_pow_s03_0_elephant_35_n02504013_5027.png
subject-03,1,799,1.00041103363037,dog,dog,0,0799_pow_s03_0_dog_35_n02108000_6970.png
subject-03,1,800,0.798689126968384,bicycle,bicycle,pow,0800_pow_s03_pow_bicycle_35_n02835271_1918.png
subject-03,1,801,0.751461982727051,cat,cat,0,0801_pow_s03_0_cat_35_n02123159_9537.png
subject-03,1,802,1.00969505310059,bear,bear,0,0802_pow_s03_0_bear_35_n02133161_14361.png
subject-03,1,803,0.984315872192383,bear,bear,0,0803_pow_s03_0_bear_35_n02134084_2247.png
subject-03,1,804,1.06692695617676,bird,bird,0,0804_pow_s03_0_bird_35_n02037110_4923.png
subject-03,1,805,1.30155301094055,clock,clock,pow,0805_pow_s03_pow_clock_35_n04548280_377.png
subject-03,1,806,0.945441961288452,bear,bear,pow,0806_pow_s03_pow_bear_35_n02132136_1624.png
subject-03,1,807,1.11007905006409,knife,knife,0,0807_pow_s03_0_knife_35_n03041632_2058.png
subject-03,1,808,1.42183208465576,bear,elephant,pow,0808_pow_s03_pow_elephant_35_n02504013_3708.png
subject-03,1,809,1.35629796981812,bird,chair,pow,0809_pow_s03_pow_chair_35_n02791124_16127.png
subject-03,1,810,1.33830404281616,truck,truck,0,0810_pow_s03_0_truck_35_n04467665_66065.png
subject-03,1,811,1.40501093864441,keyboard,keyboard,0,0811_pow_s03_0_keyboard_35_n03085013_20262.png
subject-03,1,812,NaN,na,bear,pow,0812_pow_s03_pow_bear_35_n02132136_6856.png
subject-03,1,813,1.1142590045929,truck,truck,0,0813_pow_s03_0_truck_35_n04467665_71086.png
subject-03,1,814,1.33455204963684,bicycle,bicycle,0,0814_pow_s03_0_bicycle_35_n02835271_9661.png
subject-03,1,815,0.716453075408936,clock,clock,pow,0815_pow_s03_pow_clock_35_n04548280_8917.png
subject-03,1,816,1.09904313087463,dog,dog,pow,0816_pow_s03_pow_dog_35_n02108915_653.png
subject-03,1,817,1.17936301231384,dog,dog,0,0817_pow_s03_0_dog_35_n02092339_4462.png
subject-03,1,818,0.715723991394043,keyboard,keyboard,0,0818_pow_s03_0_keyboard_35_n04505470_5151.png
subject-03,1,819,0.881738901138306,chair,chair,pow,0819_pow_s03_pow_chair_35_n02791124_4706.png
subject-03,1,820,0.956272125244141,elephant,elephant,pow,0820_pow_s03_pow_elephant_35_n02504013_2861.png
subject-03,1,821,1.43709707260132,elephant,knife,pow,0821_pow_s03_pow_knife_35_n03041632_10777.png
subject-03,1,822,0.795335054397583,oven,oven,0,0822_pow_s03_0_oven_35_n04111531_7955.png
subject-03,1,823,0.907262086868286,bicycle,bicycle,0,0823_pow_s03_0_bicycle_35_n02835271_12453.png
subject-03,1,824,1.27398896217346,bird,truck,pow,0824_pow_s03_pow_truck_35_n04467665_37935.png
subject-03,1,825,1.18651008605957,dog,oven,pow,0825_pow_s03_pow_oven_35_n04111531_687.png
subject-03,1,826,1.16096806526184,bottle,knife,0,0826_pow_s03_0_knife_35_n03041632_26340.png
subject-03,1,827,0.781322956085205,bicycle,bicycle,0,0827_pow_s03_0_bicycle_35_n03792782_11169.png
subject-03,1,828,0.816830158233643,bottle,bottle,0,0828_pow_s03_0_bottle_35_n04591713_6493.png
subject-03,1,829,0.99760913848877,elephant,elephant,pow,0829_pow_s03_pow_elephant_35_n02504013_15805.png
subject-03,1,830,1.35361194610596,cat,cat,pow,0830_pow_s03_pow_cat_35_n02123045_10543.png
subject-03,1,831,1.08429789543152,keyboard,keyboard,pow,0831_pow_s03_pow_keyboard_35_n03085013_21241.png
subject-03,1,832,0.88847804069519,cat,oven,0,0832_pow_s03_0_oven_35_n04111531_12769.png
subject-03,1,833,1.25496602058411,dog,dog,0,0833_pow_s03_0_dog_35_n02099429_5298.png
subject-03,1,834,NaN,na,keyboard,pow,0834_pow_s03_pow_keyboard_35_n04505470_147.png
subject-03,1,835,1.29315304756165,boat,boat,0,0835_pow_s03_0_boat_35_n04273569_8541.png
subject-03,1,836,0.97608208656311,oven,boat,pow,0836_pow_s03_pow_boat_35_n03344393_1753.png
subject-03,1,837,0.858325958251953,cat,chair,pow,0837_pow_s03_pow_chair_35_n04429376_9022.png
subject-03,1,838,1.50025987625122,bird,chair,pow,0838_pow_s03_pow_chair_35_n02791124_4193.png
subject-03,1,839,1.22048807144165,cat,bear,0,0839_pow_s03_0_bear_35_n02133161_1271.png
subject-03,1,840,0.808265924453735,clock,clock,pow,0840_pow_s03_pow_clock_35_n03196217_4417.png
subject-03,1,841,0.945692777633667,car,car,pow,0841_pow_s03_pow_car_35_n04285008_7353.png
subject-03,1,842,0.711949110031128,clock,clock,0,0842_pow_s03_0_clock_35_n04548280_5221.png
subject-03,1,843,0.786463022232056,airplane,airplane,0,0843_pow_s03_0_airplane_35_n02690373_10395.png
subject-03,1,844,0.798017978668213,airplane,airplane,pow,0844_pow_s03_pow_airplane_35_n02690373_8599.png
subject-03,1,845,1.21668410301208,bicycle,bicycle,0,0845_pow_s03_0_bicycle_35_n02835271_12700.png
subject-03,1,846,0.828691005706787,airplane,airplane,pow,0846_pow_s03_pow_airplane_35_n02690373_4213.png
subject-03,1,847,1.13332200050354,dog,bottle,pow,0847_pow_s03_pow_bottle_35_n04560804_4704.png
subject-03,1,848,0.94475793838501,elephant,elephant,0,0848_pow_s03_0_elephant_35_n02504458_6.png
subject-03,1,849,0.77347993850708,airplane,boat,pow,0849_pow_s03_pow_boat_35_n03662601_7414.png
subject-03,1,850,1.50034093856812,truck,boat,0,0850_pow_s03_0_boat_35_n03344393_2421.png
subject-03,1,851,0.873480796813965,elephant,elephant,0,0851_pow_s03_0_elephant_35_n02504458_12374.png
subject-03,1,852,0.826056957244873,cat,car,pow,0852_pow_s03_pow_car_35_n03100240_5456.png
subject-03,1,853,1.09826993942261,truck,truck,0,0853_pow_s03_0_truck_35_n04467665_50746.png
subject-03,1,854,NaN,na,bear,pow,0854_pow_s03_pow_bear_35_n02132136_16887.png
subject-03,1,855,1.04746699333191,cat,dog,pow,0855_pow_s03_pow_dog_35_n02086646_3471.png
subject-03,1,856,1.03800797462463,knife,knife,0,0856_pow_s03_0_knife_35_n03041632_1671.png
subject-03,1,857,1.00199913978577,truck,truck,pow,0857_pow_s03_pow_truck_35_n03417042_18152.png
subject-03,1,858,1.40629410743713,dog,cat,0,0858_pow_s03_0_cat_35_n02125311_4805.png
subject-03,1,859,1.15065503120422,truck,truck,0,0859_pow_s03_0_truck_35_n04467665_63645.png
subject-03,1,860,1.36315512657166,airplane,airplane,0,0860_pow_s03_0_airplane_35_n02690373_4191.png
subject-03,1,861,1.44374299049377,knife,oven,pow,0861_pow_s03_pow_oven_35_n04111531_5776.png
subject-03,1,862,NaN,na,knife,0,0862_pow_s03_0_knife_35_n03041632_13612.png
subject-03,1,863,1.30054807662964,bear,elephant,pow,0863_pow_s03_pow_elephant_35_n02504013_22813.png
subject-03,1,864,1.21354198455811,dog,dog,pow,0864_pow_s03_pow_dog_35_n02098286_99.png
subject-03,1,865,1.27946615219116,bird,bird,0,0865_pow_s03_0_bird_35_n01795545_3732.png
subject-03,1,866,0.915682792663574,elephant,elephant,0,0866_pow_s03_0_elephant_35_n02504458_155.png
subject-03,1,867,1.06653809547424,cat,cat,pow,0867_pow_s03_pow_cat_35_n02123045_12666.png
subject-03,1,868,1.50008416175842,dog,dog,0,0868_pow_s03_0_dog_35_n02108422_7132.png
subject-03,1,869,1.02853083610535,car,car,0,0869_pow_s03_0_car_35_n04285008_6920.png
subject-03,1,870,0.894882917404175,boat,boat,0,0870_pow_s03_0_boat_35_n04273569_3598.png
subject-03,1,871,0.845061063766479,keyboard,keyboard,pow,0871_pow_s03_pow_keyboard_35_n04505470_1416.png
subject-03,1,872,0.805521965026855,clock,clock,0,0872_pow_s03_0_clock_35_n04548280_5503.png
subject-03,1,873,1.29412913322449,dog,oven,pow,0873_pow_s03_pow_oven_35_n04111531_22493.png
subject-03,1,874,1.15260291099548,bird,bird,0,0874_pow_s03_0_bird_35_n01855672_14591.png
subject-03,1,875,0.964707136154175,elephant,elephant,0,0875_pow_s03_0_elephant_35_n02504458_1327.png
subject-03,1,876,0.92274808883667,cat,keyboard,pow,0876_pow_s03_pow_keyboard_35_n03085013_2092.png
subject-03,1,877,0.935359954833984,car,car,pow,0877_pow_s03_pow_car_35_n03100240_11445.png
subject-03,1,878,0.817123174667358,clock,clock,pow,0878_pow_s03_pow_clock_35_n02708093_6257.png
subject-03,1,879,0.851346969604492,boat,boat,pow,0879_pow_s03_pow_boat_35_n03344393_6363.png
subject-03,1,880,0.70174503326416,cat,cat,pow,0880_pow_s03_pow_cat_35_n02123597_8113.png
subject-03,1,881,0.888995885848999,cat,dog,pow,0881_pow_s03_pow_dog_35_n02086910_15997.png
subject-03,1,882,1.11726379394531,elephant,elephant,pow,0882_pow_s03_pow_elephant_35_n02504458_3160.png
subject-03,1,883,1.15968608856201,keyboard,keyboard,pow,0883_pow_s03_pow_keyboard_35_n04505470_3970.png
subject-03,1,884,1.48628306388855,airplane,airplane,pow,0884_pow_s03_pow_airplane_35_n02690373_1611.png
subject-03,1,885,0.808927059173584,bottle,bottle,0,0885_pow_s03_0_bottle_35_n04591713_4291.png
subject-03,1,886,0.936869859695435,car,car,pow,0886_pow_s03_pow_car_35_n03100240_3286.png
subject-03,1,887,0.857446908950806,bottle,oven,0,0887_pow_s03_0_oven_35_n04111531_14871.png
subject-03,1,888,1.17609000205994,cat,bear,pow,0888_pow_s03_pow_bear_35_n02132136_3740.png
subject-03,1,889,1.08802103996277,bottle,bottle,0,0889_pow_s03_0_bottle_35_n04557648_2206.png
subject-03,1,890,0.890597820281982,keyboard,keyboard,0,0890_pow_s03_0_keyboard_35_n04505470_4575.png
subject-03,1,891,1.11696004867554,elephant,elephant,pow,0891_pow_s03_pow_elephant_35_n02504458_4327.png
subject-03,1,892,1.07500100135803,airplane,airplane,pow,0892_pow_s03_pow_airplane_35_n02690373_2440.png
subject-03,1,893,0.703405141830444,cat,cat,pow,0893_pow_s03_pow_cat_35_n02123045_7334.png
subject-03,1,894,1.06968188285828,bird,knife,pow,0894_pow_s03_pow_knife_35_n03041632_27963.png
subject-03,1,895,1.07953906059265,oven,knife,0,0895_pow_s03_0_knife_35_n03041632_22051.png
subject-03,1,896,1.27774095535278,dog,bear,pow,0896_pow_s03_pow_bear_35_n02134418_2502.png
subject-03,1,897,0.903940200805664,cat,cat,0,0897_pow_s03_0_cat_35_n02123597_7933.png
subject-03,1,898,0.755753993988037,keyboard,keyboard,pow,0898_pow_s03_pow_keyboard_35_n03085013_5751.png
subject-03,1,899,0.973773956298828,cat,bird,pow,0899_pow_s03_pow_bird_35_n01796340_1901.png
subject-03,1,900,NaN,na,bear,0,0900_pow_s03_0_bear_35_n02134084_11781.png
subject-03,1,901,0.852633953094482,clock,clock,0,0901_pow_s03_0_clock_35_n02708093_4255.png
subject-03,1,902,1.13294005393982,bottle,bottle,pow,0902_pow_s03_pow_bottle_35_n03983396_9776.png
subject-03,1,903,0.985351085662842,boat,airplane,pow,0903_pow_s03_pow_airplane_35_n02690373_4617.png
subject-03,1,904,1.48692393302917,bear,bear,pow,0904_pow_s03_pow_bear_35_n02134418_397.png
subject-03,1,905,1.25346398353577,elephant,elephant,0,0905_pow_s03_0_elephant_35_n02504458_5592.png
subject-03,1,906,0.943876981735229,car,car,pow,0906_pow_s03_pow_car_35_n03100240_12883.png
subject-03,1,907,0.778225898742676,cat,cat,0,0907_pow_s03_0_cat_35_n02123045_10203.png
subject-03,1,908,0.784621000289917,airplane,airplane,0,0908_pow_s03_0_airplane_35_n02690373_9959.png
subject-03,1,909,0.981282949447632,bicycle,bicycle,pow,0909_pow_s03_pow_bicycle_35_n02835271_8694.png
subject-03,1,910,0.739464044570923,cat,cat,pow,0910_pow_s03_pow_cat_35_n02123045_11034.png
subject-03,1,911,1.50019907951355,cat,bear,pow,0911_pow_s03_pow_bear_35_n02134418_1906.png
subject-03,1,912,0.869533061981201,cat,elephant,pow,0912_pow_s03_pow_elephant_35_n02504013_3695.png
subject-03,1,913,0.689949035644531,bicycle,bicycle,pow,0913_pow_s03_pow_bicycle_35_n03792782_9094.png
subject-03,1,914,0.734276056289673,car,car,pow,0914_pow_s03_pow_car_35_n02814533_28783.png
subject-03,1,915,1.04444885253906,cat,bear,pow,0915_pow_s03_pow_bear_35_n02133161_2880.png
subject-03,1,916,1.01879501342773,bird,keyboard,pow,0916_pow_s03_pow_keyboard_35_n03085013_7091.png
subject-03,1,917,0.731239795684814,cat,cat,0,0917_pow_s03_0_cat_35_n02123045_8085.png
subject-03,1,918,0.789891004562378,bird,boat,pow,0918_pow_s03_pow_boat_35_n03344393_6897.png
subject-03,1,919,0.918520927429199,boat,oven,0,0919_pow_s03_0_oven_35_n04111531_9881.png
subject-03,1,920,1.06873488426208,knife,oven,pow,0920_pow_s03_pow_oven_35_n04111531_10583.png
subject-03,1,921,NaN,na,airplane,pow,0921_pow_s03_pow_airplane_35_n02690373_2248.png
subject-03,1,922,1.44550895690918,car,car,pow,0922_pow_s03_pow_car_35_n02814533_62992.png
subject-03,1,923,0.99515700340271,car,car,pow,0923_pow_s03_pow_car_35_n02814533_37285.png
subject-03,1,924,0.815621852874756,boat,boat,0,0924_pow_s03_0_boat_35_n03344393_456.png
subject-03,1,925,0.881753921508789,elephant,elephant,0,0925_pow_s03_0_elephant_35_n02504458_2739.png
subject-03,1,926,0.870151042938232,airplane,airplane,pow,0926_pow_s03_pow_airplane_35_n02690373_4375.png
subject-03,1,927,0.920558929443359,keyboard,keyboard,0,0927_pow_s03_0_keyboard_35_n04505470_3551.png
subject-03,1,928,0.957045078277588,cat,cat,pow,0928_pow_s03_pow_cat_35_n02123394_1778.png
subject-03,1,929,0.828549861907959,bird,bird,pow,0929_pow_s03_pow_bird_35_n01855672_13898.png
subject-03,1,930,1.43294095993042,car,car,pow,0930_pow_s03_pow_car_35_n03100240_6311.png
subject-03,1,931,1.38352489471436,truck,chair,0,0931_pow_s03_0_chair_35_n02791124_2611.png
subject-03,1,932,1.4176869392395,elephant,bird,0,0932_pow_s03_0_bird_35_n01817953_13813.png
subject-03,1,933,0.961868047714233,cat,cat,pow,0933_pow_s03_pow_cat_35_n02123045_9721.png
subject-03,1,934,1.31845092773438,chair,chair,pow,0934_pow_s03_pow_chair_35_n02791124_8866.png
subject-03,1,935,1.35451292991638,elephant,bear,0,0935_pow_s03_0_bear_35_n02133161_546.png
subject-03,1,936,0.974308013916016,cat,boat,pow,0936_pow_s03_pow_boat_35_n03662601_24639.png
subject-03,1,937,1.34762406349182,truck,truck,0,0937_pow_s03_0_truck_35_n03796401_19997.png
subject-03,1,938,1.3216769695282,car,boat,pow,0938_pow_s03_pow_boat_35_n02951358_5732.png
subject-03,1,939,NaN,na,keyboard,0,0939_pow_s03_0_keyboard_35_n04505470_8828.png
subject-03,1,940,1.23018717765808,keyboard,keyboard,0,0940_pow_s03_0_keyboard_35_n04505470_7388.png
subject-03,1,941,1.22694611549377,bear,bear,0,0941_pow_s03_0_bear_35_n02134084_15882.png
subject-03,1,942,0.987268924713135,cat,oven,pow,0942_pow_s03_pow_oven_35_n04111531_3905.png
subject-03,1,943,NaN,na,cat,0,0943_pow_s03_0_cat_35_n02125311_11797.png
subject-03,1,944,1.2104229927063,clock,clock,pow,0944_pow_s03_pow_clock_35_n02708093_8311.png
subject-03,1,945,0.84040904045105,car,car,0,0945_pow_s03_0_car_35_n03100240_6822.png
subject-03,1,946,NaN,na,chair,0,0946_pow_s03_0_chair_35_n03376595_1881.png
subject-03,1,947,0.924892902374268,bottle,bottle,0,0947_pow_s03_0_bottle_35_n03983396_10330.png
subject-03,1,948,0.967669010162354,truck,truck,pow,0948_pow_s03_pow_truck_35_n04467665_4840.png
subject-03,1,949,1.01797008514404,keyboard,keyboard,0,0949_pow_s03_0_keyboard_35_n03085013_21948.png
subject-03,1,950,0.870271921157837,bottle,bottle,0,0950_pow_s03_0_bottle_35_n03983396_10471.png
subject-03,1,951,0.936546802520752,oven,clock,0,0951_pow_s03_0_clock_35_n04548280_9097.png
subject-03,1,952,0.819088935852051,bird,bird,pow,0952_pow_s03_pow_bird_35_n01616318_160.png
subject-03,1,953,1.19162797927856,elephant,elephant,pow,0953_pow_s03_pow_elephant_35_n02504013_3264.png
subject-03,1,954,1.22600293159485,cat,cat,pow,0954_pow_s03_pow_cat_35_n02125311_22057.png
subject-03,1,955,0.946080923080444,clock,chair,pow,0955_pow_s03_pow_chair_35_n04429376_46146.png
subject-03,1,956,1.04436802864075,oven,oven,0,0956_pow_s03_0_oven_35_n04111531_2051.png
subject-03,1,957,1.12477493286133,chair,chair,pow,0957_pow_s03_pow_chair_35_n03376595_8920.png
subject-03,1,958,1.19893288612366,cat,bear,pow,0958_pow_s03_pow_bear_35_n02132136_9105.png
subject-03,1,959,1.01143598556519,cat,cat,pow,0959_pow_s03_pow_cat_35_n02123394_3761.png
subject-03,1,960,1.4761221408844,dog,bear,pow,0960_pow_s03_pow_bear_35_n02132136_8312.png
subject-03,1,961,0.939359188079834,cat,bottle,0,0961_pow_s03_0_bottle_35_n03983396_11929.png
subject-03,1,962,0.575845003128052,clock,clock,0,0962_pow_s03_0_clock_35_n04548280_10167.png
subject-03,1,963,0.926144123077393,elephant,elephant,pow,0963_pow_s03_pow_elephant_35_n02504458_3153.png
subject-03,1,964,0.952462911605835,elephant,elephant,pow,0964_pow_s03_pow_elephant_35_n02504013_1785.png
subject-03,1,965,1.31086802482605,boat,bicycle,0,0965_pow_s03_0_bicycle_35_n03792782_8945.png
subject-03,1,966,0.830842971801758,airplane,airplane,0,0966_pow_s03_0_airplane_35_n02690373_3542.png
subject-03,1,967,0.921382904052734,airplane,airplane,0,0967_pow_s03_0_airplane_35_n02690373_2389.png
subject-03,1,968,1.01790904998779,knife,knife,pow,0968_pow_s03_pow_knife_35_n03041632_20504.png
subject-03,1,969,0.616568088531494,cat,cat,0,0969_pow_s03_0_cat_35_n02124075_924.png
subject-03,1,970,1.16489195823669,airplane,bird,0,0970_pow_s03_0_bird_35_n01796340_6657.png
subject-03,1,971,0.701471090316772,boat,boat,0,0971_pow_s03_0_boat_35_n02951358_30149.png
subject-03,1,972,0.960192203521729,truck,truck,0,0972_pow_s03_0_truck_35_n03796401_9514.png
subject-03,1,973,0.888308763504028,truck,truck,0,0973_pow_s03_0_truck_35_n03796401_8100.png
subject-03,1,974,1.15248799324036,car,truck,pow,0974_pow_s03_pow_truck_35_n03417042_28600.png
subject-03,1,975,1.06525802612305,bird,bird,pow,0975_pow_s03_pow_bird_35_n02056570_9608.png
subject-03,1,976,0.785184144973755,bottle,bottle,0,0976_pow_s03_0_bottle_35_n03983396_22326.png
subject-03,1,977,0.927350997924805,cat,knife,0,0977_pow_s03_0_knife_35_n03041632_98864.png
subject-03,1,978,1.11820578575134,bottle,bottle,0,0978_pow_s03_0_bottle_35_n03983396_9904.png
subject-03,1,979,1.29849910736084,chair,knife,pow,0979_pow_s03_pow_knife_35_n03041632_6557.png
subject-03,1,980,0.78912091255188,cat,cat,pow,0980_pow_s03_pow_cat_35_n02123159_6281.png
subject-03,1,981,0.877593040466309,airplane,airplane,pow,0981_pow_s03_pow_airplane_35_n02690373_4202.png
subject-03,1,982,0.913805961608887,keyboard,keyboard,0,0982_pow_s03_0_keyboard_35_n04505470_1537.png
subject-03,1,983,1.26262593269348,bottle,bottle,0,0983_pow_s03_0_bottle_35_n04560804_15029.png
subject-03,1,984,1.49160599708557,bicycle,bicycle,0,0984_pow_s03_0_bicycle_35_n03792782_10617.png
subject-03,1,985,1.07391309738159,bear,bear,pow,0985_pow_s03_pow_bear_35_n02132136_24476.png
subject-03,1,986,0.772606134414673,elephant,elephant,0,0986_pow_s03_0_elephant_35_n02504458_150.png
subject-03,1,987,1.42092204093933,dog,dog,0,0987_pow_s03_0_dog_35_n02100236_10615.png
subject-03,1,988,0.979284048080444,bear,bear,0,0988_pow_s03_0_bear_35_n02134418_982.png
subject-03,1,989,0.803210020065308,airplane,airplane,0,0989_pow_s03_0_airplane_35_n02690373_10079.png
subject-03,1,990,1.43404102325439,boat,boat,0,0990_pow_s03_0_boat_35_n03344393_728.png
subject-03,1,991,1.23019099235535,car,truck,pow,0991_pow_s03_pow_truck_35_n03417042_3752.png
subject-03,1,992,0.790687084197998,knife,knife,0,0992_pow_s03_0_knife_35_n03041632_22286.png
subject-03,1,993,0.979396104812622,airplane,airplane,pow,0993_pow_s03_pow_airplane_35_n02690373_4306.png
subject-03,1,994,1.43578505516052,bicycle,bicycle,0,0994_pow_s03_0_bicycle_35_n03792782_14293.png
subject-03,1,995,1.25619983673096,cat,bird,0,0995_pow_s03_0_bird_35_n01843065_3806.png
subject-03,1,996,1.44520807266235,bird,knife,0,0996_pow_s03_0_knife_35_n03041632_84086.png
subject-03,1,997,0.867485046386719,oven,oven,0,0997_pow_s03_0_oven_35_n04111531_15267.png
subject-03,1,998,0.779639959335327,car,car,0,0998_pow_s03_0_car_35_n04285008_12045.png
subject-03,1,999,0.759902954101562,car,car,pow,0999_pow_s03_pow_car_35_n04285008_5838.png
subject-03,1,1000,1.11822414398193,airplane,airplane,0,1000_pow_s03_0_airplane_35_n02690373_9762.png
subject-03,1,1001,1.09834098815918,bear,bear,0,1001_pow_s03_0_bear_35_n02134084_4431.png
subject-03,1,1002,0.864511966705322,bird,boat,pow,1002_pow_s03_pow_boat_35_n04273569_11898.png
subject-03,1,1003,1.40667104721069,oven,keyboard,0,1003_pow_s03_0_keyboard_35_n03085013_20704.png
subject-03,1,1004,0.820909023284912,oven,oven,0,1004_pow_s03_0_oven_35_n04111531_18430.png
subject-03,1,1005,1.18474817276001,bear,bear,0,1005_pow_s03_0_bear_35_n02134418_2022.png
subject-03,1,1006,1.41142010688782,knife,knife,pow,1006_pow_s03_pow_knife_35_n03041632_12242.png
subject-03,1,1007,0.779706954956055,bottle,bottle,pow,1007_pow_s03_pow_bottle_35_n03937543_9489.png
subject-03,1,1008,1.06046509742737,car,truck,pow,1008_pow_s03_pow_truck_35_n04467665_11374.png
subject-03,1,1009,1.32470512390137,dog,dog,0,1009_pow_s03_0_dog_35_n02088364_5352.png
subject-03,1,1010,1.47772812843323,cat,elephant,pow,1010_pow_s03_pow_elephant_35_n02504458_3228.png
subject-03,1,1011,1.1104907989502,chair,chair,0,1011_pow_s03_0_chair_35_n04099969_5513.png
subject-03,1,1012,1.0066089630127,airplane,airplane,0,1012_pow_s03_0_airplane_35_n02690373_3032.png
subject-03,1,1013,1.50004410743713,airplane,car,pow,1013_pow_s03_pow_car_35_n03100240_17417.png
subject-03,1,1014,1.21512603759766,oven,truck,pow,1014_pow_s03_pow_truck_35_n04467665_23516.png
subject-03,1,1015,1.38892507553101,boat,knife,pow,1015_pow_s03_pow_knife_35_n03041632_43634.png
subject-03,1,1016,1.3453152179718,elephant,elephant,0,1016_pow_s03_0_elephant_35_n02504013_2012.png
subject-03,1,1017,1.3518340587616,elephant,elephant,pow,1017_pow_s03_pow_elephant_35_n02504458_696.png
subject-03,1,1018,NaN,na,oven,pow,1018_pow_s03_pow_oven_35_n04111531_5991.png
subject-03,1,1019,1.00104093551636,bicycle,bicycle,0,1019_pow_s03_0_bicycle_35_n02835271_608.png
subject-03,1,1020,1.21116304397583,car,bottle,0,1020_pow_s03_0_bottle_35_n04557648_12225.png
subject-03,1,1021,1.50015902519226,boat,knife,0,1021_pow_s03_0_knife_35_n03041632_36806.png
subject-03,1,1022,0.813407897949219,cat,cat,0,1022_pow_s03_0_cat_35_n02123597_6582.png
subject-03,1,1023,1.29412412643433,bird,bird,pow,1023_pow_s03_pow_bird_35_n02033041_6493.png
subject-03,1,1024,1.37662696838379,keyboard,bottle,0,1024_pow_s03_0_bottle_35_n04557648_1403.png
subject-03,1,1025,1.28897094726562,chair,chair,0,1025_pow_s03_0_chair_35_n03376595_1981.png
subject-03,1,1026,0.947435855865479,bicycle,bicycle,0,1026_pow_s03_0_bicycle_35_n03792782_40118.png
subject-03,1,1027,1.05191993713379,elephant,elephant,0,1027_pow_s03_0_elephant_35_n02504458_11270.png
subject-03,1,1028,1.22655510902405,truck,airplane,pow,1028_pow_s03_pow_airplane_35_n02690373_764.png
subject-03,1,1029,1.02251195907593,bird,oven,pow,1029_pow_s03_pow_oven_35_n04111531_8046.png
subject-03,1,1030,0.774990081787109,boat,boat,0,1030_pow_s03_0_boat_35_n04273569_11427.png
subject-03,1,1031,0.801801204681396,car,car,pow,1031_pow_s03_pow_car_35_n03100240_3207.png
subject-03,1,1032,1.02783703804016,cat,cat,0,1032_pow_s03_0_cat_35_n02123597_14279.png
subject-03,1,1033,1.2699499130249,bear,oven,pow,1033_pow_s03_pow_oven_35_n04111531_21896.png
subject-03,1,1034,1.19067311286926,bird,bird,0,1034_pow_s03_0_bird_35_n01828970_7.png
subject-03,1,1035,0.872687101364136,car,car,0,1035_pow_s03_0_car_35_n03100240_1471.png
subject-03,1,1036,1.39118409156799,bottle,oven,0,1036_pow_s03_0_oven_35_n04111531_11110.png
subject-03,1,1037,0.797111988067627,bicycle,bicycle,0,1037_pow_s03_0_bicycle_35_n02835271_10915.png
subject-03,1,1038,1.21578812599182,truck,truck,0,1038_pow_s03_0_truck_35_n03417042_234.png
subject-03,1,1039,1.37431192398071,bear,elephant,0,1039_pow_s03_0_elephant_35_n02504458_6464.png
subject-03,1,1040,0.818205118179321,cat,bird,pow,1040_pow_s03_pow_bird_35_n01514859_257.png
subject-03,1,1041,0.852838039398193,oven,truck,0,1041_pow_s03_0_truck_35_n03417042_3280.png
subject-03,1,1042,NaN,na,bicycle,pow,1042_pow_s03_pow_bicycle_35_n03792782_7008.png
subject-03,1,1043,1.26970815658569,car,car,pow,1043_pow_s03_pow_car_35_n02814533_39958.png
subject-03,1,1044,1.50005984306335,cat,oven,0,1044_pow_s03_0_oven_35_n04111531_5279.png
subject-03,1,1045,0.956151008605957,elephant,elephant,pow,1045_pow_s03_pow_elephant_35_n02504458_7993.png
subject-03,1,1046,0.744829177856445,clock,clock,0,1046_pow_s03_0_clock_35_n02708093_4201.png
subject-03,1,1047,1.18718385696411,bird,knife,pow,1047_pow_s03_pow_knife_35_n03041632_35365.png
subject-03,1,1048,1.03751397132874,chair,chair,pow,1048_pow_s03_pow_chair_35_n03376595_9527.png
subject-03,1,1049,1.16608881950378,oven,bottle,pow,1049_pow_s03_pow_bottle_35_n04591713_3429.png
subject-03,1,1050,0.83254599571228,boat,boat,pow,1050_pow_s03_pow_boat_35_n04612504_6601.png
subject-03,1,1051,0.999827861785889,clock,clock,0,1051_pow_s03_0_clock_35_n04548280_15276.png
subject-03,1,1052,1.34171390533447,bird,dog,pow,1052_pow_s03_pow_dog_35_n02097298_9735.png
subject-03,1,1053,1.22993493080139,bird,bird,0,1053_pow_s03_0_bird_35_n01824575_2746.png
subject-03,1,1054,1.48839616775513,cat,elephant,0,1054_pow_s03_0_elephant_35_n02504013_6590.png
subject-03,1,1055,0.687098979949951,clock,clock,pow,1055_pow_s03_pow_clock_35_n04548280_9755.png
subject-03,1,1056,NaN,na,oven,0,1056_pow_s03_0_oven_35_n04111531_15682.png
subject-03,1,1057,0.912050008773804,airplane,airplane,0,1057_pow_s03_0_airplane_35_n02690373_12976.png
subject-03,1,1058,1.17103576660156,oven,oven,pow,1058_pow_s03_pow_oven_35_n04111531_18052.png
subject-03,1,1059,1.13722491264343,truck,truck,0,1059_pow_s03_0_truck_35_n04467665_37155.png
subject-03,1,1060,1.1653299331665,car,car,0,1060_pow_s03_0_car_35_n04285008_1314.png
subject-03,1,1061,1.20761704444885,keyboard,keyboard,pow,1061_pow_s03_pow_keyboard_35_n03085013_20661.png
subject-03,1,1062,1.15779805183411,chair,knife,0,1062_pow_s03_0_knife_35_n03041632_101673.png
subject-03,1,1063,1.09428906440735,oven,oven,pow,1063_pow_s03_pow_oven_35_n04111531_13560.png
subject-03,1,1064,0.914919137954712,clock,clock,0,1064_pow_s03_0_clock_35_n04548280_4178.png
subject-03,1,1065,0.965266942977905,cat,chair,pow,1065_pow_s03_pow_chair_35_n04429376_12605.png
subject-03,1,1066,0.777994155883789,clock,clock,pow,1066_pow_s03_pow_clock_35_n04548280_8672.png
subject-03,1,1067,0.730093002319336,cat,dog,pow,1067_pow_s03_pow_dog_35_n02092339_1052.png
subject-03,1,1068,1.31699419021606,bottle,truck,pow,1068_pow_s03_pow_truck_35_n03417042_20021.png
subject-03,1,1069,1.399080991745,knife,knife,0,1069_pow_s03_0_knife_35_n03041632_26710.png
subject-03,1,1070,1.31190204620361,chair,chair,0,1070_pow_s03_0_chair_35_n02791124_392.png
subject-03,1,1071,1.01073408126831,oven,oven,0,1071_pow_s03_0_oven_35_n04111531_20056.png
subject-03,1,1072,1.48344922065735,dog,oven,0,1072_pow_s03_0_oven_35_n04111531_21173.png
subject-03,1,1073,1.50008893013,bicycle,bicycle,0,1073_pow_s03_0_bicycle_35_n02835271_4797.png
subject-03,1,1074,1.14510703086853,clock,clock,0,1074_pow_s03_0_clock_35_n04548280_2436.png
subject-03,1,1075,1.07930898666382,bottle,bottle,pow,1075_pow_s03_pow_bottle_35_n04591713_7074.png
subject-03,1,1076,0.870035886764526,cat,oven,pow,1076_pow_s03_pow_oven_35_n04111531_6400.png
