subj,session,trial,rt,object_response,category,condition,imagename
subject-04,1,1,0.60942006111145,cat,cat,0,0001_pow_s04_0_cat_35_n02124075_2993.png
subject-04,1,2,0.794262886047363,cat,cat,0,0002_pow_s04_0_cat_35_n02124075_714.png
subject-04,1,3,0.516064167022705,clock,clock,0,0003_pow_s04_0_clock_35_n04548280_2045.png
subject-04,1,4,0.782794952392578,truck,truck,0,0004_pow_s04_0_truck_35_n04467665_34406.png
subject-04,1,5,0.856713056564331,bird,bird,0,0005_pow_s04_0_bird_35_n02025239_3712.png
subject-04,1,6,0.586560010910034,clock,clock,0,0006_pow_s04_0_clock_35_n03196217_5339.png
subject-04,1,7,0.579272985458374,airplane,airplane,pow,0007_pow_s04_pow_airplane_35_n02690373_1283.png
subject-04,1,8,0.631747007369995,airplane,airplane,0,0008_pow_s04_0_airplane_35_n02690373_7229.png
subject-04,1,9,0.605943202972412,car,car,pow,0009_pow_s04_pow_car_35_n02814533_34993.png
subject-04,1,10,0.704432010650635,car,car,0,0010_pow_s04_0_car_35_n03100240_8206.png
subject-04,1,11,0.802263021469116,truck,truck,0,0011_pow_s04_0_truck_35_n04467665_71480.png
subject-04,1,12,0.625152111053467,car,car,0,0012_pow_s04_0_car_35_n03100240_6607.png
subject-04,1,13,0.823473930358887,bottle,boat,pow,0013_pow_s04_pow_boat_35_n04273569_16253.png
subject-04,1,14,1.19959712028503,truck,truck,pow,0014_pow_s04_pow_truck_35_n03796401_13280.png
subject-04,1,15,0.76810097694397,bear,bear,pow,0015_pow_s04_pow_bear_35_n02134418_5753.png
subject-04,1,16,0.85852313041687,dog,dog,pow,0016_pow_s04_pow_dog_35_n02112018_3170.png
subject-04,1,17,0.694239139556885,cat,dog,0,0017_pow_s04_0_dog_35_n02112018_3755.png
subject-04,1,18,0.654259920120239,bird,bird,0,0018_pow_s04_0_bird_35_n01860187_767.png
subject-04,1,19,0.836285829544067,keyboard,oven,0,0019_pow_s04_0_oven_35_n04111531_7593.png
subject-04,1,20,0.804427146911621,cat,cat,0,0020_pow_s04_0_cat_35_n02123159_4722.png
subject-04,1,21,1.002690076828,bear,cat,0,0021_pow_s04_0_cat_35_n02125311_19257.png
subject-04,1,22,0.825276136398315,chair,chair,0,0022_pow_s04_0_chair_35_n04099969_2215.png
subject-04,1,23,0.617751121520996,oven,oven,0,0023_pow_s04_0_oven_35_n04111531_5578.png
subject-04,1,24,0.591905117034912,clock,clock,pow,0024_pow_s04_pow_clock_35_n04548280_23221.png
subject-04,1,25,0.7518470287323,oven,oven,0,0025_pow_s04_0_oven_35_n04111531_4250.png
subject-04,1,26,0.658103227615356,clock,clock,0,0026_pow_s04_0_clock_35_n03196217_3323.png
subject-04,1,27,0.672350883483887,clock,clock,0,0027_pow_s04_0_clock_35_n02708093_3751.png
subject-04,1,28,1.33891201019287,elephant,elephant,pow,0028_pow_s04_pow_elephant_35_n02504013_5894.png
subject-04,1,29,0.606663227081299,car,car,0,0029_pow_s04_0_car_35_n02814533_4374.png
subject-04,1,30,0.766561985015869,knife,knife,pow,0030_pow_s04_pow_knife_35_n03041632_2483.png
subject-04,1,31,0.757215023040771,oven,oven,pow,0031_pow_s04_pow_oven_35_n04111531_13277.png
subject-04,1,32,0.663788080215454,bird,bird,pow,0032_pow_s04_pow_bird_35_n01797886_3000.png
subject-04,1,33,0.702359199523926,car,truck,pow,0033_pow_s04_pow_truck_35_n03796401_9368.png
subject-04,1,34,0.708323001861572,airplane,airplane,0,0034_pow_s04_0_airplane_35_n02690373_2758.png
subject-04,1,35,0.61452579498291,keyboard,keyboard,pow,0035_pow_s04_pow_keyboard_35_n03085013_24591.png
subject-04,1,36,0.680513858795166,bear,bear,pow,0036_pow_s04_pow_bear_35_n02133161_2355.png
subject-04,1,37,0.602840900421143,clock,clock,pow,0037_pow_s04_pow_clock_35_n03196217_6193.png
subject-04,1,38,1.32342004776001,elephant,bird,pow,0038_pow_s04_pow_bird_35_n02002724_1008.png
subject-04,1,39,0.803327083587646,airplane,airplane,0,0039_pow_s04_0_airplane_35_n02690373_4055.png
subject-04,1,40,0.67809796333313,bottle,bottle,0,0040_pow_s04_0_bottle_35_n04591713_14.png
subject-04,1,41,0.776459932327271,bottle,bottle,0,0041_pow_s04_0_bottle_35_n02823428_3715.png
subject-04,1,42,1.13689684867859,bottle,bottle,0,0042_pow_s04_0_bottle_35_n04579145_3033.png
subject-04,1,43,0.70569109916687,bird,bird,0,0043_pow_s04_0_bird_35_n02027492_10047.png
subject-04,1,44,0.933899879455566,chair,chair,0,0044_pow_s04_0_chair_35_n02791124_8201.png
subject-04,1,45,0.640454053878784,chair,chair,pow,0045_pow_s04_pow_chair_35_n04099969_8032.png
subject-04,1,46,1.16445899009705,elephant,elephant,0,0046_pow_s04_0_elephant_35_n02504013_9949.png
subject-04,1,47,0.856488943099976,bottle,bird,pow,0047_pow_s04_pow_bird_35_n01833805_4117.png
subject-04,1,48,0.889301061630249,bear,bear,0,0048_pow_s04_0_bear_35_n02132136_5139.png
subject-04,1,49,1.08733582496643,car,car,0,0049_pow_s04_0_car_35_n02814533_42453.png
subject-04,1,50,0.901921987533569,bottle,bottle,0,0050_pow_s04_0_bottle_35_n03937543_1600.png
subject-04,1,51,0.732340812683105,bicycle,bicycle,0,0051_pow_s04_0_bicycle_35_n02835271_12246.png
subject-04,1,52,1.41472601890564,cat,bear,0,0052_pow_s04_0_bear_35_n02134418_699.png
subject-04,1,53,0.899244070053101,truck,truck,0,0053_pow_s04_0_truck_35_n04467665_46901.png
subject-04,1,54,0.83257007598877,bear,bear,0,0054_pow_s04_0_bear_35_n02132136_9311.png
subject-04,1,55,0.646995067596436,truck,truck,0,0055_pow_s04_0_truck_35_n04467665_32534.png
subject-04,1,56,0.853181838989258,keyboard,keyboard,pow,0056_pow_s04_pow_keyboard_35_n04505470_4501.png
subject-04,1,57,0.805479049682617,bird,bird,0,0057_pow_s04_0_bird_35_n01843383_6055.png
subject-04,1,58,1.03576803207397,airplane,boat,pow,0058_pow_s04_pow_boat_35_n04612504_35920.png
subject-04,1,59,0.693943977355957,keyboard,keyboard,pow,0059_pow_s04_pow_keyboard_35_n04505470_279.png
subject-04,1,60,0.845901012420654,oven,airplane,pow,0060_pow_s04_pow_airplane_35_n02690373_13021.png
subject-04,1,61,0.830708026885986,oven,bicycle,pow,0061_pow_s04_pow_bicycle_35_n02835271_19361.png
subject-04,1,62,0.804635047912598,truck,truck,0,0062_pow_s04_0_truck_35_n03417042_3214.png
subject-04,1,63,0.918821096420288,car,chair,0,0063_pow_s04_0_chair_35_n02791124_6091.png
subject-04,1,64,0.665410995483398,bottle,bottle,pow,0064_pow_s04_pow_bottle_35_n03983396_123.png
subject-04,1,65,0.761615991592407,car,car,pow,0065_pow_s04_pow_car_35_n02814533_10701.png
subject-04,1,66,0.662164926528931,bear,bear,pow,0066_pow_s04_pow_bear_35_n02133161_4015.png
subject-04,1,67,1.21238589286804,chair,chair,0,0067_pow_s04_0_chair_35_n02791124_9050.png
subject-04,1,68,0.855821132659912,oven,knife,0,0068_pow_s04_0_knife_35_n03041632_32377.png
subject-04,1,69,0.716348886489868,cat,cat,0,0069_pow_s04_0_cat_35_n02123045_10717.png
subject-04,1,70,0.853147983551025,chair,chair,pow,0070_pow_s04_pow_chair_35_n04099969_14629.png
subject-04,1,71,0.958477973937988,oven,oven,0,0071_pow_s04_0_oven_35_n04111531_9695.png
subject-04,1,72,0.916011095046997,cat,bird,pow,0072_pow_s04_pow_bird_35_n01797886_3956.png
subject-04,1,73,1.33626294136047,bird,bird,0,0073_pow_s04_0_bird_35_n01855032_5358.png
subject-04,1,74,1.044508934021,keyboard,truck,0,0074_pow_s04_0_truck_35_n03417042_5331.png
subject-04,1,75,0.934664964675903,cat,cat,0,0075_pow_s04_0_cat_35_n02125311_765.png
subject-04,1,76,0.857183933258057,bicycle,bicycle,0,0076_pow_s04_0_bicycle_35_n03792782_15156.png
subject-04,1,77,1.19375586509705,dog,dog,pow,0077_pow_s04_pow_dog_35_n02097474_17794.png
subject-04,1,78,1.04583621025085,bird,bird,pow,0078_pow_s04_pow_bird_35_n01833805_103.png
subject-04,1,79,1.26618885993958,truck,truck,pow,0079_pow_s04_pow_truck_35_n03796401_1710.png
subject-04,1,80,0.726899147033691,bear,bear,0,0080_pow_s04_0_bear_35_n02132136_13746.png
subject-04,1,81,0.776024103164673,cat,bear,pow,0081_pow_s04_pow_bear_35_n02134418_119.png
subject-04,1,82,0.752152919769287,bird,bird,0,0082_pow_s04_0_bird_35_n02037110_13536.png
subject-04,1,83,1.15668702125549,boat,bottle,pow,0083_pow_s04_pow_bottle_35_n04560804_4537.png
subject-04,1,84,0.825217008590698,car,car,0,0084_pow_s04_0_car_35_n02814533_77384.png
subject-04,1,85,0.739259958267212,oven,oven,pow,0085_pow_s04_pow_oven_35_n04111531_14690.png
subject-04,1,86,0.613280057907104,keyboard,keyboard,0,0086_pow_s04_0_keyboard_35_n03085013_21956.png
subject-04,1,87,0.941735982894897,truck,truck,0,0087_pow_s04_0_truck_35_n03417042_8887.png
subject-04,1,88,0.901737213134766,oven,chair,pow,0088_pow_s04_pow_chair_35_n03376595_3968.png
subject-04,1,89,1.05928897857666,boat,boat,0,0089_pow_s04_0_boat_35_n03662601_5915.png
subject-04,1,90,1.32779002189636,chair,chair,pow,0090_pow_s04_pow_chair_35_n04099969_13657.png
subject-04,1,91,0.948155164718628,boat,boat,pow,0091_pow_s04_pow_boat_35_n04612504_278.png
subject-04,1,92,0.946652889251709,bear,boat,pow,0092_pow_s04_pow_boat_35_n03662601_8299.png
subject-04,1,93,0.86906099319458,dog,dog,0,0093_pow_s04_0_dog_35_n02093256_9651.png
subject-04,1,94,0.797205924987793,elephant,elephant,pow,0094_pow_s04_pow_elephant_35_n02504458_10101.png
subject-04,1,95,0.727627992630005,cat,cat,pow,0095_pow_s04_pow_cat_35_n02123597_12950.png
subject-04,1,96,0.772463083267212,dog,dog,pow,0096_pow_s04_pow_dog_35_n02100877_19273.png
subject-04,1,97,1.07882499694824,truck,truck,pow,0097_pow_s04_pow_truck_35_n03796401_28097.png
subject-04,1,98,0.831171989440918,airplane,airplane,pow,0098_pow_s04_pow_airplane_35_n02690373_863.png
subject-04,1,99,0.843789100646973,keyboard,keyboard,0,0099_pow_s04_0_keyboard_35_n03085013_10984.png
subject-04,1,100,0.958327054977417,dog,dog,0,0100_pow_s04_0_dog_35_n02088238_11525.png
subject-04,1,101,1.14859986305237,bear,bear,pow,0101_pow_s04_pow_bear_35_n02134084_9956.png
subject-04,1,102,0.877243995666504,keyboard,keyboard,pow,0102_pow_s04_pow_keyboard_35_n04505470_568.png
subject-04,1,103,0.731787919998169,bicycle,bicycle,0,0103_pow_s04_0_bicycle_35_n02835271_10542.png
subject-04,1,104,0.53640604019165,car,car,0,0104_pow_s04_0_car_35_n03100240_18181.png
subject-04,1,105,0.766172885894775,chair,chair,pow,0105_pow_s04_pow_chair_35_n02791124_8604.png
subject-04,1,106,1.28803896903992,boat,boat,0,0106_pow_s04_0_boat_35_n02951358_7835.png
subject-04,1,107,0.92671012878418,cat,cat,0,0107_pow_s04_0_cat_35_n02123159_4442.png
subject-04,1,108,0.885179996490479,keyboard,keyboard,0,0108_pow_s04_0_keyboard_35_n04505470_4856.png
subject-04,1,109,1.06150603294373,bottle,oven,0,0109_pow_s04_0_oven_35_n04111531_22316.png
subject-04,1,110,1.04956388473511,keyboard,keyboard,0,0110_pow_s04_0_keyboard_35_n04505470_4454.png
subject-04,1,111,0.825598001480103,keyboard,keyboard,pow,0111_pow_s04_pow_keyboard_35_n03085013_19233.png
subject-04,1,112,NaN,na,dog,pow,0112_pow_s04_pow_dog_35_n02088364_13509.png
subject-04,1,113,1.33676409721375,bicycle,bicycle,pow,0113_pow_s04_pow_bicycle_35_n03792782_3342.png
subject-04,1,114,1.01888513565063,keyboard,truck,pow,0114_pow_s04_pow_truck_35_n03796401_2543.png
subject-04,1,115,0.841301918029785,airplane,airplane,0,0115_pow_s04_0_airplane_35_n02690373_2874.png
subject-04,1,116,0.893926858901978,boat,boat,0,0116_pow_s04_0_boat_35_n04273569_16515.png
subject-04,1,117,0.844325065612793,chair,chair,0,0117_pow_s04_0_chair_35_n02791124_5673.png
subject-04,1,118,0.834319114685059,elephant,elephant,pow,0118_pow_s04_pow_elephant_35_n02504013_2052.png
subject-04,1,119,0.803009033203125,cat,cat,pow,0119_pow_s04_pow_cat_35_n02123045_12211.png
subject-04,1,120,0.963288068771362,bottle,bottle,0,0120_pow_s04_0_bottle_35_n04591713_4931.png
subject-04,1,121,0.961722135543823,cat,cat,pow,0121_pow_s04_pow_cat_35_n02123394_2516.png
subject-04,1,122,1.4582531452179,bicycle,dog,0,0122_pow_s04_0_dog_35_n02091831_8753.png
subject-04,1,123,1.09450697898865,cat,cat,pow,0123_pow_s04_pow_cat_35_n02123394_4675.png
subject-04,1,124,0.792682886123657,knife,knife,0,0124_pow_s04_0_knife_35_n03041632_4269.png
subject-04,1,125,1.04498410224915,truck,truck,0,0125_pow_s04_0_truck_35_n04467665_9123.png
subject-04,1,126,0.79715895652771,car,car,pow,0126_pow_s04_pow_car_35_n04285008_7353.png
subject-04,1,127,0.858690977096558,keyboard,knife,pow,0127_pow_s04_pow_knife_35_n03041632_18766.png
subject-04,1,128,0.941112995147705,keyboard,chair,pow,0128_pow_s04_pow_chair_35_n03376595_16763.png
subject-04,1,129,0.785711050033569,oven,oven,pow,0129_pow_s04_pow_oven_35_n04111531_1298.png
subject-04,1,130,0.6843581199646,oven,oven,0,0130_pow_s04_0_oven_35_n04111531_4452.png
subject-04,1,131,0.660682916641235,car,car,pow,0131_pow_s04_pow_car_35_n04285008_8530.png
subject-04,1,132,0.789396047592163,cat,cat,0,0132_pow_s04_0_cat_35_n02123394_8629.png
subject-04,1,133,0.785065889358521,clock,clock,pow,0133_pow_s04_pow_clock_35_n03196217_1962.png
subject-04,1,134,0.707431077957153,cat,dog,0,0134_pow_s04_0_dog_35_n02113712_8367.png
subject-04,1,135,0.701830863952637,car,car,pow,0135_pow_s04_pow_car_35_n02814533_17701.png
subject-04,1,136,0.822062969207764,bicycle,bicycle,0,0136_pow_s04_0_bicycle_35_n02835271_21558.png
subject-04,1,137,1.33440399169922,cat,cat,pow,0137_pow_s04_pow_cat_35_n02123597_8089.png
subject-04,1,138,0.802493095397949,oven,oven,0,0138_pow_s04_0_oven_35_n04111531_6415.png
subject-04,1,139,0.854948997497559,bear,elephant,pow,0139_pow_s04_pow_elephant_35_n02504013_6461.png
subject-04,1,140,0.869138956069946,bicycle,bicycle,pow,0140_pow_s04_pow_bicycle_35_n03792782_7344.png
subject-04,1,141,0.989734172821045,bird,bird,pow,0141_pow_s04_pow_bird_35_n01843383_6960.png
subject-04,1,142,0.864033937454224,bear,bear,0,0142_pow_s04_0_bear_35_n02133161_1716.png
subject-04,1,143,0.686048030853271,bear,bear,0,0143_pow_s04_0_bear_35_n02133161_1970.png
subject-04,1,144,0.876255989074707,airplane,airplane,pow,0144_pow_s04_pow_airplane_35_n02690373_10510.png
subject-04,1,145,1.01847791671753,bear,dog,pow,0145_pow_s04_pow_dog_35_n02108551_18962.png
subject-04,1,146,0.703092098236084,oven,oven,pow,0146_pow_s04_pow_oven_35_n04111531_2960.png
subject-04,1,147,NaN,na,airplane,0,0147_pow_s04_0_airplane_35_n02690373_2676.png
subject-04,1,148,0.935637950897217,knife,boat,pow,0148_pow_s04_pow_boat_35_n02951358_30479.png
subject-04,1,149,0.741343975067139,bear,bear,pow,0149_pow_s04_pow_bear_35_n02134084_6118.png
subject-04,1,150,0.761039018630981,clock,clock,0,0150_pow_s04_0_clock_35_n03196217_10384.png
subject-04,1,151,0.981611967086792,elephant,elephant,pow,0151_pow_s04_pow_elephant_35_n02504458_2607.png
subject-04,1,152,0.846978902816772,bottle,bottle,0,0152_pow_s04_0_bottle_35_n04560804_4531.png
subject-04,1,153,1.3675639629364,dog,dog,0,0153_pow_s04_0_dog_35_n02099849_478.png
subject-04,1,154,1.04408478736877,bear,bear,0,0154_pow_s04_0_bear_35_n02134418_5120.png
subject-04,1,155,0.9045250415802,boat,oven,0,0155_pow_s04_0_oven_35_n04111531_21855.png
subject-04,1,156,0.77895188331604,bicycle,bicycle,0,0156_pow_s04_0_bicycle_35_n02835271_10414.png
subject-04,1,157,0.769573926925659,bottle,bottle,0,0157_pow_s04_0_bottle_35_n03983396_1090.png
subject-04,1,158,0.743119955062866,oven,oven,0,0158_pow_s04_0_oven_35_n04111531_9424.png
subject-04,1,159,0.986870050430298,knife,knife,pow,0159_pow_s04_pow_knife_35_n03041632_1607.png
subject-04,1,160,1.02338099479675,oven,oven,pow,0160_pow_s04_pow_oven_35_n04111531_15467.png
subject-04,1,161,0.835546016693115,airplane,airplane,0,0161_pow_s04_0_airplane_35_n02690373_7239.png
subject-04,1,162,0.702211856842041,truck,truck,0,0162_pow_s04_0_truck_35_n03417042_8654.png
subject-04,1,163,1.09252595901489,bottle,keyboard,pow,0163_pow_s04_pow_keyboard_35_n04505470_4973.png
subject-04,1,164,0.720244884490967,oven,oven,0,0164_pow_s04_0_oven_35_n04111531_10672.png
subject-04,1,165,0.672857046127319,keyboard,keyboard,0,0165_pow_s04_0_keyboard_35_n03085013_21155.png
subject-04,1,166,0.603127002716064,airplane,airplane,0,0166_pow_s04_0_airplane_35_n02690373_7370.png
subject-04,1,167,0.60753607749939,boat,boat,0,0167_pow_s04_0_boat_35_n04612504_15068.png
subject-04,1,168,0.706228971481323,bicycle,bicycle,0,0168_pow_s04_0_bicycle_35_n03792782_2364.png
subject-04,1,169,0.842046976089478,oven,truck,pow,0169_pow_s04_pow_truck_35_n03417042_8247.png
subject-04,1,170,0.686372995376587,airplane,airplane,pow,0170_pow_s04_pow_airplane_35_n02690373_4269.png
subject-04,1,171,0.605808973312378,clock,clock,pow,0171_pow_s04_pow_clock_35_n04548280_3013.png
subject-04,1,172,0.93353796005249,oven,oven,pow,0172_pow_s04_pow_oven_35_n04111531_8531.png
subject-04,1,173,0.585806131362915,bicycle,bicycle,0,0173_pow_s04_0_bicycle_35_n03792782_4382.png
subject-04,1,174,0.644106864929199,airplane,airplane,0,0174_pow_s04_0_airplane_35_n02690373_4176.png
subject-04,1,175,0.972470045089722,knife,cat,pow,0175_pow_s04_pow_cat_35_n02123597_8771.png
subject-04,1,176,0.75666618347168,bottle,bottle,pow,0176_pow_s04_pow_bottle_35_n03983396_2556.png
subject-04,1,177,0.606291770935059,bottle,bottle,0,0177_pow_s04_0_bottle_35_n04591713_2038.png
subject-04,1,178,0.654736995697021,cat,cat,0,0178_pow_s04_0_cat_35_n02123597_9842.png
subject-04,1,179,1.1590678691864,oven,elephant,0,0179_pow_s04_0_elephant_35_n02504013_6222.png
subject-04,1,180,0.759236097335815,oven,boat,pow,0180_pow_s04_pow_boat_35_n03662601_1789.png
subject-04,1,181,1.5001699924469,dog,dog,0,0181_pow_s04_0_dog_35_n02113712_8055.png
subject-04,1,182,0.758211851119995,bottle,bottle,pow,0182_pow_s04_pow_bottle_35_n04560804_9848.png
subject-04,1,183,0.608860015869141,truck,truck,0,0183_pow_s04_0_truck_35_n04467665_30756.png
subject-04,1,184,0.758803844451904,clock,clock,0,0184_pow_s04_0_clock_35_n04548280_4306.png
subject-04,1,185,0.689659833908081,car,car,pow,0185_pow_s04_pow_car_35_n02814533_9785.png
subject-04,1,186,0.587512969970703,cat,cat,0,0186_pow_s04_0_cat_35_n02123597_5816.png
subject-04,1,187,0.754148960113525,airplane,airplane,pow,0187_pow_s04_pow_airplane_35_n02690373_6046.png
subject-04,1,188,1.45857310295105,airplane,airplane,0,0188_pow_s04_0_airplane_35_n02690373_13326.png
subject-04,1,189,1.15118718147278,dog,elephant,pow,0189_pow_s04_pow_elephant_35_n02504458_6301.png
subject-04,1,190,0.649327039718628,dog,dog,0,0190_pow_s04_0_dog_35_n02113712_5399.png
subject-04,1,191,0.609158992767334,car,car,pow,0191_pow_s04_pow_car_35_n02814533_23926.png
subject-04,1,192,0.737380027770996,cat,dog,0,0192_pow_s04_0_dog_35_n02100877_11080.png
subject-04,1,193,0.981990814208984,bear,oven,pow,0193_pow_s04_pow_oven_35_n04111531_24065.png
subject-04,1,194,0.801800012588501,clock,knife,pow,0194_pow_s04_pow_knife_35_n03041632_17100.png
subject-04,1,195,0.670251846313477,bear,bear,pow,0195_pow_s04_pow_bear_35_n02132136_2752.png
subject-04,1,196,1.04480195045471,truck,truck,pow,0196_pow_s04_pow_truck_35_n03796401_9601.png
subject-04,1,197,1.295166015625,bear,bear,pow,0197_pow_s04_pow_bear_35_n02133161_3877.png
subject-04,1,198,0.903866052627563,car,car,pow,0198_pow_s04_pow_car_35_n03100240_22844.png
subject-04,1,199,0.962618827819824,elephant,elephant,0,0199_pow_s04_0_elephant_35_n02504458_2031.png
subject-04,1,200,1.07718300819397,bear,boat,pow,0200_pow_s04_pow_boat_35_n04273569_11038.png
subject-04,1,201,1.03715085983276,elephant,elephant,pow,0201_pow_s04_pow_elephant_35_n02504458_35.png
subject-04,1,202,0.811208009719849,oven,oven,pow,0202_pow_s04_pow_oven_35_n04111531_4750.png
subject-04,1,203,0.663851976394653,bear,bear,0,0203_pow_s04_0_bear_35_n02132136_9609.png
subject-04,1,204,0.784187078475952,cat,cat,pow,0204_pow_s04_pow_cat_35_n02124075_1707.png
subject-04,1,205,0.768543004989624,bottle,bottle,pow,0205_pow_s04_pow_bottle_35_n04560804_26772.png
subject-04,1,206,0.996878862380981,car,clock,pow,0206_pow_s04_pow_clock_35_n04548280_668.png
subject-04,1,207,0.771231889724731,airplane,airplane,0,0207_pow_s04_0_airplane_35_n02690373_9264.png
subject-04,1,208,0.939514875411987,knife,knife,0,0208_pow_s04_0_knife_35_n03041632_4318.png
subject-04,1,209,NaN,na,dog,0,0209_pow_s04_0_dog_35_n02085936_5609.png
subject-04,1,210,0.874769926071167,cat,cat,0,0210_pow_s04_0_cat_35_n02124075_947.png
subject-04,1,211,1.08073592185974,bicycle,bicycle,0,0211_pow_s04_0_bicycle_35_n02835271_1573.png
subject-04,1,212,1.2173969745636,oven,bicycle,pow,0212_pow_s04_pow_bicycle_35_n02835271_9416.png
subject-04,1,213,0.815566062927246,airplane,airplane,0,0213_pow_s04_0_airplane_35_n02690373_3956.png
subject-04,1,214,0.74406909942627,boat,boat,0,0214_pow_s04_0_boat_35_n04273569_22576.png
subject-04,1,215,1.1964259147644,bicycle,bicycle,pow,0215_pow_s04_pow_bicycle_35_n03792782_5405.png
subject-04,1,216,0.824982166290283,bear,bear,pow,0216_pow_s04_pow_bear_35_n02134418_2814.png
subject-04,1,217,1.03127908706665,elephant,bear,0,0217_pow_s04_0_bear_35_n02133161_15394.png
subject-04,1,218,0.843769073486328,bear,cat,pow,0218_pow_s04_pow_cat_35_n02123159_4119.png
subject-04,1,219,0.866631984710693,car,car,pow,0219_pow_s04_pow_car_35_n03100240_6173.png
subject-04,1,220,0.68665885925293,bear,bear,0,0220_pow_s04_0_bear_35_n02134084_14913.png
subject-04,1,221,1.25283789634705,car,truck,pow,0221_pow_s04_pow_truck_35_n03796401_4390.png
subject-04,1,222,0.821136951446533,bear,elephant,pow,0222_pow_s04_pow_elephant_35_n02504013_6471.png
subject-04,1,223,1.10316395759583,dog,dog,pow,0223_pow_s04_pow_dog_35_n02089973_2608.png
subject-04,1,224,0.931518077850342,bottle,oven,pow,0224_pow_s04_pow_oven_35_n04111531_7355.png
subject-04,1,225,1.14589285850525,car,car,pow,0225_pow_s04_pow_car_35_n02814533_35745.png
subject-04,1,226,1.42860388755798,elephant,elephant,0,0226_pow_s04_0_elephant_35_n02504458_8151.png
subject-04,1,227,1.19382786750793,oven,knife,pow,0227_pow_s04_pow_knife_35_n03041632_31271.png
subject-04,1,228,0.661865949630737,clock,clock,pow,0228_pow_s04_pow_clock_35_n02708093_6597.png
subject-04,1,229,0.724917888641357,car,car,0,0229_pow_s04_0_car_35_n02814533_9449.png
subject-04,1,230,0.707395076751709,bottle,bottle,0,0230_pow_s04_0_bottle_35_n04591713_573.png
subject-04,1,231,1.10585498809814,knife,knife,0,0231_pow_s04_0_knife_35_n03041632_46091.png
subject-04,1,232,1.05040597915649,cat,dog,pow,0232_pow_s04_pow_dog_35_n02100735_3514.png
subject-04,1,233,NaN,na,bear,pow,0233_pow_s04_pow_bear_35_n02133161_4968.png
subject-04,1,234,NaN,na,clock,0,0234_pow_s04_0_clock_35_n04548280_8225.png
subject-04,1,235,0.607583999633789,keyboard,keyboard,pow,0235_pow_s04_pow_keyboard_35_n03085013_22027.png
subject-04,1,236,0.781607866287231,elephant,elephant,pow,0236_pow_s04_pow_elephant_35_n02504013_2770.png
subject-04,1,237,0.617345094680786,car,car,pow,0237_pow_s04_pow_car_35_n02814533_55054.png
subject-04,1,238,0.737582921981812,bird,bird,0,0238_pow_s04_0_bird_35_n01534433_3762.png
subject-04,1,239,0.896023988723755,keyboard,keyboard,0,0239_pow_s04_0_keyboard_35_n04505470_264.png
subject-04,1,240,1.17886281013489,chair,bicycle,0,0240_pow_s04_0_bicycle_35_n02835271_8271.png
subject-04,1,241,0.838886022567749,truck,truck,0,0241_pow_s04_0_truck_35_n03417042_18590.png
subject-04,1,242,0.759010076522827,bicycle,bicycle,pow,0242_pow_s04_pow_bicycle_35_n02835271_12237.png
subject-04,1,243,0.757133007049561,boat,bicycle,0,0243_pow_s04_0_bicycle_35_n03792782_7678.png
subject-04,1,244,0.993705034255981,knife,knife,0,0244_pow_s04_0_knife_35_n03041632_131.png
subject-04,1,245,1.34592413902283,truck,knife,0,0245_pow_s04_0_knife_35_n03041632_46103.png
subject-04,1,246,1.05257081985474,oven,oven,0,0246_pow_s04_0_oven_35_n04111531_1723.png
subject-04,1,247,0.581105947494507,car,car,0,0247_pow_s04_0_car_35_n04285008_14554.png
subject-04,1,248,0.633373975753784,bird,bird,pow,0248_pow_s04_pow_bird_35_n01530575_5933.png
subject-04,1,249,0.640538930892944,airplane,airplane,0,0249_pow_s04_0_airplane_35_n02690373_2923.png
subject-04,1,250,0.682770013809204,boat,boat,0,0250_pow_s04_0_boat_35_n03344393_1115.png
subject-04,1,251,0.964931011199951,oven,bird,pow,0251_pow_s04_pow_bird_35_n02028035_4053.png
subject-04,1,252,0.879400968551636,oven,oven,0,0252_pow_s04_0_oven_35_n04111531_19126.png
subject-04,1,253,0.699956893920898,oven,oven,0,0253_pow_s04_0_oven_35_n04111531_8688.png
subject-04,1,254,1.04430603981018,keyboard,keyboard,0,0254_pow_s04_0_keyboard_35_n04505470_2358.png
subject-04,1,255,0.864507913589478,oven,clock,pow,0255_pow_s04_pow_clock_35_n02708093_1495.png
subject-04,1,256,0.594835042953491,clock,clock,pow,0256_pow_s04_pow_clock_35_n03196217_95.png
subject-04,1,257,1.08242607116699,truck,truck,pow,0257_pow_s04_pow_truck_35_n04467665_5441.png
subject-04,1,258,0.818581104278564,bear,dog,pow,0258_pow_s04_pow_dog_35_n02110806_5994.png
subject-04,1,259,0.833259105682373,keyboard,keyboard,pow,0259_pow_s04_pow_keyboard_35_n03085013_19707.png
subject-04,1,260,1.14583206176758,dog,dog,0,0260_pow_s04_0_dog_35_n02096294_5189.png
subject-04,1,261,1.49545001983643,bottle,knife,pow,0261_pow_s04_pow_knife_35_n03041632_16020.png
subject-04,1,262,1.20977711677551,oven,oven,pow,0262_pow_s04_pow_oven_35_n04111531_13797.png
subject-04,1,263,1.10008502006531,boat,boat,pow,0263_pow_s04_pow_boat_35_n03662601_8221.png
subject-04,1,264,1.2077260017395,clock,oven,pow,0264_pow_s04_pow_oven_35_n04111531_409.png
subject-04,1,265,1.36600804328918,boat,boat,0,0265_pow_s04_0_boat_35_n02951358_12270.png
subject-04,1,266,1.06399393081665,cat,cat,pow,0266_pow_s04_pow_cat_35_n02123597_8079.png
subject-04,1,267,0.670577049255371,cat,cat,pow,0267_pow_s04_pow_cat_35_n02123045_5093.png
subject-04,1,268,0.777147054672241,keyboard,keyboard,pow,0268_pow_s04_pow_keyboard_35_n04505470_1719.png
subject-04,1,269,0.973640918731689,boat,boat,0,0269_pow_s04_0_boat_35_n02951358_12254.png
subject-04,1,270,1.32539701461792,chair,truck,0,0270_pow_s04_0_truck_35_n03417042_5576.png
subject-04,1,271,0.883423805236816,keyboard,keyboard,pow,0271_pow_s04_pow_keyboard_35_n04505470_1415.png
subject-04,1,272,NaN,na,dog,pow,0272_pow_s04_pow_dog_35_n02094114_510.png
subject-04,1,273,0.641566038131714,airplane,airplane,0,0273_pow_s04_0_airplane_35_n02690373_9059.png
subject-04,1,274,1.21330690383911,bird,bird,0,0274_pow_s04_0_bird_35_n01530575_10287.png
subject-04,1,275,0.949796915054321,bottle,bottle,pow,0275_pow_s04_pow_bottle_35_n04591713_3647.png
subject-04,1,276,0.648015022277832,airplane,airplane,pow,0276_pow_s04_pow_airplane_35_n02690373_713.png
subject-04,1,277,0.746134996414185,knife,knife,pow,0277_pow_s04_pow_knife_35_n03041632_4806.png
subject-04,1,278,0.820603132247925,chair,keyboard,pow,0278_pow_s04_pow_keyboard_35_n03085013_26656.png
subject-04,1,279,0.84108304977417,dog,dog,0,0279_pow_s04_0_dog_35_n02093754_3151.png
subject-04,1,280,0.881091117858887,knife,knife,pow,0280_pow_s04_pow_knife_35_n03041632_32292.png
subject-04,1,281,1.1637761592865,keyboard,keyboard,pow,0281_pow_s04_pow_keyboard_35_n03085013_28150.png
subject-04,1,282,1.17587900161743,bear,dog,0,0282_pow_s04_0_dog_35_n02110958_8606.png
subject-04,1,283,1.04372596740723,elephant,elephant,pow,0283_pow_s04_pow_elephant_35_n02504458_5271.png
subject-04,1,284,NaN,na,elephant,0,0284_pow_s04_0_elephant_35_n02504458_6339.png
subject-04,1,285,0.984827995300293,elephant,bicycle,pow,0285_pow_s04_pow_bicycle_35_n02835271_1028.png
subject-04,1,286,0.983350038528442,car,truck,pow,0286_pow_s04_pow_truck_35_n03796401_430.png
subject-04,1,287,0.957550048828125,bicycle,bicycle,pow,0287_pow_s04_pow_bicycle_35_n02835271_749.png
subject-04,1,288,1.1316020488739,car,chair,0,0288_pow_s04_0_chair_35_n04099969_2868.png
subject-04,1,289,1.11404895782471,car,car,pow,0289_pow_s04_pow_car_35_n03100240_3522.png
subject-04,1,290,NaN,na,dog,pow,0290_pow_s04_pow_dog_35_n02102177_4926.png
subject-04,1,291,1.47103905677795,bicycle,bicycle,0,0291_pow_s04_0_bicycle_35_n02835271_22143.png
subject-04,1,292,1.0155508518219,bear,bear,0,0292_pow_s04_0_bear_35_n02133161_991.png
subject-04,1,293,NaN,na,boat,0,0293_pow_s04_0_boat_35_n03662601_14072.png
subject-04,1,294,0.766865015029907,chair,chair,0,0294_pow_s04_0_chair_35_n03376595_13718.png
subject-04,1,295,1.08706283569336,boat,truck,pow,0295_pow_s04_pow_truck_35_n04467665_6450.png
subject-04,1,296,0.893892049789429,car,car,0,0296_pow_s04_0_car_35_n02814533_82372.png
subject-04,1,297,1.03834915161133,cat,chair,0,0297_pow_s04_0_chair_35_n02791124_10784.png
subject-04,1,298,0.842843055725098,car,car,pow,0298_pow_s04_pow_car_35_n04285008_1313.png
subject-04,1,299,0.825086116790771,bicycle,bicycle,0,0299_pow_s04_0_bicycle_35_n02835271_4255.png
subject-04,1,300,0.847733974456787,car,chair,0,0300_pow_s04_0_chair_35_n04429376_19717.png
subject-04,1,301,0.843749046325684,cat,cat,0,0301_pow_s04_0_cat_35_n02123394_5111.png
subject-04,1,302,0.655359029769897,cat,cat,pow,0302_pow_s04_pow_cat_35_n02125311_24589.png
subject-04,1,303,0.945317983627319,bear,bear,pow,0303_pow_s04_pow_bear_35_n02132136_4849.png
subject-04,1,304,NaN,na,elephant,0,0304_pow_s04_0_elephant_35_n02504458_2919.png
subject-04,1,305,1.24783682823181,dog,dog,0,0305_pow_s04_0_dog_35_n02102177_7078.png
subject-04,1,306,0.976180076599121,clock,chair,0,0306_pow_s04_0_chair_35_n02791124_1996.png
subject-04,1,307,0.72117280960083,knife,knife,pow,0307_pow_s04_pow_knife_35_n03041632_9671.png
subject-04,1,308,0.943957090377808,boat,cat,pow,0308_pow_s04_pow_cat_35_n02124075_2650.png
subject-04,1,309,0.964173793792725,clock,knife,pow,0309_pow_s04_pow_knife_35_n03041632_36834.png
subject-04,1,310,0.617156982421875,chair,chair,0,0310_pow_s04_0_chair_35_n03376595_4142.png
subject-04,1,311,1.02135491371155,car,bird,0,0311_pow_s04_0_bird_35_n01855032_7615.png
subject-04,1,312,1.13562488555908,dog,cat,pow,0312_pow_s04_pow_cat_35_n02124075_7956.png
subject-04,1,313,NaN,na,bottle,pow,0313_pow_s04_pow_bottle_35_n04557648_2400.png
subject-04,1,314,1.0607008934021,bear,bird,0,0314_pow_s04_0_bird_35_n01818515_25376.png
subject-04,1,315,0.936393976211548,dog,dog,0,0315_pow_s04_0_dog_35_n02102040_1097.png
subject-04,1,316,0.834835052490234,elephant,elephant,0,0316_pow_s04_0_elephant_35_n02504013_6710.png
subject-04,1,317,0.777544021606445,bird,bird,0,0317_pow_s04_0_bird_35_n02033041_5233.png
subject-04,1,318,1.09777212142944,oven,truck,0,0318_pow_s04_0_truck_35_n04467665_77937.png
subject-04,1,319,0.958319187164307,clock,clock,pow,0319_pow_s04_pow_clock_35_n04548280_487.png
subject-04,1,320,1.21661305427551,boat,elephant,0,0320_pow_s04_0_elephant_35_n02504013_8492.png
subject-04,1,321,0.734038829803467,bird,cat,0,0321_pow_s04_0_cat_35_n02123045_562.png
subject-04,1,322,0.57862401008606,oven,oven,0,0322_pow_s04_0_oven_35_n04111531_9688.png
subject-04,1,323,0.936870098114014,bicycle,bicycle,pow,0323_pow_s04_pow_bicycle_35_n02835271_27402.png
subject-04,1,324,0.621231079101562,knife,knife,0,0324_pow_s04_0_knife_35_n03041632_41310.png
subject-04,1,325,0.80193305015564,keyboard,keyboard,0,0325_pow_s04_0_keyboard_35_n03085013_6904.png
subject-04,1,326,0.878271818161011,bottle,bottle,pow,0326_pow_s04_pow_bottle_35_n04560804_15679.png
subject-04,1,327,0.522907972335815,airplane,airplane,0,0327_pow_s04_0_airplane_35_n02690373_166.png
subject-04,1,328,0.788919925689697,elephant,elephant,pow,0328_pow_s04_pow_elephant_35_n02504013_6076.png
subject-04,1,329,0.871324062347412,boat,boat,pow,0329_pow_s04_pow_boat_35_n03344393_8503.png
subject-04,1,330,0.70759105682373,bicycle,bicycle,pow,0330_pow_s04_pow_bicycle_35_n02835271_5430.png
subject-04,1,331,0.598052024841309,bear,bear,pow,0331_pow_s04_pow_bear_35_n02134084_8537.png
subject-04,1,332,0.794793844223022,cat,cat,pow,0332_pow_s04_pow_cat_35_n02123597_1367.png
subject-04,1,333,1.50025701522827,knife,knife,0,0333_pow_s04_0_knife_35_n03041632_44269.png
subject-04,1,334,1.23730993270874,keyboard,keyboard,pow,0334_pow_s04_pow_keyboard_35_n03085013_23014.png
subject-04,1,335,1.14195799827576,car,truck,pow,0335_pow_s04_pow_truck_35_n03417042_20713.png
subject-04,1,336,0.918262004852295,airplane,airplane,0,0336_pow_s04_0_airplane_35_n02690373_2155.png
subject-04,1,337,NaN,na,car,0,0337_pow_s04_0_car_35_n02814533_28216.png
subject-04,1,338,1.24198198318481,boat,truck,pow,0338_pow_s04_pow_truck_35_n03796401_12370.png
subject-04,1,339,0.632171869277954,keyboard,keyboard,0,0339_pow_s04_0_keyboard_35_n03085013_23749.png
subject-04,1,340,0.65491509437561,bear,bear,pow,0340_pow_s04_pow_bear_35_n02132136_17696.png
subject-04,1,341,NaN,na,boat,0,0341_pow_s04_0_boat_35_n04612504_7916.png
subject-04,1,342,0.695543050765991,keyboard,oven,pow,0342_pow_s04_pow_oven_35_n04111531_20914.png
subject-04,1,343,1.26220607757568,chair,bicycle,0,0343_pow_s04_0_bicycle_35_n03792782_7357.png
subject-04,1,344,NaN,na,bird,pow,0344_pow_s04_pow_bird_35_n01817953_11573.png
subject-04,1,345,1.11825895309448,oven,knife,pow,0345_pow_s04_pow_knife_35_n03041632_48675.png
subject-04,1,346,1.32498002052307,bicycle,clock,0,0346_pow_s04_0_clock_35_n02708093_7816.png
subject-04,1,347,0.810241937637329,clock,clock,0,0347_pow_s04_0_clock_35_n02708093_1309.png
subject-04,1,348,1.39862108230591,clock,clock,0,0348_pow_s04_0_clock_35_n02708093_5158.png
subject-04,1,349,0.913363933563232,airplane,airplane,pow,0349_pow_s04_pow_airplane_35_n02690373_1823.png
subject-04,1,350,0.987696886062622,keyboard,clock,0,0350_pow_s04_0_clock_35_n03196217_3358.png
subject-04,1,351,1.01035809516907,bicycle,boat,0,0351_pow_s04_0_boat_35_n02951358_1878.png
subject-04,1,352,0.984634160995483,bird,bird,pow,0352_pow_s04_pow_bird_35_n02033041_1583.png
subject-04,1,353,0.92110800743103,oven,chair,pow,0353_pow_s04_pow_chair_35_n02791124_8022.png
subject-04,1,354,1.02581095695496,boat,boat,pow,0354_pow_s04_pow_boat_35_n02951358_12032.png
subject-04,1,355,1.38624310493469,oven,clock,0,0355_pow_s04_0_clock_35_n03196217_10936.png
subject-04,1,356,1.1226441860199,car,chair,0,0356_pow_s04_0_chair_35_n04429376_15268.png
subject-04,1,357,1.13468480110168,chair,chair,pow,0357_pow_s04_pow_chair_35_n02791124_9091.png
subject-04,1,358,0.794629096984863,bird,bird,0,0358_pow_s04_0_bird_35_n02006656_2605.png
subject-04,1,359,1.47481489181519,boat,boat,pow,0359_pow_s04_pow_boat_35_n02951358_15144.png
subject-04,1,360,1.13517713546753,clock,truck,pow,0360_pow_s04_pow_truck_35_n03796401_3481.png
subject-04,1,361,0.963343143463135,elephant,elephant,0,0361_pow_s04_0_elephant_35_n02504013_673.png
subject-04,1,362,0.829494953155518,clock,clock,pow,0362_pow_s04_pow_clock_35_n03196217_3862.png
subject-04,1,363,0.635854959487915,bicycle,bottle,0,0363_pow_s04_0_bottle_35_n04557648_20614.png
subject-04,1,364,0.602051019668579,clock,clock,0,0364_pow_s04_0_clock_35_n02708093_5274.png
subject-04,1,365,0.952600955963135,cat,oven,0,0365_pow_s04_0_oven_35_n04111531_190.png
subject-04,1,366,1.50028800964355,chair,oven,0,0366_pow_s04_0_oven_35_n04111531_3905.png
subject-04,1,367,0.933221817016602,bear,bear,pow,0367_pow_s04_pow_bear_35_n02134418_3354.png
subject-04,1,368,0.94526195526123,cat,cat,pow,0368_pow_s04_pow_cat_35_n02123394_4630.png
subject-04,1,369,1.04359984397888,bear,elephant,pow,0369_pow_s04_pow_elephant_35_n02504458_7842.png
subject-04,1,370,1.42417287826538,bird,bird,0,0370_pow_s04_0_bird_35_n01817953_12145.png
subject-04,1,371,NaN,na,bottle,0,0371_pow_s04_0_bottle_35_n03937543_1137.png
subject-04,1,372,NaN,na,clock,pow,0372_pow_s04_pow_clock_35_n04548280_3293.png
subject-04,1,373,0.786731004714966,truck,truck,pow,0373_pow_s04_pow_truck_35_n04467665_38361.png
subject-04,1,374,0.715134859085083,bottle,bottle,pow,0374_pow_s04_pow_bottle_35_n04591713_1126.png
subject-04,1,375,0.813824892044067,bear,bear,0,0375_pow_s04_0_bear_35_n02134084_7238.png
subject-04,1,376,0.736613035202026,boat,airplane,pow,0376_pow_s04_pow_airplane_35_n02690373_6789.png
subject-04,1,377,0.716531038284302,boat,truck,pow,0377_pow_s04_pow_truck_35_n03417042_3351.png
subject-04,1,378,0.838951110839844,truck,truck,0,0378_pow_s04_0_truck_35_n03796401_20645.png
subject-04,1,379,1.49999713897705,bicycle,bicycle,pow,0379_pow_s04_pow_bicycle_35_n02835271_664.png
subject-04,1,380,0.984952926635742,keyboard,boat,0,0380_pow_s04_0_boat_35_n02951358_4496.png
subject-04,1,381,0.761412143707275,bicycle,bicycle,0,0381_pow_s04_0_bicycle_35_n02835271_4887.png
subject-04,1,382,1.32797122001648,car,car,pow,0382_pow_s04_pow_car_35_n03100240_15676.png
subject-04,1,383,0.918771982192993,keyboard,airplane,pow,0383_pow_s04_pow_airplane_35_n02690373_3620.png
subject-04,1,384,0.684893131256104,car,car,pow,0384_pow_s04_pow_car_35_n02814533_88088.png
subject-04,1,385,0.83726692199707,airplane,knife,0,0385_pow_s04_0_knife_35_n03041632_19866.png
subject-04,1,386,0.965492010116577,truck,truck,pow,0386_pow_s04_pow_truck_35_n03417042_3015.png
subject-04,1,387,0.671979188919067,car,car,0,0387_pow_s04_0_car_35_n04285008_8880.png
subject-04,1,388,1.20641899108887,boat,oven,pow,0388_pow_s04_pow_oven_35_n04111531_2189.png
subject-04,1,389,0.920361995697021,keyboard,oven,pow,0389_pow_s04_pow_oven_35_n04111531_20407.png
subject-04,1,390,1.30073213577271,keyboard,bird,0,0390_pow_s04_0_bird_35_n01843383_3999.png
subject-04,1,391,1.43678402900696,keyboard,chair,0,0391_pow_s04_0_chair_35_n03376595_8964.png
subject-04,1,392,0.973410844802856,elephant,elephant,0,0392_pow_s04_0_elephant_35_n02504458_4954.png
subject-04,1,393,0.549702167510986,cat,cat,pow,0393_pow_s04_pow_cat_35_n02123159_3216.png
subject-04,1,394,0.730392932891846,bottle,bottle,pow,0394_pow_s04_pow_bottle_35_n04560804_33297.png
subject-04,1,395,0.614897966384888,truck,truck,pow,0395_pow_s04_pow_truck_35_n04467665_22914.png
subject-04,1,396,0.843178987503052,knife,knife,pow,0396_pow_s04_pow_knife_35_n03041632_3717.png
subject-04,1,397,0.679934024810791,airplane,airplane,0,0397_pow_s04_0_airplane_35_n02690373_8996.png
subject-04,1,398,1.17640590667725,clock,clock,0,0398_pow_s04_0_clock_35_n04548280_1132.png
subject-04,1,399,0.858721971511841,cat,cat,0,0399_pow_s04_0_cat_35_n02125311_39760.png
subject-04,1,400,0.879514932632446,bottle,bottle,0,0400_pow_s04_0_bottle_35_n04560804_8230.png
subject-04,1,401,NaN,na,bottle,0,0401_pow_s04_0_bottle_35_n04557648_460.png
subject-04,1,402,1.19568586349487,bird,bird,pow,0402_pow_s04_pow_bird_35_n01833805_6152.png
subject-04,1,403,1.50004601478577,bottle,clock,pow,0403_pow_s04_pow_clock_35_n02708093_6813.png
subject-04,1,404,1.50037384033203,car,car,0,0404_pow_s04_0_car_35_n02814533_46997.png
subject-04,1,405,1.15105199813843,cat,oven,pow,0405_pow_s04_pow_oven_35_n04111531_23068.png
subject-04,1,406,1.14950609207153,clock,clock,0,0406_pow_s04_0_clock_35_n03196217_4776.png
subject-04,1,407,1.07389378547668,cat,cat,0,0407_pow_s04_0_cat_35_n02123045_8943.png
subject-04,1,408,1.03376698493958,chair,chair,0,0408_pow_s04_0_chair_35_n04099969_27361.png
subject-04,1,409,1.50024318695068,bear,bird,pow,0409_pow_s04_pow_bird_35_n02013706_3821.png
subject-04,1,410,0.858398914337158,keyboard,keyboard,pow,0410_pow_s04_pow_keyboard_35_n04505470_1816.png
subject-04,1,411,1.17068290710449,chair,chair,pow,0411_pow_s04_pow_chair_35_n03376595_9591.png
subject-04,1,412,0.947256088256836,cat,cat,0,0412_pow_s04_0_cat_35_n02124075_6405.png
subject-04,1,413,1.25969910621643,dog,bottle,pow,0413_pow_s04_pow_bottle_35_n03937543_751.png
subject-04,1,414,1.29343199729919,bicycle,bicycle,pow,0414_pow_s04_pow_bicycle_35_n02835271_2443.png
subject-04,1,415,0.755921840667725,cat,cat,pow,0415_pow_s04_pow_cat_35_n02123159_5678.png
subject-04,1,416,0.730674028396606,cat,elephant,0,0416_pow_s04_0_elephant_35_n02504013_1944.png
subject-04,1,417,0.96889591217041,bottle,bottle,pow,0417_pow_s04_pow_bottle_35_n02823428_4072.png
subject-04,1,418,0.887521982192993,airplane,airplane,0,0418_pow_s04_0_airplane_35_n02690373_3400.png
subject-04,1,419,1.16138219833374,oven,oven,pow,0419_pow_s04_pow_oven_35_n04111531_5927.png
subject-04,1,420,0.743947982788086,car,car,pow,0420_pow_s04_pow_car_35_n03100240_5657.png
subject-04,1,421,0.656352996826172,clock,clock,pow,0421_pow_s04_pow_clock_35_n02708093_8229.png
subject-04,1,422,0.832887887954712,airplane,airplane,0,0422_pow_s04_0_airplane_35_n02690373_2724.png
subject-04,1,423,0.90712308883667,elephant,elephant,0,0423_pow_s04_0_elephant_35_n02504458_2939.png
subject-04,1,424,NaN,na,cat,0,0424_pow_s04_0_cat_35_n02123159_5148.png
subject-04,1,425,0.786123037338257,clock,clock,0,0425_pow_s04_0_clock_35_n02708093_8234.png
subject-04,1,426,0.822715044021606,boat,boat,pow,0426_pow_s04_pow_boat_35_n03662601_1010.png
subject-04,1,427,0.728798866271973,boat,boat,0,0427_pow_s04_0_boat_35_n04273569_21792.png
subject-04,1,428,0.841093063354492,cat,bear,pow,0428_pow_s04_pow_bear_35_n02133161_6442.png
subject-04,1,429,0.839654922485352,knife,knife,0,0429_pow_s04_0_knife_35_n03041632_43289.png
subject-04,1,430,0.960201978683472,truck,truck,0,0430_pow_s04_0_truck_35_n03796401_12877.png
subject-04,1,431,0.980331897735596,oven,oven,0,0431_pow_s04_0_oven_35_n04111531_5216.png
subject-04,1,432,0.755028009414673,clock,clock,pow,0432_pow_s04_pow_clock_35_n02708093_3355.png
subject-04,1,433,0.897088050842285,bicycle,bicycle,0,0433_pow_s04_0_bicycle_35_n02835271_4160.png
subject-04,1,434,0.649569034576416,clock,keyboard,0,0434_pow_s04_0_keyboard_35_n04505470_4379.png
subject-04,1,435,0.716063022613525,airplane,airplane,pow,0435_pow_s04_pow_airplane_35_n02690373_10926.png
subject-04,1,436,1.12369704246521,oven,chair,0,0436_pow_s04_0_chair_35_n04429376_22745.png
subject-04,1,437,0.799812078475952,boat,boat,pow,0437_pow_s04_pow_boat_35_n03344393_3349.png
subject-04,1,438,1.25198292732239,clock,clock,pow,0438_pow_s04_pow_clock_35_n02708093_5944.png
subject-04,1,439,1.01205205917358,clock,bottle,0,0439_pow_s04_0_bottle_35_n04591713_5201.png
subject-04,1,440,1.0164909362793,keyboard,keyboard,pow,0440_pow_s04_pow_keyboard_35_n04505470_4484.png
subject-04,1,441,0.998126983642578,airplane,cat,pow,0441_pow_s04_pow_cat_35_n02125311_22448.png
subject-04,1,442,0.886057138442993,boat,boat,pow,0442_pow_s04_pow_boat_35_n02951358_29711.png
subject-04,1,443,0.838400840759277,boat,bird,0,0443_pow_s04_0_bird_35_n01855032_7547.png
subject-04,1,444,0.697129964828491,clock,clock,0,0444_pow_s04_0_clock_35_n04548280_5484.png
subject-04,1,445,0.779461860656738,boat,boat,0,0445_pow_s04_0_boat_35_n03662601_4881.png
subject-04,1,446,0.794029951095581,bird,bird,0,0446_pow_s04_0_bird_35_n02018795_707.png
subject-04,1,447,0.860221147537231,clock,clock,pow,0447_pow_s04_pow_clock_35_n03196217_2246.png
subject-04,1,448,0.818238973617554,oven,bicycle,pow,0448_pow_s04_pow_bicycle_35_n02835271_307.png
subject-04,1,449,NaN,na,knife,pow,0449_pow_s04_pow_knife_35_n03041632_22241.png
subject-04,1,450,NaN,na,truck,0,0450_pow_s04_0_truck_35_n04467665_66535.png
subject-04,1,451,0.687181949615479,clock,clock,pow,0451_pow_s04_pow_clock_35_n04548280_1119.png
subject-04,1,452,0.753400087356567,boat,chair,0,0452_pow_s04_0_chair_35_n04429376_5965.png
subject-04,1,453,1.01184797286987,cat,bear,0,0453_pow_s04_0_bear_35_n02132136_25897.png
subject-04,1,454,0.894150018692017,bear,bear,0,0454_pow_s04_0_bear_35_n02133161_1646.png
subject-04,1,455,1.20069622993469,car,car,0,0455_pow_s04_0_car_35_n03100240_8376.png
subject-04,1,456,1.03730583190918,keyboard,keyboard,0,0456_pow_s04_0_keyboard_35_n04505470_2597.png
subject-04,1,457,1.30865502357483,chair,oven,0,0457_pow_s04_0_oven_35_n04111531_9939.png
subject-04,1,458,1.12120294570923,elephant,elephant,0,0458_pow_s04_0_elephant_35_n02504458_9854.png
subject-04,1,459,1.29571008682251,bicycle,bicycle,pow,0459_pow_s04_pow_bicycle_35_n02835271_13756.png
subject-04,1,460,1.40006995201111,knife,knife,0,0460_pow_s04_0_knife_35_n03041632_30457.png
subject-04,1,461,1.41242098808289,car,car,0,0461_pow_s04_0_car_35_n04285008_4556.png
subject-04,1,462,1.11834287643433,cat,cat,0,0462_pow_s04_0_cat_35_n02124075_2113.png
subject-04,1,463,1.09248304367065,bear,bear,pow,0463_pow_s04_pow_bear_35_n02134418_100.png
subject-04,1,464,1.21329092979431,cat,bottle,pow,0464_pow_s04_pow_bottle_35_n04591713_364.png
subject-04,1,465,1.30941796302795,bird,cat,pow,0465_pow_s04_pow_cat_35_n02123394_7336.png
subject-04,1,466,0.82397985458374,boat,boat,pow,0466_pow_s04_pow_boat_35_n03344393_1936.png
subject-04,1,467,0.768592119216919,bottle,bottle,0,0467_pow_s04_0_bottle_35_n03937543_5745.png
subject-04,1,468,0.704445123672485,clock,oven,0,0468_pow_s04_0_oven_35_n04111531_13255.png
subject-04,1,469,0.833294868469238,oven,airplane,pow,0469_pow_s04_pow_airplane_35_n02690373_20996.png
subject-04,1,470,0.599944114685059,cat,cat,pow,0470_pow_s04_pow_cat_35_n02123159_1488.png
subject-04,1,471,1.25806999206543,clock,knife,0,0471_pow_s04_0_knife_35_n03041632_29920.png
subject-04,1,472,0.870660066604614,car,car,pow,0472_pow_s04_pow_car_35_n02814533_20788.png
subject-04,1,473,0.700846910476685,cat,knife,pow,0473_pow_s04_pow_knife_35_n03041632_30286.png
subject-04,1,474,0.626368999481201,cat,bear,pow,0474_pow_s04_pow_bear_35_n02133161_5787.png
subject-04,1,475,0.870553016662598,oven,bottle,0,0475_pow_s04_0_bottle_35_n03983396_15861.png
subject-04,1,476,1.25105786323547,bottle,elephant,0,0476_pow_s04_0_elephant_35_n02504013_12615.png
subject-04,1,477,1.13334894180298,chair,chair,0,0477_pow_s04_0_chair_35_n04429376_14251.png
subject-04,1,478,1.24609398841858,bear,truck,0,0478_pow_s04_0_truck_35_n03796401_24341.png
subject-04,1,479,1.01465702056885,clock,cat,0,0479_pow_s04_0_cat_35_n02125311_51356.png
subject-04,1,480,0.55867600440979,bear,bear,pow,0480_pow_s04_pow_bear_35_n02134084_1623.png
subject-04,1,481,0.611514806747437,clock,clock,pow,0481_pow_s04_pow_clock_35_n02708093_2353.png
subject-04,1,482,1.29423403739929,dog,dog,0,0482_pow_s04_0_dog_35_n02086079_14868.png
subject-04,1,483,1.00643301010132,car,car,0,0483_pow_s04_0_car_35_n04285008_860.png
subject-04,1,484,1.22699499130249,bear,boat,0,0484_pow_s04_0_boat_35_n02951358_31441.png
subject-04,1,485,0.771408081054688,airplane,airplane,pow,0485_pow_s04_pow_airplane_35_n02690373_563.png
subject-04,1,486,0.76223087310791,bear,bear,0,0486_pow_s04_0_bear_35_n02134084_1910.png
subject-04,1,487,1.45867800712585,clock,chair,pow,0487_pow_s04_pow_chair_35_n04429376_20873.png
subject-04,1,488,0.827033042907715,keyboard,keyboard,pow,0488_pow_s04_pow_keyboard_35_n03085013_20515.png
subject-04,1,489,0.86373496055603,truck,truck,pow,0489_pow_s04_pow_truck_35_n03417042_8298.png
subject-04,1,490,0.998250961303711,bird,bird,pow,0490_pow_s04_pow_bird_35_n02056570_6234.png
subject-04,1,491,0.742621183395386,car,car,0,0491_pow_s04_0_car_35_n03100240_6311.png
subject-04,1,492,1.1308159828186,chair,chair,pow,0492_pow_s04_pow_chair_35_n04429376_29018.png
subject-04,1,493,1.08920097351074,oven,knife,pow,0493_pow_s04_pow_knife_35_n03041632_32208.png
subject-04,1,494,1.4936900138855,bear,bird,0,0494_pow_s04_0_bird_35_n02007558_11326.png
subject-04,1,495,0.986284971237183,bear,bear,pow,0495_pow_s04_pow_bear_35_n02134418_1030.png
subject-04,1,496,0.860779047012329,elephant,elephant,pow,0496_pow_s04_pow_elephant_35_n02504013_10097.png
subject-04,1,497,1.00326991081238,keyboard,clock,pow,0497_pow_s04_pow_clock_35_n03196217_8217.png
subject-04,1,498,0.969168901443481,truck,truck,pow,0498_pow_s04_pow_truck_35_n03796401_27059.png
subject-04,1,499,1.15913605690002,dog,dog,pow,0499_pow_s04_pow_dog_35_n02086240_12925.png
subject-04,1,500,1.20176410675049,car,knife,0,0500_pow_s04_0_knife_35_n03041632_81630.png
subject-04,1,501,0.969717979431152,oven,elephant,pow,0501_pow_s04_pow_elephant_35_n02504013_22174.png
subject-04,1,502,0.720099925994873,bottle,bottle,0,0502_pow_s04_0_bottle_35_n04591713_4057.png
subject-04,1,503,0.656611919403076,keyboard,keyboard,pow,0503_pow_s04_pow_keyboard_35_n04505470_4684.png
subject-04,1,504,0.684916019439697,airplane,airplane,pow,0504_pow_s04_pow_airplane_35_n02690373_4364.png
subject-04,1,505,0.875353097915649,oven,chair,pow,0505_pow_s04_pow_chair_35_n04429376_26608.png
subject-04,1,506,0.633578062057495,bicycle,bicycle,pow,0506_pow_s04_pow_bicycle_35_n02835271_15639.png
subject-04,1,507,1.49790596961975,dog,cat,0,0507_pow_s04_0_cat_35_n02123597_1308.png
subject-04,1,508,0.936614036560059,dog,dog,pow,0508_pow_s04_pow_dog_35_n02091467_1588.png
subject-04,1,509,1.47092509269714,chair,oven,pow,0509_pow_s04_pow_oven_35_n04111531_9289.png
subject-04,1,510,1.28663992881775,clock,elephant,pow,0510_pow_s04_pow_elephant_35_n02504013_816.png
subject-04,1,511,1.01518201828003,boat,cat,pow,0511_pow_s04_pow_cat_35_n02123394_1725.png
subject-04,1,512,0.865564107894897,chair,chair,0,0512_pow_s04_0_chair_35_n04099969_5190.png
subject-04,1,513,1.29397892951965,car,chair,0,0513_pow_s04_0_chair_35_n02791124_12839.png
subject-04,1,514,1.05245900154114,oven,oven,pow,0514_pow_s04_pow_oven_35_n04111531_10749.png
subject-04,1,515,0.826201915740967,chair,chair,0,0515_pow_s04_0_chair_35_n03376595_1762.png
subject-04,1,516,0.876766920089722,bird,bird,0,0516_pow_s04_0_bird_35_n01828970_5082.png
subject-04,1,517,0.790734052658081,cat,cat,0,0517_pow_s04_0_cat_35_n02123045_2843.png
subject-04,1,518,1.00292420387268,keyboard,keyboard,pow,0518_pow_s04_pow_keyboard_35_n03085013_25568.png
subject-04,1,519,1.42945408821106,cat,car,0,0519_pow_s04_0_car_35_n04285008_15101.png
subject-04,1,520,1.1657509803772,elephant,elephant,pow,0520_pow_s04_pow_elephant_35_n02504458_7634.png
subject-04,1,521,1.16410207748413,knife,knife,0,0521_pow_s04_0_knife_35_n03041632_126.png
subject-04,1,522,1.16893601417542,boat,boat,pow,0522_pow_s04_pow_boat_35_n04273569_4682.png
subject-04,1,523,1.24345088005066,clock,truck,0,0523_pow_s04_0_truck_35_n03796401_22137.png
subject-04,1,524,0.88752293586731,car,boat,0,0524_pow_s04_0_boat_35_n04273569_13641.png
subject-04,1,525,0.884093046188354,car,airplane,pow,0525_pow_s04_pow_airplane_35_n02690373_5405.png
subject-04,1,526,0.980720996856689,oven,chair,pow,0526_pow_s04_pow_chair_35_n02791124_1325.png
subject-04,1,527,1.24731302261353,airplane,airplane,0,0527_pow_s04_0_airplane_35_n02690373_6720.png
subject-04,1,528,0.847665071487427,bear,bear,pow,0528_pow_s04_pow_bear_35_n02134084_8111.png
subject-04,1,529,0.797940015792847,keyboard,keyboard,0,0529_pow_s04_0_keyboard_35_n04505470_2709.png
subject-04,1,530,0.715153932571411,boat,boat,0,0530_pow_s04_0_boat_35_n04612504_27571.png
subject-04,1,531,0.83588695526123,knife,knife,0,0531_pow_s04_0_knife_35_n03041632_24561.png
subject-04,1,532,1.17221689224243,dog,bottle,pow,0532_pow_s04_pow_bottle_35_n03937543_9376.png
subject-04,1,533,NaN,na,knife,0,0533_pow_s04_0_knife_35_n03041632_43436.png
subject-04,1,534,1.31067800521851,airplane,bear,0,0534_pow_s04_0_bear_35_n02134418_3312.png
subject-04,1,535,1.17105603218079,boat,knife,pow,0535_pow_s04_pow_knife_35_n03041632_13518.png
subject-04,1,536,1.18330216407776,elephant,bottle,pow,0536_pow_s04_pow_bottle_35_n04557648_4143.png
subject-04,1,537,1.00381708145142,bicycle,bicycle,0,0537_pow_s04_0_bicycle_35_n03792782_16728.png
subject-04,1,538,0.931472063064575,oven,chair,pow,0538_pow_s04_pow_chair_35_n04099969_13491.png
subject-04,1,539,1.18184304237366,chair,dog,0,0539_pow_s04_0_dog_35_n02102177_2616.png
subject-04,1,540,0.680094957351685,keyboard,keyboard,0,0540_pow_s04_0_keyboard_35_n04505470_5068.png
subject-04,1,541,1.24417781829834,bird,cat,0,0541_pow_s04_0_cat_35_n02125311_47417.png
subject-04,1,542,1.14096689224243,cat,car,pow,0542_pow_s04_pow_car_35_n04285008_8616.png
subject-04,1,543,NaN,na,boat,0,0543_pow_s04_0_boat_35_n03662601_19771.png
subject-04,1,544,NaN,na,bicycle,pow,0544_pow_s04_pow_bicycle_35_n02835271_12297.png
subject-04,1,545,0.955458879470825,bear,bear,0,0545_pow_s04_0_bear_35_n02134418_14313.png
subject-04,1,546,0.814065933227539,boat,boat,pow,0546_pow_s04_pow_boat_35_n03344393_4958.png
subject-04,1,547,1.25020408630371,truck,bottle,0,0547_pow_s04_0_bottle_35_n03937543_2177.png
subject-04,1,548,0.878891229629517,keyboard,keyboard,pow,0548_pow_s04_pow_keyboard_35_n04505470_4385.png
subject-04,1,549,1.02128291130066,oven,knife,pow,0549_pow_s04_pow_knife_35_n03041632_9635.png
subject-04,1,550,0.865631103515625,boat,boat,pow,0550_pow_s04_pow_boat_35_n03344393_2537.png
subject-04,1,551,0.656260967254639,oven,bird,pow,0551_pow_s04_pow_bird_35_n01592084_8450.png
subject-04,1,552,1.28128004074097,knife,knife,pow,0552_pow_s04_pow_knife_35_n03041632_6575.png
subject-04,1,553,0.839878082275391,bottle,bottle,0,0553_pow_s04_0_bottle_35_n02823428_40.png
subject-04,1,554,0.968488931655884,car,car,0,0554_pow_s04_0_car_35_n02814533_35863.png
subject-04,1,555,1.50010800361633,boat,knife,0,0555_pow_s04_0_knife_35_n03041632_47410.png
subject-04,1,556,NaN,na,bear,0,0556_pow_s04_0_bear_35_n02133161_8197.png
subject-04,1,557,1.45190382003784,boat,airplane,0,0557_pow_s04_0_airplane_35_n02690373_191.png
subject-04,1,558,1.11059999465942,bear,bird,pow,0558_pow_s04_pow_bird_35_n01537544_9472.png
subject-04,1,559,1.30682611465454,elephant,dog,pow,0559_pow_s04_pow_dog_35_n02085936_15536.png
subject-04,1,560,NaN,na,boat,0,0560_pow_s04_0_boat_35_n02951358_343.png
subject-04,1,561,NaN,na,boat,0,0561_pow_s04_0_boat_35_n04612504_1490.png
subject-04,1,562,1.10042691230774,dog,dog,0,0562_pow_s04_0_dog_35_n02113799_1692.png
subject-04,1,563,NaN,na,chair,0,0563_pow_s04_0_chair_35_n04429376_5202.png
subject-04,1,564,1.07077097892761,bottle,knife,pow,0564_pow_s04_pow_knife_35_n03041632_16104.png
subject-04,1,565,1.16124892234802,keyboard,car,pow,0565_pow_s04_pow_car_35_n04285008_3056.png
subject-04,1,566,1.07335186004639,oven,knife,pow,0566_pow_s04_pow_knife_35_n03041632_50034.png
subject-04,1,567,1.06183195114136,knife,knife,pow,0567_pow_s04_pow_knife_35_n03041632_20576.png
subject-04,1,568,1.03646898269653,bottle,bird,pow,0568_pow_s04_pow_bird_35_n01855032_8363.png
subject-04,1,569,0.764991998672485,airplane,airplane,0,0569_pow_s04_0_airplane_35_n02690373_9829.png
subject-04,1,570,1.35344409942627,boat,bottle,0,0570_pow_s04_0_bottle_35_n04560804_332.png
subject-04,1,571,1.15152311325073,cat,bird,0,0571_pow_s04_0_bird_35_n02011460_5426.png
subject-04,1,572,NaN,na,bear,0,0572_pow_s04_0_bear_35_n02134084_7736.png
subject-04,1,573,0.76322603225708,elephant,elephant,0,0573_pow_s04_0_elephant_35_n02504458_6821.png
subject-04,1,574,0.729280948638916,cat,cat,0,0574_pow_s04_0_cat_35_n02124075_9014.png
subject-04,1,575,0.641207933425903,bottle,bottle,0,0575_pow_s04_0_bottle_35_n02823428_1334.png
subject-04,1,576,0.653817892074585,airplane,airplane,0,0576_pow_s04_0_airplane_35_n02690373_4727.png
subject-04,1,577,1.11803817749023,truck,truck,0,0577_pow_s04_0_truck_35_n03417042_8175.png
subject-04,1,578,1.13067603111267,airplane,airplane,pow,0578_pow_s04_pow_airplane_35_n02690373_1038.png
subject-04,1,579,1.30503010749817,airplane,truck,0,0579_pow_s04_0_truck_35_n04467665_67861.png
subject-04,1,580,1.42536592483521,boat,bird,0,0580_pow_s04_0_bird_35_n01818515_3982.png
subject-04,1,581,1.04613494873047,cat,oven,pow,0581_pow_s04_pow_oven_35_n04111531_4327.png
subject-04,1,582,0.482328176498413,oven,boat,0,0582_pow_s04_0_boat_35_n04612504_5195.png
subject-04,1,583,NaN,na,oven,0,0583_pow_s04_0_oven_35_n04111531_7139.png
subject-04,1,584,1.4156060218811,car,car,pow,0584_pow_s04_pow_car_35_n03100240_1011.png
subject-04,1,585,0.803505897521973,airplane,airplane,0,0585_pow_s04_0_airplane_35_n02690373_2316.png
subject-04,1,586,NaN,na,bicycle,0,0586_pow_s04_0_bicycle_35_n03792782_15219.png
subject-04,1,587,NaN,na,bear,0,0587_pow_s04_0_bear_35_n02134418_4216.png
subject-04,1,588,1.5001380443573,clock,clock,0,0588_pow_s04_0_clock_35_n02708093_1135.png
subject-04,1,589,NaN,na,bicycle,pow,0589_pow_s04_pow_bicycle_35_n03792782_938.png
subject-04,1,590,1.17295503616333,cat,bird,pow,0590_pow_s04_pow_bird_35_n01855032_8526.png
subject-04,1,591,NaN,na,car,0,0591_pow_s04_0_car_35_n04285008_13471.png
subject-04,1,592,0.717236042022705,elephant,elephant,0,0592_pow_s04_0_elephant_35_n02504013_9342.png
subject-04,1,593,0.705505132675171,elephant,elephant,pow,0593_pow_s04_pow_elephant_35_n02504013_2228.png
subject-04,1,594,0.944056987762451,airplane,airplane,pow,0594_pow_s04_pow_airplane_35_n02690373_945.png
subject-04,1,595,0.852510929107666,chair,dog,pow,0595_pow_s04_pow_dog_35_n02104029_6653.png
subject-04,1,596,1.50021195411682,keyboard,knife,0,0596_pow_s04_0_knife_35_n03041632_48151.png
subject-04,1,597,1.1528491973877,keyboard,oven,0,0597_pow_s04_0_oven_35_n04111531_15943.png
subject-04,1,598,NaN,na,bottle,0,0598_pow_s04_0_bottle_35_n03983396_24861.png
subject-04,1,599,0.633539915084839,clock,clock,pow,0599_pow_s04_pow_clock_35_n02708093_2710.png
subject-04,1,600,0.805982112884521,knife,knife,0,0600_pow_s04_0_knife_35_n03041632_34676.png
subject-04,1,601,1.30991387367249,clock,clock,0,0601_pow_s04_0_clock_35_n04548280_5414.png
subject-04,1,602,NaN,na,bird,pow,0602_pow_s04_pow_bird_35_n01795545_6086.png
subject-04,1,603,0.596591949462891,cat,cat,pow,0603_pow_s04_pow_cat_35_n02123597_5017.png
subject-04,1,604,NaN,na,bird,0,0604_pow_s04_0_bird_35_n02028035_17762.png
subject-04,1,605,0.937839031219482,cat,keyboard,pow,0605_pow_s04_pow_keyboard_35_n04505470_4619.png
subject-04,1,606,0.574157953262329,oven,oven,0,0606_pow_s04_0_oven_35_n04111531_9304.png
subject-04,1,607,0.832600116729736,knife,knife,pow,0607_pow_s04_pow_knife_35_n03041632_38610.png
subject-04,1,608,1.02109408378601,car,car,0,0608_pow_s04_0_car_35_n04285008_9270.png
subject-04,1,609,1.47937893867493,oven,bird,0,0609_pow_s04_0_bird_35_n02056570_2920.png
subject-04,1,610,0.892056941986084,bear,bear,pow,0610_pow_s04_pow_bear_35_n02134084_8601.png
subject-04,1,611,1.14221405982971,elephant,cat,0,0611_pow_s04_0_cat_35_n02124075_7579.png
subject-04,1,612,1.37459683418274,cat,dog,pow,0612_pow_s04_pow_dog_35_n02110958_7750.png
subject-04,1,613,1.50020694732666,boat,truck,0,0613_pow_s04_0_truck_35_n03796401_5284.png
subject-04,1,614,0.698917865753174,clock,clock,0,0614_pow_s04_0_clock_35_n02708093_782.png
subject-04,1,615,NaN,na,truck,pow,0615_pow_s04_pow_truck_35_n03796401_5933.png
subject-04,1,616,NaN,na,airplane,0,0616_pow_s04_0_airplane_35_n02690373_5748.png
subject-04,1,617,0.772270917892456,boat,car,pow,0617_pow_s04_pow_car_35_n04285008_13642.png
subject-04,1,618,0.705997943878174,car,car,0,0618_pow_s04_0_car_35_n03100240_21377.png
subject-04,1,619,0.926539897918701,clock,chair,pow,0619_pow_s04_pow_chair_35_n03376595_8528.png
subject-04,1,620,1.21492409706116,car,car,pow,0620_pow_s04_pow_car_35_n03100240_13770.png
subject-04,1,621,NaN,na,bicycle,pow,0621_pow_s04_pow_bicycle_35_n03792782_23560.png
subject-04,1,622,0.693592071533203,oven,chair,pow,0622_pow_s04_pow_chair_35_n02791124_6178.png
subject-04,1,623,0.821813821792603,oven,elephant,0,0623_pow_s04_0_elephant_35_n02504013_1728.png
subject-04,1,624,0.834004878997803,dog,dog,0,0624_pow_s04_0_dog_35_n02095314_2964.png
subject-04,1,625,0.706293106079102,elephant,elephant,0,0625_pow_s04_0_elephant_35_n02504458_1600.png
subject-04,1,626,1.17262315750122,knife,knife,0,0626_pow_s04_0_knife_35_n03041632_17067.png
subject-04,1,627,NaN,na,bear,0,0627_pow_s04_0_bear_35_n02134418_2608.png
subject-04,1,628,0.967459917068481,boat,oven,pow,0628_pow_s04_pow_oven_35_n04111531_3265.png
subject-04,1,629,0.955057859420776,oven,airplane,pow,0629_pow_s04_pow_airplane_35_n02690373_6891.png
subject-04,1,630,1.01360607147217,bear,bird,0,0630_pow_s04_0_bird_35_n01514859_19927.png
subject-04,1,631,1.25609993934631,elephant,elephant,pow,0631_pow_s04_pow_elephant_35_n02504013_4762.png
subject-04,1,632,0.800527095794678,keyboard,keyboard,0,0632_pow_s04_0_keyboard_35_n04505470_4374.png
subject-04,1,633,1.50023579597473,chair,knife,pow,0633_pow_s04_pow_knife_35_n03041632_13612.png
subject-04,1,634,1.03307700157166,bird,bird,0,0634_pow_s04_0_bird_35_n02013706_531.png
subject-04,1,635,0.707290887832642,cat,cat,0,0635_pow_s04_0_cat_35_n02123394_1899.png
subject-04,1,636,1.36381602287292,elephant,elephant,0,0636_pow_s04_0_elephant_35_n02504458_7873.png
subject-04,1,637,0.632043838500977,bird,bird,0,0637_pow_s04_0_bird_35_n02013706_7478.png
subject-04,1,638,0.698717832565308,cat,dog,pow,0638_pow_s04_pow_dog_35_n02097130_4043.png
subject-04,1,639,0.824885129928589,airplane,airplane,pow,0639_pow_s04_pow_airplane_35_n02690373_2579.png
subject-04,1,640,1.08323097229004,knife,knife,0,0640_pow_s04_0_knife_35_n03041632_2546.png
subject-04,1,641,0.888934850692749,truck,truck,0,0641_pow_s04_0_truck_35_n03417042_14809.png
subject-04,1,642,0.747728824615479,bicycle,bicycle,0,0642_pow_s04_0_bicycle_35_n03792782_1778.png
subject-04,1,643,0.675956010818481,bear,bear,pow,0643_pow_s04_pow_bear_35_n02134084_5827.png
subject-04,1,644,0.542157888412476,clock,clock,pow,0644_pow_s04_pow_clock_35_n04548280_3605.png
subject-04,1,645,0.808428049087524,bottle,bottle,pow,0645_pow_s04_pow_bottle_35_n04591713_7036.png
subject-04,1,646,0.942918062210083,dog,bird,pow,0646_pow_s04_pow_bird_35_n01843383_1954.png
subject-04,1,647,0.925204038619995,keyboard,knife,pow,0647_pow_s04_pow_knife_35_n03041632_18468.png
subject-04,1,648,0.677659034729004,bicycle,bicycle,0,0648_pow_s04_0_bicycle_35_n03792782_7105.png
subject-04,1,649,0.696090936660767,bird,bird,0,0649_pow_s04_0_bird_35_n02025239_5441.png
subject-04,1,650,NaN,na,bottle,pow,0650_pow_s04_pow_bottle_35_n03937543_4657.png
subject-04,1,651,0.752448081970215,chair,chair,0,0651_pow_s04_0_chair_35_n02791124_14040.png
subject-04,1,652,0.910876035690308,boat,boat,0,0652_pow_s04_0_boat_35_n04612504_125.png
subject-04,1,653,0.853524208068848,oven,keyboard,pow,0653_pow_s04_pow_keyboard_35_n04505470_1904.png
subject-04,1,654,1.06552410125732,elephant,elephant,0,0654_pow_s04_0_elephant_35_n02504013_5213.png
subject-04,1,655,0.86217999458313,boat,boat,pow,0655_pow_s04_pow_boat_35_n03662601_8491.png
subject-04,1,656,0.943914890289307,cat,dog,pow,0656_pow_s04_pow_dog_35_n02091134_8051.png
subject-04,1,657,0.810765981674194,cat,cat,pow,0657_pow_s04_pow_cat_35_n02123597_13018.png
subject-04,1,658,0.860782861709595,knife,knife,0,0658_pow_s04_0_knife_35_n03041632_36907.png
subject-04,1,659,0.765417098999023,truck,truck,0,0659_pow_s04_0_truck_35_n03417042_18722.png
subject-04,1,660,0.701448917388916,bicycle,bicycle,0,0660_pow_s04_0_bicycle_35_n03792782_27459.png
subject-04,1,661,1.28799891471863,bird,bottle,pow,0661_pow_s04_pow_bottle_35_n04557648_7937.png
subject-04,1,662,1.01847696304321,chair,elephant,0,0662_pow_s04_0_elephant_35_n02504458_2989.png
subject-04,1,663,0.744739055633545,bottle,bottle,pow,0663_pow_s04_pow_bottle_35_n02823428_7816.png
subject-04,1,664,1.42531585693359,keyboard,keyboard,0,0664_pow_s04_0_keyboard_35_n04505470_2113.png
subject-04,1,665,1.02377891540527,truck,truck,pow,0665_pow_s04_pow_truck_35_n04467665_679.png
subject-04,1,666,1.42053699493408,cat,dog,0,0666_pow_s04_0_dog_35_n02092339_7669.png
subject-04,1,667,1.09468603134155,elephant,elephant,pow,0667_pow_s04_pow_elephant_35_n02504013_7248.png
subject-04,1,668,0.822947025299072,bear,bear,pow,0668_pow_s04_pow_bear_35_n02134084_1369.png
subject-04,1,669,0.927099943161011,oven,oven,0,0669_pow_s04_0_oven_35_n04111531_18648.png
subject-04,1,670,0.684180974960327,oven,oven,pow,0670_pow_s04_pow_oven_35_n04111531_4549.png
subject-04,1,671,0.657071828842163,clock,clock,0,0671_pow_s04_0_clock_35_n04548280_5466.png
subject-04,1,672,1.02325391769409,dog,elephant,pow,0672_pow_s04_pow_elephant_35_n02504458_6714.png
subject-04,1,673,0.789825916290283,cat,cat,0,0673_pow_s04_0_cat_35_n02125311_30629.png
subject-04,1,674,0.686395168304443,bicycle,bicycle,pow,0674_pow_s04_pow_bicycle_35_n02835271_15765.png
subject-04,1,675,NaN,na,knife,pow,0675_pow_s04_pow_knife_35_n03041632_11773.png
subject-04,1,676,0.96536111831665,keyboard,keyboard,0,0676_pow_s04_0_keyboard_35_n03085013_2725.png
subject-04,1,677,0.661597967147827,oven,oven,0,0677_pow_s04_0_oven_35_n04111531_18430.png
subject-04,1,678,0.951740980148315,dog,dog,0,0678_pow_s04_0_dog_35_n02110063_1988.png
subject-04,1,679,NaN,na,dog,pow,0679_pow_s04_pow_dog_35_n02092339_5517.png
subject-04,1,680,0.728326082229614,car,car,0,0680_pow_s04_0_car_35_n04285008_12446.png
subject-04,1,681,0.840649843215942,knife,knife,0,0681_pow_s04_0_knife_35_n03041632_55711.png
subject-04,1,682,1.00684690475464,keyboard,keyboard,pow,0682_pow_s04_pow_keyboard_35_n03085013_21914.png
subject-04,1,683,0.895508050918579,oven,oven,pow,0683_pow_s04_pow_oven_35_n04111531_1549.png
subject-04,1,684,0.969518899917603,bear,bicycle,0,0684_pow_s04_0_bicycle_35_n03792782_18702.png
subject-04,1,685,0.589921951293945,boat,boat,pow,0685_pow_s04_pow_boat_35_n02951358_2588.png
subject-04,1,686,0.870022773742676,chair,chair,pow,0686_pow_s04_pow_chair_35_n02791124_6786.png
subject-04,1,687,0.881850004196167,oven,boat,pow,0687_pow_s04_pow_boat_35_n03662601_35800.png
subject-04,1,688,0.645481824874878,bottle,bottle,0,0688_pow_s04_0_bottle_35_n04591713_6025.png
subject-04,1,689,0.927616119384766,elephant,bicycle,pow,0689_pow_s04_pow_bicycle_35_n03792782_35669.png
subject-04,1,690,0.731849908828735,keyboard,keyboard,pow,0690_pow_s04_pow_keyboard_35_n04505470_262.png
subject-04,1,691,1.41235113143921,bird,bird,pow,0691_pow_s04_pow_bird_35_n02056570_2264.png
subject-04,1,692,0.64863395690918,cat,cat,0,0692_pow_s04_0_cat_35_n02123159_7161.png
subject-04,1,693,0.715161085128784,bicycle,bicycle,0,0693_pow_s04_0_bicycle_35_n03792782_8329.png
subject-04,1,694,0.881753921508789,oven,oven,pow,0694_pow_s04_pow_oven_35_n04111531_5328.png
subject-04,1,695,0.73211407661438,bottle,chair,pow,0695_pow_s04_pow_chair_35_n02791124_5807.png
subject-04,1,696,1.13363099098206,keyboard,keyboard,0,0696_pow_s04_0_keyboard_35_n04505470_1097.png
subject-04,1,697,1.21623110771179,oven,oven,pow,0697_pow_s04_pow_oven_35_n04111531_9805.png
subject-04,1,698,0.912415027618408,oven,bottle,pow,0698_pow_s04_pow_bottle_35_n04557648_327.png
subject-04,1,699,1.03106880187988,oven,bicycle,0,0699_pow_s04_0_bicycle_35_n02835271_622.png
subject-04,1,700,0.866939067840576,keyboard,keyboard,0,0700_pow_s04_0_keyboard_35_n03085013_22759.png
subject-04,1,701,0.917392015457153,chair,car,pow,0701_pow_s04_pow_car_35_n02814533_37482.png
subject-04,1,702,0.999693155288696,airplane,airplane,0,0702_pow_s04_0_airplane_35_n02690373_4119.png
subject-04,1,703,1.10219812393188,dog,dog,0,0703_pow_s04_0_dog_35_n02091032_8315.png
subject-04,1,704,0.75444507598877,oven,clock,0,0704_pow_s04_0_clock_35_n03196217_1163.png
subject-04,1,705,0.650973081588745,bottle,bottle,pow,0705_pow_s04_pow_bottle_35_n03937543_690.png
subject-04,1,706,1.26893019676208,bottle,bird,pow,0706_pow_s04_pow_bird_35_n01833805_1637.png
subject-04,1,707,0.98348593711853,keyboard,keyboard,0,0707_pow_s04_0_keyboard_35_n04505470_158.png
subject-04,1,708,1.22580409049988,boat,boat,pow,0708_pow_s04_pow_boat_35_n02951358_15687.png
subject-04,1,709,1.21459698677063,truck,knife,pow,0709_pow_s04_pow_knife_35_n03041632_30553.png
subject-04,1,710,0.688775062561035,keyboard,keyboard,0,0710_pow_s04_0_keyboard_35_n04505470_4723.png
subject-04,1,711,0.641506910324097,oven,chair,pow,0711_pow_s04_pow_chair_35_n03376595_2192.png
subject-04,1,712,0.729570865631104,cat,bottle,pow,0712_pow_s04_pow_bottle_35_n04557648_11577.png
subject-04,1,713,0.725752830505371,airplane,airplane,pow,0713_pow_s04_pow_airplane_35_n02690373_9946.png
subject-04,1,714,1.09192585945129,chair,chair,pow,0714_pow_s04_pow_chair_35_n04429376_8355.png
subject-04,1,715,0.688287973403931,chair,chair,0,0715_pow_s04_0_chair_35_n04429376_37106.png
subject-04,1,716,0.825021982192993,oven,bird,pow,0716_pow_s04_pow_bird_35_n01796340_11254.png
subject-04,1,717,0.659329175949097,car,car,0,0717_pow_s04_0_car_35_n02814533_31743.png
subject-04,1,718,1.07205104827881,bear,bear,0,0718_pow_s04_0_bear_35_n02132136_9478.png
subject-04,1,719,1.19014096260071,bear,bear,pow,0719_pow_s04_pow_bear_35_n02133161_3547.png
subject-04,1,720,1.27851009368896,bottle,bottle,pow,0720_pow_s04_pow_bottle_35_n04591713_3327.png
subject-04,1,721,1.36168193817139,airplane,keyboard,0,0721_pow_s04_0_keyboard_35_n04505470_7312.png
subject-04,1,722,0.952026128768921,oven,bottle,pow,0722_pow_s04_pow_bottle_35_n03983396_17260.png
subject-04,1,723,0.558441162109375,cat,cat,pow,0723_pow_s04_pow_cat_35_n02123045_5845.png
subject-04,1,724,1.02323698997498,truck,truck,0,0724_pow_s04_0_truck_35_n03417042_19531.png
subject-04,1,725,0.789699077606201,bear,bear,0,0725_pow_s04_0_bear_35_n02132136_2982.png
subject-04,1,726,0.726009130477905,car,car,pow,0726_pow_s04_pow_car_35_n03100240_17393.png
subject-04,1,727,0.668535947799683,car,car,0,0727_pow_s04_0_car_35_n03100240_1416.png
subject-04,1,728,0.802911043167114,dog,dog,0,0728_pow_s04_0_dog_35_n02104029_2438.png
subject-04,1,729,1.23155689239502,dog,dog,0,0729_pow_s04_0_dog_35_n02107312_46.png
subject-04,1,730,1.48692584037781,bottle,elephant,0,0730_pow_s04_0_elephant_35_n02504013_7303.png
subject-04,1,731,0.707809925079346,cat,cat,0,0731_pow_s04_0_cat_35_n02123159_367.png
subject-04,1,732,0.697664976119995,elephant,elephant,0,0732_pow_s04_0_elephant_35_n02504013_3049.png
subject-04,1,733,1.16229104995728,airplane,airplane,pow,0733_pow_s04_pow_airplane_35_n02690373_7293.png
subject-04,1,734,1.01229906082153,cat,elephant,pow,0734_pow_s04_pow_elephant_35_n02504013_10898.png
subject-04,1,735,NaN,na,bottle,0,0735_pow_s04_0_bottle_35_n04557648_9352.png
subject-04,1,736,0.607399940490723,oven,bottle,pow,0736_pow_s04_pow_bottle_35_n04591713_2793.png
subject-04,1,737,0.66569185256958,oven,oven,0,0737_pow_s04_0_oven_35_n04111531_10339.png
subject-04,1,738,0.608330965042114,clock,clock,0,0738_pow_s04_0_clock_35_n04548280_4178.png
subject-04,1,739,0.967006921768188,bicycle,bicycle,pow,0739_pow_s04_pow_bicycle_35_n03792782_4295.png
subject-04,1,740,0.90949010848999,airplane,truck,pow,0740_pow_s04_pow_truck_35_n03417042_3192.png
subject-04,1,741,1.10539102554321,bottle,elephant,0,0741_pow_s04_0_elephant_35_n02504458_2251.png
subject-04,1,742,1.32580304145813,oven,bear,pow,0742_pow_s04_pow_bear_35_n02133161_19677.png
subject-04,1,743,1.33052897453308,boat,keyboard,pow,0743_pow_s04_pow_keyboard_35_n03085013_23865.png
subject-04,1,744,0.688382863998413,bear,bear,pow,0744_pow_s04_pow_bear_35_n02134084_2771.png
subject-04,1,745,1.0931921005249,bird,bird,0,0745_pow_s04_0_bird_35_n01820546_3976.png
subject-04,1,746,0.805660963058472,bicycle,bicycle,0,0746_pow_s04_0_bicycle_35_n02835271_10265.png
subject-04,1,747,0.772247076034546,bear,bear,pow,0747_pow_s04_pow_bear_35_n02134084_221.png
subject-04,1,748,1.2823338508606,clock,knife,pow,0748_pow_s04_pow_knife_35_n03041632_86118.png
subject-04,1,749,NaN,na,clock,0,0749_pow_s04_0_clock_35_n04548280_499.png
subject-04,1,750,0.809604167938232,keyboard,keyboard,0,0750_pow_s04_0_keyboard_35_n03085013_20716.png
subject-04,1,751,0.889930963516235,knife,knife,pow,0751_pow_s04_pow_knife_35_n03041632_44019.png
subject-04,1,752,0.864613056182861,bicycle,bicycle,0,0752_pow_s04_0_bicycle_35_n03792782_5089.png
subject-04,1,753,0.831054925918579,clock,clock,0,0753_pow_s04_0_clock_35_n04548280_7589.png
subject-04,1,754,0.919327020645142,clock,keyboard,pow,0754_pow_s04_pow_keyboard_35_n04505470_4702.png
subject-04,1,755,NaN,na,oven,0,0755_pow_s04_0_oven_35_n04111531_10399.png
subject-04,1,756,0.62783408164978,oven,bicycle,pow,0756_pow_s04_pow_bicycle_35_n02835271_14097.png
subject-04,1,757,0.670202016830444,clock,clock,pow,0757_pow_s04_pow_clock_35_n02708093_8032.png
subject-04,1,758,1.12872314453125,bird,bear,0,0758_pow_s04_0_bear_35_n02134418_3355.png
subject-04,1,759,1.1334490776062,oven,car,pow,0759_pow_s04_pow_car_35_n02814533_92286.png
subject-04,1,760,1.34570479393005,dog,truck,0,0760_pow_s04_0_truck_35_n03796401_3376.png
subject-04,1,761,1.32943081855774,oven,boat,0,0761_pow_s04_0_boat_35_n04273569_31649.png
subject-04,1,762,0.98716402053833,oven,chair,pow,0762_pow_s04_pow_chair_35_n03376595_9481.png
subject-04,1,763,0.732028007507324,car,car,0,0763_pow_s04_0_car_35_n03100240_5718.png
subject-04,1,764,0.827989816665649,cat,bird,pow,0764_pow_s04_pow_bird_35_n01828970_6924.png
subject-04,1,765,1.22422909736633,cat,elephant,pow,0765_pow_s04_pow_elephant_35_n02504458_3147.png
subject-04,1,766,0.774071931838989,airplane,airplane,0,0766_pow_s04_0_airplane_35_n02690373_997.png
subject-04,1,767,1.46258401870728,truck,truck,0,0767_pow_s04_0_truck_35_n03796401_26991.png
subject-04,1,768,NaN,na,boat,pow,0768_pow_s04_pow_boat_35_n02951358_8522.png
subject-04,1,769,0.948954820632935,keyboard,truck,pow,0769_pow_s04_pow_truck_35_n03417042_2563.png
subject-04,1,770,0.815717935562134,elephant,elephant,0,0770_pow_s04_0_elephant_35_n02504013_172.png
subject-04,1,771,NaN,na,car,pow,0771_pow_s04_pow_car_35_n04285008_7630.png
subject-04,1,772,0.853519201278687,boat,truck,pow,0772_pow_s04_pow_truck_35_n03417042_6646.png
subject-04,1,773,NaN,na,airplane,0,0773_pow_s04_0_airplane_35_n02690373_4188.png
subject-04,1,774,0.883000135421753,boat,knife,pow,0774_pow_s04_pow_knife_35_n03041632_25257.png
subject-04,1,775,0.557029962539673,clock,clock,pow,0775_pow_s04_pow_clock_35_n03196217_8589.png
subject-04,1,776,0.675801038742065,truck,truck,0,0776_pow_s04_0_truck_35_n03417042_28519.png
subject-04,1,777,0.720165014266968,car,car,pow,0777_pow_s04_pow_car_35_n03100240_17029.png
subject-04,1,778,0.632490158081055,airplane,airplane,pow,0778_pow_s04_pow_airplane_35_n02690373_6459.png
subject-04,1,779,0.621297836303711,bottle,bottle,0,0779_pow_s04_0_bottle_35_n03937543_5608.png
subject-04,1,780,0.771114110946655,bear,bear,0,0780_pow_s04_0_bear_35_n02134084_830.png
subject-04,1,781,0.721318006515503,bicycle,bicycle,pow,0781_pow_s04_pow_bicycle_35_n02835271_25519.png
subject-04,1,782,1.25555515289307,bicycle,bicycle,pow,0782_pow_s04_pow_bicycle_35_n03792782_10734.png
subject-04,1,783,NaN,na,boat,pow,0783_pow_s04_pow_boat_35_n03662601_6832.png
subject-04,1,784,0.750707864761353,oven,car,0,0784_pow_s04_0_car_35_n04285008_5077.png
subject-04,1,785,1.13891911506653,elephant,bird,pow,0785_pow_s04_pow_bird_35_n01797886_4198.png
subject-04,1,786,NaN,na,bird,pow,0786_pow_s04_pow_bird_35_n02033041_3518.png
subject-04,1,787,0.641386985778809,oven,bear,pow,0787_pow_s04_pow_bear_35_n02133161_4239.png
subject-04,1,788,0.783899068832397,boat,elephant,pow,0788_pow_s04_pow_elephant_35_n02504458_5778.png
subject-04,1,789,NaN,na,elephant,pow,0789_pow_s04_pow_elephant_35_n02504013_1711.png
subject-04,1,790,0.576510190963745,cat,cat,0,0790_pow_s04_0_cat_35_n02123394_292.png
subject-04,1,791,0.566680908203125,chair,chair,0,0791_pow_s04_0_chair_35_n04099969_7486.png
subject-04,1,792,1.10127806663513,keyboard,keyboard,0,0792_pow_s04_0_keyboard_35_n03085013_8299.png
subject-04,1,793,NaN,na,knife,0,0793_pow_s04_0_knife_35_n03041632_35764.png
subject-04,1,794,0.748216152191162,cat,bird,0,0794_pow_s04_0_bird_35_n02056570_9931.png
subject-04,1,795,0.608931064605713,dog,dog,0,0795_pow_s04_0_dog_35_n02109961_30822.png
subject-04,1,796,1.02744293212891,bear,chair,pow,0796_pow_s04_pow_chair_35_n02791124_4295.png
subject-04,1,797,1.50023198127747,boat,keyboard,0,0797_pow_s04_0_keyboard_35_n03085013_6862.png
subject-04,1,798,NaN,na,bicycle,pow,0798_pow_s04_pow_bicycle_35_n02835271_3989.png
subject-04,1,799,NaN,na,elephant,pow,0799_pow_s04_pow_elephant_35_n02504013_874.png
subject-04,1,800,0.820829153060913,chair,chair,0,0800_pow_s04_0_chair_35_n02791124_5415.png
subject-04,1,801,1.02136492729187,boat,bottle,pow,0801_pow_s04_pow_bottle_35_n04557648_5925.png
subject-04,1,802,1.01190996170044,keyboard,keyboard,pow,0802_pow_s04_pow_keyboard_35_n03085013_20483.png
subject-04,1,803,1.39185786247253,bicycle,bicycle,pow,0803_pow_s04_pow_bicycle_35_n03792782_2805.png
subject-04,1,804,0.644710779190063,boat,boat,0,0804_pow_s04_0_boat_35_n03344393_5757.png
subject-04,1,805,0.757117033004761,boat,airplane,pow,0805_pow_s04_pow_airplane_35_n02690373_4979.png
subject-04,1,806,0.631612062454224,keyboard,keyboard,0,0806_pow_s04_0_keyboard_35_n03085013_21148.png
subject-04,1,807,0.657426834106445,bottle,bottle,pow,0807_pow_s04_pow_bottle_35_n04560804_7411.png
subject-04,1,808,0.959916114807129,cat,boat,0,0808_pow_s04_0_boat_35_n03662601_25257.png
subject-04,1,809,0.672156810760498,car,car,pow,0809_pow_s04_pow_car_35_n02814533_6716.png
subject-04,1,810,0.622146844863892,bicycle,bicycle,0,0810_pow_s04_0_bicycle_35_n02835271_1897.png
subject-04,1,811,0.696810007095337,chair,chair,0,0811_pow_s04_0_chair_35_n02791124_9606.png
subject-04,1,812,0.814832925796509,chair,chair,pow,0812_pow_s04_pow_chair_35_n04429376_48374.png
subject-04,1,813,NaN,na,boat,pow,0813_pow_s04_pow_boat_35_n03662601_21992.png
subject-04,1,814,0.739780902862549,bottle,bottle,0,0814_pow_s04_0_bottle_35_n03983396_4469.png
subject-04,1,815,0.775942087173462,bear,dog,pow,0815_pow_s04_pow_dog_35_n02098105_1389.png
subject-04,1,816,1.01634216308594,bottle,bottle,pow,0816_pow_s04_pow_bottle_35_n02823428_849.png
subject-04,1,817,1.12850189208984,elephant,elephant,0,0817_pow_s04_0_elephant_35_n02504013_20.png
subject-04,1,818,0.964830875396729,bottle,bottle,pow,0818_pow_s04_pow_bottle_35_n03983396_11603.png
subject-04,1,819,1.3673050403595,clock,bottle,pow,0819_pow_s04_pow_bottle_35_n04560804_14221.png
subject-04,1,820,0.757183074951172,clock,clock,pow,0820_pow_s04_pow_clock_35_n03196217_1162.png
subject-04,1,821,1.41367292404175,boat,boat,pow,0821_pow_s04_pow_boat_35_n04612504_6667.png
subject-04,1,822,0.92603588104248,knife,knife,0,0822_pow_s04_0_knife_35_n03041632_35260.png
subject-04,1,823,0.998155117034912,truck,truck,0,0823_pow_s04_0_truck_35_n03417042_943.png
subject-04,1,824,1.43241715431213,bicycle,bicycle,0,0824_pow_s04_0_bicycle_35_n02835271_8617.png
subject-04,1,825,1.09854984283447,cat,cat,0,0825_pow_s04_0_cat_35_n02123045_2536.png
subject-04,1,826,1.14473390579224,keyboard,dog,pow,0826_pow_s04_pow_dog_35_n02111129_1007.png
subject-04,1,827,1.2492470741272,dog,cat,0,0827_pow_s04_0_cat_35_n02123597_7642.png
subject-04,1,828,0.745535135269165,cat,bicycle,pow,0828_pow_s04_pow_bicycle_35_n03792782_4414.png
subject-04,1,829,0.666054010391235,cat,cat,0,0829_pow_s04_0_cat_35_n02123394_981.png
subject-04,1,830,0.786108016967773,clock,clock,pow,0830_pow_s04_pow_clock_35_n03196217_820.png
subject-04,1,831,0.55780816078186,cat,cat,pow,0831_pow_s04_pow_cat_35_n02124075_13623.png
subject-04,1,832,0.754608869552612,keyboard,keyboard,pow,0832_pow_s04_pow_keyboard_35_n03085013_7152.png
subject-04,1,833,0.959017992019653,elephant,elephant,0,0833_pow_s04_0_elephant_35_n02504458_1190.png
subject-04,1,834,0.69544506072998,bicycle,bicycle,0,0834_pow_s04_0_bicycle_35_n02835271_23286.png
subject-04,1,835,0.575862169265747,cat,cat,0,0835_pow_s04_0_cat_35_n02124075_8465.png
subject-04,1,836,1.26461386680603,knife,knife,0,0836_pow_s04_0_knife_35_n03041632_5911.png
subject-04,1,837,0.876574039459229,boat,boat,0,0837_pow_s04_0_boat_35_n03662601_9211.png
subject-04,1,838,0.987013101577759,cat,dog,pow,0838_pow_s04_pow_dog_35_n02088632_3978.png
subject-04,1,839,0.90765905380249,dog,bird,pow,0839_pow_s04_pow_bird_35_n02011460_18805.png
subject-04,1,840,0.657860994338989,boat,boat,pow,0840_pow_s04_pow_boat_35_n03344393_10013.png
subject-04,1,841,0.707463979721069,boat,boat,0,0841_pow_s04_0_boat_35_n03344393_4013.png
subject-04,1,842,0.873833894729614,cat,bear,0,0842_pow_s04_0_bear_35_n02133161_8468.png
subject-04,1,843,1.2297899723053,bicycle,bicycle,0,0843_pow_s04_0_bicycle_35_n02835271_4003.png
subject-04,1,844,1.08013796806335,bird,bird,pow,0844_pow_s04_pow_bird_35_n02027492_9085.png
subject-04,1,845,1.49837398529053,bird,bird,pow,0845_pow_s04_pow_bird_35_n02009912_4657.png
subject-04,1,846,0.922940015792847,knife,knife,0,0846_pow_s04_0_knife_35_n03041632_42185.png
subject-04,1,847,NaN,na,chair,pow,0847_pow_s04_pow_chair_35_n02791124_3326.png
subject-04,1,848,0.847727060317993,bird,bird,0,0848_pow_s04_0_bird_35_n01819313_6301.png
subject-04,1,849,0.881929159164429,car,car,pow,0849_pow_s04_pow_car_35_n03100240_12165.png
subject-04,1,850,0.924544095993042,chair,chair,pow,0850_pow_s04_pow_chair_35_n04099969_14819.png
subject-04,1,851,1.03467607498169,chair,chair,pow,0851_pow_s04_pow_chair_35_n04099969_5742.png
subject-04,1,852,0.783879995346069,clock,clock,pow,0852_pow_s04_pow_clock_35_n04548280_8051.png
subject-04,1,853,1.26466608047485,truck,boat,0,0853_pow_s04_0_boat_35_n03344393_8528.png
subject-04,1,854,1.12291288375854,cat,dog,pow,0854_pow_s04_pow_dog_35_n02096051_5592.png
subject-04,1,855,1.09704494476318,bicycle,bicycle,pow,0855_pow_s04_pow_bicycle_35_n02835271_6804.png
subject-04,1,856,1.43722796440125,truck,truck,pow,0856_pow_s04_pow_truck_35_n03417042_742.png
subject-04,1,857,0.873325109481812,keyboard,keyboard,0,0857_pow_s04_0_keyboard_35_n04505470_432.png
subject-04,1,858,1.00786280632019,bear,bear,pow,0858_pow_s04_pow_bear_35_n02134418_3809.png
subject-04,1,859,0.822262048721313,clock,clock,pow,0859_pow_s04_pow_clock_35_n04548280_4397.png
subject-04,1,860,0.848411083221436,boat,boat,pow,0860_pow_s04_pow_boat_35_n02951358_12046.png
subject-04,1,861,0.774864912033081,clock,chair,pow,0861_pow_s04_pow_chair_35_n02791124_9162.png
subject-04,1,862,0.703271150588989,bicycle,bicycle,0,0862_pow_s04_0_bicycle_35_n02835271_695.png
subject-04,1,863,0.845639944076538,boat,bottle,pow,0863_pow_s04_pow_bottle_35_n03937543_3381.png
subject-04,1,864,0.895940065383911,boat,boat,0,0864_pow_s04_0_boat_35_n03662601_10425.png
subject-04,1,865,1.01612591743469,bird,bird,0,0865_pow_s04_0_bird_35_n01530575_10531.png
subject-04,1,866,1.29642295837402,dog,dog,0,0866_pow_s04_0_dog_35_n02101388_8691.png
subject-04,1,867,NaN,na,bottle,pow,0867_pow_s04_pow_bottle_35_n04591713_6057.png
subject-04,1,868,1.09703707695007,dog,dog,0,0868_pow_s04_0_dog_35_n02097658_4268.png
subject-04,1,869,0.75517201423645,chair,chair,pow,0869_pow_s04_pow_chair_35_n04099969_13105.png
subject-04,1,870,0.643914937973022,clock,clock,pow,0870_pow_s04_pow_clock_35_n02708093_3146.png
subject-04,1,871,0.926382064819336,clock,bear,0,0871_pow_s04_0_bear_35_n02134418_11204.png
subject-04,1,872,1.06652402877808,airplane,airplane,0,0872_pow_s04_0_airplane_35_n02690373_4893.png
subject-04,1,873,1.39247512817383,boat,airplane,0,0873_pow_s04_0_airplane_35_n02690373_9175.png
subject-04,1,874,NaN,na,boat,pow,0874_pow_s04_pow_boat_35_n03662601_4684.png
subject-04,1,875,0.811938047409058,cat,cat,pow,0875_pow_s04_pow_cat_35_n02123597_11940.png
subject-04,1,876,1.11625909805298,truck,truck,0,0876_pow_s04_0_truck_35_n04467665_1354.png
subject-04,1,877,0.996803998947144,boat,boat,pow,0877_pow_s04_pow_boat_35_n02951358_2899.png
subject-04,1,878,0.833130121231079,bird,bird,0,0878_pow_s04_0_bird_35_n01829413_3405.png
subject-04,1,879,0.991456031799316,bicycle,bicycle,pow,0879_pow_s04_pow_bicycle_35_n02835271_176.png
subject-04,1,880,1.44805479049683,cat,elephant,pow,0880_pow_s04_pow_elephant_35_n02504013_6857.png
subject-04,1,881,1.24437308311462,bear,oven,pow,0881_pow_s04_pow_oven_35_n04111531_7923.png
subject-04,1,882,1.21878004074097,boat,airplane,pow,0882_pow_s04_pow_airplane_35_n02690373_10188.png
subject-04,1,883,0.963367938995361,boat,airplane,pow,0883_pow_s04_pow_airplane_35_n02690373_4061.png
subject-04,1,884,0.957286834716797,truck,truck,pow,0884_pow_s04_pow_truck_35_n03796401_7654.png
subject-04,1,885,0.723554849624634,knife,knife,0,0885_pow_s04_0_knife_35_n03041632_26405.png
subject-04,1,886,0.797975778579712,keyboard,keyboard,0,0886_pow_s04_0_keyboard_35_n04505470_4636.png
subject-04,1,887,1.03214979171753,oven,oven,0,0887_pow_s04_0_oven_35_n04111531_114.png
subject-04,1,888,0.719444036483765,clock,clock,0,0888_pow_s04_0_clock_35_n03196217_3140.png
subject-04,1,889,0.93162202835083,elephant,elephant,0,0889_pow_s04_0_elephant_35_n02504458_1891.png
subject-04,1,890,1.37191915512085,keyboard,cat,pow,0890_pow_s04_pow_cat_35_n02123394_1604.png
subject-04,1,891,1.00014901161194,bird,bird,0,0891_pow_s04_0_bird_35_n01514859_6006.png
subject-04,1,892,1.08081483840942,boat,oven,0,0892_pow_s04_0_oven_35_n04111531_22327.png
subject-04,1,893,0.747309923171997,oven,oven,0,0893_pow_s04_0_oven_35_n04111531_22386.png
subject-04,1,894,0.683676958084106,clock,clock,pow,0894_pow_s04_pow_clock_35_n02708093_6228.png
subject-04,1,895,0.756143093109131,bottle,bottle,0,0895_pow_s04_0_bottle_35_n04579145_1302.png
subject-04,1,896,0.922477960586548,car,car,0,0896_pow_s04_0_car_35_n02814533_46508.png
subject-04,1,897,0.764473915100098,bicycle,bicycle,0,0897_pow_s04_0_bicycle_35_n02835271_15196.png
subject-04,1,898,0.746886968612671,truck,truck,pow,0898_pow_s04_pow_truck_35_n03417042_11424.png
subject-04,1,899,0.797024965286255,clock,dog,0,0899_pow_s04_0_dog_35_n02094258_4517.png
subject-04,1,900,0.884877920150757,boat,boat,0,0900_pow_s04_0_boat_35_n02951358_11215.png
subject-04,1,901,1.14985013008118,bird,dog,pow,0901_pow_s04_pow_dog_35_n02097298_8262.png
subject-04,1,902,0.854089975357056,bicycle,dog,0,0902_pow_s04_0_dog_35_n02091032_8491.png
subject-04,1,903,0.720588207244873,keyboard,keyboard,0,0903_pow_s04_0_keyboard_35_n04505470_2698.png
subject-04,1,904,0.962710857391357,dog,dog,pow,0904_pow_s04_pow_dog_35_n02102480_10285.png
subject-04,1,905,1.28064513206482,oven,bottle,0,0905_pow_s04_0_bottle_35_n03937543_793.png
subject-04,1,906,0.72489595413208,airplane,airplane,0,0906_pow_s04_0_airplane_35_n02690373_1094.png
subject-04,1,907,0.637042999267578,bottle,bottle,0,0907_pow_s04_0_bottle_35_n04591713_4019.png
subject-04,1,908,0.808777093887329,airplane,airplane,pow,0908_pow_s04_pow_airplane_35_n02690373_10012.png
subject-04,1,909,0.688974142074585,keyboard,keyboard,pow,0909_pow_s04_pow_keyboard_35_n04505470_1831.png
subject-04,1,910,0.601634979248047,airplane,airplane,pow,0910_pow_s04_pow_airplane_35_n02690373_102.png
subject-04,1,911,0.751731157302856,oven,knife,pow,0911_pow_s04_pow_knife_35_n03041632_25603.png
subject-04,1,912,0.994064092636108,dog,dog,pow,0912_pow_s04_pow_dog_35_n02093754_7466.png
subject-04,1,913,1.12842512130737,airplane,boat,0,0913_pow_s04_0_boat_35_n02951358_33184.png
subject-04,1,914,1.19288206100464,dog,bear,0,0914_pow_s04_0_bear_35_n02134084_12841.png
subject-04,1,915,1.2975640296936,car,car,0,0915_pow_s04_0_car_35_n02814533_11246.png
subject-04,1,916,1.50011992454529,truck,elephant,pow,0916_pow_s04_pow_elephant_35_n02504013_4183.png
subject-04,1,917,1.37384295463562,cat,keyboard,pow,0917_pow_s04_pow_keyboard_35_n03085013_24472.png
subject-04,1,918,1.13437414169312,boat,oven,pow,0918_pow_s04_pow_oven_35_n04111531_12729.png
subject-04,1,919,1.09820818901062,chair,chair,0,0919_pow_s04_0_chair_35_n03376595_10843.png
subject-04,1,920,1.10228800773621,cat,bottle,pow,0920_pow_s04_pow_bottle_35_n02823428_1200.png
subject-04,1,921,0.928189039230347,elephant,bear,pow,0921_pow_s04_pow_bear_35_n02132136_10107.png
subject-04,1,922,0.927012920379639,cat,cat,pow,0922_pow_s04_pow_cat_35_n02123045_9673.png
subject-04,1,923,0.907207012176514,bear,oven,0,0923_pow_s04_0_oven_35_n04111531_4392.png
subject-04,1,924,0.751627206802368,bear,bear,0,0924_pow_s04_0_bear_35_n02132136_25399.png
subject-04,1,925,0.948360204696655,oven,knife,0,0925_pow_s04_0_knife_35_n03041632_49570.png
subject-04,1,926,0.80472993850708,bird,bird,0,0926_pow_s04_0_bird_35_n01558993_1608.png
subject-04,1,927,1.30120420455933,dog,dog,pow,0927_pow_s04_pow_dog_35_n02106166_21563.png
subject-04,1,928,1.26402592658997,clock,chair,pow,0928_pow_s04_pow_chair_35_n04429376_7050.png
subject-04,1,929,0.899314165115356,airplane,airplane,pow,0929_pow_s04_pow_airplane_35_n02690373_9086.png
subject-04,1,930,0.695657014846802,car,car,0,0930_pow_s04_0_car_35_n04285008_1378.png
subject-04,1,931,1.19016814231873,elephant,elephant,0,0931_pow_s04_0_elephant_35_n02504458_6132.png
subject-04,1,932,1.03463506698608,knife,knife,pow,0932_pow_s04_pow_knife_35_n03041632_4214.png
subject-04,1,933,1.34526419639587,knife,knife,0,0933_pow_s04_0_knife_35_n03041632_19620.png
subject-04,1,934,NaN,na,dog,0,0934_pow_s04_0_dog_35_n02086079_29536.png
subject-04,1,935,0.872123956680298,bottle,bottle,0,0935_pow_s04_0_bottle_35_n04560804_3294.png
subject-04,1,936,0.998215913772583,boat,boat,pow,0936_pow_s04_pow_boat_35_n03662601_21298.png
subject-04,1,937,0.94878101348877,elephant,elephant,0,0937_pow_s04_0_elephant_35_n02504458_3458.png
subject-04,1,938,NaN,na,bear,0,0938_pow_s04_0_bear_35_n02134084_14888.png
subject-04,1,939,0.689615964889526,car,car,0,0939_pow_s04_0_car_35_n02814533_27432.png
subject-04,1,940,1.23195290565491,dog,dog,0,0940_pow_s04_0_dog_35_n02090721_2255.png
subject-04,1,941,0.944339036941528,boat,boat,0,0941_pow_s04_0_boat_35_n03662601_17665.png
subject-04,1,942,NaN,na,oven,0,0942_pow_s04_0_oven_35_n04111531_22834.png
subject-04,1,943,0.745097160339355,boat,truck,0,0943_pow_s04_0_truck_35_n03417042_4735.png
subject-04,1,944,0.597714185714722,boat,boat,0,0944_pow_s04_0_boat_35_n04612504_3327.png
subject-04,1,945,0.761780977249146,oven,oven,0,0945_pow_s04_0_oven_35_n04111531_21366.png
subject-04,1,946,0.714257955551147,oven,oven,pow,0946_pow_s04_pow_oven_35_n04111531_11279.png
subject-04,1,947,NaN,na,truck,pow,0947_pow_s04_pow_truck_35_n03796401_6772.png
subject-04,1,948,0.981870889663696,clock,clock,0,0948_pow_s04_0_clock_35_n04548280_8480.png
subject-04,1,949,1.11617112159729,cat,bear,0,0949_pow_s04_0_bear_35_n02134084_883.png
subject-04,1,950,0.804692029953003,dog,dog,pow,0950_pow_s04_pow_dog_35_n02102177_7425.png
subject-04,1,951,0.779009819030762,clock,clock,pow,0951_pow_s04_pow_clock_35_n04548280_1645.png
subject-04,1,952,0.899470090866089,truck,truck,0,0952_pow_s04_0_truck_35_n03796401_17614.png
subject-04,1,953,0.888104915618896,oven,bicycle,pow,0953_pow_s04_pow_bicycle_35_n03792782_65779.png
subject-04,1,954,0.908451080322266,cat,keyboard,pow,0954_pow_s04_pow_keyboard_35_n04505470_8544.png
subject-04,1,955,0.729207038879395,car,car,pow,0955_pow_s04_pow_car_35_n04285008_713.png
subject-04,1,956,1.05537390708923,clock,dog,pow,0956_pow_s04_pow_dog_35_n02086240_6113.png
subject-04,1,957,0.929955959320068,bear,clock,0,0957_pow_s04_0_clock_35_n03196217_5359.png
subject-04,1,958,1.09443306922913,truck,truck,0,0958_pow_s04_0_truck_35_n04467665_60448.png
subject-04,1,959,0.930540084838867,bicycle,bicycle,pow,0959_pow_s04_pow_bicycle_35_n03792782_51414.png
subject-04,1,960,0.735192060470581,bicycle,bicycle,pow,0960_pow_s04_pow_bicycle_35_n02835271_1488.png
subject-04,1,961,1.06126284599304,dog,cat,pow,0961_pow_s04_pow_cat_35_n02123597_6242.png
subject-04,1,962,0.767337083816528,truck,truck,pow,0962_pow_s04_pow_truck_35_n03796401_22263.png
subject-04,1,963,0.654975891113281,car,car,pow,0963_pow_s04_pow_car_35_n02814533_82925.png
subject-04,1,964,0.710983991622925,elephant,elephant,pow,0964_pow_s04_pow_elephant_35_n02504458_6135.png
subject-04,1,965,0.669737100601196,oven,keyboard,pow,0965_pow_s04_pow_keyboard_35_n03085013_24610.png
subject-04,1,966,0.54430890083313,oven,chair,pow,0966_pow_s04_pow_chair_35_n03376595_10838.png
subject-04,1,967,0.640158891677856,oven,clock,pow,0967_pow_s04_pow_clock_35_n04548280_4721.png
subject-04,1,968,1.48039412498474,elephant,elephant,0,0968_pow_s04_0_elephant_35_n02504013_4646.png
subject-04,1,969,0.901026010513306,truck,truck,pow,0969_pow_s04_pow_truck_35_n04467665_83590.png
subject-04,1,970,0.683286905288696,boat,boat,pow,0970_pow_s04_pow_boat_35_n03344393_5779.png
subject-04,1,971,0.647804021835327,bicycle,bicycle,0,0971_pow_s04_0_bicycle_35_n03792782_28292.png
subject-04,1,972,0.867931127548218,airplane,airplane,pow,0972_pow_s04_pow_airplane_35_n02690373_5778.png
subject-04,1,973,0.801407814025879,clock,clock,0,0973_pow_s04_0_clock_35_n02708093_864.png
subject-04,1,974,0.836452007293701,bottle,bottle,0,0974_pow_s04_0_bottle_35_n04591713_15172.png
subject-04,1,975,1.08709287643433,car,car,pow,0975_pow_s04_pow_car_35_n03100240_12694.png
subject-04,1,976,1.04543280601501,airplane,airplane,pow,0976_pow_s04_pow_airplane_35_n02690373_1972.png
subject-04,1,977,1.40373802185059,dog,dog,pow,0977_pow_s04_pow_dog_35_n02097047_6051.png
subject-04,1,978,1.33040618896484,elephant,elephant,pow,0978_pow_s04_pow_elephant_35_n02504013_6086.png
subject-04,1,979,1.05087494850159,cat,cat,pow,0979_pow_s04_pow_cat_35_n02123394_271.png
subject-04,1,980,0.993205070495605,elephant,bird,0,0980_pow_s04_0_bird_35_n01514859_18430.png
subject-04,1,981,0.637677907943726,cat,cat,0,0981_pow_s04_0_cat_35_n02123597_2203.png
subject-04,1,982,0.925550937652588,elephant,elephant,pow,0982_pow_s04_pow_elephant_35_n02504013_2653.png
subject-04,1,983,0.922099113464355,elephant,bird,pow,0983_pow_s04_pow_bird_35_n01797886_26692.png
subject-04,1,984,0.680762052536011,oven,oven,pow,0984_pow_s04_pow_oven_35_n04111531_9915.png
subject-04,1,985,1.07712602615356,dog,dog,0,0985_pow_s04_0_dog_35_n02111500_5175.png
subject-04,1,986,0.911169052124023,keyboard,keyboard,pow,0986_pow_s04_pow_keyboard_35_n03085013_23782.png
subject-04,1,987,NaN,na,bottle,0,0987_pow_s04_0_bottle_35_n03983396_4790.png
subject-04,1,988,1.1615571975708,car,car,0,0988_pow_s04_0_car_35_n04285008_8323.png
subject-04,1,989,0.642257928848267,chair,chair,0,0989_pow_s04_0_chair_35_n03376595_5720.png
subject-04,1,990,0.832782030105591,bottle,bicycle,pow,0990_pow_s04_pow_bicycle_35_n03792782_613.png
subject-04,1,991,1.04324102401733,bottle,bottle,0,0991_pow_s04_0_bottle_35_n04579145_1817.png
subject-04,1,992,0.979269981384277,clock,clock,0,0992_pow_s04_0_clock_35_n02708093_2670.png
subject-04,1,993,1.00534796714783,bear,airplane,pow,0993_pow_s04_pow_airplane_35_n02690373_9963.png
subject-04,1,994,0.971915006637573,airplane,airplane,pow,0994_pow_s04_pow_airplane_35_n02690373_4818.png
subject-04,1,995,0.884335994720459,oven,chair,0,0995_pow_s04_0_chair_35_n02791124_880.png
subject-04,1,996,1.18692803382874,truck,truck,pow,0996_pow_s04_pow_truck_35_n04467665_51519.png
subject-04,1,997,0.806700944900513,bear,bear,pow,0997_pow_s04_pow_bear_35_n02134418_82.png
subject-04,1,998,0.895225048065186,knife,knife,0,0998_pow_s04_0_knife_35_n03041632_15250.png
subject-04,1,999,0.823587894439697,chair,chair,0,0999_pow_s04_0_chair_35_n04099969_6724.png
subject-04,1,1000,1.36387300491333,bottle,clock,0,1000_pow_s04_0_clock_35_n04548280_4635.png
subject-04,1,1001,1.37638401985168,chair,chair,pow,1001_pow_s04_pow_chair_35_n04099969_5868.png
subject-04,1,1002,0.843038082122803,car,car,0,1002_pow_s04_0_car_35_n03100240_3973.png
subject-04,1,1003,0.855205059051514,elephant,bear,pow,1003_pow_s04_pow_bear_35_n02133161_10184.png
subject-04,1,1004,0.83050012588501,bear,bear,0,1004_pow_s04_0_bear_35_n02133161_7068.png
subject-04,1,1005,0.880689859390259,bird,bird,pow,1005_pow_s04_pow_bird_35_n01537544_3345.png
subject-04,1,1006,0.876240968704224,bottle,keyboard,0,1006_pow_s04_0_keyboard_35_n04505470_9113.png
subject-04,1,1007,0.82646107673645,airplane,elephant,pow,1007_pow_s04_pow_elephant_35_n02504013_1360.png
subject-04,1,1008,0.692930936813354,boat,chair,0,1008_pow_s04_0_chair_35_n04429376_17021.png
subject-04,1,1009,0.873522043228149,knife,knife,pow,1009_pow_s04_pow_knife_35_n03041632_29355.png
subject-04,1,1010,0.715849876403809,bottle,bottle,pow,1010_pow_s04_pow_bottle_35_n03983396_5452.png
subject-04,1,1011,0.890084028244019,bear,dog,pow,1011_pow_s04_pow_dog_35_n02100877_5459.png
subject-04,1,1012,1.00817108154297,airplane,knife,0,1012_pow_s04_0_knife_35_n03041632_100645.png
subject-04,1,1013,1.14247488975525,truck,truck,pow,1013_pow_s04_pow_truck_35_n03417042_18898.png
subject-04,1,1014,0.809170961380005,bottle,bottle,0,1014_pow_s04_0_bottle_35_n04560804_25678.png
subject-04,1,1015,0.805245161056519,dog,dog,0,1015_pow_s04_0_dog_35_n02086646_5513.png
subject-04,1,1016,0.758610010147095,keyboard,chair,pow,1016_pow_s04_pow_chair_35_n02791124_7327.png
subject-04,1,1017,0.725077867507935,oven,oven,0,1017_pow_s04_0_oven_35_n04111531_3570.png
subject-04,1,1018,1.09760499000549,knife,knife,0,1018_pow_s04_0_knife_35_n03041632_30666.png
subject-04,1,1019,0.67205286026001,truck,truck,0,1019_pow_s04_0_truck_35_n04467665_707.png
subject-04,1,1020,0.736571073532104,airplane,airplane,0,1020_pow_s04_0_airplane_35_n02690373_3153.png
subject-04,1,1021,0.635055065155029,clock,clock,0,1021_pow_s04_0_clock_35_n02708093_6430.png
subject-04,1,1022,0.815429925918579,cat,cat,pow,1022_pow_s04_pow_cat_35_n02123045_1184.png
subject-04,1,1023,1.01208901405334,car,car,0,1023_pow_s04_0_car_35_n02814533_4689.png
subject-04,1,1024,0.632390975952148,clock,clock,0,1024_pow_s04_0_clock_35_n02708093_4783.png
subject-04,1,1025,0.660684108734131,clock,clock,0,1025_pow_s04_0_clock_35_n02708093_3588.png
subject-04,1,1026,0.627052783966064,airplane,airplane,0,1026_pow_s04_0_airplane_35_n02690373_4150.png
subject-04,1,1027,0.623284101486206,keyboard,keyboard,pow,1027_pow_s04_pow_keyboard_35_n03085013_21490.png
subject-04,1,1028,0.773780107498169,oven,clock,pow,1028_pow_s04_pow_clock_35_n04548280_4198.png
subject-04,1,1029,0.716367959976196,clock,chair,0,1029_pow_s04_0_chair_35_n04429376_10438.png
subject-04,1,1030,0.606441974639893,oven,oven,pow,1030_pow_s04_pow_oven_35_n04111531_3191.png
subject-04,1,1031,0.863062858581543,bicycle,bicycle,0,1031_pow_s04_0_bicycle_35_n03792782_35912.png
subject-04,1,1032,0.94504714012146,cat,cat,pow,1032_pow_s04_pow_cat_35_n02123045_11472.png
subject-04,1,1033,1.00353503227234,elephant,elephant,0,1033_pow_s04_0_elephant_35_n02504458_1291.png
subject-04,1,1034,0.761814117431641,bear,bear,pow,1034_pow_s04_pow_bear_35_n02133161_11437.png
subject-04,1,1035,0.920223951339722,bird,bird,pow,1035_pow_s04_pow_bird_35_n02013706_694.png
subject-04,1,1036,1.05588006973267,truck,truck,pow,1036_pow_s04_pow_truck_35_n03417042_9829.png
subject-04,1,1037,0.870507001876831,airplane,airplane,0,1037_pow_s04_0_airplane_35_n02690373_4714.png
subject-04,1,1038,1.02665281295776,keyboard,oven,pow,1038_pow_s04_pow_oven_35_n04111531_14758.png
subject-04,1,1039,0.771273136138916,clock,oven,pow,1039_pow_s04_pow_oven_35_n04111531_14871.png
subject-04,1,1040,0.735783100128174,oven,oven,pow,1040_pow_s04_pow_oven_35_n04111531_17923.png
subject-04,1,1041,0.677444934844971,chair,chair,pow,1041_pow_s04_pow_chair_35_n02791124_6956.png
subject-04,1,1042,0.789705038070679,bicycle,bicycle,0,1042_pow_s04_0_bicycle_35_n02835271_6978.png
subject-04,1,1043,0.740051984786987,elephant,elephant,pow,1043_pow_s04_pow_elephant_35_n02504458_1022.png
subject-04,1,1044,0.966476202011108,bear,dog,pow,1044_pow_s04_pow_dog_35_n02096051_1166.png
subject-04,1,1045,1.41693186759949,bicycle,oven,pow,1045_pow_s04_pow_oven_35_n04111531_6500.png
subject-04,1,1046,0.829264163970947,keyboard,keyboard,pow,1046_pow_s04_pow_keyboard_35_n03085013_4673.png
subject-04,1,1047,1.347501039505,keyboard,keyboard,0,1047_pow_s04_0_keyboard_35_n03085013_3632.png
subject-04,1,1048,0.830015897750854,airplane,airplane,0,1048_pow_s04_0_airplane_35_n02690373_5779.png
subject-04,1,1049,0.864459991455078,elephant,elephant,0,1049_pow_s04_0_elephant_35_n02504458_10243.png
subject-04,1,1050,0.706114053726196,keyboard,keyboard,0,1050_pow_s04_0_keyboard_35_n04505470_3433.png
subject-04,1,1051,0.810895919799805,cat,dog,pow,1051_pow_s04_pow_dog_35_n02086079_7221.png
subject-04,1,1052,0.869202136993408,clock,clock,0,1052_pow_s04_0_clock_35_n04548280_1081.png
subject-04,1,1053,0.919951915740967,chair,chair,0,1053_pow_s04_0_chair_35_n04099969_7934.png
subject-04,1,1054,0.723777055740356,elephant,elephant,0,1054_pow_s04_0_elephant_35_n02504458_7015.png
subject-04,1,1055,0.958486080169678,elephant,elephant,0,1055_pow_s04_0_elephant_35_n02504013_27.png
subject-04,1,1056,0.683003902435303,keyboard,keyboard,0,1056_pow_s04_0_keyboard_35_n04505470_375.png
subject-04,1,1057,0.801584005355835,keyboard,cat,pow,1057_pow_s04_pow_cat_35_n02124075_6024.png
subject-04,1,1058,0.792241096496582,airplane,airplane,pow,1058_pow_s04_pow_airplane_35_n02690373_8611.png
subject-04,1,1059,0.710726976394653,airplane,airplane,pow,1059_pow_s04_pow_airplane_35_n02690373_2240.png
subject-04,1,1060,0.777419805526733,bird,bird,pow,1060_pow_s04_pow_bird_35_n01560419_7688.png
subject-04,1,1061,0.689571857452393,keyboard,keyboard,pow,1061_pow_s04_pow_keyboard_35_n03085013_22949.png
subject-04,1,1062,0.761729001998901,clock,cat,pow,1062_pow_s04_pow_cat_35_n02123597_4566.png
subject-04,1,1063,0.682135105133057,clock,clock,pow,1063_pow_s04_pow_clock_35_n04548280_6235.png
subject-04,1,1064,0.840451002120972,cat,dog,0,1064_pow_s04_0_dog_35_n02108422_1423.png
subject-04,1,1065,0.712778091430664,bicycle,bicycle,pow,1065_pow_s04_pow_bicycle_35_n03792782_1472.png
subject-04,1,1066,0.855626106262207,dog,dog,pow,1066_pow_s04_pow_dog_35_n02102973_8155.png
subject-04,1,1067,0.783857822418213,boat,oven,pow,1067_pow_s04_pow_oven_35_n04111531_4988.png
subject-04,1,1068,0.939951181411743,bear,bear,0,1068_pow_s04_0_bear_35_n02134084_7193.png
subject-04,1,1069,0.952352046966553,elephant,elephant,pow,1069_pow_s04_pow_elephant_35_n02504013_8218.png
subject-04,1,1070,0.926300048828125,bicycle,bicycle,pow,1070_pow_s04_pow_bicycle_35_n03792782_42850.png
subject-04,1,1071,0.837028980255127,clock,clock,pow,1071_pow_s04_pow_clock_35_n04548280_6477.png
subject-04,1,1072,0.789437055587769,bear,bear,pow,1072_pow_s04_pow_bear_35_n02134084_1066.png
subject-04,1,1073,1.05877709388733,bottle,bottle,0,1073_pow_s04_0_bottle_35_n03937543_6958.png
