subj,session,trial,rt,object_response,category,condition,imagename
subject-05,1,1,0.720473051071167,truck,truck,0,0001_pow_s05_0_truck_35_n03417042_6081.png
subject-05,1,2,0.782952070236206,bicycle,bicycle,0,0002_pow_s05_0_bicycle_35_n02835271_9931.png
subject-05,1,3,NaN,na,bear,0,0003_pow_s05_0_bear_35_n02134418_2384.png
subject-05,1,4,1.23992514610291,cat,cat,0,0004_pow_s05_0_cat_35_n02123159_3783.png
subject-05,1,5,1.37818217277527,cat,cat,pow,0005_pow_s05_pow_cat_35_n02123394_1664.png
subject-05,1,6,0.746226072311401,elephant,elephant,pow,0006_pow_s05_pow_elephant_35_n02504458_14308.png
subject-05,1,7,0.838215827941895,chair,chair,0,0007_pow_s05_0_chair_35_n03376595_3812.png
subject-05,1,8,0.914577007293701,oven,oven,pow,0008_pow_s05_pow_oven_35_n04111531_21309.png
subject-05,1,9,1.03694105148315,bicycle,bicycle,pow,0009_pow_s05_pow_bicycle_35_n02835271_5861.png
subject-05,1,10,0.813289880752563,dog,dog,pow,0010_pow_s05_pow_dog_35_n02109525_3410.png
subject-05,1,11,1.16729092597961,cat,cat,0,0011_pow_s05_0_cat_35_n02123045_13038.png
subject-05,1,12,0.610978841781616,airplane,airplane,0,0012_pow_s05_0_airplane_35_n02690373_11799.png
subject-05,1,13,0.895550012588501,oven,oven,0,0013_pow_s05_0_oven_35_n04111531_20099.png
subject-05,1,14,0.879818916320801,bird,bird,pow,0014_pow_s05_pow_bird_35_n02025239_7765.png
subject-05,1,15,0.810054063796997,truck,truck,0,0015_pow_s05_0_truck_35_n04467665_90715.png
subject-05,1,16,1.2021951675415,boat,truck,0,0016_pow_s05_0_truck_35_n04467665_91018.png
subject-05,1,17,0.832499027252197,elephant,bottle,pow,0017_pow_s05_pow_bottle_35_n04557648_29599.png
subject-05,1,18,0.862873077392578,airplane,airplane,0,0018_pow_s05_0_airplane_35_n02690373_3899.png
subject-05,1,19,0.863544940948486,car,car,0,0019_pow_s05_0_car_35_n02814533_85059.png
subject-05,1,20,1.15401911735535,chair,chair,0,0020_pow_s05_0_chair_35_n04099969_38700.png
subject-05,1,21,0.900599956512451,elephant,bear,pow,0021_pow_s05_pow_bear_35_n02134418_1206.png
subject-05,1,22,0.863165140151978,bird,bird,0,0022_pow_s05_0_bird_35_n01818515_15542.png
subject-05,1,23,0.791798114776611,car,car,0,0023_pow_s05_0_car_35_n04285008_3422.png
subject-05,1,24,1.00022482872009,bear,dog,pow,0024_pow_s05_pow_dog_35_n02097047_1433.png
subject-05,1,25,1.01436996459961,bear,cat,0,0025_pow_s05_0_cat_35_n02125311_32736.png
subject-05,1,26,0.798436164855957,boat,boat,0,0026_pow_s05_0_boat_35_n03662601_5527.png
subject-05,1,27,0.752948045730591,oven,oven,0,0027_pow_s05_0_oven_35_n04111531_9026.png
subject-05,1,28,0.674927949905396,chair,chair,pow,0028_pow_s05_pow_chair_35_n04099969_42374.png
subject-05,1,29,0.827062129974365,oven,oven,pow,0029_pow_s05_pow_oven_35_n04111531_1708.png
subject-05,1,30,1.08134603500366,bird,bird,0,0030_pow_s05_0_bird_35_n01860187_751.png
subject-05,1,31,0.965390920639038,airplane,airplane,0,0031_pow_s05_0_airplane_35_n02690373_3753.png
subject-05,1,32,0.879633903503418,truck,truck,pow,0032_pow_s05_pow_truck_35_n03417042_11393.png
subject-05,1,33,0.870311975479126,truck,truck,0,0033_pow_s05_0_truck_35_n03417042_27538.png
subject-05,1,34,0.716349124908447,car,car,pow,0034_pow_s05_pow_car_35_n03100240_7316.png
subject-05,1,35,0.971312046051025,bird,dog,pow,0035_pow_s05_pow_dog_35_n02105056_8017.png
subject-05,1,36,1.37737894058228,elephant,elephant,pow,0036_pow_s05_pow_elephant_35_n02504458_7745.png
subject-05,1,37,1.19989800453186,boat,airplane,pow,0037_pow_s05_pow_airplane_35_n02690373_4979.png
subject-05,1,38,1.13045907020569,car,car,pow,0038_pow_s05_pow_car_35_n03100240_6330.png
subject-05,1,39,1.50033378601074,car,car,pow,0039_pow_s05_pow_car_35_n03100240_8085.png
subject-05,1,40,1.36914920806885,boat,bird,pow,0040_pow_s05_pow_bird_35_n01829413_2886.png
subject-05,1,41,1.05341696739197,bird,keyboard,pow,0041_pow_s05_pow_keyboard_35_n03085013_1200.png
subject-05,1,42,1.27599096298218,dog,boat,pow,0042_pow_s05_pow_boat_35_n03662601_21426.png
subject-05,1,43,0.898273229598999,elephant,elephant,0,0043_pow_s05_0_elephant_35_n02504013_7611.png
subject-05,1,44,0.652796030044556,cat,cat,pow,0044_pow_s05_pow_cat_35_n02123045_2062.png
subject-05,1,45,0.799293041229248,elephant,elephant,pow,0045_pow_s05_pow_elephant_35_n02504458_3105.png
subject-05,1,46,1.16535806655884,bear,bear,0,0046_pow_s05_0_bear_35_n02133161_10342.png
subject-05,1,47,1.00386786460876,boat,oven,pow,0047_pow_s05_pow_oven_35_n04111531_5350.png
subject-05,1,48,0.703881978988647,keyboard,keyboard,0,0048_pow_s05_0_keyboard_35_n03085013_23683.png
subject-05,1,49,1.14236521720886,elephant,bird,pow,0049_pow_s05_pow_bird_35_n02017213_3439.png
subject-05,1,50,1.06450891494751,chair,chair,0,0050_pow_s05_0_chair_35_n03376595_7764.png
subject-05,1,51,0.824786901473999,car,car,0,0051_pow_s05_0_car_35_n02814533_45804.png
subject-05,1,52,0.725358009338379,boat,bear,0,0052_pow_s05_0_bear_35_n02133161_11034.png
subject-05,1,53,0.809947967529297,bird,cat,pow,0053_pow_s05_pow_cat_35_n02123597_4813.png
subject-05,1,54,1.0999391078949,cat,bottle,pow,0054_pow_s05_pow_bottle_35_n04591713_6923.png
subject-05,1,55,0.755766153335571,cat,clock,pow,0055_pow_s05_pow_clock_35_n04548280_2522.png
subject-05,1,56,1.01015496253967,oven,bottle,pow,0056_pow_s05_pow_bottle_35_n04560804_14922.png
subject-05,1,57,0.932684898376465,oven,bottle,0,0057_pow_s05_0_bottle_35_n04560804_15488.png
subject-05,1,58,0.754716873168945,elephant,elephant,0,0058_pow_s05_0_elephant_35_n02504458_432.png
subject-05,1,59,0.799050092697144,elephant,elephant,pow,0059_pow_s05_pow_elephant_35_n02504013_18988.png
subject-05,1,60,0.953150033950806,bottle,bottle,pow,0060_pow_s05_pow_bottle_35_n04579145_984.png
subject-05,1,61,0.883525133132935,bird,bird,0,0061_pow_s05_0_bird_35_n02051845_1686.png
subject-05,1,62,0.868142127990723,dog,dog,pow,0062_pow_s05_pow_dog_35_n02099429_5888.png
subject-05,1,63,0.860377073287964,bird,bird,0,0063_pow_s05_0_bird_35_n02033041_534.png
subject-05,1,64,0.766832113265991,airplane,airplane,0,0064_pow_s05_0_airplane_35_n02690373_1831.png
subject-05,1,65,0.643430948257446,boat,boat,0,0065_pow_s05_0_boat_35_n04612504_19293.png
subject-05,1,66,0.606079816818237,car,car,0,0066_pow_s05_0_car_35_n03100240_3017.png
subject-05,1,67,0.758352994918823,bear,bear,pow,0067_pow_s05_pow_bear_35_n02134084_2076.png
subject-05,1,68,0.972809076309204,cat,cat,0,0068_pow_s05_0_cat_35_n02123597_1780.png
subject-05,1,69,0.897639989852905,dog,dog,0,0069_pow_s05_0_dog_35_n02108422_7512.png
subject-05,1,70,0.771839141845703,elephant,elephant,0,0070_pow_s05_0_elephant_35_n02504458_6339.png
subject-05,1,71,0.880025863647461,elephant,elephant,0,0071_pow_s05_0_elephant_35_n02504013_6442.png
subject-05,1,72,0.702203989028931,truck,truck,0,0072_pow_s05_0_truck_35_n03796401_9245.png
subject-05,1,73,0.992872953414917,car,car,pow,0073_pow_s05_pow_car_35_n03100240_5172.png
subject-05,1,74,0.839221954345703,dog,dog,pow,0074_pow_s05_pow_dog_35_n02106030_15840.png
subject-05,1,75,0.655818939208984,boat,boat,0,0075_pow_s05_0_boat_35_n03662601_4343.png
subject-05,1,76,1.02201294898987,truck,truck,pow,0076_pow_s05_pow_truck_35_n03796401_6928.png
subject-05,1,77,0.9599289894104,cat,bicycle,pow,0077_pow_s05_pow_bicycle_35_n03792782_276.png
subject-05,1,78,0.859730005264282,airplane,airplane,0,0078_pow_s05_0_airplane_35_n02690373_9318.png
subject-05,1,79,0.749916076660156,boat,boat,0,0079_pow_s05_0_boat_35_n02951358_4726.png
subject-05,1,80,0.901824951171875,car,clock,pow,0080_pow_s05_pow_clock_35_n04548280_4249.png
subject-05,1,81,0.986355066299438,truck,truck,0,0081_pow_s05_0_truck_35_n04467665_33081.png
subject-05,1,82,0.837921142578125,bottle,bottle,pow,0082_pow_s05_pow_bottle_35_n04557648_9368.png
subject-05,1,83,0.668517112731934,car,car,0,0083_pow_s05_0_car_35_n03100240_12361.png
subject-05,1,84,0.807262897491455,airplane,airplane,pow,0084_pow_s05_pow_airplane_35_n02690373_2313.png
subject-05,1,85,NaN,na,elephant,pow,0085_pow_s05_pow_elephant_35_n02504458_7456.png
subject-05,1,86,1.49825191497803,oven,bicycle,pow,0086_pow_s05_pow_bicycle_35_n03792782_7745.png
subject-05,1,87,0.760525941848755,knife,knife,pow,0087_pow_s05_pow_knife_35_n03041632_40887.png
subject-05,1,88,1.08324599266052,truck,truck,pow,0088_pow_s05_pow_truck_35_n03417042_3390.png
subject-05,1,89,0.743699073791504,truck,truck,0,0089_pow_s05_0_truck_35_n04467665_23731.png
subject-05,1,90,0.874186992645264,bottle,bottle,0,0090_pow_s05_0_bottle_35_n04579145_1993.png
subject-05,1,91,0.688000917434692,clock,clock,0,0091_pow_s05_0_clock_35_n02708093_5758.png
subject-05,1,92,0.816548109054565,bird,oven,0,0092_pow_s05_0_oven_35_n04111531_12843.png
subject-05,1,93,0.762961149215698,knife,knife,pow,0093_pow_s05_pow_knife_35_n03041632_22472.png
subject-05,1,94,0.769459009170532,clock,clock,pow,0094_pow_s05_pow_clock_35_n02708093_1245.png
subject-05,1,95,0.687883853912354,knife,knife,0,0095_pow_s05_0_knife_35_n03041632_3063.png
subject-05,1,96,0.680454969406128,boat,bottle,pow,0096_pow_s05_pow_bottle_35_n03983396_8730.png
subject-05,1,97,0.61099100112915,car,car,pow,0097_pow_s05_pow_car_35_n04285008_6313.png
subject-05,1,98,0.770733118057251,bottle,bottle,0,0098_pow_s05_0_bottle_35_n02823428_1079.png
subject-05,1,99,0.739282846450806,cat,cat,pow,0099_pow_s05_pow_cat_35_n02123045_3659.png
subject-05,1,100,0.669248104095459,keyboard,keyboard,0,0100_pow_s05_0_keyboard_35_n04505470_1691.png
subject-05,1,101,0.921777963638306,boat,boat,pow,0101_pow_s05_pow_boat_35_n03344393_8491.png
subject-05,1,102,1.14349889755249,boat,airplane,0,0102_pow_s05_0_airplane_35_n02690373_4133.png
subject-05,1,103,0.811973094940186,keyboard,keyboard,0,0103_pow_s05_0_keyboard_35_n04505470_4603.png
subject-05,1,104,1.21815800666809,cat,knife,pow,0104_pow_s05_pow_knife_35_n03041632_31849.png
subject-05,1,105,0.947825193405151,airplane,airplane,0,0105_pow_s05_0_airplane_35_n02690373_220.png
subject-05,1,106,1.50030612945557,keyboard,keyboard,pow,0106_pow_s05_pow_keyboard_35_n03085013_24442.png
subject-05,1,107,0.454140901565552,boat,boat,0,0107_pow_s05_0_boat_35_n03662601_6241.png
subject-05,1,108,0.860841035842896,chair,chair,pow,0108_pow_s05_pow_chair_35_n02791124_2408.png
subject-05,1,109,0.837100028991699,car,oven,pow,0109_pow_s05_pow_oven_35_n04111531_2473.png
subject-05,1,110,1.45742893218994,cat,dog,pow,0110_pow_s05_pow_dog_35_n02098286_1255.png
subject-05,1,111,0.765734910964966,keyboard,keyboard,pow,0111_pow_s05_pow_keyboard_35_n04505470_7946.png
subject-05,1,112,1.06439018249512,chair,chair,pow,0112_pow_s05_pow_chair_35_n04099969_7924.png
subject-05,1,113,1.32445883750916,airplane,airplane,0,0113_pow_s05_0_airplane_35_n02690373_8163.png
subject-05,1,114,1.01679587364197,dog,dog,0,0114_pow_s05_0_dog_35_n02086910_1613.png
subject-05,1,115,1.1143639087677,bicycle,bicycle,pow,0115_pow_s05_pow_bicycle_35_n02835271_192.png
subject-05,1,116,1.10694289207458,knife,knife,0,0116_pow_s05_0_knife_35_n03041632_32774.png
subject-05,1,117,0.975521087646484,boat,clock,0,0117_pow_s05_0_clock_35_n03196217_2201.png
subject-05,1,118,1.29746603965759,car,truck,0,0118_pow_s05_0_truck_35_n03417042_4774.png
subject-05,1,119,1.24381303787231,car,car,pow,0119_pow_s05_pow_car_35_n02814533_9055.png
subject-05,1,120,1.15843105316162,bear,bear,0,0120_pow_s05_0_bear_35_n02134418_149.png
subject-05,1,121,0.780677080154419,dog,dog,0,0121_pow_s05_0_dog_35_n02091467_2960.png
subject-05,1,122,0.819182157516479,cat,dog,pow,0122_pow_s05_pow_dog_35_n02097209_7104.png
subject-05,1,123,0.908797979354858,car,car,0,0123_pow_s05_0_car_35_n03100240_12854.png
subject-05,1,124,1.07735705375671,dog,dog,0,0124_pow_s05_0_dog_35_n02107312_4938.png
subject-05,1,125,0.931972980499268,bicycle,bicycle,pow,0125_pow_s05_pow_bicycle_35_n03792782_9354.png
subject-05,1,126,0.792309999465942,bottle,bottle,pow,0126_pow_s05_pow_bottle_35_n04557648_12671.png
subject-05,1,127,1.10695290565491,bottle,bottle,pow,0127_pow_s05_pow_bottle_35_n03937543_4452.png
subject-05,1,128,1.38861894607544,bear,bear,pow,0128_pow_s05_pow_bear_35_n02133161_13105.png
subject-05,1,129,1.04353213310242,bottle,bottle,0,0129_pow_s05_0_bottle_35_n04557648_444.png
subject-05,1,130,1.04377603530884,car,truck,pow,0130_pow_s05_pow_truck_35_n03417042_18625.png
subject-05,1,131,0.673857927322388,cat,cat,0,0131_pow_s05_0_cat_35_n02123045_9184.png
subject-05,1,132,0.855664014816284,dog,dog,pow,0132_pow_s05_pow_dog_35_n02101006_5252.png
subject-05,1,133,1.20775508880615,bird,bird,0,0133_pow_s05_0_bird_35_n01537544_3201.png
subject-05,1,134,0.883652925491333,boat,boat,0,0134_pow_s05_0_boat_35_n04612504_1336.png
subject-05,1,135,0.957794189453125,car,car,pow,0135_pow_s05_pow_car_35_n02814533_35.png
subject-05,1,136,1.0636088848114,airplane,airplane,0,0136_pow_s05_0_airplane_35_n02690373_4565.png
subject-05,1,137,0.885945081710815,clock,clock,0,0137_pow_s05_0_clock_35_n03196217_5618.png
subject-05,1,138,1.3300039768219,dog,dog,0,0138_pow_s05_0_dog_35_n02104365_8156.png
subject-05,1,139,1.02259922027588,airplane,airplane,pow,0139_pow_s05_pow_airplane_35_n02690373_6002.png
subject-05,1,140,1.15304708480835,chair,chair,0,0140_pow_s05_0_chair_35_n04099969_14247.png
subject-05,1,141,1.39151287078857,truck,car,0,0141_pow_s05_0_car_35_n02814533_89154.png
subject-05,1,142,0.876201152801514,truck,truck,0,0142_pow_s05_0_truck_35_n03417042_6247.png
subject-05,1,143,0.744333028793335,airplane,airplane,0,0143_pow_s05_0_airplane_35_n02690373_2724.png
subject-05,1,144,0.918588161468506,car,car,0,0144_pow_s05_0_car_35_n03100240_21737.png
subject-05,1,145,0.656733989715576,keyboard,keyboard,0,0145_pow_s05_0_keyboard_35_n04505470_665.png
subject-05,1,146,1.10028886795044,bottle,bottle,0,0146_pow_s05_0_bottle_35_n03937543_9756.png
subject-05,1,147,0.914580106735229,boat,oven,pow,0147_pow_s05_pow_oven_35_n04111531_769.png
subject-05,1,148,0.906944990158081,chair,chair,pow,0148_pow_s05_pow_chair_35_n02791124_2689.png
subject-05,1,149,0.67539381980896,bear,bear,pow,0149_pow_s05_pow_bear_35_n02133161_2624.png
subject-05,1,150,0.813936948776245,car,car,pow,0150_pow_s05_pow_car_35_n04285008_27.png
subject-05,1,151,0.974418163299561,bottle,bottle,0,0151_pow_s05_0_bottle_35_n04579145_5879.png
subject-05,1,152,0.94292688369751,chair,chair,pow,0152_pow_s05_pow_chair_35_n02791124_16916.png
subject-05,1,153,0.927341938018799,oven,knife,0,0153_pow_s05_0_knife_35_n03041632_24541.png
subject-05,1,154,0.903512954711914,clock,clock,pow,0154_pow_s05_pow_clock_35_n04548280_8454.png
subject-05,1,155,0.679388999938965,boat,dog,pow,0155_pow_s05_pow_dog_35_n02089867_8829.png
subject-05,1,156,1.2459659576416,car,car,0,0156_pow_s05_0_car_35_n04285008_8161.png
subject-05,1,157,0.930299997329712,keyboard,keyboard,0,0157_pow_s05_0_keyboard_35_n04505470_4398.png
subject-05,1,158,1.15290713310242,elephant,elephant,0,0158_pow_s05_0_elephant_35_n02504458_1348.png
subject-05,1,159,1.06721115112305,bicycle,bicycle,pow,0159_pow_s05_pow_bicycle_35_n03792782_25352.png
subject-05,1,160,1.08174395561218,chair,boat,0,0160_pow_s05_0_boat_35_n03344393_7733.png
subject-05,1,161,0.696531057357788,cat,cat,0,0161_pow_s05_0_cat_35_n02123159_2081.png
subject-05,1,162,0.588657855987549,airplane,airplane,0,0162_pow_s05_0_airplane_35_n02690373_5430.png
subject-05,1,163,0.749485015869141,keyboard,keyboard,pow,0163_pow_s05_pow_keyboard_35_n04505470_5036.png
subject-05,1,164,0.855072021484375,boat,boat,pow,0164_pow_s05_pow_boat_35_n02951358_10804.png
subject-05,1,165,0.747592926025391,knife,knife,0,0165_pow_s05_0_knife_35_n03041632_5916.png
subject-05,1,166,0.838134050369263,truck,truck,pow,0166_pow_s05_pow_truck_35_n04467665_18765.png
subject-05,1,167,1.03691697120667,truck,truck,0,0167_pow_s05_0_truck_35_n03796401_9094.png
subject-05,1,168,0.744963884353638,elephant,elephant,0,0168_pow_s05_0_elephant_35_n02504458_6470.png
subject-05,1,169,1.16496300697327,truck,boat,pow,0169_pow_s05_pow_boat_35_n03662601_5528.png
subject-05,1,170,0.895530223846436,knife,knife,pow,0170_pow_s05_pow_knife_35_n03041632_5640.png
subject-05,1,171,0.933999061584473,bird,bird,0,0171_pow_s05_0_bird_35_n01829413_340.png
subject-05,1,172,0.990018129348755,car,car,0,0172_pow_s05_0_car_35_n03100240_5059.png
subject-05,1,173,0.963943958282471,knife,knife,pow,0173_pow_s05_pow_knife_35_n03041632_7205.png
subject-05,1,174,1.16424798965454,bicycle,bicycle,pow,0174_pow_s05_pow_bicycle_35_n03792782_33649.png
subject-05,1,175,1.14095902442932,keyboard,knife,pow,0175_pow_s05_pow_knife_35_n03041632_28658.png
subject-05,1,176,0.716907978057861,cat,dog,pow,0176_pow_s05_pow_dog_35_n02100877_3973.png
subject-05,1,177,0.699630975723267,car,car,pow,0177_pow_s05_pow_car_35_n03100240_7651.png
subject-05,1,178,1.23612904548645,bird,bird,pow,0178_pow_s05_pow_bird_35_n01582220_10235.png
subject-05,1,179,0.950037002563477,boat,boat,0,0179_pow_s05_0_boat_35_n03344393_7805.png
subject-05,1,180,0.864376068115234,elephant,elephant,pow,0180_pow_s05_pow_elephant_35_n02504013_1494.png
subject-05,1,181,0.83256983757019,truck,truck,pow,0181_pow_s05_pow_truck_35_n03417042_11558.png
subject-05,1,182,0.938698053359985,oven,oven,pow,0182_pow_s05_pow_oven_35_n04111531_2027.png
subject-05,1,183,0.798739910125732,bird,bird,pow,0183_pow_s05_pow_bird_35_n02027492_2936.png
subject-05,1,184,1.07488799095154,keyboard,keyboard,0,0184_pow_s05_0_keyboard_35_n03085013_24618.png
subject-05,1,185,1.14338898658752,bird,dog,pow,0185_pow_s05_pow_dog_35_n02113799_356.png
subject-05,1,186,0.795554161071777,elephant,elephant,pow,0186_pow_s05_pow_elephant_35_n02504013_3083.png
subject-05,1,187,1.44611597061157,boat,airplane,pow,0187_pow_s05_pow_airplane_35_n02690373_2923.png
subject-05,1,188,0.662643909454346,bicycle,bicycle,0,0188_pow_s05_0_bicycle_35_n02835271_12950.png
subject-05,1,189,0.744680881500244,bicycle,bicycle,pow,0189_pow_s05_pow_bicycle_35_n02835271_5177.png
subject-05,1,190,0.621454954147339,oven,oven,0,0190_pow_s05_0_oven_35_n04111531_7340.png
subject-05,1,191,0.995559930801392,bird,airplane,pow,0191_pow_s05_pow_airplane_35_n02690373_1644.png
subject-05,1,192,0.704051971435547,truck,truck,pow,0192_pow_s05_pow_truck_35_n03417042_21946.png
subject-05,1,193,0.986484050750732,dog,dog,pow,0193_pow_s05_pow_dog_35_n02105855_1529.png
subject-05,1,194,1.06315016746521,bottle,bottle,pow,0194_pow_s05_pow_bottle_35_n04557648_5239.png
subject-05,1,195,0.8994300365448,bird,bird,pow,0195_pow_s05_pow_bird_35_n02037110_10774.png
subject-05,1,196,0.959646940231323,bottle,bottle,0,0196_pow_s05_0_bottle_35_n02823428_1772.png
subject-05,1,197,0.841684103012085,keyboard,keyboard,pow,0197_pow_s05_pow_keyboard_35_n04505470_3259.png
subject-05,1,198,1.00176787376404,cat,cat,0,0198_pow_s05_0_cat_35_n02123045_6142.png
subject-05,1,199,1.29195094108582,dog,bear,0,0199_pow_s05_0_bear_35_n02133161_911.png
subject-05,1,200,1.25998687744141,airplane,airplane,0,0200_pow_s05_0_airplane_35_n02690373_891.png
subject-05,1,201,0.766950130462646,airplane,airplane,pow,0201_pow_s05_pow_airplane_35_n02690373_4753.png
subject-05,1,202,0.826751947402954,oven,chair,0,0202_pow_s05_0_chair_35_n02791124_7330.png
subject-05,1,203,1.04938507080078,cat,cat,0,0203_pow_s05_0_cat_35_n02123045_119.png
subject-05,1,204,0.871757984161377,car,car,0,0204_pow_s05_0_car_35_n04285008_13702.png
subject-05,1,205,1.21595811843872,elephant,oven,pow,0205_pow_s05_pow_oven_35_n04111531_6128.png
subject-05,1,206,0.930237054824829,oven,knife,0,0206_pow_s05_0_knife_35_n03041632_16606.png
subject-05,1,207,0.866824150085449,car,car,0,0207_pow_s05_0_car_35_n02814533_72091.png
subject-05,1,208,0.926799058914185,oven,oven,0,0208_pow_s05_0_oven_35_n04111531_6955.png
subject-05,1,209,1.08743190765381,bear,bear,0,0209_pow_s05_0_bear_35_n02132136_17524.png
subject-05,1,210,NaN,na,airplane,0,0210_pow_s05_0_airplane_35_n02690373_10449.png
subject-05,1,211,0.671558856964111,oven,oven,0,0211_pow_s05_0_oven_35_n04111531_6181.png
subject-05,1,212,0.609941005706787,boat,boat,0,0212_pow_s05_0_boat_35_n02951358_7923.png
subject-05,1,213,0.832772970199585,clock,clock,pow,0213_pow_s05_pow_clock_35_n02708093_118.png
subject-05,1,214,1.1931619644165,oven,bird,pow,0214_pow_s05_pow_bird_35_n01614925_9051.png
subject-05,1,215,1.0846700668335,truck,truck,pow,0215_pow_s05_pow_truck_35_n03417042_17470.png
subject-05,1,216,0.806150913238525,oven,oven,pow,0216_pow_s05_pow_oven_35_n04111531_5659.png
subject-05,1,217,NaN,na,cat,pow,0217_pow_s05_pow_cat_35_n02124075_7579.png
subject-05,1,218,0.6891188621521,bird,bird,0,0218_pow_s05_0_bird_35_n02017213_4263.png
subject-05,1,219,0.549854040145874,clock,clock,0,0219_pow_s05_0_clock_35_n04548280_2650.png
subject-05,1,220,0.794172048568726,bicycle,bicycle,pow,0220_pow_s05_pow_bicycle_35_n02835271_25966.png
subject-05,1,221,0.824316024780273,keyboard,keyboard,0,0221_pow_s05_0_keyboard_35_n04505470_5062.png
subject-05,1,222,1.01440095901489,cat,cat,pow,0222_pow_s05_pow_cat_35_n02123597_6641.png
subject-05,1,223,1.08082103729248,bird,bear,pow,0223_pow_s05_pow_bear_35_n02132136_1646.png
subject-05,1,224,0.734707117080688,boat,boat,pow,0224_pow_s05_pow_boat_35_n02951358_8878.png
subject-05,1,225,0.524596929550171,boat,airplane,pow,0225_pow_s05_pow_airplane_35_n02690373_4873.png
subject-05,1,226,1.04431390762329,dog,bird,0,0226_pow_s05_0_bird_35_n01798484_20290.png
subject-05,1,227,0.742150783538818,airplane,airplane,0,0227_pow_s05_0_airplane_35_n02690373_6096.png
subject-05,1,228,1.22404193878174,truck,truck,pow,0228_pow_s05_pow_truck_35_n03417042_17865.png
subject-05,1,229,1.43003487586975,bicycle,bicycle,0,0229_pow_s05_0_bicycle_35_n02835271_10910.png
subject-05,1,230,0.706242799758911,boat,boat,pow,0230_pow_s05_pow_boat_35_n02951358_10431.png
subject-05,1,231,0.663706064224243,clock,clock,0,0231_pow_s05_0_clock_35_n02708093_4976.png
subject-05,1,232,0.740073919296265,car,car,pow,0232_pow_s05_pow_car_35_n04285008_11352.png
subject-05,1,233,0.968203067779541,bicycle,bicycle,0,0233_pow_s05_0_bicycle_35_n03792782_3552.png
subject-05,1,234,1.16576504707336,knife,knife,pow,0234_pow_s05_pow_knife_35_n03041632_10802.png
subject-05,1,235,1.23432588577271,bicycle,bicycle,0,0235_pow_s05_0_bicycle_35_n03792782_9991.png
subject-05,1,236,0.802983999252319,elephant,cat,pow,0236_pow_s05_pow_cat_35_n02125311_16171.png
subject-05,1,237,1.07141709327698,keyboard,keyboard,pow,0237_pow_s05_pow_keyboard_35_n04505470_3273.png
subject-05,1,238,0.908022165298462,bear,bird,0,0238_pow_s05_0_bird_35_n02018207_11534.png
subject-05,1,239,0.800282001495361,keyboard,bottle,pow,0239_pow_s05_pow_bottle_35_n03983396_2205.png
subject-05,1,240,0.874850034713745,oven,oven,0,0240_pow_s05_0_oven_35_n04111531_9963.png
subject-05,1,241,0.959220886230469,bear,boat,pow,0241_pow_s05_pow_boat_35_n04273569_16078.png
subject-05,1,242,0.823594093322754,chair,chair,0,0242_pow_s05_0_chair_35_n02791124_1358.png
subject-05,1,243,0.967379093170166,dog,dog,0,0243_pow_s05_0_dog_35_n02112350_2615.png
subject-05,1,244,0.790248155593872,dog,cat,pow,0244_pow_s05_pow_cat_35_n02123597_9316.png
subject-05,1,245,0.92070484161377,keyboard,keyboard,pow,0245_pow_s05_pow_keyboard_35_n04505470_7421.png
subject-05,1,246,0.796874046325684,cat,cat,pow,0246_pow_s05_pow_cat_35_n02125311_16783.png
subject-05,1,247,0.663595914840698,bear,bear,0,0247_pow_s05_0_bear_35_n02133161_1201.png
subject-05,1,248,0.823204040527344,keyboard,keyboard,0,0248_pow_s05_0_keyboard_35_n03085013_17584.png
subject-05,1,249,0.837699890136719,elephant,elephant,0,0249_pow_s05_0_elephant_35_n02504458_611.png
subject-05,1,250,1.40616297721863,bottle,bottle,0,0250_pow_s05_0_bottle_35_n04557648_11293.png
subject-05,1,251,1.19648194313049,knife,knife,pow,0251_pow_s05_pow_knife_35_n03041632_13509.png
subject-05,1,252,1.06507921218872,oven,clock,pow,0252_pow_s05_pow_clock_35_n03196217_9069.png
subject-05,1,253,0.855365991592407,clock,clock,pow,0253_pow_s05_pow_clock_35_n04548280_1254.png
subject-05,1,254,0.599591016769409,oven,oven,0,0254_pow_s05_0_oven_35_n04111531_6899.png
subject-05,1,255,0.906163930892944,keyboard,keyboard,0,0255_pow_s05_0_keyboard_35_n03085013_6986.png
subject-05,1,256,0.966695070266724,dog,dog,0,0256_pow_s05_0_dog_35_n02108915_2729.png
subject-05,1,257,1.11908197402954,boat,boat,0,0257_pow_s05_0_boat_35_n03344393_7977.png
subject-05,1,258,1.12511396408081,airplane,airplane,0,0258_pow_s05_0_airplane_35_n02690373_10481.png
subject-05,1,259,0.755290985107422,bird,bird,0,0259_pow_s05_0_bird_35_n02025239_628.png
subject-05,1,260,0.845422983169556,car,car,0,0260_pow_s05_0_car_35_n04285008_9859.png
subject-05,1,261,1.06808400154114,knife,knife,0,0261_pow_s05_0_knife_35_n03041632_54627.png
subject-05,1,262,0.674580097198486,chair,chair,0,0262_pow_s05_0_chair_35_n04099969_13056.png
subject-05,1,263,0.986948013305664,dog,dog,0,0263_pow_s05_0_dog_35_n02085936_15536.png
subject-05,1,264,0.724806070327759,car,car,pow,0264_pow_s05_pow_car_35_n02814533_35888.png
subject-05,1,265,0.831123113632202,clock,clock,pow,0265_pow_s05_pow_clock_35_n04548280_5430.png
subject-05,1,266,0.759692907333374,truck,truck,0,0266_pow_s05_0_truck_35_n04467665_3561.png
subject-05,1,267,1.30378317832947,airplane,airplane,0,0267_pow_s05_0_airplane_35_n02690373_9181.png
subject-05,1,268,0.780062913894653,oven,chair,0,0268_pow_s05_0_chair_35_n02791124_880.png
subject-05,1,269,0.784140110015869,bear,bear,pow,0269_pow_s05_pow_bear_35_n02134084_973.png
subject-05,1,270,0.630224943161011,bicycle,bicycle,0,0270_pow_s05_0_bicycle_35_n02835271_3135.png
subject-05,1,271,0.72885799407959,bird,bird,pow,0271_pow_s05_pow_bird_35_n01843383_6241.png
subject-05,1,272,1.22737193107605,airplane,airplane,pow,0272_pow_s05_pow_airplane_35_n02690373_19118.png
subject-05,1,273,1.14206290245056,bear,bear,0,0273_pow_s05_0_bear_35_n02134418_363.png
subject-05,1,274,0.894454002380371,elephant,elephant,pow,0274_pow_s05_pow_elephant_35_n02504458_6244.png
subject-05,1,275,0.900606155395508,keyboard,keyboard,0,0275_pow_s05_0_keyboard_35_n03085013_4156.png
subject-05,1,276,0.944891929626465,bicycle,bicycle,pow,0276_pow_s05_pow_bicycle_35_n03792782_9094.png
subject-05,1,277,1.0516459941864,boat,boat,0,0277_pow_s05_0_boat_35_n03344393_2406.png
subject-05,1,278,0.589540004730225,boat,boat,pow,0278_pow_s05_pow_boat_35_n03344393_5671.png
subject-05,1,279,0.64998197555542,truck,truck,0,0279_pow_s05_0_truck_35_n03796401_11221.png
subject-05,1,280,0.840489864349365,clock,clock,pow,0280_pow_s05_pow_clock_35_n02708093_2082.png
subject-05,1,281,1.13065719604492,airplane,airplane,pow,0281_pow_s05_pow_airplane_35_n02690373_5100.png
subject-05,1,282,0.875219821929932,car,clock,0,0282_pow_s05_0_clock_35_n02708093_1125.png
subject-05,1,283,0.997183084487915,knife,knife,pow,0283_pow_s05_pow_knife_35_n03041632_29355.png
subject-05,1,284,1.17949199676514,knife,knife,pow,0284_pow_s05_pow_knife_35_n03041632_30196.png
subject-05,1,285,1.00971722602844,bicycle,bicycle,pow,0285_pow_s05_pow_bicycle_35_n02835271_2050.png
subject-05,1,286,0.615936040878296,cat,cat,0,0286_pow_s05_0_cat_35_n02123159_5028.png
subject-05,1,287,1.174241065979,cat,dog,0,0287_pow_s05_0_dog_35_n02093428_16350.png
subject-05,1,288,0.642683982849121,car,car,0,0288_pow_s05_0_car_35_n03100240_13582.png
subject-05,1,289,0.873296022415161,cat,keyboard,pow,0289_pow_s05_pow_keyboard_35_n03085013_23769.png
subject-05,1,290,0.838778018951416,keyboard,keyboard,0,0290_pow_s05_0_keyboard_35_n04505470_4354.png
subject-05,1,291,0.737548112869263,car,car,0,0291_pow_s05_0_car_35_n02814533_97133.png
subject-05,1,292,0.919535160064697,airplane,airplane,pow,0292_pow_s05_pow_airplane_35_n02690373_243.png
subject-05,1,293,1.50024700164795,keyboard,bird,pow,0293_pow_s05_pow_bird_35_n02025239_22340.png
subject-05,1,294,0.802577018737793,keyboard,keyboard,0,0294_pow_s05_0_keyboard_35_n04505470_3947.png
subject-05,1,295,0.885190963745117,boat,airplane,pow,0295_pow_s05_pow_airplane_35_n02690373_3110.png
subject-05,1,296,0.845521926879883,bottle,bottle,pow,0296_pow_s05_pow_bottle_35_n04591713_1813.png
subject-05,1,297,0.822098016738892,elephant,elephant,pow,0297_pow_s05_pow_elephant_35_n02504013_3141.png
subject-05,1,298,1.50005912780762,bear,knife,pow,0298_pow_s05_pow_knife_35_n03041632_18859.png
subject-05,1,299,NaN,na,truck,0,0299_pow_s05_0_truck_35_n04467665_28135.png
subject-05,1,300,0.833631992340088,bird,bird,0,0300_pow_s05_0_bird_35_n01824575_5396.png
subject-05,1,301,0.556213855743408,bear,bear,0,0301_pow_s05_0_bear_35_n02134084_7180.png
subject-05,1,302,0.90047812461853,bottle,oven,0,0302_pow_s05_0_oven_35_n04111531_2670.png
subject-05,1,303,1.15823101997375,knife,knife,0,0303_pow_s05_0_knife_35_n03041632_18863.png
subject-05,1,304,0.880665063858032,dog,dog,0,0304_pow_s05_0_dog_35_n02088364_9420.png
subject-05,1,305,1.14920020103455,keyboard,clock,pow,0305_pow_s05_pow_clock_35_n02708093_7160.png
subject-05,1,306,0.701380014419556,keyboard,keyboard,0,0306_pow_s05_0_keyboard_35_n03085013_18850.png
subject-05,1,307,0.783348798751831,chair,chair,0,0307_pow_s05_0_chair_35_n02791124_4121.png
subject-05,1,308,0.76777982711792,bicycle,bicycle,0,0308_pow_s05_0_bicycle_35_n03792782_14476.png
subject-05,1,309,0.817869901657104,dog,bear,pow,0309_pow_s05_pow_bear_35_n02132136_5367.png
subject-05,1,310,0.964679002761841,dog,dog,pow,0310_pow_s05_pow_dog_35_n02088238_12424.png
subject-05,1,311,1.00922608375549,cat,bear,pow,0311_pow_s05_pow_bear_35_n02133161_173.png
subject-05,1,312,1.17590498924255,bird,bird,pow,0312_pow_s05_pow_bird_35_n02017213_418.png
subject-05,1,313,0.776369094848633,bird,bird,0,0313_pow_s05_0_bird_35_n01622779_3263.png
subject-05,1,314,0.896553993225098,cat,cat,0,0314_pow_s05_0_cat_35_n02123394_3210.png
subject-05,1,315,0.71953010559082,cat,cat,pow,0315_pow_s05_pow_cat_35_n02124075_9939.png
subject-05,1,316,0.879544973373413,dog,bear,0,0316_pow_s05_0_bear_35_n02134084_4839.png
subject-05,1,317,0.624192953109741,knife,knife,0,0317_pow_s05_0_knife_35_n03041632_86251.png
subject-05,1,318,0.492584943771362,oven,oven,0,0318_pow_s05_0_oven_35_n04111531_21351.png
subject-05,1,319,1.06726884841919,chair,chair,pow,0319_pow_s05_pow_chair_35_n04429376_24322.png
subject-05,1,320,0.459373950958252,keyboard,keyboard,0,0320_pow_s05_0_keyboard_35_n03085013_3859.png
subject-05,1,321,0.915262937545776,elephant,bear,0,0321_pow_s05_0_bear_35_n02134418_7463.png
subject-05,1,322,0.791430950164795,elephant,elephant,0,0322_pow_s05_0_elephant_35_n02504458_9423.png
subject-05,1,323,1.37022304534912,truck,truck,pow,0323_pow_s05_pow_truck_35_n04467665_30807.png
subject-05,1,324,0.608639001846313,clock,clock,0,0324_pow_s05_0_clock_35_n02708093_3734.png
subject-05,1,325,0.727971076965332,chair,chair,0,0325_pow_s05_0_chair_35_n03376595_8083.png
subject-05,1,326,0.731463193893433,truck,truck,0,0326_pow_s05_0_truck_35_n03796401_4878.png
subject-05,1,327,0.569361209869385,clock,clock,0,0327_pow_s05_0_clock_35_n02708093_7827.png
subject-05,1,328,0.873302221298218,cat,cat,0,0328_pow_s05_0_cat_35_n02123394_2701.png
subject-05,1,329,1.1874840259552,bird,bird,pow,0329_pow_s05_pow_bird_35_n01614925_17977.png
subject-05,1,330,NaN,na,dog,0,0330_pow_s05_0_dog_35_n02097298_5183.png
subject-05,1,331,0.816190958023071,keyboard,keyboard,pow,0331_pow_s05_pow_keyboard_35_n04505470_1717.png
subject-05,1,332,1.12031316757202,elephant,elephant,pow,0332_pow_s05_pow_elephant_35_n02504013_19831.png
subject-05,1,333,1.1188280582428,oven,oven,0,0333_pow_s05_0_oven_35_n04111531_11935.png
subject-05,1,334,0.824928998947144,bird,bottle,0,0334_pow_s05_0_bottle_35_n04557648_2512.png
subject-05,1,335,0.99378490447998,bottle,bottle,0,0335_pow_s05_0_bottle_35_n03937543_211.png
subject-05,1,336,NaN,na,bear,pow,0336_pow_s05_pow_bear_35_n02133161_840.png
subject-05,1,337,0.861438989639282,keyboard,keyboard,0,0337_pow_s05_0_keyboard_35_n03085013_10659.png
subject-05,1,338,1.19854283332825,airplane,airplane,pow,0338_pow_s05_pow_airplane_35_n02690373_5565.png
subject-05,1,339,1.01322293281555,oven,oven,pow,0339_pow_s05_pow_oven_35_n04111531_6400.png
subject-05,1,340,0.91120719909668,boat,boat,pow,0340_pow_s05_pow_boat_35_n02951358_12312.png
subject-05,1,341,1.13291907310486,bear,bear,0,0341_pow_s05_0_bear_35_n02134418_3793.png
subject-05,1,342,0.646614074707031,airplane,airplane,0,0342_pow_s05_0_airplane_35_n02690373_5729.png
subject-05,1,343,0.696323871612549,bear,dog,pow,0343_pow_s05_pow_dog_35_n02104029_8032.png
subject-05,1,344,1.08654999732971,cat,cat,0,0344_pow_s05_0_cat_35_n02123597_6354.png
subject-05,1,345,1.48462104797363,elephant,chair,0,0345_pow_s05_0_chair_35_n04429376_7439.png
subject-05,1,346,0.683388948440552,oven,oven,pow,0346_pow_s05_pow_oven_35_n04111531_10290.png
subject-05,1,347,0.973300218582153,elephant,oven,pow,0347_pow_s05_pow_oven_35_n04111531_9712.png
subject-05,1,348,0.842091083526611,bottle,keyboard,pow,0348_pow_s05_pow_keyboard_35_n04505470_4828.png
subject-05,1,349,1.40034914016724,truck,truck,0,0349_pow_s05_0_truck_35_n03796401_5338.png
subject-05,1,350,1.31470513343811,oven,chair,pow,0350_pow_s05_pow_chair_35_n02791124_15383.png
subject-05,1,351,1.03697896003723,oven,oven,0,0351_pow_s05_0_oven_35_n04111531_4418.png
subject-05,1,352,1.50005698204041,oven,bear,pow,0352_pow_s05_pow_bear_35_n02133161_1372.png
subject-05,1,353,0.763147115707397,knife,knife,0,0353_pow_s05_0_knife_35_n03041632_45636.png
subject-05,1,354,0.901393890380859,knife,knife,0,0354_pow_s05_0_knife_35_n03041632_19866.png
subject-05,1,355,1.5000479221344,bicycle,bicycle,0,0355_pow_s05_0_bicycle_35_n03792782_518.png
subject-05,1,356,1.04223012924194,cat,cat,pow,0356_pow_s05_pow_cat_35_n02123045_10603.png
subject-05,1,357,0.802487134933472,boat,airplane,pow,0357_pow_s05_pow_airplane_35_n02690373_911.png
subject-05,1,358,1.4225959777832,cat,cat,0,0358_pow_s05_0_cat_35_n02123394_1968.png
subject-05,1,359,0.836833000183105,clock,clock,0,0359_pow_s05_0_clock_35_n03196217_1804.png
subject-05,1,360,1.1649169921875,chair,chair,pow,0360_pow_s05_pow_chair_35_n03376595_3279.png
subject-05,1,361,1.12548899650574,bird,bird,pow,0361_pow_s05_pow_bird_35_n02018207_13072.png
subject-05,1,362,0.747583150863647,chair,chair,0,0362_pow_s05_0_chair_35_n02791124_5006.png
subject-05,1,363,0.754143953323364,bottle,bottle,pow,0363_pow_s05_pow_bottle_35_n04557648_9510.png
subject-05,1,364,1.05809998512268,truck,car,pow,0364_pow_s05_pow_car_35_n02814533_80101.png
subject-05,1,365,1.10227799415588,dog,bear,0,0365_pow_s05_0_bear_35_n02132136_5896.png
subject-05,1,366,0.846436977386475,elephant,elephant,pow,0366_pow_s05_pow_elephant_35_n02504458_4934.png
subject-05,1,367,0.966784000396729,dog,dog,pow,0367_pow_s05_pow_dog_35_n02106662_50313.png
subject-05,1,368,0.872801780700684,car,car,0,0368_pow_s05_0_car_35_n04285008_6131.png
subject-05,1,369,1.04132199287415,cat,cat,0,0369_pow_s05_0_cat_35_n02125311_9364.png
subject-05,1,370,1.13727188110352,dog,dog,pow,0370_pow_s05_pow_dog_35_n02109047_1336.png
subject-05,1,371,0.989756107330322,elephant,oven,pow,0371_pow_s05_pow_oven_35_n04111531_3098.png
subject-05,1,372,0.811876058578491,bird,bird,0,0372_pow_s05_0_bird_35_n01855032_7709.png
subject-05,1,373,1.25433301925659,bottle,bottle,0,0373_pow_s05_0_bottle_35_n04591713_6594.png
subject-05,1,374,1.19290804862976,oven,bottle,pow,0374_pow_s05_pow_bottle_35_n04557648_31873.png
subject-05,1,375,0.975347995758057,car,car,0,0375_pow_s05_0_car_35_n03100240_207.png
subject-05,1,376,0.881797075271606,elephant,cat,pow,0376_pow_s05_pow_cat_35_n02125311_35091.png
subject-05,1,377,0.856081962585449,boat,boat,0,0377_pow_s05_0_boat_35_n04273569_8299.png
subject-05,1,378,1.23228311538696,boat,boat,0,0378_pow_s05_0_boat_35_n02951358_7382.png
subject-05,1,379,1.38221406936646,keyboard,oven,pow,0379_pow_s05_pow_oven_35_n04111531_14435.png
subject-05,1,380,0.874957084655762,bicycle,bicycle,0,0380_pow_s05_0_bicycle_35_n02835271_12752.png
subject-05,1,381,1.18096804618835,boat,boat,0,0381_pow_s05_0_boat_35_n03344393_4221.png
subject-05,1,382,NaN,na,bear,0,0382_pow_s05_0_bear_35_n02134418_1459.png
subject-05,1,383,1.3615939617157,cat,bottle,pow,0383_pow_s05_pow_bottle_35_n04591713_3093.png
subject-05,1,384,1.26001691818237,dog,dog,0,0384_pow_s05_0_dog_35_n02100583_23902.png
subject-05,1,385,1.29656386375427,bird,bird,pow,0385_pow_s05_pow_bird_35_n01820546_7652.png
subject-05,1,386,NaN,na,oven,pow,0386_pow_s05_pow_oven_35_n04111531_4444.png
subject-05,1,387,0.870999097824097,boat,boat,0,0387_pow_s05_0_boat_35_n03662601_27127.png
subject-05,1,388,1.23773407936096,bird,bird,pow,0388_pow_s05_pow_bird_35_n02033041_11806.png
subject-05,1,389,1.13621783256531,dog,dog,pow,0389_pow_s05_pow_dog_35_n02106166_13652.png
subject-05,1,390,NaN,na,dog,pow,0390_pow_s05_pow_dog_35_n02087394_25552.png
subject-05,1,391,1.12699413299561,chair,chair,pow,0391_pow_s05_pow_chair_35_n03376595_2768.png
subject-05,1,392,0.909789085388184,truck,truck,0,0392_pow_s05_0_truck_35_n04467665_40886.png
subject-05,1,393,0.832074880599976,car,car,pow,0393_pow_s05_pow_car_35_n02814533_15651.png
subject-05,1,394,NaN,na,knife,pow,0394_pow_s05_pow_knife_35_n03041632_13846.png
subject-05,1,395,0.834400177001953,cat,cat,0,0395_pow_s05_0_cat_35_n02125311_27827.png
subject-05,1,396,1.18708395957947,dog,knife,pow,0396_pow_s05_pow_knife_35_n03041632_84240.png
subject-05,1,397,0.82302188873291,bicycle,bicycle,0,0397_pow_s05_0_bicycle_35_n03792782_32272.png
subject-05,1,398,1.05094385147095,bottle,bottle,0,0398_pow_s05_0_bottle_35_n04557648_11085.png
subject-05,1,399,1.500244140625,chair,chair,0,0399_pow_s05_0_chair_35_n03376595_3859.png
subject-05,1,400,NaN,na,truck,pow,0400_pow_s05_pow_truck_35_n03796401_9136.png
subject-05,1,401,0.912853956222534,boat,oven,0,0401_pow_s05_0_oven_35_n04111531_22097.png
subject-05,1,402,NaN,na,car,pow,0402_pow_s05_pow_car_35_n04285008_11011.png
subject-05,1,403,0.663475036621094,knife,knife,pow,0403_pow_s05_pow_knife_35_n03041632_3210.png
subject-05,1,404,1.17601084709167,dog,dog,0,0404_pow_s05_0_dog_35_n02106662_21717.png
subject-05,1,405,1.05052590370178,keyboard,clock,0,0405_pow_s05_0_clock_35_n03196217_1234.png
subject-05,1,406,0.940569162368774,knife,knife,pow,0406_pow_s05_pow_knife_35_n03041632_2973.png
subject-05,1,407,1.26913285255432,cat,cat,pow,0407_pow_s05_pow_cat_35_n02125311_9615.png
subject-05,1,408,1.06162095069885,chair,chair,pow,0408_pow_s05_pow_chair_35_n03376595_6136.png
subject-05,1,409,0.689884901046753,chair,chair,0,0409_pow_s05_0_chair_35_n02791124_3414.png
subject-05,1,410,0.772604942321777,dog,dog,pow,0410_pow_s05_pow_dog_35_n02096051_3940.png
subject-05,1,411,0.824599981307983,bicycle,bicycle,pow,0411_pow_s05_pow_bicycle_35_n02835271_27014.png
subject-05,1,412,1.0691351890564,truck,truck,pow,0412_pow_s05_pow_truck_35_n03417042_11334.png
subject-05,1,413,1.22682595252991,bird,dog,pow,0413_pow_s05_pow_dog_35_n02093991_87.png
subject-05,1,414,0.993129014968872,elephant,elephant,pow,0414_pow_s05_pow_elephant_35_n02504013_5530.png
subject-05,1,415,NaN,na,truck,pow,0415_pow_s05_pow_truck_35_n03796401_2514.png
subject-05,1,416,1.14418888092041,cat,cat,0,0416_pow_s05_0_cat_35_n02123394_707.png
subject-05,1,417,1.28907203674316,cat,boat,pow,0417_pow_s05_pow_boat_35_n03344393_2002.png
subject-05,1,418,1.45510005950928,bear,bear,0,0418_pow_s05_0_bear_35_n02133161_1737.png
subject-05,1,419,1.39216494560242,bird,cat,0,0419_pow_s05_0_cat_35_n02123597_4452.png
subject-05,1,420,1.09836888313293,bird,bird,0,0420_pow_s05_0_bird_35_n02037110_9546.png
subject-05,1,421,1.03453588485718,elephant,elephant,0,0421_pow_s05_0_elephant_35_n02504458_4263.png
subject-05,1,422,0.74903416633606,clock,clock,0,0422_pow_s05_0_clock_35_n04548280_7087.png
subject-05,1,423,0.715217113494873,car,car,0,0423_pow_s05_0_car_35_n04285008_7033.png
subject-05,1,424,1.50026988983154,boat,boat,0,0424_pow_s05_0_boat_35_n04612504_4216.png
subject-05,1,425,1.0657160282135,knife,knife,pow,0425_pow_s05_pow_knife_35_n03041632_4318.png
subject-05,1,426,1.50017285346985,bear,bear,0,0426_pow_s05_0_bear_35_n02132136_23078.png
subject-05,1,427,0.968484878540039,truck,truck,0,0427_pow_s05_0_truck_35_n04467665_58500.png
subject-05,1,428,1.02114605903625,clock,clock,0,0428_pow_s05_0_clock_35_n04548280_4295.png
subject-05,1,429,1.50026297569275,bottle,bottle,0,0429_pow_s05_0_bottle_35_n04591713_16793.png
subject-05,1,430,1.50016403198242,oven,truck,0,0430_pow_s05_0_truck_35_n03796401_4751.png
subject-05,1,431,1.47553515434265,dog,dog,0,0431_pow_s05_0_dog_35_n02088364_10893.png
subject-05,1,432,1.50002288818359,clock,keyboard,pow,0432_pow_s05_pow_keyboard_35_n03085013_9123.png
subject-05,1,433,1.50010895729065,elephant,elephant,0,0433_pow_s05_0_elephant_35_n02504013_23998.png
subject-05,1,434,1.16860389709473,clock,clock,0,0434_pow_s05_0_clock_35_n02708093_1038.png
subject-05,1,435,1.24442195892334,oven,oven,pow,0435_pow_s05_pow_oven_35_n04111531_6084.png
subject-05,1,436,0.988822937011719,oven,oven,pow,0436_pow_s05_pow_oven_35_n04111531_15912.png
subject-05,1,437,1.07697296142578,dog,elephant,pow,0437_pow_s05_pow_elephant_35_n02504458_7642.png
subject-05,1,438,0.861316204071045,cat,cat,0,0438_pow_s05_0_cat_35_n02123045_12691.png
subject-05,1,439,0.822062015533447,bicycle,bicycle,pow,0439_pow_s05_pow_bicycle_35_n02835271_6032.png
subject-05,1,440,1.05862998962402,boat,clock,pow,0440_pow_s05_pow_clock_35_n02708093_6816.png
subject-05,1,441,1.5004460811615,truck,truck,0,0441_pow_s05_0_truck_35_n03796401_22618.png
subject-05,1,442,0.993242979049683,boat,airplane,pow,0442_pow_s05_pow_airplane_35_n02690373_1821.png
subject-05,1,443,1.50019502639771,cat,cat,0,0443_pow_s05_0_cat_35_n02123394_2213.png
subject-05,1,444,NaN,na,chair,pow,0444_pow_s05_pow_chair_35_n03376595_6445.png
subject-05,1,445,1.50001811981201,bottle,bottle,pow,0445_pow_s05_pow_bottle_35_n04579145_1236.png
subject-05,1,446,0.854735851287842,knife,knife,0,0446_pow_s05_0_knife_35_n03041632_383.png
subject-05,1,447,0.604244947433472,oven,oven,pow,0447_pow_s05_pow_oven_35_n04111531_4467.png
subject-05,1,448,0.661931991577148,chair,chair,0,0448_pow_s05_0_chair_35_n04099969_16510.png
subject-05,1,449,0.881760120391846,elephant,bear,pow,0449_pow_s05_pow_bear_35_n02134418_225.png
subject-05,1,450,0.964472055435181,bird,bird,0,0450_pow_s05_0_bird_35_n02037110_22754.png
subject-05,1,451,0.786197900772095,chair,chair,pow,0451_pow_s05_pow_chair_35_n02791124_1325.png
subject-05,1,452,0.899150848388672,bird,cat,pow,0452_pow_s05_pow_cat_35_n02123394_533.png
subject-05,1,453,0.973512887954712,cat,keyboard,0,0453_pow_s05_0_keyboard_35_n03085013_24078.png
subject-05,1,454,0.89545202255249,bird,bird,0,0454_pow_s05_0_bird_35_n01560419_1823.png
subject-05,1,455,0.907896995544434,bear,bear,0,0455_pow_s05_0_bear_35_n02133161_461.png
subject-05,1,456,1.12300515174866,bird,boat,pow,0456_pow_s05_pow_boat_35_n03344393_5488.png
subject-05,1,457,1.22109293937683,knife,knife,0,0457_pow_s05_0_knife_35_n03041632_29038.png
subject-05,1,458,1.14138698577881,dog,dog,0,0458_pow_s05_0_dog_35_n02100877_4724.png
subject-05,1,459,1.20175004005432,cat,oven,pow,0459_pow_s05_pow_oven_35_n04111531_7283.png
subject-05,1,460,1.06228184700012,bottle,airplane,pow,0460_pow_s05_pow_airplane_35_n02690373_4064.png
subject-05,1,461,1.15835690498352,boat,boat,0,0461_pow_s05_0_boat_35_n04612504_5340.png
subject-05,1,462,1.08941888809204,keyboard,keyboard,pow,0462_pow_s05_pow_keyboard_35_n03085013_22996.png
subject-05,1,463,1.15500092506409,boat,boat,0,0463_pow_s05_0_boat_35_n02951358_34070.png
subject-05,1,464,1.5003559589386,dog,bear,pow,0464_pow_s05_pow_bear_35_n02133161_12370.png
subject-05,1,465,1.28944683074951,dog,chair,pow,0465_pow_s05_pow_chair_35_n04099969_8360.png
subject-05,1,466,1.30210089683533,boat,bird,0,0466_pow_s05_0_bird_35_n02033041_9883.png
subject-05,1,467,1.01631808280945,chair,chair,pow,0467_pow_s05_pow_chair_35_n04099969_3699.png
subject-05,1,468,1.20634388923645,airplane,airplane,0,0468_pow_s05_0_airplane_35_n02690373_191.png
subject-05,1,469,1.31059217453003,cat,clock,pow,0469_pow_s05_pow_clock_35_n03196217_445.png
subject-05,1,470,1.16294598579407,cat,cat,0,0470_pow_s05_0_cat_35_n02123597_11492.png
subject-05,1,471,1.4455840587616,bird,bird,0,0471_pow_s05_0_bird_35_n01818515_3806.png
subject-05,1,472,1.08968806266785,knife,knife,0,0472_pow_s05_0_knife_35_n03041632_20697.png
subject-05,1,473,1.25822496414185,airplane,airplane,pow,0473_pow_s05_pow_airplane_35_n02690373_8789.png
subject-05,1,474,1.36236691474915,oven,oven,0,0474_pow_s05_0_oven_35_n04111531_15667.png
subject-05,1,475,0.960907936096191,elephant,elephant,0,0475_pow_s05_0_elephant_35_n02504013_3939.png
subject-05,1,476,1.26717185974121,oven,oven,0,0476_pow_s05_0_oven_35_n04111531_13296.png
subject-05,1,477,NaN,na,elephant,pow,0477_pow_s05_pow_elephant_35_n02504458_8190.png
subject-05,1,478,1.16451191902161,elephant,elephant,0,0478_pow_s05_0_elephant_35_n02504458_6715.png
subject-05,1,479,1.08498692512512,boat,boat,0,0479_pow_s05_0_boat_35_n03662601_3100.png
subject-05,1,480,1.41894698143005,car,airplane,0,0480_pow_s05_0_airplane_35_n02690373_10285.png
subject-05,1,481,0.6963050365448,bird,bird,pow,0481_pow_s05_pow_bird_35_n01532829_7821.png
subject-05,1,482,1.0541570186615,bottle,bottle,0,0482_pow_s05_0_bottle_35_n03937543_10266.png
subject-05,1,483,0.75226902961731,bottle,bottle,pow,0483_pow_s05_pow_bottle_35_n03937543_10292.png
subject-05,1,484,0.734441995620728,truck,truck,pow,0484_pow_s05_pow_truck_35_n04467665_68486.png
subject-05,1,485,0.763164043426514,chair,chair,pow,0485_pow_s05_pow_chair_35_n04099969_1229.png
subject-05,1,486,1.01546001434326,boat,chair,0,0486_pow_s05_0_chair_35_n04429376_3852.png
subject-05,1,487,0.527950048446655,bottle,bottle,pow,0487_pow_s05_pow_bottle_35_n03983396_17006.png
subject-05,1,488,1.31787586212158,elephant,elephant,pow,0488_pow_s05_pow_elephant_35_n02504458_6271.png
subject-05,1,489,0.584085941314697,boat,boat,pow,0489_pow_s05_pow_boat_35_n04612504_434.png
subject-05,1,490,0.874293088912964,elephant,elephant,0,0490_pow_s05_0_elephant_35_n02504458_2944.png
subject-05,1,491,NaN,na,airplane,0,0491_pow_s05_0_airplane_35_n02690373_16620.png
subject-05,1,492,1.19310688972473,bicycle,bicycle,0,0492_pow_s05_0_bicycle_35_n03792782_15156.png
subject-05,1,493,0.645348072052002,bottle,clock,0,0493_pow_s05_0_clock_35_n02708093_3410.png
subject-05,1,494,0.827790021896362,bird,boat,pow,0494_pow_s05_pow_boat_35_n03662601_6737.png
subject-05,1,495,0.725964069366455,dog,dog,pow,0495_pow_s05_pow_dog_35_n02086910_2235.png
subject-05,1,496,0.638684988021851,truck,truck,pow,0496_pow_s05_pow_truck_35_n03796401_14028.png
subject-05,1,497,0.890895843505859,dog,dog,0,0497_pow_s05_0_dog_35_n02113624_7262.png
subject-05,1,498,0.773518085479736,boat,keyboard,pow,0498_pow_s05_pow_keyboard_35_n03085013_2064.png
subject-05,1,499,0.65534782409668,keyboard,keyboard,0,0499_pow_s05_0_keyboard_35_n04505470_3286.png
subject-05,1,500,1.50029993057251,airplane,airplane,pow,0500_pow_s05_pow_airplane_35_n02690373_4070.png
subject-05,1,501,NaN,na,truck,pow,0501_pow_s05_pow_truck_35_n03796401_3434.png
subject-05,1,502,0.561661958694458,oven,oven,0,0502_pow_s05_0_oven_35_n04111531_16795.png
subject-05,1,503,0.751950025558472,oven,chair,pow,0503_pow_s05_pow_chair_35_n03376595_1135.png
subject-05,1,504,1.19626688957214,dog,dog,0,0504_pow_s05_0_dog_35_n02085936_20102.png
subject-05,1,505,1.14050006866455,cat,knife,pow,0505_pow_s05_pow_knife_35_n03041632_24326.png
subject-05,1,506,0.99098014831543,bottle,bottle,pow,0506_pow_s05_pow_bottle_35_n04557648_9583.png
subject-05,1,507,0.843908071517944,bear,bear,pow,0507_pow_s05_pow_bear_35_n02132136_3727.png
subject-05,1,508,0.833770990371704,chair,chair,0,0508_pow_s05_0_chair_35_n04099969_6230.png
subject-05,1,509,0.824127912521362,oven,keyboard,0,0509_pow_s05_0_keyboard_35_n03085013_3078.png
subject-05,1,510,1.35824394226074,clock,chair,0,0510_pow_s05_0_chair_35_n03376595_17811.png
subject-05,1,511,0.904688119888306,cat,keyboard,0,0511_pow_s05_0_keyboard_35_n03085013_24404.png
subject-05,1,512,1.24620604515076,cat,airplane,0,0512_pow_s05_0_airplane_35_n02690373_5662.png
subject-05,1,513,0.97479510307312,dog,dog,0,0513_pow_s05_0_dog_35_n02088364_11438.png
subject-05,1,514,0.772979974746704,oven,clock,0,0514_pow_s05_0_clock_35_n04548280_2343.png
subject-05,1,515,0.877362012863159,bird,bird,0,0515_pow_s05_0_bird_35_n01530575_10558.png
subject-05,1,516,0.651791095733643,cat,cat,0,0516_pow_s05_0_cat_35_n02123394_8337.png
subject-05,1,517,0.62591290473938,cat,dog,pow,0517_pow_s05_pow_dog_35_n02111277_13849.png
subject-05,1,518,0.632107019424438,truck,truck,0,0518_pow_s05_0_truck_35_n04467665_13898.png
subject-05,1,519,1.17461490631104,dog,dog,0,0519_pow_s05_0_dog_35_n02102177_8290.png
subject-05,1,520,1.22415018081665,bird,bird,pow,0520_pow_s05_pow_bird_35_n01833805_11762.png
subject-05,1,521,1.20627307891846,airplane,airplane,pow,0521_pow_s05_pow_airplane_35_n02690373_5300.png
subject-05,1,522,0.882732152938843,car,car,0,0522_pow_s05_0_car_35_n03100240_16439.png
subject-05,1,523,0.818608045578003,boat,boat,pow,0523_pow_s05_pow_boat_35_n03662601_2337.png
subject-05,1,524,1.07471609115601,cat,cat,pow,0524_pow_s05_pow_cat_35_n02123159_2485.png
subject-05,1,525,0.927253007888794,dog,oven,pow,0525_pow_s05_pow_oven_35_n04111531_14876.png
subject-05,1,526,0.809581995010376,bear,bear,pow,0526_pow_s05_pow_bear_35_n02133161_5586.png
subject-05,1,527,0.785664081573486,elephant,elephant,0,0527_pow_s05_0_elephant_35_n02504013_10628.png
subject-05,1,528,0.819681882858276,bird,cat,0,0528_pow_s05_0_cat_35_n02123159_9429.png
subject-05,1,529,0.83945894241333,bottle,bottle,0,0529_pow_s05_0_bottle_35_n04591713_1630.png
subject-05,1,530,0.691519021987915,keyboard,keyboard,0,0530_pow_s05_0_keyboard_35_n03085013_25559.png
subject-05,1,531,0.874079942703247,knife,knife,pow,0531_pow_s05_pow_knife_35_n03041632_8321.png
subject-05,1,532,0.76494312286377,clock,clock,0,0532_pow_s05_0_clock_35_n04548280_8277.png
subject-05,1,533,0.725150108337402,keyboard,keyboard,0,0533_pow_s05_0_keyboard_35_n04505470_10023.png
subject-05,1,534,0.661896944046021,clock,clock,pow,0534_pow_s05_pow_clock_35_n03196217_3361.png
subject-05,1,535,1.29619884490967,oven,dog,0,0535_pow_s05_0_dog_35_n02102973_5994.png
subject-05,1,536,0.664510011672974,bicycle,bicycle,0,0536_pow_s05_0_bicycle_35_n02835271_22958.png
subject-05,1,537,0.801013946533203,boat,boat,0,0537_pow_s05_0_boat_35_n03662601_8947.png
subject-05,1,538,1.29724383354187,cat,knife,pow,0538_pow_s05_pow_knife_35_n03041632_26710.png
subject-05,1,539,0.957441091537476,boat,bottle,pow,0539_pow_s05_pow_bottle_35_n02823428_4727.png
subject-05,1,540,0.689347982406616,cat,cat,0,0540_pow_s05_0_cat_35_n02123597_6398.png
subject-05,1,541,1.00937795639038,bird,keyboard,pow,0541_pow_s05_pow_keyboard_35_n03085013_22790.png
subject-05,1,542,0.761443138122559,clock,clock,pow,0542_pow_s05_pow_clock_35_n02708093_2800.png
subject-05,1,543,0.682301044464111,cat,cat,pow,0543_pow_s05_pow_cat_35_n02123045_5116.png
subject-05,1,544,0.634653091430664,bicycle,bicycle,0,0544_pow_s05_0_bicycle_35_n02835271_2787.png
subject-05,1,545,0.625093936920166,truck,truck,pow,0545_pow_s05_pow_truck_35_n03417042_6358.png
subject-05,1,546,0.677786111831665,chair,chair,pow,0546_pow_s05_pow_chair_35_n04429376_4173.png
subject-05,1,547,1.16601300239563,airplane,airplane,pow,0547_pow_s05_pow_airplane_35_n02690373_3326.png
subject-05,1,548,1.01056790351868,dog,elephant,0,0548_pow_s05_0_elephant_35_n02504013_2796.png
subject-05,1,549,1.00899195671082,bird,bird,0,0549_pow_s05_0_bird_35_n02011460_4186.png
subject-05,1,550,0.713228940963745,oven,bottle,0,0550_pow_s05_0_bottle_35_n04560804_3130.png
subject-05,1,551,1.08722400665283,airplane,airplane,pow,0551_pow_s05_pow_airplane_35_n02690373_9401.png
subject-05,1,552,0.793848037719727,dog,dog,pow,0552_pow_s05_pow_dog_35_n02093647_655.png
subject-05,1,553,0.976070880889893,car,car,pow,0553_pow_s05_pow_car_35_n02814533_149.png
subject-05,1,554,1.15631103515625,cat,cat,pow,0554_pow_s05_pow_cat_35_n02125311_13478.png
subject-05,1,555,0.546277046203613,oven,oven,pow,0555_pow_s05_pow_oven_35_n04111531_136.png
subject-05,1,556,0.602242946624756,oven,oven,0,0556_pow_s05_0_oven_35_n04111531_10640.png
subject-05,1,557,0.6385178565979,oven,bear,pow,0557_pow_s05_pow_bear_35_n02134084_8004.png
subject-05,1,558,0.834825038909912,clock,clock,0,0558_pow_s05_0_clock_35_n02708093_3454.png
subject-05,1,559,1.08499789237976,boat,boat,pow,0559_pow_s05_pow_boat_35_n03344393_7028.png
subject-05,1,560,1.29121994972229,bird,elephant,0,0560_pow_s05_0_elephant_35_n02504458_7662.png
subject-05,1,561,0.940866947174072,elephant,elephant,0,0561_pow_s05_0_elephant_35_n02504458_1336.png
subject-05,1,562,0.953161001205444,bird,bird,pow,0562_pow_s05_pow_bird_35_n01860187_3085.png
subject-05,1,563,0.591408014297485,airplane,airplane,pow,0563_pow_s05_pow_airplane_35_n02690373_2435.png
subject-05,1,564,0.795958042144775,bear,bear,0,0564_pow_s05_0_bear_35_n02133161_3181.png
subject-05,1,565,0.700185060501099,bottle,bottle,0,0565_pow_s05_0_bottle_35_n03937543_2936.png
subject-05,1,566,0.730858087539673,truck,truck,pow,0566_pow_s05_pow_truck_35_n04467665_16461.png
subject-05,1,567,1.44071197509766,keyboard,keyboard,pow,0567_pow_s05_pow_keyboard_35_n04505470_1435.png
subject-05,1,568,1.49339699745178,boat,car,0,0568_pow_s05_0_car_35_n03100240_16598.png
subject-05,1,569,0.945679903030396,bear,bear,pow,0569_pow_s05_pow_bear_35_n02133161_3570.png
subject-05,1,570,0.660309791564941,oven,oven,0,0570_pow_s05_0_oven_35_n04111531_8255.png
subject-05,1,571,0.64853310585022,cat,cat,0,0571_pow_s05_0_cat_35_n02123159_6146.png
subject-05,1,572,0.90639591217041,bird,oven,0,0572_pow_s05_0_oven_35_n04111531_1330.png
subject-05,1,573,0.996849060058594,boat,airplane,pow,0573_pow_s05_pow_airplane_35_n02690373_2431.png
subject-05,1,574,1.12937092781067,keyboard,keyboard,0,0574_pow_s05_0_keyboard_35_n04505470_4576.png
subject-05,1,575,0.697727203369141,cat,cat,0,0575_pow_s05_0_cat_35_n02124075_380.png
subject-05,1,576,0.685784816741943,boat,boat,0,0576_pow_s05_0_boat_35_n02951358_10018.png
subject-05,1,577,0.754194974899292,dog,dog,0,0577_pow_s05_0_dog_35_n02104365_6428.png
subject-05,1,578,0.658313989639282,boat,bird,pow,0578_pow_s05_pow_bird_35_n02009229_9202.png
subject-05,1,579,0.603303909301758,elephant,elephant,0,0579_pow_s05_0_elephant_35_n02504458_3491.png
subject-05,1,580,0.677037954330444,chair,chair,pow,0580_pow_s05_pow_chair_35_n02791124_17001.png
subject-05,1,581,1.0356981754303,bird,bear,pow,0581_pow_s05_pow_bear_35_n02133161_5164.png
subject-05,1,582,0.780169010162354,keyboard,keyboard,0,0582_pow_s05_0_keyboard_35_n04505470_1439.png
subject-05,1,583,0.670179128646851,oven,knife,0,0583_pow_s05_0_knife_35_n03041632_20217.png
subject-05,1,584,0.774635791778564,elephant,elephant,pow,0584_pow_s05_pow_elephant_35_n02504458_7200.png
subject-05,1,585,0.681387901306152,keyboard,knife,pow,0585_pow_s05_pow_knife_35_n03041632_76163.png
subject-05,1,586,0.747590065002441,dog,dog,0,0586_pow_s05_0_dog_35_n02107312_777.png
subject-05,1,587,0.860081911087036,knife,knife,0,0587_pow_s05_0_knife_35_n03041632_23678.png
subject-05,1,588,1.14228701591492,car,chair,pow,0588_pow_s05_pow_chair_35_n02791124_9918.png
subject-05,1,589,0.970863103866577,bicycle,bicycle,pow,0589_pow_s05_pow_bicycle_35_n02835271_173.png
subject-05,1,590,1.34340715408325,airplane,airplane,pow,0590_pow_s05_pow_airplane_35_n02690373_6872.png
subject-05,1,591,0.889997005462646,boat,clock,pow,0591_pow_s05_pow_clock_35_n04548280_8246.png
subject-05,1,592,1.05636286735535,car,car,0,0592_pow_s05_0_car_35_n02814533_84606.png
subject-05,1,593,1.12295508384705,clock,clock,pow,0593_pow_s05_pow_clock_35_n03196217_946.png
subject-05,1,594,1.32136702537537,elephant,elephant,pow,0594_pow_s05_pow_elephant_35_n02504013_6515.png
subject-05,1,595,0.670638084411621,elephant,elephant,0,0595_pow_s05_0_elephant_35_n02504458_1404.png
subject-05,1,596,1.06132888793945,boat,knife,0,0596_pow_s05_0_knife_35_n03041632_39342.png
subject-05,1,597,1.23722505569458,boat,boat,pow,0597_pow_s05_pow_boat_35_n02951358_3252.png
subject-05,1,598,1.02750992774963,cat,clock,pow,0598_pow_s05_pow_clock_35_n02708093_7944.png
subject-05,1,599,0.925753831863403,truck,truck,pow,0599_pow_s05_pow_truck_35_n03417042_18124.png
subject-05,1,600,0.868254899978638,cat,cat,pow,0600_pow_s05_pow_cat_35_n02123159_1758.png
subject-05,1,601,0.850538969039917,knife,knife,0,0601_pow_s05_0_knife_35_n03041632_36814.png
subject-05,1,602,0.80311107635498,bicycle,bicycle,0,0602_pow_s05_0_bicycle_35_n03792782_9609.png
subject-05,1,603,0.677675008773804,keyboard,keyboard,pow,0603_pow_s05_pow_keyboard_35_n03085013_28686.png
subject-05,1,604,0.806312084197998,truck,truck,0,0604_pow_s05_0_truck_35_n03417042_29361.png
subject-05,1,605,0.674284934997559,chair,chair,pow,0605_pow_s05_pow_chair_35_n04099969_33075.png
subject-05,1,606,1.26871109008789,elephant,elephant,0,0606_pow_s05_0_elephant_35_n02504013_6431.png
subject-05,1,607,0.921128034591675,dog,dog,0,0607_pow_s05_0_dog_35_n02085936_1810.png
subject-05,1,608,0.718805074691772,chair,chair,0,0608_pow_s05_0_chair_35_n03376595_6090.png
subject-05,1,609,1.34491086006165,dog,boat,pow,0609_pow_s05_pow_boat_35_n04273569_3095.png
subject-05,1,610,0.935345888137817,truck,truck,0,0610_pow_s05_0_truck_35_n04467665_70886.png
subject-05,1,611,0.779541969299316,keyboard,keyboard,0,0611_pow_s05_0_keyboard_35_n04505470_4535.png
subject-05,1,612,0.762046813964844,clock,clock,pow,0612_pow_s05_pow_clock_35_n04548280_549.png
subject-05,1,613,0.966355800628662,boat,boat,pow,0613_pow_s05_pow_boat_35_n03662601_32604.png
subject-05,1,614,0.686774969100952,car,car,0,0614_pow_s05_0_car_35_n04285008_8565.png
subject-05,1,615,0.761094808578491,bottle,bottle,0,0615_pow_s05_0_bottle_35_n04591713_562.png
subject-05,1,616,0.767325878143311,bottle,bottle,0,0616_pow_s05_0_bottle_35_n03937543_10581.png
subject-05,1,617,0.749878883361816,bicycle,bicycle,0,0617_pow_s05_0_bicycle_35_n03792782_9709.png
subject-05,1,618,1.09227895736694,bottle,bottle,pow,0618_pow_s05_pow_bottle_35_n04591713_963.png
subject-05,1,619,1.31302380561829,bottle,bottle,pow,0619_pow_s05_pow_bottle_35_n03983396_6817.png
subject-05,1,620,0.840830087661743,car,car,0,0620_pow_s05_0_car_35_n04285008_9512.png
subject-05,1,621,0.668815135955811,chair,chair,0,0621_pow_s05_0_chair_35_n04099969_1748.png
subject-05,1,622,1.07871103286743,elephant,elephant,0,0622_pow_s05_0_elephant_35_n02504458_5042.png
subject-05,1,623,0.771154165267944,boat,dog,0,0623_pow_s05_0_dog_35_n02089973_11508.png
subject-05,1,624,0.951766967773438,keyboard,bicycle,pow,0624_pow_s05_pow_bicycle_35_n03792782_24722.png
subject-05,1,625,NaN,na,bottle,0,0625_pow_s05_0_bottle_35_n04591713_5563.png
subject-05,1,626,0.886754035949707,oven,oven,0,0626_pow_s05_0_oven_35_n04111531_7252.png
subject-05,1,627,0.60603404045105,car,car,pow,0627_pow_s05_pow_car_35_n04285008_6325.png
subject-05,1,628,0.734493017196655,dog,dog,0,0628_pow_s05_0_dog_35_n02086910_8579.png
subject-05,1,629,1.01500296592712,bird,bird,pow,0629_pow_s05_pow_bird_35_n02002556_8357.png
subject-05,1,630,0.85092306137085,truck,truck,0,0630_pow_s05_0_truck_35_n04467665_3378.png
subject-05,1,631,0.77901816368103,boat,clock,pow,0631_pow_s05_pow_clock_35_n02708093_1015.png
subject-05,1,632,0.969758033752441,dog,bear,pow,0632_pow_s05_pow_bear_35_n02134418_2472.png
subject-05,1,633,1.14964294433594,bird,bottle,pow,0633_pow_s05_pow_bottle_35_n04557648_4619.png
subject-05,1,634,0.688119173049927,clock,clock,pow,0634_pow_s05_pow_clock_35_n03196217_5365.png
subject-05,1,635,0.824466943740845,airplane,airplane,pow,0635_pow_s05_pow_airplane_35_n02690373_7276.png
subject-05,1,636,0.804398059844971,airplane,airplane,0,0636_pow_s05_0_airplane_35_n02690373_1277.png
subject-05,1,637,0.732925891876221,clock,clock,0,0637_pow_s05_0_clock_35_n02708093_3361.png
subject-05,1,638,1.08321809768677,bird,knife,0,0638_pow_s05_0_knife_35_n03041632_29862.png
subject-05,1,639,NaN,na,bicycle,0,0639_pow_s05_0_bicycle_35_n03792782_3349.png
subject-05,1,640,0.91820502281189,car,car,pow,0640_pow_s05_pow_car_35_n02814533_22994.png
subject-05,1,641,1.05671882629395,bird,knife,pow,0641_pow_s05_pow_knife_35_n03041632_43625.png
subject-05,1,642,0.776925086975098,dog,dog,0,0642_pow_s05_0_dog_35_n02097047_1204.png
subject-05,1,643,0.620649099349976,keyboard,keyboard,0,0643_pow_s05_0_keyboard_35_n03085013_5819.png
subject-05,1,644,0.732864856719971,truck,truck,0,0644_pow_s05_0_truck_35_n03417042_20382.png
subject-05,1,645,0.845659017562866,truck,truck,0,0645_pow_s05_0_truck_35_n03417042_21205.png
subject-05,1,646,0.904038906097412,elephant,elephant,0,0646_pow_s05_0_elephant_35_n02504013_1125.png
subject-05,1,647,0.68790078163147,boat,boat,0,0647_pow_s05_0_boat_35_n02951358_34418.png
subject-05,1,648,0.730311155319214,bottle,bottle,0,0648_pow_s05_0_bottle_35_n04591713_1257.png
subject-05,1,649,0.671504020690918,bottle,bottle,0,0649_pow_s05_0_bottle_35_n02823428_988.png
subject-05,1,650,0.654145002365112,boat,boat,0,0650_pow_s05_0_boat_35_n02951358_7901.png
subject-05,1,651,1.11213207244873,cat,cat,pow,0651_pow_s05_pow_cat_35_n02123597_6414.png
subject-05,1,652,1.07834100723267,truck,truck,0,0652_pow_s05_0_truck_35_n04467665_37833.png
subject-05,1,653,0.836361885070801,bird,bird,0,0653_pow_s05_0_bird_35_n01601694_7223.png
subject-05,1,654,0.788796186447144,keyboard,keyboard,0,0654_pow_s05_0_keyboard_35_n04505470_10055.png
subject-05,1,655,1.16891098022461,oven,knife,0,0655_pow_s05_0_knife_35_n03041632_10777.png
subject-05,1,656,0.975141048431396,cat,keyboard,0,0656_pow_s05_0_keyboard_35_n03085013_19515.png
subject-05,1,657,1.07187509536743,elephant,elephant,pow,0657_pow_s05_pow_elephant_35_n02504458_5988.png
subject-05,1,658,0.984201908111572,chair,chair,0,0658_pow_s05_0_chair_35_n02791124_3430.png
subject-05,1,659,0.652598142623901,cat,cat,pow,0659_pow_s05_pow_cat_35_n02124075_6722.png
subject-05,1,660,1.06517791748047,chair,knife,pow,0660_pow_s05_pow_knife_35_n03041632_42185.png
subject-05,1,661,0.631883859634399,dog,dog,pow,0661_pow_s05_pow_dog_35_n02101388_26641.png
subject-05,1,662,0.721750974655151,boat,boat,0,0662_pow_s05_0_boat_35_n03662601_13675.png
subject-05,1,663,0.972341060638428,knife,knife,0,0663_pow_s05_0_knife_35_n03041632_94995.png
subject-05,1,664,1.33634996414185,bicycle,bicycle,0,0664_pow_s05_0_bicycle_35_n03792782_26168.png
subject-05,1,665,0.796837091445923,clock,clock,pow,0665_pow_s05_pow_clock_35_n02708093_1384.png
subject-05,1,666,0.819294929504395,bicycle,bicycle,0,0666_pow_s05_0_bicycle_35_n02835271_8487.png
subject-05,1,667,0.62385106086731,cat,cat,0,0667_pow_s05_0_cat_35_n02124075_19379.png
subject-05,1,668,1.05260109901428,bird,bird,0,0668_pow_s05_0_bird_35_n02056570_11921.png
subject-05,1,669,0.781613111495972,bird,bird,0,0669_pow_s05_0_bird_35_n01796340_13144.png
subject-05,1,670,0.558110952377319,cat,cat,0,0670_pow_s05_0_cat_35_n02123159_7963.png
subject-05,1,671,1.36070704460144,bird,bicycle,pow,0671_pow_s05_pow_bicycle_35_n03792782_15752.png
subject-05,1,672,0.859115123748779,oven,bear,0,0672_pow_s05_0_bear_35_n02134084_14736.png
subject-05,1,673,0.624911069869995,bicycle,bicycle,0,0673_pow_s05_0_bicycle_35_n02835271_703.png
subject-05,1,674,0.669233083724976,bird,bird,0,0674_pow_s05_0_bird_35_n01582220_9857.png
subject-05,1,675,1.33376121520996,oven,chair,0,0675_pow_s05_0_chair_35_n04429376_616.png
subject-05,1,676,1.11819410324097,clock,clock,0,0676_pow_s05_0_clock_35_n02708093_6216.png
subject-05,1,677,0.716974020004272,knife,knife,0,0677_pow_s05_0_knife_35_n03041632_126.png
subject-05,1,678,0.905425071716309,boat,boat,pow,0678_pow_s05_pow_boat_35_n02951358_15390.png
subject-05,1,679,0.887351036071777,boat,boat,pow,0679_pow_s05_pow_boat_35_n04612504_239.png
subject-05,1,680,0.861934900283813,bear,bear,0,0680_pow_s05_0_bear_35_n02132136_9105.png
subject-05,1,681,1.30385804176331,boat,oven,pow,0681_pow_s05_pow_oven_35_n04111531_10336.png
subject-05,1,682,0.726108074188232,keyboard,keyboard,pow,0682_pow_s05_pow_keyboard_35_n04505470_1342.png
subject-05,1,683,0.762624025344849,keyboard,keyboard,0,0683_pow_s05_0_keyboard_35_n03085013_4673.png
subject-05,1,684,0.728579044342041,boat,bear,0,0684_pow_s05_0_bear_35_n02134084_16371.png
subject-05,1,685,1.50030899047852,car,car,0,0685_pow_s05_0_car_35_n02814533_2216.png
subject-05,1,686,1.32925891876221,bicycle,bicycle,pow,0686_pow_s05_pow_bicycle_35_n02835271_44763.png
subject-05,1,687,0.989888906478882,dog,clock,pow,0687_pow_s05_pow_clock_35_n04548280_7384.png
subject-05,1,688,1.14033603668213,bear,bear,0,0688_pow_s05_0_bear_35_n02132136_416.png
subject-05,1,689,0.938455820083618,dog,dog,0,0689_pow_s05_0_dog_35_n02099601_2495.png
subject-05,1,690,0.912853002548218,truck,truck,pow,0690_pow_s05_pow_truck_35_n04467665_9331.png
subject-05,1,691,0.649055004119873,elephant,elephant,pow,0691_pow_s05_pow_elephant_35_n02504458_11693.png
subject-05,1,692,1.1294310092926,bird,elephant,0,0692_pow_s05_0_elephant_35_n02504458_4869.png
subject-05,1,693,0.782008171081543,bicycle,bicycle,0,0693_pow_s05_0_bicycle_35_n02835271_3941.png
subject-05,1,694,1.29386901855469,oven,knife,pow,0694_pow_s05_pow_knife_35_n03041632_29125.png
subject-05,1,695,1.25217700004578,elephant,bicycle,pow,0695_pow_s05_pow_bicycle_35_n02835271_20542.png
subject-05,1,696,1.02620911598206,elephant,bear,0,0696_pow_s05_0_bear_35_n02134418_5710.png
subject-05,1,697,0.824913024902344,bicycle,bicycle,0,0697_pow_s05_0_bicycle_35_n02835271_8534.png
subject-05,1,698,0.736534118652344,cat,bird,pow,0698_pow_s05_pow_bird_35_n02002724_6916.png
subject-05,1,699,0.664861917495728,clock,clock,0,0699_pow_s05_0_clock_35_n04548280_7115.png
subject-05,1,700,0.99086594581604,knife,knife,0,0700_pow_s05_0_knife_35_n03041632_32350.png
subject-05,1,701,1.44955396652222,clock,clock,0,0701_pow_s05_0_clock_35_n03196217_417.png
subject-05,1,702,NaN,na,truck,0,0702_pow_s05_0_truck_35_n04467665_39411.png
subject-05,1,703,NaN,na,bottle,0,0703_pow_s05_0_bottle_35_n03937543_4.png
subject-05,1,704,1.35083103179932,truck,truck,pow,0704_pow_s05_pow_truck_35_n03417042_11435.png
subject-05,1,705,1.25485897064209,dog,dog,0,0705_pow_s05_0_dog_35_n02097474_17296.png
subject-05,1,706,1.16101098060608,bicycle,bicycle,pow,0706_pow_s05_pow_bicycle_35_n03792782_21378.png
subject-05,1,707,NaN,na,knife,0,0707_pow_s05_0_knife_35_n03041632_5727.png
subject-05,1,708,0.955870866775513,elephant,dog,pow,0708_pow_s05_pow_dog_35_n02113624_7540.png
subject-05,1,709,0.860245943069458,elephant,bird,pow,0709_pow_s05_pow_bird_35_n01829413_958.png
subject-05,1,710,0.780545949935913,car,keyboard,pow,0710_pow_s05_pow_keyboard_35_n03085013_8867.png
subject-05,1,711,0.624974012374878,boat,boat,0,0711_pow_s05_0_boat_35_n03662601_12425.png
subject-05,1,712,0.553350925445557,bicycle,bicycle,0,0712_pow_s05_0_bicycle_35_n02835271_25109.png
subject-05,1,713,0.705773830413818,keyboard,keyboard,pow,0713_pow_s05_pow_keyboard_35_n03085013_805.png
subject-05,1,714,0.772251129150391,clock,clock,pow,0714_pow_s05_pow_clock_35_n03196217_6249.png
subject-05,1,715,0.722599029541016,airplane,airplane,0,0715_pow_s05_0_airplane_35_n02690373_9312.png
subject-05,1,716,0.789268970489502,boat,airplane,pow,0716_pow_s05_pow_airplane_35_n02690373_20326.png
subject-05,1,717,1.47764992713928,airplane,airplane,0,0717_pow_s05_0_airplane_35_n02690373_2525.png
subject-05,1,718,0.640275955200195,clock,clock,0,0718_pow_s05_0_clock_35_n04548280_4989.png
subject-05,1,719,0.70439887046814,keyboard,cat,pow,0719_pow_s05_pow_cat_35_n02123597_14478.png
subject-05,1,720,0.878448963165283,elephant,elephant,pow,0720_pow_s05_pow_elephant_35_n02504013_3138.png
subject-05,1,721,0.922880887985229,elephant,bear,0,0721_pow_s05_0_bear_35_n02134084_15189.png
subject-05,1,722,0.997483968734741,boat,bird,pow,0722_pow_s05_pow_bird_35_n01601694_11785.png
subject-05,1,723,1.16988801956177,dog,dog,0,0723_pow_s05_0_dog_35_n02106662_106214.png
subject-05,1,724,1.05229806900024,car,car,pow,0724_pow_s05_pow_car_35_n02814533_6150.png
subject-05,1,725,0.86709189414978,boat,truck,pow,0725_pow_s05_pow_truck_35_n04467665_57380.png
subject-05,1,726,1.24723410606384,oven,bottle,pow,0726_pow_s05_pow_bottle_35_n04579145_1886.png
subject-05,1,727,1.21379113197327,dog,dog,pow,0727_pow_s05_pow_dog_35_n02093859_3439.png
subject-05,1,728,0.827781200408936,bicycle,bicycle,0,0728_pow_s05_0_bicycle_35_n02835271_542.png
subject-05,1,729,1.0690450668335,boat,bottle,pow,0729_pow_s05_pow_bottle_35_n03983396_8294.png
subject-05,1,730,1.27360486984253,airplane,airplane,0,0730_pow_s05_0_airplane_35_n02690373_290.png
subject-05,1,731,1.42424297332764,cat,cat,pow,0731_pow_s05_pow_cat_35_n02123394_5199.png
subject-05,1,732,1.35279893875122,cat,truck,pow,0732_pow_s05_pow_truck_35_n03417042_1344.png
subject-05,1,733,1.5002498626709,knife,knife,pow,0733_pow_s05_pow_knife_35_n03041632_4260.png
subject-05,1,734,1.13390302658081,clock,clock,0,0734_pow_s05_0_clock_35_n04548280_5320.png
subject-05,1,735,0.762051105499268,keyboard,keyboard,pow,0735_pow_s05_pow_keyboard_35_n04505470_8620.png
subject-05,1,736,1.33389520645142,bear,bear,pow,0736_pow_s05_pow_bear_35_n02132136_6741.png
subject-05,1,737,0.994370222091675,bird,bird,pow,0737_pow_s05_pow_bird_35_n02018207_11595.png
subject-05,1,738,1.46874499320984,bird,bear,0,0738_pow_s05_0_bear_35_n02133161_1916.png
subject-05,1,739,1.24008107185364,keyboard,keyboard,pow,0739_pow_s05_pow_keyboard_35_n03085013_18989.png
subject-05,1,740,NaN,na,cat,0,0740_pow_s05_0_cat_35_n02123597_1649.png
subject-05,1,741,0.607175827026367,dog,dog,pow,0741_pow_s05_pow_dog_35_n02105855_6922.png
subject-05,1,742,0.735604047775269,oven,oven,pow,0742_pow_s05_pow_oven_35_n04111531_19240.png
subject-05,1,743,0.794141054153442,chair,chair,0,0743_pow_s05_0_chair_35_n03376595_7174.png
subject-05,1,744,0.792815208435059,car,car,pow,0744_pow_s05_pow_car_35_n02814533_20292.png
subject-05,1,745,0.697141885757446,truck,truck,pow,0745_pow_s05_pow_truck_35_n03417042_17624.png
subject-05,1,746,1.07160496711731,boat,bottle,0,0746_pow_s05_0_bottle_35_n04591713_7250.png
subject-05,1,747,1.00763702392578,oven,elephant,0,0747_pow_s05_0_elephant_35_n02504013_5164.png
subject-05,1,748,1.50031781196594,airplane,airplane,0,0748_pow_s05_0_airplane_35_n02690373_5277.png
subject-05,1,749,1.27061295509338,boat,oven,pow,0749_pow_s05_pow_oven_35_n04111531_986.png
subject-05,1,750,0.990733861923218,boat,airplane,pow,0750_pow_s05_pow_airplane_35_n02690373_5427.png
subject-05,1,751,1.21920704841614,cat,oven,0,0751_pow_s05_0_oven_35_n04111531_1229.png
subject-05,1,752,1.00138592720032,car,car,pow,0752_pow_s05_pow_car_35_n03100240_10110.png
subject-05,1,753,0.737702131271362,dog,dog,0,0753_pow_s05_0_dog_35_n02112018_9506.png
subject-05,1,754,1.11011099815369,oven,bird,pow,0754_pow_s05_pow_bird_35_n02007558_7990.png
subject-05,1,755,0.746289014816284,airplane,airplane,pow,0755_pow_s05_pow_airplane_35_n02690373_8950.png
subject-05,1,756,0.536674976348877,boat,boat,0,0756_pow_s05_0_boat_35_n03662601_24653.png
subject-05,1,757,1.50017809867859,elephant,elephant,pow,0757_pow_s05_pow_elephant_35_n02504013_7035.png
subject-05,1,758,0.523195028305054,boat,boat,pow,0758_pow_s05_pow_boat_35_n03344393_7091.png
subject-05,1,759,0.681612968444824,keyboard,keyboard,0,0759_pow_s05_0_keyboard_35_n03085013_23277.png
subject-05,1,760,1.24007892608643,cat,bear,0,0760_pow_s05_0_bear_35_n02134084_11582.png
subject-05,1,761,0.854485988616943,keyboard,keyboard,pow,0761_pow_s05_pow_keyboard_35_n04505470_5021.png
subject-05,1,762,1.24303793907166,chair,oven,0,0762_pow_s05_0_oven_35_n04111531_14758.png
subject-05,1,763,1.09552693367004,airplane,airplane,0,0763_pow_s05_0_airplane_35_n02690373_817.png
subject-05,1,764,0.791659832000732,elephant,elephant,pow,0764_pow_s05_pow_elephant_35_n02504458_8103.png
subject-05,1,765,0.841737985610962,airplane,airplane,0,0765_pow_s05_0_airplane_35_n02690373_15472.png
subject-05,1,766,1.0460479259491,cat,knife,0,0766_pow_s05_0_knife_35_n03041632_2468.png
subject-05,1,767,1.29863810539246,cat,cat,0,0767_pow_s05_0_cat_35_n02123394_2395.png
subject-05,1,768,0.565011978149414,cat,cat,pow,0768_pow_s05_pow_cat_35_n02123045_5228.png
subject-05,1,769,0.731358051300049,keyboard,keyboard,pow,0769_pow_s05_pow_keyboard_35_n04505470_4356.png
subject-05,1,770,1.21364307403564,car,car,pow,0770_pow_s05_pow_car_35_n04285008_7901.png
subject-05,1,771,0.771914958953857,elephant,elephant,pow,0771_pow_s05_pow_elephant_35_n02504458_1727.png
subject-05,1,772,1.46064400672913,bird,bird,0,0772_pow_s05_0_bird_35_n01531178_13581.png
subject-05,1,773,0.820804119110107,bicycle,bicycle,pow,0773_pow_s05_pow_bicycle_35_n02835271_24639.png
subject-05,1,774,1.32550311088562,cat,cat,pow,0774_pow_s05_pow_cat_35_n02125311_5300.png
subject-05,1,775,1.32095003128052,boat,bicycle,0,0775_pow_s05_0_bicycle_35_n03792782_19933.png
subject-05,1,776,1.04120206832886,bird,bird,pow,0776_pow_s05_pow_bird_35_n01828970_5966.png
subject-05,1,777,1.03971791267395,elephant,elephant,pow,0777_pow_s05_pow_elephant_35_n02504013_375.png
subject-05,1,778,1.02761912345886,bird,bear,0,0778_pow_s05_0_bear_35_n02134418_5536.png
subject-05,1,779,0.802042007446289,boat,knife,0,0779_pow_s05_0_knife_35_n03041632_3079.png
subject-05,1,780,1.29820108413696,airplane,bicycle,pow,0780_pow_s05_pow_bicycle_35_n02835271_2068.png
subject-05,1,781,1.02664017677307,bottle,bottle,pow,0781_pow_s05_pow_bottle_35_n02823428_8307.png
subject-05,1,782,0.801276922225952,chair,chair,0,0782_pow_s05_0_chair_35_n02791124_186.png
subject-05,1,783,NaN,na,clock,0,0783_pow_s05_0_clock_35_n04548280_8083.png
subject-05,1,784,1.1018397808075,elephant,bicycle,pow,0784_pow_s05_pow_bicycle_35_n03792782_1363.png
subject-05,1,785,NaN,na,oven,pow,0785_pow_s05_pow_oven_35_n04111531_13101.png
subject-05,1,786,1.29652881622314,bear,bear,0,0786_pow_s05_0_bear_35_n02132136_2815.png
subject-05,1,787,1.00866198539734,bear,bear,0,0787_pow_s05_0_bear_35_n02132136_1954.png
subject-05,1,788,1.01304507255554,bear,elephant,0,0788_pow_s05_0_elephant_35_n02504013_2558.png
subject-05,1,789,0.879812002182007,bird,bear,pow,0789_pow_s05_pow_bear_35_n02134418_1730.png
subject-05,1,790,0.731894016265869,bird,bird,0,0790_pow_s05_0_bird_35_n02051845_375.png
subject-05,1,791,0.860382080078125,bicycle,bicycle,pow,0791_pow_s05_pow_bicycle_35_n02835271_9531.png
subject-05,1,792,0.902981996536255,car,car,0,0792_pow_s05_0_car_35_n03100240_1526.png
subject-05,1,793,0.815456867218018,keyboard,keyboard,pow,0793_pow_s05_pow_keyboard_35_n03085013_22980.png
subject-05,1,794,0.513922929763794,boat,boat,pow,0794_pow_s05_pow_boat_35_n04273569_11427.png
subject-05,1,795,0.696536064147949,bicycle,bicycle,0,0795_pow_s05_0_bicycle_35_n03792782_51296.png
subject-05,1,796,0.61685585975647,boat,boat,0,0796_pow_s05_0_boat_35_n02951358_33580.png
subject-05,1,797,0.82154107093811,chair,chair,0,0797_pow_s05_0_chair_35_n02791124_1067.png
subject-05,1,798,0.942101955413818,bottle,bottle,0,0798_pow_s05_0_bottle_35_n03937543_988.png
subject-05,1,799,0.848268985748291,clock,clock,pow,0799_pow_s05_pow_clock_35_n02708093_5010.png
subject-05,1,800,0.882823944091797,car,chair,pow,0800_pow_s05_pow_chair_35_n02791124_2488.png
subject-05,1,801,0.776276111602783,bottle,bottle,0,0801_pow_s05_0_bottle_35_n02823428_1124.png
subject-05,1,802,0.843014001846313,oven,oven,pow,0802_pow_s05_pow_oven_35_n04111531_22445.png
subject-05,1,803,0.717059850692749,truck,truck,0,0803_pow_s05_0_truck_35_n03796401_2354.png
subject-05,1,804,0.953503131866455,boat,knife,pow,0804_pow_s05_pow_knife_35_n03041632_30573.png
subject-05,1,805,0.903815031051636,oven,oven,0,0805_pow_s05_0_oven_35_n04111531_8812.png
subject-05,1,806,0.702058792114258,bicycle,bicycle,0,0806_pow_s05_0_bicycle_35_n03792782_6991.png
subject-05,1,807,0.806303977966309,car,car,pow,0807_pow_s05_pow_car_35_n03100240_18792.png
subject-05,1,808,0.872255802154541,keyboard,keyboard,0,0808_pow_s05_0_keyboard_35_n03085013_20843.png
subject-05,1,809,1.0384259223938,bottle,bottle,0,0809_pow_s05_0_bottle_35_n03937543_11442.png
subject-05,1,810,0.689267158508301,knife,knife,0,0810_pow_s05_0_knife_35_n03041632_927.png
subject-05,1,811,1.1089928150177,bird,bird,pow,0811_pow_s05_pow_bird_35_n01819313_1426.png
subject-05,1,812,0.767503023147583,chair,chair,pow,0812_pow_s05_pow_chair_35_n03376595_13134.png
subject-05,1,813,0.688055038452148,bird,bird,0,0813_pow_s05_0_bird_35_n01531178_26097.png
subject-05,1,814,1.04632496833801,oven,oven,pow,0814_pow_s05_pow_oven_35_n04111531_12129.png
subject-05,1,815,0.636795997619629,keyboard,keyboard,pow,0815_pow_s05_pow_keyboard_35_n03085013_1070.png
subject-05,1,816,0.935467958450317,keyboard,keyboard,0,0816_pow_s05_0_keyboard_35_n03085013_25443.png
subject-05,1,817,0.67204213142395,car,car,pow,0817_pow_s05_pow_car_35_n03100240_5489.png
subject-05,1,818,1.0738799571991,bear,bear,pow,0818_pow_s05_pow_bear_35_n02133161_4968.png
subject-05,1,819,0.755999088287354,clock,clock,pow,0819_pow_s05_pow_clock_35_n02708093_5944.png
subject-05,1,820,0.91397500038147,knife,knife,0,0820_pow_s05_0_knife_35_n03041632_24798.png
subject-05,1,821,0.796176910400391,chair,chair,pow,0821_pow_s05_pow_chair_35_n03376595_1691.png
subject-05,1,822,0.570576906204224,car,car,0,0822_pow_s05_0_car_35_n04285008_9464.png
subject-05,1,823,1.25924611091614,car,truck,0,0823_pow_s05_0_truck_35_n03796401_7507.png
subject-05,1,824,1.10310196876526,cat,cat,pow,0824_pow_s05_pow_cat_35_n02124075_7898.png
subject-05,1,825,0.755959987640381,bicycle,bicycle,pow,0825_pow_s05_pow_bicycle_35_n02835271_5473.png
subject-05,1,826,0.792001962661743,bottle,bottle,0,0826_pow_s05_0_bottle_35_n04557648_2575.png
subject-05,1,827,0.717940092086792,bottle,bottle,0,0827_pow_s05_0_bottle_35_n04579145_173.png
subject-05,1,828,0.716854095458984,boat,boat,pow,0828_pow_s05_pow_boat_35_n02951358_31453.png
subject-05,1,829,0.875165939331055,clock,clock,0,0829_pow_s05_0_clock_35_n03196217_8830.png
subject-05,1,830,0.687772989273071,cat,cat,0,0830_pow_s05_0_cat_35_n02123045_12124.png
subject-05,1,831,0.862131118774414,dog,dog,0,0831_pow_s05_0_dog_35_n02101388_11688.png
subject-05,1,832,NaN,na,truck,pow,0832_pow_s05_pow_truck_35_n03417042_12308.png
subject-05,1,833,0.834989070892334,bear,bear,0,0833_pow_s05_0_bear_35_n02134418_2535.png
subject-05,1,834,1.10105204582214,chair,chair,pow,0834_pow_s05_pow_chair_35_n02791124_5706.png
subject-05,1,835,0.629508018493652,boat,boat,0,0835_pow_s05_0_boat_35_n02951358_11446.png
subject-05,1,836,NaN,na,airplane,0,0836_pow_s05_0_airplane_35_n02690373_1512.png
subject-05,1,837,0.69215989112854,boat,boat,pow,0837_pow_s05_pow_boat_35_n02951358_4985.png
subject-05,1,838,1.00476813316345,bear,bear,pow,0838_pow_s05_pow_bear_35_n02134084_8584.png
subject-05,1,839,0.842544794082642,truck,truck,pow,0839_pow_s05_pow_truck_35_n04467665_35490.png
subject-05,1,840,0.810686111450195,boat,elephant,pow,0840_pow_s05_pow_elephant_35_n02504458_2595.png
subject-05,1,841,0.828683853149414,dog,dog,pow,0841_pow_s05_pow_dog_35_n02102318_6477.png
subject-05,1,842,0.932877063751221,airplane,airplane,0,0842_pow_s05_0_airplane_35_n02690373_6231.png
subject-05,1,843,1.2373480796814,bear,bear,pow,0843_pow_s05_pow_bear_35_n02134084_8537.png
subject-05,1,844,0.919291019439697,bear,bear,pow,0844_pow_s05_pow_bear_35_n02134418_912.png
subject-05,1,845,1.50040793418884,boat,knife,0,0845_pow_s05_0_knife_35_n03041632_32337.png
subject-05,1,846,1.24379897117615,clock,clock,pow,0846_pow_s05_pow_clock_35_n04548280_5305.png
subject-05,1,847,0.994423866271973,truck,truck,0,0847_pow_s05_0_truck_35_n03417042_2386.png
subject-05,1,848,0.846356153488159,bird,bird,0,0848_pow_s05_0_bird_35_n01817953_28767.png
subject-05,1,849,1.16668581962585,elephant,truck,pow,0849_pow_s05_pow_truck_35_n03417042_9987.png
subject-05,1,850,1.03294801712036,keyboard,oven,0,0850_pow_s05_0_oven_35_n04111531_4322.png
subject-05,1,851,1.42923212051392,keyboard,chair,0,0851_pow_s05_0_chair_35_n04429376_15058.png
subject-05,1,852,1.35752201080322,oven,oven,pow,0852_pow_s05_pow_oven_35_n04111531_2156.png
subject-05,1,853,NaN,na,bicycle,0,0853_pow_s05_0_bicycle_35_n03792782_6196.png
subject-05,1,854,NaN,na,bear,0,0854_pow_s05_0_bear_35_n02133161_1169.png
subject-05,1,855,0.964858055114746,bicycle,bicycle,pow,0855_pow_s05_pow_bicycle_35_n03792782_19083.png
subject-05,1,856,1.18273520469666,bicycle,bicycle,0,0856_pow_s05_0_bicycle_35_n03792782_72.png
subject-05,1,857,1.05664110183716,bear,elephant,0,0857_pow_s05_0_elephant_35_n02504458_9255.png
subject-05,1,858,1.24682998657227,boat,boat,0,0858_pow_s05_0_boat_35_n04273569_684.png
subject-05,1,859,1.5001540184021,car,bear,pow,0859_pow_s05_pow_bear_35_n02134084_6840.png
subject-05,1,860,1.17988395690918,elephant,elephant,pow,0860_pow_s05_pow_elephant_35_n02504013_4997.png
subject-05,1,861,1.30048704147339,bird,cat,pow,0861_pow_s05_pow_cat_35_n02123394_1159.png
subject-05,1,862,0.928795099258423,boat,bicycle,pow,0862_pow_s05_pow_bicycle_35_n03792782_30186.png
subject-05,1,863,1.21660494804382,bicycle,bicycle,0,0863_pow_s05_0_bicycle_35_n02835271_16768.png
subject-05,1,864,1.2972149848938,airplane,airplane,pow,0864_pow_s05_pow_airplane_35_n02690373_1325.png
subject-05,1,865,1.50013113021851,car,boat,pow,0865_pow_s05_pow_boat_35_n02951358_30131.png
subject-05,1,866,1.41556406021118,airplane,truck,pow,0866_pow_s05_pow_truck_35_n03417042_18196.png
subject-05,1,867,1.39552307128906,car,car,pow,0867_pow_s05_pow_car_35_n04285008_6319.png
subject-05,1,868,1.47004413604736,bird,bird,0,0868_pow_s05_0_bird_35_n01514859_881.png
subject-05,1,869,1.38214898109436,boat,chair,pow,0869_pow_s05_pow_chair_35_n03376595_9481.png
subject-05,1,870,1.20249700546265,cat,cat,pow,0870_pow_s05_pow_cat_35_n02124075_10518.png
subject-05,1,871,0.876564025878906,clock,clock,0,0871_pow_s05_0_clock_35_n04548280_5544.png
subject-05,1,872,1.09724617004395,cat,knife,pow,0872_pow_s05_pow_knife_35_n03041632_19098.png
subject-05,1,873,0.763653993606567,bird,bird,0,0873_pow_s05_0_bird_35_n02006656_1188.png
subject-05,1,874,0.561954975128174,bottle,bottle,pow,0874_pow_s05_pow_bottle_35_n03983396_11788.png
subject-05,1,875,0.91278600692749,boat,boat,0,0875_pow_s05_0_boat_35_n03662601_4925.png
subject-05,1,876,1.23109889030457,car,car,pow,0876_pow_s05_pow_car_35_n02814533_85981.png
subject-05,1,877,1.02965116500854,bird,knife,pow,0877_pow_s05_pow_knife_35_n03041632_49363.png
subject-05,1,878,0.758039951324463,bear,bear,0,0878_pow_s05_0_bear_35_n02134084_9437.png
subject-05,1,879,0.824215888977051,bottle,bottle,0,0879_pow_s05_0_bottle_35_n03937543_9745.png
subject-05,1,880,1.28222703933716,chair,chair,0,0880_pow_s05_0_chair_35_n02791124_2487.png
subject-05,1,881,0.848597049713135,boat,airplane,pow,0881_pow_s05_pow_airplane_35_n02690373_5724.png
subject-05,1,882,1.37408208847046,elephant,elephant,pow,0882_pow_s05_pow_elephant_35_n02504013_2830.png
subject-05,1,883,1.16449594497681,bicycle,bicycle,0,0883_pow_s05_0_bicycle_35_n02835271_3313.png
subject-05,1,884,1.0390899181366,boat,bicycle,pow,0884_pow_s05_pow_bicycle_35_n03792782_12561.png
subject-05,1,885,0.9217848777771,cat,cat,0,0885_pow_s05_0_cat_35_n02123159_3811.png
subject-05,1,886,1.19555497169495,airplane,airplane,0,0886_pow_s05_0_airplane_35_n02690373_6914.png
subject-05,1,887,1.26992893218994,keyboard,bear,pow,0887_pow_s05_pow_bear_35_n02134418_5807.png
subject-05,1,888,0.881865978240967,clock,clock,pow,0888_pow_s05_pow_clock_35_n04548280_4856.png
subject-05,1,889,0.869511127471924,elephant,elephant,pow,0889_pow_s05_pow_elephant_35_n02504013_3086.png
subject-05,1,890,1.49999809265137,airplane,airplane,pow,0890_pow_s05_pow_airplane_35_n02690373_7055.png
subject-05,1,891,1.16956090927124,clock,oven,0,0891_pow_s05_0_oven_35_n04111531_5792.png
subject-05,1,892,0.981502056121826,truck,truck,pow,0892_pow_s05_pow_truck_35_n04467665_18985.png
subject-05,1,893,1.44825315475464,boat,airplane,0,0893_pow_s05_0_airplane_35_n02690373_18111.png
subject-05,1,894,1.10037207603455,clock,clock,pow,0894_pow_s05_pow_clock_35_n03196217_3922.png
subject-05,1,895,0.87480092048645,cat,bird,pow,0895_pow_s05_pow_bird_35_n01820546_11998.png
subject-05,1,896,1.21680116653442,bird,bicycle,0,0896_pow_s05_0_bicycle_35_n03792782_15282.png
subject-05,1,897,0.939653158187866,car,car,0,0897_pow_s05_0_car_35_n04285008_7.png
subject-05,1,898,0.781182050704956,oven,clock,pow,0898_pow_s05_pow_clock_35_n02708093_1532.png
subject-05,1,899,0.641669988632202,boat,boat,0,0899_pow_s05_0_boat_35_n04273569_21900.png
subject-05,1,900,1.18369698524475,elephant,elephant,0,0900_pow_s05_0_elephant_35_n02504013_4136.png
subject-05,1,901,0.865694999694824,bear,bear,pow,0901_pow_s05_pow_bear_35_n02133161_1092.png
subject-05,1,902,0.954442024230957,boat,boat,pow,0902_pow_s05_pow_boat_35_n04612504_4447.png
subject-05,1,903,0.898268938064575,elephant,elephant,0,0903_pow_s05_0_elephant_35_n02504458_3129.png
subject-05,1,904,1.38649106025696,oven,oven,0,0904_pow_s05_0_oven_35_n04111531_8681.png
subject-05,1,905,0.767914056777954,oven,oven,pow,0905_pow_s05_pow_oven_35_n04111531_2150.png
subject-05,1,906,1.00998711585999,oven,oven,0,0906_pow_s05_0_oven_35_n04111531_1391.png
subject-05,1,907,0.808204889297485,bicycle,bicycle,pow,0907_pow_s05_pow_bicycle_35_n03792782_40466.png
subject-05,1,908,0.804504871368408,car,car,0,0908_pow_s05_0_car_35_n04285008_5838.png
subject-05,1,909,1.41644501686096,car,car,pow,0909_pow_s05_pow_car_35_n04285008_8880.png
subject-05,1,910,1.50000309944153,car,chair,0,0910_pow_s05_0_chair_35_n04099969_11938.png
subject-05,1,911,1.05773282051086,clock,clock,0,0911_pow_s05_0_clock_35_n04548280_3301.png
subject-05,1,912,0.502133846282959,cat,cat,pow,0912_pow_s05_pow_cat_35_n02123597_6319.png
subject-05,1,913,1.06856513023376,oven,knife,pow,0913_pow_s05_pow_knife_35_n03041632_52848.png
subject-05,1,914,0.888628005981445,boat,airplane,0,0914_pow_s05_0_airplane_35_n02690373_5056.png
subject-05,1,915,0.717066049575806,bear,bear,pow,0915_pow_s05_pow_bear_35_n02134084_21921.png
subject-05,1,916,0.631124973297119,chair,chair,0,0916_pow_s05_0_chair_35_n04429376_10341.png
subject-05,1,917,0.903632164001465,bird,bird,pow,0917_pow_s05_pow_bird_35_n01560419_20097.png
subject-05,1,918,1.22392797470093,bird,knife,pow,0918_pow_s05_pow_knife_35_n03041632_23968.png
subject-05,1,919,1.01840806007385,chair,chair,0,0919_pow_s05_0_chair_35_n04099969_11341.png
subject-05,1,920,0.78446102142334,bird,bird,pow,0920_pow_s05_pow_bird_35_n02009229_4682.png
subject-05,1,921,1.09056806564331,bicycle,bicycle,pow,0921_pow_s05_pow_bicycle_35_n03792782_1099.png
subject-05,1,922,1.28726196289062,knife,knife,pow,0922_pow_s05_pow_knife_35_n03041632_27832.png
subject-05,1,923,0.547897815704346,bottle,bottle,0,0923_pow_s05_0_bottle_35_n04557648_299.png
subject-05,1,924,0.844434976577759,elephant,knife,pow,0924_pow_s05_pow_knife_35_n03041632_13194.png
subject-05,1,925,0.704782009124756,keyboard,keyboard,pow,0925_pow_s05_pow_keyboard_35_n03085013_23594.png
subject-05,1,926,0.578721046447754,keyboard,keyboard,pow,0926_pow_s05_pow_keyboard_35_n03085013_2061.png
subject-05,1,927,1.04509401321411,bird,dog,pow,0927_pow_s05_pow_dog_35_n02088094_173.png
subject-05,1,928,1.39341688156128,clock,clock,0,0928_pow_s05_0_clock_35_n03196217_13380.png
subject-05,1,929,0.783401012420654,keyboard,bottle,pow,0929_pow_s05_pow_bottle_35_n04591713_1814.png
subject-05,1,930,1.02749991416931,boat,airplane,pow,0930_pow_s05_pow_airplane_35_n02690373_1732.png
subject-05,1,931,0.977765083312988,bicycle,bicycle,pow,0931_pow_s05_pow_bicycle_35_n02835271_11851.png
subject-05,1,932,0.830022096633911,car,car,pow,0932_pow_s05_pow_car_35_n03100240_12747.png
subject-05,1,933,1.37260794639587,dog,dog,pow,0933_pow_s05_pow_dog_35_n02106030_14796.png
subject-05,1,934,0.908997058868408,chair,clock,pow,0934_pow_s05_pow_clock_35_n03196217_8489.png
subject-05,1,935,1.11326885223389,bicycle,bicycle,0,0935_pow_s05_0_bicycle_35_n03792782_22416.png
subject-05,1,936,0.857460975646973,keyboard,keyboard,pow,0936_pow_s05_pow_keyboard_35_n03085013_21490.png
subject-05,1,937,1.09970498085022,truck,truck,0,0937_pow_s05_0_truck_35_n04467665_19718.png
subject-05,1,938,0.973847150802612,bird,bird,pow,0938_pow_s05_pow_bird_35_n01532829_5535.png
subject-05,1,939,NaN,na,elephant,0,0939_pow_s05_0_elephant_35_n02504013_23032.png
subject-05,1,940,0.905882120132446,cat,bear,pow,0940_pow_s05_pow_bear_35_n02133161_7421.png
subject-05,1,941,0.893764019012451,elephant,elephant,pow,0941_pow_s05_pow_elephant_35_n02504013_319.png
subject-05,1,942,0.667963027954102,boat,boat,0,0942_pow_s05_0_boat_35_n02951358_14781.png
subject-05,1,943,1.13420987129211,bottle,bottle,0,0943_pow_s05_0_bottle_35_n04560804_2085.png
subject-05,1,944,0.800396919250488,boat,boat,0,0944_pow_s05_0_boat_35_n04273569_5146.png
subject-05,1,945,0.944813966751099,bird,knife,pow,0945_pow_s05_pow_knife_35_n03041632_46720.png
subject-05,1,946,0.71890115737915,oven,oven,pow,0946_pow_s05_pow_oven_35_n04111531_4.png
subject-05,1,947,0.983126878738403,oven,cat,pow,0947_pow_s05_pow_cat_35_n02123394_2593.png
subject-05,1,948,1.50016379356384,boat,bear,pow,0948_pow_s05_pow_bear_35_n02134418_282.png
subject-05,1,949,1.11624121665955,truck,truck,pow,0949_pow_s05_pow_truck_35_n03417042_12906.png
subject-05,1,950,0.80614709854126,elephant,elephant,0,0950_pow_s05_0_elephant_35_n02504458_2807.png
subject-05,1,951,0.65894889831543,boat,airplane,pow,0951_pow_s05_pow_airplane_35_n02690373_19133.png
subject-05,1,952,0.817258834838867,bird,bird,0,0952_pow_s05_0_bird_35_n02018207_12346.png
subject-05,1,953,0.737355947494507,elephant,elephant,0,0953_pow_s05_0_elephant_35_n02504013_10909.png
subject-05,1,954,NaN,na,keyboard,0,0954_pow_s05_0_keyboard_35_n03085013_2270.png
subject-05,1,955,0.699496030807495,cat,cat,pow,0955_pow_s05_pow_cat_35_n02123159_6294.png
subject-05,1,956,0.811800003051758,chair,chair,0,0956_pow_s05_0_chair_35_n03376595_6759.png
subject-05,1,957,1.10066890716553,bird,dog,pow,0957_pow_s05_pow_dog_35_n02091831_2942.png
subject-05,1,958,0.937036037445068,bird,bottle,pow,0958_pow_s05_pow_bottle_35_n03983396_14326.png
subject-05,1,959,0.631062030792236,keyboard,keyboard,pow,0959_pow_s05_pow_keyboard_35_n03085013_18625.png
subject-05,1,960,0.803442001342773,oven,oven,0,0960_pow_s05_0_oven_35_n04111531_2758.png
subject-05,1,961,1.33784317970276,chair,chair,0,0961_pow_s05_0_chair_35_n04429376_54570.png
subject-05,1,962,1.37386894226074,elephant,elephant,0,0962_pow_s05_0_elephant_35_n02504458_10013.png
subject-05,1,963,0.979921102523804,boat,oven,0,0963_pow_s05_0_oven_35_n04111531_978.png
subject-05,1,964,0.906435012817383,elephant,bottle,pow,0964_pow_s05_pow_bottle_35_n04591713_10440.png
subject-05,1,965,0.813050985336304,truck,truck,0,0965_pow_s05_0_truck_35_n04467665_59631.png
subject-05,1,966,0.908459901809692,keyboard,keyboard,pow,0966_pow_s05_pow_keyboard_35_n03085013_7892.png
subject-05,1,967,0.95014500617981,car,car,0,0967_pow_s05_0_car_35_n03100240_672.png
subject-05,1,968,0.616570949554443,chair,chair,pow,0968_pow_s05_pow_chair_35_n04099969_8647.png
subject-05,1,969,0.71953010559082,keyboard,keyboard,pow,0969_pow_s05_pow_keyboard_35_n03085013_24568.png
subject-05,1,970,0.91555118560791,cat,cat,0,0970_pow_s05_0_cat_35_n02123045_3404.png
subject-05,1,971,0.605995893478394,chair,chair,pow,0971_pow_s05_pow_chair_35_n02791124_2772.png
subject-05,1,972,0.993457794189453,truck,truck,pow,0972_pow_s05_pow_truck_35_n03417042_6034.png
subject-05,1,973,0.968109130859375,dog,cat,pow,0973_pow_s05_pow_cat_35_n02123597_13784.png
subject-05,1,974,0.864359140396118,bear,bear,pow,0974_pow_s05_pow_bear_35_n02134084_2096.png
subject-05,1,975,0.830496072769165,car,car,pow,0975_pow_s05_pow_car_35_n04285008_10802.png
subject-05,1,976,1.18066000938416,bear,bear,0,0976_pow_s05_0_bear_35_n02134418_2501.png
subject-05,1,977,0.795105934143066,cat,oven,pow,0977_pow_s05_pow_oven_35_n04111531_9370.png
subject-05,1,978,0.739642143249512,knife,knife,0,0978_pow_s05_0_knife_35_n03041632_18748.png
subject-05,1,979,1.02003407478333,bottle,bottle,0,0979_pow_s05_0_bottle_35_n03983396_2678.png
subject-05,1,980,1.19484305381775,boat,keyboard,pow,0980_pow_s05_pow_keyboard_35_n03085013_12482.png
subject-05,1,981,0.869246006011963,bird,bird,0,0981_pow_s05_0_bird_35_n02018207_3294.png
subject-05,1,982,0.989523887634277,keyboard,keyboard,pow,0982_pow_s05_pow_keyboard_35_n04505470_4033.png
subject-05,1,983,1.00997805595398,car,car,pow,0983_pow_s05_pow_car_35_n04285008_3447.png
subject-05,1,984,1.32227516174316,bear,elephant,0,0984_pow_s05_0_elephant_35_n02504458_8161.png
subject-05,1,985,1.26424312591553,bottle,bottle,0,0985_pow_s05_0_bottle_35_n03937543_5076.png
subject-05,1,986,1.17069387435913,bear,bear,0,0986_pow_s05_0_bear_35_n02134084_14992.png
subject-05,1,987,0.999046087265015,elephant,elephant,pow,0987_pow_s05_pow_elephant_35_n02504458_6172.png
subject-05,1,988,1.01943111419678,elephant,elephant,pow,0988_pow_s05_pow_elephant_35_n02504013_1953.png
subject-05,1,989,0.762341022491455,bird,chair,pow,0989_pow_s05_pow_chair_35_n03376595_1881.png
subject-05,1,990,1.05256795883179,cat,cat,pow,0990_pow_s05_pow_cat_35_n02125311_1746.png
subject-05,1,991,0.918538093566895,bear,bear,pow,0991_pow_s05_pow_bear_35_n02133161_467.png
subject-05,1,992,1.04688715934753,boat,car,pow,0992_pow_s05_pow_car_35_n04285008_514.png
subject-05,1,993,1.21319699287415,clock,clock,0,0993_pow_s05_0_clock_35_n02708093_1309.png
subject-05,1,994,0.687795162200928,elephant,elephant,pow,0994_pow_s05_pow_elephant_35_n02504458_4767.png
subject-05,1,995,0.892364025115967,elephant,bear,pow,0995_pow_s05_pow_bear_35_n02134418_2468.png
subject-05,1,996,0.860661029815674,boat,chair,pow,0996_pow_s05_pow_chair_35_n04429376_30249.png
subject-05,1,997,0.903249979019165,cat,cat,0,0997_pow_s05_0_cat_35_n02125311_20921.png
subject-05,1,998,1.13734102249146,oven,oven,0,0998_pow_s05_0_oven_35_n04111531_3671.png
subject-05,1,999,1.10605883598328,dog,dog,0,0999_pow_s05_0_dog_35_n02110806_21569.png
subject-05,1,1000,0.956556797027588,truck,truck,pow,1000_pow_s05_pow_truck_35_n03796401_14765.png
subject-05,1,1001,0.976875066757202,truck,truck,0,1001_pow_s05_0_truck_35_n03796401_6315.png
subject-05,1,1002,NaN,na,knife,0,1002_pow_s05_0_knife_35_n03041632_94620.png
subject-05,1,1003,0.933242082595825,bird,bird,0,1003_pow_s05_0_bird_35_n01797886_23311.png
subject-05,1,1004,1.23743391036987,cat,cat,0,1004_pow_s05_0_cat_35_n02123159_1296.png
subject-05,1,1005,0.690152883529663,bird,bird,pow,1005_pow_s05_pow_bird_35_n02007558_26393.png
subject-05,1,1006,0.718343019485474,cat,dog,pow,1006_pow_s05_pow_dog_35_n02096051_8160.png
subject-05,1,1007,1.06879901885986,oven,clock,0,1007_pow_s05_0_clock_35_n04548280_8845.png
subject-05,1,1008,0.805559873580933,clock,clock,0,1008_pow_s05_0_clock_35_n04548280_3234.png
subject-05,1,1009,0.771772861480713,oven,oven,0,1009_pow_s05_0_oven_35_n04111531_5328.png
subject-05,1,1010,0.930586099624634,bicycle,bicycle,pow,1010_pow_s05_pow_bicycle_35_n03792782_17469.png
subject-05,1,1011,0.736871957778931,oven,clock,pow,1011_pow_s05_pow_clock_35_n04548280_8106.png
subject-05,1,1012,0.811625003814697,knife,knife,pow,1012_pow_s05_pow_knife_35_n03041632_42196.png
subject-05,1,1013,1.01568508148193,chair,chair,pow,1013_pow_s05_pow_chair_35_n04099969_26499.png
subject-05,1,1014,0.529775142669678,boat,boat,pow,1014_pow_s05_pow_boat_35_n03344393_5737.png
subject-05,1,1015,0.712399005889893,bottle,bottle,pow,1015_pow_s05_pow_bottle_35_n03937543_1989.png
subject-05,1,1016,0.908543109893799,knife,knife,0,1016_pow_s05_0_knife_35_n03041632_8151.png
subject-05,1,1017,0.691334962844849,chair,chair,pow,1017_pow_s05_pow_chair_35_n03376595_3177.png
subject-05,1,1018,1.06282305717468,keyboard,keyboard,0,1018_pow_s05_0_keyboard_35_n03085013_5157.png
subject-05,1,1019,1.43817806243896,bird,dog,0,1019_pow_s05_0_dog_35_n02105056_4170.png
subject-05,1,1020,0.873800992965698,oven,knife,0,1020_pow_s05_0_knife_35_n03041632_36390.png
subject-05,1,1021,1.50012111663818,boat,chair,pow,1021_pow_s05_pow_chair_35_n04099969_6294.png
subject-05,1,1022,0.876756906509399,bottle,bottle,pow,1022_pow_s05_pow_bottle_35_n02823428_10235.png
subject-05,1,1023,1.34064793586731,car,car,0,1023_pow_s05_0_car_35_n03100240_418.png
subject-05,1,1024,0.725411891937256,car,car,0,1024_pow_s05_0_car_35_n02814533_52627.png
subject-05,1,1025,0.667465925216675,boat,boat,pow,1025_pow_s05_pow_boat_35_n02951358_8477.png
subject-05,1,1026,0.757416009902954,truck,truck,0,1026_pow_s05_0_truck_35_n03417042_22539.png
subject-05,1,1027,0.869974136352539,bird,bird,pow,1027_pow_s05_pow_bird_35_n01833805_7704.png
subject-05,1,1028,0.96831202507019,oven,oven,pow,1028_pow_s05_pow_oven_35_n04111531_5304.png
subject-05,1,1029,0.718143939971924,bicycle,bicycle,0,1029_pow_s05_0_bicycle_35_n03792782_296.png
subject-05,1,1030,0.954645156860352,knife,knife,0,1030_pow_s05_0_knife_35_n03041632_30553.png
subject-05,1,1031,0.767168998718262,keyboard,keyboard,pow,1031_pow_s05_pow_keyboard_35_n03085013_20884.png
subject-05,1,1032,0.863541841506958,bird,bird,0,1032_pow_s05_0_bird_35_n01558993_12553.png
subject-05,1,1033,1.29993104934692,boat,cat,pow,1033_pow_s05_pow_cat_35_n02123597_826.png
subject-05,1,1034,0.90850305557251,keyboard,oven,pow,1034_pow_s05_pow_oven_35_n04111531_4585.png
subject-05,1,1035,0.790417909622192,bottle,bottle,pow,1035_pow_s05_pow_bottle_35_n03983396_12337.png
subject-05,1,1036,1.08654093742371,car,knife,0,1036_pow_s05_0_knife_35_n03041632_13424.png
subject-05,1,1037,0.990805864334106,bird,bird,pow,1037_pow_s05_pow_bird_35_n02007558_8220.png
subject-05,1,1038,1.10367703437805,car,car,pow,1038_pow_s05_pow_car_35_n03100240_19940.png
subject-05,1,1039,1.30188393592834,boat,oven,0,1039_pow_s05_0_oven_35_n04111531_15569.png
subject-05,1,1040,0.66250205039978,boat,boat,pow,1040_pow_s05_pow_boat_35_n02951358_5053.png
subject-05,1,1041,0.70696496963501,clock,clock,0,1041_pow_s05_0_clock_35_n03196217_1211.png
subject-05,1,1042,1.10937285423279,oven,cat,pow,1042_pow_s05_pow_cat_35_n02123597_11496.png
subject-05,1,1043,0.501741170883179,boat,boat,pow,1043_pow_s05_pow_boat_35_n02951358_7411.png
subject-05,1,1044,0.705880880355835,truck,truck,pow,1044_pow_s05_pow_truck_35_n03417042_1978.png
subject-05,1,1045,0.85657787322998,bicycle,bicycle,pow,1045_pow_s05_pow_bicycle_35_n02835271_14743.png
subject-05,1,1046,1.16880702972412,truck,truck,pow,1046_pow_s05_pow_truck_35_n03417042_5505.png
subject-05,1,1047,1.24377989768982,car,keyboard,pow,1047_pow_s05_pow_keyboard_35_n04505470_3388.png
subject-05,1,1048,1.18006992340088,knife,knife,pow,1048_pow_s05_pow_knife_35_n03041632_21034.png
subject-05,1,1049,1.28529787063599,oven,oven,pow,1049_pow_s05_pow_oven_35_n04111531_7945.png
subject-05,1,1050,0.890970945358276,clock,clock,0,1050_pow_s05_0_clock_35_n04548280_1114.png
subject-05,1,1051,0.865101099014282,oven,oven,pow,1051_pow_s05_pow_oven_35_n04111531_8910.png
subject-05,1,1052,1.22373294830322,car,car,0,1052_pow_s05_0_car_35_n02814533_70354.png
subject-05,1,1053,NaN,na,dog,0,1053_pow_s05_0_dog_35_n02093754_6626.png
subject-05,1,1054,1.11023902893066,bottle,bottle,0,1054_pow_s05_0_bottle_35_n04560804_2634.png
subject-05,1,1055,1.22251605987549,car,airplane,pow,1055_pow_s05_pow_airplane_35_n02690373_4727.png
subject-05,1,1056,0.845278978347778,bird,bird,0,1056_pow_s05_0_bird_35_n02037110_8075.png
subject-05,1,1057,1.50024509429932,cat,knife,0,1057_pow_s05_0_knife_35_n03041632_4305.png
subject-05,1,1058,0.686272144317627,cat,dog,0,1058_pow_s05_0_dog_35_n02098105_4118.png
subject-05,1,1059,1.40484499931335,car,boat,pow,1059_pow_s05_pow_boat_35_n02951358_15422.png
subject-05,1,1060,NaN,na,clock,pow,1060_pow_s05_pow_clock_35_n03196217_3194.png
subject-05,1,1061,NaN,na,keyboard,0,1061_pow_s05_0_keyboard_35_n03085013_19497.png
subject-05,1,1062,0.569418907165527,oven,clock,pow,1062_pow_s05_pow_clock_35_n02708093_3484.png
subject-05,1,1063,0.858113050460815,boat,boat,pow,1063_pow_s05_pow_boat_35_n04273569_13612.png
subject-05,1,1064,0.818534135818481,clock,clock,0,1064_pow_s05_0_clock_35_n03196217_8261.png
subject-05,1,1065,0.953035831451416,elephant,elephant,pow,1065_pow_s05_pow_elephant_35_n02504013_9678.png
subject-05,1,1066,1.13553404808044,cat,cat,pow,1066_pow_s05_pow_cat_35_n02123159_5299.png
subject-05,1,1067,1.03389716148376,clock,clock,0,1067_pow_s05_0_clock_35_n02708093_6430.png
subject-05,1,1068,0.678569078445435,truck,truck,0,1068_pow_s05_0_truck_35_n03796401_24013.png
subject-05,1,1069,1.16280698776245,bird,bicycle,pow,1069_pow_s05_pow_bicycle_35_n03792782_7773.png
subject-05,1,1070,0.777525901794434,oven,knife,pow,1070_pow_s05_pow_knife_35_n03041632_4708.png
