subj,session,trial,rt,object_response,category,condition,imagename
subject-05,1,1,1.17234897613525,boat,boat,0,0001_sif_s05_0_boat_00_boat9.png
subject-05,1,2,0.864751100540161,bottle,bottle,0,0002_sif_s05_0_bottle_00_bottle9.png
subject-05,1,3,0.989967823028564,bicycle,bicycle,0,0003_sif_s05_0_bicycle_00_bicycle8.png
subject-05,1,4,0.989934206008911,dog,dog,0,0004_sif_s05_0_dog_00_dog1.png
subject-05,1,5,0.998079061508179,boat,boat,0,0005_sif_s05_0_boat_00_boat7.png
subject-05,1,6,0.997786998748779,clock,clock,0,0006_sif_s05_0_clock_00_clock5.png
subject-05,1,7,1.24429321289062,oven,truck,0,0007_sif_s05_0_truck_00_truck2.png
subject-05,1,8,1.16882491111755,oven,car,0,0008_sif_s05_0_car_00_car5.png
subject-05,1,9,1.06638288497925,elephant,elephant,0,0009_sif_s05_0_elephant_00_elephant9.png
subject-05,1,10,0.744837999343872,bear,bear,0,0010_sif_s05_0_bear_00_bear9.png
subject-05,1,11,1.14502286911011,bicycle,bicycle,0,0011_sif_s05_0_bicycle_00_bicycle6.png
subject-05,1,12,0.823976993560791,bottle,bottle,0,0012_sif_s05_0_bottle_00_bottle6.png
subject-05,1,13,1.22417020797729,bear,elephant,0,0013_sif_s05_0_elephant_00_elephant6.png
subject-05,1,14,0.723545074462891,keyboard,keyboard,0,0014_sif_s05_0_keyboard_00_keyboard8.png
subject-05,1,15,1.07017588615417,car,car,0,0015_sif_s05_0_car_00_car4.png
subject-05,1,16,0.969964027404785,dog,dog,0,0016_sif_s05_0_dog_00_dog8.png
subject-05,1,17,1.3165271282196,knife,boat,0,0017_sif_s05_0_boat_00_boat2.png
subject-05,1,18,1.0789270401001,truck,truck,0,0018_sif_s05_0_truck_00_truck8.png
subject-05,1,19,0.678881883621216,chair,chair,0,0019_sif_s05_0_chair_00_chair5.png
subject-05,1,20,0.817336082458496,airplane,airplane,0,0020_sif_s05_0_airplane_00_airplane8.png
subject-05,1,21,0.757702112197876,bear,bear,0,0021_sif_s05_0_bear_00_bear10.png
subject-05,1,22,0.979480981826782,elephant,elephant,0,0022_sif_s05_0_elephant_00_elephant10.png
subject-05,1,23,1.00334310531616,bottle,bottle,0,0023_sif_s05_0_bottle_00_bottle8.png
subject-05,1,24,1.07941508293152,elephant,elephant,0,0024_sif_s05_0_elephant_00_elephant2.png
subject-05,1,25,0.987815141677856,knife,knife,0,0025_sif_s05_0_knife_00_knife6.png
subject-05,1,26,0.64160680770874,bottle,bottle,0,0026_sif_s05_0_bottle_00_bottle7.png
subject-05,1,27,1.3881299495697,bear,bear,0,0027_sif_s05_0_bear_00_bear2.png
subject-05,1,28,1.20364308357239,knife,boat,0,0028_sif_s05_0_boat_00_boat6.png
subject-05,1,29,0.741044998168945,elephant,elephant,0,0029_sif_s05_0_elephant_00_elephant7.png
subject-05,1,30,0.849432945251465,bicycle,bicycle,0,0030_sif_s05_0_bicycle_00_bicycle4.png
subject-05,1,31,1.18007802963257,bird,bird,0,0031_sif_s05_0_bird_00_bird3.png
subject-05,1,32,1.2960638999939,bear,bear,0,0032_sif_s05_0_bear_00_bear8.png
subject-05,1,33,1.07233595848083,bear,bear,0,0033_sif_s05_0_bear_00_bear5.png
subject-05,1,34,0.804588794708252,elephant,elephant,0,0034_sif_s05_0_elephant_00_elephant3.png
subject-05,1,35,0.904875040054321,car,car,0,0035_sif_s05_0_car_00_car9.png
subject-05,1,36,1.22684788703918,dog,cat,0,0036_sif_s05_0_cat_00_cat10.png
subject-05,1,37,1.19743800163269,bird,bird,0,0037_sif_s05_0_bird_00_bird6.png
subject-05,1,38,1.50031685829163,oven,oven,0,0038_sif_s05_0_oven_00_oven3.png
subject-05,1,39,1.03443193435669,elephant,elephant,0,0039_sif_s05_0_elephant_00_elephant4.png
subject-05,1,40,0.826551914215088,bottle,bottle,0,0040_sif_s05_0_bottle_00_bottle1.png
subject-05,1,41,1.05148792266846,bottle,bottle,0,0041_sif_s05_0_bottle_00_bottle10.png
subject-05,1,42,0.942841053009033,clock,clock,0,0042_sif_s05_0_clock_00_clock4.png
subject-05,1,43,1.01910018920898,dog,dog,0,0043_sif_s05_0_dog_00_dog2.png
subject-05,1,44,1.41059994697571,dog,dog,0,0044_sif_s05_0_dog_00_dog10.png
subject-05,1,45,0.935154914855957,knife,keyboard,0,0045_sif_s05_0_keyboard_00_keyboard10.png
subject-05,1,46,0.935148954391479,clock,clock,0,0046_sif_s05_0_clock_00_clock3.png
subject-05,1,47,1.16509890556335,oven,truck,0,0047_sif_s05_0_truck_00_truck1.png
subject-05,1,48,0.819185018539429,cat,cat,0,0048_sif_s05_0_cat_00_cat2.png
subject-05,1,49,0.82790994644165,elephant,bear,0,0049_sif_s05_0_bear_00_bear7.png
subject-05,1,50,0.865549087524414,truck,truck,0,0050_sif_s05_0_truck_00_truck7.png
subject-05,1,51,0.711602926254272,chair,chair,0,0051_sif_s05_0_chair_00_chair8.png
subject-05,1,52,1.08753490447998,cat,cat,0,0052_sif_s05_0_cat_00_cat5.png
subject-05,1,53,1.24139785766602,knife,knife,0,0053_sif_s05_0_knife_00_knife4.png
subject-05,1,54,1.11136913299561,keyboard,oven,0,0054_sif_s05_0_oven_00_oven5.png
subject-05,1,55,1.02819085121155,dog,dog,0,0055_sif_s05_0_dog_00_dog9.png
subject-05,1,56,0.958611965179443,airplane,airplane,0,0056_sif_s05_0_airplane_00_airplane6.png
subject-05,1,57,1.10673213005066,airplane,airplane,0,0057_sif_s05_0_airplane_00_airplane5.png
subject-05,1,58,0.899272918701172,bottle,bottle,0,0058_sif_s05_0_bottle_00_bottle5.png
subject-05,1,59,0.999082088470459,bird,bird,0,0059_sif_s05_0_bird_00_bird7.png
subject-05,1,60,1.11249613761902,oven,keyboard,0,0060_sif_s05_0_keyboard_00_keyboard7.png
subject-05,1,61,1.00441598892212,chair,chair,0,0061_sif_s05_0_chair_00_chair10.png
subject-05,1,62,1.3807168006897,bear,bird,0,0062_sif_s05_0_bird_00_bird2.png
subject-05,1,63,1.08874201774597,chair,bottle,0,0063_sif_s05_0_bottle_00_bottle4.png
subject-05,1,64,0.92634105682373,airplane,airplane,0,0064_sif_s05_0_airplane_00_airplane3.png
subject-05,1,65,1.00479102134705,clock,clock,0,0065_sif_s05_0_clock_00_clock6.png
subject-05,1,66,0.965616941452026,oven,oven,0,0066_sif_s05_0_oven_00_oven8.png
subject-05,1,67,0.890030145645142,chair,chair,0,0067_sif_s05_0_chair_00_chair6.png
subject-05,1,68,1.0303521156311,bird,bird,0,0068_sif_s05_0_bird_00_bird10.png
subject-05,1,69,1.23071217536926,airplane,airplane,0,0069_sif_s05_0_airplane_00_airplane4.png
subject-05,1,70,0.885349035263062,car,car,0,0070_sif_s05_0_car_00_car8.png
subject-05,1,71,0.869098901748657,airplane,boat,0,0071_sif_s05_0_boat_00_boat1.png
subject-05,1,72,1.07752990722656,dog,dog,0,0072_sif_s05_0_dog_00_dog3.png
subject-05,1,73,1.2618100643158,knife,boat,0,0073_sif_s05_0_boat_00_boat10.png
subject-05,1,74,0.923721790313721,cat,cat,0,0074_sif_s05_0_cat_00_cat4.png
subject-05,1,75,0.940513849258423,car,car,0,0075_sif_s05_0_car_00_car2.png
subject-05,1,76,0.918184995651245,knife,knife,0,0076_sif_s05_0_knife_00_knife2.png
subject-05,1,77,1.28599381446838,elephant,elephant,0,0077_sif_s05_0_elephant_00_elephant5.png
subject-05,1,78,1.16198897361755,oven,clock,0,0078_sif_s05_0_clock_00_clock1.png
subject-05,1,79,0.902494192123413,clock,clock,0,0079_sif_s05_0_clock_00_clock10.png
subject-05,1,80,0.932769060134888,airplane,airplane,0,0080_sif_s05_0_airplane_00_airplane10.png
subject-05,1,81,0.981121063232422,chair,chair,0,0081_sif_s05_0_chair_00_chair2.png
subject-05,1,82,0.895545959472656,bicycle,bicycle,0,0082_sif_s05_0_bicycle_00_bicycle7.png
subject-05,1,83,1.37101101875305,airplane,car,0,0083_sif_s05_0_car_00_car6.png
subject-05,1,84,0.887677192687988,cat,bear,0,0084_sif_s05_0_bear_00_bear6.png
subject-05,1,85,0.866091012954712,bird,bird,0,0085_sif_s05_0_bird_00_bird1.png
subject-05,1,86,1.50031590461731,bird,boat,0,0086_sif_s05_0_boat_00_boat4.png
subject-05,1,87,1.26321005821228,dog,dog,0,0087_sif_s05_0_dog_00_dog4.png
subject-05,1,88,1.0874879360199,oven,oven,0,0088_sif_s05_0_oven_00_oven4.png
subject-05,1,89,0.909730911254883,chair,chair,0,0089_sif_s05_0_chair_00_chair7.png
subject-05,1,90,0.942037105560303,car,car,0,0090_sif_s05_0_car_00_car10.png
subject-05,1,91,1.23418211936951,car,car,0,0091_sif_s05_0_car_00_car1.png
subject-05,1,92,1.08042097091675,knife,knife,0,0092_sif_s05_0_knife_00_knife1.png
subject-05,1,93,1.31817507743835,boat,keyboard,0,0093_sif_s05_0_keyboard_00_keyboard9.png
subject-05,1,94,0.702850103378296,chair,chair,0,0094_sif_s05_0_chair_00_chair9.png
subject-05,1,95,1.24045300483704,dog,cat,0,0095_sif_s05_0_cat_00_cat7.png
subject-05,1,96,1.12701988220215,bicycle,bicycle,0,0096_sif_s05_0_bicycle_00_bicycle9.png
subject-05,1,97,1.11917400360107,bird,bird,0,0097_sif_s05_0_bird_00_bird4.png
subject-05,1,98,1.11084008216858,cat,cat,0,0098_sif_s05_0_cat_00_cat3.png
subject-05,1,99,1.22710490226746,dog,cat,0,0099_sif_s05_0_cat_00_cat8.png
subject-05,1,100,1.21188879013062,truck,truck,0,0100_sif_s05_0_truck_00_truck9.png
subject-05,1,101,1.02831888198853,oven,oven,0,0101_sif_s05_0_oven_00_oven7.png
subject-05,1,102,1.34193587303162,knife,knife,0,0102_sif_s05_0_knife_00_knife5.png
subject-05,1,103,0.874105930328369,chair,chair,0,0103_sif_s05_0_chair_00_chair3.png
subject-05,1,104,1.38831210136414,dog,bear,0,0104_sif_s05_0_bear_00_bear3.png
subject-05,1,105,1.05852890014648,knife,keyboard,0,0105_sif_s05_0_keyboard_00_keyboard2.png
subject-05,1,106,1.34276008605957,knife,keyboard,0,0106_sif_s05_0_keyboard_00_keyboard3.png
subject-05,1,107,1.15071582794189,oven,oven,0,0107_sif_s05_0_oven_00_oven1.png
subject-05,1,108,0.921421051025391,cat,cat,0,0108_sif_s05_0_cat_00_cat9.png
subject-05,1,109,1.09761118888855,elephant,elephant,0,0109_sif_s05_0_elephant_00_elephant1.png
subject-05,1,110,1.16775107383728,oven,truck,0,0110_sif_s05_0_truck_00_truck4.png
subject-05,1,111,0.776348829269409,clock,clock,0,0111_sif_s05_0_clock_00_clock9.png
subject-05,1,112,0.876287937164307,bottle,bottle,0,0112_sif_s05_0_bottle_00_bottle2.png
subject-05,1,113,1.11462998390198,chair,chair,0,0113_sif_s05_0_chair_00_chair4.png
subject-05,1,114,1.28522992134094,airplane,airplane,0,0114_sif_s05_0_airplane_00_airplane9.png
subject-05,1,115,1.06156516075134,dog,dog,0,0115_sif_s05_0_dog_00_dog7.png
subject-05,1,116,1.19415307044983,boat,boat,0,0116_sif_s05_0_boat_00_boat3.png
subject-05,1,117,0.924229860305786,car,truck,0,0117_sif_s05_0_truck_00_truck6.png
subject-05,1,118,1.21576189994812,car,car,0,0118_sif_s05_0_car_00_car7.png
subject-05,1,119,1.10042309761047,airplane,airplane,0,0119_sif_s05_0_airplane_00_airplane1.png
subject-05,1,120,1.24098896980286,truck,truck,0,0120_sif_s05_0_truck_00_truck5.png
subject-05,1,121,1.23357915878296,knife,keyboard,0,0121_sif_s05_0_keyboard_00_keyboard1.png
subject-05,1,122,NaN,na,bicycle,0,0122_sif_s05_0_bicycle_00_bicycle5.png
subject-05,1,123,0.949949026107788,car,truck,0,0123_sif_s05_0_truck_00_truck10.png
subject-05,1,124,1.28829789161682,bicycle,bicycle,0,0124_sif_s05_0_bicycle_00_bicycle3.png
subject-05,1,125,1.10158491134644,knife,knife,0,0125_sif_s05_0_knife_00_knife7.png
subject-05,1,126,1.45046901702881,truck,oven,0,0126_sif_s05_0_oven_00_oven6.png
subject-05,1,127,1.50022888183594,knife,oven,0,0127_sif_s05_0_oven_00_oven10.png
subject-05,1,128,0.835022926330566,bird,bird,0,0128_sif_s05_0_bird_00_bird8.png
subject-05,1,129,1.20292282104492,bird,bird,0,0129_sif_s05_0_bird_00_bird5.png
subject-05,1,130,1.01155614852905,bicycle,bicycle,0,0130_sif_s05_0_bicycle_00_bicycle1.png
subject-05,1,131,0.860345125198364,dog,dog,0,0131_sif_s05_0_dog_00_dog6.png
subject-05,1,132,1.34412407875061,airplane,airplane,0,0132_sif_s05_0_airplane_00_airplane2.png
subject-05,1,133,0.843924045562744,clock,clock,0,0133_sif_s05_0_clock_00_clock7.png
subject-05,1,134,1.12792897224426,clock,clock,0,0134_sif_s05_0_clock_00_clock8.png
subject-05,1,135,0.866544008255005,boat,boat,0,0135_sif_s05_0_boat_00_boat5.png
subject-05,1,136,1.11232590675354,chair,chair,0,0136_sif_s05_0_chair_00_chair1.png
subject-05,1,137,0.934601068496704,bird,bird,0,0137_sif_s05_0_bird_00_bird9.png
subject-05,1,138,0.83436107635498,airplane,keyboard,0,0138_sif_s05_0_keyboard_00_keyboard6.png
subject-05,1,139,1.02901911735535,knife,knife,0,0139_sif_s05_0_knife_00_knife10.png
subject-05,1,140,1.20510697364807,dog,dog,0,0140_sif_s05_0_dog_00_dog5.png
subject-05,1,141,1.27567410469055,knife,keyboard,0,0141_sif_s05_0_keyboard_00_keyboard4.png
subject-05,1,142,NaN,na,keyboard,0,0142_sif_s05_0_keyboard_00_keyboard5.png
subject-05,1,143,0.942537069320679,bicycle,bicycle,0,0143_sif_s05_0_bicycle_00_bicycle2.png
subject-05,1,144,0.834008932113647,cat,cat,0,0144_sif_s05_0_cat_00_cat6.png
subject-05,1,145,1.04853200912476,bottle,bottle,0,0145_sif_s05_0_bottle_00_bottle3.png
subject-05,1,146,1.00288701057434,knife,knife,0,0146_sif_s05_0_knife_00_knife3.png
subject-05,1,147,0.865018129348755,bear,bear,0,0147_sif_s05_0_bear_00_bear1.png
subject-05,1,148,1.3735179901123,bear,bear,0,0148_sif_s05_0_bear_00_bear4.png
subject-05,1,149,1.31943106651306,bicycle,bicycle,0,0149_sif_s05_0_bicycle_00_bicycle10.png
subject-05,1,150,1.41748309135437,truck,truck,0,0150_sif_s05_0_truck_00_truck3.png
subject-05,1,151,1.48776197433472,knife,boat,0,0151_sif_s05_0_boat_00_boat8.png
subject-05,1,152,0.933981895446777,car,car,0,0152_sif_s05_0_car_00_car3.png
subject-05,1,153,1.00354695320129,elephant,elephant,0,0153_sif_s05_0_elephant_00_elephant8.png
subject-05,1,154,1.48813104629517,knife,knife,0,0154_sif_s05_0_knife_00_knife8.png
subject-05,1,155,0.811720132827759,knife,knife,0,0155_sif_s05_0_knife_00_knife9.png
subject-05,1,156,1.31003999710083,airplane,airplane,0,0156_sif_s05_0_airplane_00_airplane7.png
subject-05,1,157,0.780771970748901,cat,cat,0,0157_sif_s05_0_cat_00_cat1.png
subject-05,1,158,1.06420803070068,car,oven,0,0158_sif_s05_0_oven_00_oven9.png
subject-05,1,159,0.772636890411377,clock,clock,0,0159_sif_s05_0_clock_00_clock2.png
subject-05,1,160,1.04310989379883,oven,oven,0,0160_sif_s05_0_oven_00_oven2.png
