subj,session,trial,rt,object_response,category,condition,imagename
subject-01,1,1,1.38254284858704,car,car,0,0001_gra_s01_0_car_00_car5.png
subject-01,1,2,0.953118085861206,airplane,airplane,0,0002_gra_s01_0_airplane_00_airplane3.png
subject-01,1,3,0.951463937759399,oven,oven,0,0003_gra_s01_0_oven_00_oven4.png
subject-01,1,4,0.7498619556427,truck,truck,0,0004_gra_s01_0_truck_00_truck9.png
subject-01,1,5,0.885338068008423,airplane,airplane,0,0005_gra_s01_0_airplane_00_airplane9.png
subject-01,1,6,0.904820203781128,chair,chair,0,0006_gra_s01_0_chair_00_chair7.png
subject-01,1,7,1.12542200088501,bird,bird,0,0007_gra_s01_0_bird_00_bird3.png
subject-01,1,8,0.969649076461792,keyboard,keyboard,0,0008_gra_s01_0_keyboard_00_keyboard10.png
subject-01,1,9,0.692218065261841,bird,bird,0,0009_gra_s01_0_bird_00_bird2.png
subject-01,1,10,0.974835157394409,elephant,elephant,0,0010_gra_s01_0_elephant_00_elephant8.png
subject-01,1,11,0.834405899047852,oven,oven,0,0011_gra_s01_0_oven_00_oven1.png
subject-01,1,12,0.916010141372681,oven,oven,0,0012_gra_s01_0_oven_00_oven8.png
subject-01,1,13,0.69053316116333,knife,knife,0,0013_gra_s01_0_knife_00_knife3.png
subject-01,1,14,0.956483840942383,car,car,0,0014_gra_s01_0_car_00_car8.png
subject-01,1,15,1.44678997993469,bottle,bottle,0,0015_gra_s01_0_bottle_00_bottle10.png
subject-01,1,16,1.42788290977478,bird,bird,0,0016_gra_s01_0_bird_00_bird5.png
subject-01,1,17,0.565937995910645,clock,clock,0,0017_gra_s01_0_clock_00_clock8.png
subject-01,1,18,0.694628000259399,car,car,0,0018_gra_s01_0_car_00_car4.png
subject-01,1,19,0.70089316368103,knife,knife,0,0019_gra_s01_0_knife_00_knife2.png
subject-01,1,20,0.761184930801392,keyboard,keyboard,0,0020_gra_s01_0_keyboard_00_keyboard3.png
subject-01,1,21,1.48836898803711,bear,bear,0,0021_gra_s01_0_bear_00_bear7.png
subject-01,1,22,0.810064077377319,dog,dog,0,0022_gra_s01_0_dog_00_dog6.png
subject-01,1,23,0.553992033004761,bicycle,bicycle,0,0023_gra_s01_0_bicycle_00_bicycle8.png
subject-01,1,24,1.29081296920776,elephant,elephant,0,0024_gra_s01_0_elephant_00_elephant5.png
subject-01,1,25,0.951338052749634,clock,clock,0,0025_gra_s01_0_clock_00_clock10.png
subject-01,1,26,0.603895902633667,oven,oven,0,0026_gra_s01_0_oven_00_oven9.png
subject-01,1,27,0.638669013977051,cat,cat,0,0027_gra_s01_0_cat_00_cat6.png
subject-01,1,28,0.804382801055908,knife,boat,0,0028_gra_s01_0_boat_00_boat6.png
subject-01,1,29,0.802860975265503,chair,chair,0,0029_gra_s01_0_chair_00_chair5.png
subject-01,1,30,0.618007898330688,boat,boat,0,0030_gra_s01_0_boat_00_boat8.png
subject-01,1,31,0.599884986877441,oven,oven,0,0031_gra_s01_0_oven_00_oven6.png
subject-01,1,32,0.638427972793579,boat,boat,0,0032_gra_s01_0_boat_00_boat3.png
subject-01,1,33,0.75921106338501,truck,truck,0,0033_gra_s01_0_truck_00_truck2.png
subject-01,1,34,0.619242906570435,elephant,elephant,0,0034_gra_s01_0_elephant_00_elephant1.png
subject-01,1,35,0.825632095336914,chair,chair,0,0035_gra_s01_0_chair_00_chair2.png
subject-01,1,36,1.07036995887756,bicycle,bicycle,0,0036_gra_s01_0_bicycle_00_bicycle3.png
subject-01,1,37,0.914746999740601,dog,dog,0,0037_gra_s01_0_dog_00_dog8.png
subject-01,1,38,1.04276204109192,cat,cat,0,0038_gra_s01_0_cat_00_cat9.png
subject-01,1,39,0.797305107116699,elephant,elephant,0,0039_gra_s01_0_elephant_00_elephant2.png
subject-01,1,40,0.595661878585815,boat,boat,0,0040_gra_s01_0_boat_00_boat7.png
subject-01,1,41,1.06226992607117,chair,chair,0,0041_gra_s01_0_chair_00_chair9.png
subject-01,1,42,0.855272054672241,elephant,elephant,0,0042_gra_s01_0_elephant_00_elephant10.png
subject-01,1,43,0.845278024673462,oven,oven,0,0043_gra_s01_0_oven_00_oven2.png
subject-01,1,44,0.698304891586304,truck,truck,0,0044_gra_s01_0_truck_00_truck5.png
subject-01,1,45,0.926903963088989,cat,cat,0,0045_gra_s01_0_cat_00_cat10.png
subject-01,1,46,0.757492065429688,bottle,bottle,0,0046_gra_s01_0_bottle_00_bottle8.png
subject-01,1,47,0.693683862686157,keyboard,keyboard,0,0047_gra_s01_0_keyboard_00_keyboard4.png
subject-01,1,48,0.784201145172119,knife,knife,0,0048_gra_s01_0_knife_00_knife9.png
subject-01,1,49,0.728582859039307,keyboard,keyboard,0,0049_gra_s01_0_keyboard_00_keyboard5.png
subject-01,1,50,1.47762203216553,bicycle,bicycle,0,0050_gra_s01_0_bicycle_00_bicycle7.png
subject-01,1,51,0.67591404914856,boat,boat,0,0051_gra_s01_0_boat_00_boat10.png
subject-01,1,52,1.0044629573822,dog,dog,0,0052_gra_s01_0_dog_00_dog10.png
subject-01,1,53,1.08163404464722,airplane,airplane,0,0053_gra_s01_0_airplane_00_airplane7.png
subject-01,1,54,0.787915945053101,bird,bird,0,0054_gra_s01_0_bird_00_bird7.png
subject-01,1,55,1.20807099342346,oven,oven,0,0055_gra_s01_0_oven_00_oven10.png
subject-01,1,56,0.763206005096436,oven,oven,0,0056_gra_s01_0_oven_00_oven7.png
subject-01,1,57,0.685713052749634,elephant,elephant,0,0057_gra_s01_0_elephant_00_elephant7.png
subject-01,1,58,0.568028926849365,clock,clock,0,0058_gra_s01_0_clock_00_clock5.png
subject-01,1,59,0.828793048858643,airplane,airplane,0,0059_gra_s01_0_airplane_00_airplane6.png
subject-01,1,60,0.686854124069214,bottle,bottle,0,0060_gra_s01_0_bottle_00_bottle2.png
subject-01,1,61,0.785202026367188,keyboard,keyboard,0,0061_gra_s01_0_keyboard_00_keyboard6.png
subject-01,1,62,0.653652906417847,oven,oven,0,0062_gra_s01_0_oven_00_oven3.png
subject-01,1,63,0.576213121414185,bicycle,bicycle,0,0063_gra_s01_0_bicycle_00_bicycle6.png
subject-01,1,64,1.02612090110779,truck,truck,0,0064_gra_s01_0_truck_00_truck4.png
subject-01,1,65,NaN,na,airplane,0,0065_gra_s01_0_airplane_00_airplane5.png
subject-01,1,66,0.968737125396729,bird,bird,0,0066_gra_s01_0_bird_00_bird9.png
subject-01,1,67,0.783177137374878,keyboard,keyboard,0,0067_gra_s01_0_keyboard_00_keyboard8.png
subject-01,1,68,0.619219064712524,bear,bear,0,0068_gra_s01_0_bear_00_bear9.png
subject-01,1,69,1.09388399124146,car,car,0,0069_gra_s01_0_car_00_car1.png
subject-01,1,70,1.13015508651733,bird,bird,0,0070_gra_s01_0_bird_00_bird1.png
subject-01,1,71,1.08252596855164,clock,clock,0,0071_gra_s01_0_clock_00_clock1.png
subject-01,1,72,0.712775945663452,clock,clock,0,0072_gra_s01_0_clock_00_clock4.png
subject-01,1,73,0.781886100769043,bicycle,bicycle,0,0073_gra_s01_0_bicycle_00_bicycle4.png
subject-01,1,74,0.939647912979126,elephant,elephant,0,0074_gra_s01_0_elephant_00_elephant9.png
subject-01,1,75,0.921781063079834,elephant,elephant,0,0075_gra_s01_0_elephant_00_elephant3.png
subject-01,1,76,1.08292102813721,dog,dog,0,0076_gra_s01_0_dog_00_dog4.png
subject-01,1,77,0.558981895446777,clock,clock,0,0077_gra_s01_0_clock_00_clock9.png
subject-01,1,78,0.687508821487427,clock,clock,0,0078_gra_s01_0_clock_00_clock7.png
subject-01,1,79,0.793930053710938,bear,bear,0,0079_gra_s01_0_bear_00_bear10.png
subject-01,1,80,0.614540815353394,chair,chair,0,0080_gra_s01_0_chair_00_chair8.png
subject-01,1,81,0.567219972610474,bear,bear,0,0081_gra_s01_0_bear_00_bear6.png
subject-01,1,82,0.894474029541016,car,car,0,0082_gra_s01_0_car_00_car9.png
subject-01,1,83,0.679042816162109,elephant,elephant,0,0083_gra_s01_0_elephant_00_elephant4.png
subject-01,1,84,0.745629072189331,bear,bear,0,0084_gra_s01_0_bear_00_bear3.png
subject-01,1,85,0.919310092926025,bicycle,bicycle,0,0085_gra_s01_0_bicycle_00_bicycle2.png
subject-01,1,86,0.657702922821045,bird,bird,0,0086_gra_s01_0_bird_00_bird8.png
subject-01,1,87,0.7081139087677,knife,knife,0,0087_gra_s01_0_knife_00_knife7.png
subject-01,1,88,0.554603099822998,cat,cat,0,0088_gra_s01_0_cat_00_cat8.png
subject-01,1,89,0.86725902557373,airplane,airplane,0,0089_gra_s01_0_airplane_00_airplane4.png
subject-01,1,90,1.20378017425537,chair,chair,0,0090_gra_s01_0_chair_00_chair1.png
subject-01,1,91,0.643908977508545,boat,boat,0,0091_gra_s01_0_boat_00_boat2.png
subject-01,1,92,0.874105930328369,knife,knife,0,0092_gra_s01_0_knife_00_knife1.png
subject-01,1,93,1.10226202011108,airplane,airplane,0,0093_gra_s01_0_airplane_00_airplane1.png
subject-01,1,94,0.746196985244751,dog,dog,0,0094_gra_s01_0_dog_00_dog7.png
subject-01,1,95,0.499013900756836,bicycle,bicycle,0,0095_gra_s01_0_bicycle_00_bicycle5.png
subject-01,1,96,0.705332040786743,car,car,0,0096_gra_s01_0_car_00_car2.png
subject-01,1,97,0.963252067565918,knife,knife,0,0097_gra_s01_0_knife_00_knife4.png
subject-01,1,98,0.563795804977417,boat,boat,0,0098_gra_s01_0_boat_00_boat1.png
subject-01,1,99,1.29012203216553,dog,dog,0,0099_gra_s01_0_dog_00_dog2.png
subject-01,1,100,0.812846899032593,car,car,0,0100_gra_s01_0_car_00_car10.png
subject-01,1,101,0.488994121551514,keyboard,keyboard,0,0101_gra_s01_0_keyboard_00_keyboard7.png
subject-01,1,102,0.525489091873169,bear,bear,0,0102_gra_s01_0_bear_00_bear5.png
subject-01,1,103,0.69429612159729,chair,chair,0,0103_gra_s01_0_chair_00_chair10.png
subject-01,1,104,0.900617837905884,truck,truck,0,0104_gra_s01_0_truck_00_truck8.png
subject-01,1,105,1.00497508049011,cat,cat,0,0105_gra_s01_0_cat_00_cat7.png
subject-01,1,106,0.774332046508789,keyboard,keyboard,0,0106_gra_s01_0_keyboard_00_keyboard9.png
subject-01,1,107,0.980244159698486,bottle,bottle,0,0107_gra_s01_0_bottle_00_bottle4.png
subject-01,1,108,0.603315830230713,bicycle,bicycle,0,0108_gra_s01_0_bicycle_00_bicycle10.png
subject-01,1,109,0.739589929580688,boat,boat,0,0109_gra_s01_0_boat_00_boat4.png
subject-01,1,110,0.546186208724976,bottle,bottle,0,0110_gra_s01_0_bottle_00_bottle3.png
subject-01,1,111,0.783063888549805,cat,cat,0,0111_gra_s01_0_cat_00_cat1.png
subject-01,1,112,1.07910895347595,bear,bear,0,0112_gra_s01_0_bear_00_bear1.png
subject-01,1,113,1.1236629486084,bird,bird,0,0113_gra_s01_0_bird_00_bird4.png
subject-01,1,114,0.892164945602417,bird,bird,0,0114_gra_s01_0_bird_00_bird6.png
subject-01,1,115,0.898727893829346,dog,dog,0,0115_gra_s01_0_dog_00_dog5.png
subject-01,1,116,0.621008157730103,airplane,airplane,0,0116_gra_s01_0_airplane_00_airplane8.png
subject-01,1,117,0.749837160110474,boat,boat,0,0117_gra_s01_0_boat_00_boat9.png
subject-01,1,118,1.02007913589478,bottle,bottle,0,0118_gra_s01_0_bottle_00_bottle6.png
subject-01,1,119,0.850571155548096,cat,cat,0,0119_gra_s01_0_cat_00_cat3.png
subject-01,1,120,1.17859482765198,car,car,0,0120_gra_s01_0_car_00_car6.png
subject-01,1,121,0.546447038650513,boat,boat,0,0121_gra_s01_0_boat_00_boat5.png
subject-01,1,122,0.690829038619995,cat,cat,0,0122_gra_s01_0_cat_00_cat5.png
subject-01,1,123,0.927927017211914,airplane,airplane,0,0123_gra_s01_0_airplane_00_airplane2.png
subject-01,1,124,1.1021089553833,bear,bear,0,0124_gra_s01_0_bear_00_bear2.png
subject-01,1,125,0.72431492805481,car,car,0,0125_gra_s01_0_car_00_car3.png
subject-01,1,126,0.582221984863281,oven,oven,0,0126_gra_s01_0_oven_00_oven5.png
subject-01,1,127,0.550518989562988,bicycle,bicycle,0,0127_gra_s01_0_bicycle_00_bicycle9.png
subject-01,1,128,0.971014022827148,clock,clock,0,0128_gra_s01_0_clock_00_clock2.png
subject-01,1,129,1.03140687942505,bear,bear,0,0129_gra_s01_0_bear_00_bear8.png
subject-01,1,130,0.592129945755005,bottle,bottle,0,0130_gra_s01_0_bottle_00_bottle1.png
subject-01,1,131,0.658036947250366,knife,knife,0,0131_gra_s01_0_knife_00_knife5.png
subject-01,1,132,1.05406999588013,elephant,elephant,0,0132_gra_s01_0_elephant_00_elephant6.png
subject-01,1,133,1.16018486022949,keyboard,keyboard,0,0133_gra_s01_0_keyboard_00_keyboard2.png
subject-01,1,134,1.096431016922,chair,chair,0,0134_gra_s01_0_chair_00_chair6.png
subject-01,1,135,0.66241192817688,knife,knife,0,0135_gra_s01_0_knife_00_knife8.png
subject-01,1,136,1.02303099632263,knife,knife,0,0136_gra_s01_0_knife_00_knife6.png
subject-01,1,137,0.645518064498901,cat,cat,0,0137_gra_s01_0_cat_00_cat2.png
subject-01,1,138,0.798391103744507,bird,bird,0,0138_gra_s01_0_bird_00_bird10.png
subject-01,1,139,0.742835998535156,cat,cat,0,0139_gra_s01_0_cat_00_cat4.png
subject-01,1,140,0.778984069824219,truck,truck,0,0140_gra_s01_0_truck_00_truck6.png
subject-01,1,141,0.531623125076294,chair,chair,0,0141_gra_s01_0_chair_00_chair3.png
subject-01,1,142,0.56016993522644,clock,clock,0,0142_gra_s01_0_clock_00_clock3.png
subject-01,1,143,1.0747230052948,dog,dog,0,0143_gra_s01_0_dog_00_dog3.png
subject-01,1,144,0.924559116363525,truck,truck,0,0144_gra_s01_0_truck_00_truck3.png
subject-01,1,145,1.06084990501404,bear,bear,0,0145_gra_s01_0_bear_00_bear4.png
subject-01,1,146,1.41359496116638,airplane,airplane,0,0146_gra_s01_0_airplane_00_airplane10.png
subject-01,1,147,0.644098997116089,bottle,bottle,0,0147_gra_s01_0_bottle_00_bottle7.png
subject-01,1,148,1.04842185974121,dog,dog,0,0148_gra_s01_0_dog_00_dog1.png
subject-01,1,149,0.993461847305298,dog,dog,0,0149_gra_s01_0_dog_00_dog9.png
subject-01,1,150,0.869409084320068,car,car,0,0150_gra_s01_0_car_00_car7.png
subject-01,1,151,0.781799077987671,truck,truck,0,0151_gra_s01_0_truck_00_truck1.png
subject-01,1,152,1.41000890731812,bottle,bottle,0,0152_gra_s01_0_bottle_00_bottle5.png
subject-01,1,153,0.764501094818115,truck,truck,0,0153_gra_s01_0_truck_00_truck10.png
subject-01,1,154,0.776640892028809,keyboard,keyboard,0,0154_gra_s01_0_keyboard_00_keyboard1.png
subject-01,1,155,0.5834641456604,truck,truck,0,0155_gra_s01_0_truck_00_truck7.png
subject-01,1,156,0.719300985336304,chair,chair,0,0156_gra_s01_0_chair_00_chair4.png
subject-01,1,157,0.625895977020264,clock,clock,0,0157_gra_s01_0_clock_00_clock6.png
subject-01,1,158,0.774595022201538,knife,knife,0,0158_gra_s01_0_knife_00_knife10.png
subject-01,1,159,0.711160182952881,bottle,bottle,0,0159_gra_s01_0_bottle_00_bottle9.png
subject-01,1,160,1.43196797370911,bicycle,bicycle,0,0160_gra_s01_0_bicycle_00_bicycle1.png
