subj,session,trial,rt,object_response,category,condition,imagename
subject-01,1,1,0.868942022323608,knife,oven,0,0001_edg_s01_0_oven_00_oven10.png
subject-01,1,2,0.89514684677124,knife,airplane,0,0002_edg_s01_0_airplane_00_airplane4.png
subject-01,1,3,0.909301042556763,elephant,elephant,0,0003_edg_s01_0_elephant_00_elephant10.png
subject-01,1,4,0.944024085998535,elephant,dog,0,0004_edg_s01_0_dog_00_dog2.png
subject-01,1,5,0.750272989273071,elephant,elephant,0,0005_edg_s01_0_elephant_00_elephant8.png
subject-01,1,6,0.792999982833862,airplane,airplane,0,0006_edg_s01_0_airplane_00_airplane7.png
subject-01,1,7,0.766915082931519,keyboard,keyboard,0,0007_edg_s01_0_keyboard_00_keyboard7.png
subject-01,1,8,0.811074018478394,cat,bear,0,0008_edg_s01_0_bear_00_bear1.png
subject-01,1,9,0.823776960372925,dog,bear,0,0009_edg_s01_0_bear_00_bear4.png
subject-01,1,10,0.828184843063354,keyboard,keyboard,0,0010_edg_s01_0_keyboard_00_keyboard9.png
subject-01,1,11,0.888611078262329,bottle,bottle,0,0011_edg_s01_0_bottle_00_bottle9.png
subject-01,1,12,0.985419034957886,keyboard,keyboard,0,0012_edg_s01_0_keyboard_00_keyboard1.png
subject-01,1,13,0.759554147720337,chair,chair,0,0013_edg_s01_0_chair_00_chair2.png
subject-01,1,14,0.842426061630249,cat,cat,0,0014_edg_s01_0_cat_00_cat2.png
subject-01,1,15,0.786988973617554,bird,bird,0,0015_edg_s01_0_bird_00_bird10.png
subject-01,1,16,1.07497406005859,truck,truck,0,0016_edg_s01_0_truck_00_truck3.png
subject-01,1,17,0.90558385848999,chair,chair,0,0017_edg_s01_0_chair_00_chair10.png
subject-01,1,18,0.618252992630005,bicycle,bicycle,0,0018_edg_s01_0_bicycle_00_bicycle10.png
subject-01,1,19,0.738729953765869,chair,chair,0,0019_edg_s01_0_chair_00_chair9.png
subject-01,1,20,0.713274002075195,knife,knife,0,0020_edg_s01_0_knife_00_knife1.png
subject-01,1,21,0.749482870101929,knife,knife,0,0021_edg_s01_0_knife_00_knife5.png
subject-01,1,22,0.978382110595703,bird,bird,0,0022_edg_s01_0_bird_00_bird6.png
subject-01,1,23,0.744482040405273,bottle,bottle,0,0023_edg_s01_0_bottle_00_bottle8.png
subject-01,1,24,0.786980867385864,oven,oven,0,0024_edg_s01_0_oven_00_oven4.png
subject-01,1,25,0.763653039932251,chair,chair,0,0025_edg_s01_0_chair_00_chair6.png
subject-01,1,26,0.775986909866333,elephant,bear,0,0026_edg_s01_0_bear_00_bear9.png
subject-01,1,27,1.4784369468689,car,truck,0,0027_edg_s01_0_truck_00_truck4.png
subject-01,1,28,0.716948986053467,clock,clock,0,0028_edg_s01_0_clock_00_clock6.png
subject-01,1,29,0.613426923751831,airplane,airplane,0,0029_edg_s01_0_airplane_00_airplane8.png
subject-01,1,30,0.587538957595825,boat,boat,0,0030_edg_s01_0_boat_00_boat3.png
subject-01,1,31,0.732280015945435,knife,knife,0,0031_edg_s01_0_knife_00_knife3.png
subject-01,1,32,0.622852087020874,knife,knife,0,0032_edg_s01_0_knife_00_knife9.png
subject-01,1,33,0.681210041046143,car,car,0,0033_edg_s01_0_car_00_car5.png
subject-01,1,34,0.801738023757935,elephant,elephant,0,0034_edg_s01_0_elephant_00_elephant9.png
subject-01,1,35,0.860278129577637,cat,cat,0,0035_edg_s01_0_cat_00_cat3.png
subject-01,1,36,0.696715116500854,keyboard,oven,0,0036_edg_s01_0_oven_00_oven1.png
subject-01,1,37,0.709243059158325,clock,clock,0,0037_edg_s01_0_clock_00_clock1.png
subject-01,1,38,0.531950950622559,car,car,0,0038_edg_s01_0_car_00_car10.png
subject-01,1,39,0.79033899307251,cat,bear,0,0039_edg_s01_0_bear_00_bear5.png
subject-01,1,40,0.672852993011475,bottle,bottle,0,0040_edg_s01_0_bottle_00_bottle1.png
subject-01,1,41,0.931134223937988,bird,elephant,0,0041_edg_s01_0_elephant_00_elephant4.png
subject-01,1,42,0.605751991271973,clock,clock,0,0042_edg_s01_0_clock_00_clock2.png
subject-01,1,43,0.672147989273071,knife,knife,0,0043_edg_s01_0_knife_00_knife2.png
subject-01,1,44,0.792722940444946,bear,bear,0,0044_edg_s01_0_bear_00_bear10.png
subject-01,1,45,0.812970161437988,boat,boat,0,0045_edg_s01_0_boat_00_boat5.png
subject-01,1,46,0.711134910583496,chair,chair,0,0046_edg_s01_0_chair_00_chair3.png
subject-01,1,47,0.832145214080811,car,car,0,0047_edg_s01_0_car_00_car3.png
subject-01,1,48,0.944348096847534,car,car,0,0048_edg_s01_0_car_00_car4.png
subject-01,1,49,0.980731964111328,elephant,elephant,0,0049_edg_s01_0_elephant_00_elephant5.png
subject-01,1,50,0.88530707359314,elephant,elephant,0,0050_edg_s01_0_elephant_00_elephant2.png
subject-01,1,51,1.08985304832458,dog,dog,0,0051_edg_s01_0_dog_00_dog8.png
subject-01,1,52,0.880375862121582,dog,dog,0,0052_edg_s01_0_dog_00_dog6.png
subject-01,1,53,0.724855899810791,boat,boat,0,0053_edg_s01_0_boat_00_boat2.png
subject-01,1,54,1.01508593559265,dog,dog,0,0054_edg_s01_0_dog_00_dog3.png
subject-01,1,55,0.689661979675293,knife,knife,0,0055_edg_s01_0_knife_00_knife10.png
subject-01,1,56,0.826428890228271,chair,chair,0,0056_edg_s01_0_chair_00_chair1.png
subject-01,1,57,0.716738939285278,bird,bird,0,0057_edg_s01_0_bird_00_bird3.png
subject-01,1,58,0.705097913742065,oven,oven,0,0058_edg_s01_0_oven_00_oven5.png
subject-01,1,59,0.826223134994507,oven,oven,0,0059_edg_s01_0_oven_00_oven3.png
subject-01,1,60,1.01632714271545,cat,bird,0,0060_edg_s01_0_bird_00_bird2.png
subject-01,1,61,0.844973802566528,oven,oven,0,0061_edg_s01_0_oven_00_oven2.png
subject-01,1,62,0.77352499961853,dog,dog,0,0062_edg_s01_0_dog_00_dog10.png
subject-01,1,63,0.79410195350647,chair,chair,0,0063_edg_s01_0_chair_00_chair5.png
subject-01,1,64,1.50015497207642,car,car,0,0064_edg_s01_0_car_00_car8.png
subject-01,1,65,0.712733030319214,cat,cat,0,0065_edg_s01_0_cat_00_cat1.png
subject-01,1,66,0.75763201713562,bird,airplane,0,0066_edg_s01_0_airplane_00_airplane2.png
subject-01,1,67,0.685911893844604,chair,chair,0,0067_edg_s01_0_chair_00_chair8.png
subject-01,1,68,0.744688034057617,knife,knife,0,0068_edg_s01_0_knife_00_knife7.png
subject-01,1,69,0.711121082305908,cat,cat,0,0069_edg_s01_0_cat_00_cat8.png
subject-01,1,70,0.747575044631958,dog,dog,0,0070_edg_s01_0_dog_00_dog7.png
subject-01,1,71,1.01406717300415,clock,clock,0,0071_edg_s01_0_clock_00_clock10.png
subject-01,1,72,0.642427921295166,cat,cat,0,0072_edg_s01_0_cat_00_cat9.png
subject-01,1,73,0.78681206703186,dog,dog,0,0073_edg_s01_0_dog_00_dog1.png
subject-01,1,74,0.685657978057861,boat,boat,0,0074_edg_s01_0_boat_00_boat10.png
subject-01,1,75,0.735974788665771,knife,knife,0,0075_edg_s01_0_knife_00_knife6.png
subject-01,1,76,0.764259099960327,clock,clock,0,0076_edg_s01_0_clock_00_clock7.png
subject-01,1,77,0.700377941131592,bird,bird,0,0077_edg_s01_0_bird_00_bird9.png
subject-01,1,78,0.629133939743042,cat,cat,0,0078_edg_s01_0_cat_00_cat10.png
subject-01,1,79,0.74962592124939,keyboard,keyboard,0,0079_edg_s01_0_keyboard_00_keyboard8.png
subject-01,1,80,0.915961980819702,bear,bear,0,0080_edg_s01_0_bear_00_bear2.png
subject-01,1,81,0.770950078964233,airplane,airplane,0,0081_edg_s01_0_airplane_00_airplane5.png
subject-01,1,82,0.77758002281189,boat,boat,0,0082_edg_s01_0_boat_00_boat1.png
subject-01,1,83,0.590059041976929,car,car,0,0083_edg_s01_0_car_00_car6.png
subject-01,1,84,0.680917024612427,bird,bird,0,0084_edg_s01_0_bird_00_bird1.png
subject-01,1,85,0.685504913330078,dog,dog,0,0085_edg_s01_0_dog_00_dog4.png
subject-01,1,86,0.75913405418396,keyboard,keyboard,0,0086_edg_s01_0_keyboard_00_keyboard4.png
subject-01,1,87,0.879647016525269,airplane,airplane,0,0087_edg_s01_0_airplane_00_airplane1.png
subject-01,1,88,0.694363832473755,cat,cat,0,0088_edg_s01_0_cat_00_cat7.png
subject-01,1,89,0.828752994537354,truck,truck,0,0089_edg_s01_0_truck_00_truck2.png
subject-01,1,90,0.857172966003418,bottle,bottle,0,0090_edg_s01_0_bottle_00_bottle6.png
subject-01,1,91,0.855572938919067,cat,cat,0,0091_edg_s01_0_cat_00_cat6.png
subject-01,1,92,0.891711950302124,boat,boat,0,0092_edg_s01_0_boat_00_boat4.png
subject-01,1,93,0.812580823898315,cat,cat,0,0093_edg_s01_0_cat_00_cat4.png
subject-01,1,94,0.786870956420898,bicycle,bicycle,0,0094_edg_s01_0_bicycle_00_bicycle9.png
subject-01,1,95,0.877267837524414,keyboard,keyboard,0,0095_edg_s01_0_keyboard_00_keyboard3.png
subject-01,1,96,0.575813055038452,boat,boat,0,0096_edg_s01_0_boat_00_boat7.png
subject-01,1,97,0.634093999862671,knife,knife,0,0097_edg_s01_0_knife_00_knife4.png
subject-01,1,98,0.776579141616821,bottle,bottle,0,0098_edg_s01_0_bottle_00_bottle3.png
subject-01,1,99,0.75899600982666,airplane,airplane,0,0099_edg_s01_0_airplane_00_airplane9.png
subject-01,1,100,0.649627923965454,clock,clock,0,0100_edg_s01_0_clock_00_clock9.png
subject-01,1,101,0.578180074691772,boat,boat,0,0101_edg_s01_0_boat_00_boat6.png
subject-01,1,102,0.606423854827881,truck,truck,0,0102_edg_s01_0_truck_00_truck8.png
subject-01,1,103,0.59700083732605,truck,truck,0,0103_edg_s01_0_truck_00_truck5.png
subject-01,1,104,0.639436006546021,bicycle,bicycle,0,0104_edg_s01_0_bicycle_00_bicycle6.png
subject-01,1,105,0.500180959701538,bicycle,bicycle,0,0105_edg_s01_0_bicycle_00_bicycle1.png
subject-01,1,106,0.812479972839355,truck,truck,0,0106_edg_s01_0_truck_00_truck7.png
subject-01,1,107,0.708930015563965,clock,clock,0,0107_edg_s01_0_clock_00_clock3.png
subject-01,1,108,0.607402801513672,clock,clock,0,0108_edg_s01_0_clock_00_clock5.png
subject-01,1,109,0.67402195930481,bottle,bottle,0,0109_edg_s01_0_bottle_00_bottle10.png
subject-01,1,110,0.648463010787964,bicycle,bicycle,0,0110_edg_s01_0_bicycle_00_bicycle3.png
subject-01,1,111,0.685099124908447,bird,bird,0,0111_edg_s01_0_bird_00_bird5.png
subject-01,1,112,0.651485919952393,car,car,0,0112_edg_s01_0_car_00_car2.png
subject-01,1,113,0.749644994735718,keyboard,keyboard,0,0113_edg_s01_0_keyboard_00_keyboard10.png
subject-01,1,114,0.70020580291748,car,truck,0,0114_edg_s01_0_truck_00_truck6.png
subject-01,1,115,0.652590036392212,car,car,0,0115_edg_s01_0_car_00_car7.png
subject-01,1,116,0.642897844314575,clock,clock,0,0116_edg_s01_0_clock_00_clock8.png
subject-01,1,117,0.801503896713257,keyboard,keyboard,0,0117_edg_s01_0_keyboard_00_keyboard5.png
subject-01,1,118,0.622013092041016,bicycle,bicycle,0,0118_edg_s01_0_bicycle_00_bicycle7.png
subject-01,1,119,0.674582004547119,bicycle,bicycle,0,0119_edg_s01_0_bicycle_00_bicycle2.png
subject-01,1,120,0.633110046386719,airplane,airplane,0,0120_edg_s01_0_airplane_00_airplane3.png
subject-01,1,121,0.60774302482605,boat,boat,0,0121_edg_s01_0_boat_00_boat9.png
subject-01,1,122,0.720004796981812,airplane,airplane,0,0122_edg_s01_0_airplane_00_airplane10.png
subject-01,1,123,0.681326150894165,bottle,bottle,0,0123_edg_s01_0_bottle_00_bottle2.png
subject-01,1,124,0.776140928268433,elephant,elephant,0,0124_edg_s01_0_elephant_00_elephant3.png
subject-01,1,125,0.896424055099487,keyboard,keyboard,0,0125_edg_s01_0_keyboard_00_keyboard6.png
subject-01,1,126,1.23908090591431,chair,chair,0,0126_edg_s01_0_chair_00_chair7.png
subject-01,1,127,1.03779101371765,chair,oven,0,0127_edg_s01_0_oven_00_oven6.png
subject-01,1,128,0.820153951644897,cat,bear,0,0128_edg_s01_0_bear_00_bear3.png
subject-01,1,129,0.610652923583984,bird,bird,0,0129_edg_s01_0_bird_00_bird8.png
subject-01,1,130,0.768971920013428,dog,dog,0,0130_edg_s01_0_dog_00_dog9.png
subject-01,1,131,0.911774158477783,elephant,elephant,0,0131_edg_s01_0_elephant_00_elephant7.png
subject-01,1,132,1.18594193458557,bear,bear,0,0132_edg_s01_0_bear_00_bear7.png
subject-01,1,133,0.692351102828979,bottle,bottle,0,0133_edg_s01_0_bottle_00_bottle5.png
subject-01,1,134,0.734639167785645,bird,bird,0,0134_edg_s01_0_bird_00_bird4.png
subject-01,1,135,0.75534200668335,truck,truck,0,0135_edg_s01_0_truck_00_truck10.png
subject-01,1,136,1.10638213157654,cat,cat,0,0136_edg_s01_0_cat_00_cat5.png
subject-01,1,137,0.80431079864502,cat,bear,0,0137_edg_s01_0_bear_00_bear8.png
subject-01,1,138,0.856662034988403,truck,truck,0,0138_edg_s01_0_truck_00_truck9.png
subject-01,1,139,0.623335838317871,car,car,0,0139_edg_s01_0_car_00_car9.png
subject-01,1,140,0.843784093856812,oven,oven,0,0140_edg_s01_0_oven_00_oven8.png
subject-01,1,141,0.680179119110107,oven,oven,0,0141_edg_s01_0_oven_00_oven7.png
subject-01,1,142,0.61669397354126,bottle,bottle,0,0142_edg_s01_0_bottle_00_bottle4.png
subject-01,1,143,0.62891697883606,bicycle,bicycle,0,0143_edg_s01_0_bicycle_00_bicycle4.png
subject-01,1,144,0.741451025009155,boat,boat,0,0144_edg_s01_0_boat_00_boat8.png
subject-01,1,145,0.740153074264526,bicycle,bicycle,0,0145_edg_s01_0_bicycle_00_bicycle5.png
subject-01,1,146,0.544520854949951,airplane,airplane,0,0146_edg_s01_0_airplane_00_airplane6.png
subject-01,1,147,0.751081943511963,knife,knife,0,0147_edg_s01_0_knife_00_knife8.png
subject-01,1,148,0.863586902618408,elephant,elephant,0,0148_edg_s01_0_elephant_00_elephant6.png
subject-01,1,149,0.667907953262329,truck,truck,0,0149_edg_s01_0_truck_00_truck1.png
subject-01,1,150,0.726258993148804,chair,chair,0,0150_edg_s01_0_chair_00_chair4.png
subject-01,1,151,0.884603977203369,bicycle,bicycle,0,0151_edg_s01_0_bicycle_00_bicycle8.png
subject-01,1,152,0.75108003616333,clock,clock,0,0152_edg_s01_0_clock_00_clock4.png
subject-01,1,153,1.42589902877808,car,car,0,0153_edg_s01_0_car_00_car1.png
subject-01,1,154,0.846453905105591,bird,bird,0,0154_edg_s01_0_bird_00_bird7.png
subject-01,1,155,0.744735956192017,elephant,elephant,0,0155_edg_s01_0_elephant_00_elephant1.png
subject-01,1,156,0.73313307762146,keyboard,keyboard,0,0156_edg_s01_0_keyboard_00_keyboard2.png
subject-01,1,157,0.737921953201294,dog,dog,0,0157_edg_s01_0_dog_00_dog5.png
subject-01,1,158,0.644273996353149,oven,oven,0,0158_edg_s01_0_oven_00_oven9.png
subject-01,1,159,0.664875984191895,bird,bear,0,0159_edg_s01_0_bear_00_bear6.png
subject-01,1,160,0.568998098373413,bottle,bottle,0,0160_edg_s01_0_bottle_00_bottle7.png
