subj,session,trial,rt,object_response,category,condition,imagename
subject-01,1,1,0.833879947662354,bottle,bottle,false,0001_fc_s01_false_bottle_35_n02823428_4043.png
subject-01,1,2,0.811932802200317,elephant,elephant,true,0002_fc_s01_true_elephant_35_n02504013_2558.png
subject-01,1,3,0.874742984771729,oven,oven,false,0003_fc_s01_false_oven_35_n04111531_688.png
subject-01,1,4,1.03712010383606,truck,truck,true,0004_fc_s01_true_truck_35_n04467665_54079.png
subject-01,1,5,0.591323137283325,boat,boat,false,0005_fc_s01_false_boat_35_n03662601_32803.png
subject-01,1,6,0.99393892288208,bear,bear,true,0006_fc_s01_true_bear_35_n02132136_11640.png
subject-01,1,7,0.786384105682373,elephant,elephant,false,0007_fc_s01_false_elephant_35_n02504013_1720.png
subject-01,1,8,0.772634029388428,bicycle,bicycle,true,0008_fc_s01_true_bicycle_35_n03792782_47426.png
subject-01,1,9,1.50005102157593,oven,keyboard,false,0009_fc_s01_false_keyboard_35_n03085013_23865.png
subject-01,1,10,0.565661907196045,oven,oven,false,0010_fc_s01_false_oven_35_n04111531_11230.png
subject-01,1,11,0.774075984954834,car,car,true,0011_fc_s01_true_car_35_n04285008_16701.png
subject-01,1,12,0.828804016113281,bicycle,bicycle,true,0012_fc_s01_true_bicycle_35_n02835271_4446.png
subject-01,1,13,0.661147832870483,cat,cat,true,0013_fc_s01_true_cat_35_n02123597_6291.png
subject-01,1,14,0.847821950912476,bird,bird,true,0014_fc_s01_true_bird_35_n02037110_4043.png
subject-01,1,15,0.832405090332031,keyboard,keyboard,true,0015_fc_s01_true_keyboard_35_n03085013_19916.png
subject-01,1,16,0.694678068161011,keyboard,keyboard,true,0016_fc_s01_true_keyboard_35_n04505470_489.png
subject-01,1,17,0.843230962753296,clock,clock,true,0017_fc_s01_true_clock_35_n04548280_3303.png
subject-01,1,18,0.975696086883545,cat,cat,true,0018_fc_s01_true_cat_35_n02125311_8541.png
subject-01,1,19,NaN,na,boat,true,0019_fc_s01_true_boat_35_n03344393_4496.png
subject-01,1,20,0.884850978851318,oven,oven,false,0020_fc_s01_false_oven_35_n04111531_4998.png
subject-01,1,21,0.647051095962524,cat,cat,false,0021_fc_s01_false_cat_35_n02123045_7167.png
subject-01,1,22,0.579185962677002,clock,clock,true,0022_fc_s01_true_clock_35_n04548280_3245.png
subject-01,1,23,0.796069860458374,keyboard,keyboard,false,0023_fc_s01_false_keyboard_35_n04505470_4873.png
subject-01,1,24,0.774435997009277,clock,clock,false,0024_fc_s01_false_clock_35_n04548280_7872.png
subject-01,1,25,1.36099982261658,airplane,boat,false,0025_fc_s01_false_boat_35_n04273569_16295.png
subject-01,1,26,0.81521201133728,truck,truck,true,0026_fc_s01_true_truck_35_n03796401_3695.png
subject-01,1,27,0.70000696182251,car,car,false,0027_fc_s01_false_car_35_n02814533_4885.png
subject-01,1,28,0.740571022033691,chair,chair,true,0028_fc_s01_true_chair_35_n02791124_2150.png
subject-01,1,29,1.35672903060913,dog,dog,false,0029_fc_s01_false_dog_35_n02113712_913.png
subject-01,1,30,0.795851945877075,knife,knife,false,0030_fc_s01_false_knife_35_n03041632_51225.png
subject-01,1,31,0.828161954879761,bottle,bottle,false,0031_fc_s01_false_bottle_35_n04579145_6435.png
subject-01,1,32,0.836480140686035,cat,cat,true,0032_fc_s01_true_cat_35_n02123394_5001.png
subject-01,1,33,0.752831220626831,airplane,airplane,true,0033_fc_s01_true_airplane_35_n02690373_2068.png
subject-01,1,34,0.73149299621582,clock,clock,true,0034_fc_s01_true_clock_35_n03196217_11252.png
subject-01,1,35,0.577564001083374,cat,keyboard,true,0035_fc_s01_true_keyboard_35_n03085013_22187.png
subject-01,1,36,0.877881050109863,dog,dog,false,0036_fc_s01_false_dog_35_n02106166_16884.png
subject-01,1,37,1.01816320419312,car,car,false,0037_fc_s01_false_car_35_n03100240_18646.png
subject-01,1,38,0.788516998291016,bicycle,bicycle,true,0038_fc_s01_true_bicycle_35_n02835271_12237.png
subject-01,1,39,0.667340993881226,boat,boat,true,0039_fc_s01_true_boat_35_n04273569_709.png
subject-01,1,40,0.808024883270264,bird,bird,true,0040_fc_s01_true_bird_35_n02027492_4976.png
subject-01,1,41,0.684206962585449,clock,clock,false,0041_fc_s01_false_clock_35_n03196217_3050.png
subject-01,1,42,0.554401874542236,oven,knife,true,0042_fc_s01_true_knife_35_n03041632_30286.png
subject-01,1,43,0.564871072769165,airplane,airplane,false,0043_fc_s01_false_airplane_35_n02690373_1442.png
subject-01,1,44,0.832983016967773,car,car,true,0044_fc_s01_true_car_35_n03100240_9497.png
subject-01,1,45,0.719313144683838,airplane,airplane,false,0045_fc_s01_false_airplane_35_n02690373_13585.png
subject-01,1,46,0.619800090789795,bottle,bottle,true,0046_fc_s01_true_bottle_35_n04557648_5458.png
subject-01,1,47,0.714409828186035,boat,boat,false,0047_fc_s01_false_boat_35_n03344393_1595.png
subject-01,1,48,0.968771934509277,dog,dog,true,0048_fc_s01_true_dog_35_n02091831_7969.png
subject-01,1,49,0.831490993499756,bottle,bottle,false,0049_fc_s01_false_bottle_35_n04560804_564.png
subject-01,1,50,0.787987947463989,bird,bird,true,0050_fc_s01_true_bird_35_n02013706_7132.png
subject-01,1,51,0.756387948989868,truck,truck,true,0051_fc_s01_true_truck_35_n04467665_22051.png
subject-01,1,52,0.796144962310791,keyboard,keyboard,true,0052_fc_s01_true_keyboard_35_n04505470_3234.png
subject-01,1,53,1.03469109535217,truck,truck,true,0053_fc_s01_true_truck_35_n04467665_43410.png
subject-01,1,54,0.759190797805786,airplane,airplane,true,0054_fc_s01_true_airplane_35_n02690373_599.png
subject-01,1,55,0.707816123962402,bicycle,bicycle,false,0055_fc_s01_false_bicycle_35_n03792782_51723.png
subject-01,1,56,0.762417078018188,dog,dog,true,0056_fc_s01_true_dog_35_n02107908_8344.png
subject-01,1,57,1.20289206504822,cat,cat,false,0057_fc_s01_false_cat_35_n02125311_41249.png
subject-01,1,58,1.21118807792664,bird,chair,false,0058_fc_s01_false_chair_35_n04099969_16350.png
subject-01,1,59,0.88958215713501,dog,dog,true,0059_fc_s01_true_dog_35_n02090379_4918.png
subject-01,1,60,0.7204749584198,chair,chair,true,0060_fc_s01_true_chair_35_n04099969_9745.png
subject-01,1,61,0.760842084884644,boat,boat,false,0061_fc_s01_false_boat_35_n04273569_9873.png
subject-01,1,62,0.785192012786865,elephant,bear,true,0062_fc_s01_true_bear_35_n02133161_6448.png
subject-01,1,63,0.663597822189331,bird,bird,true,0063_fc_s01_true_bird_35_n01855672_13403.png
subject-01,1,64,0.702046155929565,oven,knife,false,0064_fc_s01_false_knife_35_n03041632_11326.png
subject-01,1,65,1.08062791824341,bottle,bottle,false,0065_fc_s01_false_bottle_35_n04560804_10411.png
subject-01,1,66,0.772547006607056,keyboard,keyboard,false,0066_fc_s01_false_keyboard_35_n04505470_5086.png
subject-01,1,67,0.829071044921875,car,car,true,0067_fc_s01_true_car_35_n04285008_15049.png
subject-01,1,68,0.775443077087402,bicycle,bicycle,true,0068_fc_s01_true_bicycle_35_n02835271_5648.png
subject-01,1,69,0.707928895950317,clock,clock,false,0069_fc_s01_false_clock_35_n02708093_1684.png
subject-01,1,70,0.924467086791992,bicycle,bicycle,false,0070_fc_s01_false_bicycle_35_n02835271_14157.png
subject-01,1,71,1.27099609375,bear,bear,true,0071_fc_s01_true_bear_35_n02134418_830.png
subject-01,1,72,0.757354021072388,bear,bear,true,0072_fc_s01_true_bear_35_n02134418_379.png
subject-01,1,73,0.949816942214966,elephant,elephant,false,0073_fc_s01_false_elephant_35_n02504458_8060.png
subject-01,1,74,1.31226801872253,bottle,knife,false,0074_fc_s01_false_knife_35_n03041632_13742.png
subject-01,1,75,0.668655872344971,elephant,elephant,false,0075_fc_s01_false_elephant_35_n02504458_5191.png
subject-01,1,76,0.653191089630127,bicycle,bicycle,true,0076_fc_s01_true_bicycle_35_n02835271_31.png
subject-01,1,77,0.647879123687744,airplane,airplane,true,0077_fc_s01_true_airplane_35_n02690373_5003.png
subject-01,1,78,1.18632388114929,bicycle,bottle,false,0078_fc_s01_false_bottle_35_n04557648_2063.png
subject-01,1,79,0.764532089233398,clock,clock,false,0079_fc_s01_false_clock_35_n04548280_2291.png
subject-01,1,80,1.08122205734253,bicycle,knife,true,0080_fc_s01_true_knife_35_n03041632_98864.png
subject-01,1,81,0.843575954437256,bicycle,bicycle,true,0081_fc_s01_true_bicycle_35_n02835271_3042.png
subject-01,1,82,1.12229800224304,dog,dog,false,0082_fc_s01_false_dog_35_n02097130_2470.png
subject-01,1,83,0.816898107528687,clock,clock,false,0083_fc_s01_false_clock_35_n04548280_1022.png
subject-01,1,84,1.14124989509583,knife,knife,true,0084_fc_s01_true_knife_35_n03041632_1143.png
subject-01,1,85,0.563747882843018,cat,cat,true,0085_fc_s01_true_cat_35_n02123159_8144.png
subject-01,1,86,1.11213612556458,truck,truck,true,0086_fc_s01_true_truck_35_n03796401_7380.png
subject-01,1,87,0.728875875473022,chair,chair,true,0087_fc_s01_true_chair_35_n02791124_1376.png
subject-01,1,88,0.807040929794312,bottle,bottle,true,0088_fc_s01_true_bottle_35_n02823428_10612.png
subject-01,1,89,1.16716909408569,bottle,bottle,false,0089_fc_s01_false_bottle_35_n04591713_5599.png
subject-01,1,90,0.691786050796509,chair,chair,true,0090_fc_s01_true_chair_35_n03376595_1273.png
subject-01,1,91,1.40851402282715,cat,cat,true,0091_fc_s01_true_cat_35_n02124075_5067.png
subject-01,1,92,1.02468395233154,truck,truck,true,0092_fc_s01_true_truck_35_n03796401_6980.png
subject-01,1,93,1.16553807258606,boat,boat,false,0093_fc_s01_false_boat_35_n02951358_26227.png
subject-01,1,94,0.597661018371582,clock,clock,false,0094_fc_s01_false_clock_35_n04548280_3994.png
subject-01,1,95,0.690155029296875,bear,bear,false,0095_fc_s01_false_bear_35_n02134418_4364.png
subject-01,1,96,0.692927122116089,car,car,true,0096_fc_s01_true_car_35_n04285008_5440.png
subject-01,1,97,0.793287038803101,airplane,airplane,false,0097_fc_s01_false_airplane_35_n02690373_3821.png
subject-01,1,98,1.0637731552124,dog,dog,true,0098_fc_s01_true_dog_35_n02113023_6956.png
subject-01,1,99,0.564337968826294,clock,clock,true,0099_fc_s01_true_clock_35_n04548280_5408.png
subject-01,1,100,1.37303185462952,car,car,false,0100_fc_s01_false_car_35_n04285008_9383.png
subject-01,1,101,0.697367906570435,bicycle,bicycle,true,0101_fc_s01_true_bicycle_35_n02835271_19552.png
subject-01,1,102,1.15178799629211,oven,oven,true,0102_fc_s01_true_oven_35_n04111531_17809.png
subject-01,1,103,NaN,na,keyboard,false,0103_fc_s01_false_keyboard_35_n03085013_21127.png
subject-01,1,104,0.554651021957397,oven,oven,true,0104_fc_s01_true_oven_35_n04111531_20056.png
subject-01,1,105,0.591331005096436,airplane,airplane,true,0105_fc_s01_true_airplane_35_n02690373_10926.png
subject-01,1,106,0.831729173660278,knife,knife,true,0106_fc_s01_true_knife_35_n03041632_48149.png
subject-01,1,107,0.785993814468384,car,car,true,0107_fc_s01_true_car_35_n02814533_34396.png
subject-01,1,108,0.670156002044678,elephant,elephant,false,0108_fc_s01_false_elephant_35_n02504013_2672.png
subject-01,1,109,0.772387027740479,bicycle,bicycle,true,0109_fc_s01_true_bicycle_35_n02835271_14225.png
subject-01,1,110,0.81119704246521,knife,knife,true,0110_fc_s01_true_knife_35_n03041632_29337.png
subject-01,1,111,0.981765031814575,cat,cat,true,0111_fc_s01_true_cat_35_n02123159_3092.png
subject-01,1,112,0.636023044586182,bird,bird,true,0112_fc_s01_true_bird_35_n01829413_282.png
subject-01,1,113,0.952636003494263,car,truck,false,0113_fc_s01_false_truck_35_n03417042_12908.png
subject-01,1,114,0.647130012512207,airplane,airplane,true,0114_fc_s01_true_airplane_35_n02690373_5130.png
subject-01,1,115,0.62549090385437,clock,clock,true,0115_fc_s01_true_clock_35_n03196217_3430.png
subject-01,1,116,0.857944011688232,knife,knife,true,0116_fc_s01_true_knife_35_n03041632_24817.png
subject-01,1,117,0.74261999130249,keyboard,keyboard,false,0117_fc_s01_false_keyboard_35_n04505470_2868.png
subject-01,1,118,0.721166133880615,keyboard,clock,false,0118_fc_s01_false_clock_35_n02708093_260.png
subject-01,1,119,0.699376106262207,airplane,airplane,true,0119_fc_s01_true_airplane_35_n02690373_1615.png
subject-01,1,120,0.915795087814331,knife,knife,false,0120_fc_s01_false_knife_35_n03041632_37949.png
subject-01,1,121,0.816556930541992,oven,oven,true,0121_fc_s01_true_oven_35_n04111531_12820.png
subject-01,1,122,0.902940034866333,car,car,false,0122_fc_s01_false_car_35_n03100240_13908.png
subject-01,1,123,0.919054985046387,bottle,bottle,true,0123_fc_s01_true_bottle_35_n04557648_10123.png
subject-01,1,124,0.7275710105896,bird,bird,false,0124_fc_s01_false_bird_35_n01532829_10530.png
subject-01,1,125,0.744404077529907,bear,bear,true,0125_fc_s01_true_bear_35_n02133161_10632.png
subject-01,1,126,1.23071193695068,bicycle,bicycle,true,0126_fc_s01_true_bicycle_35_n03792782_2057.png
subject-01,1,127,0.7173171043396,dog,dog,false,0127_fc_s01_false_dog_35_n02086646_8449.png
subject-01,1,128,0.725686073303223,elephant,elephant,false,0128_fc_s01_false_elephant_35_n02504458_9049.png
subject-01,1,129,0.796435117721558,chair,chair,false,0129_fc_s01_false_chair_35_n02791124_2057.png
subject-01,1,130,0.810746192932129,bear,bear,true,0130_fc_s01_true_bear_35_n02133161_13278.png
subject-01,1,131,0.543353080749512,oven,oven,false,0131_fc_s01_false_oven_35_n04111531_21120.png
subject-01,1,132,0.821776866912842,knife,knife,true,0132_fc_s01_true_knife_35_n03041632_86251.png
subject-01,1,133,0.984221935272217,airplane,airplane,true,0133_fc_s01_true_airplane_35_n02690373_9529.png
subject-01,1,134,0.954879999160767,chair,chair,true,0134_fc_s01_true_chair_35_n03376595_3015.png
subject-01,1,135,1.00910997390747,elephant,elephant,true,0135_fc_s01_true_elephant_35_n02504013_3307.png
subject-01,1,136,0.841663837432861,truck,truck,true,0136_fc_s01_true_truck_35_n03417042_9018.png
subject-01,1,137,1.12796211242676,dog,cat,true,0137_fc_s01_true_cat_35_n02123394_6521.png
subject-01,1,138,0.804767847061157,chair,chair,true,0138_fc_s01_true_chair_35_n03376595_9897.png
subject-01,1,139,0.66869592666626,bicycle,bicycle,false,0139_fc_s01_false_bicycle_35_n03792782_828.png
subject-01,1,140,1.50007200241089,knife,airplane,false,0140_fc_s01_false_airplane_35_n02690373_8770.png
subject-01,1,141,0.831893920898438,bear,bear,false,0141_fc_s01_false_bear_35_n02134084_14260.png
subject-01,1,142,0.880249977111816,truck,truck,false,0142_fc_s01_false_truck_35_n04467665_49656.png
subject-01,1,143,0.672639131546021,keyboard,keyboard,false,0143_fc_s01_false_keyboard_35_n03085013_23287.png
subject-01,1,144,0.629306077957153,clock,clock,true,0144_fc_s01_true_clock_35_n04548280_8942.png
subject-01,1,145,0.699701070785522,chair,chair,false,0145_fc_s01_false_chair_35_n04099969_7718.png
subject-01,1,146,0.638319969177246,chair,chair,true,0146_fc_s01_true_chair_35_n03376595_606.png
subject-01,1,147,0.886629819869995,knife,knife,false,0147_fc_s01_false_knife_35_n03041632_51766.png
subject-01,1,148,0.72528600692749,bear,bear,false,0148_fc_s01_false_bear_35_n02134418_195.png
subject-01,1,149,0.895714044570923,bear,bear,true,0149_fc_s01_true_bear_35_n02134418_6204.png
subject-01,1,150,0.774264812469482,chair,chair,false,0150_fc_s01_false_chair_35_n03376595_120.png
subject-01,1,151,0.674520015716553,bear,bear,true,0151_fc_s01_true_bear_35_n02133161_713.png
subject-01,1,152,1.22326993942261,car,car,true,0152_fc_s01_true_car_35_n03100240_49.png
subject-01,1,153,0.877799034118652,car,car,true,0153_fc_s01_true_car_35_n04285008_10006.png
subject-01,1,154,0.978209972381592,elephant,elephant,true,0154_fc_s01_true_elephant_35_n02504458_5187.png
subject-01,1,155,0.695008039474487,oven,oven,false,0155_fc_s01_false_oven_35_n04111531_8309.png
subject-01,1,156,0.697057962417603,airplane,airplane,true,0156_fc_s01_true_airplane_35_n02690373_10809.png
subject-01,1,157,0.583755970001221,clock,clock,false,0157_fc_s01_false_clock_35_n02708093_5265.png
subject-01,1,158,0.846151828765869,car,car,true,0158_fc_s01_true_car_35_n03100240_7064.png
subject-01,1,159,1.19272899627686,oven,keyboard,true,0159_fc_s01_true_keyboard_35_n03085013_21769.png
subject-01,1,160,0.779488086700439,car,car,false,0160_fc_s01_false_car_35_n04285008_7924.png
subject-01,1,161,0.704977989196777,car,car,true,0161_fc_s01_true_car_35_n03100240_5865.png
subject-01,1,162,0.699384927749634,elephant,elephant,true,0162_fc_s01_true_elephant_35_n02504458_6435.png
subject-01,1,163,0.738284826278687,bird,bird,true,0163_fc_s01_true_bird_35_n01817953_5953.png
subject-01,1,164,0.640737056732178,cat,cat,true,0164_fc_s01_true_cat_35_n02123597_1410.png
subject-01,1,165,0.726860046386719,chair,chair,false,0165_fc_s01_false_chair_35_n04429376_6835.png
subject-01,1,166,0.589662075042725,car,car,true,0166_fc_s01_true_car_35_n04285008_2841.png
subject-01,1,167,1.16819381713867,truck,truck,false,0167_fc_s01_false_truck_35_n04467665_47050.png
subject-01,1,168,1.4658408164978,boat,boat,false,0168_fc_s01_false_boat_35_n03344393_5198.png
subject-01,1,169,1.26853084564209,truck,truck,false,0169_fc_s01_false_truck_35_n04467665_11830.png
subject-01,1,170,0.708631992340088,chair,chair,true,0170_fc_s01_true_chair_35_n04429376_7181.png
subject-01,1,171,0.66343092918396,keyboard,keyboard,false,0171_fc_s01_false_keyboard_35_n04505470_7388.png
subject-01,1,172,1.21186590194702,keyboard,keyboard,false,0172_fc_s01_false_keyboard_35_n03085013_20727.png
subject-01,1,173,0.674367189407349,car,car,false,0173_fc_s01_false_car_35_n03100240_9675.png
subject-01,1,174,0.652853012084961,elephant,elephant,false,0174_fc_s01_false_elephant_35_n02504013_2228.png
subject-01,1,175,0.777498960494995,elephant,elephant,true,0175_fc_s01_true_elephant_35_n02504458_975.png
subject-01,1,176,1.05593395233154,dog,dog,true,0176_fc_s01_true_dog_35_n02087046_4409.png
subject-01,1,177,NaN,na,clock,false,0177_fc_s01_false_clock_35_n02708093_6813.png
subject-01,1,178,0.796860933303833,keyboard,keyboard,false,0178_fc_s01_false_keyboard_35_n04505470_4627.png
subject-01,1,179,1.45085597038269,bird,bird,true,0179_fc_s01_true_bird_35_n01614925_1962.png
subject-01,1,180,0.637754917144775,airplane,airplane,true,0180_fc_s01_true_airplane_35_n02690373_10285.png
subject-01,1,181,0.707951068878174,truck,truck,true,0181_fc_s01_true_truck_35_n03796401_3434.png
subject-01,1,182,0.940682888031006,car,car,false,0182_fc_s01_false_car_35_n03100240_10791.png
subject-01,1,183,0.827042102813721,chair,chair,false,0183_fc_s01_false_chair_35_n02791124_885.png
subject-01,1,184,NaN,na,airplane,true,0184_fc_s01_true_airplane_35_n02690373_2431.png
subject-01,1,185,1.13970398902893,cat,cat,false,0185_fc_s01_false_cat_35_n02123394_1942.png
subject-01,1,186,0.656711101531982,bottle,bottle,false,0186_fc_s01_false_bottle_35_n02823428_4959.png
subject-01,1,187,0.580868005752563,clock,clock,false,0187_fc_s01_false_clock_35_n02708093_3525.png
subject-01,1,188,0.707273960113525,bicycle,bicycle,false,0188_fc_s01_false_bicycle_35_n03792782_52427.png
subject-01,1,189,1.11579895019531,car,car,false,0189_fc_s01_false_car_35_n02814533_33576.png
subject-01,1,190,0.961920022964478,cat,cat,false,0190_fc_s01_false_cat_35_n02124075_3592.png
subject-01,1,191,0.7866530418396,bicycle,bicycle,false,0191_fc_s01_false_bicycle_35_n02835271_608.png
subject-01,1,192,0.710924863815308,oven,oven,true,0192_fc_s01_true_oven_35_n04111531_10093.png
subject-01,1,193,0.713537931442261,oven,oven,true,0193_fc_s01_true_oven_35_n04111531_13479.png
subject-01,1,194,0.559849977493286,oven,oven,true,0194_fc_s01_true_oven_35_n04111531_4116.png
subject-01,1,195,0.634358882904053,truck,truck,false,0195_fc_s01_false_truck_35_n03417042_10654.png
subject-01,1,196,0.850779056549072,truck,truck,true,0196_fc_s01_true_truck_35_n03796401_3386.png
subject-01,1,197,0.845309019088745,elephant,elephant,false,0197_fc_s01_false_elephant_35_n02504013_5774.png
subject-01,1,198,0.93762993812561,dog,dog,false,0198_fc_s01_false_dog_35_n02093428_8946.png
subject-01,1,199,0.539818048477173,oven,oven,false,0199_fc_s01_false_oven_35_n04111531_11079.png
subject-01,1,200,0.726330041885376,truck,truck,true,0200_fc_s01_true_truck_35_n03796401_6596.png
subject-01,1,201,0.850948095321655,truck,truck,false,0201_fc_s01_false_truck_35_n03417042_7313.png
subject-01,1,202,0.759085893630981,bear,bear,false,0202_fc_s01_false_bear_35_n02132136_8525.png
subject-01,1,203,0.67585301399231,cat,cat,false,0203_fc_s01_false_cat_35_n02123159_2757.png
subject-01,1,204,0.654348850250244,chair,chair,false,0204_fc_s01_false_chair_35_n04429376_55163.png
subject-01,1,205,1.44078493118286,dog,dog,false,0205_fc_s01_false_dog_35_n02094258_5084.png
subject-01,1,206,0.649163007736206,knife,knife,false,0206_fc_s01_false_knife_35_n03041632_38610.png
subject-01,1,207,0.719949007034302,bird,bird,false,0207_fc_s01_false_bird_35_n01560419_14207.png
subject-01,1,208,0.806169033050537,chair,chair,true,0208_fc_s01_true_chair_35_n03376595_10986.png
subject-01,1,209,0.70871114730835,car,car,false,0209_fc_s01_false_car_35_n03100240_12694.png
subject-01,1,210,1.10078501701355,keyboard,oven,false,0210_fc_s01_false_oven_35_n04111531_4574.png
subject-01,1,211,0.957648992538452,truck,truck,false,0211_fc_s01_false_truck_35_n03417042_3952.png
subject-01,1,212,NaN,na,truck,true,0212_fc_s01_true_truck_35_n04467665_68020.png
subject-01,1,213,0.752577066421509,bottle,bottle,false,0213_fc_s01_false_bottle_35_n03983396_5413.png
subject-01,1,214,0.690567016601562,bicycle,bicycle,true,0214_fc_s01_true_bicycle_35_n02835271_15524.png
subject-01,1,215,0.685301065444946,boat,boat,true,0215_fc_s01_true_boat_35_n02951358_31514.png
subject-01,1,216,0.977468013763428,truck,truck,true,0216_fc_s01_true_truck_35_n03417042_12232.png
subject-01,1,217,1.20149803161621,cat,elephant,true,0217_fc_s01_true_elephant_35_n02504458_5144.png
subject-01,1,218,0.603931903839111,keyboard,keyboard,true,0218_fc_s01_true_keyboard_35_n04505470_4682.png
subject-01,1,219,0.687906980514526,elephant,elephant,false,0219_fc_s01_false_elephant_35_n02504458_11693.png
subject-01,1,220,0.636629104614258,bicycle,bicycle,false,0220_fc_s01_false_bicycle_35_n03792782_485.png
subject-01,1,221,0.652969121932983,clock,clock,true,0221_fc_s01_true_clock_35_n03196217_1219.png
subject-01,1,222,1.03098678588867,oven,chair,false,0222_fc_s01_false_chair_35_n02791124_11404.png
subject-01,1,223,0.949626922607422,dog,dog,false,0223_fc_s01_false_dog_35_n02102973_7095.png
subject-01,1,224,0.728195905685425,car,car,true,0224_fc_s01_true_car_35_n04285008_5525.png
subject-01,1,225,0.836681127548218,knife,knife,true,0225_fc_s01_true_knife_35_n03041632_18748.png
subject-01,1,226,1.4450089931488,keyboard,keyboard,true,0226_fc_s01_true_keyboard_35_n04505470_4369.png
subject-01,1,227,0.693618059158325,boat,boat,true,0227_fc_s01_true_boat_35_n03662601_11862.png
subject-01,1,228,0.956019163131714,bicycle,bicycle,false,0228_fc_s01_false_bicycle_35_n03792782_4740.png
subject-01,1,229,0.856888055801392,clock,clock,false,0229_fc_s01_false_clock_35_n02708093_3745.png
subject-01,1,230,1.3214430809021,bird,bird,true,0230_fc_s01_true_bird_35_n01795545_4502.png
subject-01,1,231,0.859859943389893,bird,bird,false,0231_fc_s01_false_bird_35_n01860187_1815.png
subject-01,1,232,0.783880949020386,bear,bear,true,0232_fc_s01_true_bear_35_n02132136_7872.png
subject-01,1,233,0.894222021102905,truck,truck,true,0233_fc_s01_true_truck_35_n03417042_22828.png
subject-01,1,234,0.910469055175781,boat,boat,false,0234_fc_s01_false_boat_35_n04273569_2040.png
subject-01,1,235,0.965513944625854,bicycle,bicycle,true,0235_fc_s01_true_bicycle_35_n03792782_6614.png
subject-01,1,236,0.705389976501465,boat,boat,false,0236_fc_s01_false_boat_35_n04612504_20927.png
subject-01,1,237,0.607787132263184,boat,boat,true,0237_fc_s01_true_boat_35_n04612504_5334.png
subject-01,1,238,0.830466032028198,cat,cat,false,0238_fc_s01_false_cat_35_n02123159_8267.png
subject-01,1,239,0.8332200050354,bird,bird,true,0239_fc_s01_true_bird_35_n01819313_5634.png
subject-01,1,240,1.08741283416748,keyboard,keyboard,false,0240_fc_s01_false_keyboard_35_n03085013_9244.png
subject-01,1,241,0.811916828155518,bird,bird,false,0241_fc_s01_false_bird_35_n02007558_13217.png
subject-01,1,242,0.684349060058594,knife,knife,true,0242_fc_s01_true_knife_35_n03041632_965.png
subject-01,1,243,1.29292988777161,car,car,true,0243_fc_s01_true_car_35_n04285008_8581.png
subject-01,1,244,1.0854389667511,bicycle,oven,true,0244_fc_s01_true_oven_35_n04111531_10724.png
subject-01,1,245,0.779770135879517,bicycle,bicycle,false,0245_fc_s01_false_bicycle_35_n02835271_8209.png
subject-01,1,246,0.534373044967651,oven,oven,true,0246_fc_s01_true_oven_35_n04111531_7449.png
subject-01,1,247,0.690975904464722,airplane,airplane,false,0247_fc_s01_false_airplane_35_n02690373_6831.png
subject-01,1,248,0.732578992843628,boat,boat,true,0248_fc_s01_true_boat_35_n03662601_15766.png
subject-01,1,249,0.719423055648804,oven,oven,false,0249_fc_s01_false_oven_35_n04111531_11794.png
subject-01,1,250,0.855999946594238,knife,knife,true,0250_fc_s01_true_knife_35_n03041632_2390.png
subject-01,1,251,0.848100900650024,keyboard,keyboard,true,0251_fc_s01_true_keyboard_35_n03085013_22796.png
subject-01,1,252,0.726896047592163,cat,cat,true,0252_fc_s01_true_cat_35_n02125311_6746.png
subject-01,1,253,0.567014932632446,oven,oven,true,0253_fc_s01_true_oven_35_n04111531_4227.png
subject-01,1,254,0.537875890731812,cat,cat,false,0254_fc_s01_false_cat_35_n02123159_358.png
subject-01,1,255,1.2624409198761,bottle,bottle,true,0255_fc_s01_true_bottle_35_n04579145_1457.png
subject-01,1,256,0.710803985595703,elephant,elephant,false,0256_fc_s01_false_elephant_35_n02504458_6109.png
subject-01,1,257,0.497344017028809,boat,boat,true,0257_fc_s01_true_boat_35_n04273569_11645.png
subject-01,1,258,1.11338901519775,dog,dog,false,0258_fc_s01_false_dog_35_n02102318_11997.png
subject-01,1,259,0.597453117370605,bear,bear,false,0259_fc_s01_false_bear_35_n02134084_12070.png
subject-01,1,260,0.85381293296814,car,truck,false,0260_fc_s01_false_truck_35_n03417042_768.png
subject-01,1,261,0.632625102996826,chair,chair,false,0261_fc_s01_false_chair_35_n04099969_8961.png
subject-01,1,262,0.719076871871948,bottle,bottle,true,0262_fc_s01_true_bottle_35_n04560804_15843.png
subject-01,1,263,0.873577833175659,bear,bear,false,0263_fc_s01_false_bear_35_n02134084_21407.png
subject-01,1,264,1.22800779342651,airplane,airplane,false,0264_fc_s01_false_airplane_35_n02690373_6807.png
subject-01,1,265,0.9305100440979,knife,knife,false,0265_fc_s01_false_knife_35_n03041632_8051.png
subject-01,1,266,0.555050134658813,oven,oven,true,0266_fc_s01_true_oven_35_n04111531_12510.png
subject-01,1,267,0.687536001205444,cat,cat,false,0267_fc_s01_false_cat_35_n02125311_23312.png
subject-01,1,268,0.519637107849121,boat,boat,false,0268_fc_s01_false_boat_35_n03344393_4143.png
subject-01,1,269,0.789736032485962,knife,knife,false,0269_fc_s01_false_knife_35_n03041632_25512.png
subject-01,1,270,0.752372980117798,clock,clock,true,0270_fc_s01_true_clock_35_n02708093_3355.png
subject-01,1,271,1.45264077186584,truck,truck,false,0271_fc_s01_false_truck_35_n04467665_16276.png
subject-01,1,272,0.955241918563843,dog,dog,true,0272_fc_s01_true_dog_35_n02108551_262.png
subject-01,1,273,0.941713094711304,bear,bear,false,0273_fc_s01_false_bear_35_n02134418_5033.png
subject-01,1,274,0.6040940284729,cat,cat,false,0274_fc_s01_false_cat_35_n02123159_6728.png
subject-01,1,275,0.698677062988281,knife,knife,false,0275_fc_s01_false_knife_35_n03041632_38535.png
subject-01,1,276,0.599184989929199,cat,cat,true,0276_fc_s01_true_cat_35_n02123597_4591.png
subject-01,1,277,0.915597915649414,car,car,true,0277_fc_s01_true_car_35_n02814533_56999.png
subject-01,1,278,0.664276838302612,bird,bird,true,0278_fc_s01_true_bird_35_n02037110_3761.png
subject-01,1,279,NaN,na,bottle,false,0279_fc_s01_false_bottle_35_n04591713_6851.png
subject-01,1,280,0.584110975265503,airplane,airplane,true,0280_fc_s01_true_airplane_35_n02690373_8454.png
subject-01,1,281,0.862663984298706,elephant,elephant,true,0281_fc_s01_true_elephant_35_n02504013_11033.png
subject-01,1,282,0.665210962295532,bird,bird,true,0282_fc_s01_true_bird_35_n01622779_1609.png
subject-01,1,283,0.643626928329468,airplane,airplane,false,0283_fc_s01_false_airplane_35_n02690373_12756.png
subject-01,1,284,0.821847915649414,cat,cat,true,0284_fc_s01_true_cat_35_n02125311_17068.png
subject-01,1,285,NaN,na,oven,false,0285_fc_s01_false_oven_35_n04111531_2150.png
subject-01,1,286,0.67668080329895,elephant,elephant,false,0286_fc_s01_false_elephant_35_n02504458_477.png
subject-01,1,287,0.863105058670044,airplane,airplane,true,0287_fc_s01_true_airplane_35_n02690373_2796.png
subject-01,1,288,0.820548057556152,bear,bear,false,0288_fc_s01_false_bear_35_n02134418_1409.png
subject-01,1,289,0.828225135803223,elephant,elephant,true,0289_fc_s01_true_elephant_35_n02504458_5501.png
subject-01,1,290,0.744650840759277,airplane,airplane,true,0290_fc_s01_true_airplane_35_n02690373_9531.png
subject-01,1,291,0.785262823104858,knife,knife,true,0291_fc_s01_true_knife_35_n03041632_8151.png
subject-01,1,292,0.647762060165405,oven,oven,false,0292_fc_s01_false_oven_35_n04111531_4452.png
subject-01,1,293,0.79633903503418,elephant,elephant,false,0293_fc_s01_false_elephant_35_n02504458_3205.png
subject-01,1,294,0.812770128250122,truck,truck,false,0294_fc_s01_false_truck_35_n04467665_197.png
subject-01,1,295,0.629189968109131,elephant,elephant,true,0295_fc_s01_true_elephant_35_n02504013_9809.png
subject-01,1,296,1.26194596290588,cat,cat,false,0296_fc_s01_false_cat_35_n02123597_4998.png
subject-01,1,297,1.44662499427795,bird,cat,true,0297_fc_s01_true_cat_35_n02123159_3655.png
subject-01,1,298,0.678997993469238,bicycle,bicycle,true,0298_fc_s01_true_bicycle_35_n03792782_14935.png
subject-01,1,299,0.743263006210327,truck,truck,false,0299_fc_s01_false_truck_35_n03417042_28742.png
subject-01,1,300,0.589990139007568,cat,cat,false,0300_fc_s01_false_cat_35_n02123597_3575.png
subject-01,1,301,0.722320079803467,bicycle,bicycle,false,0301_fc_s01_false_bicycle_35_n03792782_50569.png
subject-01,1,302,1.23074984550476,bird,bird,true,0302_fc_s01_true_bird_35_n01534433_13846.png
subject-01,1,303,0.631230115890503,clock,clock,true,0303_fc_s01_true_clock_35_n04548280_7794.png
subject-01,1,304,0.663836002349854,clock,clock,false,0304_fc_s01_false_clock_35_n02708093_585.png
subject-01,1,305,0.810237884521484,airplane,airplane,false,0305_fc_s01_false_airplane_35_n02690373_6524.png
subject-01,1,306,0.988914012908936,knife,knife,true,0306_fc_s01_true_knife_35_n03041632_84869.png
subject-01,1,307,0.8212571144104,bird,bird,false,0307_fc_s01_false_bird_35_n01798484_9481.png
subject-01,1,308,0.761416912078857,cat,cat,false,0308_fc_s01_false_cat_35_n02123597_1153.png
subject-01,1,309,0.700106143951416,boat,boat,true,0309_fc_s01_true_boat_35_n04273569_4324.png
subject-01,1,310,0.840378046035767,dog,dog,true,0310_fc_s01_true_dog_35_n02096437_1018.png
subject-01,1,311,0.794981956481934,keyboard,keyboard,false,0311_fc_s01_false_keyboard_35_n03085013_21300.png
subject-01,1,312,1.41162776947021,dog,cat,false,0312_fc_s01_false_cat_35_n02123597_13994.png
subject-01,1,313,0.66608190536499,airplane,airplane,true,0313_fc_s01_true_airplane_35_n02690373_9241.png
subject-01,1,314,0.684543132781982,cat,cat,true,0314_fc_s01_true_cat_35_n02123045_6507.png
subject-01,1,315,0.79311990737915,airplane,airplane,true,0315_fc_s01_true_airplane_35_n02690373_1434.png
subject-01,1,316,0.985527992248535,boat,boat,true,0316_fc_s01_true_boat_35_n03344393_6890.png
subject-01,1,317,0.787974119186401,bottle,bottle,true,0317_fc_s01_true_bottle_35_n04591713_4291.png
subject-01,1,318,0.826292037963867,chair,chair,false,0318_fc_s01_false_chair_35_n02791124_13701.png
subject-01,1,319,0.790930986404419,bear,bear,false,0319_fc_s01_false_bear_35_n02134084_3227.png
subject-01,1,320,1.06745386123657,clock,clock,true,0320_fc_s01_true_clock_35_n02708093_1775.png
subject-01,1,321,0.815751075744629,truck,truck,false,0321_fc_s01_false_truck_35_n04467665_46470.png
subject-01,1,322,1.47044706344604,boat,boat,true,0322_fc_s01_true_boat_35_n03662601_9602.png
subject-01,1,323,1.0189208984375,car,car,true,0323_fc_s01_true_car_35_n03100240_14045.png
subject-01,1,324,0.697148084640503,chair,chair,true,0324_fc_s01_true_chair_35_n03376595_10153.png
subject-01,1,325,0.575747966766357,boat,boat,false,0325_fc_s01_false_boat_35_n03344393_7503.png
subject-01,1,326,0.838375091552734,car,car,false,0326_fc_s01_false_car_35_n03100240_16803.png
subject-01,1,327,0.754415988922119,chair,chair,true,0327_fc_s01_true_chair_35_n03376595_3654.png
subject-01,1,328,0.625080823898315,bear,bear,false,0328_fc_s01_false_bear_35_n02133161_12894.png
subject-01,1,329,0.601398944854736,clock,clock,false,0329_fc_s01_false_clock_35_n02708093_8104.png
subject-01,1,330,0.741750955581665,bottle,bottle,true,0330_fc_s01_true_bottle_35_n03983396_6116.png
subject-01,1,331,0.572451114654541,cat,cat,true,0331_fc_s01_true_cat_35_n02124075_8341.png
subject-01,1,332,1.39688611030579,car,truck,false,0332_fc_s01_false_truck_35_n03796401_19114.png
subject-01,1,333,NaN,na,keyboard,false,0333_fc_s01_false_keyboard_35_n03085013_20704.png
subject-01,1,334,0.84578013420105,cat,cat,true,0334_fc_s01_true_cat_35_n02123159_7762.png
subject-01,1,335,0.570486068725586,cat,cat,true,0335_fc_s01_true_cat_35_n02123159_2339.png
subject-01,1,336,0.863099098205566,truck,truck,true,0336_fc_s01_true_truck_35_n03796401_6921.png
subject-01,1,337,0.733219861984253,car,car,true,0337_fc_s01_true_car_35_n03100240_2632.png
subject-01,1,338,0.681830167770386,boat,boat,false,0338_fc_s01_false_boat_35_n02951358_16040.png
subject-01,1,339,0.658435106277466,oven,oven,true,0339_fc_s01_true_oven_35_n04111531_1674.png
subject-01,1,340,0.698731899261475,oven,oven,false,0340_fc_s01_false_oven_35_n04111531_1562.png
subject-01,1,341,0.861146926879883,bicycle,bicycle,true,0341_fc_s01_true_bicycle_35_n03792782_16961.png
subject-01,1,342,0.569291114807129,bird,bird,false,0342_fc_s01_false_bird_35_n02009912_5983.png
subject-01,1,343,0.816149950027466,clock,clock,false,0343_fc_s01_false_clock_35_n02708093_5734.png
subject-01,1,344,0.678369045257568,elephant,elephant,false,0344_fc_s01_false_elephant_35_n02504458_209.png
subject-01,1,345,0.695095062255859,bird,bird,true,0345_fc_s01_true_bird_35_n01833805_1104.png
subject-01,1,346,0.694863080978394,clock,clock,false,0346_fc_s01_false_clock_35_n04548280_4542.png
subject-01,1,347,0.957420825958252,bear,bear,false,0347_fc_s01_false_bear_35_n02134418_2438.png
subject-01,1,348,0.819890022277832,airplane,airplane,false,0348_fc_s01_false_airplane_35_n02690373_1831.png
subject-01,1,349,0.890465021133423,truck,truck,false,0349_fc_s01_false_truck_35_n03417042_6204.png
subject-01,1,350,0.584890127182007,oven,oven,false,0350_fc_s01_false_oven_35_n04111531_5473.png
subject-01,1,351,0.585481882095337,boat,boat,true,0351_fc_s01_true_boat_35_n03662601_34124.png
subject-01,1,352,0.809936046600342,chair,chair,false,0352_fc_s01_false_chair_35_n04429376_9501.png
subject-01,1,353,0.68862509727478,bear,bear,false,0353_fc_s01_false_bear_35_n02134084_4677.png
subject-01,1,354,0.935002088546753,car,car,true,0354_fc_s01_true_car_35_n04285008_9388.png
subject-01,1,355,1.35719609260559,clock,chair,false,0355_fc_s01_false_chair_35_n04429376_36830.png
subject-01,1,356,0.835983991622925,bicycle,bicycle,false,0356_fc_s01_false_bicycle_35_n02835271_6554.png
subject-01,1,357,0.689949035644531,bear,bear,false,0357_fc_s01_false_bear_35_n02132136_4237.png
subject-01,1,358,0.798182010650635,airplane,airplane,false,0358_fc_s01_false_airplane_35_n02690373_2203.png
subject-01,1,359,1.09896016120911,keyboard,keyboard,false,0359_fc_s01_false_keyboard_35_n04505470_4411.png
subject-01,1,360,0.831422090530396,boat,boat,true,0360_fc_s01_true_boat_35_n04612504_5093.png
subject-01,1,361,0.901948928833008,chair,knife,false,0361_fc_s01_false_knife_35_n03041632_99875.png
subject-01,1,362,0.788207054138184,bicycle,bicycle,false,0362_fc_s01_false_bicycle_35_n02835271_13404.png
subject-01,1,363,0.834749937057495,bird,bird,true,0363_fc_s01_true_bird_35_n02002724_2909.png
subject-01,1,364,0.589290142059326,airplane,airplane,true,0364_fc_s01_true_airplane_35_n02690373_9762.png
subject-01,1,365,0.76771092414856,elephant,elephant,true,0365_fc_s01_true_elephant_35_n02504458_5951.png
subject-01,1,366,0.760239839553833,bird,bird,false,0366_fc_s01_false_bird_35_n02027492_3922.png
subject-01,1,367,1.50044393539429,car,car,true,0367_fc_s01_true_car_35_n04285008_4109.png
subject-01,1,368,0.901228904724121,knife,knife,true,0368_fc_s01_true_knife_35_n03041632_13656.png
subject-01,1,369,0.747617959976196,keyboard,keyboard,false,0369_fc_s01_false_keyboard_35_n04505470_2828.png
subject-01,1,370,0.672174215316772,truck,truck,false,0370_fc_s01_false_truck_35_n03417042_8690.png
subject-01,1,371,1.12666988372803,cat,cat,true,0371_fc_s01_true_cat_35_n02125311_36167.png
subject-01,1,372,0.729344844818115,chair,chair,true,0372_fc_s01_true_chair_35_n03376595_4354.png
subject-01,1,373,0.813922882080078,truck,truck,true,0373_fc_s01_true_truck_35_n03796401_3940.png
subject-01,1,374,0.783779859542847,cat,cat,true,0374_fc_s01_true_cat_35_n02124075_2806.png
subject-01,1,375,0.684750080108643,cat,cat,true,0375_fc_s01_true_cat_35_n02124075_1957.png
subject-01,1,376,0.839684009552002,car,car,false,0376_fc_s01_false_car_35_n02814533_52866.png
subject-01,1,377,0.603379964828491,cat,cat,false,0377_fc_s01_false_cat_35_n02123159_1165.png
subject-01,1,378,0.895945072174072,knife,knife,true,0378_fc_s01_true_knife_35_n03041632_9671.png
subject-01,1,379,0.774278879165649,chair,chair,false,0379_fc_s01_false_chair_35_n04099969_20390.png
subject-01,1,380,0.883121967315674,knife,knife,false,0380_fc_s01_false_knife_35_n03041632_94470.png
subject-01,1,381,0.829586029052734,keyboard,keyboard,false,0381_fc_s01_false_keyboard_35_n04505470_8148.png
subject-01,1,382,0.946036100387573,bottle,bottle,true,0382_fc_s01_true_bottle_35_n03983396_3331.png
subject-01,1,383,1.04623198509216,elephant,elephant,false,0383_fc_s01_false_elephant_35_n02504458_4631.png
subject-01,1,384,1.0708179473877,airplane,airplane,false,0384_fc_s01_false_airplane_35_n02690373_7375.png
subject-01,1,385,1.35519599914551,cat,cat,true,0385_fc_s01_true_cat_35_n02123597_7908.png
subject-01,1,386,0.587934017181396,boat,boat,false,0386_fc_s01_false_boat_35_n03662601_10811.png
subject-01,1,387,0.482354879379272,oven,oven,true,0387_fc_s01_true_oven_35_n04111531_12769.png
subject-01,1,388,0.674437046051025,keyboard,keyboard,false,0388_fc_s01_false_keyboard_35_n03085013_24206.png
subject-01,1,389,0.874883890151978,elephant,elephant,true,0389_fc_s01_true_elephant_35_n02504458_6721.png
subject-01,1,390,1.41559910774231,car,airplane,false,0390_fc_s01_false_airplane_35_n02690373_2075.png
subject-01,1,391,0.786517858505249,dog,dog,false,0391_fc_s01_false_dog_35_n02110806_3673.png
subject-01,1,392,0.924781799316406,chair,chair,true,0392_fc_s01_true_chair_35_n02791124_5438.png
subject-01,1,393,0.68109917640686,bear,bear,true,0393_fc_s01_true_bear_35_n02133161_1571.png
subject-01,1,394,0.773882865905762,bottle,bottle,true,0394_fc_s01_true_bottle_35_n03983396_8768.png
subject-01,1,395,1.03631210327148,truck,truck,false,0395_fc_s01_false_truck_35_n03417042_2124.png
subject-01,1,396,0.598567962646484,cat,cat,false,0396_fc_s01_false_cat_35_n02123597_23346.png
subject-01,1,397,0.699211835861206,chair,chair,false,0397_fc_s01_false_chair_35_n03376595_635.png
subject-01,1,398,0.631667852401733,keyboard,keyboard,true,0398_fc_s01_true_keyboard_35_n03085013_5440.png
subject-01,1,399,1.31599617004395,dog,dog,true,0399_fc_s01_true_dog_35_n02097658_4387.png
subject-01,1,400,0.667938947677612,bicycle,bicycle,true,0400_fc_s01_true_bicycle_35_n02835271_29653.png
subject-01,1,401,0.714714050292969,truck,truck,false,0401_fc_s01_false_truck_35_n03417042_25493.png
subject-01,1,402,1.2530779838562,bottle,bottle,false,0402_fc_s01_false_bottle_35_n03937543_5062.png
subject-01,1,403,0.653285980224609,knife,knife,true,0403_fc_s01_true_knife_35_n03041632_7090.png
subject-01,1,404,0.861613988876343,truck,truck,false,0404_fc_s01_false_truck_35_n04467665_2240.png
subject-01,1,405,0.870130062103271,bear,bear,true,0405_fc_s01_true_bear_35_n02132136_8516.png
subject-01,1,406,0.640866041183472,chair,chair,false,0406_fc_s01_false_chair_35_n02791124_2091.png
subject-01,1,407,0.781077861785889,boat,boat,false,0407_fc_s01_false_boat_35_n03662601_25404.png
subject-01,1,408,0.681621074676514,bottle,bottle,false,0408_fc_s01_false_bottle_35_n04557648_3673.png
subject-01,1,409,0.698157072067261,knife,knife,false,0409_fc_s01_false_knife_35_n03041632_47743.png
subject-01,1,410,0.606827020645142,car,car,false,0410_fc_s01_false_car_35_n03100240_7120.png
subject-01,1,411,0.569233894348145,clock,clock,true,0411_fc_s01_true_clock_35_n03196217_7888.png
subject-01,1,412,0.685611963272095,bicycle,bicycle,true,0412_fc_s01_true_bicycle_35_n02835271_9531.png
subject-01,1,413,1.07030892372131,boat,boat,false,0413_fc_s01_false_boat_35_n03662601_4418.png
subject-01,1,414,0.670788049697876,oven,oven,false,0414_fc_s01_false_oven_35_n04111531_3181.png
subject-01,1,415,0.633392095565796,bottle,bottle,true,0415_fc_s01_true_bottle_35_n04557648_4420.png
subject-01,1,416,1.13322401046753,elephant,elephant,false,0416_fc_s01_false_elephant_35_n02504458_7258.png
subject-01,1,417,1.05004191398621,bear,dog,false,0417_fc_s01_false_dog_35_n02091134_7695.png
subject-01,1,418,0.666453838348389,elephant,elephant,false,0418_fc_s01_false_elephant_35_n02504458_3881.png
subject-01,1,419,1.2590000629425,clock,keyboard,false,0419_fc_s01_false_keyboard_35_n04505470_3970.png
subject-01,1,420,1.2089729309082,airplane,airplane,false,0420_fc_s01_false_airplane_35_n02690373_9659.png
subject-01,1,421,1.21747994422913,oven,oven,true,0421_fc_s01_true_oven_35_n04111531_21911.png
subject-01,1,422,1.45009994506836,bird,bird,true,0422_fc_s01_true_bird_35_n01798484_9155.png
subject-01,1,423,1.12870907783508,chair,chair,true,0423_fc_s01_true_chair_35_n04429376_16619.png
subject-01,1,424,0.704787969589233,oven,oven,false,0424_fc_s01_false_oven_35_n04111531_14543.png
subject-01,1,425,0.707680940628052,bird,bird,false,0425_fc_s01_false_bird_35_n02018795_7504.png
subject-01,1,426,0.768085956573486,elephant,elephant,true,0426_fc_s01_true_elephant_35_n02504458_7950.png
subject-01,1,427,NaN,na,chair,true,0427_fc_s01_true_chair_35_n04429376_17646.png
subject-01,1,428,0.700818061828613,chair,chair,true,0428_fc_s01_true_chair_35_n04099969_38402.png
subject-01,1,429,0.809296846389771,airplane,airplane,false,0429_fc_s01_false_airplane_35_n02690373_5415.png
subject-01,1,430,0.809316873550415,bird,bird,false,0430_fc_s01_false_bird_35_n01797886_12436.png
subject-01,1,431,0.841907978057861,car,car,true,0431_fc_s01_true_car_35_n02814533_55937.png
subject-01,1,432,0.680378198623657,oven,oven,false,0432_fc_s01_false_oven_35_n04111531_4050.png
subject-01,1,433,0.720968961715698,bottle,bottle,true,0433_fc_s01_true_bottle_35_n04560804_6392.png
subject-01,1,434,0.797188997268677,cat,cat,false,0434_fc_s01_false_cat_35_n02123394_9541.png
subject-01,1,435,0.721867084503174,car,car,true,0435_fc_s01_true_car_35_n03100240_17973.png
subject-01,1,436,1.02189183235168,car,bottle,false,0436_fc_s01_false_bottle_35_n04560804_2539.png
subject-01,1,437,0.984386920928955,dog,dog,false,0437_fc_s01_false_dog_35_n02107574_3387.png
subject-01,1,438,1.02252411842346,keyboard,keyboard,true,0438_fc_s01_true_keyboard_35_n03085013_8339.png
subject-01,1,439,0.639195919036865,oven,oven,true,0439_fc_s01_true_oven_35_n04111531_12929.png
subject-01,1,440,0.763438940048218,car,car,true,0440_fc_s01_true_car_35_n02814533_23592.png
subject-01,1,441,0.826020002365112,car,car,true,0441_fc_s01_true_car_35_n03100240_2909.png
subject-01,1,442,0.750504970550537,bird,bird,true,0442_fc_s01_true_bird_35_n01592084_6081.png
subject-01,1,443,0.727139949798584,clock,clock,false,0443_fc_s01_false_clock_35_n02708093_3454.png
subject-01,1,444,1.30572199821472,keyboard,clock,false,0444_fc_s01_false_clock_35_n03196217_8489.png
subject-01,1,445,1.00592088699341,knife,knife,false,0445_fc_s01_false_knife_35_n03041632_32054.png
subject-01,1,446,0.906466960906982,keyboard,keyboard,true,0446_fc_s01_true_keyboard_35_n04505470_10035.png
subject-01,1,447,1.36867499351501,knife,knife,true,0447_fc_s01_true_knife_35_n03041632_29343.png
subject-01,1,448,0.761293172836304,clock,clock,true,0448_fc_s01_true_clock_35_n02708093_3759.png
subject-01,1,449,0.671634912490845,knife,knife,true,0449_fc_s01_true_knife_35_n03041632_17067.png
subject-01,1,450,0.972338914871216,cat,cat,false,0450_fc_s01_false_cat_35_n02123045_12060.png
subject-01,1,451,0.902848958969116,knife,knife,false,0451_fc_s01_false_knife_35_n03041632_45636.png
subject-01,1,452,0.859106063842773,boat,boat,true,0452_fc_s01_true_boat_35_n04273569_9282.png
subject-01,1,453,0.835580110549927,boat,car,false,0453_fc_s01_false_car_35_n04285008_3269.png
subject-01,1,454,1.13053297996521,oven,oven,false,0454_fc_s01_false_oven_35_n04111531_14329.png
subject-01,1,455,0.822838068008423,bicycle,bicycle,true,0455_fc_s01_true_bicycle_35_n02835271_7592.png
subject-01,1,456,0.763197898864746,bird,bird,true,0456_fc_s01_true_bird_35_n01828970_11339.png
subject-01,1,457,0.717622041702271,boat,boat,true,0457_fc_s01_true_boat_35_n04273569_2698.png
subject-01,1,458,0.888033866882324,cat,cat,true,0458_fc_s01_true_cat_35_n02123597_2099.png
subject-01,1,459,0.628713846206665,keyboard,keyboard,true,0459_fc_s01_true_keyboard_35_n04505470_4516.png
subject-01,1,460,1.07549715042114,truck,truck,false,0460_fc_s01_false_truck_35_n03796401_124.png
subject-01,1,461,0.691986799240112,boat,boat,true,0461_fc_s01_true_boat_35_n04273569_30568.png
subject-01,1,462,0.776350021362305,cat,dog,true,0462_fc_s01_true_dog_35_n02107312_7182.png
subject-01,1,463,0.824685096740723,dog,dog,true,0463_fc_s01_true_dog_35_n02088094_9498.png
subject-01,1,464,0.941009044647217,car,car,true,0464_fc_s01_true_car_35_n04285008_11323.png
subject-01,1,465,0.71743106842041,bicycle,bicycle,true,0465_fc_s01_true_bicycle_35_n03792782_12578.png
subject-01,1,466,0.842004060745239,car,car,false,0466_fc_s01_false_car_35_n02814533_4978.png
subject-01,1,467,0.58808708190918,clock,clock,true,0467_fc_s01_true_clock_35_n04548280_309.png
subject-01,1,468,0.620680093765259,bear,bear,true,0468_fc_s01_true_bear_35_n02134418_11557.png
subject-01,1,469,0.704835891723633,keyboard,keyboard,true,0469_fc_s01_true_keyboard_35_n04505470_2825.png
subject-01,1,470,1.05348801612854,bottle,bottle,true,0470_fc_s01_true_bottle_35_n04557648_11594.png
subject-01,1,471,0.508062839508057,clock,clock,false,0471_fc_s01_false_clock_35_n04548280_7321.png
subject-01,1,472,0.692671060562134,bird,bird,false,0472_fc_s01_false_bird_35_n01833805_4819.png
subject-01,1,473,0.824980020523071,bottle,bottle,false,0473_fc_s01_false_bottle_35_n02823428_4358.png
subject-01,1,474,0.817713022232056,bear,bicycle,true,0474_fc_s01_true_bicycle_35_n03792782_8098.png
subject-01,1,475,0.964097023010254,dog,dog,true,0475_fc_s01_true_dog_35_n02102318_9359.png
subject-01,1,476,0.834680080413818,bear,bear,true,0476_fc_s01_true_bear_35_n02132136_8059.png
subject-01,1,477,0.904898881912231,truck,truck,true,0477_fc_s01_true_truck_35_n03796401_16337.png
subject-01,1,478,0.758975982666016,oven,oven,false,0478_fc_s01_false_oven_35_n04111531_22138.png
subject-01,1,479,0.899658918380737,keyboard,keyboard,true,0479_fc_s01_true_keyboard_35_n03085013_21641.png
subject-01,1,480,0.722265005111694,chair,chair,false,0480_fc_s01_false_chair_35_n03376595_4912.png
subject-01,1,481,1.33512806892395,knife,knife,false,0481_fc_s01_false_knife_35_n03041632_46185.png
subject-01,1,482,0.635551929473877,car,car,false,0482_fc_s01_false_car_35_n02814533_10329.png
subject-01,1,483,0.7359459400177,airplane,airplane,true,0483_fc_s01_true_airplane_35_n02690373_4814.png
subject-01,1,484,0.922648906707764,bicycle,bicycle,true,0484_fc_s01_true_bicycle_35_n03792782_1989.png
subject-01,1,485,0.831176042556763,bear,bear,false,0485_fc_s01_false_bear_35_n02132136_7754.png
subject-01,1,486,1.23975706100464,bicycle,bicycle,true,0486_fc_s01_true_bicycle_35_n03792782_4403.png
subject-01,1,487,0.618521213531494,oven,oven,true,0487_fc_s01_true_oven_35_n04111531_3353.png
subject-01,1,488,0.864712953567505,elephant,elephant,true,0488_fc_s01_true_elephant_35_n02504013_6431.png
subject-01,1,489,0.71386981010437,bird,bird,false,0489_fc_s01_false_bird_35_n01796340_20055.png
subject-01,1,490,1.03623700141907,oven,oven,true,0490_fc_s01_true_oven_35_n04111531_22120.png
subject-01,1,491,0.738496780395508,airplane,airplane,true,0491_fc_s01_true_airplane_35_n02690373_2162.png
subject-01,1,492,0.914734840393066,dog,dog,false,0492_fc_s01_false_dog_35_n02100877_4371.png
subject-01,1,493,0.839363813400269,bear,bear,true,0493_fc_s01_true_bear_35_n02133161_1302.png
subject-01,1,494,1.07780408859253,dog,dog,true,0494_fc_s01_true_dog_35_n02105056_11269.png
subject-01,1,495,0.664585113525391,bird,bird,true,0495_fc_s01_true_bird_35_n01558993_38999.png
subject-01,1,496,0.726652145385742,bottle,bottle,false,0496_fc_s01_false_bottle_35_n04560804_915.png
subject-01,1,497,1.28134393692017,chair,bicycle,true,0497_fc_s01_true_bicycle_35_n02835271_6539.png
subject-01,1,498,NaN,na,oven,false,0498_fc_s01_false_oven_35_n04111531_6500.png
subject-01,1,499,0.544489145278931,oven,oven,true,0499_fc_s01_true_oven_35_n04111531_7064.png
subject-01,1,500,0.544917106628418,oven,oven,true,0500_fc_s01_true_oven_35_n04111531_21460.png
subject-01,1,501,0.615548849105835,cat,cat,false,0501_fc_s01_false_cat_35_n02125311_31100.png
subject-01,1,502,0.699706077575684,bird,bird,true,0502_fc_s01_true_bird_35_n01818515_8330.png
subject-01,1,503,0.678369045257568,airplane,airplane,false,0503_fc_s01_false_airplane_35_n02690373_5624.png
subject-01,1,504,1.23865699768066,bicycle,truck,false,0504_fc_s01_false_truck_35_n03417042_3066.png
subject-01,1,505,0.849189043045044,car,boat,false,0505_fc_s01_false_boat_35_n02951358_12867.png
subject-01,1,506,0.925717830657959,airplane,airplane,false,0506_fc_s01_false_airplane_35_n02690373_4198.png
subject-01,1,507,0.818367958068848,bear,bear,true,0507_fc_s01_true_bear_35_n02132136_4070.png
subject-01,1,508,1.3348560333252,oven,chair,false,0508_fc_s01_false_chair_35_n04429376_10453.png
subject-01,1,509,0.781063079833984,bicycle,bicycle,false,0509_fc_s01_false_bicycle_35_n03792782_51335.png
subject-01,1,510,NaN,na,elephant,false,0510_fc_s01_false_elephant_35_n02504013_5934.png
subject-01,1,511,1.50017786026001,knife,knife,true,0511_fc_s01_true_knife_35_n03041632_17285.png
subject-01,1,512,0.674794912338257,clock,clock,false,0512_fc_s01_false_clock_35_n02708093_6414.png
subject-01,1,513,0.84483003616333,truck,truck,false,0513_fc_s01_false_truck_35_n03417042_1000.png
subject-01,1,514,0.675600051879883,car,car,true,0514_fc_s01_true_car_35_n02814533_46508.png
subject-01,1,515,0.670082807540894,cat,cat,true,0515_fc_s01_true_cat_35_n02125311_23425.png
subject-01,1,516,0.724480867385864,elephant,elephant,true,0516_fc_s01_true_elephant_35_n02504013_12615.png
subject-01,1,517,1.50030112266541,chair,chair,true,0517_fc_s01_true_chair_35_n04429376_22811.png
subject-01,1,518,1.0175449848175,car,bicycle,true,0518_fc_s01_true_bicycle_35_n03792782_7388.png
subject-01,1,519,0.787806034088135,dog,dog,false,0519_fc_s01_false_dog_35_n02086240_5271.png
subject-01,1,520,0.564390897750854,airplane,airplane,true,0520_fc_s01_true_airplane_35_n02690373_2823.png
subject-01,1,521,1.5002338886261,elephant,elephant,false,0521_fc_s01_false_elephant_35_n02504458_6738.png
subject-01,1,522,1.11922597885132,bottle,bottle,false,0522_fc_s01_false_bottle_35_n04560804_10.png
subject-01,1,523,1.47385811805725,dog,dog,true,0523_fc_s01_true_dog_35_n02106662_10632.png
subject-01,1,524,0.70369291305542,oven,oven,true,0524_fc_s01_true_oven_35_n04111531_2855.png
subject-01,1,525,0.644154071807861,chair,chair,true,0525_fc_s01_true_chair_35_n04099969_7998.png
subject-01,1,526,0.874874830245972,bicycle,bicycle,false,0526_fc_s01_false_bicycle_35_n03792782_8333.png
subject-01,1,527,0.691260814666748,clock,clock,false,0527_fc_s01_false_clock_35_n02708093_2242.png
subject-01,1,528,0.999867916107178,bear,dog,false,0528_fc_s01_false_dog_35_n02090721_129.png
subject-01,1,529,0.784021139144897,truck,truck,true,0529_fc_s01_true_truck_35_n03417042_4883.png
subject-01,1,530,0.608648061752319,bear,bear,true,0530_fc_s01_true_bear_35_n02134084_22292.png
subject-01,1,531,0.947160959243774,knife,knife,false,0531_fc_s01_false_knife_35_n03041632_21590.png
subject-01,1,532,0.701585054397583,bird,bird,false,0532_fc_s01_false_bird_35_n01592084_4087.png
subject-01,1,533,0.688210964202881,airplane,airplane,false,0533_fc_s01_false_airplane_35_n02690373_3173.png
subject-01,1,534,0.680968999862671,boat,boat,true,0534_fc_s01_true_boat_35_n04612504_254.png
subject-01,1,535,0.713159084320068,chair,chair,true,0535_fc_s01_true_chair_35_n02791124_1135.png
subject-01,1,536,0.913671016693115,dog,dog,false,0536_fc_s01_false_dog_35_n02100877_3363.png
subject-01,1,537,0.806162118911743,dog,dog,false,0537_fc_s01_false_dog_35_n02106662_56099.png
subject-01,1,538,0.660322904586792,oven,oven,true,0538_fc_s01_true_oven_35_n04111531_5897.png
subject-01,1,539,1.10679602622986,bird,bird,false,0539_fc_s01_false_bird_35_n02037110_21381.png
subject-01,1,540,0.847403049468994,chair,chair,false,0540_fc_s01_false_chair_35_n04099969_3414.png
subject-01,1,541,0.677922964096069,cat,cat,false,0541_fc_s01_false_cat_35_n02123159_7580.png
subject-01,1,542,0.618360996246338,boat,boat,true,0542_fc_s01_true_boat_35_n02951358_31470.png
subject-01,1,543,0.648843050003052,cat,cat,true,0543_fc_s01_true_cat_35_n02123597_4040.png
subject-01,1,544,1.01942682266235,bear,bear,false,0544_fc_s01_false_bear_35_n02134418_4485.png
subject-01,1,545,0.695693016052246,boat,boat,true,0545_fc_s01_true_boat_35_n04612504_14418.png
subject-01,1,546,0.598291158676147,clock,clock,false,0546_fc_s01_false_clock_35_n03196217_4464.png
subject-01,1,547,1.01276111602783,bicycle,bicycle,true,0547_fc_s01_true_bicycle_35_n02835271_3642.png
subject-01,1,548,0.95121693611145,bottle,bottle,true,0548_fc_s01_true_bottle_35_n04591713_5702.png
subject-01,1,549,1.32179594039917,chair,chair,false,0549_fc_s01_false_chair_35_n03376595_787.png
subject-01,1,550,0.746525049209595,clock,clock,true,0550_fc_s01_true_clock_35_n04548280_1055.png
subject-01,1,551,0.922689914703369,truck,truck,false,0551_fc_s01_false_truck_35_n03796401_18074.png
subject-01,1,552,0.69318413734436,car,car,true,0552_fc_s01_true_car_35_n03100240_21982.png
subject-01,1,553,0.677500009536743,keyboard,keyboard,false,0553_fc_s01_false_keyboard_35_n03085013_24439.png
subject-01,1,554,1.09447717666626,bottle,bottle,false,0554_fc_s01_false_bottle_35_n04560804_15832.png
subject-01,1,555,0.618399143218994,elephant,elephant,false,0555_fc_s01_false_elephant_35_n02504458_1249.png
subject-01,1,556,0.694862127304077,airplane,airplane,false,0556_fc_s01_false_airplane_35_n02690373_6363.png
subject-01,1,557,0.687412977218628,bear,bear,true,0557_fc_s01_true_bear_35_n02134418_9289.png
subject-01,1,558,0.727822065353394,bicycle,bicycle,true,0558_fc_s01_true_bicycle_35_n02835271_12752.png
subject-01,1,559,0.89634895324707,keyboard,keyboard,true,0559_fc_s01_true_keyboard_35_n03085013_23562.png
subject-01,1,560,1.28079891204834,knife,airplane,false,0560_fc_s01_false_airplane_35_n02690373_1912.png
subject-01,1,561,0.683291912078857,bicycle,bicycle,true,0561_fc_s01_true_bicycle_35_n02835271_13729.png
subject-01,1,562,0.983937978744507,clock,clock,false,0562_fc_s01_false_clock_35_n03196217_8785.png
subject-01,1,563,0.806411981582642,chair,chair,false,0563_fc_s01_false_chair_35_n02791124_4547.png
subject-01,1,564,0.938523769378662,chair,chair,true,0564_fc_s01_true_chair_35_n04099969_14155.png
subject-01,1,565,0.646919965744019,boat,boat,false,0565_fc_s01_false_boat_35_n03662601_12323.png
subject-01,1,566,0.731263160705566,bear,bear,true,0566_fc_s01_true_bear_35_n02134084_4490.png
subject-01,1,567,0.76963210105896,keyboard,keyboard,true,0567_fc_s01_true_keyboard_35_n03085013_19439.png
subject-01,1,568,1.32410001754761,car,truck,false,0568_fc_s01_false_truck_35_n03796401_6503.png
subject-01,1,569,0.746920108795166,oven,oven,false,0569_fc_s01_false_oven_35_n04111531_6400.png
subject-01,1,570,0.679220199584961,knife,knife,false,0570_fc_s01_false_knife_35_n03041632_5640.png
subject-01,1,571,0.579720020294189,bird,bird,true,0571_fc_s01_true_bird_35_n01843383_3019.png
subject-01,1,572,0.688238859176636,airplane,airplane,false,0572_fc_s01_false_airplane_35_n02690373_2095.png
subject-01,1,573,0.996640920639038,chair,bottle,false,0573_fc_s01_false_bottle_35_n04560804_15263.png
subject-01,1,574,0.719199180603027,chair,chair,true,0574_fc_s01_true_chair_35_n04099969_45461.png
subject-01,1,575,0.829854965209961,bicycle,bicycle,false,0575_fc_s01_false_bicycle_35_n03792782_23334.png
subject-01,1,576,0.836162090301514,truck,truck,false,0576_fc_s01_false_truck_35_n03417042_16238.png
subject-01,1,577,1.04422903060913,oven,oven,true,0577_fc_s01_true_oven_35_n04111531_3477.png
subject-01,1,578,0.923038959503174,knife,knife,true,0578_fc_s01_true_knife_35_n03041632_4057.png
subject-01,1,579,0.66962194442749,clock,clock,false,0579_fc_s01_false_clock_35_n02708093_2054.png
subject-01,1,580,0.707990884780884,chair,chair,true,0580_fc_s01_true_chair_35_n02791124_1557.png
subject-01,1,581,0.994352102279663,keyboard,keyboard,false,0581_fc_s01_false_keyboard_35_n04505470_912.png
subject-01,1,582,0.703149795532227,bird,bird,true,0582_fc_s01_true_bird_35_n02011460_22291.png
subject-01,1,583,0.703283786773682,elephant,elephant,true,0583_fc_s01_true_elephant_35_n02504458_5412.png
subject-01,1,584,1.07997703552246,truck,truck,true,0584_fc_s01_true_truck_35_n04467665_25130.png
subject-01,1,585,0.534301996231079,oven,oven,true,0585_fc_s01_true_oven_35_n04111531_13822.png
subject-01,1,586,0.604878902435303,bicycle,bicycle,false,0586_fc_s01_false_bicycle_35_n03792782_5864.png
subject-01,1,587,0.767520904541016,bottle,bottle,true,0587_fc_s01_true_bottle_35_n04591713_1174.png
subject-01,1,588,1.1356680393219,bottle,bottle,false,0588_fc_s01_false_bottle_35_n03937543_10543.png
subject-01,1,589,0.867806911468506,elephant,elephant,false,0589_fc_s01_false_elephant_35_n02504458_3491.png
subject-01,1,590,0.990127086639404,elephant,elephant,true,0590_fc_s01_true_elephant_35_n02504013_3810.png
subject-01,1,591,0.638465166091919,clock,clock,true,0591_fc_s01_true_clock_35_n02708093_3360.png
subject-01,1,592,0.615201950073242,cat,cat,false,0592_fc_s01_false_cat_35_n02123045_15010.png
subject-01,1,593,0.885549068450928,elephant,elephant,false,0593_fc_s01_false_elephant_35_n02504013_637.png
subject-01,1,594,0.79419994354248,bird,bird,true,0594_fc_s01_true_bird_35_n01530575_2039.png
subject-01,1,595,0.726599931716919,clock,clock,true,0595_fc_s01_true_clock_35_n04548280_9828.png
subject-01,1,596,0.857249975204468,car,car,true,0596_fc_s01_true_car_35_n02814533_58462.png
subject-01,1,597,1.01969981193542,bird,bird,false,0597_fc_s01_false_bird_35_n02002556_25052.png
subject-01,1,598,0.682203054428101,cat,cat,true,0598_fc_s01_true_cat_35_n02123394_1122.png
subject-01,1,599,0.952908039093018,bicycle,bicycle,false,0599_fc_s01_false_bicycle_35_n03792782_3069.png
subject-01,1,600,1.20693016052246,cat,bird,false,0600_fc_s01_false_bird_35_n01796340_4643.png
subject-01,1,601,0.761505126953125,elephant,elephant,true,0601_fc_s01_true_elephant_35_n02504458_3261.png
subject-01,1,602,0.846310138702393,car,car,true,0602_fc_s01_true_car_35_n02814533_25278.png
subject-01,1,603,1.01683497428894,cat,keyboard,false,0603_fc_s01_false_keyboard_35_n03085013_24124.png
subject-01,1,604,0.824851036071777,clock,clock,true,0604_fc_s01_true_clock_35_n04548280_503.png
subject-01,1,605,0.617139101028442,oven,oven,false,0605_fc_s01_false_oven_35_n04111531_18245.png
subject-01,1,606,0.688030004501343,car,car,false,0606_fc_s01_false_car_35_n03100240_16866.png
subject-01,1,607,0.794165134429932,car,car,true,0607_fc_s01_true_car_35_n04285008_9456.png
subject-01,1,608,0.734955072402954,oven,oven,true,0608_fc_s01_true_oven_35_n04111531_13590.png
subject-01,1,609,0.705224990844727,bear,bear,true,0609_fc_s01_true_bear_35_n02132136_3090.png
subject-01,1,610,0.705640077590942,chair,chair,false,0610_fc_s01_false_chair_35_n03376595_14748.png
subject-01,1,611,0.974315166473389,elephant,elephant,true,0611_fc_s01_true_elephant_35_n02504458_379.png
subject-01,1,612,1.12857413291931,oven,oven,true,0612_fc_s01_true_oven_35_n04111531_22563.png
subject-01,1,613,0.653352022171021,keyboard,keyboard,false,0613_fc_s01_false_keyboard_35_n04505470_5354.png
subject-01,1,614,0.691484928131104,chair,chair,false,0614_fc_s01_false_chair_35_n04429376_19617.png
subject-01,1,615,0.837476968765259,bird,bird,false,0615_fc_s01_false_bird_35_n02013706_651.png
subject-01,1,616,0.724100112915039,chair,chair,true,0616_fc_s01_true_chair_35_n04099969_6309.png
subject-01,1,617,1.16273999214172,car,car,false,0617_fc_s01_false_car_35_n02814533_90486.png
subject-01,1,618,0.59331488609314,keyboard,keyboard,true,0618_fc_s01_true_keyboard_35_n04505470_2669.png
subject-01,1,619,0.885626077651978,car,car,true,0619_fc_s01_true_car_35_n04285008_3631.png
subject-01,1,620,0.779870986938477,car,car,true,0620_fc_s01_true_car_35_n03100240_9171.png
subject-01,1,621,0.910514831542969,bird,bird,true,0621_fc_s01_true_bird_35_n02013706_10478.png
subject-01,1,622,0.781035184860229,car,car,false,0622_fc_s01_false_car_35_n04285008_14689.png
subject-01,1,623,0.651463031768799,oven,oven,true,0623_fc_s01_true_oven_35_n04111531_6415.png
subject-01,1,624,1.2820680141449,bottle,bottle,false,0624_fc_s01_false_bottle_35_n04579145_961.png
subject-01,1,625,0.612637996673584,airplane,airplane,false,0625_fc_s01_false_airplane_35_n02690373_6856.png
subject-01,1,626,1.42084693908691,truck,truck,false,0626_fc_s01_false_truck_35_n03417042_2155.png
subject-01,1,627,0.883175849914551,keyboard,keyboard,true,0627_fc_s01_true_keyboard_35_n04505470_8620.png
subject-01,1,628,1.12120389938354,elephant,elephant,true,0628_fc_s01_true_elephant_35_n02504013_6466.png
subject-01,1,629,0.845847129821777,cat,cat,true,0629_fc_s01_true_cat_35_n02124075_7059.png
subject-01,1,630,0.992209196090698,dog,dog,true,0630_fc_s01_true_dog_35_n02096437_1984.png
subject-01,1,631,0.676723003387451,clock,clock,true,0631_fc_s01_true_clock_35_n02708093_7060.png
subject-01,1,632,0.809431076049805,bicycle,bicycle,false,0632_fc_s01_false_bicycle_35_n03792782_18665.png
subject-01,1,633,1.03178882598877,chair,chair,false,0633_fc_s01_false_chair_35_n03376595_4212.png
subject-01,1,634,1.27046990394592,chair,chair,false,0634_fc_s01_false_chair_35_n03376595_1943.png
subject-01,1,635,1.03303718566895,boat,boat,true,0635_fc_s01_true_boat_35_n03662601_17571.png
subject-01,1,636,0.887208938598633,bird,bird,false,0636_fc_s01_false_bird_35_n01614925_19918.png
subject-01,1,637,0.917339086532593,airplane,airplane,false,0637_fc_s01_false_airplane_35_n02690373_4191.png
subject-01,1,638,0.70398211479187,cat,cat,true,0638_fc_s01_true_cat_35_n02125311_53315.png
subject-01,1,639,1.35063099861145,oven,oven,false,0639_fc_s01_false_oven_35_n04111531_797.png
subject-01,1,640,0.643079042434692,bear,bear,true,0640_fc_s01_true_bear_35_n02132136_258.png
subject-01,1,641,1.20206308364868,bird,bird,false,0641_fc_s01_false_bird_35_n01558993_869.png
subject-01,1,642,0.678465127944946,oven,oven,false,0642_fc_s01_false_oven_35_n04111531_16144.png
subject-01,1,643,0.88699197769165,knife,knife,false,0643_fc_s01_false_knife_35_n03041632_29038.png
subject-01,1,644,0.700918197631836,oven,oven,true,0644_fc_s01_true_oven_35_n04111531_594.png
subject-01,1,645,0.955482959747314,car,car,false,0645_fc_s01_false_car_35_n03100240_6248.png
subject-01,1,646,0.664139986038208,airplane,airplane,true,0646_fc_s01_true_airplane_35_n02690373_9848.png
subject-01,1,647,0.672376871109009,clock,clock,true,0647_fc_s01_true_clock_35_n03196217_11054.png
subject-01,1,648,0.840886116027832,airplane,airplane,false,0648_fc_s01_false_airplane_35_n02690373_3753.png
subject-01,1,649,1.08755683898926,oven,knife,true,0649_fc_s01_true_knife_35_n03041632_27929.png
subject-01,1,650,0.671983957290649,cat,cat,false,0650_fc_s01_false_cat_35_n02123394_8507.png
subject-01,1,651,0.658439874649048,airplane,airplane,true,0651_fc_s01_true_airplane_35_n02690373_18864.png
subject-01,1,652,1.14287614822388,chair,chair,true,0652_fc_s01_true_chair_35_n02791124_958.png
subject-01,1,653,1.0195369720459,dog,dog,false,0653_fc_s01_false_dog_35_n02085782_6241.png
subject-01,1,654,0.812229156494141,bottle,bottle,false,0654_fc_s01_false_bottle_35_n04591713_4035.png
subject-01,1,655,0.760488986968994,dog,dog,false,0655_fc_s01_false_dog_35_n02099601_8560.png
subject-01,1,656,1.01304292678833,dog,dog,false,0656_fc_s01_false_dog_35_n02093754_5867.png
subject-01,1,657,0.999284982681274,knife,knife,false,0657_fc_s01_false_knife_35_n03041632_29680.png
subject-01,1,658,0.767944097518921,chair,chair,false,0658_fc_s01_false_chair_35_n04099969_6189.png
subject-01,1,659,0.792033910751343,truck,truck,true,0659_fc_s01_true_truck_35_n03417042_26865.png
subject-01,1,660,0.622711896896362,oven,oven,false,0660_fc_s01_false_oven_35_n04111531_14804.png
subject-01,1,661,0.723299026489258,cat,cat,true,0661_fc_s01_true_cat_35_n02123159_6087.png
subject-01,1,662,1.4394211769104,dog,dog,false,0662_fc_s01_false_dog_35_n02093647_3072.png
subject-01,1,663,0.53223705291748,clock,clock,true,0663_fc_s01_true_clock_35_n02708093_8386.png
subject-01,1,664,0.770582914352417,airplane,airplane,true,0664_fc_s01_true_airplane_35_n02690373_8538.png
subject-01,1,665,0.987197160720825,elephant,elephant,true,0665_fc_s01_true_elephant_35_n02504458_7660.png
subject-01,1,666,1.12577295303345,clock,clock,true,0666_fc_s01_true_clock_35_n03196217_3351.png
subject-01,1,667,0.858290910720825,elephant,elephant,true,0667_fc_s01_true_elephant_35_n02504458_3099.png
subject-01,1,668,1.0045120716095,knife,knife,true,0668_fc_s01_true_knife_35_n03041632_52929.png
subject-01,1,669,1.05914998054504,boat,boat,false,0669_fc_s01_false_boat_35_n03662601_4612.png
subject-01,1,670,0.773628950119019,knife,knife,true,0670_fc_s01_true_knife_35_n03041632_20517.png
subject-01,1,671,0.913920879364014,keyboard,keyboard,false,0671_fc_s01_false_keyboard_35_n03085013_20957.png
subject-01,1,672,0.774609088897705,clock,clock,true,0672_fc_s01_true_clock_35_n04548280_3997.png
subject-01,1,673,1.01297903060913,car,car,true,0673_fc_s01_true_car_35_n02814533_26516.png
subject-01,1,674,1.02151107788086,clock,clock,true,0674_fc_s01_true_clock_35_n03196217_3669.png
subject-01,1,675,0.929975032806396,clock,clock,false,0675_fc_s01_false_clock_35_n02708093_2006.png
subject-01,1,676,0.944407939910889,bottle,bottle,false,0676_fc_s01_false_bottle_35_n03983396_8041.png
subject-01,1,677,0.8766930103302,elephant,elephant,true,0677_fc_s01_true_elephant_35_n02504013_5432.png
subject-01,1,678,0.99925708770752,keyboard,keyboard,false,0678_fc_s01_false_keyboard_35_n03085013_22980.png
subject-01,1,679,0.853698015213013,elephant,elephant,true,0679_fc_s01_true_elephant_35_n02504458_2970.png
subject-01,1,680,0.846128940582275,bicycle,bicycle,true,0680_fc_s01_true_bicycle_35_n02835271_15930.png
subject-01,1,681,1.30875706672668,bicycle,bicycle,false,0681_fc_s01_false_bicycle_35_n03792782_4382.png
subject-01,1,682,NaN,na,truck,true,0682_fc_s01_true_truck_35_n04467665_23055.png
subject-01,1,683,0.709831953048706,bear,bear,true,0683_fc_s01_true_bear_35_n02132136_8619.png
subject-01,1,684,0.878509998321533,dog,dog,true,0684_fc_s01_true_dog_35_n02104365_8609.png
subject-01,1,685,1.13893699645996,dog,bear,false,0685_fc_s01_false_bear_35_n02134084_6783.png
subject-01,1,686,0.679194211959839,oven,oven,true,0686_fc_s01_true_oven_35_n04111531_9762.png
subject-01,1,687,0.979526996612549,keyboard,keyboard,false,0687_fc_s01_false_keyboard_35_n04505470_5092.png
subject-01,1,688,1.39614391326904,knife,knife,false,0688_fc_s01_false_knife_35_n03041632_16932.png
subject-01,1,689,1.02478408813477,dog,dog,false,0689_fc_s01_false_dog_35_n02109525_49924.png
subject-01,1,690,0.664839029312134,cat,cat,false,0690_fc_s01_false_cat_35_n02123597_13140.png
subject-01,1,691,0.833591938018799,truck,truck,true,0691_fc_s01_true_truck_35_n04467665_2246.png
subject-01,1,692,0.66594386100769,boat,boat,false,0692_fc_s01_false_boat_35_n03662601_6916.png
subject-01,1,693,0.718234777450562,bottle,bottle,true,0693_fc_s01_true_bottle_35_n04560804_5636.png
subject-01,1,694,0.696617126464844,elephant,elephant,false,0694_fc_s01_false_elephant_35_n02504013_3771.png
subject-01,1,695,0.843190908432007,knife,knife,false,0695_fc_s01_false_knife_35_n03041632_39952.png
subject-01,1,696,0.881892204284668,bottle,bottle,false,0696_fc_s01_false_bottle_35_n02823428_10942.png
subject-01,1,697,0.628355026245117,keyboard,keyboard,true,0697_fc_s01_true_keyboard_35_n04505470_882.png
subject-01,1,698,0.666860818862915,keyboard,keyboard,true,0698_fc_s01_true_keyboard_35_n03085013_15484.png
subject-01,1,699,1.32728385925293,dog,dog,true,0699_fc_s01_true_dog_35_n02100583_19533.png
subject-01,1,700,1.50003695487976,keyboard,truck,false,0700_fc_s01_false_truck_35_n03796401_9136.png
subject-01,1,701,0.798463106155396,dog,dog,false,0701_fc_s01_false_dog_35_n02110185_14056.png
subject-01,1,702,0.598877191543579,clock,clock,false,0702_fc_s01_false_clock_35_n02708093_56.png
subject-01,1,703,0.867153882980347,elephant,elephant,false,0703_fc_s01_false_elephant_35_n02504458_4849.png
subject-01,1,704,0.805559873580933,boat,boat,false,0704_fc_s01_false_boat_35_n02951358_7006.png
subject-01,1,705,0.783820867538452,bear,bear,false,0705_fc_s01_false_bear_35_n02133161_13356.png
subject-01,1,706,0.860340118408203,keyboard,keyboard,false,0706_fc_s01_false_keyboard_35_n04505470_3937.png
subject-01,1,707,0.522848844528198,boat,boat,true,0707_fc_s01_true_boat_35_n04273569_26182.png
subject-01,1,708,0.975143909454346,bird,bird,true,0708_fc_s01_true_bird_35_n01582220_4924.png
subject-01,1,709,1.08371901512146,knife,knife,false,0709_fc_s01_false_knife_35_n03041632_11285.png
subject-01,1,710,0.837961196899414,oven,oven,true,0710_fc_s01_true_oven_35_n04111531_8681.png
subject-01,1,711,0.636662006378174,cat,cat,false,0711_fc_s01_false_cat_35_n02125311_28052.png
subject-01,1,712,0.86931300163269,dog,dog,true,0712_fc_s01_true_dog_35_n02105855_18455.png
subject-01,1,713,0.715629100799561,bear,bear,false,0713_fc_s01_false_bear_35_n02134084_1655.png
subject-01,1,714,0.954303979873657,bottle,bottle,true,0714_fc_s01_true_bottle_35_n03937543_8063.png
subject-01,1,715,0.692255973815918,knife,knife,true,0715_fc_s01_true_knife_35_n03041632_45569.png
subject-01,1,716,0.784803152084351,knife,knife,false,0716_fc_s01_false_knife_35_n03041632_15754.png
subject-01,1,717,0.631317138671875,bird,bird,true,0717_fc_s01_true_bird_35_n01828970_25642.png
subject-01,1,718,1.09967279434204,car,car,false,0718_fc_s01_false_car_35_n03100240_23804.png
subject-01,1,719,1.14610910415649,truck,clock,true,0719_fc_s01_true_clock_35_n03196217_8221.png
subject-01,1,720,0.56257700920105,cat,cat,false,0720_fc_s01_false_cat_35_n02123159_6089.png
subject-01,1,721,0.785374164581299,elephant,elephant,false,0721_fc_s01_false_elephant_35_n02504013_1494.png
subject-01,1,722,0.80188512802124,bottle,bottle,true,0722_fc_s01_true_bottle_35_n04579145_5451.png
subject-01,1,723,0.724145889282227,keyboard,keyboard,true,0723_fc_s01_true_keyboard_35_n03085013_20825.png
subject-01,1,724,0.7326979637146,bear,bear,false,0724_fc_s01_false_bear_35_n02133161_6983.png
subject-01,1,725,1.16292095184326,truck,truck,true,0725_fc_s01_true_truck_35_n04467665_3094.png
subject-01,1,726,0.633231163024902,clock,clock,false,0726_fc_s01_false_clock_35_n03196217_6999.png
subject-01,1,727,1.03181600570679,truck,truck,false,0727_fc_s01_false_truck_35_n03417042_4587.png
subject-01,1,728,1.20009613037109,bird,bird,false,0728_fc_s01_false_bird_35_n01829413_2459.png
subject-01,1,729,1.47836112976074,bear,bear,true,0729_fc_s01_true_bear_35_n02134084_7274.png
subject-01,1,730,0.817106008529663,cat,cat,false,0730_fc_s01_false_cat_35_n02123597_3916.png
subject-01,1,731,0.925440073013306,knife,knife,false,0731_fc_s01_false_knife_35_n03041632_362.png
subject-01,1,732,0.93196702003479,truck,truck,false,0732_fc_s01_false_truck_35_n04467665_2044.png
subject-01,1,733,0.956582069396973,chair,chair,false,0733_fc_s01_false_chair_35_n04429376_6272.png
subject-01,1,734,1.11711812019348,bear,bear,true,0734_fc_s01_true_bear_35_n02134418_2022.png
subject-01,1,735,0.757375001907349,boat,boat,false,0735_fc_s01_false_boat_35_n03344393_595.png
subject-01,1,736,0.850023984909058,dog,dog,true,0736_fc_s01_true_dog_35_n02109047_4167.png
subject-01,1,737,0.896715879440308,dog,dog,false,0737_fc_s01_false_dog_35_n02113023_863.png
subject-01,1,738,1.21108889579773,chair,cat,false,0738_fc_s01_false_cat_35_n02123597_3314.png
subject-01,1,739,1.24367690086365,bear,bear,true,0739_fc_s01_true_bear_35_n02134084_14754.png
subject-01,1,740,0.665786027908325,cat,cat,true,0740_fc_s01_true_cat_35_n02123159_1233.png
subject-01,1,741,0.987770080566406,bicycle,bicycle,true,0741_fc_s01_true_bicycle_35_n03792782_634.png
subject-01,1,742,NaN,na,airplane,false,0742_fc_s01_false_airplane_35_n02690373_3362.png
subject-01,1,743,0.642665863037109,keyboard,keyboard,false,0743_fc_s01_false_keyboard_35_n03085013_24001.png
subject-01,1,744,0.75161600112915,dog,dog,true,0744_fc_s01_true_dog_35_n02111129_6560.png
subject-01,1,745,0.974103212356567,knife,knife,false,0745_fc_s01_false_knife_35_n03041632_54627.png
subject-01,1,746,0.904133796691895,chair,chair,true,0746_fc_s01_true_chair_35_n03376595_4322.png
subject-01,1,747,0.851001024246216,bottle,bottle,true,0747_fc_s01_true_bottle_35_n02823428_3178.png
subject-01,1,748,0.651242017745972,boat,boat,true,0748_fc_s01_true_boat_35_n03344393_2919.png
subject-01,1,749,0.659687042236328,dog,dog,true,0749_fc_s01_true_dog_35_n02095570_11142.png
subject-01,1,750,0.952476024627686,dog,dog,false,0750_fc_s01_false_dog_35_n02107683_2904.png
subject-01,1,751,0.590733051300049,boat,boat,true,0751_fc_s01_true_boat_35_n04612504_15440.png
subject-01,1,752,0.899196863174438,keyboard,keyboard,false,0752_fc_s01_false_keyboard_35_n04505470_4549.png
subject-01,1,753,0.575288057327271,bear,bear,false,0753_fc_s01_false_bear_35_n02132136_2248.png
subject-01,1,754,0.668333053588867,dog,dog,true,0754_fc_s01_true_dog_35_n02102177_7737.png
subject-01,1,755,1.2745349407196,airplane,airplane,false,0755_fc_s01_false_airplane_35_n02690373_5967.png
subject-01,1,756,0.898876905441284,keyboard,keyboard,true,0756_fc_s01_true_keyboard_35_n03085013_24154.png
subject-01,1,757,0.845376014709473,bottle,bottle,false,0757_fc_s01_false_bottle_35_n04557648_4356.png
subject-01,1,758,0.899989128112793,bottle,bottle,true,0758_fc_s01_true_bottle_35_n02823428_5807.png
subject-01,1,759,0.89854907989502,bicycle,bicycle,false,0759_fc_s01_false_bicycle_35_n02835271_14585.png
subject-01,1,760,0.991077899932861,car,car,false,0760_fc_s01_false_car_35_n03100240_18270.png
subject-01,1,761,0.853338956832886,boat,boat,false,0761_fc_s01_false_boat_35_n03344393_994.png
subject-01,1,762,1.09198999404907,oven,keyboard,true,0762_fc_s01_true_keyboard_35_n04505470_3002.png
subject-01,1,763,0.946282863616943,bicycle,bicycle,false,0763_fc_s01_false_bicycle_35_n02835271_12028.png
subject-01,1,764,0.814738988876343,bottle,bottle,false,0764_fc_s01_false_bottle_35_n03983396_22979.png
subject-01,1,765,0.839076042175293,bottle,bottle,false,0765_fc_s01_false_bottle_35_n03937543_211.png
subject-01,1,766,0.637321949005127,oven,oven,false,0766_fc_s01_false_oven_35_n04111531_550.png
subject-01,1,767,0.829586982727051,car,car,false,0767_fc_s01_false_car_35_n03100240_9412.png
subject-01,1,768,0.845824003219604,bicycle,bicycle,true,0768_fc_s01_true_bicycle_35_n03792782_17545.png
subject-01,1,769,1.50014591217041,bicycle,car,true,0769_fc_s01_true_car_35_n04285008_14161.png
subject-01,1,770,0.768877983093262,boat,boat,true,0770_fc_s01_true_boat_35_n02951358_20379.png
subject-01,1,771,0.783304929733276,elephant,elephant,false,0771_fc_s01_false_elephant_35_n02504013_237.png
subject-01,1,772,0.999907970428467,truck,truck,false,0772_fc_s01_false_truck_35_n03796401_6727.png
subject-01,1,773,0.968482971191406,chair,elephant,false,0773_fc_s01_false_elephant_35_n02504013_1519.png
subject-01,1,774,0.823126077651978,bird,bird,true,0774_fc_s01_true_bird_35_n01560419_9124.png
subject-01,1,775,1.22885203361511,truck,oven,false,0775_fc_s01_false_oven_35_n04111531_4918.png
subject-01,1,776,0.677486896514893,bicycle,bicycle,false,0776_fc_s01_false_bicycle_35_n03792782_4210.png
subject-01,1,777,1.44602990150452,bear,bear,false,0777_fc_s01_false_bear_35_n02132136_10988.png
subject-01,1,778,1.10846996307373,bottle,bottle,true,0778_fc_s01_true_bottle_35_n04579145_1705.png
subject-01,1,779,1.19297504425049,dog,dog,true,0779_fc_s01_true_dog_35_n02094258_1036.png
subject-01,1,780,0.761423110961914,bird,bird,false,0780_fc_s01_false_bird_35_n01558993_11093.png
subject-01,1,781,0.800193071365356,dog,dog,true,0781_fc_s01_true_dog_35_n02112018_9196.png
subject-01,1,782,0.786326885223389,keyboard,keyboard,false,0782_fc_s01_false_keyboard_35_n03085013_20691.png
subject-01,1,783,0.87923002243042,truck,truck,false,0783_fc_s01_false_truck_35_n03796401_6923.png
subject-01,1,784,0.871365070343018,bird,bird,true,0784_fc_s01_true_bird_35_n01601694_4224.png
subject-01,1,785,0.677474975585938,elephant,elephant,true,0785_fc_s01_true_elephant_35_n02504458_174.png
subject-01,1,786,1.47791600227356,airplane,airplane,true,0786_fc_s01_true_airplane_35_n02690373_4175.png
subject-01,1,787,0.716351985931396,knife,knife,true,0787_fc_s01_true_knife_35_n03041632_31849.png
subject-01,1,788,1.00094294548035,knife,knife,true,0788_fc_s01_true_knife_35_n03041632_24883.png
subject-01,1,789,0.717566013336182,car,car,true,0789_fc_s01_true_car_35_n03100240_20935.png
subject-01,1,790,0.701905012130737,chair,chair,false,0790_fc_s01_false_chair_35_n03376595_1810.png
subject-01,1,791,0.648149967193604,knife,knife,true,0791_fc_s01_true_knife_35_n03041632_15431.png
subject-01,1,792,0.67064380645752,bottle,bottle,true,0792_fc_s01_true_bottle_35_n03983396_1321.png
subject-01,1,793,1.17116189002991,cat,cat,false,0793_fc_s01_false_cat_35_n02123597_9467.png
subject-01,1,794,0.963886976242065,elephant,elephant,true,0794_fc_s01_true_elephant_35_n02504458_3599.png
subject-01,1,795,1.28013205528259,bear,bear,true,0795_fc_s01_true_bear_35_n02132136_4817.png
subject-01,1,796,0.734902143478394,boat,boat,false,0796_fc_s01_false_boat_35_n03662601_10330.png
subject-01,1,797,0.69486403465271,bottle,bottle,true,0797_fc_s01_true_bottle_35_n04579145_6186.png
subject-01,1,798,0.649145126342773,airplane,airplane,true,0798_fc_s01_true_airplane_35_n02690373_3383.png
subject-01,1,799,1.0476450920105,elephant,elephant,false,0799_fc_s01_false_elephant_35_n02504013_1436.png
subject-01,1,800,1.17824721336365,car,car,false,0800_fc_s01_false_car_35_n03100240_6311.png
subject-01,1,801,0.849650144577026,elephant,elephant,false,0801_fc_s01_false_elephant_35_n02504458_6878.png
subject-01,1,802,0.506447076797485,boat,boat,true,0802_fc_s01_true_boat_35_n04273569_928.png
subject-01,1,803,0.51272988319397,oven,oven,false,0803_fc_s01_false_oven_35_n04111531_82.png
subject-01,1,804,0.775032043457031,elephant,elephant,true,0804_fc_s01_true_elephant_35_n02504458_12175.png
subject-01,1,805,1.02749180793762,elephant,bear,true,0805_fc_s01_true_bear_35_n02134418_643.png
subject-01,1,806,0.560457944869995,car,car,false,0806_fc_s01_false_car_35_n02814533_1344.png
subject-01,1,807,0.91259503364563,elephant,elephant,true,0807_fc_s01_true_elephant_35_n02504458_4819.png
subject-01,1,808,0.605135917663574,bicycle,bicycle,false,0808_fc_s01_false_bicycle_35_n03792782_626.png
subject-01,1,809,1.21909403800964,bird,bear,true,0809_fc_s01_true_bear_35_n02134418_2657.png
subject-01,1,810,0.64360785484314,bottle,bottle,true,0810_fc_s01_true_bottle_35_n04557648_2512.png
subject-01,1,811,0.781859159469604,oven,oven,false,0811_fc_s01_false_oven_35_n04111531_8082.png
subject-01,1,812,0.682589054107666,bird,bird,false,0812_fc_s01_false_bird_35_n01855672_2187.png
subject-01,1,813,1.28114295005798,bottle,dog,true,0813_fc_s01_true_dog_35_n02108915_10239.png
subject-01,1,814,NaN,na,elephant,true,0814_fc_s01_true_elephant_35_n02504013_2033.png
subject-01,1,815,0.889923095703125,airplane,airplane,false,0815_fc_s01_false_airplane_35_n02690373_7573.png
subject-01,1,816,0.744402885437012,dog,dog,true,0816_fc_s01_true_dog_35_n02092339_7915.png
subject-01,1,817,1.41285586357117,dog,cat,false,0817_fc_s01_false_cat_35_n02123159_6170.png
subject-01,1,818,0.621361017227173,bicycle,bicycle,false,0818_fc_s01_false_bicycle_35_n02835271_9672.png
subject-01,1,819,0.684107780456543,oven,oven,false,0819_fc_s01_false_oven_35_n04111531_16583.png
subject-01,1,820,0.722518920898438,bear,bear,true,0820_fc_s01_true_bear_35_n02132136_14829.png
subject-01,1,821,1.12307381629944,airplane,airplane,true,0821_fc_s01_true_airplane_35_n02690373_2619.png
subject-01,1,822,0.953553199768066,bottle,bottle,true,0822_fc_s01_true_bottle_35_n04560804_13316.png
subject-01,1,823,0.877910852432251,dog,dog,false,0823_fc_s01_false_dog_35_n02111277_25819.png
subject-01,1,824,0.784317016601562,elephant,elephant,true,0824_fc_s01_true_elephant_35_n02504458_3197.png
subject-01,1,825,0.938958883285522,boat,boat,false,0825_fc_s01_false_boat_35_n03344393_6869.png
subject-01,1,826,0.968921899795532,clock,clock,false,0826_fc_s01_false_clock_35_n03196217_2639.png
subject-01,1,827,0.839447021484375,keyboard,keyboard,true,0827_fc_s01_true_keyboard_35_n03085013_3980.png
subject-01,1,828,0.946090936660767,dog,dog,true,0828_fc_s01_true_dog_35_n02088466_7803.png
subject-01,1,829,0.716461181640625,bicycle,bicycle,true,0829_fc_s01_true_bicycle_35_n02835271_10293.png
subject-01,1,830,0.687011003494263,cat,cat,false,0830_fc_s01_false_cat_35_n02123597_9663.png
subject-01,1,831,0.763504028320312,truck,truck,true,0831_fc_s01_true_truck_35_n03417042_6691.png
subject-01,1,832,1.40812683105469,truck,truck,true,0832_fc_s01_true_truck_35_n03417042_11091.png
subject-01,1,833,0.778309106826782,bottle,bottle,false,0833_fc_s01_false_bottle_35_n04557648_12039.png
subject-01,1,834,0.924345970153809,chair,chair,true,0834_fc_s01_true_chair_35_n04429376_20873.png
subject-01,1,835,NaN,na,dog,false,0835_fc_s01_false_dog_35_n02087394_9938.png
subject-01,1,836,0.585150003433228,oven,oven,false,0836_fc_s01_false_oven_35_n04111531_8036.png
subject-01,1,837,0.631664991378784,cat,cat,true,0837_fc_s01_true_cat_35_n02124075_4377.png
subject-01,1,838,1.06995415687561,bottle,bottle,false,0838_fc_s01_false_bottle_35_n03937543_2344.png
subject-01,1,839,0.618437767028809,keyboard,keyboard,true,0839_fc_s01_true_keyboard_35_n04505470_1833.png
subject-01,1,840,1.00895500183105,boat,boat,false,0840_fc_s01_false_boat_35_n02951358_3067.png
subject-01,1,841,0.757344007492065,cat,cat,true,0841_fc_s01_true_cat_35_n02123394_4734.png
subject-01,1,842,0.587970972061157,boat,boat,true,0842_fc_s01_true_boat_35_n04612504_13668.png
subject-01,1,843,0.64811897277832,clock,clock,false,0843_fc_s01_false_clock_35_n04548280_5466.png
subject-01,1,844,0.748637914657593,elephant,elephant,false,0844_fc_s01_false_elephant_35_n02504013_11073.png
subject-01,1,845,0.681321859359741,bottle,bottle,true,0845_fc_s01_true_bottle_35_n04591713_7133.png
subject-01,1,846,0.833750009536743,truck,truck,true,0846_fc_s01_true_truck_35_n04467665_13989.png
subject-01,1,847,0.503956079483032,oven,oven,false,0847_fc_s01_false_oven_35_n04111531_9297.png
subject-01,1,848,0.68274712562561,clock,clock,true,0848_fc_s01_true_clock_35_n03196217_5888.png
subject-01,1,849,NaN,na,bottle,true,0849_fc_s01_true_bottle_35_n04591713_3409.png
subject-01,1,850,0.551727056503296,airplane,airplane,true,0850_fc_s01_true_airplane_35_n02690373_2447.png
subject-01,1,851,0.982301950454712,truck,truck,false,0851_fc_s01_false_truck_35_n04467665_3529.png
subject-01,1,852,0.590814113616943,bird,bird,true,0852_fc_s01_true_bird_35_n01560419_631.png
subject-01,1,853,0.7344651222229,keyboard,bottle,false,0853_fc_s01_false_bottle_35_n03983396_3782.png
subject-01,1,854,0.667103052139282,boat,boat,true,0854_fc_s01_true_boat_35_n03344393_7773.png
subject-01,1,855,0.635361909866333,oven,oven,true,0855_fc_s01_true_oven_35_n04111531_7034.png
subject-01,1,856,1.05995607376099,bear,bear,true,0856_fc_s01_true_bear_35_n02134418_1330.png
subject-01,1,857,0.598634958267212,cat,cat,true,0857_fc_s01_true_cat_35_n02123159_5467.png
subject-01,1,858,1.20502710342407,clock,clock,false,0858_fc_s01_false_clock_35_n02708093_616.png
subject-01,1,859,1.38932394981384,elephant,elephant,true,0859_fc_s01_true_elephant_35_n02504013_3384.png
subject-01,1,860,0.797869920730591,bird,bird,true,0860_fc_s01_true_bird_35_n01795545_14857.png
subject-01,1,861,0.530338048934937,clock,clock,true,0861_fc_s01_true_clock_35_n02708093_1124.png
subject-01,1,862,0.938785076141357,truck,truck,false,0862_fc_s01_false_truck_35_n03796401_26801.png
subject-01,1,863,0.653344869613647,elephant,elephant,false,0863_fc_s01_false_elephant_35_n02504458_4139.png
subject-01,1,864,0.76965594291687,bicycle,bicycle,false,0864_fc_s01_false_bicycle_35_n03792782_1418.png
subject-01,1,865,0.645591974258423,chair,chair,true,0865_fc_s01_true_chair_35_n04429376_2693.png
subject-01,1,866,0.70009183883667,boat,boat,false,0866_fc_s01_false_boat_35_n03344393_4012.png
subject-01,1,867,0.57671594619751,boat,boat,true,0867_fc_s01_true_boat_35_n03662601_1926.png
subject-01,1,868,0.855081796646118,bicycle,bottle,false,0868_fc_s01_false_bottle_35_n04560804_2448.png
subject-01,1,869,0.777704954147339,keyboard,keyboard,false,0869_fc_s01_false_keyboard_35_n04505470_2921.png
subject-01,1,870,0.816298961639404,chair,chair,true,0870_fc_s01_true_chair_35_n04429376_3452.png
subject-01,1,871,0.740620851516724,car,car,false,0871_fc_s01_false_car_35_n03100240_7454.png
subject-01,1,872,0.763033866882324,bicycle,bicycle,true,0872_fc_s01_true_bicycle_35_n03792782_5959.png
subject-01,1,873,1.50025415420532,dog,dog,true,0873_fc_s01_true_dog_35_n02097047_1351.png
subject-01,1,874,0.610772848129272,cat,cat,false,0874_fc_s01_false_cat_35_n02124075_5874.png
subject-01,1,875,0.640716075897217,airplane,airplane,true,0875_fc_s01_true_airplane_35_n02690373_4706.png
subject-01,1,876,0.764859914779663,airplane,airplane,false,0876_fc_s01_false_airplane_35_n02690373_9926.png
subject-01,1,877,0.809252023696899,elephant,elephant,true,0877_fc_s01_true_elephant_35_n02504458_4939.png
subject-01,1,878,0.687404870986938,bicycle,bicycle,false,0878_fc_s01_false_bicycle_35_n02835271_9772.png
subject-01,1,879,1.11000514030457,knife,knife,true,0879_fc_s01_true_knife_35_n03041632_11613.png
subject-01,1,880,1.16265392303467,boat,boat,false,0880_fc_s01_false_boat_35_n02951358_5118.png
subject-01,1,881,0.695169925689697,bear,bear,false,0881_fc_s01_false_bear_35_n02133161_3191.png
subject-01,1,882,0.931388139724731,bear,bear,false,0882_fc_s01_false_bear_35_n02133161_693.png
subject-01,1,883,1.09347987174988,knife,bottle,true,0883_fc_s01_true_bottle_35_n04591713_4030.png
subject-01,1,884,0.731856107711792,bird,bird,true,0884_fc_s01_true_bird_35_n01592084_3972.png
subject-01,1,885,0.846503973007202,bird,bird,true,0885_fc_s01_true_bird_35_n01833805_7514.png
subject-01,1,886,1.30072402954102,boat,boat,false,0886_fc_s01_false_boat_35_n03344393_8492.png
subject-01,1,887,1.15565586090088,elephant,elephant,false,0887_fc_s01_false_elephant_35_n02504013_5027.png
subject-01,1,888,0.618043899536133,bear,bear,true,0888_fc_s01_true_bear_35_n02133161_2597.png
subject-01,1,889,0.761992216110229,airplane,airplane,true,0889_fc_s01_true_airplane_35_n02690373_4921.png
subject-01,1,890,0.70806884765625,truck,truck,true,0890_fc_s01_true_truck_35_n04467665_62080.png
subject-01,1,891,0.70862603187561,bottle,bottle,true,0891_fc_s01_true_bottle_35_n03937543_469.png
subject-01,1,892,1.13080310821533,dog,dog,false,0892_fc_s01_false_dog_35_n02105056_10931.png
subject-01,1,893,0.617295980453491,bottle,bottle,true,0893_fc_s01_true_bottle_35_n04591713_5518.png
subject-01,1,894,0.747753858566284,car,car,false,0894_fc_s01_false_car_35_n03100240_20185.png
subject-01,1,895,1.09430980682373,bicycle,bicycle,false,0895_fc_s01_false_bicycle_35_n02835271_927.png
subject-01,1,896,0.770650863647461,knife,knife,true,0896_fc_s01_true_knife_35_n03041632_14766.png
subject-01,1,897,1.18733286857605,dog,dog,true,0897_fc_s01_true_dog_35_n02086646_6849.png
subject-01,1,898,0.864055871963501,bottle,bottle,true,0898_fc_s01_true_bottle_35_n04591713_13349.png
subject-01,1,899,0.748163938522339,keyboard,keyboard,false,0899_fc_s01_false_keyboard_35_n03085013_28584.png
subject-01,1,900,0.848856925964355,keyboard,keyboard,true,0900_fc_s01_true_keyboard_35_n04505470_4033.png
subject-01,1,901,1.04891896247864,knife,knife,true,0901_fc_s01_true_knife_35_n03041632_22190.png
subject-01,1,902,0.995743989944458,dog,dog,false,0902_fc_s01_false_dog_35_n02096294_4609.png
subject-01,1,903,0.649893045425415,bear,bear,true,0903_fc_s01_true_bear_35_n02134084_4477.png
subject-01,1,904,0.750420093536377,boat,airplane,true,0904_fc_s01_true_airplane_35_n02690373_3920.png
subject-01,1,905,0.781002044677734,bear,bear,false,0905_fc_s01_false_bear_35_n02134418_5253.png
subject-01,1,906,0.711544036865234,bicycle,bicycle,true,0906_fc_s01_true_bicycle_35_n02835271_6137.png
subject-01,1,907,0.780196189880371,dog,dog,false,0907_fc_s01_false_dog_35_n02086240_1183.png
subject-01,1,908,0.704412937164307,clock,clock,false,0908_fc_s01_false_clock_35_n03196217_958.png
subject-01,1,909,0.897147178649902,dog,dog,false,0909_fc_s01_false_dog_35_n02097209_1133.png
subject-01,1,910,0.627376079559326,cat,cat,true,0910_fc_s01_true_cat_35_n02123597_5081.png
subject-01,1,911,0.651802062988281,bear,bear,false,0911_fc_s01_false_bear_35_n02132136_11149.png
subject-01,1,912,0.712507009506226,knife,knife,false,0912_fc_s01_false_knife_35_n03041632_104379.png
subject-01,1,913,0.612782001495361,boat,boat,true,0913_fc_s01_true_boat_35_n02951358_32687.png
subject-01,1,914,0.975298881530762,truck,truck,true,0914_fc_s01_true_truck_35_n03417042_10694.png
subject-01,1,915,0.598054885864258,oven,oven,false,0915_fc_s01_false_oven_35_n04111531_11935.png
subject-01,1,916,0.751996994018555,truck,truck,true,0916_fc_s01_true_truck_35_n03417042_27586.png
subject-01,1,917,0.59833288192749,clock,clock,true,0917_fc_s01_true_clock_35_n03196217_7663.png
subject-01,1,918,0.737151861190796,bear,bear,false,0918_fc_s01_false_bear_35_n02132136_451.png
subject-01,1,919,1.02935194969177,airplane,airplane,false,0919_fc_s01_false_airplane_35_n02690373_1837.png
subject-01,1,920,NaN,na,boat,true,0920_fc_s01_true_boat_35_n03662601_4665.png
subject-01,1,921,0.782505989074707,knife,knife,false,0921_fc_s01_false_knife_35_n03041632_16104.png
subject-01,1,922,0.907181024551392,car,car,false,0922_fc_s01_false_car_35_n03100240_2425.png
subject-01,1,923,0.807452917098999,bicycle,bicycle,true,0923_fc_s01_true_bicycle_35_n03792782_7050.png
subject-01,1,924,0.70610785484314,bear,bear,false,0924_fc_s01_false_bear_35_n02133161_5067.png
subject-01,1,925,0.990331888198853,dog,dog,false,0925_fc_s01_false_dog_35_n02096585_9834.png
subject-01,1,926,0.890848159790039,elephant,elephant,true,0926_fc_s01_true_elephant_35_n02504458_12165.png
subject-01,1,927,0.745445966720581,chair,chair,false,0927_fc_s01_false_chair_35_n03376595_3223.png
subject-01,1,928,0.946190118789673,oven,chair,false,0928_fc_s01_false_chair_35_n04429376_5362.png
subject-01,1,929,1.16845989227295,bear,cat,true,0929_fc_s01_true_cat_35_n02123159_6184.png
subject-01,1,930,1.0691659450531,chair,chair,false,0930_fc_s01_false_chair_35_n02791124_139.png
subject-01,1,931,NaN,na,boat,false,0931_fc_s01_false_boat_35_n04612504_41355.png
subject-01,1,932,0.807957887649536,bird,bird,false,0932_fc_s01_false_bird_35_n01819313_5839.png
subject-01,1,933,0.754163026809692,bottle,bottle,false,0933_fc_s01_false_bottle_35_n04557648_3615.png
subject-01,1,934,0.746524810791016,bird,bird,false,0934_fc_s01_false_bird_35_n01592084_5925.png
subject-01,1,935,0.852375030517578,truck,truck,true,0935_fc_s01_true_truck_35_n03417042_29353.png
subject-01,1,936,1.1445209980011,airplane,airplane,true,0936_fc_s01_true_airplane_35_n02690373_10176.png
subject-01,1,937,0.899044036865234,car,car,false,0937_fc_s01_false_car_35_n02814533_31430.png
subject-01,1,938,0.807417154312134,dog,dog,true,0938_fc_s01_true_dog_35_n02102040_1187.png
subject-01,1,939,1.3980929851532,bird,bird,false,0939_fc_s01_false_bird_35_n02013706_16546.png
subject-01,1,940,0.622817993164062,keyboard,keyboard,false,0940_fc_s01_false_keyboard_35_n04505470_3499.png
subject-01,1,941,0.829241991043091,bird,bird,false,0941_fc_s01_false_bird_35_n02013706_5736.png
subject-01,1,942,0.745633840560913,dog,dog,true,0942_fc_s01_true_dog_35_n02113624_2530.png
subject-01,1,943,0.862184047698975,bear,bear,false,0943_fc_s01_false_bear_35_n02132136_7231.png
subject-01,1,944,1.00048589706421,bottle,bottle,false,0944_fc_s01_false_bottle_35_n03983396_12027.png
subject-01,1,945,0.723405122756958,boat,boat,false,0945_fc_s01_false_boat_35_n02951358_8503.png
subject-01,1,946,0.623288154602051,cat,cat,false,0946_fc_s01_false_cat_35_n02124075_6210.png
subject-01,1,947,1.36735796928406,keyboard,keyboard,true,0947_fc_s01_true_keyboard_35_n04505470_8544.png
subject-01,1,948,1.09191608428955,bottle,bottle,false,0948_fc_s01_false_bottle_35_n02823428_3402.png
subject-01,1,949,0.884359121322632,dog,dog,false,0949_fc_s01_false_dog_35_n02105056_2046.png
subject-01,1,950,0.752837896347046,truck,truck,false,0950_fc_s01_false_truck_35_n03796401_19487.png
subject-01,1,951,0.64552903175354,oven,oven,false,0951_fc_s01_false_oven_35_n04111531_643.png
subject-01,1,952,0.767755031585693,keyboard,keyboard,false,0952_fc_s01_false_keyboard_35_n03085013_16724.png
subject-01,1,953,0.838490962982178,bird,bird,false,0953_fc_s01_false_bird_35_n01560419_2291.png
subject-01,1,954,0.969018220901489,knife,airplane,false,0954_fc_s01_false_airplane_35_n02690373_1019.png
subject-01,1,955,1.16728401184082,clock,clock,true,0955_fc_s01_true_clock_35_n04548280_1245.png
subject-01,1,956,0.907770156860352,airplane,airplane,false,0956_fc_s01_false_airplane_35_n02690373_4199.png
subject-01,1,957,0.906547069549561,bicycle,bicycle,false,0957_fc_s01_false_bicycle_35_n03792782_7576.png
subject-01,1,958,0.800792932510376,clock,clock,true,0958_fc_s01_true_clock_35_n03196217_5972.png
subject-01,1,959,0.853307962417603,clock,clock,true,0959_fc_s01_true_clock_35_n03196217_845.png
subject-01,1,960,1.04594612121582,truck,truck,true,0960_fc_s01_true_truck_35_n03796401_19058.png
subject-01,1,961,0.837929010391235,knife,knife,false,0961_fc_s01_false_knife_35_n03041632_18532.png
subject-01,1,962,0.86006498336792,car,car,true,0962_fc_s01_true_car_35_n04285008_2900.png
subject-01,1,963,0.668352127075195,chair,chair,false,0963_fc_s01_false_chair_35_n02791124_177.png
subject-01,1,964,0.774869203567505,clock,clock,false,0964_fc_s01_false_clock_35_n04548280_17802.png
subject-01,1,965,0.859177827835083,car,car,false,0965_fc_s01_false_car_35_n03100240_5399.png
subject-01,1,966,0.567739009857178,oven,oven,false,0966_fc_s01_false_oven_35_n04111531_5126.png
subject-01,1,967,0.766364097595215,chair,chair,false,0967_fc_s01_false_chair_35_n02791124_17045.png
subject-01,1,968,0.55252480506897,oven,oven,true,0968_fc_s01_true_oven_35_n04111531_1898.png
subject-01,1,969,0.772970914840698,knife,knife,false,0969_fc_s01_false_knife_35_n03041632_92063.png
subject-01,1,970,0.765120983123779,bottle,bottle,true,0970_fc_s01_true_bottle_35_n03983396_11788.png
subject-01,1,971,0.503468036651611,oven,oven,true,0971_fc_s01_true_oven_35_n04111531_547.png
subject-01,1,972,0.827787160873413,bird,bear,false,0972_fc_s01_false_bear_35_n02134418_2440.png
subject-01,1,973,0.750578165054321,bear,bear,false,0973_fc_s01_false_bear_35_n02134418_896.png
subject-01,1,974,0.688849210739136,boat,boat,true,0974_fc_s01_true_boat_35_n03662601_8221.png
subject-01,1,975,0.797538995742798,dog,dog,false,0975_fc_s01_false_dog_35_n02092339_160.png
subject-01,1,976,0.719821214675903,clock,clock,false,0976_fc_s01_false_clock_35_n02708093_2744.png
subject-01,1,977,0.666612148284912,airplane,airplane,false,0977_fc_s01_false_airplane_35_n02690373_5029.png
subject-01,1,978,0.94296407699585,bird,bird,true,0978_fc_s01_true_bird_35_n02025239_4966.png
subject-01,1,979,0.905561923980713,bird,bicycle,false,0979_fc_s01_false_bicycle_35_n03792782_801.png
subject-01,1,980,0.890036106109619,cat,cat,true,0980_fc_s01_true_cat_35_n02124075_7230.png
subject-01,1,981,NaN,na,bicycle,true,0981_fc_s01_true_bicycle_35_n03792782_51156.png
subject-01,1,982,0.758998870849609,bicycle,bicycle,true,0982_fc_s01_true_bicycle_35_n02835271_4191.png
subject-01,1,983,0.897163867950439,airplane,airplane,false,0983_fc_s01_false_airplane_35_n02690373_7735.png
subject-01,1,984,0.70543909072876,boat,boat,false,0984_fc_s01_false_boat_35_n04612504_20125.png
subject-01,1,985,0.568053960800171,boat,boat,false,0985_fc_s01_false_boat_35_n03662601_18579.png
subject-01,1,986,1.07469391822815,bear,bear,true,0986_fc_s01_true_bear_35_n02134418_1809.png
subject-01,1,987,1.12914395332336,car,car,true,0987_fc_s01_true_car_35_n04285008_12754.png
subject-01,1,988,1.37351894378662,cat,cat,false,0988_fc_s01_false_cat_35_n02123394_4383.png
subject-01,1,989,0.806071043014526,clock,clock,true,0989_fc_s01_true_clock_35_n03196217_5627.png
subject-01,1,990,0.744623899459839,elephant,elephant,false,0990_fc_s01_false_elephant_35_n02504013_8007.png
subject-01,1,991,0.705036163330078,oven,oven,false,0991_fc_s01_false_oven_35_n04111531_6479.png
subject-01,1,992,1.11985206604004,boat,boat,true,0992_fc_s01_true_boat_35_n03344393_6799.png
subject-01,1,993,0.911949872970581,truck,truck,true,0993_fc_s01_true_truck_35_n04467665_2505.png
subject-01,1,994,0.712489128112793,oven,oven,true,0994_fc_s01_true_oven_35_n04111531_6485.png
subject-01,1,995,0.651121854782104,boat,boat,false,0995_fc_s01_false_boat_35_n02951358_29495.png
subject-01,1,996,0.827233076095581,airplane,airplane,true,0996_fc_s01_true_airplane_35_n02690373_7698.png
subject-01,1,997,0.711903095245361,car,car,true,0997_fc_s01_true_car_35_n03100240_3151.png
subject-01,1,998,0.942081928253174,elephant,elephant,true,0998_fc_s01_true_elephant_35_n02504458_5788.png
subject-01,1,999,0.774898052215576,chair,chair,true,0999_fc_s01_true_chair_35_n04099969_25327.png
subject-01,1,1000,0.759042024612427,dog,dog,true,1000_fc_s01_true_dog_35_n02096585_9543.png
subject-01,1,1001,0.873247861862183,car,car,false,1001_fc_s01_false_car_35_n04285008_863.png
subject-01,1,1002,0.781896114349365,bird,bird,true,1002_fc_s01_true_bird_35_n01622779_5441.png
subject-01,1,1003,0.658468008041382,keyboard,keyboard,false,1003_fc_s01_false_keyboard_35_n04505470_2600.png
subject-01,1,1004,0.842837810516357,bicycle,bicycle,false,1004_fc_s01_false_bicycle_35_n03792782_16819.png
subject-01,1,1005,0.659586906433105,boat,boat,true,1005_fc_s01_true_boat_35_n03344393_1145.png
subject-01,1,1006,0.619807004928589,bear,bear,false,1006_fc_s01_false_bear_35_n02134084_6821.png
subject-01,1,1007,0.596426010131836,cat,keyboard,true,1007_fc_s01_true_keyboard_35_n03085013_26449.png
subject-01,1,1008,0.520563125610352,clock,clock,true,1008_fc_s01_true_clock_35_n02708093_275.png
subject-01,1,1009,0.7048020362854,bird,bird,false,1009_fc_s01_false_bird_35_n02037110_6501.png
subject-01,1,1010,1.12729096412659,bicycle,bicycle,false,1010_fc_s01_false_bicycle_35_n02835271_18173.png
subject-01,1,1011,0.757707834243774,bicycle,bicycle,false,1011_fc_s01_false_bicycle_35_n02835271_12930.png
subject-01,1,1012,1.05824303627014,oven,oven,true,1012_fc_s01_true_oven_35_n04111531_11116.png
subject-01,1,1013,1.50038313865662,boat,boat,false,1013_fc_s01_false_boat_35_n03662601_24852.png
subject-01,1,1014,0.596996784210205,clock,clock,false,1014_fc_s01_false_clock_35_n03196217_3508.png
subject-01,1,1015,0.835745096206665,boat,boat,true,1015_fc_s01_true_boat_35_n03344393_6324.png
subject-01,1,1016,1.11210608482361,truck,truck,true,1016_fc_s01_true_truck_35_n04467665_21542.png
subject-01,1,1017,0.696605920791626,elephant,elephant,true,1017_fc_s01_true_elephant_35_n02504458_4861.png
subject-01,1,1018,0.697070837020874,bird,bird,false,1018_fc_s01_false_bird_35_n01796340_5485.png
subject-01,1,1019,0.943718910217285,knife,knife,true,1019_fc_s01_true_knife_35_n03041632_86338.png
subject-01,1,1020,0.811946153640747,bicycle,bicycle,false,1020_fc_s01_false_bicycle_35_n03792782_70169.png
subject-01,1,1021,1.0963888168335,airplane,airplane,true,1021_fc_s01_true_airplane_35_n02690373_5221.png
