subj,session,trial,rt,object_response,category,condition,imagename
subject-05,1,1,0.994587898254395,truck,truck,true,0001_fc_s05_true_truck_35_n03417042_6780.png
subject-05,1,2,0.662484169006348,bicycle,bicycle,true,0002_fc_s05_true_bicycle_35_n02835271_1979.png
subject-05,1,3,1.50005102157593,bear,bear,true,0003_fc_s05_true_bear_35_n02132136_21402.png
subject-05,1,4,1.50020098686218,cat,cat,true,0004_fc_s05_true_cat_35_n02124075_8028.png
subject-05,1,5,0.755576133728027,cat,cat,false,0005_fc_s05_false_cat_35_n02123597_9982.png
subject-05,1,6,0.836317777633667,elephant,elephant,false,0006_fc_s05_false_elephant_35_n02504458_6059.png
subject-05,1,7,0.867110013961792,oven,chair,true,0007_fc_s05_true_chair_35_n04429376_12972.png
subject-05,1,8,0.651333093643188,oven,oven,false,0008_fc_s05_false_oven_35_n04111531_8144.png
subject-05,1,9,NaN,na,bicycle,false,0009_fc_s05_false_bicycle_35_n02835271_5618.png
subject-05,1,10,1.31318092346191,dog,dog,false,0010_fc_s05_false_dog_35_n02089867_7974.png
subject-05,1,11,0.629492044448853,cat,cat,true,0011_fc_s05_true_cat_35_n02123045_3551.png
subject-05,1,12,0.966140985488892,airplane,airplane,true,0012_fc_s05_true_airplane_35_n02690373_4845.png
subject-05,1,13,0.676730871200562,oven,oven,true,0013_fc_s05_true_oven_35_n04111531_2803.png
subject-05,1,14,0.850985050201416,bird,bird,false,0014_fc_s05_false_bird_35_n02018795_5106.png
subject-05,1,15,0.911552906036377,truck,truck,true,0015_fc_s05_true_truck_35_n03417042_27486.png
subject-05,1,16,0.827817916870117,truck,truck,true,0016_fc_s05_true_truck_35_n03417042_835.png
subject-05,1,17,0.680016040802002,bottle,bottle,false,0017_fc_s05_false_bottle_35_n04591713_5550.png
subject-05,1,18,0.631890058517456,airplane,airplane,true,0018_fc_s05_true_airplane_35_n02690373_10001.png
subject-05,1,19,0.802484035491943,truck,car,true,0019_fc_s05_true_car_35_n02814533_93698.png
subject-05,1,20,1.0008749961853,chair,chair,true,0020_fc_s05_true_chair_35_n02791124_2319.png
subject-05,1,21,1.18986296653748,elephant,bear,false,0021_fc_s05_false_bear_35_n02133161_12901.png
subject-05,1,22,0.828541994094849,bird,bird,true,0022_fc_s05_true_bird_35_n01622779_1513.png
subject-05,1,23,1.01900386810303,car,car,true,0023_fc_s05_true_car_35_n02814533_51205.png
subject-05,1,24,1.15749001502991,dog,dog,false,0024_fc_s05_false_dog_35_n02107908_2666.png
subject-05,1,25,1.36333799362183,cat,cat,true,0025_fc_s05_true_cat_35_n02123159_3752.png
subject-05,1,26,1.11755800247192,boat,boat,true,0026_fc_s05_true_boat_35_n02951358_29495.png
subject-05,1,27,0.698528051376343,oven,oven,true,0027_fc_s05_true_oven_35_n04111531_2051.png
subject-05,1,28,0.804417848587036,chair,chair,false,0028_fc_s05_false_chair_35_n04429376_11638.png
subject-05,1,29,0.764458894729614,oven,oven,false,0029_fc_s05_false_oven_35_n04111531_12942.png
subject-05,1,30,0.764907836914062,bird,bird,true,0030_fc_s05_true_bird_35_n02033041_11868.png
subject-05,1,31,0.96354603767395,airplane,airplane,true,0031_fc_s05_true_airplane_35_n02690373_10079.png
subject-05,1,32,1.44015598297119,truck,truck,false,0032_fc_s05_false_truck_35_n04467665_87287.png
subject-05,1,33,0.878466129302979,truck,truck,true,0033_fc_s05_true_truck_35_n03796401_4370.png
subject-05,1,34,0.946607112884521,car,car,false,0034_fc_s05_false_car_35_n02814533_31644.png
subject-05,1,35,0.90905499458313,bird,dog,false,0035_fc_s05_false_dog_35_n02096585_131.png
subject-05,1,36,0.640781164169312,elephant,elephant,false,0036_fc_s05_false_elephant_35_n02504458_2054.png
subject-05,1,37,0.687160015106201,airplane,airplane,false,0037_fc_s05_false_airplane_35_n02690373_7118.png
subject-05,1,38,0.747881889343262,car,car,false,0038_fc_s05_false_car_35_n02814533_97292.png
subject-05,1,39,0.937083005905151,car,car,false,0039_fc_s05_false_car_35_n03100240_17336.png
subject-05,1,40,1.02944612503052,bird,bird,false,0040_fc_s05_false_bird_35_n01843383_3898.png
subject-05,1,41,0.843512058258057,keyboard,keyboard,false,0041_fc_s05_false_keyboard_35_n04505470_1430.png
subject-05,1,42,0.848527908325195,boat,boat,false,0042_fc_s05_false_boat_35_n04273569_13116.png
subject-05,1,43,0.776512861251831,elephant,elephant,true,0043_fc_s05_true_elephant_35_n02504013_11708.png
subject-05,1,44,0.977039098739624,cat,cat,false,0044_fc_s05_false_cat_35_n02123045_5150.png
subject-05,1,45,0.765836954116821,elephant,elephant,false,0045_fc_s05_false_elephant_35_n02504458_4432.png
subject-05,1,46,NaN,na,bear,true,0046_fc_s05_true_bear_35_n02134418_978.png
subject-05,1,47,1.07025790214539,oven,oven,false,0047_fc_s05_false_oven_35_n04111531_2042.png
subject-05,1,48,0.516564846038818,keyboard,keyboard,true,0048_fc_s05_true_keyboard_35_n04505470_4711.png
subject-05,1,49,0.739070892333984,bird,bird,false,0049_fc_s05_false_bird_35_n01796340_13669.png
subject-05,1,50,1.07563710212708,bird,chair,true,0050_fc_s05_true_chair_35_n04099969_8687.png
subject-05,1,51,1.2302520275116,car,car,true,0051_fc_s05_true_car_35_n03100240_18827.png
subject-05,1,52,1.36089897155762,bear,bear,true,0052_fc_s05_true_bear_35_n02132136_2810.png
subject-05,1,53,0.736742973327637,bird,cat,false,0053_fc_s05_false_cat_35_n02125311_22499.png
subject-05,1,54,0.713370084762573,bottle,bottle,false,0054_fc_s05_false_bottle_35_n04579145_6585.png
subject-05,1,55,0.735718965530396,clock,clock,false,0055_fc_s05_false_clock_35_n02708093_8069.png
subject-05,1,56,1.26397585868835,bottle,bottle,false,0056_fc_s05_false_bottle_35_n04557648_2635.png
subject-05,1,57,0.886592864990234,bottle,bottle,true,0057_fc_s05_true_bottle_35_n04591713_2555.png
subject-05,1,58,0.900861024856567,elephant,elephant,true,0058_fc_s05_true_elephant_35_n02504458_2030.png
subject-05,1,59,0.731032848358154,elephant,elephant,false,0059_fc_s05_false_elephant_35_n02504458_11324.png
subject-05,1,60,1.20545792579651,bottle,bottle,false,0060_fc_s05_false_bottle_35_n04579145_2896.png
subject-05,1,61,0.897783041000366,bird,bird,true,0061_fc_s05_true_bird_35_n01514859_3903.png
subject-05,1,62,0.841884851455688,dog,dog,false,0062_fc_s05_false_dog_35_n02104365_3639.png
subject-05,1,63,0.926798820495605,bird,bird,true,0063_fc_s05_true_bird_35_n01828970_5928.png
subject-05,1,64,1.07805180549622,airplane,airplane,true,0064_fc_s05_true_airplane_35_n02690373_6716.png
subject-05,1,65,1.184250831604,boat,boat,true,0065_fc_s05_true_boat_35_n04612504_15203.png
subject-05,1,66,0.597341060638428,car,car,true,0066_fc_s05_true_car_35_n02814533_7420.png
subject-05,1,67,1.4338059425354,bear,bear,false,0067_fc_s05_false_bear_35_n02132136_6768.png
subject-05,1,68,1.17215299606323,dog,cat,true,0068_fc_s05_true_cat_35_n02123045_20723.png
subject-05,1,69,0.954234838485718,cat,dog,true,0069_fc_s05_true_dog_35_n02097474_5244.png
subject-05,1,70,0.784717082977295,elephant,elephant,true,0070_fc_s05_true_elephant_35_n02504013_1761.png
subject-05,1,71,1.09057593345642,elephant,elephant,true,0071_fc_s05_true_elephant_35_n02504458_863.png
subject-05,1,72,0.767291784286499,truck,truck,true,0072_fc_s05_true_truck_35_n04467665_28313.png
subject-05,1,73,0.759667873382568,car,car,false,0073_fc_s05_false_car_35_n04285008_1124.png
subject-05,1,74,0.798004150390625,cat,dog,false,0074_fc_s05_false_dog_35_n02086079_20575.png
subject-05,1,75,0.826184988021851,boat,boat,true,0075_fc_s05_true_boat_35_n03662601_15970.png
subject-05,1,76,1.27865600585938,truck,truck,false,0076_fc_s05_false_truck_35_n03796401_16425.png
subject-05,1,77,1.07873821258545,bicycle,bicycle,false,0077_fc_s05_false_bicycle_35_n03792782_5864.png
subject-05,1,78,0.936222076416016,airplane,airplane,true,0078_fc_s05_true_airplane_35_n02690373_2026.png
subject-05,1,79,1.15880799293518,boat,boat,true,0079_fc_s05_true_boat_35_n03662601_2769.png
subject-05,1,80,1.27302813529968,boat,clock,false,0080_fc_s05_false_clock_35_n03196217_3508.png
subject-05,1,81,0.949005126953125,truck,truck,true,0081_fc_s05_true_truck_35_n04467665_8063.png
subject-05,1,82,0.90346097946167,bottle,bottle,false,0082_fc_s05_false_bottle_35_n03983396_4319.png
subject-05,1,83,0.921894073486328,car,car,true,0083_fc_s05_true_car_35_n02814533_3886.png
subject-05,1,84,1.11993789672852,airplane,airplane,false,0084_fc_s05_false_airplane_35_n02690373_1769.png
subject-05,1,85,0.842565059661865,elephant,elephant,false,0085_fc_s05_false_elephant_35_n02504013_3747.png
subject-05,1,86,1.37724995613098,bicycle,bicycle,false,0086_fc_s05_false_bicycle_35_n03792782_14966.png
subject-05,1,87,0.94552206993103,knife,knife,false,0087_fc_s05_false_knife_35_n03041632_84869.png
subject-05,1,88,1.04396104812622,truck,truck,false,0088_fc_s05_false_truck_35_n03796401_3191.png
subject-05,1,89,0.808632135391235,truck,truck,true,0089_fc_s05_true_truck_35_n04467665_54079.png
subject-05,1,90,1.11460280418396,dog,bottle,true,0090_fc_s05_true_bottle_35_n04560804_6490.png
subject-05,1,91,0.991050004959106,bird,clock,true,0091_fc_s05_true_clock_35_n04548280_8171.png
subject-05,1,92,0.725476026535034,oven,oven,true,0092_fc_s05_true_oven_35_n04111531_9831.png
subject-05,1,93,0.885621070861816,knife,knife,false,0093_fc_s05_false_knife_35_n03041632_36277.png
subject-05,1,94,0.877676963806152,clock,clock,false,0094_fc_s05_false_clock_35_n03196217_482.png
subject-05,1,95,1.16001605987549,knife,knife,true,0095_fc_s05_true_knife_35_n03041632_22330.png
subject-05,1,96,0.698362827301025,bottle,bottle,false,0096_fc_s05_false_bottle_35_n02823428_2473.png
subject-05,1,97,0.69684100151062,car,car,false,0097_fc_s05_false_car_35_n03100240_12777.png
subject-05,1,98,0.789283990859985,bottle,bottle,true,0098_fc_s05_true_bottle_35_n03983396_23573.png
subject-05,1,99,1.17166090011597,cat,cat,false,0099_fc_s05_false_cat_35_n02123159_4426.png
subject-05,1,100,0.818172931671143,keyboard,keyboard,true,0100_fc_s05_true_keyboard_35_n04505470_5013.png
subject-05,1,101,0.824245929718018,boat,boat,false,0101_fc_s05_false_boat_35_n02951358_9652.png
subject-05,1,102,0.762793064117432,airplane,airplane,true,0102_fc_s05_true_airplane_35_n02690373_4108.png
subject-05,1,103,0.82073712348938,keyboard,keyboard,true,0103_fc_s05_true_keyboard_35_n04505470_1820.png
subject-05,1,104,1.03473401069641,boat,knife,false,0104_fc_s05_false_knife_35_n03041632_44363.png
subject-05,1,105,0.743127107620239,airplane,airplane,true,0105_fc_s05_true_airplane_35_n02690373_9128.png
subject-05,1,106,0.801236867904663,keyboard,keyboard,false,0106_fc_s05_false_keyboard_35_n03085013_19018.png
subject-05,1,107,0.815186023712158,boat,boat,true,0107_fc_s05_true_boat_35_n02951358_11325.png
subject-05,1,108,0.975102186203003,chair,chair,false,0108_fc_s05_false_chair_35_n04429376_347.png
subject-05,1,109,NaN,na,oven,false,0109_fc_s05_false_oven_35_n04111531_4331.png
subject-05,1,110,1.50008606910706,cat,dog,false,0110_fc_s05_false_dog_35_n02087046_2113.png
subject-05,1,111,0.605402946472168,keyboard,keyboard,false,0111_fc_s05_false_keyboard_35_n04505470_4906.png
subject-05,1,112,1.15565490722656,bottle,chair,false,0112_fc_s05_false_chair_35_n02791124_2935.png
subject-05,1,113,1.19926309585571,airplane,airplane,true,0113_fc_s05_true_airplane_35_n02690373_12966.png
subject-05,1,114,0.77587103843689,dog,dog,true,0114_fc_s05_true_dog_35_n02088238_4693.png
subject-05,1,115,0.652241945266724,bicycle,bicycle,false,0115_fc_s05_false_bicycle_35_n02835271_15960.png
subject-05,1,116,1.26613211631775,knife,knife,true,0116_fc_s05_true_knife_35_n03041632_56172.png
subject-05,1,117,0.841942071914673,clock,clock,true,0117_fc_s05_true_clock_35_n02708093_8311.png
subject-05,1,118,0.656823873519897,oven,truck,true,0118_fc_s05_true_truck_35_n03417042_1087.png
subject-05,1,119,0.81332802772522,car,car,false,0119_fc_s05_false_car_35_n03100240_409.png
subject-05,1,120,1.50035881996155,bear,bear,true,0120_fc_s05_true_bear_35_n02134418_3435.png
subject-05,1,121,0.750169038772583,cat,dog,true,0121_fc_s05_true_dog_35_n02093754_6692.png
subject-05,1,122,0.725363969802856,dog,dog,false,0122_fc_s05_false_dog_35_n02091244_6146.png
subject-05,1,123,1.18424892425537,car,car,true,0123_fc_s05_true_car_35_n04285008_4969.png
subject-05,1,124,1.03060984611511,dog,dog,true,0124_fc_s05_true_dog_35_n02087394_22712.png
subject-05,1,125,1.15549898147583,chair,bicycle,false,0125_fc_s05_false_bicycle_35_n02835271_8266.png
subject-05,1,126,0.893295049667358,bottle,bottle,false,0126_fc_s05_false_bottle_35_n03983396_9050.png
subject-05,1,127,0.699833869934082,bottle,bottle,false,0127_fc_s05_false_bottle_35_n02823428_13731.png
subject-05,1,128,1.18994498252869,bear,bear,false,0128_fc_s05_false_bear_35_n02134084_9176.png
subject-05,1,129,NaN,na,bottle,true,0129_fc_s05_true_bottle_35_n04591713_5463.png
subject-05,1,130,0.856649875640869,truck,truck,false,0130_fc_s05_false_truck_35_n03796401_2226.png
subject-05,1,131,0.723792791366577,cat,cat,true,0131_fc_s05_true_cat_35_n02124075_12815.png
subject-05,1,132,0.713649034500122,bird,dog,false,0132_fc_s05_false_dog_35_n02112350_5299.png
subject-05,1,133,1.0442430973053,bird,bird,true,0133_fc_s05_true_bird_35_n01530575_10385.png
subject-05,1,134,0.888370990753174,boat,boat,true,0134_fc_s05_true_boat_35_n03344393_5351.png
subject-05,1,135,1.23294997215271,car,car,false,0135_fc_s05_false_car_35_n02814533_35301.png
subject-05,1,136,1.37958693504333,airplane,airplane,true,0136_fc_s05_true_airplane_35_n02690373_6992.png
subject-05,1,137,1.24799489974976,clock,clock,true,0137_fc_s05_true_clock_35_n04548280_12596.png
subject-05,1,138,1.50015211105347,dog,dog,true,0138_fc_s05_true_dog_35_n02090622_7760.png
subject-05,1,139,1.09816813468933,airplane,airplane,false,0139_fc_s05_false_airplane_35_n02690373_5885.png
subject-05,1,140,0.965789079666138,chair,chair,true,0140_fc_s05_true_chair_35_n03376595_16121.png
subject-05,1,141,1.00222110748291,car,car,true,0141_fc_s05_true_car_35_n04285008_8099.png
subject-05,1,142,0.900163173675537,truck,truck,true,0142_fc_s05_true_truck_35_n03417042_3298.png
subject-05,1,143,1.32279801368713,airplane,airplane,true,0143_fc_s05_true_airplane_35_n02690373_9626.png
subject-05,1,144,1.36706209182739,car,car,true,0144_fc_s05_true_car_35_n03100240_17208.png
subject-05,1,145,0.767279863357544,keyboard,keyboard,true,0145_fc_s05_true_keyboard_35_n03085013_6166.png
subject-05,1,146,1.21964311599731,bottle,bottle,true,0146_fc_s05_true_bottle_35_n04557648_6965.png
subject-05,1,147,0.779644966125488,oven,oven,false,0147_fc_s05_false_oven_35_n04111531_3314.png
subject-05,1,148,1.3614239692688,oven,chair,false,0148_fc_s05_false_chair_35_n03376595_9081.png
subject-05,1,149,0.995713949203491,bear,bear,false,0149_fc_s05_false_bear_35_n02133161_14605.png
subject-05,1,150,0.916062831878662,car,car,false,0150_fc_s05_false_car_35_n02814533_27090.png
subject-05,1,151,0.854146957397461,bottle,bottle,true,0151_fc_s05_true_bottle_35_n02823428_4351.png
subject-05,1,152,1.50036096572876,clock,chair,false,0152_fc_s05_false_chair_35_n04429376_21865.png
subject-05,1,153,0.847115039825439,knife,knife,true,0153_fc_s05_true_knife_35_n03041632_37513.png
subject-05,1,154,0.939146995544434,clock,clock,false,0154_fc_s05_false_clock_35_n03196217_981.png
subject-05,1,155,0.872438907623291,cat,dog,false,0155_fc_s05_false_dog_35_n02098286_2442.png
subject-05,1,156,0.734295129776001,car,car,true,0156_fc_s05_true_car_35_n02814533_4714.png
subject-05,1,157,0.656591892242432,keyboard,keyboard,true,0157_fc_s05_true_keyboard_35_n04505470_3193.png
subject-05,1,158,0.739053010940552,elephant,elephant,true,0158_fc_s05_true_elephant_35_n02504458_4626.png
subject-05,1,159,1.16138386726379,bicycle,bicycle,false,0159_fc_s05_false_bicycle_35_n02835271_5956.png
subject-05,1,160,0.937793016433716,boat,boat,true,0160_fc_s05_true_boat_35_n04273569_28989.png
subject-05,1,161,1.13935708999634,cat,cat,true,0161_fc_s05_true_cat_35_n02123045_9465.png
subject-05,1,162,1.34572005271912,airplane,airplane,true,0162_fc_s05_true_airplane_35_n02690373_6567.png
subject-05,1,163,1.06237196922302,keyboard,keyboard,false,0163_fc_s05_false_keyboard_35_n03085013_23776.png
subject-05,1,164,0.64483904838562,boat,boat,false,0164_fc_s05_false_boat_35_n02951358_4770.png
subject-05,1,165,1.02136182785034,knife,knife,true,0165_fc_s05_true_knife_35_n03041632_29940.png
subject-05,1,166,1.11566686630249,truck,truck,false,0166_fc_s05_false_truck_35_n03417042_14381.png
subject-05,1,167,1.40625,truck,truck,true,0167_fc_s05_true_truck_35_n03796401_17654.png
subject-05,1,168,0.806774139404297,elephant,elephant,true,0168_fc_s05_true_elephant_35_n02504013_9618.png
subject-05,1,169,NaN,na,boat,false,0169_fc_s05_false_boat_35_n03662601_8471.png
subject-05,1,170,0.877904891967773,knife,knife,false,0170_fc_s05_false_knife_35_n03041632_34505.png
subject-05,1,171,0.738739013671875,bird,bird,true,0171_fc_s05_true_bird_35_n01817953_18056.png
subject-05,1,172,0.768497943878174,car,car,true,0172_fc_s05_true_car_35_n04285008_2841.png
subject-05,1,173,0.928390026092529,knife,knife,false,0173_fc_s05_false_knife_35_n03041632_44212.png
subject-05,1,174,0.9428870677948,bicycle,bicycle,false,0174_fc_s05_false_bicycle_35_n02835271_8780.png
subject-05,1,175,1.22501587867737,knife,knife,false,0175_fc_s05_false_knife_35_n03041632_3717.png
subject-05,1,176,1.0638530254364,dog,dog,false,0176_fc_s05_false_dog_35_n02086910_15323.png
subject-05,1,177,0.762118101119995,car,car,false,0177_fc_s05_false_car_35_n02814533_22292.png
subject-05,1,178,NaN,na,bird,false,0178_fc_s05_false_bird_35_n02051845_15781.png
subject-05,1,179,0.820388793945312,boat,boat,true,0179_fc_s05_true_boat_35_n03662601_30392.png
subject-05,1,180,0.805128812789917,elephant,elephant,false,0180_fc_s05_false_elephant_35_n02504013_3569.png
subject-05,1,181,0.83542799949646,truck,truck,false,0181_fc_s05_false_truck_35_n04467665_13.png
subject-05,1,182,0.801285982131958,oven,oven,false,0182_fc_s05_false_oven_35_n04111531_11225.png
subject-05,1,183,0.877268075942993,bird,bird,false,0183_fc_s05_false_bird_35_n02018795_4730.png
subject-05,1,184,0.851537942886353,keyboard,keyboard,true,0184_fc_s05_true_keyboard_35_n04505470_2881.png
subject-05,1,185,0.843538999557495,dog,dog,false,0185_fc_s05_false_dog_35_n02086910_5535.png
subject-05,1,186,0.826006889343262,elephant,elephant,false,0186_fc_s05_false_elephant_35_n02504458_6510.png
subject-05,1,187,1.50000905990601,airplane,airplane,false,0187_fc_s05_false_airplane_35_n02690373_5992.png
subject-05,1,188,0.830615043640137,bicycle,bicycle,true,0188_fc_s05_true_bicycle_35_n02835271_11974.png
subject-05,1,189,0.89885401725769,bicycle,bicycle,false,0189_fc_s05_false_bicycle_35_n02835271_8004.png
subject-05,1,190,0.625221967697144,oven,oven,true,0190_fc_s05_true_oven_35_n04111531_1662.png
subject-05,1,191,0.760829925537109,airplane,airplane,false,0191_fc_s05_false_airplane_35_n02690373_5789.png
subject-05,1,192,1.12110996246338,truck,truck,false,0192_fc_s05_false_truck_35_n03417042_7096.png
subject-05,1,193,0.710946083068848,dog,dog,false,0193_fc_s05_false_dog_35_n02108000_4980.png
subject-05,1,194,0.755632162094116,bottle,bottle,false,0194_fc_s05_false_bottle_35_n04557648_3580.png
subject-05,1,195,0.745573997497559,bird,bird,false,0195_fc_s05_false_bird_35_n01614925_2515.png
subject-05,1,196,1.15194392204285,bottle,bottle,true,0196_fc_s05_true_bottle_35_n02823428_1815.png
subject-05,1,197,0.928345918655396,keyboard,keyboard,false,0197_fc_s05_false_keyboard_35_n03085013_24268.png
subject-05,1,198,0.742628812789917,cat,cat,true,0198_fc_s05_true_cat_35_n02125311_21627.png
subject-05,1,199,0.957190990447998,bear,bear,true,0199_fc_s05_true_bear_35_n02134418_5318.png
subject-05,1,200,0.679924011230469,airplane,airplane,true,0200_fc_s05_true_airplane_35_n02690373_3726.png
subject-05,1,201,0.740600109100342,airplane,airplane,false,0201_fc_s05_false_airplane_35_n02690373_4310.png
subject-05,1,202,NaN,na,chair,true,0202_fc_s05_true_chair_35_n03376595_8064.png
subject-05,1,203,0.760852098464966,cat,cat,true,0203_fc_s05_true_cat_35_n02123394_2004.png
subject-05,1,204,0.875152111053467,car,car,true,0204_fc_s05_true_car_35_n04285008_632.png
subject-05,1,205,0.712296962738037,oven,oven,false,0205_fc_s05_false_oven_35_n04111531_9702.png
subject-05,1,206,1.03220987319946,knife,knife,true,0206_fc_s05_true_knife_35_n03041632_30457.png
subject-05,1,207,0.74620795249939,car,car,true,0207_fc_s05_true_car_35_n02814533_24730.png
subject-05,1,208,NaN,na,oven,true,0208_fc_s05_true_oven_35_n04111531_21918.png
subject-05,1,209,0.896944046020508,bear,bear,true,0209_fc_s05_true_bear_35_n02134418_2279.png
subject-05,1,210,0.673335075378418,airplane,airplane,true,0210_fc_s05_true_airplane_35_n02690373_5382.png
subject-05,1,211,0.679195880889893,oven,oven,true,0211_fc_s05_true_oven_35_n04111531_8269.png
subject-05,1,212,0.869604110717773,boat,boat,true,0212_fc_s05_true_boat_35_n02951358_29382.png
subject-05,1,213,0.61579418182373,clock,clock,false,0213_fc_s05_false_clock_35_n02708093_1684.png
subject-05,1,214,0.840767860412598,bird,bird,false,0214_fc_s05_false_bird_35_n02009229_20988.png
subject-05,1,215,1.40130686759949,truck,truck,false,0215_fc_s05_false_truck_35_n04467665_70763.png
subject-05,1,216,0.585626840591431,oven,oven,false,0216_fc_s05_false_oven_35_n04111531_3902.png
subject-05,1,217,0.521973848342896,cat,cat,false,0217_fc_s05_false_cat_35_n02124075_15119.png
subject-05,1,218,0.790172100067139,bird,bird,true,0218_fc_s05_true_bird_35_n01798484_11920.png
subject-05,1,219,0.635000944137573,clock,clock,true,0219_fc_s05_true_clock_35_n03196217_6357.png
subject-05,1,220,1.04609704017639,bicycle,bicycle,false,0220_fc_s05_false_bicycle_35_n02835271_2851.png
subject-05,1,221,NaN,na,keyboard,true,0221_fc_s05_true_keyboard_35_n04505470_7335.png
subject-05,1,222,1.10511684417725,cat,cat,false,0222_fc_s05_false_cat_35_n02123394_2777.png
subject-05,1,223,0.878496885299683,bear,bear,false,0223_fc_s05_false_bear_35_n02134084_5079.png
subject-05,1,224,0.79229998588562,boat,boat,false,0224_fc_s05_false_boat_35_n04273569_10716.png
subject-05,1,225,1.06067895889282,airplane,airplane,false,0225_fc_s05_false_airplane_35_n02690373_1862.png
subject-05,1,226,1.10125589370728,bird,bird,true,0226_fc_s05_true_bird_35_n02013706_2958.png
subject-05,1,227,0.739665031433105,airplane,airplane,true,0227_fc_s05_true_airplane_35_n02690373_8666.png
subject-05,1,228,0.806400060653687,truck,truck,false,0228_fc_s05_false_truck_35_n03417042_20547.png
subject-05,1,229,1.05447816848755,bicycle,bicycle,true,0229_fc_s05_true_bicycle_35_n02835271_13437.png
subject-05,1,230,0.806804180145264,boat,boat,false,0230_fc_s05_false_boat_35_n04612504_40598.png
subject-05,1,231,1.5000319480896,chair,clock,true,0231_fc_s05_true_clock_35_n02708093_6655.png
subject-05,1,232,0.710091829299927,car,car,false,0232_fc_s05_false_car_35_n02814533_78691.png
subject-05,1,233,0.846055030822754,bicycle,bicycle,true,0233_fc_s05_true_bicycle_35_n02835271_7265.png
subject-05,1,234,1.39631700515747,knife,knife,false,0234_fc_s05_false_knife_35_n03041632_32785.png
subject-05,1,235,1.45623302459717,bicycle,bicycle,true,0235_fc_s05_true_bicycle_35_n03792782_10702.png
subject-05,1,236,1.22472310066223,elephant,cat,false,0236_fc_s05_false_cat_35_n02124075_5643.png
subject-05,1,237,0.617156028747559,keyboard,keyboard,false,0237_fc_s05_false_keyboard_35_n03085013_21241.png
subject-05,1,238,0.865854024887085,bird,bird,true,0238_fc_s05_true_bird_35_n01829413_2130.png
subject-05,1,239,0.918632030487061,bottle,bottle,false,0239_fc_s05_false_bottle_35_n04557648_6245.png
subject-05,1,240,0.708645105361938,oven,oven,true,0240_fc_s05_true_oven_35_n04111531_10521.png
subject-05,1,241,0.753029108047485,boat,boat,false,0241_fc_s05_false_boat_35_n04612504_5635.png
subject-05,1,242,0.737300872802734,chair,chair,true,0242_fc_s05_true_chair_35_n04099969_14610.png
subject-05,1,243,0.711892127990723,dog,dog,true,0243_fc_s05_true_dog_35_n02100583_18595.png
subject-05,1,244,0.654916048049927,cat,cat,false,0244_fc_s05_false_cat_35_n02124075_13823.png
subject-05,1,245,0.661173820495605,keyboard,keyboard,false,0245_fc_s05_false_keyboard_35_n04505470_4228.png
subject-05,1,246,0.629773139953613,cat,cat,false,0246_fc_s05_false_cat_35_n02124075_6197.png
subject-05,1,247,0.97842812538147,bear,bear,true,0247_fc_s05_true_bear_35_n02132136_13097.png
subject-05,1,248,1.09289693832397,keyboard,keyboard,true,0248_fc_s05_true_keyboard_35_n03085013_25476.png
subject-05,1,249,0.907222986221313,bear,elephant,true,0249_fc_s05_true_elephant_35_n02504013_6794.png
subject-05,1,250,1.29401898384094,bottle,bottle,true,0250_fc_s05_true_bottle_35_n03983396_4215.png
subject-05,1,251,1.31422114372253,knife,knife,false,0251_fc_s05_false_knife_35_n03041632_105581.png
subject-05,1,252,1.19881415367126,clock,clock,false,0252_fc_s05_false_clock_35_n02708093_6717.png
subject-05,1,253,0.60520601272583,clock,clock,false,0253_fc_s05_false_clock_35_n03196217_4920.png
subject-05,1,254,0.75730299949646,oven,oven,true,0254_fc_s05_true_oven_35_n04111531_21366.png
subject-05,1,255,0.641819953918457,keyboard,keyboard,true,0255_fc_s05_true_keyboard_35_n03085013_4941.png
subject-05,1,256,0.945101022720337,dog,dog,true,0256_fc_s05_true_dog_35_n02088238_5057.png
subject-05,1,257,0.9511559009552,boat,boat,true,0257_fc_s05_true_boat_35_n03344393_6731.png
subject-05,1,258,0.765776872634888,airplane,airplane,true,0258_fc_s05_true_airplane_35_n02690373_1083.png
subject-05,1,259,1.16875910758972,bird,bird,true,0259_fc_s05_true_bird_35_n01855032_2780.png
subject-05,1,260,0.821177005767822,car,car,true,0260_fc_s05_true_car_35_n02814533_23926.png
subject-05,1,261,1.25155591964722,knife,knife,true,0261_fc_s05_true_knife_35_n03041632_29961.png
subject-05,1,262,1.33820700645447,bottle,chair,true,0262_fc_s05_true_chair_35_n04429376_8105.png
subject-05,1,263,NaN,na,dog,true,0263_fc_s05_true_dog_35_n02091635_7907.png
subject-05,1,264,0.743465900421143,car,car,false,0264_fc_s05_false_car_35_n02814533_26406.png
subject-05,1,265,0.903847932815552,clock,clock,false,0265_fc_s05_false_clock_35_n03196217_5399.png
subject-05,1,266,0.780206918716431,truck,truck,true,0266_fc_s05_true_truck_35_n03417042_27966.png
subject-05,1,267,0.840837955474854,airplane,airplane,true,0267_fc_s05_true_airplane_35_n02690373_9829.png
subject-05,1,268,NaN,na,chair,true,0268_fc_s05_true_chair_35_n03376595_17810.png
subject-05,1,269,0.913367033004761,bear,bear,false,0269_fc_s05_false_bear_35_n02132136_30840.png
subject-05,1,270,0.741204023361206,bicycle,bicycle,true,0270_fc_s05_true_bicycle_35_n02835271_24104.png
subject-05,1,271,0.933387994766235,bird,bird,false,0271_fc_s05_false_bird_35_n01820546_6732.png
subject-05,1,272,1.42385506629944,airplane,airplane,false,0272_fc_s05_false_airplane_35_n02690373_10210.png
subject-05,1,273,1.16030406951904,cat,bear,true,0273_fc_s05_true_bear_35_n02132136_9367.png
subject-05,1,274,1.3206889629364,elephant,elephant,false,0274_fc_s05_false_elephant_35_n02504013_4139.png
subject-05,1,275,0.797168016433716,keyboard,keyboard,true,0275_fc_s05_true_keyboard_35_n04505470_315.png
subject-05,1,276,0.803504943847656,bicycle,bicycle,false,0276_fc_s05_false_bicycle_35_n02835271_14361.png
subject-05,1,277,0.682181835174561,boat,boat,true,0277_fc_s05_true_boat_35_n02951358_8957.png
subject-05,1,278,0.796386003494263,boat,boat,false,0278_fc_s05_false_boat_35_n02951358_3481.png
subject-05,1,279,1.50007891654968,boat,truck,true,0279_fc_s05_true_truck_35_n04467665_45983.png
subject-05,1,280,1.23893785476685,clock,clock,false,0280_fc_s05_false_clock_35_n04548280_8904.png
subject-05,1,281,0.723528146743774,airplane,airplane,false,0281_fc_s05_false_airplane_35_n02690373_1206.png
subject-05,1,282,0.692031860351562,clock,clock,true,0282_fc_s05_true_clock_35_n03196217_108.png
subject-05,1,283,0.828405141830444,knife,knife,false,0283_fc_s05_false_knife_35_n03041632_10000.png
subject-05,1,284,1.16501116752625,bottle,knife,false,0284_fc_s05_false_knife_35_n03041632_22738.png
subject-05,1,285,0.737513065338135,bicycle,bicycle,false,0285_fc_s05_false_bicycle_35_n02835271_9280.png
subject-05,1,286,1.42789101600647,oven,cat,true,0286_fc_s05_true_cat_35_n02124075_6306.png
subject-05,1,287,NaN,na,dog,true,0287_fc_s05_true_dog_35_n02113712_743.png
subject-05,1,288,0.735713005065918,car,car,true,0288_fc_s05_true_car_35_n02814533_1588.png
subject-05,1,289,0.658320903778076,keyboard,keyboard,false,0289_fc_s05_false_keyboard_35_n04505470_4206.png
subject-05,1,290,0.84856390953064,keyboard,keyboard,true,0290_fc_s05_true_keyboard_35_n03085013_21155.png
subject-05,1,291,1.30707097053528,car,car,true,0291_fc_s05_true_car_35_n03100240_1495.png
subject-05,1,292,1.23769998550415,airplane,airplane,false,0292_fc_s05_false_airplane_35_n02690373_6831.png
subject-05,1,293,0.868439197540283,bird,bird,false,0293_fc_s05_false_bird_35_n01855032_6066.png
subject-05,1,294,0.592518091201782,keyboard,keyboard,true,0294_fc_s05_true_keyboard_35_n04505470_1712.png
subject-05,1,295,0.822813034057617,airplane,airplane,false,0295_fc_s05_false_airplane_35_n02690373_2162.png
subject-05,1,296,0.897295951843262,bottle,bottle,false,0296_fc_s05_false_bottle_35_n02823428_11581.png
subject-05,1,297,0.832098007202148,elephant,elephant,false,0297_fc_s05_false_elephant_35_n02504458_10661.png
subject-05,1,298,1.24429988861084,knife,knife,false,0298_fc_s05_false_knife_35_n03041632_23736.png
subject-05,1,299,0.826642036437988,truck,truck,true,0299_fc_s05_true_truck_35_n03796401_9953.png
subject-05,1,300,0.877897024154663,bird,bird,true,0300_fc_s05_true_bird_35_n02007558_10610.png
subject-05,1,301,0.792141914367676,bird,bear,true,0301_fc_s05_true_bear_35_n02134418_6228.png
subject-05,1,302,0.636282920837402,oven,oven,true,0302_fc_s05_true_oven_35_n04111531_22493.png
subject-05,1,303,0.734764099121094,knife,knife,true,0303_fc_s05_true_knife_35_n03041632_11285.png
subject-05,1,304,1.50033402442932,dog,dog,true,0304_fc_s05_true_dog_35_n02094258_4424.png
subject-05,1,305,0.639611959457397,clock,clock,false,0305_fc_s05_false_clock_35_n03196217_109.png
subject-05,1,306,0.754297018051147,keyboard,keyboard,true,0306_fc_s05_true_keyboard_35_n03085013_4542.png
subject-05,1,307,0.850785970687866,chair,chair,true,0307_fc_s05_true_chair_35_n03376595_11839.png
subject-05,1,308,0.897387027740479,bird,bicycle,true,0308_fc_s05_true_bicycle_35_n03792782_16819.png
subject-05,1,309,1.50037717819214,boat,bear,false,0309_fc_s05_false_bear_35_n02134418_6252.png
subject-05,1,310,1.06988191604614,cat,dog,false,0310_fc_s05_false_dog_35_n02097130_7786.png
subject-05,1,311,0.708394050598145,cat,bear,false,0311_fc_s05_false_bear_35_n02133161_12895.png
subject-05,1,312,0.865491151809692,bird,bird,false,0312_fc_s05_false_bird_35_n02056570_9336.png
subject-05,1,313,1.20194792747498,bird,bird,true,0313_fc_s05_true_bird_35_n01824575_2274.png
subject-05,1,314,0.756778001785278,cat,cat,true,0314_fc_s05_true_cat_35_n02123045_909.png
subject-05,1,315,0.646306991577148,cat,cat,false,0315_fc_s05_false_cat_35_n02123394_1318.png
subject-05,1,316,0.820832967758179,cat,bear,true,0316_fc_s05_true_bear_35_n02134084_15157.png
subject-05,1,317,0.813241958618164,bird,knife,true,0317_fc_s05_true_knife_35_n03041632_7173.png
subject-05,1,318,1.12930798530579,oven,oven,true,0318_fc_s05_true_oven_35_n04111531_92.png
subject-05,1,319,1.0030620098114,cat,chair,false,0319_fc_s05_false_chair_35_n04429376_5134.png
subject-05,1,320,0.817854881286621,keyboard,keyboard,true,0320_fc_s05_true_keyboard_35_n03085013_20377.png
subject-05,1,321,0.948064804077148,bear,bear,true,0321_fc_s05_true_bear_35_n02133161_644.png
subject-05,1,322,0.800688028335571,elephant,elephant,true,0322_fc_s05_true_elephant_35_n02504458_1680.png
subject-05,1,323,0.836961984634399,truck,truck,false,0323_fc_s05_false_truck_35_n04467665_90211.png
subject-05,1,324,NaN,na,clock,true,0324_fc_s05_true_clock_35_n04548280_8892.png
subject-05,1,325,NaN,na,chair,true,0325_fc_s05_true_chair_35_n04429376_7089.png
subject-05,1,326,0.648252010345459,truck,truck,true,0326_fc_s05_true_truck_35_n04467665_63534.png
subject-05,1,327,0.716661930084229,clock,clock,true,0327_fc_s05_true_clock_35_n03196217_3987.png
subject-05,1,328,0.823298931121826,cat,cat,true,0328_fc_s05_true_cat_35_n02125311_33654.png
subject-05,1,329,0.849905967712402,bird,bird,false,0329_fc_s05_false_bird_35_n02028035_2741.png
subject-05,1,330,0.678728103637695,dog,dog,true,0330_fc_s05_true_dog_35_n02107683_966.png
subject-05,1,331,0.654796838760376,keyboard,keyboard,false,0331_fc_s05_false_keyboard_35_n04505470_2010.png
subject-05,1,332,0.704991817474365,elephant,elephant,false,0332_fc_s05_false_elephant_35_n02504013_3564.png
subject-05,1,333,0.819639921188354,oven,oven,true,0333_fc_s05_true_oven_35_n04111531_5463.png
subject-05,1,334,0.658090114593506,bottle,bottle,true,0334_fc_s05_true_bottle_35_n04591713_2043.png
subject-05,1,335,0.97514796257019,bottle,bottle,true,0335_fc_s05_true_bottle_35_n04591713_6232.png
subject-05,1,336,1.48095297813416,bear,bear,false,0336_fc_s05_false_bear_35_n02132136_5872.png
subject-05,1,337,0.827755928039551,keyboard,keyboard,true,0337_fc_s05_true_keyboard_35_n03085013_21325.png
subject-05,1,338,0.726263046264648,airplane,airplane,false,0338_fc_s05_false_airplane_35_n02690373_8858.png
subject-05,1,339,NaN,na,oven,false,0339_fc_s05_false_oven_35_n04111531_1305.png
subject-05,1,340,NaN,na,boat,false,0340_fc_s05_false_boat_35_n03662601_10228.png
subject-05,1,341,0.927069902420044,dog,bear,true,0341_fc_s05_true_bear_35_n02134418_163.png
subject-05,1,342,0.879222869873047,airplane,airplane,true,0342_fc_s05_true_airplane_35_n02690373_852.png
subject-05,1,343,1.236732006073,dog,dog,false,0343_fc_s05_false_dog_35_n02090622_306.png
subject-05,1,344,0.859495878219604,cat,cat,true,0344_fc_s05_true_cat_35_n02123597_13623.png
subject-05,1,345,1.1821448802948,chair,chair,true,0345_fc_s05_true_chair_35_n04429376_15544.png
subject-05,1,346,0.980398893356323,keyboard,oven,false,0346_fc_s05_false_oven_35_n04111531_7106.png
subject-05,1,347,0.653630971908569,oven,oven,false,0347_fc_s05_false_oven_35_n04111531_4346.png
subject-05,1,348,0.898128032684326,oven,keyboard,false,0348_fc_s05_false_keyboard_35_n04505470_6601.png
subject-05,1,349,0.833914041519165,truck,truck,true,0349_fc_s05_true_truck_35_n03796401_23501.png
subject-05,1,350,0.932471036911011,boat,chair,false,0350_fc_s05_false_chair_35_n04099969_1823.png
subject-05,1,351,1.50010204315186,clock,oven,true,0351_fc_s05_true_oven_35_n04111531_5357.png
subject-05,1,352,0.723407983779907,bear,bear,false,0352_fc_s05_false_bear_35_n02132136_7468.png
subject-05,1,353,0.799921989440918,knife,knife,true,0353_fc_s05_true_knife_35_n03041632_26340.png
subject-05,1,354,0.750248908996582,knife,knife,true,0354_fc_s05_true_knife_35_n03041632_26053.png
subject-05,1,355,1.15665507316589,bicycle,bicycle,true,0355_fc_s05_true_bicycle_35_n02835271_9434.png
subject-05,1,356,0.933251857757568,cat,cat,false,0356_fc_s05_false_cat_35_n02123394_1860.png
subject-05,1,357,1.22420692443848,airplane,airplane,false,0357_fc_s05_false_airplane_35_n02690373_19329.png
subject-05,1,358,0.562215805053711,cat,cat,true,0358_fc_s05_true_cat_35_n02125311_42374.png
subject-05,1,359,0.564883947372437,clock,clock,true,0359_fc_s05_true_clock_35_n04548280_5701.png
subject-05,1,360,0.947185039520264,chair,chair,false,0360_fc_s05_false_chair_35_n04099969_930.png
subject-05,1,361,NaN,na,bird,false,0361_fc_s05_false_bird_35_n01514859_6419.png
subject-05,1,362,0.656219005584717,chair,chair,true,0362_fc_s05_true_chair_35_n04099969_25085.png
subject-05,1,363,NaN,na,bottle,false,0363_fc_s05_false_bottle_35_n03983396_2034.png
subject-05,1,364,0.719516038894653,car,car,false,0364_fc_s05_false_car_35_n04285008_7150.png
subject-05,1,365,1.15005302429199,clock,bear,true,0365_fc_s05_true_bear_35_n02134418_239.png
subject-05,1,366,1.31607294082642,elephant,elephant,false,0366_fc_s05_false_elephant_35_n02504013_1944.png
subject-05,1,367,0.600592136383057,bird,dog,false,0367_fc_s05_false_dog_35_n02096051_4586.png
subject-05,1,368,1.03696703910828,car,car,true,0368_fc_s05_true_car_35_n03100240_8996.png
subject-05,1,369,NaN,na,cat,true,0369_fc_s05_true_cat_35_n02124075_8163.png
subject-05,1,370,0.963473081588745,keyboard,dog,false,0370_fc_s05_false_dog_35_n02096051_173.png
subject-05,1,371,1.19982600212097,car,oven,false,0371_fc_s05_false_oven_35_n04111531_8077.png
subject-05,1,372,NaN,na,bird,true,0372_fc_s05_true_bird_35_n01616318_1831.png
subject-05,1,373,1.34716486930847,bottle,bottle,true,0373_fc_s05_true_bottle_35_n04557648_854.png
subject-05,1,374,0.771587133407593,bottle,bottle,false,0374_fc_s05_false_bottle_35_n04579145_7653.png
subject-05,1,375,0.675857067108154,car,car,true,0375_fc_s05_true_car_35_n03100240_16466.png
subject-05,1,376,1.0825560092926,bottle,cat,false,0376_fc_s05_false_cat_35_n02123597_13278.png
subject-05,1,377,0.712907075881958,boat,boat,true,0377_fc_s05_true_boat_35_n02951358_461.png
subject-05,1,378,1.50022006034851,truck,boat,true,0378_fc_s05_true_boat_35_n03662601_12426.png
subject-05,1,379,0.836496829986572,oven,oven,false,0379_fc_s05_false_oven_35_n04111531_5756.png
subject-05,1,380,NaN,na,bicycle,true,0380_fc_s05_true_bicycle_35_n03792782_1586.png
subject-05,1,381,0.681739091873169,boat,boat,true,0381_fc_s05_true_boat_35_n03344393_8294.png
subject-05,1,382,1.00692701339722,dog,bear,true,0382_fc_s05_true_bear_35_n02132136_6787.png
subject-05,1,383,0.983062028884888,bottle,bottle,false,0383_fc_s05_false_bottle_35_n04557648_6038.png
subject-05,1,384,1.21187686920166,dog,dog,true,0384_fc_s05_true_dog_35_n02093428_17877.png
subject-05,1,385,1.10975408554077,boat,bird,false,0385_fc_s05_false_bird_35_n01582220_5108.png
subject-05,1,386,1.41625785827637,oven,oven,false,0386_fc_s05_false_oven_35_n04111531_11848.png
subject-05,1,387,0.770908117294312,truck,boat,true,0387_fc_s05_true_boat_35_n03662601_9926.png
subject-05,1,388,0.857352018356323,bird,bird,false,0388_fc_s05_false_bird_35_n02006656_7480.png
subject-05,1,389,0.856011867523193,bear,dog,false,0389_fc_s05_false_dog_35_n02108915_2443.png
subject-05,1,390,1.07615494728088,cat,dog,false,0390_fc_s05_false_dog_35_n02102973_6789.png
subject-05,1,391,1.34090685844421,oven,chair,false,0391_fc_s05_false_chair_35_n02791124_10784.png
subject-05,1,392,0.963296890258789,truck,truck,true,0392_fc_s05_true_truck_35_n04467665_2204.png
subject-05,1,393,1.03700494766235,car,car,false,0393_fc_s05_false_car_35_n02814533_36383.png
subject-05,1,394,0.843196868896484,knife,knife,false,0394_fc_s05_false_knife_35_n03041632_24277.png
subject-05,1,395,0.871807098388672,cat,cat,true,0395_fc_s05_true_cat_35_n02123394_7466.png
subject-05,1,396,0.915704965591431,knife,knife,false,0396_fc_s05_false_knife_35_n03041632_92063.png
subject-05,1,397,0.797941923141479,bicycle,bicycle,true,0397_fc_s05_true_bicycle_35_n03792782_10146.png
subject-05,1,398,0.682085990905762,bottle,bottle,true,0398_fc_s05_true_bottle_35_n04591713_3441.png
subject-05,1,399,1.18672299385071,oven,chair,true,0399_fc_s05_true_chair_35_n02791124_5201.png
subject-05,1,400,0.609088897705078,truck,truck,false,0400_fc_s05_false_truck_35_n03796401_9627.png
subject-05,1,401,1.47474408149719,oven,oven,true,0401_fc_s05_true_oven_35_n04111531_4562.png
subject-05,1,402,1.38100218772888,car,car,false,0402_fc_s05_false_car_35_n03100240_5595.png
subject-05,1,403,1.40578699111938,keyboard,knife,false,0403_fc_s05_false_knife_35_n03041632_20413.png
subject-05,1,404,0.844006061553955,dog,dog,true,0404_fc_s05_true_dog_35_n02092002_885.png
subject-05,1,405,0.796738862991333,chair,clock,true,0405_fc_s05_true_clock_35_n04548280_11681.png
subject-05,1,406,0.855039119720459,knife,knife,false,0406_fc_s05_false_knife_35_n03041632_31301.png
subject-05,1,407,0.677373170852661,dog,cat,false,0407_fc_s05_false_cat_35_n02125311_8541.png
subject-05,1,408,0.859589815139771,chair,chair,false,0408_fc_s05_false_chair_35_n04099969_16670.png
subject-05,1,409,0.950121164321899,knife,chair,true,0409_fc_s05_true_chair_35_n04099969_4162.png
subject-05,1,410,1.40844202041626,dog,dog,false,0410_fc_s05_false_dog_35_n02106662_604.png
subject-05,1,411,0.884737014770508,bicycle,bicycle,false,0411_fc_s05_false_bicycle_35_n02835271_11522.png
subject-05,1,412,1.06552696228027,truck,truck,false,0412_fc_s05_false_truck_35_n03417042_8192.png
subject-05,1,413,1.36376714706421,bear,dog,false,0413_fc_s05_false_dog_35_n02093991_8977.png
subject-05,1,414,1.02438688278198,bear,elephant,false,0414_fc_s05_false_elephant_35_n02504458_8422.png
subject-05,1,415,0.798475980758667,truck,truck,false,0415_fc_s05_false_truck_35_n04467665_3193.png
subject-05,1,416,0.874987840652466,cat,cat,true,0416_fc_s05_true_cat_35_n02123394_1038.png
subject-05,1,417,0.609597206115723,boat,boat,false,0417_fc_s05_false_boat_35_n04612504_4979.png
subject-05,1,418,1.02198386192322,bear,bear,true,0418_fc_s05_true_bear_35_n02134084_197.png
subject-05,1,419,NaN,na,cat,true,0419_fc_s05_true_cat_35_n02123597_4763.png
subject-05,1,420,0.971436977386475,boat,bird,true,0420_fc_s05_true_bird_35_n01601694_17714.png
subject-05,1,421,NaN,na,elephant,true,0421_fc_s05_true_elephant_35_n02504458_6823.png
subject-05,1,422,0.622269868850708,clock,clock,true,0422_fc_s05_true_clock_35_n03196217_11351.png
subject-05,1,423,0.909216165542603,car,car,true,0423_fc_s05_true_car_35_n03100240_17163.png
subject-05,1,424,0.693292140960693,boat,boat,true,0424_fc_s05_true_boat_35_n04273569_4476.png
subject-05,1,425,1.41359496116638,knife,knife,false,0425_fc_s05_false_knife_35_n03041632_11700.png
subject-05,1,426,0.69828200340271,bear,bear,true,0426_fc_s05_true_bear_35_n02134084_3868.png
subject-05,1,427,1.1725480556488,truck,truck,true,0427_fc_s05_true_truck_35_n03796401_21256.png
subject-05,1,428,0.70871901512146,clock,clock,true,0428_fc_s05_true_clock_35_n03196217_592.png
subject-05,1,429,0.997931957244873,oven,bottle,true,0429_fc_s05_true_bottle_35_n04557648_10744.png
subject-05,1,430,0.703991889953613,truck,truck,true,0430_fc_s05_true_truck_35_n03796401_26042.png
subject-05,1,431,0.81072211265564,dog,dog,true,0431_fc_s05_true_dog_35_n02093859_2438.png
subject-05,1,432,0.79761791229248,keyboard,keyboard,false,0432_fc_s05_false_keyboard_35_n04505470_650.png
subject-05,1,433,1.25775408744812,elephant,elephant,true,0433_fc_s05_true_elephant_35_n02504458_13583.png
subject-05,1,434,0.634562015533447,car,clock,true,0434_fc_s05_true_clock_35_n03196217_6467.png
subject-05,1,435,1.39719200134277,boat,oven,false,0435_fc_s05_false_oven_35_n04111531_8082.png
subject-05,1,436,1.50007104873657,oven,oven,false,0436_fc_s05_false_oven_35_n04111531_4904.png
subject-05,1,437,0.917479991912842,elephant,elephant,false,0437_fc_s05_false_elephant_35_n02504013_2125.png
subject-05,1,438,1.04491305351257,cat,cat,true,0438_fc_s05_true_cat_35_n02125311_2576.png
subject-05,1,439,1.39503479003906,boat,bicycle,false,0439_fc_s05_false_bicycle_35_n03792782_15.png
subject-05,1,440,0.803544998168945,clock,clock,false,0440_fc_s05_false_clock_35_n02708093_7998.png
subject-05,1,441,1.27462697029114,truck,truck,true,0441_fc_s05_true_truck_35_n04467665_4940.png
subject-05,1,442,1.20508599281311,boat,airplane,false,0442_fc_s05_false_airplane_35_n02690373_3216.png
subject-05,1,443,1.2713508605957,cat,cat,true,0443_fc_s05_true_cat_35_n02123159_3555.png
subject-05,1,444,1.2525200843811,boat,chair,false,0444_fc_s05_false_chair_35_n02791124_16831.png
subject-05,1,445,0.791306018829346,bottle,bottle,false,0445_fc_s05_false_bottle_35_n03983396_10806.png
subject-05,1,446,0.995517015457153,knife,knife,true,0446_fc_s05_true_knife_35_n03041632_11327.png
subject-05,1,447,1.34667897224426,oven,oven,false,0447_fc_s05_false_oven_35_n04111531_3204.png
subject-05,1,448,0.912894010543823,chair,chair,true,0448_fc_s05_true_chair_35_n04099969_14013.png
subject-05,1,449,1.50026392936707,boat,bear,false,0449_fc_s05_false_bear_35_n02133161_8614.png
subject-05,1,450,0.757323980331421,bird,bird,true,0450_fc_s05_true_bird_35_n02009229_1219.png
subject-05,1,451,0.669270992279053,chair,chair,false,0451_fc_s05_false_chair_35_n03376595_19041.png
subject-05,1,452,0.707951784133911,cat,cat,false,0452_fc_s05_false_cat_35_n02123045_12482.png
subject-05,1,453,0.774353981018066,keyboard,keyboard,true,0453_fc_s05_true_keyboard_35_n03085013_15779.png
subject-05,1,454,0.84294605255127,bird,bird,true,0454_fc_s05_true_bird_35_n01601694_669.png
subject-05,1,455,0.901481151580811,bird,bear,true,0455_fc_s05_true_bear_35_n02134084_15888.png
subject-05,1,456,1.0823609828949,cat,boat,false,0456_fc_s05_false_boat_35_n02951358_94.png
subject-05,1,457,1.08898019790649,knife,knife,true,0457_fc_s05_true_knife_35_n03041632_7116.png
subject-05,1,458,1.13330411911011,dog,dog,true,0458_fc_s05_true_dog_35_n02109047_66487.png
subject-05,1,459,NaN,na,oven,false,0459_fc_s05_false_oven_35_n04111531_10537.png
subject-05,1,460,0.594938993453979,airplane,airplane,false,0460_fc_s05_false_airplane_35_n02690373_610.png
subject-05,1,461,0.807736158370972,boat,boat,true,0461_fc_s05_true_boat_35_n04612504_9488.png
subject-05,1,462,1.47762680053711,boat,keyboard,false,0462_fc_s05_false_keyboard_35_n03085013_21880.png
subject-05,1,463,0.775949954986572,boat,boat,true,0463_fc_s05_true_boat_35_n04612504_5611.png
subject-05,1,464,1.00430703163147,cat,bear,false,0464_fc_s05_false_bear_35_n02132136_1056.png
subject-05,1,465,0.927037954330444,chair,chair,false,0465_fc_s05_false_chair_35_n04099969_5036.png
subject-05,1,466,0.862725019454956,bird,bird,true,0466_fc_s05_true_bird_35_n02051845_3102.png
subject-05,1,467,0.874881029129028,chair,chair,false,0467_fc_s05_false_chair_35_n04099969_13789.png
subject-05,1,468,0.767158985137939,airplane,airplane,true,0468_fc_s05_true_airplane_35_n02690373_2935.png
subject-05,1,469,0.71967887878418,clock,clock,false,0469_fc_s05_false_clock_35_n04548280_64.png
subject-05,1,470,0.718517780303955,cat,cat,true,0470_fc_s05_true_cat_35_n02123159_126.png
subject-05,1,471,0.897486925125122,bird,bird,true,0471_fc_s05_true_bird_35_n01820546_20582.png
subject-05,1,472,1.2114200592041,knife,knife,true,0472_fc_s05_true_knife_35_n03041632_54603.png
subject-05,1,473,0.8781898021698,airplane,airplane,false,0473_fc_s05_false_airplane_35_n02690373_6845.png
subject-05,1,474,0.846747159957886,oven,oven,true,0474_fc_s05_true_oven_35_n04111531_7862.png
subject-05,1,475,1.25897789001465,elephant,elephant,true,0475_fc_s05_true_elephant_35_n02504458_6805.png
subject-05,1,476,1.0786349773407,oven,oven,true,0476_fc_s05_true_oven_35_n04111531_22388.png
subject-05,1,477,0.792957067489624,elephant,elephant,false,0477_fc_s05_false_elephant_35_n02504458_6119.png
subject-05,1,478,1.09156394004822,bear,elephant,true,0478_fc_s05_true_elephant_35_n02504013_7218.png
subject-05,1,479,1.21207189559937,bottle,boat,true,0479_fc_s05_true_boat_35_n03344393_7585.png
subject-05,1,480,0.750343084335327,airplane,airplane,true,0480_fc_s05_true_airplane_35_n02690373_3641.png
subject-05,1,481,NaN,na,bird,false,0481_fc_s05_false_bird_35_n02018207_364.png
subject-05,1,482,NaN,na,bottle,true,0482_fc_s05_true_bottle_35_n03983396_4743.png
subject-05,1,483,0.577225923538208,bottle,bottle,false,0483_fc_s05_false_bottle_35_n04591713_4931.png
subject-05,1,484,0.691750049591064,truck,truck,false,0484_fc_s05_false_truck_35_n03417042_1149.png
subject-05,1,485,0.787321090698242,chair,chair,false,0485_fc_s05_false_chair_35_n02791124_1437.png
subject-05,1,486,0.747511863708496,chair,chair,true,0486_fc_s05_true_chair_35_n02791124_13701.png
subject-05,1,487,0.662301063537598,bottle,bottle,false,0487_fc_s05_false_bottle_35_n04560804_8550.png
subject-05,1,488,1.38219904899597,oven,elephant,false,0488_fc_s05_false_elephant_35_n02504013_13766.png
subject-05,1,489,0.668509960174561,boat,boat,false,0489_fc_s05_false_boat_35_n04612504_17103.png
subject-05,1,490,0.742310047149658,elephant,elephant,true,0490_fc_s05_true_elephant_35_n02504458_6841.png
subject-05,1,491,0.716371059417725,airplane,airplane,true,0491_fc_s05_true_airplane_35_n02690373_15966.png
subject-05,1,492,0.772800922393799,bicycle,bicycle,true,0492_fc_s05_true_bicycle_35_n03792782_7678.png
subject-05,1,493,0.649316072463989,clock,clock,true,0493_fc_s05_true_clock_35_n04548280_23690.png
subject-05,1,494,0.761717796325684,boat,boat,false,0494_fc_s05_false_boat_35_n04612504_9497.png
subject-05,1,495,0.910706043243408,dog,dog,false,0495_fc_s05_false_dog_35_n02097130_1165.png
subject-05,1,496,1.1630871295929,truck,truck,false,0496_fc_s05_false_truck_35_n03796401_8206.png
subject-05,1,497,0.875642061233521,dog,dog,true,0497_fc_s05_true_dog_35_n02110806_1479.png
subject-05,1,498,0.713911056518555,keyboard,keyboard,false,0498_fc_s05_false_keyboard_35_n03085013_19130.png
subject-05,1,499,0.658111095428467,keyboard,keyboard,true,0499_fc_s05_true_keyboard_35_n03085013_20897.png
subject-05,1,500,0.6947021484375,airplane,airplane,false,0500_fc_s05_false_airplane_35_n02690373_8214.png
subject-05,1,501,0.844924926757812,truck,truck,false,0501_fc_s05_false_truck_35_n03417042_7581.png
subject-05,1,502,0.967428922653198,oven,oven,true,0502_fc_s05_true_oven_35_n04111531_6080.png
subject-05,1,503,NaN,na,chair,false,0503_fc_s05_false_chair_35_n04099969_1696.png
subject-05,1,504,0.945039987564087,dog,dog,true,0504_fc_s05_true_dog_35_n02100735_6920.png
subject-05,1,505,1.19739484786987,keyboard,knife,false,0505_fc_s05_false_knife_35_n03041632_26933.png
subject-05,1,506,1.27189302444458,bottle,bottle,false,0506_fc_s05_false_bottle_35_n02823428_3140.png
subject-05,1,507,1.42426514625549,oven,bear,false,0507_fc_s05_false_bear_35_n02134084_7349.png
subject-05,1,508,0.560666084289551,chair,chair,true,0508_fc_s05_true_chair_35_n04099969_5364.png
subject-05,1,509,0.737291097640991,keyboard,keyboard,true,0509_fc_s05_true_keyboard_35_n03085013_20206.png
subject-05,1,510,0.62456488609314,chair,chair,true,0510_fc_s05_true_chair_35_n02791124_3484.png
subject-05,1,511,0.761007070541382,keyboard,keyboard,true,0511_fc_s05_true_keyboard_35_n03085013_24521.png
subject-05,1,512,0.905345916748047,airplane,airplane,true,0512_fc_s05_true_airplane_35_n02690373_1972.png
subject-05,1,513,0.884587049484253,dog,dog,true,0513_fc_s05_true_dog_35_n02097658_10125.png
subject-05,1,514,0.552436113357544,clock,clock,true,0514_fc_s05_true_clock_35_n02708093_7882.png
subject-05,1,515,0.696964979171753,bird,bird,true,0515_fc_s05_true_bird_35_n01531178_14345.png
subject-05,1,516,0.929220914840698,cat,cat,true,0516_fc_s05_true_cat_35_n02124075_15845.png
subject-05,1,517,0.667673826217651,dog,dog,false,0517_fc_s05_false_dog_35_n02088364_11015.png
subject-05,1,518,0.909623146057129,truck,truck,true,0518_fc_s05_true_truck_35_n04467665_22557.png
subject-05,1,519,0.984169006347656,dog,dog,true,0519_fc_s05_true_dog_35_n02085936_3984.png
subject-05,1,520,0.890527963638306,bird,bird,false,0520_fc_s05_false_bird_35_n02011460_20402.png
subject-05,1,521,0.875146150588989,airplane,airplane,false,0521_fc_s05_false_airplane_35_n02690373_8704.png
subject-05,1,522,0.819543123245239,car,car,true,0522_fc_s05_true_car_35_n04285008_1478.png
subject-05,1,523,1.08610200881958,boat,boat,false,0523_fc_s05_false_boat_35_n04273569_3722.png
subject-05,1,524,0.584612846374512,cat,cat,false,0524_fc_s05_false_cat_35_n02123394_3322.png
subject-05,1,525,0.749688148498535,oven,oven,false,0525_fc_s05_false_oven_35_n04111531_6485.png
subject-05,1,526,0.724101066589355,bear,bear,false,0526_fc_s05_false_bear_35_n02133161_14166.png
subject-05,1,527,0.676088094711304,elephant,elephant,true,0527_fc_s05_true_elephant_35_n02504013_19236.png
subject-05,1,528,0.620617151260376,cat,cat,true,0528_fc_s05_true_cat_35_n02123597_8644.png
subject-05,1,529,1.50022292137146,bottle,bottle,true,0529_fc_s05_true_bottle_35_n04560804_12309.png
subject-05,1,530,0.709375143051147,keyboard,keyboard,true,0530_fc_s05_true_keyboard_35_n03085013_19450.png
subject-05,1,531,0.796255111694336,knife,knife,false,0531_fc_s05_false_knife_35_n03041632_85416.png
subject-05,1,532,1.50039005279541,bottle,clock,true,0532_fc_s05_true_clock_35_n04548280_3342.png
subject-05,1,533,0.755306959152222,keyboard,keyboard,true,0533_fc_s05_true_keyboard_35_n03085013_19536.png
subject-05,1,534,0.753384113311768,clock,clock,false,0534_fc_s05_false_clock_35_n04548280_9867.png
subject-05,1,535,1.17360401153564,cat,dog,true,0535_fc_s05_true_dog_35_n02097047_680.png
subject-05,1,536,0.86374306678772,bicycle,bicycle,true,0536_fc_s05_true_bicycle_35_n02835271_1721.png
subject-05,1,537,0.629639148712158,boat,boat,true,0537_fc_s05_true_boat_35_n04273569_18898.png
subject-05,1,538,0.827770948410034,knife,knife,false,0538_fc_s05_false_knife_35_n03041632_13478.png
subject-05,1,539,0.55553412437439,bottle,bottle,false,0539_fc_s05_false_bottle_35_n03983396_957.png
subject-05,1,540,0.749978065490723,cat,cat,true,0540_fc_s05_true_cat_35_n02123394_1352.png
subject-05,1,541,0.962263107299805,oven,keyboard,false,0541_fc_s05_false_keyboard_35_n04505470_5006.png
subject-05,1,542,0.716700077056885,clock,clock,false,0542_fc_s05_false_clock_35_n03196217_5414.png
subject-05,1,543,1.17263889312744,elephant,cat,false,0543_fc_s05_false_cat_35_n02125311_34814.png
subject-05,1,544,0.764363050460815,bicycle,bicycle,true,0544_fc_s05_true_bicycle_35_n03792782_6663.png
subject-05,1,545,0.800945043563843,truck,truck,false,0545_fc_s05_false_truck_35_n03417042_3398.png
subject-05,1,546,0.591111898422241,chair,chair,false,0546_fc_s05_false_chair_35_n02791124_3116.png
subject-05,1,547,NaN,na,airplane,false,0547_fc_s05_false_airplane_35_n02690373_2856.png
subject-05,1,548,NaN,na,elephant,true,0548_fc_s05_true_elephant_35_n02504013_4426.png
subject-05,1,549,0.671051025390625,bird,bird,true,0549_fc_s05_true_bird_35_n02018207_9346.png
subject-05,1,550,0.736845970153809,bottle,bottle,true,0550_fc_s05_true_bottle_35_n03983396_7361.png
subject-05,1,551,0.559424877166748,airplane,airplane,false,0551_fc_s05_false_airplane_35_n02690373_9680.png
subject-05,1,552,0.838524103164673,dog,dog,false,0552_fc_s05_false_dog_35_n02089867_8620.png
subject-05,1,553,0.912723064422607,car,car,false,0553_fc_s05_false_car_35_n02814533_74176.png
subject-05,1,554,0.919471979141235,cat,cat,false,0554_fc_s05_false_cat_35_n02123045_13322.png
subject-05,1,555,0.901817083358765,boat,oven,false,0555_fc_s05_false_oven_35_n04111531_21232.png
subject-05,1,556,0.586093902587891,oven,oven,true,0556_fc_s05_true_oven_35_n04111531_6756.png
subject-05,1,557,0.719993829727173,bear,bear,false,0557_fc_s05_false_bear_35_n02134084_790.png
subject-05,1,558,0.964300870895386,clock,clock,true,0558_fc_s05_true_clock_35_n02708093_240.png
subject-05,1,559,0.89257287979126,car,boat,false,0559_fc_s05_false_boat_35_n03662601_9530.png
subject-05,1,560,1.50010704994202,elephant,elephant,true,0560_fc_s05_true_elephant_35_n02504013_2583.png
subject-05,1,561,0.802026033401489,elephant,elephant,true,0561_fc_s05_true_elephant_35_n02504013_18498.png
subject-05,1,562,0.746342897415161,cat,bird,false,0562_fc_s05_false_bird_35_n02007558_5467.png
subject-05,1,563,0.852910041809082,airplane,airplane,false,0563_fc_s05_false_airplane_35_n02690373_8815.png
subject-05,1,564,0.651309967041016,cat,bear,true,0564_fc_s05_true_bear_35_n02133161_5286.png
subject-05,1,565,0.696050882339478,bottle,bottle,true,0565_fc_s05_true_bottle_35_n03983396_4812.png
subject-05,1,566,1.31638288497925,oven,truck,false,0566_fc_s05_false_truck_35_n03796401_12606.png
subject-05,1,567,0.922830820083618,keyboard,keyboard,false,0567_fc_s05_false_keyboard_35_n03085013_24408.png
subject-05,1,568,0.629718065261841,car,car,true,0568_fc_s05_true_car_35_n03100240_3024.png
subject-05,1,569,0.984176874160767,bear,bear,false,0569_fc_s05_false_bear_35_n02132136_8975.png
subject-05,1,570,0.876901865005493,oven,oven,true,0570_fc_s05_true_oven_35_n04111531_22041.png
subject-05,1,571,1.34907197952271,bird,cat,true,0571_fc_s05_true_cat_35_n02123597_2522.png
subject-05,1,572,NaN,na,oven,true,0572_fc_s05_true_oven_35_n04111531_16463.png
subject-05,1,573,0.790615797042847,airplane,airplane,false,0573_fc_s05_false_airplane_35_n02690373_13610.png
subject-05,1,574,0.772641897201538,keyboard,keyboard,true,0574_fc_s05_true_keyboard_35_n03085013_7588.png
subject-05,1,575,1.17577791213989,bird,cat,true,0575_fc_s05_true_cat_35_n02123159_2535.png
subject-05,1,576,NaN,na,boat,true,0576_fc_s05_true_boat_35_n02951358_12748.png
subject-05,1,577,0.956883907318115,oven,dog,true,0577_fc_s05_true_dog_35_n02110185_15061.png
subject-05,1,578,NaN,na,bird,false,0578_fc_s05_false_bird_35_n01514859_27571.png
subject-05,1,579,1.05093789100647,elephant,elephant,true,0579_fc_s05_true_elephant_35_n02504013_1854.png
subject-05,1,580,NaN,na,chair,false,0580_fc_s05_false_chair_35_n04429376_2592.png
subject-05,1,581,0.66849684715271,dog,bear,false,0581_fc_s05_false_bear_35_n02134418_4278.png
subject-05,1,582,0.628700971603394,keyboard,keyboard,true,0582_fc_s05_true_keyboard_35_n03085013_22928.png
subject-05,1,583,0.873724937438965,knife,knife,true,0583_fc_s05_true_knife_35_n03041632_43975.png
subject-05,1,584,0.779219150543213,elephant,elephant,false,0584_fc_s05_false_elephant_35_n02504458_1127.png
subject-05,1,585,1.12140798568726,knife,knife,false,0585_fc_s05_false_knife_35_n03041632_27879.png
subject-05,1,586,0.698009967803955,dog,dog,true,0586_fc_s05_true_dog_35_n02088466_705.png
subject-05,1,587,1.50012111663818,cat,knife,true,0587_fc_s05_true_knife_35_n03041632_19275.png
subject-05,1,588,0.716295003890991,chair,chair,false,0588_fc_s05_false_chair_35_n04099969_24309.png
subject-05,1,589,NaN,na,bicycle,false,0589_fc_s05_false_bicycle_35_n02835271_14717.png
subject-05,1,590,0.618697881698608,boat,airplane,false,0590_fc_s05_false_airplane_35_n02690373_19646.png
subject-05,1,591,0.571306943893433,clock,clock,false,0591_fc_s05_false_clock_35_n04548280_1230.png
subject-05,1,592,0.701725959777832,car,car,true,0592_fc_s05_true_car_35_n03100240_6988.png
subject-05,1,593,0.868221998214722,clock,clock,false,0593_fc_s05_false_clock_35_n03196217_3100.png
subject-05,1,594,0.858377933502197,elephant,elephant,false,0594_fc_s05_false_elephant_35_n02504458_6898.png
subject-05,1,595,0.90851092338562,elephant,elephant,true,0595_fc_s05_true_elephant_35_n02504013_407.png
subject-05,1,596,0.664879083633423,knife,knife,true,0596_fc_s05_true_knife_35_n03041632_46422.png
subject-05,1,597,1.1933159828186,car,boat,false,0597_fc_s05_false_boat_35_n03344393_6432.png
subject-05,1,598,0.585745096206665,clock,clock,false,0598_fc_s05_false_clock_35_n02708093_3173.png
subject-05,1,599,0.744215965270996,truck,truck,false,0599_fc_s05_false_truck_35_n04467665_8012.png
subject-05,1,600,0.780984163284302,cat,cat,false,0600_fc_s05_false_cat_35_n02123159_6719.png
subject-05,1,601,0.595196962356567,knife,knife,true,0601_fc_s05_true_knife_35_n03041632_52040.png
subject-05,1,602,0.899540901184082,bicycle,bicycle,true,0602_fc_s05_true_bicycle_35_n03792782_13541.png
subject-05,1,603,0.605854034423828,keyboard,keyboard,false,0603_fc_s05_false_keyboard_35_n04505470_930.png
subject-05,1,604,0.903984069824219,truck,truck,true,0604_fc_s05_true_truck_35_n03796401_26477.png
subject-05,1,605,0.932628870010376,chair,chair,false,0605_fc_s05_false_chair_35_n03376595_13797.png
subject-05,1,606,1.06916403770447,elephant,elephant,true,0606_fc_s05_true_elephant_35_n02504458_582.png
subject-05,1,607,0.764250040054321,elephant,dog,true,0607_fc_s05_true_dog_35_n02113978_5104.png
subject-05,1,608,0.924394130706787,chair,chair,true,0608_fc_s05_true_chair_35_n04429376_8167.png
subject-05,1,609,0.860576868057251,boat,boat,false,0609_fc_s05_false_boat_35_n04612504_125.png
subject-05,1,610,1.15680193901062,truck,truck,true,0610_fc_s05_true_truck_35_n03417042_3659.png
subject-05,1,611,1.00125098228455,keyboard,keyboard,true,0611_fc_s05_true_keyboard_35_n03085013_18763.png
subject-05,1,612,0.883642911911011,clock,clock,false,0612_fc_s05_false_clock_35_n02708093_4040.png
subject-05,1,613,0.88186502456665,boat,boat,false,0613_fc_s05_false_boat_35_n03344393_10907.png
subject-05,1,614,0.69381308555603,car,car,true,0614_fc_s05_true_car_35_n02814533_41391.png
subject-05,1,615,1.0165638923645,bottle,bottle,true,0615_fc_s05_true_bottle_35_n02823428_2908.png
subject-05,1,616,0.556693077087402,bottle,bottle,true,0616_fc_s05_true_bottle_35_n02823428_1410.png
subject-05,1,617,0.991060972213745,bicycle,bicycle,true,0617_fc_s05_true_bicycle_35_n03792782_933.png
subject-05,1,618,0.97551703453064,bottle,bottle,false,0618_fc_s05_false_bottle_35_n02823428_73.png
subject-05,1,619,0.734174013137817,bottle,bottle,false,0619_fc_s05_false_bottle_35_n02823428_3394.png
subject-05,1,620,0.648611068725586,car,car,true,0620_fc_s05_true_car_35_n03100240_11672.png
subject-05,1,621,0.656829118728638,chair,chair,true,0621_fc_s05_true_chair_35_n04099969_3804.png
subject-05,1,622,0.525109052658081,elephant,elephant,true,0622_fc_s05_true_elephant_35_n02504013_2619.png
subject-05,1,623,NaN,na,dog,true,0623_fc_s05_true_dog_35_n02110185_2601.png
subject-05,1,624,1.0497190952301,bicycle,bicycle,false,0624_fc_s05_false_bicycle_35_n03792782_8087.png
subject-05,1,625,0.964583873748779,bottle,bottle,true,0625_fc_s05_true_bottle_35_n03937543_6028.png
subject-05,1,626,0.608745098114014,oven,oven,true,0626_fc_s05_true_oven_35_n04111531_10093.png
subject-05,1,627,0.669159889221191,car,car,false,0627_fc_s05_false_car_35_n03100240_22499.png
subject-05,1,628,1.50016307830811,bear,dog,true,0628_fc_s05_true_dog_35_n02097298_9633.png
subject-05,1,629,NaN,na,bird,false,0629_fc_s05_false_bird_35_n02056570_5887.png
subject-05,1,630,0.662748098373413,car,truck,true,0630_fc_s05_true_truck_35_n04467665_21594.png
subject-05,1,631,0.577085018157959,clock,clock,false,0631_fc_s05_false_clock_35_n03196217_6831.png
subject-05,1,632,1.11905908584595,bear,bear,false,0632_fc_s05_false_bear_35_n02133161_2616.png
subject-05,1,633,0.530211925506592,cat,bottle,false,0633_fc_s05_false_bottle_35_n03937543_5029.png
subject-05,1,634,0.690752029418945,clock,clock,false,0634_fc_s05_false_clock_35_n02708093_7007.png
subject-05,1,635,0.66454291343689,airplane,airplane,false,0635_fc_s05_false_airplane_35_n02690373_3377.png
subject-05,1,636,0.755008935928345,airplane,airplane,true,0636_fc_s05_true_airplane_35_n02690373_6807.png
subject-05,1,637,0.745676040649414,clock,clock,true,0637_fc_s05_true_clock_35_n04548280_24096.png
subject-05,1,638,1.17200493812561,knife,knife,true,0638_fc_s05_true_knife_35_n03041632_89391.png
subject-05,1,639,0.852469921112061,bicycle,bicycle,true,0639_fc_s05_true_bicycle_35_n02835271_13006.png
subject-05,1,640,0.672779083251953,car,car,false,0640_fc_s05_false_car_35_n03100240_8907.png
subject-05,1,641,1.07242918014526,boat,knife,false,0641_fc_s05_false_knife_35_n03041632_62810.png
subject-05,1,642,0.802592992782593,dog,dog,true,0642_fc_s05_true_dog_35_n02091134_10618.png
subject-05,1,643,0.739021062850952,keyboard,keyboard,true,0643_fc_s05_true_keyboard_35_n03085013_24206.png
subject-05,1,644,0.567400932312012,truck,truck,true,0644_fc_s05_true_truck_35_n03796401_28241.png
subject-05,1,645,0.711683988571167,truck,truck,true,0645_fc_s05_true_truck_35_n04467665_57786.png
subject-05,1,646,0.560334920883179,elephant,elephant,true,0646_fc_s05_true_elephant_35_n02504013_172.png
subject-05,1,647,0.780674934387207,boat,boat,true,0647_fc_s05_true_boat_35_n04612504_7559.png
subject-05,1,648,1.33935403823853,bottle,bottle,true,0648_fc_s05_true_bottle_35_n03937543_4723.png
subject-05,1,649,1.0537121295929,bird,bottle,true,0649_fc_s05_true_bottle_35_n04557648_474.png
subject-05,1,650,1.04377484321594,boat,boat,true,0650_fc_s05_true_boat_35_n04273569_22739.png
subject-05,1,651,0.842354774475098,dog,cat,false,0651_fc_s05_false_cat_35_n02123597_7583.png
subject-05,1,652,0.770733833312988,truck,truck,true,0652_fc_s05_true_truck_35_n04467665_20622.png
subject-05,1,653,0.72039008140564,bird,bird,true,0653_fc_s05_true_bird_35_n02007558_7715.png
subject-05,1,654,0.457006216049194,keyboard,keyboard,true,0654_fc_s05_true_keyboard_35_n03085013_22447.png
subject-05,1,655,1.5,oven,knife,true,0655_fc_s05_true_knife_35_n03041632_30286.png
subject-05,1,656,0.817929029464722,keyboard,keyboard,true,0656_fc_s05_true_keyboard_35_n03085013_24410.png
subject-05,1,657,0.824212074279785,elephant,elephant,false,0657_fc_s05_false_elephant_35_n02504458_7070.png
subject-05,1,658,0.705537796020508,chair,chair,true,0658_fc_s05_true_chair_35_n04099969_1490.png
subject-05,1,659,0.693657875061035,cat,cat,false,0659_fc_s05_false_cat_35_n02123597_11981.png
subject-05,1,660,0.967830181121826,knife,knife,false,0660_fc_s05_false_knife_35_n03041632_18532.png
subject-05,1,661,0.936381816864014,dog,dog,false,0661_fc_s05_false_dog_35_n02098105_1532.png
subject-05,1,662,1.01098895072937,boat,boat,true,0662_fc_s05_true_boat_35_n02951358_29529.png
subject-05,1,663,0.685354948043823,knife,knife,true,0663_fc_s05_true_knife_35_n03041632_4057.png
subject-05,1,664,0.599816083908081,bicycle,bicycle,true,0664_fc_s05_true_bicycle_35_n02835271_15087.png
subject-05,1,665,0.720147848129272,clock,clock,false,0665_fc_s05_false_clock_35_n04548280_3133.png
subject-05,1,666,0.977710962295532,bicycle,bicycle,true,0666_fc_s05_true_bicycle_35_n03792782_9741.png
subject-05,1,667,1.02035903930664,cat,cat,true,0667_fc_s05_true_cat_35_n02123159_4718.png
subject-05,1,668,0.735037088394165,bird,bird,true,0668_fc_s05_true_bird_35_n01532829_2023.png
subject-05,1,669,0.832923889160156,bird,bird,true,0669_fc_s05_true_bird_35_n01829413_89.png
subject-05,1,670,0.631279945373535,cat,cat,true,0670_fc_s05_true_cat_35_n02123045_20493.png
subject-05,1,671,0.997767925262451,bicycle,bicycle,false,0671_fc_s05_false_bicycle_35_n03792782_20065.png
subject-05,1,672,0.772339105606079,cat,bear,true,0672_fc_s05_true_bear_35_n02134084_14029.png
subject-05,1,673,1.13084387779236,bicycle,bicycle,true,0673_fc_s05_true_bicycle_35_n02835271_8399.png
subject-05,1,674,0.585599899291992,bird,bird,true,0674_fc_s05_true_bird_35_n02002556_19806.png
subject-05,1,675,1.07234811782837,bird,chair,true,0675_fc_s05_true_chair_35_n02791124_11523.png
subject-05,1,676,0.693038940429688,clock,clock,true,0676_fc_s05_true_clock_35_n03196217_243.png
subject-05,1,677,0.707589864730835,knife,knife,true,0677_fc_s05_true_knife_35_n03041632_21477.png
subject-05,1,678,0.849560022354126,bird,boat,false,0678_fc_s05_false_boat_35_n03344393_1636.png
subject-05,1,679,1.49181294441223,boat,boat,false,0679_fc_s05_false_boat_35_n02951358_33683.png
subject-05,1,680,1.46635890007019,bear,bear,true,0680_fc_s05_true_bear_35_n02133161_10324.png
subject-05,1,681,0.671642780303955,oven,oven,false,0681_fc_s05_false_oven_35_n04111531_18949.png
subject-05,1,682,0.6319580078125,keyboard,keyboard,false,0682_fc_s05_false_keyboard_35_n04505470_264.png
subject-05,1,683,0.622429847717285,keyboard,keyboard,true,0683_fc_s05_true_keyboard_35_n03085013_5714.png
subject-05,1,684,0.996606111526489,bird,bear,true,0684_fc_s05_true_bear_35_n02134084_15017.png
subject-05,1,685,0.871309995651245,car,car,true,0685_fc_s05_true_car_35_n04285008_7120.png
subject-05,1,686,0.715572118759155,bicycle,bicycle,false,0686_fc_s05_false_bicycle_35_n02835271_14750.png
subject-05,1,687,0.719906091690063,clock,clock,false,0687_fc_s05_false_clock_35_n03196217_1706.png
subject-05,1,688,0.9023118019104,bear,bear,true,0688_fc_s05_true_bear_35_n02132136_27823.png
subject-05,1,689,1.02486395835876,dog,dog,true,0689_fc_s05_true_dog_35_n02100236_10052.png
subject-05,1,690,0.883092164993286,truck,truck,false,0690_fc_s05_false_truck_35_n04467665_28424.png
subject-05,1,691,1.16530299186707,truck,elephant,false,0691_fc_s05_false_elephant_35_n02504013_6321.png
subject-05,1,692,0.900289058685303,elephant,elephant,true,0692_fc_s05_true_elephant_35_n02504013_6857.png
subject-05,1,693,0.882610082626343,bicycle,bicycle,true,0693_fc_s05_true_bicycle_35_n03792782_5426.png
subject-05,1,694,1.34930896759033,boat,knife,false,0694_fc_s05_false_knife_35_n03041632_15099.png
subject-05,1,695,1.26882600784302,bicycle,bicycle,false,0695_fc_s05_false_bicycle_35_n03792782_14557.png
subject-05,1,696,0.683320999145508,bear,bear,true,0696_fc_s05_true_bear_35_n02133161_408.png
subject-05,1,697,0.833726167678833,bicycle,bicycle,true,0697_fc_s05_true_bicycle_35_n03792782_14370.png
subject-05,1,698,0.732115030288696,bird,bird,false,0698_fc_s05_false_bird_35_n01532829_39441.png
subject-05,1,699,0.64645791053772,clock,clock,true,0699_fc_s05_true_clock_35_n04548280_7854.png
subject-05,1,700,1.00462484359741,knife,knife,true,0700_fc_s05_true_knife_35_n03041632_17820.png
subject-05,1,701,1.01128792762756,keyboard,clock,true,0701_fc_s05_true_clock_35_n03196217_9197.png
subject-05,1,702,0.923927068710327,truck,truck,true,0702_fc_s05_true_truck_35_n04467665_30957.png
subject-05,1,703,1.22214198112488,truck,bottle,true,0703_fc_s05_true_bottle_35_n04560804_30737.png
subject-05,1,704,0.782386064529419,truck,truck,false,0704_fc_s05_false_truck_35_n03417042_29434.png
subject-05,1,705,NaN,na,dog,true,0705_fc_s05_true_dog_35_n02096294_2274.png
subject-05,1,706,0.592896938323975,bicycle,bicycle,false,0706_fc_s05_false_bicycle_35_n03792782_55034.png
subject-05,1,707,0.728776216506958,knife,knife,true,0707_fc_s05_true_knife_35_n03041632_81943.png
subject-05,1,708,0.779181957244873,dog,dog,false,0708_fc_s05_false_dog_35_n02090379_1932.png
subject-05,1,709,1.03761196136475,bird,bird,false,0709_fc_s05_false_bird_35_n01819313_15617.png
subject-05,1,710,0.775807857513428,keyboard,keyboard,false,0710_fc_s05_false_keyboard_35_n03085013_23350.png
subject-05,1,711,NaN,na,boat,true,0711_fc_s05_true_boat_35_n02951358_13562.png
subject-05,1,712,0.800818920135498,bicycle,bicycle,true,0712_fc_s05_true_bicycle_35_n02835271_1175.png
subject-05,1,713,0.669083833694458,keyboard,keyboard,false,0713_fc_s05_false_keyboard_35_n04505470_1692.png
subject-05,1,714,0.759907007217407,clock,clock,false,0714_fc_s05_false_clock_35_n03196217_5493.png
subject-05,1,715,0.695548057556152,airplane,airplane,true,0715_fc_s05_true_airplane_35_n02690373_2293.png
subject-05,1,716,0.823995113372803,airplane,airplane,false,0716_fc_s05_false_airplane_35_n02690373_3542.png
subject-05,1,717,0.790339946746826,airplane,airplane,true,0717_fc_s05_true_airplane_35_n02690373_139.png
subject-05,1,718,0.955307960510254,chair,clock,true,0718_fc_s05_true_clock_35_n04548280_5327.png
subject-05,1,719,1.03525400161743,bird,cat,false,0719_fc_s05_false_cat_35_n02124075_11203.png
subject-05,1,720,1.4013729095459,cat,elephant,false,0720_fc_s05_false_elephant_35_n02504458_2919.png
subject-05,1,721,1.16545009613037,dog,bear,true,0721_fc_s05_true_bear_35_n02132136_6856.png
subject-05,1,722,1.35338997840881,dog,bird,false,0722_fc_s05_false_bird_35_n02007558_7267.png
subject-05,1,723,1.04591202735901,dog,dog,true,0723_fc_s05_true_dog_35_n02091831_2338.png
subject-05,1,724,0.803410053253174,car,car,false,0724_fc_s05_false_car_35_n03100240_2719.png
subject-05,1,725,0.931786060333252,truck,truck,false,0725_fc_s05_false_truck_35_n03796401_27059.png
subject-05,1,726,0.652209043502808,bottle,bottle,false,0726_fc_s05_false_bottle_35_n04591713_6036.png
subject-05,1,727,1.00463104248047,dog,dog,false,0727_fc_s05_false_dog_35_n02106550_705.png
subject-05,1,728,0.833276987075806,bicycle,bicycle,true,0728_fc_s05_true_bicycle_35_n02835271_6002.png
subject-05,1,729,0.791523933410645,bottle,bottle,false,0729_fc_s05_false_bottle_35_n04557648_9048.png
subject-05,1,730,0.719475030899048,airplane,airplane,true,0730_fc_s05_true_airplane_35_n02690373_6336.png
subject-05,1,731,0.680098056793213,cat,cat,false,0731_fc_s05_false_cat_35_n02123394_80.png
subject-05,1,732,1.05459594726562,truck,truck,false,0732_fc_s05_false_truck_35_n03796401_882.png
subject-05,1,733,NaN,na,knife,false,0733_fc_s05_false_knife_35_n03041632_17067.png
subject-05,1,734,1.25746178627014,clock,clock,true,0734_fc_s05_true_clock_35_n04548280_1233.png
subject-05,1,735,0.902133226394653,keyboard,keyboard,false,0735_fc_s05_false_keyboard_35_n03085013_15295.png
subject-05,1,736,0.762250900268555,bear,bear,false,0736_fc_s05_false_bear_35_n02134418_4939.png
subject-05,1,737,1.02853488922119,bird,bird,false,0737_fc_s05_false_bird_35_n01829413_853.png
subject-05,1,738,1.26468300819397,bear,bear,true,0738_fc_s05_true_bear_35_n02132136_332.png
subject-05,1,739,1.3444139957428,clock,keyboard,false,0739_fc_s05_false_keyboard_35_n03085013_29941.png
subject-05,1,740,0.69936203956604,cat,cat,true,0740_fc_s05_true_cat_35_n02123597_334.png
subject-05,1,741,0.693778991699219,cat,dog,false,0741_fc_s05_false_dog_35_n02112350_786.png
subject-05,1,742,0.59785795211792,oven,oven,false,0742_fc_s05_false_oven_35_n04111531_3689.png
subject-05,1,743,0.758320093154907,chair,chair,true,0743_fc_s05_true_chair_35_n04099969_45461.png
subject-05,1,744,0.800859212875366,car,car,false,0744_fc_s05_false_car_35_n04285008_15217.png
subject-05,1,745,1.07532501220703,truck,truck,false,0745_fc_s05_false_truck_35_n03796401_8744.png
subject-05,1,746,0.719474792480469,bottle,bottle,true,0746_fc_s05_true_bottle_35_n03983396_11116.png
subject-05,1,747,1.2680299282074,bear,elephant,true,0747_fc_s05_true_elephant_35_n02504013_5864.png
subject-05,1,748,0.720535039901733,airplane,airplane,true,0748_fc_s05_true_airplane_35_n02690373_9848.png
subject-05,1,749,0.803045988082886,oven,oven,false,0749_fc_s05_false_oven_35_n04111531_16708.png
subject-05,1,750,0.739591836929321,airplane,airplane,false,0750_fc_s05_false_airplane_35_n02690373_2643.png
subject-05,1,751,0.562197923660278,oven,oven,true,0751_fc_s05_true_oven_35_n04111531_11505.png
subject-05,1,752,0.720695018768311,car,car,false,0752_fc_s05_false_car_35_n02814533_20390.png
subject-05,1,753,0.849358081817627,cat,dog,true,0753_fc_s05_true_dog_35_n02091467_705.png
subject-05,1,754,NaN,na,bird,false,0754_fc_s05_false_bird_35_n02011460_22046.png
subject-05,1,755,0.821762084960938,airplane,airplane,false,0755_fc_s05_false_airplane_35_n02690373_4471.png
subject-05,1,756,0.974063873291016,truck,boat,true,0756_fc_s05_true_boat_35_n03344393_3085.png
subject-05,1,757,0.840085029602051,elephant,elephant,false,0757_fc_s05_false_elephant_35_n02504458_8151.png
subject-05,1,758,0.660782814025879,boat,boat,false,0758_fc_s05_false_boat_35_n04612504_18897.png
subject-05,1,759,0.712924957275391,keyboard,keyboard,true,0759_fc_s05_true_keyboard_35_n03085013_20837.png
subject-05,1,760,0.649097919464111,bear,bear,true,0760_fc_s05_true_bear_35_n02134418_1110.png
subject-05,1,761,0.671232223510742,keyboard,keyboard,false,0761_fc_s05_false_keyboard_35_n03085013_14279.png
subject-05,1,762,1.35071110725403,oven,oven,true,0762_fc_s05_true_oven_35_n04111531_2831.png
subject-05,1,763,1.47658491134644,airplane,airplane,true,0763_fc_s05_true_airplane_35_n02690373_8754.png
subject-05,1,764,0.893121004104614,cat,elephant,false,0764_fc_s05_false_elephant_35_n02504013_593.png
subject-05,1,765,NaN,na,airplane,true,0765_fc_s05_true_airplane_35_n02690373_3064.png
subject-05,1,766,1.19613814353943,knife,knife,true,0766_fc_s05_true_knife_35_n03041632_25331.png
subject-05,1,767,0.88296914100647,bird,cat,true,0767_fc_s05_true_cat_35_n02123597_1102.png
subject-05,1,768,0.888886213302612,cat,cat,false,0768_fc_s05_false_cat_35_n02123045_10894.png
subject-05,1,769,0.771027088165283,bird,keyboard,false,0769_fc_s05_false_keyboard_35_n03085013_24569.png
subject-05,1,770,0.723556041717529,car,car,false,0770_fc_s05_false_car_35_n04285008_16611.png
subject-05,1,771,1.10366201400757,elephant,elephant,false,0771_fc_s05_false_elephant_35_n02504458_3143.png
subject-05,1,772,1.2091760635376,knife,bird,true,0772_fc_s05_true_bird_35_n02002556_6760.png
subject-05,1,773,0.995784044265747,bicycle,bicycle,false,0773_fc_s05_false_bicycle_35_n03792782_12265.png
subject-05,1,774,NaN,na,cat,false,0774_fc_s05_false_cat_35_n02123159_198.png
subject-05,1,775,1.00603103637695,bicycle,bicycle,true,0775_fc_s05_true_bicycle_35_n03792782_1982.png
subject-05,1,776,0.88518214225769,bird,bird,false,0776_fc_s05_false_bird_35_n02018795_2067.png
subject-05,1,777,1.50003004074097,elephant,elephant,false,0777_fc_s05_false_elephant_35_n02504013_8948.png
subject-05,1,778,0.727516889572144,bear,bear,true,0778_fc_s05_true_bear_35_n02134084_6286.png
subject-05,1,779,0.902098894119263,knife,knife,true,0779_fc_s05_true_knife_35_n03041632_13130.png
subject-05,1,780,0.738210916519165,bicycle,bicycle,false,0780_fc_s05_false_bicycle_35_n02835271_21949.png
subject-05,1,781,0.64445686340332,bottle,bottle,false,0781_fc_s05_false_bottle_35_n04560804_22417.png
subject-05,1,782,0.988601922988892,oven,chair,true,0782_fc_s05_true_chair_35_n03376595_19165.png
subject-05,1,783,1.2143919467926,oven,clock,true,0783_fc_s05_true_clock_35_n02708093_2926.png
subject-05,1,784,0.652534008026123,bicycle,bicycle,false,0784_fc_s05_false_bicycle_35_n03792782_380.png
subject-05,1,785,1.50019216537476,oven,oven,false,0785_fc_s05_false_oven_35_n04111531_13906.png
subject-05,1,786,0.767693996429443,dog,bear,true,0786_fc_s05_true_bear_35_n02134084_2328.png
subject-05,1,787,1.50017189979553,bear,bear,true,0787_fc_s05_true_bear_35_n02132136_1076.png
subject-05,1,788,1.31599497795105,elephant,elephant,true,0788_fc_s05_true_elephant_35_n02504458_11961.png
subject-05,1,789,1.48241591453552,bear,bear,false,0789_fc_s05_false_bear_35_n02132136_8517.png
subject-05,1,790,0.913013935089111,bird,bird,true,0790_fc_s05_true_bird_35_n01855672_5407.png
subject-05,1,791,0.631471872329712,bicycle,bicycle,false,0791_fc_s05_false_bicycle_35_n03792782_14510.png
subject-05,1,792,1.04998707771301,car,car,true,0792_fc_s05_true_car_35_n04285008_5399.png
subject-05,1,793,0.663769960403442,keyboard,keyboard,false,0793_fc_s05_false_keyboard_35_n04505470_4363.png
subject-05,1,794,1.00651001930237,boat,boat,false,0794_fc_s05_false_boat_35_n04273569_395.png
subject-05,1,795,1.22845888137817,bicycle,bicycle,true,0795_fc_s05_true_bicycle_35_n03792782_13281.png
subject-05,1,796,1.02696990966797,car,boat,true,0796_fc_s05_true_boat_35_n03662601_17793.png
subject-05,1,797,1.03031301498413,boat,chair,true,0797_fc_s05_true_chair_35_n04099969_7530.png
subject-05,1,798,1.36448907852173,keyboard,bottle,true,0798_fc_s05_true_bottle_35_n04557648_4128.png
subject-05,1,799,1.05685782432556,clock,clock,false,0799_fc_s05_false_clock_35_n02708093_1023.png
subject-05,1,800,1.18218898773193,clock,chair,false,0800_fc_s05_false_chair_35_n04429376_1058.png
subject-05,1,801,0.975515127182007,bottle,bottle,true,0801_fc_s05_true_bottle_35_n04560804_6672.png
subject-05,1,802,1.01135492324829,oven,oven,false,0802_fc_s05_false_oven_35_n04111531_1482.png
subject-05,1,803,0.585493087768555,truck,truck,true,0803_fc_s05_true_truck_35_n03417042_7682.png
subject-05,1,804,0.975728988647461,oven,knife,false,0804_fc_s05_false_knife_35_n03041632_52929.png
subject-05,1,805,NaN,na,oven,true,0805_fc_s05_true_oven_35_n04111531_9881.png
subject-05,1,806,0.556919813156128,bicycle,bicycle,true,0806_fc_s05_true_bicycle_35_n02835271_12385.png
subject-05,1,807,0.885226964950562,boat,car,false,0807_fc_s05_false_car_35_n03100240_5673.png
subject-05,1,808,0.583577871322632,keyboard,keyboard,true,0808_fc_s05_true_keyboard_35_n04505470_10419.png
subject-05,1,809,0.632605075836182,bottle,bottle,true,0809_fc_s05_true_bottle_35_n02823428_7212.png
subject-05,1,810,0.744623899459839,knife,knife,true,0810_fc_s05_true_knife_35_n03041632_47234.png
subject-05,1,811,0.821153163909912,bird,bird,false,0811_fc_s05_false_bird_35_n01796340_2576.png
subject-05,1,812,0.674011945724487,chair,chair,false,0812_fc_s05_false_chair_35_n03376595_13795.png
subject-05,1,813,0.923988103866577,bird,bird,true,0813_fc_s05_true_bird_35_n02007558_17485.png
subject-05,1,814,1.27450799942017,bird,oven,false,0814_fc_s05_false_oven_35_n04111531_22138.png
subject-05,1,815,0.580414772033691,keyboard,keyboard,false,0815_fc_s05_false_keyboard_35_n03085013_18510.png
subject-05,1,816,0.640873908996582,keyboard,keyboard,true,0816_fc_s05_true_keyboard_35_n04505470_459.png
subject-05,1,817,0.983289003372192,car,car,false,0817_fc_s05_false_car_35_n02814533_74720.png
subject-05,1,818,1.48667192459106,bear,bear,false,0818_fc_s05_false_bear_35_n02132136_3283.png
subject-05,1,819,0.985053062438965,oven,clock,false,0819_fc_s05_false_clock_35_n02708093_32.png
subject-05,1,820,0.836819171905518,knife,knife,true,0820_fc_s05_true_knife_35_n03041632_42162.png
subject-05,1,821,0.853709936141968,chair,chair,false,0821_fc_s05_false_chair_35_n04429376_8124.png
subject-05,1,822,0.792459964752197,car,car,true,0822_fc_s05_true_car_35_n02814533_12311.png
subject-05,1,823,0.796663045883179,car,truck,true,0823_fc_s05_true_truck_35_n03417042_11062.png
subject-05,1,824,0.916179895401001,cat,cat,false,0824_fc_s05_false_cat_35_n02123159_6341.png
subject-05,1,825,0.882466077804565,bicycle,bicycle,false,0825_fc_s05_false_bicycle_35_n02835271_15639.png
subject-05,1,826,1.08060121536255,bottle,bottle,true,0826_fc_s05_true_bottle_35_n04591713_1627.png
subject-05,1,827,0.787088871002197,bottle,bottle,true,0827_fc_s05_true_bottle_35_n04579145_934.png
subject-05,1,828,0.783643007278442,boat,boat,false,0828_fc_s05_false_boat_35_n02951358_13383.png
subject-05,1,829,0.958088874816895,clock,clock,true,0829_fc_s05_true_clock_35_n03196217_1622.png
subject-05,1,830,0.984946966171265,dog,cat,true,0830_fc_s05_true_cat_35_n02123597_4197.png
subject-05,1,831,1.34317708015442,cat,dog,true,0831_fc_s05_true_dog_35_n02088238_4466.png
subject-05,1,832,0.9214768409729,truck,truck,false,0832_fc_s05_false_truck_35_n03417042_12988.png
subject-05,1,833,1.32616901397705,bird,bear,true,0833_fc_s05_true_bear_35_n02133161_1952.png
subject-05,1,834,0.748279094696045,chair,chair,false,0834_fc_s05_false_chair_35_n04099969_21114.png
subject-05,1,835,0.829223155975342,boat,boat,true,0835_fc_s05_true_boat_35_n02951358_12969.png
subject-05,1,836,0.795266151428223,airplane,airplane,true,0836_fc_s05_true_airplane_35_n02690373_4964.png
subject-05,1,837,0.663928985595703,boat,boat,false,0837_fc_s05_false_boat_35_n02951358_8665.png
subject-05,1,838,0.750441074371338,bear,bear,false,0838_fc_s05_false_bear_35_n02133161_3770.png
subject-05,1,839,1.13874197006226,truck,truck,false,0839_fc_s05_false_truck_35_n04467665_22697.png
subject-05,1,840,0.660640954971313,elephant,elephant,false,0840_fc_s05_false_elephant_35_n02504458_12239.png
subject-05,1,841,0.801334142684937,dog,dog,false,0841_fc_s05_false_dog_35_n02095570_6222.png
subject-05,1,842,0.613155841827393,airplane,airplane,true,0842_fc_s05_true_airplane_35_n02690373_20331.png
subject-05,1,843,0.917327165603638,bear,bear,false,0843_fc_s05_false_bear_35_n02134418_2348.png
subject-05,1,844,0.882483959197998,bear,bear,false,0844_fc_s05_false_bear_35_n02134084_791.png
subject-05,1,845,1.33250999450684,oven,knife,true,0845_fc_s05_true_knife_35_n03041632_36789.png
subject-05,1,846,0.601113080978394,clock,clock,false,0846_fc_s05_false_clock_35_n03196217_6809.png
subject-05,1,847,0.861289978027344,truck,truck,true,0847_fc_s05_true_truck_35_n04467665_39143.png
subject-05,1,848,0.627794027328491,bird,bird,true,0848_fc_s05_true_bird_35_n02009912_14750.png
subject-05,1,849,0.926358938217163,truck,truck,false,0849_fc_s05_false_truck_35_n03417042_1561.png
subject-05,1,850,0.650887012481689,oven,oven,true,0850_fc_s05_true_oven_35_n04111531_22715.png
subject-05,1,851,0.689282894134521,chair,chair,true,0851_fc_s05_true_chair_35_n04429376_3898.png
subject-05,1,852,0.609853982925415,oven,oven,false,0852_fc_s05_false_oven_35_n04111531_10476.png
subject-05,1,853,0.608528137207031,oven,bicycle,true,0853_fc_s05_true_bicycle_35_n03792782_7388.png
subject-05,1,854,0.528366088867188,bear,bear,true,0854_fc_s05_true_bear_35_n02132136_14595.png
subject-05,1,855,0.748893022537231,boat,bicycle,false,0855_fc_s05_false_bicycle_35_n03792782_15174.png
subject-05,1,856,0.883647203445435,bicycle,bicycle,true,0856_fc_s05_true_bicycle_35_n02835271_4311.png
subject-05,1,857,0.658232927322388,elephant,elephant,true,0857_fc_s05_true_elephant_35_n02504013_7771.png
subject-05,1,858,0.756800174713135,boat,boat,true,0858_fc_s05_true_boat_35_n02951358_8944.png
subject-05,1,859,0.675239086151123,bear,bear,false,0859_fc_s05_false_bear_35_n02132136_7718.png
subject-05,1,860,1.13336777687073,bear,elephant,false,0860_fc_s05_false_elephant_35_n02504458_7842.png
subject-05,1,861,0.801997900009155,dog,cat,false,0861_fc_s05_false_cat_35_n02123394_1161.png
subject-05,1,862,0.474986791610718,bicycle,bicycle,false,0862_fc_s05_false_bicycle_35_n03792782_5880.png
subject-05,1,863,0.619410991668701,bicycle,bicycle,true,0863_fc_s05_true_bicycle_35_n03792782_6943.png
subject-05,1,864,0.985970973968506,airplane,airplane,false,0864_fc_s05_false_airplane_35_n02690373_9346.png
subject-05,1,865,0.754461050033569,boat,boat,false,0865_fc_s05_false_boat_35_n02951358_35748.png
subject-05,1,866,0.813425064086914,car,truck,false,0866_fc_s05_false_truck_35_n03796401_8099.png
subject-05,1,867,0.727843046188354,car,car,false,0867_fc_s05_false_car_35_n04285008_2108.png
subject-05,1,868,0.887821197509766,bird,bird,true,0868_fc_s05_true_bird_35_n01820546_14093.png
subject-05,1,869,1.02439713478088,clock,chair,false,0869_fc_s05_false_chair_35_n04429376_1791.png
subject-05,1,870,0.977281093597412,cat,cat,false,0870_fc_s05_false_cat_35_n02123597_1658.png
subject-05,1,871,0.58343505859375,clock,clock,true,0871_fc_s05_true_clock_35_n02708093_7076.png
subject-05,1,872,0.911878824234009,knife,knife,false,0872_fc_s05_false_knife_35_n03041632_3926.png
subject-05,1,873,0.79447603225708,bird,bird,true,0873_fc_s05_true_bird_35_n01614925_1602.png
subject-05,1,874,0.762547016143799,bottle,bottle,false,0874_fc_s05_false_bottle_35_n04557648_6529.png
subject-05,1,875,0.837270021438599,boat,boat,true,0875_fc_s05_true_boat_35_n04273569_12434.png
subject-05,1,876,0.727708101272583,car,car,false,0876_fc_s05_false_car_35_n02814533_31964.png
subject-05,1,877,0.66294002532959,knife,knife,false,0877_fc_s05_false_knife_35_n03041632_34676.png
subject-05,1,878,1.12089586257935,bear,bear,true,0878_fc_s05_true_bear_35_n02134084_1536.png
subject-05,1,879,1.16527390480042,bottle,bottle,true,0879_fc_s05_true_bottle_35_n03937543_2212.png
subject-05,1,880,1.02178001403809,chair,chair,true,0880_fc_s05_true_chair_35_n03376595_14873.png
subject-05,1,881,1.04245281219482,airplane,airplane,false,0881_fc_s05_false_airplane_35_n02690373_9170.png
subject-05,1,882,0.786533832550049,elephant,elephant,false,0882_fc_s05_false_elephant_35_n02504013_15852.png
subject-05,1,883,0.764704942703247,bicycle,bicycle,true,0883_fc_s05_true_bicycle_35_n03792782_6030.png
subject-05,1,884,0.793241024017334,bicycle,bicycle,false,0884_fc_s05_false_bicycle_35_n03792782_12844.png
subject-05,1,885,1.15366792678833,cat,cat,true,0885_fc_s05_true_cat_35_n02123394_6496.png
subject-05,1,886,1.06614804267883,airplane,airplane,true,0886_fc_s05_true_airplane_35_n02690373_2203.png
subject-05,1,887,0.912508964538574,bird,bear,false,0887_fc_s05_false_bear_35_n02132136_8754.png
subject-05,1,888,1.45408511161804,keyboard,clock,false,0888_fc_s05_false_clock_35_n03196217_212.png
subject-05,1,889,1.50007915496826,bear,elephant,false,0889_fc_s05_false_elephant_35_n02504458_5972.png
subject-05,1,890,0.800666093826294,airplane,airplane,false,0890_fc_s05_false_airplane_35_n02690373_166.png
subject-05,1,891,0.612623929977417,oven,oven,true,0891_fc_s05_true_oven_35_n04111531_18052.png
subject-05,1,892,1.01852703094482,truck,truck,false,0892_fc_s05_false_truck_35_n03417042_5024.png
subject-05,1,893,0.777022838592529,airplane,airplane,true,0893_fc_s05_true_airplane_35_n02690373_6856.png
subject-05,1,894,0.883433103561401,clock,clock,false,0894_fc_s05_false_clock_35_n02708093_1862.png
subject-05,1,895,1.06559300422668,bird,bird,false,0895_fc_s05_false_bird_35_n02033041_3851.png
subject-05,1,896,0.725749969482422,bicycle,bicycle,true,0896_fc_s05_true_bicycle_35_n02835271_2074.png
subject-05,1,897,1.34613108634949,car,car,true,0897_fc_s05_true_car_35_n03100240_10066.png
subject-05,1,898,0.606720209121704,clock,clock,false,0898_fc_s05_false_clock_35_n03196217_11252.png
subject-05,1,899,0.567391157150269,boat,boat,true,0899_fc_s05_true_boat_35_n03662601_7041.png
subject-05,1,900,0.640758991241455,elephant,elephant,true,0900_fc_s05_true_elephant_35_n02504013_1909.png
subject-05,1,901,1.04971504211426,bear,bear,false,0901_fc_s05_false_bear_35_n02132136_12577.png
subject-05,1,902,0.672418832778931,boat,boat,false,0902_fc_s05_false_boat_35_n04273569_13587.png
subject-05,1,903,1.06107211112976,bear,elephant,true,0903_fc_s05_true_elephant_35_n02504458_975.png
subject-05,1,904,0.607432126998901,oven,oven,true,0904_fc_s05_true_oven_35_n04111531_6313.png
subject-05,1,905,0.781647920608521,oven,oven,false,0905_fc_s05_false_oven_35_n04111531_11287.png
subject-05,1,906,0.780019044876099,oven,oven,true,0906_fc_s05_true_oven_35_n04111531_22413.png
subject-05,1,907,0.720778942108154,bicycle,bicycle,false,0907_fc_s05_false_bicycle_35_n03792782_31908.png
subject-05,1,908,0.895487785339355,car,car,true,0908_fc_s05_true_car_35_n02814533_40716.png
subject-05,1,909,0.739287853240967,car,car,false,0909_fc_s05_false_car_35_n02814533_27150.png
subject-05,1,910,1.33413195610046,oven,chair,true,0910_fc_s05_true_chair_35_n02791124_2804.png
subject-05,1,911,0.992617845535278,clock,clock,true,0911_fc_s05_true_clock_35_n03196217_3986.png
subject-05,1,912,0.62297511100769,cat,cat,false,0912_fc_s05_false_cat_35_n02125311_15419.png
subject-05,1,913,0.596493005752563,knife,knife,false,0913_fc_s05_false_knife_35_n03041632_10540.png
subject-05,1,914,0.786662101745605,airplane,airplane,true,0914_fc_s05_true_airplane_35_n02690373_7002.png
subject-05,1,915,0.837542057037354,bear,bear,false,0915_fc_s05_false_bear_35_n02132136_1427.png
subject-05,1,916,1.34200882911682,chair,chair,true,0916_fc_s05_true_chair_35_n04099969_4816.png
subject-05,1,917,0.872420072555542,bird,bird,false,0917_fc_s05_false_bird_35_n01820546_1665.png
subject-05,1,918,0.7707359790802,knife,knife,false,0918_fc_s05_false_knife_35_n03041632_3247.png
subject-05,1,919,1.27138304710388,chair,chair,true,0919_fc_s05_true_chair_35_n02791124_2712.png
subject-05,1,920,1.14803004264832,bird,bird,false,0920_fc_s05_false_bird_35_n02028035_26229.png
subject-05,1,921,1.09808683395386,bicycle,bicycle,false,0921_fc_s05_false_bicycle_35_n02835271_8694.png
subject-05,1,922,1.47898483276367,knife,knife,false,0922_fc_s05_false_knife_35_n03041632_24114.png
subject-05,1,923,0.747421026229858,bottle,bottle,true,0923_fc_s05_true_bottle_35_n04579145_122.png
subject-05,1,924,1.04402589797974,bottle,knife,false,0924_fc_s05_false_knife_35_n03041632_12537.png
subject-05,1,925,0.816899061203003,keyboard,keyboard,false,0925_fc_s05_false_keyboard_35_n04505470_1831.png
subject-05,1,926,0.660782098770142,keyboard,keyboard,false,0926_fc_s05_false_keyboard_35_n03085013_13083.png
subject-05,1,927,1.21950197219849,dog,dog,false,0927_fc_s05_false_dog_35_n02113712_1363.png
subject-05,1,928,0.680017948150635,clock,clock,true,0928_fc_s05_true_clock_35_n04548280_4186.png
subject-05,1,929,0.75430703163147,bottle,bottle,false,0929_fc_s05_false_bottle_35_n04591713_12767.png
subject-05,1,930,0.752799034118652,airplane,airplane,false,0930_fc_s05_false_airplane_35_n02690373_4105.png
subject-05,1,931,0.617678880691528,bicycle,bicycle,false,0931_fc_s05_false_bicycle_35_n03792782_1108.png
subject-05,1,932,1.06227898597717,car,car,false,0932_fc_s05_false_car_35_n03100240_12727.png
subject-05,1,933,1.09048795700073,dog,dog,false,0933_fc_s05_false_dog_35_n02093647_2965.png
subject-05,1,934,0.826717853546143,clock,clock,false,0934_fc_s05_false_clock_35_n03196217_3167.png
subject-05,1,935,0.817350149154663,bicycle,bicycle,true,0935_fc_s05_true_bicycle_35_n02835271_2142.png
subject-05,1,936,0.745599985122681,keyboard,keyboard,false,0936_fc_s05_false_keyboard_35_n04505470_8575.png
subject-05,1,937,1.49600887298584,car,truck,true,0937_fc_s05_true_truck_35_n03417042_8119.png
subject-05,1,938,0.642662048339844,bird,bird,false,0938_fc_s05_false_bird_35_n01843383_3520.png
subject-05,1,939,0.88687801361084,elephant,elephant,true,0939_fc_s05_true_elephant_35_n02504013_7026.png
subject-05,1,940,1.02806997299194,bear,bear,false,0940_fc_s05_false_bear_35_n02134084_4018.png
subject-05,1,941,1.1266040802002,boat,elephant,false,0941_fc_s05_false_elephant_35_n02504013_4508.png
subject-05,1,942,0.605690956115723,boat,boat,true,0942_fc_s05_true_boat_35_n02951358_2991.png
subject-05,1,943,0.942380905151367,bottle,bottle,true,0943_fc_s05_true_bottle_35_n03937543_81.png
subject-05,1,944,0.977759838104248,boat,boat,true,0944_fc_s05_true_boat_35_n04273569_8934.png
subject-05,1,945,1.48213601112366,knife,knife,false,0945_fc_s05_false_knife_35_n03041632_50332.png
subject-05,1,946,0.89659595489502,keyboard,oven,false,0946_fc_s05_false_oven_35_n04111531_2331.png
subject-05,1,947,0.795171976089478,cat,cat,false,0947_fc_s05_false_cat_35_n02123159_5993.png
subject-05,1,948,0.906323909759521,bear,bear,false,0948_fc_s05_false_bear_35_n02134084_18565.png
subject-05,1,949,1.03458595275879,truck,truck,false,0949_fc_s05_false_truck_35_n04467665_27547.png
subject-05,1,950,0.854995965957642,elephant,elephant,true,0950_fc_s05_true_elephant_35_n02504458_1834.png
subject-05,1,951,1.07717299461365,chair,airplane,false,0951_fc_s05_false_airplane_35_n02690373_1979.png
subject-05,1,952,1.37390685081482,bird,bird,true,0952_fc_s05_true_bird_35_n02009229_19169.png
subject-05,1,953,0.920125007629395,elephant,elephant,true,0953_fc_s05_true_elephant_35_n02504458_1661.png
subject-05,1,954,0.926762819290161,keyboard,keyboard,true,0954_fc_s05_true_keyboard_35_n04505470_2038.png
subject-05,1,955,0.993191003799438,cat,cat,false,0955_fc_s05_false_cat_35_n02124075_15158.png
subject-05,1,956,0.790856122970581,chair,chair,true,0956_fc_s05_true_chair_35_n04429376_16869.png
subject-05,1,957,0.899127960205078,cat,dog,false,0957_fc_s05_false_dog_35_n02112018_7362.png
subject-05,1,958,1.02762198448181,bottle,bottle,false,0958_fc_s05_false_bottle_35_n04579145_2476.png
subject-05,1,959,1.04213213920593,keyboard,keyboard,false,0959_fc_s05_false_keyboard_35_n03085013_19376.png
subject-05,1,960,0.7829430103302,oven,oven,true,0960_fc_s05_true_oven_35_n04111531_4250.png
subject-05,1,961,0.759042024612427,chair,chair,true,0961_fc_s05_true_chair_35_n04429376_2301.png
subject-05,1,962,0.817476987838745,oven,elephant,true,0962_fc_s05_true_elephant_35_n02504458_6612.png
subject-05,1,963,0.774472951889038,oven,oven,true,0963_fc_s05_true_oven_35_n04111531_1750.png
subject-05,1,964,0.743193864822388,bottle,bottle,false,0964_fc_s05_false_bottle_35_n04560804_4179.png
subject-05,1,965,0.6998291015625,truck,truck,true,0965_fc_s05_true_truck_35_n03417042_2726.png
subject-05,1,966,0.566435813903809,keyboard,keyboard,false,0966_fc_s05_false_keyboard_35_n04505470_524.png
subject-05,1,967,0.865054130554199,car,car,true,0967_fc_s05_true_car_35_n04285008_14284.png
subject-05,1,968,0.84733510017395,chair,chair,false,0968_fc_s05_false_chair_35_n03376595_13364.png
subject-05,1,969,NaN,na,keyboard,false,0969_fc_s05_false_keyboard_35_n03085013_22966.png
subject-05,1,970,0.657920837402344,cat,cat,true,0970_fc_s05_true_cat_35_n02123597_5573.png
subject-05,1,971,1.23684811592102,keyboard,chair,false,0971_fc_s05_false_chair_35_n03376595_9165.png
subject-05,1,972,0.72957706451416,truck,truck,false,0972_fc_s05_false_truck_35_n03796401_6294.png
subject-05,1,973,0.587640047073364,cat,cat,false,0973_fc_s05_false_cat_35_n02123159_433.png
subject-05,1,974,1.14578700065613,bear,bear,false,0974_fc_s05_false_bear_35_n02134084_965.png
subject-05,1,975,0.706785202026367,car,car,false,0975_fc_s05_false_car_35_n02814533_44079.png
subject-05,1,976,0.512825012207031,bear,bear,true,0976_fc_s05_true_bear_35_n02132136_7780.png
subject-05,1,977,0.547420024871826,oven,oven,false,0977_fc_s05_false_oven_35_n04111531_11749.png
subject-05,1,978,0.727905988693237,knife,knife,true,0978_fc_s05_true_knife_35_n03041632_20504.png
subject-05,1,979,1.13467502593994,bottle,bottle,true,0979_fc_s05_true_bottle_35_n04557648_8759.png
subject-05,1,980,0.745458841323853,keyboard,keyboard,false,0980_fc_s05_false_keyboard_35_n03085013_24102.png
subject-05,1,981,1.49586892127991,oven,bird,true,0981_fc_s05_true_bird_35_n01558993_4433.png
subject-05,1,982,0.588188886642456,keyboard,keyboard,false,0982_fc_s05_false_keyboard_35_n03085013_24577.png
subject-05,1,983,0.543529987335205,car,car,false,0983_fc_s05_false_car_35_n04285008_2730.png
subject-05,1,984,1.37177085876465,cat,elephant,true,0984_fc_s05_true_elephant_35_n02504013_2129.png
subject-05,1,985,1.48398613929749,bottle,bottle,true,0985_fc_s05_true_bottle_35_n02823428_1208.png
subject-05,1,986,0.756999015808105,bear,bear,true,0986_fc_s05_true_bear_35_n02132136_10514.png
subject-05,1,987,0.614520072937012,elephant,elephant,false,0987_fc_s05_false_elephant_35_n02504013_4153.png
subject-05,1,988,0.896565914154053,elephant,elephant,false,0988_fc_s05_false_elephant_35_n02504458_1464.png
subject-05,1,989,1.02114605903625,chair,chair,false,0989_fc_s05_false_chair_35_n03376595_8958.png
subject-05,1,990,0.635631084442139,cat,cat,false,0990_fc_s05_false_cat_35_n02124075_12181.png
subject-05,1,991,0.726238012313843,bear,bear,false,0991_fc_s05_false_bear_35_n02133161_6454.png
subject-05,1,992,0.700809001922607,car,car,false,0992_fc_s05_false_car_35_n04285008_16409.png
subject-05,1,993,0.791347026824951,clock,clock,true,0993_fc_s05_true_clock_35_n04548280_3458.png
subject-05,1,994,0.903637170791626,elephant,elephant,false,0994_fc_s05_false_elephant_35_n02504458_3576.png
subject-05,1,995,1.50030398368835,bear,bear,false,0995_fc_s05_false_bear_35_n02134418_3723.png
subject-05,1,996,1.01454496383667,chair,chair,false,0996_fc_s05_false_chair_35_n04429376_14237.png
subject-05,1,997,0.821185111999512,bear,cat,true,0997_fc_s05_true_cat_35_n02125311_38215.png
subject-05,1,998,0.541002035140991,oven,oven,true,0998_fc_s05_true_oven_35_n04111531_2643.png
subject-05,1,999,0.93956184387207,dog,dog,true,0999_fc_s05_true_dog_35_n02099712_1875.png
subject-05,1,1000,0.922333002090454,truck,truck,false,1000_fc_s05_false_truck_35_n03796401_4181.png
subject-05,1,1001,1.40611410140991,truck,truck,true,1001_fc_s05_true_truck_35_n04467665_63487.png
subject-05,1,1002,0.836574077606201,knife,knife,true,1002_fc_s05_true_knife_35_n03041632_5162.png
subject-05,1,1003,0.629252195358276,bird,bird,true,1003_fc_s05_true_bird_35_n02028035_11286.png
subject-05,1,1004,0.971824884414673,cat,cat,true,1004_fc_s05_true_cat_35_n02124075_9066.png
subject-05,1,1005,0.708275079727173,bird,bird,false,1005_fc_s05_false_bird_35_n02009912_28302.png
subject-05,1,1006,0.902094125747681,bird,dog,false,1006_fc_s05_false_dog_35_n02094258_5686.png
subject-05,1,1007,0.530078887939453,clock,clock,true,1007_fc_s05_true_clock_35_n03196217_6198.png
subject-05,1,1008,0.55840802192688,clock,clock,true,1008_fc_s05_true_clock_35_n03196217_21.png
subject-05,1,1009,0.57745885848999,oven,oven,true,1009_fc_s05_true_oven_35_n04111531_23046.png
subject-05,1,1010,1.00566720962524,boat,bicycle,false,1010_fc_s05_false_bicycle_35_n02835271_13439.png
subject-05,1,1011,0.871824026107788,clock,clock,false,1011_fc_s05_false_clock_35_n02708093_107.png
subject-05,1,1012,1.4766149520874,knife,knife,false,1012_fc_s05_false_knife_35_n03041632_8540.png
subject-05,1,1013,1.50023508071899,oven,chair,false,1013_fc_s05_false_chair_35_n02791124_4347.png
subject-05,1,1014,0.813145875930786,boat,boat,false,1014_fc_s05_false_boat_35_n04273569_111.png
subject-05,1,1015,0.584469795227051,bottle,bottle,false,1015_fc_s05_false_bottle_35_n04591713_1643.png
subject-05,1,1016,0.753026962280273,oven,knife,true,1016_fc_s05_true_knife_35_n03041632_30666.png
subject-05,1,1017,0.943624019622803,chair,chair,false,1017_fc_s05_false_chair_35_n03376595_4248.png
subject-05,1,1018,0.726044178009033,keyboard,keyboard,true,1018_fc_s05_true_keyboard_35_n03085013_29452.png
subject-05,1,1019,NaN,na,dog,true,1019_fc_s05_true_dog_35_n02105162_2073.png
subject-05,1,1020,1.24466109275818,knife,knife,true,1020_fc_s05_true_knife_35_n03041632_43436.png
subject-05,1,1021,0.977872133255005,chair,chair,false,1021_fc_s05_false_chair_35_n03376595_4843.png
subject-05,1,1022,0.768477916717529,bottle,bottle,false,1022_fc_s05_false_bottle_35_n04560804_2830.png
subject-05,1,1023,0.659105062484741,car,car,true,1023_fc_s05_true_car_35_n03100240_29.png
subject-05,1,1024,0.764825105667114,car,car,true,1024_fc_s05_true_car_35_n04285008_11390.png
subject-05,1,1025,0.714923858642578,boat,boat,false,1025_fc_s05_false_boat_35_n04612504_14954.png
subject-05,1,1026,0.959153890609741,truck,truck,true,1026_fc_s05_true_truck_35_n04467665_66772.png
