subj,session,trial,rt,object_response,category,condition,imagename
subject-04,1,1,0.791002988815308,cat,cat,true,0001_fc_s04_true_cat_35_n02123597_10760.png
subject-04,1,2,0.482635974884033,cat,cat,true,0002_fc_s04_true_cat_35_n02124075_7822.png
subject-04,1,3,NaN,na,clock,true,0003_fc_s04_true_clock_35_n04548280_8303.png
subject-04,1,4,0.800060033798218,truck,truck,true,0004_fc_s04_true_truck_35_n04467665_65113.png
subject-04,1,5,1.19077301025391,bear,bird,true,0005_fc_s04_true_bird_35_n02051845_7706.png
subject-04,1,6,0.628403902053833,clock,clock,true,0006_fc_s04_true_clock_35_n02708093_1831.png
subject-04,1,7,NaN,na,airplane,false,0007_fc_s04_false_airplane_35_n02690373_3139.png
subject-04,1,8,0.518152952194214,airplane,airplane,true,0008_fc_s04_true_airplane_35_n02690373_5866.png
subject-04,1,9,0.646835088729858,car,car,false,0009_fc_s04_false_car_35_n03100240_13681.png
subject-04,1,10,0.469771862030029,car,car,true,0010_fc_s04_true_car_35_n03100240_755.png
subject-04,1,11,0.767627000808716,truck,truck,true,0011_fc_s04_true_truck_35_n03796401_1446.png
subject-04,1,12,1.1900360584259,car,car,true,0012_fc_s04_true_car_35_n02814533_42308.png
subject-04,1,13,NaN,na,boat,false,0013_fc_s04_false_boat_35_n03344393_6456.png
subject-04,1,14,0.710602998733521,truck,truck,false,0014_fc_s04_false_truck_35_n03417042_7398.png
subject-04,1,15,NaN,na,bear,false,0015_fc_s04_false_bear_35_n02134418_2598.png
subject-04,1,16,1.2153799533844,bear,dog,false,0016_fc_s04_false_dog_35_n02097209_5457.png
subject-04,1,17,0.770023107528687,dog,dog,true,0017_fc_s04_true_dog_35_n02113023_2499.png
subject-04,1,18,0.868160963058472,bird,bird,true,0018_fc_s04_true_bird_35_n01843383_6338.png
subject-04,1,19,1.2607159614563,oven,oven,true,0019_fc_s04_true_oven_35_n04111531_9123.png
subject-04,1,20,0.60711407661438,cat,cat,true,0020_fc_s04_true_cat_35_n02123597_76.png
subject-04,1,21,0.481138944625854,cat,cat,true,0021_fc_s04_true_cat_35_n02124075_6134.png
subject-04,1,22,0.773540019989014,chair,chair,true,0022_fc_s04_true_chair_35_n04099969_421.png
subject-04,1,23,0.864037990570068,oven,oven,true,0023_fc_s04_true_oven_35_n04111531_22797.png
subject-04,1,24,1.06460094451904,clock,clock,false,0024_fc_s04_false_clock_35_n02708093_6959.png
subject-04,1,25,NaN,na,oven,true,0025_fc_s04_true_oven_35_n04111531_2207.png
subject-04,1,26,0.582651853561401,clock,clock,true,0026_fc_s04_true_clock_35_n03196217_1850.png
subject-04,1,27,0.567131996154785,clock,clock,true,0027_fc_s04_true_clock_35_n04548280_10162.png
subject-04,1,28,0.714395046234131,elephant,elephant,false,0028_fc_s04_false_elephant_35_n02504458_12705.png
subject-04,1,29,0.634398937225342,car,car,true,0029_fc_s04_true_car_35_n02814533_48541.png
subject-04,1,30,0.640789031982422,knife,knife,false,0030_fc_s04_false_knife_35_n03041632_38996.png
subject-04,1,31,0.771136045455933,truck,oven,false,0031_fc_s04_false_oven_35_n04111531_8350.png
subject-04,1,32,0.923851013183594,bird,bird,false,0032_fc_s04_false_bird_35_n01537544_6482.png
subject-04,1,33,1.09229588508606,truck,truck,false,0033_fc_s04_false_truck_35_n03417042_9592.png
subject-04,1,34,0.674026966094971,airplane,airplane,true,0034_fc_s04_true_airplane_35_n02690373_614.png
subject-04,1,35,0.525341987609863,keyboard,keyboard,false,0035_fc_s04_false_keyboard_35_n03085013_20620.png
subject-04,1,36,1.24795508384705,bear,bear,false,0036_fc_s04_false_bear_35_n02134418_1749.png
subject-04,1,37,0.532327890396118,clock,clock,false,0037_fc_s04_false_clock_35_n03196217_9563.png
subject-04,1,38,0.663050889968872,bird,bird,false,0038_fc_s04_false_bird_35_n01622779_6183.png
subject-04,1,39,1.00725913047791,airplane,airplane,true,0039_fc_s04_true_airplane_35_n02690373_9445.png
subject-04,1,40,0.645721912384033,bottle,bottle,true,0040_fc_s04_true_bottle_35_n02823428_14398.png
subject-04,1,41,0.651661157608032,bottle,bottle,true,0041_fc_s04_true_bottle_35_n04591713_1251.png
subject-04,1,42,0.590446949005127,bottle,bottle,true,0042_fc_s04_true_bottle_35_n03983396_10814.png
subject-04,1,43,0.771162986755371,bird,bird,true,0043_fc_s04_true_bird_35_n01819313_1119.png
subject-04,1,44,0.73194408416748,chair,chair,true,0044_fc_s04_true_chair_35_n04429376_25432.png
subject-04,1,45,0.762369871139526,chair,chair,false,0045_fc_s04_false_chair_35_n04429376_14741.png
subject-04,1,46,0.782608032226562,elephant,elephant,true,0046_fc_s04_true_elephant_35_n02504458_4022.png
subject-04,1,47,0.883267879486084,bird,bird,false,0047_fc_s04_false_bird_35_n01616318_4911.png
subject-04,1,48,0.749737977981567,bear,bear,true,0048_fc_s04_true_bear_35_n02133161_734.png
subject-04,1,49,0.596083164215088,car,car,true,0049_fc_s04_true_car_35_n02814533_3511.png
subject-04,1,50,0.902765989303589,bottle,bottle,true,0050_fc_s04_true_bottle_35_n03937543_4069.png
subject-04,1,51,0.762639999389648,bicycle,bicycle,true,0051_fc_s04_true_bicycle_35_n02835271_6122.png
subject-04,1,52,0.647258996963501,bear,bear,true,0052_fc_s04_true_bear_35_n02132136_1029.png
subject-04,1,53,0.691726922988892,truck,truck,true,0053_fc_s04_true_truck_35_n03796401_5071.png
subject-04,1,54,1.244215965271,bear,bear,true,0054_fc_s04_true_bear_35_n02134418_5582.png
subject-04,1,55,1.15875101089478,truck,truck,true,0055_fc_s04_true_truck_35_n04467665_53416.png
subject-04,1,56,0.672746896743774,keyboard,keyboard,false,0056_fc_s04_false_keyboard_35_n04505470_2389.png
subject-04,1,57,0.775535106658936,bird,bird,true,0057_fc_s04_true_bird_35_n01860187_35480.png
subject-04,1,58,1.08176517486572,bear,boat,false,0058_fc_s04_false_boat_35_n03344393_3995.png
subject-04,1,59,0.658323049545288,keyboard,keyboard,false,0059_fc_s04_false_keyboard_35_n04505470_1464.png
subject-04,1,60,0.788856983184814,airplane,airplane,false,0060_fc_s04_false_airplane_35_n02690373_19749.png
subject-04,1,61,NaN,na,bicycle,false,0061_fc_s04_false_bicycle_35_n02835271_14070.png
subject-04,1,62,0.879649877548218,truck,truck,true,0062_fc_s04_true_truck_35_n04467665_48928.png
subject-04,1,63,0.640460014343262,chair,chair,true,0063_fc_s04_true_chair_35_n03376595_3912.png
subject-04,1,64,0.930392026901245,bottle,bottle,false,0064_fc_s04_false_bottle_35_n04557648_9909.png
subject-04,1,65,NaN,na,car,false,0065_fc_s04_false_car_35_n02814533_77248.png
subject-04,1,66,0.745682001113892,bear,bear,false,0066_fc_s04_false_bear_35_n02133161_2474.png
subject-04,1,67,1.01223611831665,keyboard,chair,true,0067_fc_s04_true_chair_35_n02791124_2358.png
subject-04,1,68,0.742583036422729,bicycle,knife,true,0068_fc_s04_true_knife_35_n03041632_28201.png
subject-04,1,69,0.603021860122681,cat,cat,true,0069_fc_s04_true_cat_35_n02123045_11465.png
subject-04,1,70,1.42354798316956,clock,chair,false,0070_fc_s04_false_chair_35_n04429376_439.png
subject-04,1,71,0.578258991241455,oven,oven,true,0071_fc_s04_true_oven_35_n04111531_9613.png
subject-04,1,72,1.00056004524231,boat,bird,false,0072_fc_s04_false_bird_35_n02013706_19295.png
subject-04,1,73,1.44530010223389,bird,bird,true,0073_fc_s04_true_bird_35_n02007558_53734.png
subject-04,1,74,0.697571992874146,truck,truck,true,0074_fc_s04_true_truck_35_n03417042_18152.png
subject-04,1,75,0.735939025878906,cat,cat,true,0075_fc_s04_true_cat_35_n02123159_5225.png
subject-04,1,76,0.672532081604004,bicycle,bicycle,true,0076_fc_s04_true_bicycle_35_n03792782_13077.png
subject-04,1,77,1.06283187866211,dog,dog,false,0077_fc_s04_false_dog_35_n02096585_6568.png
subject-04,1,78,0.838812112808228,bird,bird,false,0078_fc_s04_false_bird_35_n01819313_3728.png
subject-04,1,79,0.707262992858887,truck,truck,false,0079_fc_s04_false_truck_35_n03417042_10121.png
subject-04,1,80,1.28371095657349,bear,bear,true,0080_fc_s04_true_bear_35_n02132136_8234.png
subject-04,1,81,0.981794118881226,elephant,bear,false,0081_fc_s04_false_bear_35_n02134418_3388.png
subject-04,1,82,0.626220941543579,bird,bird,true,0082_fc_s04_true_bird_35_n01592084_1205.png
subject-04,1,83,0.664529085159302,bottle,bottle,false,0083_fc_s04_false_bottle_35_n04579145_1461.png
subject-04,1,84,0.592229843139648,car,car,true,0084_fc_s04_true_car_35_n03100240_2232.png
subject-04,1,85,0.768844842910767,keyboard,oven,false,0085_fc_s04_false_oven_35_n04111531_1873.png
subject-04,1,86,0.583446025848389,keyboard,keyboard,true,0086_fc_s04_true_keyboard_35_n03085013_18775.png
subject-04,1,87,0.597941875457764,car,truck,true,0087_fc_s04_true_truck_35_n04467665_4492.png
subject-04,1,88,0.872021913528442,chair,chair,false,0088_fc_s04_false_chair_35_n02791124_10701.png
subject-04,1,89,0.778141975402832,boat,boat,true,0089_fc_s04_true_boat_35_n02951358_4544.png
subject-04,1,90,0.630841016769409,chair,chair,false,0090_fc_s04_false_chair_35_n04099969_2335.png
subject-04,1,91,0.769327163696289,boat,boat,false,0091_fc_s04_false_boat_35_n03662601_26227.png
subject-04,1,92,0.62972092628479,boat,boat,false,0092_fc_s04_false_boat_35_n04612504_9572.png
subject-04,1,93,0.674413919448853,cat,dog,true,0093_fc_s04_true_dog_35_n02113023_5365.png
subject-04,1,94,0.672621011734009,elephant,elephant,false,0094_fc_s04_false_elephant_35_n02504458_1705.png
subject-04,1,95,0.619488954544067,cat,cat,false,0095_fc_s04_false_cat_35_n02123597_6641.png
subject-04,1,96,0.825556993484497,dog,dog,false,0096_fc_s04_false_dog_35_n02098286_4708.png
subject-04,1,97,0.916347980499268,car,truck,false,0097_fc_s04_false_truck_35_n04467665_46029.png
subject-04,1,98,0.651903867721558,airplane,airplane,false,0098_fc_s04_false_airplane_35_n02690373_5415.png
subject-04,1,99,0.612178087234497,keyboard,keyboard,true,0099_fc_s04_true_keyboard_35_n04505470_4534.png
subject-04,1,100,1.21897101402283,dog,dog,true,0100_fc_s04_true_dog_35_n02105056_4407.png
subject-04,1,101,0.709010124206543,bear,bear,false,0101_fc_s04_false_bear_35_n02134418_24458.png
subject-04,1,102,0.709728956222534,keyboard,keyboard,false,0102_fc_s04_false_keyboard_35_n03085013_17256.png
subject-04,1,103,0.922140121459961,bicycle,bicycle,true,0103_fc_s04_true_bicycle_35_n03792782_18746.png
subject-04,1,104,0.860671997070312,car,car,true,0104_fc_s04_true_car_35_n04285008_11390.png
subject-04,1,105,0.690909862518311,chair,chair,false,0105_fc_s04_false_chair_35_n04099969_9847.png
subject-04,1,106,0.589209079742432,boat,boat,true,0106_fc_s04_true_boat_35_n04612504_3847.png
subject-04,1,107,0.609179973602295,cat,cat,true,0107_fc_s04_true_cat_35_n02123394_4661.png
subject-04,1,108,0.615047931671143,keyboard,keyboard,true,0108_fc_s04_true_keyboard_35_n04505470_2865.png
subject-04,1,109,1.15954303741455,oven,oven,true,0109_fc_s04_true_oven_35_n04111531_11110.png
subject-04,1,110,0.660098075866699,keyboard,keyboard,true,0110_fc_s04_true_keyboard_35_n03085013_21048.png
subject-04,1,111,1.42639207839966,knife,keyboard,false,0111_fc_s04_false_keyboard_35_n03085013_21492.png
subject-04,1,112,1.0539870262146,dog,dog,false,0112_fc_s04_false_dog_35_n02089078_8321.png
subject-04,1,113,0.830338954925537,bicycle,bicycle,false,0113_fc_s04_false_bicycle_35_n03792782_51838.png
subject-04,1,114,0.707039833068848,truck,truck,false,0114_fc_s04_false_truck_35_n04467665_66797.png
subject-04,1,115,0.659224987030029,airplane,airplane,true,0115_fc_s04_true_airplane_35_n02690373_10404.png
subject-04,1,116,1.16591596603394,boat,boat,true,0116_fc_s04_true_boat_35_n03662601_21599.png
subject-04,1,117,0.794457197189331,chair,chair,true,0117_fc_s04_true_chair_35_n04099969_3900.png
subject-04,1,118,0.649121999740601,elephant,elephant,false,0118_fc_s04_false_elephant_35_n02504458_741.png
subject-04,1,119,0.701231002807617,cat,cat,false,0119_fc_s04_false_cat_35_n02124075_8747.png
subject-04,1,120,1.30597686767578,boat,bottle,true,0120_fc_s04_true_bottle_35_n03983396_2205.png
subject-04,1,121,0.852314949035645,cat,cat,false,0121_fc_s04_false_cat_35_n02123597_13519.png
subject-04,1,122,0.920727014541626,dog,dog,true,0122_fc_s04_true_dog_35_n02108422_8876.png
subject-04,1,123,0.865180015563965,dog,cat,false,0123_fc_s04_false_cat_35_n02125311_13209.png
subject-04,1,124,0.933780193328857,keyboard,knife,true,0124_fc_s04_true_knife_35_n03041632_55953.png
subject-04,1,125,0.748183965682983,truck,truck,true,0125_fc_s04_true_truck_35_n03417042_1775.png
subject-04,1,126,0.602768898010254,car,car,false,0126_fc_s04_false_car_35_n04285008_13223.png
subject-04,1,127,1.31532287597656,knife,knife,false,0127_fc_s04_false_knife_35_n03041632_28009.png
subject-04,1,128,0.753675222396851,chair,chair,false,0128_fc_s04_false_chair_35_n04429376_17336.png
subject-04,1,129,1.36568284034729,oven,oven,false,0129_fc_s04_false_oven_35_n04111531_5570.png
subject-04,1,130,1.38817691802979,oven,oven,true,0130_fc_s04_true_oven_35_n04111531_11470.png
subject-04,1,131,0.618424892425537,car,car,false,0131_fc_s04_false_car_35_n02814533_32835.png
subject-04,1,132,0.692681074142456,cat,cat,true,0132_fc_s04_true_cat_35_n02124075_7277.png
subject-04,1,133,0.761202812194824,clock,clock,false,0133_fc_s04_false_clock_35_n02708093_3755.png
subject-04,1,134,0.897413969039917,dog,dog,true,0134_fc_s04_true_dog_35_n02097658_1097.png
subject-04,1,135,0.835913896560669,car,car,false,0135_fc_s04_false_car_35_n02814533_41391.png
subject-04,1,136,0.88861608505249,bicycle,bicycle,true,0136_fc_s04_true_bicycle_35_n02835271_4307.png
subject-04,1,137,0.702642202377319,cat,cat,false,0137_fc_s04_false_cat_35_n02123394_1979.png
subject-04,1,138,0.98651909828186,oven,oven,true,0138_fc_s04_true_oven_35_n04111531_6128.png
subject-04,1,139,1.15324211120605,bear,elephant,false,0139_fc_s04_false_elephant_35_n02504013_5839.png
subject-04,1,140,1.47541117668152,bicycle,bicycle,false,0140_fc_s04_false_bicycle_35_n02835271_8941.png
subject-04,1,141,0.776242017745972,bird,bird,false,0141_fc_s04_false_bird_35_n01560419_2408.png
subject-04,1,142,0.850567102432251,bear,bear,true,0142_fc_s04_true_bear_35_n02134084_16974.png
subject-04,1,143,0.83479380607605,bear,bear,true,0143_fc_s04_true_bear_35_n02134418_596.png
subject-04,1,144,0.703351974487305,airplane,airplane,false,0144_fc_s04_false_airplane_35_n02690373_2042.png
subject-04,1,145,0.880504846572876,dog,dog,false,0145_fc_s04_false_dog_35_n02106030_2942.png
subject-04,1,146,0.678440093994141,oven,oven,false,0146_fc_s04_false_oven_35_n04111531_4332.png
subject-04,1,147,0.714519023895264,airplane,airplane,true,0147_fc_s04_true_airplane_35_n02690373_19329.png
subject-04,1,148,0.798871994018555,boat,boat,false,0148_fc_s04_false_boat_35_n02951358_1752.png
subject-04,1,149,0.751127004623413,bear,bear,false,0149_fc_s04_false_bear_35_n02134084_7622.png
subject-04,1,150,0.773515939712524,clock,clock,true,0150_fc_s04_true_clock_35_n03196217_5554.png
subject-04,1,151,0.825888156890869,elephant,elephant,false,0151_fc_s04_false_elephant_35_n02504013_11156.png
subject-04,1,152,0.678451061248779,bottle,bottle,true,0152_fc_s04_true_bottle_35_n03937543_958.png
subject-04,1,153,0.714663028717041,dog,dog,true,0153_fc_s04_true_dog_35_n02105056_10545.png
subject-04,1,154,0.590729951858521,bear,bear,true,0154_fc_s04_true_bear_35_n02134084_13434.png
subject-04,1,155,0.94292688369751,oven,oven,true,0155_fc_s04_true_oven_35_n04111531_1362.png
subject-04,1,156,1.00356388092041,bicycle,bicycle,true,0156_fc_s04_true_bicycle_35_n02835271_23624.png
subject-04,1,157,0.764098167419434,bottle,bottle,true,0157_fc_s04_true_bottle_35_n03983396_5999.png
subject-04,1,158,0.577959060668945,oven,oven,true,0158_fc_s04_true_oven_35_n04111531_6217.png
subject-04,1,159,0.876201868057251,knife,knife,false,0159_fc_s04_false_knife_35_n03041632_18748.png
subject-04,1,160,0.615062952041626,oven,oven,false,0160_fc_s04_false_oven_35_n04111531_5737.png
subject-04,1,161,0.648342847824097,airplane,airplane,true,0161_fc_s04_true_airplane_35_n02690373_2232.png
subject-04,1,162,0.922463178634644,truck,truck,true,0162_fc_s04_true_truck_35_n04467665_70844.png
subject-04,1,163,0.798927783966064,keyboard,keyboard,false,0163_fc_s04_false_keyboard_35_n03085013_19380.png
subject-04,1,164,0.529316902160645,oven,oven,true,0164_fc_s04_true_oven_35_n04111531_17072.png
subject-04,1,165,0.573662996292114,keyboard,keyboard,true,0165_fc_s04_true_keyboard_35_n04505470_10746.png
subject-04,1,166,0.671756029129028,airplane,airplane,true,0166_fc_s04_true_airplane_35_n02690373_5374.png
subject-04,1,167,0.737882852554321,boat,boat,true,0167_fc_s04_true_boat_35_n03344393_8294.png
subject-04,1,168,0.827944993972778,bicycle,bicycle,true,0168_fc_s04_true_bicycle_35_n02835271_8161.png
subject-04,1,169,0.771941900253296,truck,truck,false,0169_fc_s04_false_truck_35_n04467665_46073.png
subject-04,1,170,0.786172866821289,airplane,airplane,false,0170_fc_s04_false_airplane_35_n02690373_8789.png
subject-04,1,171,0.800649166107178,clock,clock,false,0171_fc_s04_false_clock_35_n04548280_1022.png
subject-04,1,172,0.68513011932373,oven,oven,false,0172_fc_s04_false_oven_35_n04111531_22020.png
subject-04,1,173,0.675575971603394,bicycle,bicycle,true,0173_fc_s04_true_bicycle_35_n03792782_38849.png
subject-04,1,174,0.574192047119141,airplane,airplane,true,0174_fc_s04_true_airplane_35_n02690373_6406.png
subject-04,1,175,0.580846071243286,bear,cat,false,0175_fc_s04_false_cat_35_n02125311_7991.png
subject-04,1,176,1.17903399467468,bicycle,bottle,false,0176_fc_s04_false_bottle_35_n04560804_8127.png
subject-04,1,177,0.609400033950806,bottle,bottle,true,0177_fc_s04_true_bottle_35_n04557648_840.png
subject-04,1,178,0.653759956359863,cat,cat,true,0178_fc_s04_true_cat_35_n02123394_3568.png
subject-04,1,179,0.643978118896484,elephant,elephant,true,0179_fc_s04_true_elephant_35_n02504013_7530.png
subject-04,1,180,0.665996074676514,boat,boat,false,0180_fc_s04_false_boat_35_n02951358_3819.png
subject-04,1,181,0.91870903968811,dog,dog,true,0181_fc_s04_true_dog_35_n02105855_12412.png
subject-04,1,182,0.801213026046753,bottle,bottle,false,0182_fc_s04_false_bottle_35_n04557648_157.png
subject-04,1,183,0.815538883209229,truck,truck,true,0183_fc_s04_true_truck_35_n04467665_15235.png
subject-04,1,184,NaN,na,clock,true,0184_fc_s04_true_clock_35_n04548280_4783.png
subject-04,1,185,0.629307985305786,car,car,false,0185_fc_s04_false_car_35_n03100240_5540.png
subject-04,1,186,1.18167901039124,bear,cat,true,0186_fc_s04_true_cat_35_n02125311_12538.png
subject-04,1,187,0.836097955703735,boat,airplane,false,0187_fc_s04_false_airplane_35_n02690373_3064.png
subject-04,1,188,0.564434051513672,airplane,airplane,true,0188_fc_s04_true_airplane_35_n02690373_5277.png
subject-04,1,189,0.694797039031982,elephant,elephant,false,0189_fc_s04_false_elephant_35_n02504013_10341.png
subject-04,1,190,0.806801795959473,dog,dog,true,0190_fc_s04_true_dog_35_n02106166_2345.png
subject-04,1,191,NaN,na,car,false,0191_fc_s04_false_car_35_n04285008_14161.png
subject-04,1,192,0.757879972457886,dog,dog,true,0192_fc_s04_true_dog_35_n02110185_14479.png
subject-04,1,193,0.587875843048096,oven,oven,false,0193_fc_s04_false_oven_35_n04111531_10722.png
subject-04,1,194,0.89949893951416,oven,knife,false,0194_fc_s04_false_knife_35_n03041632_33225.png
subject-04,1,195,0.698114156723022,bear,bear,false,0195_fc_s04_false_bear_35_n02132136_6741.png
subject-04,1,196,0.604826927185059,truck,truck,false,0196_fc_s04_false_truck_35_n04467665_24709.png
subject-04,1,197,0.749320030212402,bear,bear,false,0197_fc_s04_false_bear_35_n02134418_1487.png
subject-04,1,198,0.641877174377441,car,car,false,0198_fc_s04_false_car_35_n02814533_21807.png
subject-04,1,199,0.740026950836182,elephant,elephant,true,0199_fc_s04_true_elephant_35_n02504458_11289.png
subject-04,1,200,0.722532033920288,boat,boat,false,0200_fc_s04_false_boat_35_n03662601_20381.png
subject-04,1,201,0.94254994392395,elephant,elephant,false,0201_fc_s04_false_elephant_35_n02504013_8002.png
subject-04,1,202,1.03514814376831,oven,oven,false,0202_fc_s04_false_oven_35_n04111531_22704.png
subject-04,1,203,0.749668121337891,bear,bear,true,0203_fc_s04_true_bear_35_n02134084_2948.png
subject-04,1,204,0.654432058334351,cat,cat,false,0204_fc_s04_false_cat_35_n02125311_7225.png
subject-04,1,205,1.48265886306763,knife,bottle,false,0205_fc_s04_false_bottle_35_n04557648_9195.png
subject-04,1,206,0.737313032150269,clock,clock,false,0206_fc_s04_false_clock_35_n02708093_425.png
subject-04,1,207,0.911751985549927,car,airplane,true,0207_fc_s04_true_airplane_35_n02690373_2075.png
subject-04,1,208,0.587136030197144,knife,knife,true,0208_fc_s04_true_knife_35_n03041632_52371.png
subject-04,1,209,1.02166795730591,dog,dog,true,0209_fc_s04_true_dog_35_n02108915_9530.png
subject-04,1,210,0.822194814682007,cat,cat,true,0210_fc_s04_true_cat_35_n02123045_2664.png
subject-04,1,211,0.737061977386475,bicycle,bicycle,true,0211_fc_s04_true_bicycle_35_n02835271_69.png
subject-04,1,212,0.611205816268921,bicycle,bicycle,false,0212_fc_s04_false_bicycle_35_n02835271_1016.png
subject-04,1,213,0.839602947235107,bear,airplane,true,0213_fc_s04_true_airplane_35_n02690373_19666.png
subject-04,1,214,0.85852313041687,boat,boat,true,0214_fc_s04_true_boat_35_n03344393_6209.png
subject-04,1,215,0.764420986175537,bicycle,bicycle,false,0215_fc_s04_false_bicycle_35_n02835271_9482.png
subject-04,1,216,0.98498010635376,bear,bear,false,0216_fc_s04_false_bear_35_n02134418_3855.png
subject-04,1,217,0.595836877822876,bear,bear,true,0217_fc_s04_true_bear_35_n02134418_5792.png
subject-04,1,218,0.618338823318481,cat,cat,false,0218_fc_s04_false_cat_35_n02123597_8044.png
subject-04,1,219,0.75487494468689,car,car,false,0219_fc_s04_false_car_35_n02814533_84354.png
subject-04,1,220,0.737231969833374,bear,bear,true,0220_fc_s04_true_bear_35_n02134084_4278.png
subject-04,1,221,0.89811110496521,truck,truck,false,0221_fc_s04_false_truck_35_n03417042_18116.png
subject-04,1,222,0.942714929580688,elephant,elephant,false,0222_fc_s04_false_elephant_35_n02504013_18799.png
subject-04,1,223,1.00043606758118,dog,dog,false,0223_fc_s04_false_dog_35_n02093754_826.png
subject-04,1,224,1.02248096466064,cat,oven,false,0224_fc_s04_false_oven_35_n04111531_5038.png
subject-04,1,225,0.682326078414917,car,car,false,0225_fc_s04_false_car_35_n03100240_6243.png
subject-04,1,226,0.6648268699646,elephant,elephant,true,0226_fc_s04_true_elephant_35_n02504458_2627.png
subject-04,1,227,1.02324509620667,oven,knife,false,0227_fc_s04_false_knife_35_n03041632_90407.png
subject-04,1,228,0.646122932434082,clock,clock,false,0228_fc_s04_false_clock_35_n04548280_2436.png
subject-04,1,229,0.638669967651367,car,car,true,0229_fc_s04_true_car_35_n04285008_2460.png
subject-04,1,230,0.821046113967896,bottle,bottle,true,0230_fc_s04_true_bottle_35_n04591713_1594.png
subject-04,1,231,0.687363862991333,knife,knife,true,0231_fc_s04_true_knife_35_n03041632_42841.png
subject-04,1,232,1.19346499443054,bear,dog,false,0232_fc_s04_false_dog_35_n02097298_9499.png
subject-04,1,233,0.867746114730835,bear,bear,false,0233_fc_s04_false_bear_35_n02133161_12349.png
subject-04,1,234,0.598027944564819,clock,clock,true,0234_fc_s04_true_clock_35_n04548280_5309.png
subject-04,1,235,0.550622940063477,keyboard,keyboard,false,0235_fc_s04_false_keyboard_35_n03085013_24115.png
subject-04,1,236,0.995020866394043,elephant,elephant,false,0236_fc_s04_false_elephant_35_n02504458_4143.png
subject-04,1,237,0.585777997970581,car,car,false,0237_fc_s04_false_car_35_n04285008_3282.png
subject-04,1,238,0.783890008926392,bird,bird,true,0238_fc_s04_true_bird_35_n01833805_703.png
subject-04,1,239,0.724645137786865,keyboard,keyboard,true,0239_fc_s04_true_keyboard_35_n03085013_6968.png
subject-04,1,240,0.701033115386963,bicycle,bicycle,true,0240_fc_s04_true_bicycle_35_n02835271_4138.png
subject-04,1,241,0.891942024230957,truck,truck,true,0241_fc_s04_true_truck_35_n03417042_1981.png
subject-04,1,242,0.658047914505005,bicycle,bicycle,false,0242_fc_s04_false_bicycle_35_n03792782_7773.png
subject-04,1,243,0.702467918395996,bicycle,bicycle,true,0243_fc_s04_true_bicycle_35_n02835271_22549.png
subject-04,1,244,0.832973957061768,knife,knife,true,0244_fc_s04_true_knife_35_n03041632_12242.png
subject-04,1,245,1.16113901138306,knife,knife,true,0245_fc_s04_true_knife_35_n03041632_1407.png
subject-04,1,246,0.972799062728882,bicycle,oven,true,0246_fc_s04_true_oven_35_n04111531_10403.png
subject-04,1,247,1.29293894767761,car,car,true,0247_fc_s04_true_car_35_n02814533_7028.png
subject-04,1,248,0.823633909225464,bird,bird,false,0248_fc_s04_false_bird_35_n01616318_2458.png
subject-04,1,249,0.729996204376221,airplane,airplane,true,0249_fc_s04_true_airplane_35_n02690373_7093.png
subject-04,1,250,0.750149965286255,boat,boat,true,0250_fc_s04_true_boat_35_n02951358_6268.png
subject-04,1,251,1.24084711074829,bird,bird,false,0251_fc_s04_false_bird_35_n02028035_11075.png
subject-04,1,252,1.18543815612793,oven,oven,true,0252_fc_s04_true_oven_35_n04111531_7340.png
subject-04,1,253,1.08415007591248,car,oven,true,0253_fc_s04_true_oven_35_n04111531_6298.png
subject-04,1,254,1.11457991600037,clock,keyboard,true,0254_fc_s04_true_keyboard_35_n03085013_2073.png
subject-04,1,255,1.25067615509033,knife,clock,false,0255_fc_s04_false_clock_35_n03196217_3289.png
subject-04,1,256,0.981917142868042,clock,clock,false,0256_fc_s04_false_clock_35_n02708093_2857.png
subject-04,1,257,0.793833017349243,truck,truck,false,0257_fc_s04_false_truck_35_n04467665_3109.png
subject-04,1,258,0.970458030700684,dog,dog,false,0258_fc_s04_false_dog_35_n02110063_6202.png
subject-04,1,259,0.831331014633179,keyboard,keyboard,false,0259_fc_s04_false_keyboard_35_n03085013_6295.png
subject-04,1,260,1.02181601524353,bear,dog,true,0260_fc_s04_true_dog_35_n02097209_803.png
subject-04,1,261,1.12582206726074,knife,knife,false,0261_fc_s04_false_knife_35_n03041632_45312.png
subject-04,1,262,1.50037717819214,bear,oven,false,0262_fc_s04_false_oven_35_n04111531_8988.png
subject-04,1,263,0.812413930892944,boat,boat,false,0263_fc_s04_false_boat_35_n02951358_3275.png
subject-04,1,264,1.4929780960083,oven,oven,false,0264_fc_s04_false_oven_35_n04111531_6934.png
subject-04,1,265,0.939409971237183,boat,boat,true,0265_fc_s04_true_boat_35_n03662601_2103.png
subject-04,1,266,0.629414081573486,cat,cat,false,0266_fc_s04_false_cat_35_n02123394_5577.png
subject-04,1,267,0.995651006698608,bear,cat,false,0267_fc_s04_false_cat_35_n02125311_1376.png
subject-04,1,268,0.947994947433472,oven,keyboard,false,0268_fc_s04_false_keyboard_35_n03085013_20704.png
subject-04,1,269,0.878700017929077,boat,boat,true,0269_fc_s04_true_boat_35_n03662601_27803.png
subject-04,1,270,0.814359188079834,truck,truck,true,0270_fc_s04_true_truck_35_n03417042_29353.png
subject-04,1,271,0.880728960037231,keyboard,keyboard,false,0271_fc_s04_false_keyboard_35_n04505470_1430.png
subject-04,1,272,0.973361968994141,oven,dog,false,0272_fc_s04_false_dog_35_n02106550_7741.png
subject-04,1,273,0.740026950836182,airplane,airplane,true,0273_fc_s04_true_airplane_35_n02690373_12044.png
subject-04,1,274,0.978392839431763,bird,bird,true,0274_fc_s04_true_bird_35_n02018795_18220.png
subject-04,1,275,1.21472692489624,knife,bottle,false,0275_fc_s04_false_bottle_35_n04560804_15903.png
subject-04,1,276,0.904436111450195,airplane,airplane,false,0276_fc_s04_false_airplane_35_n02690373_4943.png
subject-04,1,277,1.37051320075989,knife,knife,false,0277_fc_s04_false_knife_35_n03041632_4975.png
subject-04,1,278,1.20729899406433,dog,keyboard,false,0278_fc_s04_false_keyboard_35_n03085013_24078.png
subject-04,1,279,0.905851125717163,dog,dog,true,0279_fc_s04_true_dog_35_n02111500_6628.png
subject-04,1,280,0.836112022399902,knife,knife,false,0280_fc_s04_false_knife_35_n03041632_43634.png
subject-04,1,281,0.842796802520752,keyboard,keyboard,false,0281_fc_s04_false_keyboard_35_n03085013_4160.png
subject-04,1,282,1.00880312919617,dog,dog,true,0282_fc_s04_true_dog_35_n02099429_5939.png
subject-04,1,283,0.691407203674316,elephant,elephant,false,0283_fc_s04_false_elephant_35_n02504458_4583.png
subject-04,1,284,0.683890104293823,elephant,elephant,true,0284_fc_s04_true_elephant_35_n02504013_1005.png
subject-04,1,285,0.742548942565918,bicycle,bicycle,false,0285_fc_s04_false_bicycle_35_n03792782_68319.png
subject-04,1,286,0.857346057891846,truck,truck,false,0286_fc_s04_false_truck_35_n03796401_22159.png
subject-04,1,287,0.771713018417358,bicycle,bicycle,false,0287_fc_s04_false_bicycle_35_n02835271_12385.png
subject-04,1,288,1.40851211547852,oven,chair,true,0288_fc_s04_true_chair_35_n04099969_9129.png
subject-04,1,289,1.04450702667236,car,car,false,0289_fc_s04_false_car_35_n02814533_23628.png
subject-04,1,290,0.934736967086792,dog,dog,false,0290_fc_s04_false_dog_35_n02098105_1764.png
subject-04,1,291,0.779234170913696,bicycle,bicycle,true,0291_fc_s04_true_bicycle_35_n02835271_12004.png
subject-04,1,292,1.50041818618774,dog,bear,true,0292_fc_s04_true_bear_35_n02132136_33437.png
subject-04,1,293,0.859537124633789,boat,boat,true,0293_fc_s04_true_boat_35_n03344393_8502.png
subject-04,1,294,1.13659000396729,clock,chair,true,0294_fc_s04_true_chair_35_n04429376_56624.png
subject-04,1,295,1.40253615379333,oven,truck,false,0295_fc_s04_false_truck_35_n03796401_1425.png
subject-04,1,296,0.992432832717896,car,car,true,0296_fc_s04_true_car_35_n04285008_740.png
subject-04,1,297,0.839545965194702,chair,chair,true,0297_fc_s04_true_chair_35_n04099969_11938.png
subject-04,1,298,0.837773084640503,car,car,false,0298_fc_s04_false_car_35_n03100240_5527.png
subject-04,1,299,0.751994132995605,bicycle,bicycle,true,0299_fc_s04_true_bicycle_35_n03792782_21378.png
subject-04,1,300,1.06465101242065,chair,chair,true,0300_fc_s04_true_chair_35_n04099969_2692.png
subject-04,1,301,1.04086995124817,cat,cat,true,0301_fc_s04_true_cat_35_n02123159_4628.png
subject-04,1,302,1.18264603614807,bear,cat,false,0302_fc_s04_false_cat_35_n02125311_25612.png
subject-04,1,303,0.838249921798706,bear,bear,false,0303_fc_s04_false_bear_35_n02134084_7841.png
subject-04,1,304,0.944565057754517,elephant,elephant,true,0304_fc_s04_true_elephant_35_n02504458_2353.png
subject-04,1,305,1.24899101257324,dog,dog,true,0305_fc_s04_true_dog_35_n02113624_1011.png
subject-04,1,306,1.4520308971405,cat,chair,true,0306_fc_s04_true_chair_35_n02791124_2651.png
subject-04,1,307,1.05208706855774,oven,knife,false,0307_fc_s04_false_knife_35_n03041632_22738.png
subject-04,1,308,0.725996017456055,cat,cat,false,0308_fc_s04_false_cat_35_n02124075_6626.png
subject-04,1,309,1.02412796020508,knife,knife,false,0309_fc_s04_false_knife_35_n03041632_22190.png
subject-04,1,310,0.822267055511475,chair,chair,true,0310_fc_s04_true_chair_35_n04099969_6230.png
subject-04,1,311,1.21328592300415,bird,bird,true,0311_fc_s04_true_bird_35_n02051845_10210.png
subject-04,1,312,0.865542888641357,cat,cat,false,0312_fc_s04_false_cat_35_n02124075_7323.png
subject-04,1,313,0.680030107498169,bottle,bottle,false,0313_fc_s04_false_bottle_35_n04557648_988.png
subject-04,1,314,0.932762145996094,bird,bird,true,0314_fc_s04_true_bird_35_n01843383_17450.png
subject-04,1,315,0.961036920547485,dog,dog,true,0315_fc_s04_true_dog_35_n02102318_2267.png
subject-04,1,316,0.867449998855591,elephant,elephant,true,0316_fc_s04_true_elephant_35_n02504458_6906.png
subject-04,1,317,0.687989950180054,bird,bird,true,0317_fc_s04_true_bird_35_n01824575_7295.png
subject-04,1,318,0.99446702003479,truck,truck,true,0318_fc_s04_true_truck_35_n04467665_8768.png
subject-04,1,319,0.741006135940552,clock,clock,false,0319_fc_s04_false_clock_35_n03196217_8706.png
subject-04,1,320,0.799901962280273,elephant,elephant,true,0320_fc_s04_true_elephant_35_n02504013_5165.png
subject-04,1,321,0.555884122848511,cat,cat,true,0321_fc_s04_true_cat_35_n02123394_3442.png
subject-04,1,322,0.946182012557983,oven,oven,true,0322_fc_s04_true_oven_35_n04111531_46651.png
subject-04,1,323,0.719491958618164,bicycle,bicycle,false,0323_fc_s04_false_bicycle_35_n02835271_15216.png
subject-04,1,324,0.809749841690063,knife,knife,true,0324_fc_s04_true_knife_35_n03041632_7064.png
subject-04,1,325,0.63188099861145,keyboard,keyboard,true,0325_fc_s04_true_keyboard_35_n04505470_4554.png
subject-04,1,326,0.806536912918091,boat,bottle,false,0326_fc_s04_false_bottle_35_n03983396_4138.png
subject-04,1,327,0.560882806777954,airplane,airplane,true,0327_fc_s04_true_airplane_35_n02690373_8304.png
subject-04,1,328,0.694869995117188,elephant,elephant,false,0328_fc_s04_false_elephant_35_n02504458_259.png
subject-04,1,329,0.947141885757446,boat,boat,false,0329_fc_s04_false_boat_35_n04273569_1388.png
subject-04,1,330,0.83762001991272,bicycle,bicycle,false,0330_fc_s04_false_bicycle_35_n02835271_10104.png
subject-04,1,331,1.09853386878967,bear,bear,false,0331_fc_s04_false_bear_35_n02134418_845.png
subject-04,1,332,0.88090705871582,cat,cat,false,0332_fc_s04_false_cat_35_n02125311_2246.png
subject-04,1,333,1.06513595581055,knife,knife,true,0333_fc_s04_true_knife_35_n03041632_22964.png
subject-04,1,334,0.885576009750366,cat,keyboard,false,0334_fc_s04_false_keyboard_35_n03085013_23705.png
subject-04,1,335,0.937711954116821,truck,truck,false,0335_fc_s04_false_truck_35_n03417042_15198.png
subject-04,1,336,0.898038864135742,airplane,airplane,true,0336_fc_s04_true_airplane_35_n02690373_3362.png
subject-04,1,337,0.958755970001221,car,car,true,0337_fc_s04_true_car_35_n02814533_8121.png
subject-04,1,338,0.741482973098755,truck,truck,false,0338_fc_s04_false_truck_35_n03417042_6549.png
subject-04,1,339,0.755833148956299,keyboard,keyboard,true,0339_fc_s04_true_keyboard_35_n03085013_661.png
subject-04,1,340,0.7465660572052,bear,bear,false,0340_fc_s04_false_bear_35_n02132136_2498.png
subject-04,1,341,1.02823281288147,boat,boat,true,0341_fc_s04_true_boat_35_n03344393_6507.png
subject-04,1,342,0.704218864440918,oven,oven,false,0342_fc_s04_false_oven_35_n04111531_9178.png
subject-04,1,343,1.12455201148987,bear,bicycle,true,0343_fc_s04_true_bicycle_35_n03792782_7796.png
subject-04,1,344,1.34489917755127,bird,bird,false,0344_fc_s04_false_bird_35_n01534433_13303.png
subject-04,1,345,0.766827821731567,knife,knife,false,0345_fc_s04_false_knife_35_n03041632_32054.png
subject-04,1,346,1.17081809043884,clock,clock,true,0346_fc_s04_true_clock_35_n02708093_3743.png
subject-04,1,347,1.25536799430847,clock,clock,true,0347_fc_s04_true_clock_35_n03196217_3730.png
subject-04,1,348,0.799678087234497,clock,clock,true,0348_fc_s04_true_clock_35_n03196217_3600.png
subject-04,1,349,0.819401025772095,airplane,airplane,false,0349_fc_s04_false_airplane_35_n02690373_6195.png
subject-04,1,350,0.787319898605347,clock,clock,true,0350_fc_s04_true_clock_35_n02708093_3759.png
subject-04,1,351,0.723082065582275,boat,boat,true,0351_fc_s04_true_boat_35_n04612504_239.png
subject-04,1,352,0.943573951721191,bird,bird,false,0352_fc_s04_false_bird_35_n01818515_41063.png
subject-04,1,353,0.955699920654297,chair,chair,false,0353_fc_s04_false_chair_35_n04099969_2520.png
subject-04,1,354,1.32405090332031,boat,boat,false,0354_fc_s04_false_boat_35_n03662601_30256.png
subject-04,1,355,0.90662407875061,boat,clock,true,0355_fc_s04_true_clock_35_n04548280_10390.png
subject-04,1,356,0.852615833282471,chair,chair,true,0356_fc_s04_true_chair_35_n02791124_3220.png
subject-04,1,357,0.780256032943726,chair,chair,false,0357_fc_s04_false_chair_35_n02791124_6271.png
subject-04,1,358,0.784610033035278,bird,bird,true,0358_fc_s04_true_bird_35_n02027492_15258.png
subject-04,1,359,0.753127098083496,boat,boat,false,0359_fc_s04_false_boat_35_n02951358_1290.png
subject-04,1,360,0.789467811584473,truck,truck,false,0360_fc_s04_false_truck_35_n04467665_34070.png
subject-04,1,361,0.795664072036743,elephant,elephant,true,0361_fc_s04_true_elephant_35_n02504458_2739.png
subject-04,1,362,0.702049016952515,clock,clock,false,0362_fc_s04_false_clock_35_n03196217_8254.png
subject-04,1,363,1.10064506530762,bottle,bottle,true,0363_fc_s04_true_bottle_35_n04560804_1894.png
subject-04,1,364,0.745035886764526,clock,clock,true,0364_fc_s04_true_clock_35_n04548280_3610.png
subject-04,1,365,0.635601997375488,oven,oven,true,0365_fc_s04_true_oven_35_n04111531_11868.png
subject-04,1,366,0.64987587928772,oven,oven,true,0366_fc_s04_true_oven_35_n04111531_1004.png
subject-04,1,367,0.724246978759766,bear,bear,false,0367_fc_s04_false_bear_35_n02134084_8112.png
subject-04,1,368,0.600503921508789,cat,cat,false,0368_fc_s04_false_cat_35_n02123045_3593.png
subject-04,1,369,0.945069074630737,bird,elephant,false,0369_fc_s04_false_elephant_35_n02504013_1455.png
subject-04,1,370,0.735373973846436,bird,bird,true,0370_fc_s04_true_bird_35_n01530575_15690.png
subject-04,1,371,1.36390590667725,bottle,bottle,true,0371_fc_s04_true_bottle_35_n03937543_4296.png
subject-04,1,372,0.878469944000244,clock,clock,false,0372_fc_s04_false_clock_35_n03196217_6741.png
subject-04,1,373,0.760781049728394,truck,truck,false,0373_fc_s04_false_truck_35_n03796401_3495.png
subject-04,1,374,0.690793991088867,bottle,bottle,false,0374_fc_s04_false_bottle_35_n02823428_7788.png
subject-04,1,375,0.849184036254883,bear,bear,true,0375_fc_s04_true_bear_35_n02134418_6224.png
subject-04,1,376,0.701322793960571,airplane,airplane,false,0376_fc_s04_false_airplane_35_n02690373_2248.png
subject-04,1,377,0.892009019851685,truck,truck,false,0377_fc_s04_false_truck_35_n03796401_5142.png
subject-04,1,378,0.592024087905884,truck,truck,true,0378_fc_s04_true_truck_35_n03796401_6902.png
subject-04,1,379,0.712913990020752,bicycle,bicycle,false,0379_fc_s04_false_bicycle_35_n03792782_20190.png
subject-04,1,380,0.743215084075928,boat,boat,true,0380_fc_s04_true_boat_35_n04612504_19983.png
subject-04,1,381,0.92584490776062,bicycle,bicycle,true,0381_fc_s04_true_bicycle_35_n02835271_6167.png
subject-04,1,382,0.799937963485718,car,car,false,0382_fc_s04_false_car_35_n04285008_14653.png
subject-04,1,383,0.698477029800415,airplane,airplane,false,0383_fc_s04_false_airplane_35_n02690373_427.png
subject-04,1,384,0.67451000213623,car,car,false,0384_fc_s04_false_car_35_n02814533_90053.png
subject-04,1,385,1.08715200424194,oven,knife,true,0385_fc_s04_true_knife_35_n03041632_18859.png
subject-04,1,386,0.97783899307251,truck,truck,false,0386_fc_s04_false_truck_35_n03796401_10612.png
subject-04,1,387,0.5539231300354,car,car,true,0387_fc_s04_true_car_35_n04285008_11714.png
subject-04,1,388,0.706629037857056,oven,oven,false,0388_fc_s04_false_oven_35_n04111531_10313.png
subject-04,1,389,0.612590074539185,oven,oven,false,0389_fc_s04_false_oven_35_n04111531_13691.png
subject-04,1,390,0.763450145721436,bird,bird,true,0390_fc_s04_true_bird_35_n01532829_12674.png
subject-04,1,391,0.831459045410156,chair,chair,true,0391_fc_s04_true_chair_35_n04099969_195.png
subject-04,1,392,0.737814903259277,elephant,elephant,true,0392_fc_s04_true_elephant_35_n02504458_10332.png
subject-04,1,393,0.582363128662109,cat,cat,false,0393_fc_s04_false_cat_35_n02123045_874.png
subject-04,1,394,0.832864046096802,bottle,bottle,false,0394_fc_s04_false_bottle_35_n04557648_5941.png
subject-04,1,395,0.914936065673828,truck,truck,false,0395_fc_s04_false_truck_35_n03796401_11473.png
subject-04,1,396,1.15343499183655,knife,knife,false,0396_fc_s04_false_knife_35_n03041632_1006.png
subject-04,1,397,0.797331094741821,airplane,airplane,true,0397_fc_s04_true_airplane_35_n02690373_4310.png
subject-04,1,398,1.43986892700195,truck,clock,true,0398_fc_s04_true_clock_35_n03196217_8580.png
subject-04,1,399,0.861661911010742,cat,cat,true,0399_fc_s04_true_cat_35_n02125311_4032.png
subject-04,1,400,0.767766952514648,bottle,bottle,true,0400_fc_s04_true_bottle_35_n04560804_2426.png
subject-04,1,401,1.1263370513916,bottle,bottle,true,0401_fc_s04_true_bottle_35_n04557648_3673.png
subject-04,1,402,0.970789909362793,bird,bird,false,0402_fc_s04_false_bird_35_n01622779_3508.png
subject-04,1,403,0.638933897018433,clock,clock,false,0403_fc_s04_false_clock_35_n02708093_5480.png
subject-04,1,404,0.690810918807983,car,car,true,0404_fc_s04_true_car_35_n02814533_725.png
subject-04,1,405,0.749444007873535,oven,oven,false,0405_fc_s04_false_oven_35_n04111531_4918.png
subject-04,1,406,1.50017714500427,truck,clock,true,0406_fc_s04_true_clock_35_n03196217_5992.png
subject-04,1,407,0.770660161972046,cat,cat,true,0407_fc_s04_true_cat_35_n02123045_10953.png
subject-04,1,408,1.28786110877991,oven,chair,true,0408_fc_s04_true_chair_35_n03376595_2891.png
subject-04,1,409,NaN,na,bird,false,0409_fc_s04_false_bird_35_n01601694_5563.png
subject-04,1,410,0.92430305480957,keyboard,keyboard,false,0410_fc_s04_false_keyboard_35_n03085013_23144.png
subject-04,1,411,1.32815384864807,oven,chair,false,0411_fc_s04_false_chair_35_n03376595_6947.png
subject-04,1,412,0.751278877258301,cat,cat,true,0412_fc_s04_true_cat_35_n02123045_1462.png
subject-04,1,413,0.60381007194519,bottle,bottle,false,0413_fc_s04_false_bottle_35_n03983396_20.png
subject-04,1,414,1.0152599811554,boat,bicycle,false,0414_fc_s04_false_bicycle_35_n02835271_6222.png
subject-04,1,415,0.606178045272827,cat,cat,false,0415_fc_s04_false_cat_35_n02123159_1163.png
subject-04,1,416,NaN,na,elephant,true,0416_fc_s04_true_elephant_35_n02504013_6033.png
subject-04,1,417,1.07265901565552,bottle,bottle,false,0417_fc_s04_false_bottle_35_n02823428_12049.png
subject-04,1,418,0.647021055221558,airplane,airplane,true,0418_fc_s04_true_airplane_35_n02690373_8740.png
subject-04,1,419,1.1449248790741,cat,oven,false,0419_fc_s04_false_oven_35_n04111531_1778.png
subject-04,1,420,0.551156044006348,car,car,false,0420_fc_s04_false_car_35_n02814533_69279.png
subject-04,1,421,0.738933801651001,clock,clock,false,0421_fc_s04_false_clock_35_n03196217_43.png
subject-04,1,422,0.723302841186523,airplane,airplane,true,0422_fc_s04_true_airplane_35_n02690373_7192.png
subject-04,1,423,0.876375913619995,elephant,elephant,true,0423_fc_s04_true_elephant_35_n02504013_13384.png
subject-04,1,424,1.25653886795044,cat,cat,true,0424_fc_s04_true_cat_35_n02123159_3783.png
subject-04,1,425,0.894692897796631,bottle,clock,true,0425_fc_s04_true_clock_35_n04548280_2769.png
subject-04,1,426,0.731216192245483,boat,boat,false,0426_fc_s04_false_boat_35_n03344393_6753.png
subject-04,1,427,0.505834102630615,boat,boat,true,0427_fc_s04_true_boat_35_n04612504_11387.png
subject-04,1,428,0.620124101638794,bear,bear,false,0428_fc_s04_false_bear_35_n02132136_31710.png
subject-04,1,429,0.70271110534668,knife,knife,true,0429_fc_s04_true_knife_35_n03041632_30196.png
subject-04,1,430,1.32258200645447,knife,truck,true,0430_fc_s04_true_truck_35_n04467665_31621.png
subject-04,1,431,0.699076890945435,oven,oven,true,0431_fc_s04_true_oven_35_n04111531_4562.png
subject-04,1,432,0.581429004669189,clock,clock,false,0432_fc_s04_false_clock_35_n04548280_7944.png
subject-04,1,433,0.571552991867065,bicycle,bicycle,true,0433_fc_s04_true_bicycle_35_n03792782_1041.png
subject-04,1,434,0.615945100784302,keyboard,keyboard,true,0434_fc_s04_true_keyboard_35_n03085013_7477.png
subject-04,1,435,0.676272869110107,airplane,airplane,false,0435_fc_s04_false_airplane_35_n02690373_7002.png
subject-04,1,436,0.834646224975586,chair,chair,true,0436_fc_s04_true_chair_35_n04429376_15860.png
subject-04,1,437,0.718799829483032,boat,boat,false,0437_fc_s04_false_boat_35_n04273569_32553.png
subject-04,1,438,0.907753944396973,car,clock,false,0438_fc_s04_false_clock_35_n02708093_32.png
subject-04,1,439,0.905733823776245,oven,bottle,true,0439_fc_s04_true_bottle_35_n04560804_24458.png
subject-04,1,440,0.582134008407593,keyboard,keyboard,false,0440_fc_s04_false_keyboard_35_n03085013_6828.png
subject-04,1,441,0.510477066040039,cat,cat,false,0441_fc_s04_false_cat_35_n02123394_2010.png
subject-04,1,442,0.562647104263306,boat,boat,false,0442_fc_s04_false_boat_35_n03344393_907.png
subject-04,1,443,0.883007049560547,bird,bird,true,0443_fc_s04_true_bird_35_n02025239_14531.png
subject-04,1,444,0.914218902587891,oven,clock,true,0444_fc_s04_true_clock_35_n04548280_5405.png
subject-04,1,445,0.734099149703979,boat,boat,true,0445_fc_s04_true_boat_35_n03344393_4349.png
subject-04,1,446,0.740514039993286,bird,bird,true,0446_fc_s04_true_bird_35_n01622779_18429.png
subject-04,1,447,0.744913816452026,clock,clock,false,0447_fc_s04_false_clock_35_n04548280_3103.png
subject-04,1,448,0.651762962341309,bicycle,bicycle,false,0448_fc_s04_false_bicycle_35_n03792782_27435.png
subject-04,1,449,0.679809093475342,knife,knife,false,0449_fc_s04_false_knife_35_n03041632_20194.png
subject-04,1,450,0.702198028564453,truck,truck,true,0450_fc_s04_true_truck_35_n04467665_67115.png
subject-04,1,451,0.760660886764526,clock,clock,false,0451_fc_s04_false_clock_35_n02708093_3742.png
subject-04,1,452,0.643077850341797,chair,chair,true,0452_fc_s04_true_chair_35_n04099969_34580.png
subject-04,1,453,0.635524988174438,bear,bear,true,0453_fc_s04_true_bear_35_n02133161_11825.png
subject-04,1,454,0.617682933807373,bear,bear,true,0454_fc_s04_true_bear_35_n02132136_19696.png
subject-04,1,455,0.661957025527954,car,car,true,0455_fc_s04_true_car_35_n03100240_22617.png
subject-04,1,456,0.641597032546997,keyboard,keyboard,true,0456_fc_s04_true_keyboard_35_n03085013_23554.png
subject-04,1,457,1.50001001358032,bird,oven,true,0457_fc_s04_true_oven_35_n04111531_1439.png
subject-04,1,458,1.35979795455933,elephant,elephant,true,0458_fc_s04_true_elephant_35_n02504458_7708.png
subject-04,1,459,0.804134130477905,bicycle,bicycle,false,0459_fc_s04_false_bicycle_35_n02835271_31.png
subject-04,1,460,0.688673973083496,knife,knife,true,0460_fc_s04_true_knife_35_n03041632_39836.png
subject-04,1,461,0.741403818130493,car,car,true,0461_fc_s04_true_car_35_n03100240_7344.png
subject-04,1,462,0.769715785980225,cat,cat,true,0462_fc_s04_true_cat_35_n02123159_3776.png
subject-04,1,463,0.70576000213623,bear,bear,false,0463_fc_s04_false_bear_35_n02134418_1330.png
subject-04,1,464,0.872501134872437,bottle,bottle,false,0464_fc_s04_false_bottle_35_n04560804_1794.png
subject-04,1,465,0.68682599067688,cat,cat,false,0465_fc_s04_false_cat_35_n02125311_46527.png
subject-04,1,466,0.685120105743408,boat,boat,false,0466_fc_s04_false_boat_35_n04273569_8007.png
subject-04,1,467,0.607277154922485,bottle,bottle,true,0467_fc_s04_true_bottle_35_n04591713_2841.png
subject-04,1,468,0.605889081954956,oven,oven,true,0468_fc_s04_true_oven_35_n04111531_8793.png
subject-04,1,469,NaN,na,airplane,false,0469_fc_s04_false_airplane_35_n02690373_8524.png
subject-04,1,470,0.656964063644409,cat,cat,false,0470_fc_s04_false_cat_35_n02123597_1690.png
subject-04,1,471,0.676830053329468,knife,knife,true,0471_fc_s04_true_knife_35_n03041632_14883.png
subject-04,1,472,0.721086025238037,car,car,false,0472_fc_s04_false_car_35_n04285008_7924.png
subject-04,1,473,0.68756103515625,knife,knife,false,0473_fc_s04_false_knife_35_n03041632_12651.png
subject-04,1,474,1.45425701141357,bear,bear,false,0474_fc_s04_false_bear_35_n02133161_2304.png
subject-04,1,475,0.74677300453186,bottle,bottle,true,0475_fc_s04_true_bottle_35_n03983396_9775.png
subject-04,1,476,0.823279857635498,elephant,elephant,true,0476_fc_s04_true_elephant_35_n02504013_1436.png
subject-04,1,477,1.3169891834259,oven,chair,true,0477_fc_s04_true_chair_35_n02791124_12538.png
subject-04,1,478,1.20695281028748,truck,truck,true,0478_fc_s04_true_truck_35_n04467665_55408.png
subject-04,1,479,0.824009895324707,cat,cat,true,0479_fc_s04_true_cat_35_n02123597_8021.png
subject-04,1,480,1.05255889892578,bear,bear,false,0480_fc_s04_false_bear_35_n02134418_5231.png
subject-04,1,481,0.775626182556152,clock,clock,false,0481_fc_s04_false_clock_35_n03196217_2224.png
subject-04,1,482,1.01749300956726,dog,dog,true,0482_fc_s04_true_dog_35_n02097658_5273.png
subject-04,1,483,0.61559796333313,car,car,true,0483_fc_s04_true_car_35_n03100240_8683.png
subject-04,1,484,0.583884954452515,boat,boat,true,0484_fc_s04_true_boat_35_n03344393_3661.png
subject-04,1,485,0.636697053909302,airplane,airplane,false,0485_fc_s04_false_airplane_35_n02690373_1235.png
subject-04,1,486,0.532732009887695,bear,bear,true,0486_fc_s04_true_bear_35_n02133161_8471.png
subject-04,1,487,1.29917478561401,chair,chair,false,0487_fc_s04_false_chair_35_n02791124_5400.png
subject-04,1,488,0.683165073394775,keyboard,keyboard,false,0488_fc_s04_false_keyboard_35_n03085013_679.png
subject-04,1,489,0.611650943756104,truck,truck,false,0489_fc_s04_false_truck_35_n04467665_48875.png
subject-04,1,490,0.90211009979248,bird,bird,false,0490_fc_s04_false_bird_35_n01833805_2023.png
subject-04,1,491,0.684744119644165,car,car,true,0491_fc_s04_true_car_35_n02814533_38517.png
subject-04,1,492,NaN,na,chair,false,0492_fc_s04_false_chair_35_n02791124_6399.png
subject-04,1,493,0.673618078231812,knife,knife,false,0493_fc_s04_false_knife_35_n03041632_89912.png
subject-04,1,494,0.980001926422119,cat,bird,true,0494_fc_s04_true_bird_35_n02011460_21802.png
subject-04,1,495,0.54058313369751,bear,bear,false,0495_fc_s04_false_bear_35_n02133161_2189.png
subject-04,1,496,0.744680881500244,elephant,elephant,false,0496_fc_s04_false_elephant_35_n02504458_5872.png
subject-04,1,497,0.605529069900513,clock,clock,false,0497_fc_s04_false_clock_35_n04548280_2641.png
subject-04,1,498,0.773770093917847,truck,truck,false,0498_fc_s04_false_truck_35_n04467665_24996.png
subject-04,1,499,0.908437967300415,dog,dog,false,0499_fc_s04_false_dog_35_n02104365_1366.png
subject-04,1,500,0.760700941085815,knife,knife,true,0500_fc_s04_true_knife_35_n03041632_289.png
subject-04,1,501,0.843116998672485,elephant,elephant,false,0501_fc_s04_false_elephant_35_n02504013_10229.png
subject-04,1,502,0.865811109542847,bear,bottle,true,0502_fc_s04_true_bottle_35_n03937543_7191.png
subject-04,1,503,0.585880994796753,keyboard,keyboard,false,0503_fc_s04_false_keyboard_35_n03085013_22686.png
subject-04,1,504,0.622507095336914,airplane,airplane,false,0504_fc_s04_false_airplane_35_n02690373_13324.png
subject-04,1,505,1.25867080688477,chair,chair,false,0505_fc_s04_false_chair_35_n04429376_49520.png
subject-04,1,506,0.732845067977905,bicycle,bicycle,false,0506_fc_s04_false_bicycle_35_n02835271_4726.png
subject-04,1,507,0.56322717666626,cat,cat,true,0507_fc_s04_true_cat_35_n02123597_14191.png
subject-04,1,508,1.09168696403503,dog,dog,false,0508_fc_s04_false_dog_35_n02113624_1436.png
subject-04,1,509,1.01239490509033,clock,oven,false,0509_fc_s04_false_oven_35_n04111531_5792.png
subject-04,1,510,0.596462965011597,elephant,elephant,false,0510_fc_s04_false_elephant_35_n02504013_17337.png
subject-04,1,511,1.17905688285828,cat,cat,false,0511_fc_s04_false_cat_35_n02125311_1127.png
subject-04,1,512,0.631453037261963,chair,chair,true,0512_fc_s04_true_chair_35_n03376595_4084.png
subject-04,1,513,0.805322885513306,chair,chair,true,0513_fc_s04_true_chair_35_n04099969_50961.png
subject-04,1,514,0.758009910583496,chair,oven,false,0514_fc_s04_false_oven_35_n04111531_10216.png
subject-04,1,515,0.510648012161255,chair,chair,true,0515_fc_s04_true_chair_35_n04099969_5088.png
subject-04,1,516,0.656239032745361,bird,bird,true,0516_fc_s04_true_bird_35_n02028035_15091.png
subject-04,1,517,0.670587062835693,cat,cat,true,0517_fc_s04_true_cat_35_n02125311_29295.png
subject-04,1,518,1.02938103675842,keyboard,keyboard,false,0518_fc_s04_false_keyboard_35_n04505470_4473.png
subject-04,1,519,0.859899997711182,car,car,true,0519_fc_s04_true_car_35_n02814533_84791.png
subject-04,1,520,0.680155992507935,elephant,elephant,false,0520_fc_s04_false_elephant_35_n02504458_1929.png
subject-04,1,521,1.29255485534668,knife,knife,true,0521_fc_s04_true_knife_35_n03041632_33584.png
subject-04,1,522,0.615617990493774,boat,boat,false,0522_fc_s04_false_boat_35_n02951358_9414.png
subject-04,1,523,0.735882043838501,truck,truck,true,0523_fc_s04_true_truck_35_n04467665_59631.png
subject-04,1,524,0.672542095184326,boat,boat,true,0524_fc_s04_true_boat_35_n02951358_6147.png
subject-04,1,525,0.694839954376221,airplane,airplane,false,0525_fc_s04_false_airplane_35_n02690373_10397.png
subject-04,1,526,0.869454860687256,chair,chair,false,0526_fc_s04_false_chair_35_n03376595_9081.png
subject-04,1,527,0.635374069213867,airplane,airplane,true,0527_fc_s04_true_airplane_35_n02690373_10001.png
subject-04,1,528,0.608652114868164,bear,bear,false,0528_fc_s04_false_bear_35_n02134084_22881.png
subject-04,1,529,0.815065145492554,keyboard,keyboard,true,0529_fc_s04_true_keyboard_35_n03085013_20712.png
subject-04,1,530,0.659792900085449,boat,boat,true,0530_fc_s04_true_boat_35_n03662601_6241.png
subject-04,1,531,0.620098114013672,oven,knife,true,0531_fc_s04_true_knife_35_n03041632_8666.png
subject-04,1,532,0.6109299659729,bottle,bottle,false,0532_fc_s04_false_bottle_35_n04579145_406.png
subject-04,1,533,0.639052867889404,chair,knife,true,0533_fc_s04_true_knife_35_n03041632_14442.png
subject-04,1,534,0.743520021438599,bear,bear,true,0534_fc_s04_true_bear_35_n02133161_3887.png
subject-04,1,535,1.19289803504944,knife,knife,false,0535_fc_s04_false_knife_35_n03041632_1671.png
subject-04,1,536,1.12098789215088,knife,bottle,false,0536_fc_s04_false_bottle_35_n04579145_6285.png
subject-04,1,537,1.04344606399536,knife,bicycle,true,0537_fc_s04_true_bicycle_35_n03792782_6133.png
subject-04,1,538,0.612138032913208,chair,chair,false,0538_fc_s04_false_chair_35_n02791124_422.png
subject-04,1,539,0.78640604019165,dog,dog,true,0539_fc_s04_true_dog_35_n02088238_1163.png
subject-04,1,540,0.622998952865601,keyboard,keyboard,true,0540_fc_s04_true_keyboard_35_n03085013_5579.png
subject-04,1,541,0.81355881690979,cat,cat,true,0541_fc_s04_true_cat_35_n02123597_4976.png
subject-04,1,542,0.604000091552734,car,car,false,0542_fc_s04_false_car_35_n02814533_74605.png
subject-04,1,543,0.554065942764282,boat,boat,true,0543_fc_s04_true_boat_35_n04612504_40487.png
subject-04,1,544,0.914474010467529,bicycle,bicycle,false,0544_fc_s04_false_bicycle_35_n03792782_9205.png
subject-04,1,545,0.75081205368042,bear,bear,true,0545_fc_s04_true_bear_35_n02134084_2669.png
subject-04,1,546,0.625117063522339,boat,boat,false,0546_fc_s04_false_boat_35_n03662601_22413.png
subject-04,1,547,0.79180908203125,bottle,bottle,true,0547_fc_s04_true_bottle_35_n04591713_906.png
subject-04,1,548,0.690144062042236,keyboard,keyboard,false,0548_fc_s04_false_keyboard_35_n03085013_21620.png
subject-04,1,549,NaN,na,knife,false,0549_fc_s04_false_knife_35_n03041632_19098.png
subject-04,1,550,0.91728401184082,boat,boat,false,0550_fc_s04_false_boat_35_n02951358_4963.png
subject-04,1,551,0.761595010757446,bird,bird,false,0551_fc_s04_false_bird_35_n02025239_19663.png
subject-04,1,552,0.935926914215088,oven,knife,false,0552_fc_s04_false_knife_35_n03041632_2468.png
subject-04,1,553,0.750564098358154,bottle,bottle,true,0553_fc_s04_true_bottle_35_n04591713_2456.png
subject-04,1,554,0.625440120697021,car,car,true,0554_fc_s04_true_car_35_n03100240_8080.png
subject-04,1,555,0.900146007537842,knife,knife,true,0555_fc_s04_true_knife_35_n03041632_2153.png
subject-04,1,556,0.798248052597046,bear,bear,true,0556_fc_s04_true_bear_35_n02133161_748.png
subject-04,1,557,1.50014901161194,airplane,airplane,true,0557_fc_s04_true_airplane_35_n02690373_5773.png
subject-04,1,558,1.09326505661011,bird,bird,false,0558_fc_s04_false_bird_35_n01818515_13761.png
subject-04,1,559,0.753253936767578,dog,dog,false,0559_fc_s04_false_dog_35_n02097298_8790.png
subject-04,1,560,0.635249853134155,boat,boat,true,0560_fc_s04_true_boat_35_n03662601_22876.png
subject-04,1,561,0.433527946472168,boat,boat,true,0561_fc_s04_true_boat_35_n03662601_15223.png
subject-04,1,562,1.2300329208374,dog,dog,true,0562_fc_s04_true_dog_35_n02109525_1880.png
subject-04,1,563,0.844835996627808,chair,chair,true,0563_fc_s04_true_chair_35_n02791124_4026.png
subject-04,1,564,0.802146911621094,knife,knife,false,0564_fc_s04_false_knife_35_n03041632_10140.png
subject-04,1,565,0.624363899230957,car,car,false,0565_fc_s04_false_car_35_n03100240_21821.png
subject-04,1,566,1.05882596969604,knife,knife,false,0566_fc_s04_false_knife_35_n03041632_362.png
subject-04,1,567,0.765095949172974,knife,knife,false,0567_fc_s04_false_knife_35_n03041632_13478.png
subject-04,1,568,0.909685850143433,bird,bird,false,0568_fc_s04_false_bird_35_n01537544_9601.png
subject-04,1,569,0.915819883346558,airplane,airplane,true,0569_fc_s04_true_airplane_35_n02690373_13585.png
subject-04,1,570,0.782207012176514,bottle,bottle,true,0570_fc_s04_true_bottle_35_n02823428_4793.png
subject-04,1,571,0.756648063659668,bird,bird,true,0571_fc_s04_true_bird_35_n01531178_18545.png
subject-04,1,572,0.800843000411987,bear,bear,true,0572_fc_s04_true_bear_35_n02134084_702.png
subject-04,1,573,0.905152082443237,elephant,elephant,true,0573_fc_s04_true_elephant_35_n02504458_12449.png
subject-04,1,574,0.843749046325684,cat,cat,true,0574_fc_s04_true_cat_35_n02123597_10896.png
subject-04,1,575,0.885650873184204,bottle,bottle,true,0575_fc_s04_true_bottle_35_n04579145_4610.png
subject-04,1,576,0.713878154754639,airplane,airplane,true,0576_fc_s04_true_airplane_35_n02690373_2629.png
subject-04,1,577,0.75025200843811,truck,truck,true,0577_fc_s04_true_truck_35_n03417042_6298.png
subject-04,1,578,1.04073214530945,airplane,airplane,false,0578_fc_s04_false_airplane_35_n02690373_5197.png
subject-04,1,579,1.35311198234558,truck,truck,true,0579_fc_s04_true_truck_35_n03417042_9967.png
subject-04,1,580,0.813458919525146,bird,bird,true,0580_fc_s04_true_bird_35_n01514859_11769.png
subject-04,1,581,1.00422883033752,oven,oven,false,0581_fc_s04_false_oven_35_n04111531_12952.png
subject-04,1,582,0.854392051696777,boat,boat,true,0582_fc_s04_true_boat_35_n02951358_11707.png
subject-04,1,583,0.698815822601318,oven,oven,true,0583_fc_s04_true_oven_35_n04111531_2381.png
subject-04,1,584,0.667412042617798,car,car,false,0584_fc_s04_false_car_35_n04285008_392.png
subject-04,1,585,1.21773600578308,car,airplane,true,0585_fc_s04_true_airplane_35_n02690373_3588.png
subject-04,1,586,0.831460952758789,bicycle,bicycle,true,0586_fc_s04_true_bicycle_35_n03792782_10146.png
subject-04,1,587,0.768738031387329,bear,bear,true,0587_fc_s04_true_bear_35_n02132136_2692.png
subject-04,1,588,0.64264702796936,clock,clock,true,0588_fc_s04_true_clock_35_n02708093_8003.png
subject-04,1,589,0.687288045883179,bicycle,bicycle,false,0589_fc_s04_false_bicycle_35_n02835271_44710.png
subject-04,1,590,1.29197478294373,bird,bird,false,0590_fc_s04_false_bird_35_n01514859_4476.png
subject-04,1,591,NaN,na,car,true,0591_fc_s04_true_car_35_n02814533_95175.png
subject-04,1,592,1.03250098228455,elephant,elephant,true,0592_fc_s04_true_elephant_35_n02504458_563.png
subject-04,1,593,0.570886850357056,elephant,elephant,false,0593_fc_s04_false_elephant_35_n02504013_10621.png
subject-04,1,594,0.599161863327026,airplane,airplane,false,0594_fc_s04_false_airplane_35_n02690373_4471.png
subject-04,1,595,0.781715154647827,dog,dog,false,0595_fc_s04_false_dog_35_n02109047_26134.png
subject-04,1,596,0.718370199203491,oven,knife,true,0596_fc_s04_true_knife_35_n03041632_86338.png
subject-04,1,597,0.654829978942871,oven,oven,true,0597_fc_s04_true_oven_35_n04111531_8117.png
subject-04,1,598,1.05928206443787,bottle,bottle,true,0598_fc_s04_true_bottle_35_n04591713_5638.png
subject-04,1,599,0.882071018218994,clock,clock,false,0599_fc_s04_false_clock_35_n03196217_5347.png
subject-04,1,600,0.772774934768677,knife,knife,true,0600_fc_s04_true_knife_35_n03041632_55140.png
subject-04,1,601,1.03112506866455,clock,clock,true,0601_fc_s04_true_clock_35_n03196217_658.png
subject-04,1,602,1.03185486793518,bird,bird,false,0602_fc_s04_false_bird_35_n02018207_2812.png
subject-04,1,603,0.914121150970459,cat,cat,false,0603_fc_s04_false_cat_35_n02124075_15136.png
subject-04,1,604,0.812964916229248,bird,bird,true,0604_fc_s04_true_bird_35_n02018795_3359.png
subject-04,1,605,0.833146095275879,keyboard,keyboard,false,0605_fc_s04_false_keyboard_35_n04505470_6312.png
subject-04,1,606,0.647702932357788,oven,oven,true,0606_fc_s04_true_oven_35_n04111531_1211.png
subject-04,1,607,0.852227926254272,knife,knife,false,0607_fc_s04_false_knife_35_n03041632_56454.png
subject-04,1,608,0.696486949920654,car,car,true,0608_fc_s04_true_car_35_n04285008_5634.png
subject-04,1,609,1.20057606697083,bird,bird,true,0609_fc_s04_true_bird_35_n01860187_10562.png
subject-04,1,610,0.744846105575562,bear,bear,false,0610_fc_s04_false_bear_35_n02134418_3728.png
subject-04,1,611,0.681008100509644,cat,cat,true,0611_fc_s04_true_cat_35_n02123394_8524.png
subject-04,1,612,0.708920001983643,dog,dog,false,0612_fc_s04_false_dog_35_n02092339_7812.png
subject-04,1,613,1.02110695838928,truck,truck,true,0613_fc_s04_true_truck_35_n03417042_13651.png
subject-04,1,614,0.795709848403931,clock,clock,true,0614_fc_s04_true_clock_35_n03196217_484.png
subject-04,1,615,0.924059152603149,car,truck,false,0615_fc_s04_false_truck_35_n03417042_29419.png
subject-04,1,616,0.860582113265991,airplane,airplane,true,0616_fc_s04_true_airplane_35_n02690373_3698.png
subject-04,1,617,0.682973146438599,car,car,false,0617_fc_s04_false_car_35_n04285008_1725.png
subject-04,1,618,0.873405933380127,car,car,true,0618_fc_s04_true_car_35_n03100240_10215.png
subject-04,1,619,0.88670802116394,chair,chair,false,0619_fc_s04_false_chair_35_n02791124_4412.png
subject-04,1,620,0.769324064254761,car,car,false,0620_fc_s04_false_car_35_n02814533_4768.png
subject-04,1,621,0.873188972473145,bicycle,bicycle,false,0621_fc_s04_false_bicycle_35_n03792782_7634.png
subject-04,1,622,0.717967987060547,chair,chair,false,0622_fc_s04_false_chair_35_n02791124_2003.png
subject-04,1,623,1.50010895729065,elephant,elephant,true,0623_fc_s04_true_elephant_35_n02504013_5186.png
subject-04,1,624,1.16677713394165,cat,dog,true,0624_fc_s04_true_dog_35_n02104365_9105.png
subject-04,1,625,NaN,na,elephant,true,0625_fc_s04_true_elephant_35_n02504013_1099.png
subject-04,1,626,0.655519008636475,knife,knife,true,0626_fc_s04_true_knife_35_n03041632_26989.png
subject-04,1,627,0.759697914123535,bear,bear,true,0627_fc_s04_true_bear_35_n02134418_3291.png
subject-04,1,628,0.674340009689331,oven,oven,false,0628_fc_s04_false_oven_35_n04111531_23340.png
subject-04,1,629,0.710309982299805,airplane,airplane,false,0629_fc_s04_false_airplane_35_n02690373_4294.png
subject-04,1,630,1.14408016204834,bird,bird,true,0630_fc_s04_true_bird_35_n02007558_525.png
subject-04,1,631,0.888523101806641,elephant,elephant,false,0631_fc_s04_false_elephant_35_n02504013_7885.png
subject-04,1,632,0.833026170730591,keyboard,keyboard,true,0632_fc_s04_true_keyboard_35_n04505470_4625.png
subject-04,1,633,0.820472955703735,knife,knife,false,0633_fc_s04_false_knife_35_n03041632_51225.png
subject-04,1,634,0.990883111953735,bird,bird,true,0634_fc_s04_true_bird_35_n01582220_128.png
subject-04,1,635,0.773309946060181,cat,cat,true,0635_fc_s04_true_cat_35_n02123394_2219.png
subject-04,1,636,0.909878015518188,elephant,elephant,true,0636_fc_s04_true_elephant_35_n02504458_6861.png
subject-04,1,637,1.16819000244141,bird,bird,true,0637_fc_s04_true_bird_35_n01531178_9722.png
subject-04,1,638,0.866899967193604,dog,dog,false,0638_fc_s04_false_dog_35_n02104365_9047.png
subject-04,1,639,0.789150953292847,airplane,airplane,false,0639_fc_s04_false_airplane_35_n02690373_13609.png
subject-04,1,640,0.793680906295776,knife,knife,true,0640_fc_s04_true_knife_35_n03041632_29038.png
subject-04,1,641,0.8144211769104,truck,truck,true,0641_fc_s04_true_truck_35_n03796401_5963.png
subject-04,1,642,0.820763111114502,bicycle,bicycle,true,0642_fc_s04_true_bicycle_35_n03792782_16911.png
subject-04,1,643,0.708487033843994,bear,bear,false,0643_fc_s04_false_bear_35_n02133161_274.png
subject-04,1,644,0.635807991027832,clock,clock,false,0644_fc_s04_false_clock_35_n04548280_5224.png
subject-04,1,645,0.680516004562378,bottle,bottle,false,0645_fc_s04_false_bottle_35_n04591713_2805.png
subject-04,1,646,0.784816980361938,bird,bird,false,0646_fc_s04_false_bird_35_n01797886_13551.png
subject-04,1,647,0.937482833862305,bird,knife,false,0647_fc_s04_false_knife_35_n03041632_30248.png
subject-04,1,648,0.595802068710327,bicycle,bicycle,true,0648_fc_s04_true_bicycle_35_n02835271_650.png
subject-04,1,649,0.586019992828369,bird,bird,true,0649_fc_s04_true_bird_35_n01855032_2742.png
subject-04,1,650,0.914194107055664,bottle,bottle,false,0650_fc_s04_false_bottle_35_n04560804_9042.png
subject-04,1,651,0.634752988815308,chair,chair,true,0651_fc_s04_true_chair_35_n04099969_1755.png
subject-04,1,652,0.595082998275757,boat,boat,true,0652_fc_s04_true_boat_35_n03344393_6018.png
subject-04,1,653,0.607304811477661,keyboard,keyboard,false,0653_fc_s04_false_keyboard_35_n04505470_1335.png
subject-04,1,654,0.949562072753906,elephant,elephant,true,0654_fc_s04_true_elephant_35_n02504013_2980.png
subject-04,1,655,0.680701017379761,boat,boat,false,0655_fc_s04_false_boat_35_n02951358_12117.png
subject-04,1,656,0.906903028488159,bird,dog,false,0656_fc_s04_false_dog_35_n02093991_2860.png
subject-04,1,657,0.705340147018433,cat,cat,false,0657_fc_s04_false_cat_35_n02123394_2364.png
subject-04,1,658,0.687752962112427,oven,knife,true,0658_fc_s04_true_knife_35_n03041632_43506.png
subject-04,1,659,0.848180055618286,truck,truck,true,0659_fc_s04_true_truck_35_n04467665_45314.png
subject-04,1,660,1.32874608039856,bicycle,bicycle,true,0660_fc_s04_true_bicycle_35_n02835271_12006.png
subject-04,1,661,0.797019958496094,bottle,bottle,false,0661_fc_s04_false_bottle_35_n04557648_5523.png
subject-04,1,662,0.755488157272339,elephant,elephant,true,0662_fc_s04_true_elephant_35_n02504458_825.png
subject-04,1,663,0.95359992980957,bottle,bottle,false,0663_fc_s04_false_bottle_35_n04557648_23984.png
subject-04,1,664,0.628070116043091,keyboard,keyboard,true,0664_fc_s04_true_keyboard_35_n04505470_3947.png
subject-04,1,665,0.778274059295654,truck,truck,false,0665_fc_s04_false_truck_35_n03417042_10654.png
subject-04,1,666,1.04448795318604,dog,dog,true,0666_fc_s04_true_dog_35_n02106030_21639.png
subject-04,1,667,0.95909595489502,elephant,elephant,false,0667_fc_s04_false_elephant_35_n02504458_975.png
subject-04,1,668,0.792804002761841,bear,bear,false,0668_fc_s04_false_bear_35_n02133161_14945.png
subject-04,1,669,0.645380020141602,oven,oven,true,0669_fc_s04_true_oven_35_n04111531_10336.png
subject-04,1,670,1.5001368522644,knife,oven,false,0670_fc_s04_false_oven_35_n04111531_5246.png
subject-04,1,671,1.26151084899902,clock,clock,true,0671_fc_s04_true_clock_35_n04548280_5087.png
subject-04,1,672,1.14918303489685,elephant,elephant,false,0672_fc_s04_false_elephant_35_n02504458_5386.png
subject-04,1,673,0.688431978225708,cat,cat,true,0673_fc_s04_true_cat_35_n02123045_11244.png
subject-04,1,674,0.708415031433105,bicycle,bicycle,false,0674_fc_s04_false_bicycle_35_n03792782_5665.png
subject-04,1,675,0.582629919052124,knife,knife,false,0675_fc_s04_false_knife_35_n03041632_3247.png
subject-04,1,676,0.657186985015869,keyboard,keyboard,true,0676_fc_s04_true_keyboard_35_n03085013_25559.png
subject-04,1,677,0.5852210521698,oven,oven,true,0677_fc_s04_true_oven_35_n04111531_9263.png
subject-04,1,678,0.835225105285645,dog,dog,true,0678_fc_s04_true_dog_35_n02086079_13912.png
subject-04,1,679,0.642338991165161,dog,dog,false,0679_fc_s04_false_dog_35_n02093428_18335.png
subject-04,1,680,0.702244997024536,car,car,true,0680_fc_s04_true_car_35_n04285008_5410.png
subject-04,1,681,0.912537097930908,knife,knife,true,0681_fc_s04_true_knife_35_n03041632_101810.png
subject-04,1,682,0.675715208053589,keyboard,keyboard,false,0682_fc_s04_false_keyboard_35_n04505470_5275.png
subject-04,1,683,0.534380912780762,oven,oven,false,0683_fc_s04_false_oven_35_n04111531_3886.png
subject-04,1,684,0.640960931777954,bicycle,bicycle,true,0684_fc_s04_true_bicycle_35_n02835271_2987.png
subject-04,1,685,0.745687961578369,boat,boat,false,0685_fc_s04_false_boat_35_n04612504_1190.png
subject-04,1,686,0.573853969573975,chair,chair,false,0686_fc_s04_false_chair_35_n04099969_15848.png
subject-04,1,687,0.747946977615356,boat,boat,false,0687_fc_s04_false_boat_35_n03344393_2916.png
subject-04,1,688,0.806133985519409,bottle,bottle,true,0688_fc_s04_true_bottle_35_n03937543_723.png
subject-04,1,689,0.988404989242554,car,bicycle,false,0689_fc_s04_false_bicycle_35_n03792782_5629.png
subject-04,1,690,0.602757930755615,keyboard,keyboard,false,0690_fc_s04_false_keyboard_35_n03085013_20267.png
subject-04,1,691,0.790811061859131,bird,bird,false,0691_fc_s04_false_bird_35_n02028035_932.png
subject-04,1,692,0.681266069412231,dog,cat,true,0692_fc_s04_true_cat_35_n02125311_6517.png
subject-04,1,693,0.664160966873169,bicycle,bicycle,true,0693_fc_s04_true_bicycle_35_n03792782_14293.png
subject-04,1,694,0.638529062271118,oven,oven,false,0694_fc_s04_false_oven_35_n04111531_9962.png
subject-04,1,695,0.550763845443726,chair,chair,false,0695_fc_s04_false_chair_35_n02791124_3250.png
subject-04,1,696,0.590362787246704,keyboard,keyboard,true,0696_fc_s04_true_keyboard_35_n03085013_18796.png
subject-04,1,697,1.50000596046448,oven,oven,false,0697_fc_s04_false_oven_35_n04111531_6536.png
subject-04,1,698,0.852725028991699,bottle,bottle,false,0698_fc_s04_false_bottle_35_n02823428_5646.png
subject-04,1,699,0.619168996810913,bicycle,bicycle,true,0699_fc_s04_true_bicycle_35_n02835271_19213.png
subject-04,1,700,0.609377145767212,keyboard,keyboard,true,0700_fc_s04_true_keyboard_35_n03085013_22700.png
subject-04,1,701,0.58587384223938,car,car,false,0701_fc_s04_false_car_35_n03100240_9781.png
subject-04,1,702,0.590317964553833,airplane,airplane,true,0702_fc_s04_true_airplane_35_n02690373_7647.png
subject-04,1,703,0.926992177963257,dog,dog,true,0703_fc_s04_true_dog_35_n02102177_3603.png
subject-04,1,704,0.693463087081909,clock,clock,true,0704_fc_s04_true_clock_35_n03196217_3518.png
subject-04,1,705,0.729950904846191,bottle,bottle,false,0705_fc_s04_false_bottle_35_n03983396_1707.png
subject-04,1,706,0.674221992492676,bird,bird,false,0706_fc_s04_false_bird_35_n02051845_25263.png
subject-04,1,707,0.564807891845703,keyboard,keyboard,true,0707_fc_s04_true_keyboard_35_n03085013_15365.png
subject-04,1,708,0.853165149688721,boat,boat,false,0708_fc_s04_false_boat_35_n03662601_17273.png
subject-04,1,709,1.08917093276978,knife,knife,false,0709_fc_s04_false_knife_35_n03041632_18532.png
subject-04,1,710,0.542545795440674,keyboard,keyboard,true,0710_fc_s04_true_keyboard_35_n04505470_4974.png
subject-04,1,711,0.618963003158569,chair,chair,false,0711_fc_s04_false_chair_35_n02791124_1693.png
subject-04,1,712,0.692914962768555,bottle,bottle,false,0712_fc_s04_false_bottle_35_n03983396_5258.png
subject-04,1,713,1.08148097991943,airplane,airplane,false,0713_fc_s04_false_airplane_35_n02690373_4136.png
subject-04,1,714,0.596058130264282,chair,chair,false,0714_fc_s04_false_chair_35_n03376595_10579.png
subject-04,1,715,0.554321050643921,chair,chair,true,0715_fc_s04_true_chair_35_n04099969_8671.png
subject-04,1,716,1.08309888839722,bird,bird,false,0716_fc_s04_false_bird_35_n02051845_7548.png
subject-04,1,717,0.73561692237854,car,car,true,0717_fc_s04_true_car_35_n02814533_24392.png
subject-04,1,718,0.794424057006836,bear,bear,true,0718_fc_s04_true_bear_35_n02132136_6149.png
subject-04,1,719,0.655488967895508,bear,bear,false,0719_fc_s04_false_bear_35_n02134084_1019.png
subject-04,1,720,0.667999982833862,bottle,bottle,false,0720_fc_s04_false_bottle_35_n03983396_11976.png
subject-04,1,721,0.68238377571106,keyboard,keyboard,true,0721_fc_s04_true_keyboard_35_n04505470_1529.png
subject-04,1,722,0.731625080108643,bottle,bottle,false,0722_fc_s04_false_bottle_35_n04579145_2958.png
subject-04,1,723,1.25234794616699,cat,cat,false,0723_fc_s04_false_cat_35_n02125311_4683.png
subject-04,1,724,0.788724899291992,truck,truck,true,0724_fc_s04_true_truck_35_n04467665_31539.png
subject-04,1,725,0.594918012619019,bear,bear,true,0725_fc_s04_true_bear_35_n02134418_4559.png
subject-04,1,726,0.537294864654541,car,car,false,0726_fc_s04_false_car_35_n03100240_7300.png
subject-04,1,727,1.02774596214294,car,car,true,0727_fc_s04_true_car_35_n02814533_27263.png
subject-04,1,728,0.998329877853394,dog,dog,true,0728_fc_s04_true_dog_35_n02110063_1894.png
subject-04,1,729,0.682852983474731,dog,dog,true,0729_fc_s04_true_dog_35_n02089867_2479.png
subject-04,1,730,0.594743013381958,elephant,elephant,true,0730_fc_s04_true_elephant_35_n02504458_2086.png
subject-04,1,731,0.744997024536133,cat,cat,true,0731_fc_s04_true_cat_35_n02124075_4834.png
subject-04,1,732,0.71134090423584,elephant,elephant,true,0732_fc_s04_true_elephant_35_n02504458_1996.png
subject-04,1,733,0.747766017913818,airplane,airplane,false,0733_fc_s04_false_airplane_35_n02690373_3407.png
subject-04,1,734,0.714481115341187,elephant,elephant,false,0734_fc_s04_false_elephant_35_n02504458_5564.png
subject-04,1,735,0.604907989501953,bottle,bottle,true,0735_fc_s04_true_bottle_35_n03983396_2305.png
subject-04,1,736,0.703188896179199,bottle,bottle,false,0736_fc_s04_false_bottle_35_n03983396_2115.png
subject-04,1,737,0.593759059906006,oven,oven,true,0737_fc_s04_true_oven_35_n04111531_12053.png
subject-04,1,738,0.538284063339233,clock,clock,true,0738_fc_s04_true_clock_35_n04548280_14661.png
subject-04,1,739,0.655306100845337,bicycle,bicycle,false,0739_fc_s04_false_bicycle_35_n03792782_49889.png
subject-04,1,740,1.25168299674988,truck,truck,false,0740_fc_s04_false_truck_35_n03796401_1853.png
subject-04,1,741,0.811770915985107,elephant,elephant,true,0741_fc_s04_true_elephant_35_n02504013_10311.png
subject-04,1,742,0.648048877716064,bear,bear,false,0742_fc_s04_false_bear_35_n02133161_2612.png
subject-04,1,743,0.605453968048096,keyboard,keyboard,false,0743_fc_s04_false_keyboard_35_n03085013_20601.png
subject-04,1,744,0.749861001968384,bear,bear,false,0744_fc_s04_false_bear_35_n02134418_8775.png
subject-04,1,745,0.648721933364868,bird,bird,true,0745_fc_s04_true_bird_35_n02037110_5035.png
subject-04,1,746,0.639388084411621,bicycle,bicycle,true,0746_fc_s04_true_bicycle_35_n03792782_798.png
subject-04,1,747,0.62969183921814,bear,bear,false,0747_fc_s04_false_bear_35_n02133161_11329.png
subject-04,1,748,0.65035080909729,knife,knife,false,0748_fc_s04_false_knife_35_n03041632_99799.png
subject-04,1,749,0.670019865036011,clock,clock,true,0749_fc_s04_true_clock_35_n04548280_8646.png
subject-04,1,750,0.698231935501099,keyboard,keyboard,true,0750_fc_s04_true_keyboard_35_n04505470_4878.png
subject-04,1,751,NaN,na,knife,false,0751_fc_s04_false_knife_35_n03041632_29680.png
subject-04,1,752,0.539175987243652,bicycle,bicycle,true,0752_fc_s04_true_bicycle_35_n02835271_14879.png
subject-04,1,753,0.567552089691162,clock,clock,true,0753_fc_s04_true_clock_35_n03196217_4342.png
subject-04,1,754,0.574092149734497,keyboard,keyboard,false,0754_fc_s04_false_keyboard_35_n03085013_21641.png
subject-04,1,755,0.61076807975769,oven,oven,true,0755_fc_s04_true_oven_35_n04111531_1977.png
subject-04,1,756,0.563083171844482,bicycle,bicycle,false,0756_fc_s04_false_bicycle_35_n03792782_61058.png
subject-04,1,757,0.729753017425537,clock,clock,false,0757_fc_s04_false_clock_35_n02708093_7998.png
subject-04,1,758,0.750397920608521,bear,bear,true,0758_fc_s04_true_bear_35_n02134084_324.png
subject-04,1,759,0.8004310131073,car,car,false,0759_fc_s04_false_car_35_n03100240_16525.png
subject-04,1,760,0.81499195098877,truck,truck,true,0760_fc_s04_true_truck_35_n03417042_19476.png
subject-04,1,761,0.789444923400879,boat,boat,true,0761_fc_s04_true_boat_35_n04273569_1833.png
subject-04,1,762,0.963909864425659,keyboard,chair,false,0762_fc_s04_false_chair_35_n04429376_49511.png
subject-04,1,763,0.570098876953125,car,car,true,0763_fc_s04_true_car_35_n04285008_8641.png
subject-04,1,764,0.636619091033936,bird,bird,false,0764_fc_s04_false_bird_35_n01560419_2329.png
subject-04,1,765,0.688924074172974,elephant,elephant,false,0765_fc_s04_false_elephant_35_n02504013_7771.png
subject-04,1,766,0.614484071731567,airplane,airplane,true,0766_fc_s04_true_airplane_35_n02690373_19916.png
subject-04,1,767,0.636727809906006,truck,truck,true,0767_fc_s04_true_truck_35_n03417042_24020.png
subject-04,1,768,0.679358959197998,boat,boat,false,0768_fc_s04_false_boat_35_n04273569_1551.png
subject-04,1,769,0.627508163452148,truck,truck,false,0769_fc_s04_false_truck_35_n03796401_867.png
subject-04,1,770,0.777688026428223,elephant,elephant,true,0770_fc_s04_true_elephant_35_n02504458_1092.png
subject-04,1,771,0.768159866333008,car,car,false,0771_fc_s04_false_car_35_n03100240_19550.png
subject-04,1,772,0.726744890213013,truck,truck,false,0772_fc_s04_false_truck_35_n04467665_37935.png
subject-04,1,773,0.970691204071045,airplane,airplane,true,0773_fc_s04_true_airplane_35_n02690373_4608.png
subject-04,1,774,0.723238945007324,knife,knife,false,0774_fc_s04_false_knife_35_n03041632_42472.png
subject-04,1,775,1.08177709579468,clock,clock,false,0775_fc_s04_false_clock_35_n04548280_5076.png
subject-04,1,776,1.03214597702026,truck,truck,true,0776_fc_s04_true_truck_35_n04467665_75921.png
subject-04,1,777,0.801325082778931,car,car,false,0777_fc_s04_false_car_35_n03100240_8862.png
subject-04,1,778,0.629256010055542,airplane,airplane,false,0778_fc_s04_false_airplane_35_n02690373_5254.png
subject-04,1,779,0.695586919784546,bottle,bottle,true,0779_fc_s04_true_bottle_35_n04557648_4241.png
subject-04,1,780,0.664211988449097,bear,bear,true,0780_fc_s04_true_bear_35_n02134084_2516.png
subject-04,1,781,0.646154880523682,bicycle,bicycle,false,0781_fc_s04_false_bicycle_35_n02835271_20637.png
subject-04,1,782,0.658885955810547,bicycle,bicycle,false,0782_fc_s04_false_bicycle_35_n03792782_10490.png
subject-04,1,783,0.742031097412109,boat,boat,false,0783_fc_s04_false_boat_35_n02951358_14730.png
subject-04,1,784,0.786503076553345,car,car,true,0784_fc_s04_true_car_35_n02814533_4244.png
subject-04,1,785,0.706603050231934,bird,bird,false,0785_fc_s04_false_bird_35_n01828970_4879.png
subject-04,1,786,0.894948959350586,bird,bird,false,0786_fc_s04_false_bird_35_n02017213_6166.png
subject-04,1,787,0.593228101730347,bear,bear,false,0787_fc_s04_false_bear_35_n02132136_7478.png
subject-04,1,788,0.875696897506714,elephant,elephant,false,0788_fc_s04_false_elephant_35_n02504013_4062.png
subject-04,1,789,1.09569597244263,elephant,elephant,false,0789_fc_s04_false_elephant_35_n02504013_6181.png
subject-04,1,790,0.970126152038574,cat,cat,true,0790_fc_s04_true_cat_35_n02123045_6320.png
subject-04,1,791,0.890959024429321,chair,chair,true,0791_fc_s04_true_chair_35_n04099969_3623.png
subject-04,1,792,0.634647846221924,keyboard,keyboard,true,0792_fc_s04_true_keyboard_35_n03085013_24161.png
subject-04,1,793,0.722172975540161,knife,knife,true,0793_fc_s04_true_knife_35_n03041632_56172.png
subject-04,1,794,0.904403924942017,bird,bird,true,0794_fc_s04_true_bird_35_n02028035_1816.png
subject-04,1,795,1.50016307830811,dog,dog,true,0795_fc_s04_true_dog_35_n02106382_5753.png
subject-04,1,796,1.02073097229004,chair,chair,false,0796_fc_s04_false_chair_35_n03376595_8137.png
subject-04,1,797,0.727412223815918,keyboard,keyboard,true,0797_fc_s04_true_keyboard_35_n03085013_23571.png
subject-04,1,798,0.607181787490845,bicycle,bicycle,false,0798_fc_s04_false_bicycle_35_n03792782_7143.png
subject-04,1,799,0.88059401512146,elephant,elephant,false,0799_fc_s04_false_elephant_35_n02504458_10878.png
subject-04,1,800,0.601041793823242,chair,chair,true,0800_fc_s04_true_chair_35_n02791124_525.png
subject-04,1,801,0.660145044326782,bottle,bottle,false,0801_fc_s04_false_bottle_35_n04560804_432.png
subject-04,1,802,0.540822982788086,keyboard,keyboard,false,0802_fc_s04_false_keyboard_35_n03085013_23369.png
subject-04,1,803,0.592207908630371,bicycle,bicycle,false,0803_fc_s04_false_bicycle_35_n02835271_6742.png
subject-04,1,804,0.504684925079346,boat,boat,true,0804_fc_s04_true_boat_35_n02951358_14069.png
subject-04,1,805,0.863210916519165,airplane,airplane,false,0805_fc_s04_false_airplane_35_n02690373_7698.png
subject-04,1,806,0.590517997741699,keyboard,keyboard,true,0806_fc_s04_true_keyboard_35_n04505470_10722.png
subject-04,1,807,0.749134063720703,oven,bottle,false,0807_fc_s04_false_bottle_35_n04560804_376.png
subject-04,1,808,0.531687021255493,boat,boat,true,0808_fc_s04_true_boat_35_n03662601_13184.png
subject-04,1,809,0.814121007919312,car,car,false,0809_fc_s04_false_car_35_n02814533_9297.png
subject-04,1,810,1.1048629283905,bicycle,bicycle,true,0810_fc_s04_true_bicycle_35_n02835271_19177.png
subject-04,1,811,0.649189949035645,chair,chair,true,0811_fc_s04_true_chair_35_n03376595_3449.png
subject-04,1,812,0.639974117279053,chair,chair,false,0812_fc_s04_false_chair_35_n04099969_5453.png
subject-04,1,813,0.682075977325439,boat,boat,false,0813_fc_s04_false_boat_35_n03344393_3174.png
subject-04,1,814,0.794232845306396,bottle,bottle,true,0814_fc_s04_true_bottle_35_n03937543_2713.png
subject-04,1,815,0.638876914978027,oven,dog,false,0815_fc_s04_false_dog_35_n02094114_4290.png
subject-04,1,816,0.821633100509644,bottle,bottle,false,0816_fc_s04_false_bottle_35_n03937543_42.png
subject-04,1,817,1.00386691093445,elephant,elephant,true,0817_fc_s04_true_elephant_35_n02504458_11596.png
subject-04,1,818,0.810522079467773,bottle,bottle,false,0818_fc_s04_false_bottle_35_n04560804_12978.png
subject-04,1,819,0.584882974624634,bottle,bottle,false,0819_fc_s04_false_bottle_35_n02823428_2041.png
subject-04,1,820,0.943313837051392,clock,clock,false,0820_fc_s04_false_clock_35_n04548280_4670.png
subject-04,1,821,0.641973972320557,boat,boat,false,0821_fc_s04_false_boat_35_n04612504_10936.png
subject-04,1,822,0.648512125015259,oven,knife,true,0822_fc_s04_true_knife_35_n03041632_24384.png
subject-04,1,823,0.659927129745483,truck,truck,true,0823_fc_s04_true_truck_35_n04467665_2199.png
subject-04,1,824,0.572490930557251,bicycle,bicycle,true,0824_fc_s04_true_bicycle_35_n03792782_774.png
subject-04,1,825,0.984893083572388,bear,cat,true,0825_fc_s04_true_cat_35_n02125311_33516.png
subject-04,1,826,1.05881810188293,dog,dog,false,0826_fc_s04_false_dog_35_n02110806_5932.png
subject-04,1,827,0.56505823135376,cat,cat,true,0827_fc_s04_true_cat_35_n02123159_5705.png
subject-04,1,828,0.801528930664062,bicycle,bicycle,false,0828_fc_s04_false_bicycle_35_n03792782_26044.png
subject-04,1,829,0.638336181640625,cat,cat,true,0829_fc_s04_true_cat_35_n02125311_24985.png
subject-04,1,830,0.720643043518066,clock,clock,false,0830_fc_s04_false_clock_35_n03196217_109.png
subject-04,1,831,0.511388063430786,clock,cat,false,0831_fc_s04_false_cat_35_n02123045_8648.png
subject-04,1,832,0.76149582862854,keyboard,keyboard,false,0832_fc_s04_false_keyboard_35_n04505470_5098.png
subject-04,1,833,0.974497079849243,elephant,elephant,true,0833_fc_s04_true_elephant_35_n02504458_4320.png
subject-04,1,834,0.726862907409668,bicycle,bicycle,true,0834_fc_s04_true_bicycle_35_n02835271_10947.png
subject-04,1,835,0.73918080329895,cat,cat,true,0835_fc_s04_true_cat_35_n02123597_7242.png
subject-04,1,836,1.50000882148743,knife,knife,true,0836_fc_s04_true_knife_35_n03041632_6446.png
subject-04,1,837,0.774253845214844,boat,boat,true,0837_fc_s04_true_boat_35_n04612504_8534.png
subject-04,1,838,0.757047891616821,dog,dog,false,0838_fc_s04_false_dog_35_n02109525_13780.png
subject-04,1,839,0.793791055679321,bird,bird,false,0839_fc_s04_false_bird_35_n01817953_737.png
subject-04,1,840,0.767657995223999,boat,boat,false,0840_fc_s04_false_boat_35_n03662601_6837.png
subject-04,1,841,0.750300884246826,boat,boat,true,0841_fc_s04_true_boat_35_n04273569_12214.png
subject-04,1,842,0.946561098098755,bear,bear,true,0842_fc_s04_true_bear_35_n02134418_1459.png
subject-04,1,843,0.622908115386963,bicycle,bicycle,true,0843_fc_s04_true_bicycle_35_n03792782_25191.png
subject-04,1,844,0.705579996109009,bird,bird,false,0844_fc_s04_false_bird_35_n01582220_1999.png
subject-04,1,845,0.8178391456604,bird,bird,false,0845_fc_s04_false_bird_35_n02051845_12973.png
subject-04,1,846,0.775372982025146,knife,knife,true,0846_fc_s04_true_knife_35_n03041632_33268.png
subject-04,1,847,0.874428033828735,chair,chair,false,0847_fc_s04_false_chair_35_n04099969_142.png
subject-04,1,848,0.691277980804443,bird,bird,true,0848_fc_s04_true_bird_35_n01855672_18689.png
subject-04,1,849,0.695547103881836,car,car,false,0849_fc_s04_false_car_35_n04285008_11658.png
subject-04,1,850,0.694226980209351,chair,chair,false,0850_fc_s04_false_chair_35_n02791124_7250.png
subject-04,1,851,1.08189797401428,car,chair,false,0851_fc_s04_false_chair_35_n03376595_3566.png
subject-04,1,852,0.696495056152344,clock,clock,false,0852_fc_s04_false_clock_35_n04548280_4069.png
subject-04,1,853,0.657755136489868,boat,boat,true,0853_fc_s04_true_boat_35_n04273569_16472.png
subject-04,1,854,1.04618811607361,cat,dog,false,0854_fc_s04_false_dog_35_n02112706_3882.png
subject-04,1,855,NaN,na,bicycle,false,0855_fc_s04_false_bicycle_35_n03792782_7139.png
subject-04,1,856,0.750623941421509,truck,truck,false,0856_fc_s04_false_truck_35_n04467665_12557.png
subject-04,1,857,0.671120882034302,keyboard,keyboard,true,0857_fc_s04_true_keyboard_35_n03085013_19497.png
subject-04,1,858,0.737550973892212,bear,bear,false,0858_fc_s04_false_bear_35_n02133161_4903.png
subject-04,1,859,0.812208890914917,clock,clock,false,0859_fc_s04_false_clock_35_n04548280_4118.png
subject-04,1,860,1.34662294387817,boat,boat,false,0860_fc_s04_false_boat_35_n04612504_626.png
subject-04,1,861,0.815244913101196,chair,chair,false,0861_fc_s04_false_chair_35_n04429376_7570.png
subject-04,1,862,0.66759204864502,bicycle,bicycle,true,0862_fc_s04_true_bicycle_35_n03792782_1155.png
subject-04,1,863,0.672337055206299,bottle,bottle,false,0863_fc_s04_false_bottle_35_n03937543_3108.png
subject-04,1,864,0.762785911560059,boat,boat,true,0864_fc_s04_true_boat_35_n04273569_5129.png
subject-04,1,865,0.875599145889282,bird,bird,true,0865_fc_s04_true_bird_35_n01582220_6876.png
subject-04,1,866,1.09020900726318,dog,dog,true,0866_fc_s04_true_dog_35_n02092339_6582.png
subject-04,1,867,0.664924144744873,bottle,bottle,false,0867_fc_s04_false_bottle_35_n04560804_5192.png
subject-04,1,868,0.569602966308594,dog,dog,true,0868_fc_s04_true_dog_35_n02104029_3240.png
subject-04,1,869,0.737732887268066,bottle,chair,false,0869_fc_s04_false_chair_35_n04429376_2349.png
subject-04,1,870,0.588253974914551,clock,clock,false,0870_fc_s04_false_clock_35_n03196217_1211.png
subject-04,1,871,0.746140003204346,bear,bear,true,0871_fc_s04_true_bear_35_n02134418_13805.png
subject-04,1,872,0.682661056518555,airplane,airplane,true,0872_fc_s04_true_airplane_35_n02690373_866.png
subject-04,1,873,0.618526220321655,airplane,airplane,true,0873_fc_s04_true_airplane_35_n02690373_1351.png
subject-04,1,874,0.646488904953003,boat,boat,false,0874_fc_s04_false_boat_35_n04273569_12178.png
subject-04,1,875,0.864989995956421,oven,cat,false,0875_fc_s04_false_cat_35_n02123597_288.png
subject-04,1,876,0.587635040283203,truck,truck,true,0876_fc_s04_true_truck_35_n04467665_26262.png
subject-04,1,877,0.713119029998779,boat,boat,false,0877_fc_s04_false_boat_35_n02951358_4551.png
subject-04,1,878,0.549615859985352,bird,bird,true,0878_fc_s04_true_bird_35_n01798484_1706.png
subject-04,1,879,0.623842000961304,bicycle,bicycle,false,0879_fc_s04_false_bicycle_35_n03792782_51169.png
subject-04,1,880,0.705919981002808,elephant,elephant,false,0880_fc_s04_false_elephant_35_n02504013_7351.png
subject-04,1,881,0.596693992614746,oven,oven,false,0881_fc_s04_false_oven_35_n04111531_20369.png
subject-04,1,882,0.808495998382568,airplane,airplane,false,0882_fc_s04_false_airplane_35_n02690373_8650.png
subject-04,1,883,0.767258882522583,airplane,airplane,false,0883_fc_s04_false_airplane_35_n02690373_5624.png
subject-04,1,884,0.833750009536743,truck,truck,false,0884_fc_s04_false_truck_35_n03417042_1578.png
subject-04,1,885,1.30760598182678,knife,knife,true,0885_fc_s04_true_knife_35_n03041632_6557.png
subject-04,1,886,0.773977994918823,keyboard,keyboard,true,0886_fc_s04_true_keyboard_35_n03085013_20180.png
subject-04,1,887,0.58037805557251,oven,oven,true,0887_fc_s04_true_oven_35_n04111531_21822.png
subject-04,1,888,0.716850996017456,clock,clock,true,0888_fc_s04_true_clock_35_n04548280_5431.png
subject-04,1,889,0.745476961135864,elephant,elephant,true,0889_fc_s04_true_elephant_35_n02504458_4849.png
subject-04,1,890,0.925760984420776,cat,cat,false,0890_fc_s04_false_cat_35_n02123045_6080.png
subject-04,1,891,1.0242600440979,bird,bird,true,0891_fc_s04_true_bird_35_n02011460_2689.png
subject-04,1,892,0.83673095703125,oven,oven,true,0892_fc_s04_true_oven_35_n04111531_12702.png
subject-04,1,893,0.619144201278687,oven,oven,true,0893_fc_s04_true_oven_35_n04111531_17006.png
subject-04,1,894,0.831793069839478,clock,clock,false,0894_fc_s04_false_clock_35_n02708093_7967.png
subject-04,1,895,0.845947980880737,bottle,bottle,true,0895_fc_s04_true_bottle_35_n04557648_10275.png
subject-04,1,896,1.2023389339447,car,car,true,0896_fc_s04_true_car_35_n02814533_8055.png
subject-04,1,897,1.28493595123291,bicycle,bicycle,true,0897_fc_s04_true_bicycle_35_n02835271_5373.png
subject-04,1,898,1.4431779384613,oven,truck,false,0898_fc_s04_false_truck_35_n03417042_1330.png
subject-04,1,899,1.13285398483276,dog,dog,true,0899_fc_s04_true_dog_35_n02106030_5773.png
subject-04,1,900,0.831808090209961,boat,boat,true,0900_fc_s04_true_boat_35_n04612504_12268.png
subject-04,1,901,0.844379901885986,dog,dog,false,0901_fc_s04_false_dog_35_n02107574_1153.png
subject-04,1,902,0.835286140441895,dog,dog,true,0902_fc_s04_true_dog_35_n02086910_10547.png
subject-04,1,903,0.758814096450806,cat,keyboard,true,0903_fc_s04_true_keyboard_35_n03085013_24316.png
subject-04,1,904,0.887516021728516,dog,dog,false,0904_fc_s04_false_dog_35_n02113023_6390.png
subject-04,1,905,0.753713130950928,bottle,bottle,true,0905_fc_s04_true_bottle_35_n02823428_9898.png
subject-04,1,906,0.782467126846313,airplane,airplane,true,0906_fc_s04_true_airplane_35_n02690373_3059.png
subject-04,1,907,0.61909008026123,bottle,bottle,true,0907_fc_s04_true_bottle_35_n03983396_12307.png
subject-04,1,908,0.882283926010132,airplane,airplane,false,0908_fc_s04_false_airplane_35_n02690373_4217.png
subject-04,1,909,0.759011030197144,keyboard,keyboard,false,0909_fc_s04_false_keyboard_35_n03085013_1704.png
subject-04,1,910,1.20958590507507,airplane,airplane,false,0910_fc_s04_false_airplane_35_n02690373_4552.png
subject-04,1,911,0.721873998641968,knife,knife,false,0911_fc_s04_false_knife_35_n03041632_35116.png
subject-04,1,912,0.858346939086914,dog,dog,false,0912_fc_s04_false_dog_35_n02107908_11186.png
subject-04,1,913,0.870241165161133,boat,boat,true,0913_fc_s04_true_boat_35_n03344393_9565.png
subject-04,1,914,0.646919012069702,bear,bear,true,0914_fc_s04_true_bear_35_n02134084_4992.png
subject-04,1,915,0.667232990264893,car,car,true,0915_fc_s04_true_car_35_n03100240_7213.png
subject-04,1,916,0.82542896270752,elephant,elephant,false,0916_fc_s04_false_elephant_35_n02504013_1064.png
subject-04,1,917,0.900186061859131,cat,keyboard,false,0917_fc_s04_false_keyboard_35_n03085013_22187.png
subject-04,1,918,0.898826122283936,oven,oven,false,0918_fc_s04_false_oven_35_n04111531_3717.png
subject-04,1,919,0.81116509437561,chair,chair,true,0919_fc_s04_true_chair_35_n04429376_2208.png
subject-04,1,920,0.685471057891846,bottle,bottle,false,0920_fc_s04_false_bottle_35_n02823428_11637.png
subject-04,1,921,1.03019404411316,clock,bear,false,0921_fc_s04_false_bear_35_n02134084_14775.png
subject-04,1,922,0.718456983566284,cat,cat,false,0922_fc_s04_false_cat_35_n02123394_2777.png
subject-04,1,923,0.786674976348877,oven,oven,true,0923_fc_s04_true_oven_35_n04111531_15582.png
subject-04,1,924,0.850712060928345,bear,bear,true,0924_fc_s04_true_bear_35_n02133161_13184.png
subject-04,1,925,1.2010509967804,bottle,knife,true,0925_fc_s04_true_knife_35_n03041632_19275.png
subject-04,1,926,0.823035955429077,oven,bird,true,0926_fc_s04_true_bird_35_n02007558_13247.png
subject-04,1,927,0.965513944625854,dog,dog,false,0927_fc_s04_false_dog_35_n02095889_2769.png
subject-04,1,928,0.726016998291016,chair,chair,false,0928_fc_s04_false_chair_35_n03376595_3931.png
subject-04,1,929,0.615978956222534,airplane,airplane,false,0929_fc_s04_false_airplane_35_n02690373_19673.png
subject-04,1,930,0.69650411605835,car,car,true,0930_fc_s04_true_car_35_n04285008_13138.png
subject-04,1,931,1.31714606285095,elephant,elephant,true,0931_fc_s04_true_elephant_35_n02504013_14918.png
subject-04,1,932,0.953235864639282,oven,knife,false,0932_fc_s04_false_knife_35_n03041632_14293.png
subject-04,1,933,0.740780115127563,oven,knife,true,0933_fc_s04_true_knife_35_n03041632_3781.png
subject-04,1,934,0.955418825149536,dog,dog,true,0934_fc_s04_true_dog_35_n02109525_1100.png
subject-04,1,935,0.683822870254517,bottle,bottle,true,0935_fc_s04_true_bottle_35_n03983396_2579.png
subject-04,1,936,1.17199301719666,cat,boat,false,0936_fc_s04_false_boat_35_n02951358_12968.png
subject-04,1,937,0.916286945343018,elephant,elephant,true,0937_fc_s04_true_elephant_35_n02504013_104.png
subject-04,1,938,0.744281053543091,bear,bear,true,0938_fc_s04_true_bear_35_n02133161_2192.png
subject-04,1,939,0.578832864761353,car,car,true,0939_fc_s04_true_car_35_n02814533_27983.png
subject-04,1,940,NaN,na,dog,true,0940_fc_s04_true_dog_35_n02111277_46208.png
subject-04,1,941,0.757028818130493,boat,boat,true,0941_fc_s04_true_boat_35_n03662601_27330.png
subject-04,1,942,0.823199033737183,oven,oven,true,0942_fc_s04_true_oven_35_n04111531_6445.png
subject-04,1,943,0.659716844558716,truck,truck,true,0943_fc_s04_true_truck_35_n03796401_23711.png
subject-04,1,944,0.817648887634277,boat,boat,true,0944_fc_s04_true_boat_35_n02951358_6599.png
subject-04,1,945,0.845927000045776,oven,oven,true,0945_fc_s04_true_oven_35_n04111531_4879.png
subject-04,1,946,0.990206003189087,car,oven,false,0946_fc_s04_false_oven_35_n04111531_2371.png
subject-04,1,947,0.672731876373291,truck,truck,false,0947_fc_s04_false_truck_35_n03796401_5338.png
subject-04,1,948,0.761125087738037,clock,clock,true,0948_fc_s04_true_clock_35_n04548280_3352.png
subject-04,1,949,0.767895936965942,bear,bear,true,0949_fc_s04_true_bear_35_n02133161_4419.png
subject-04,1,950,0.81843090057373,dog,dog,false,0950_fc_s04_false_dog_35_n02091244_12665.png
subject-04,1,951,1.10078001022339,clock,clock,false,0951_fc_s04_false_clock_35_n02708093_675.png
subject-04,1,952,1.05924606323242,truck,truck,true,0952_fc_s04_true_truck_35_n03417042_7013.png
subject-04,1,953,0.741436004638672,bicycle,bicycle,false,0953_fc_s04_false_bicycle_35_n02835271_2714.png
subject-04,1,954,0.685734033584595,keyboard,keyboard,false,0954_fc_s04_false_keyboard_35_n03085013_28584.png
subject-04,1,955,1.32616496086121,car,car,false,0955_fc_s04_false_car_35_n02814533_45210.png
subject-04,1,956,0.973080158233643,dog,dog,false,0956_fc_s04_false_dog_35_n02107142_40494.png
subject-04,1,957,0.747265100479126,clock,clock,true,0957_fc_s04_true_clock_35_n04548280_1112.png
subject-04,1,958,0.583534955978394,truck,truck,true,0958_fc_s04_true_truck_35_n03796401_23811.png
subject-04,1,959,0.641845941543579,bicycle,bicycle,false,0959_fc_s04_false_bicycle_35_n03792782_49209.png
subject-04,1,960,0.816082000732422,bicycle,bicycle,false,0960_fc_s04_false_bicycle_35_n02835271_1076.png
subject-04,1,961,1.32159304618835,cat,cat,false,0961_fc_s04_false_cat_35_n02123159_9693.png
subject-04,1,962,0.681941986083984,truck,truck,false,0962_fc_s04_false_truck_35_n04467665_3211.png
subject-04,1,963,0.581056833267212,car,car,false,0963_fc_s04_false_car_35_n02814533_211.png
subject-04,1,964,0.722548007965088,elephant,elephant,false,0964_fc_s04_false_elephant_35_n02504013_4892.png
subject-04,1,965,0.645286083221436,keyboard,keyboard,false,0965_fc_s04_false_keyboard_35_n03085013_23562.png
subject-04,1,966,0.796003103256226,chair,chair,false,0966_fc_s04_false_chair_35_n04099969_9091.png
subject-04,1,967,0.608007907867432,clock,clock,false,0967_fc_s04_false_clock_35_n04548280_23523.png
subject-04,1,968,0.668607950210571,elephant,elephant,true,0968_fc_s04_true_elephant_35_n02504458_2719.png
subject-04,1,969,0.573207139968872,truck,truck,false,0969_fc_s04_false_truck_35_n03796401_4211.png
subject-04,1,970,0.57141900062561,boat,boat,false,0970_fc_s04_false_boat_35_n04612504_12657.png
subject-04,1,971,0.577913045883179,bicycle,bicycle,true,0971_fc_s04_true_bicycle_35_n02835271_769.png
subject-04,1,972,1.08244895935059,airplane,airplane,false,0972_fc_s04_false_airplane_35_n02690373_4128.png
subject-04,1,973,0.581028938293457,clock,clock,true,0973_fc_s04_true_clock_35_n03196217_1387.png
subject-04,1,974,0.723659992218018,bottle,bottle,true,0974_fc_s04_true_bottle_35_n04557648_981.png
subject-04,1,975,0.8681640625,car,car,false,0975_fc_s04_false_car_35_n03100240_3289.png
subject-04,1,976,0.804620027542114,airplane,airplane,false,0976_fc_s04_false_airplane_35_n02690373_5422.png
subject-04,1,977,0.762197971343994,dog,dog,false,0977_fc_s04_false_dog_35_n02107683_3745.png
subject-04,1,978,0.73188591003418,elephant,elephant,false,0978_fc_s04_false_elephant_35_n02504013_8100.png
subject-04,1,979,0.697797060012817,cat,cat,false,0979_fc_s04_false_cat_35_n02123159_4197.png
subject-04,1,980,0.886361837387085,bird,bird,true,0980_fc_s04_true_bird_35_n01818515_43112.png
subject-04,1,981,0.708709001541138,cat,cat,true,0981_fc_s04_true_cat_35_n02125311_21498.png
subject-04,1,982,0.697525024414062,elephant,elephant,false,0982_fc_s04_false_elephant_35_n02504013_10543.png
subject-04,1,983,1.47172498703003,bird,bird,false,0983_fc_s04_false_bird_35_n02013706_2549.png
subject-04,1,984,0.749814987182617,oven,oven,false,0984_fc_s04_false_oven_35_n04111531_5204.png
subject-04,1,985,0.786128044128418,dog,dog,true,0985_fc_s04_true_dog_35_n02100236_10361.png
subject-04,1,986,0.714478015899658,keyboard,keyboard,false,0986_fc_s04_false_keyboard_35_n04505470_9998.png
subject-04,1,987,0.793837785720825,bottle,bottle,true,0987_fc_s04_true_bottle_35_n04560804_4236.png
subject-04,1,988,0.738582134246826,car,car,true,0988_fc_s04_true_car_35_n04285008_10356.png
subject-04,1,989,0.738147020339966,chair,chair,true,0989_fc_s04_true_chair_35_n03376595_13703.png
subject-04,1,990,0.912594079971313,bicycle,bicycle,false,0990_fc_s04_false_bicycle_35_n02835271_608.png
subject-04,1,991,0.703060865402222,bottle,bottle,true,0991_fc_s04_true_bottle_35_n04579145_5683.png
subject-04,1,992,1.1752610206604,clock,clock,true,0992_fc_s04_true_clock_35_n03196217_1792.png
subject-04,1,993,0.913855075836182,airplane,airplane,false,0993_fc_s04_false_airplane_35_n02690373_4945.png
subject-04,1,994,0.972419023513794,airplane,airplane,false,0994_fc_s04_false_airplane_35_n02690373_19407.png
subject-04,1,995,0.99304986000061,chair,chair,true,0995_fc_s04_true_chair_35_n04429376_3244.png
subject-04,1,996,1.00516891479492,truck,truck,false,0996_fc_s04_false_truck_35_n03417042_8348.png
subject-04,1,997,0.820019006729126,bear,bear,false,0997_fc_s04_false_bear_35_n02133161_14053.png
subject-04,1,998,NaN,na,knife,true,0998_fc_s04_true_knife_35_n03041632_932.png
subject-04,1,999,1.05319881439209,chair,chair,true,0999_fc_s04_true_chair_35_n03376595_9926.png
subject-04,1,1000,0.921693086624146,clock,clock,true,1000_fc_s04_true_clock_35_n02708093_8134.png
subject-04,1,1001,1.33967709541321,chair,chair,false,1001_fc_s04_false_chair_35_n04099969_5021.png
subject-04,1,1002,1.16009902954102,car,car,true,1002_fc_s04_true_car_35_n02814533_37870.png
subject-04,1,1003,0.874293088912964,bear,bear,false,1003_fc_s04_false_bear_35_n02132136_3030.png
subject-04,1,1004,0.610450029373169,bear,bear,true,1004_fc_s04_true_bear_35_n02133161_673.png
subject-04,1,1005,0.723214864730835,bird,bird,false,1005_fc_s04_false_bird_35_n02006656_2421.png
subject-04,1,1006,0.927669048309326,bear,keyboard,true,1006_fc_s04_true_keyboard_35_n03085013_15825.png
subject-04,1,1007,0.834132194519043,elephant,elephant,false,1007_fc_s04_false_elephant_35_n02504458_14308.png
subject-04,1,1008,0.924585103988647,chair,chair,true,1008_fc_s04_true_chair_35_n04099969_28139.png
subject-04,1,1009,0.875119924545288,knife,knife,false,1009_fc_s04_false_knife_35_n03041632_31849.png
subject-04,1,1010,0.789474010467529,bottle,bottle,false,1010_fc_s04_false_bottle_35_n04579145_3067.png
subject-04,1,1011,0.953707933425903,dog,dog,false,1011_fc_s04_false_dog_35_n02113799_18320.png
subject-04,1,1012,0.751887083053589,knife,knife,true,1012_fc_s04_true_knife_35_n03041632_3210.png
subject-04,1,1013,0.588358163833618,truck,truck,false,1013_fc_s04_false_truck_35_n03796401_23937.png
subject-04,1,1014,0.554665803909302,bottle,bottle,true,1014_fc_s04_true_bottle_35_n03983396_4582.png
subject-04,1,1015,0.677636861801147,dog,dog,true,1015_fc_s04_true_dog_35_n02091032_9709.png
subject-04,1,1016,1.01994204521179,chair,chair,false,1016_fc_s04_false_chair_35_n03376595_2666.png
subject-04,1,1017,0.816297054290771,oven,oven,true,1017_fc_s04_true_oven_35_n04111531_13391.png
subject-04,1,1018,1.45886421203613,knife,knife,true,1018_fc_s04_true_knife_35_n03041632_36806.png
subject-04,1,1019,1.38616490364075,truck,truck,true,1019_fc_s04_true_truck_35_n03796401_6746.png
subject-04,1,1020,1.04622006416321,airplane,airplane,true,1020_fc_s04_true_airplane_35_n02690373_5565.png
subject-04,1,1021,0.858672857284546,clock,clock,true,1021_fc_s04_true_clock_35_n04548280_5305.png
