subj,session,trial,rt,object_response,category,condition,imagename
subject-03,1,1,0.844513177871704,bottle,dog,false,0001_fc_s03_false_dog_35_n02091244_4363.png
subject-03,1,2,1.44274377822876,bottle,chair,false,0002_fc_s03_false_chair_35_n02791124_3117.png
subject-03,1,3,1.0070948600769,car,car,true,0003_fc_s03_true_car_35_n02814533_42859.png
subject-03,1,4,1.04546594619751,bird,bird,true,0004_fc_s03_true_bird_35_n02033041_1718.png
subject-03,1,5,1.31358504295349,oven,oven,false,0005_fc_s03_false_oven_35_n04111531_8036.png
subject-03,1,6,0.952341079711914,boat,boat,true,0006_fc_s03_true_boat_35_n03344393_5253.png
subject-03,1,7,0.76677393913269,boat,boat,false,0007_fc_s03_false_boat_35_n04612504_5535.png
subject-03,1,8,1.50044012069702,truck,boat,true,0008_fc_s03_true_boat_35_n03344393_2973.png
subject-03,1,9,1.21926712989807,oven,oven,true,0009_fc_s03_true_oven_35_n04111531_807.png
subject-03,1,10,1.49354290962219,dog,dog,false,0010_fc_s03_false_dog_35_n02087394_30776.png
subject-03,1,11,1.27784514427185,boat,boat,true,0011_fc_s03_true_boat_35_n04612504_8942.png
subject-03,1,12,0.894500970840454,cat,bear,true,0012_fc_s03_true_bear_35_n02133161_1495.png
subject-03,1,13,NaN,na,boat,false,0013_fc_s03_false_boat_35_n02951358_12296.png
subject-03,1,14,0.777029037475586,oven,chair,true,0014_fc_s03_true_chair_35_n03376595_9746.png
subject-03,1,15,0.990617990493774,bird,bird,true,0015_fc_s03_true_bird_35_n01795545_11554.png
subject-03,1,16,1.28899312019348,dog,dog,false,0016_fc_s03_false_dog_35_n02101556_8136.png
subject-03,1,17,NaN,na,truck,false,0017_fc_s03_false_truck_35_n04467665_76958.png
subject-03,1,18,0.754112005233765,cat,cat,true,0018_fc_s03_true_cat_35_n02124075_3744.png
subject-03,1,19,1.12856197357178,dog,dog,false,0019_fc_s03_false_dog_35_n02107142_45563.png
subject-03,1,20,0.966655015945435,bicycle,bicycle,false,0020_fc_s03_false_bicycle_35_n02835271_12263.png
subject-03,1,21,0.913201808929443,chair,chair,false,0021_fc_s03_false_chair_35_n03376595_1363.png
subject-03,1,22,0.959887027740479,cat,cat,true,0022_fc_s03_true_cat_35_n02123159_5299.png
subject-03,1,23,NaN,na,airplane,true,0023_fc_s03_true_airplane_35_n02690373_7686.png
subject-03,1,24,1.19487404823303,bottle,bottle,false,0024_fc_s03_false_bottle_35_n04560804_4624.png
subject-03,1,25,1.38679909706116,dog,dog,false,0025_fc_s03_false_dog_35_n02110627_18469.png
subject-03,1,26,1.03892803192139,keyboard,keyboard,false,0026_fc_s03_false_keyboard_35_n03085013_21967.png
subject-03,1,27,1.22882699966431,oven,keyboard,false,0027_fc_s03_false_keyboard_35_n03085013_22837.png
subject-03,1,28,1.44303679466248,dog,dog,true,0028_fc_s03_true_dog_35_n02105505_6885.png
subject-03,1,29,1.13535022735596,elephant,elephant,true,0029_fc_s03_true_elephant_35_n02504458_3378.png
subject-03,1,30,1.29198789596558,boat,airplane,true,0030_fc_s03_true_airplane_35_n02690373_4982.png
subject-03,1,31,0.976162910461426,bird,bird,false,0031_fc_s03_false_bird_35_n01818515_21537.png
subject-03,1,32,0.838520050048828,cat,cat,false,0032_fc_s03_false_cat_35_n02125311_1899.png
subject-03,1,33,0.975167036056519,dog,dog,false,0033_fc_s03_false_dog_35_n02105056_9877.png
subject-03,1,34,1.30519104003906,clock,clock,false,0034_fc_s03_false_clock_35_n03196217_1792.png
subject-03,1,35,1.30328702926636,elephant,bear,true,0035_fc_s03_true_bear_35_n02133161_8367.png
subject-03,1,36,1.13324999809265,knife,knife,true,0036_fc_s03_true_knife_35_n03041632_18304.png
subject-03,1,37,0.939371109008789,car,car,false,0037_fc_s03_false_car_35_n02814533_11273.png
subject-03,1,38,0.969781875610352,elephant,elephant,true,0038_fc_s03_true_elephant_35_n02504458_10264.png
subject-03,1,39,1.09014296531677,chair,chair,true,0039_fc_s03_true_chair_35_n03376595_13949.png
subject-03,1,40,NaN,na,airplane,true,0040_fc_s03_true_airplane_35_n02690373_6549.png
subject-03,1,41,NaN,na,airplane,false,0041_fc_s03_false_airplane_35_n02690373_4113.png
subject-03,1,42,1.28942489624023,cat,cat,false,0042_fc_s03_false_cat_35_n02123159_7259.png
subject-03,1,43,0.91188383102417,oven,oven,true,0043_fc_s03_true_oven_35_n04111531_73.png
subject-03,1,44,1.239914894104,elephant,elephant,false,0044_fc_s03_false_elephant_35_n02504458_2794.png
subject-03,1,45,1.28645896911621,cat,cat,true,0045_fc_s03_true_cat_35_n02124075_4189.png
subject-03,1,46,1.24690890312195,boat,boat,false,0046_fc_s03_false_boat_35_n04273569_13012.png
subject-03,1,47,1.34545302391052,bicycle,bicycle,false,0047_fc_s03_false_bicycle_35_n02835271_3642.png
subject-03,1,48,1.29755711555481,boat,boat,true,0048_fc_s03_true_boat_35_n03344393_8184.png
subject-03,1,49,1.15173506736755,truck,truck,true,0049_fc_s03_true_truck_35_n03796401_10994.png
subject-03,1,50,1.09584593772888,bottle,bottle,true,0050_fc_s03_true_bottle_35_n04591713_2956.png
subject-03,1,51,1.00053787231445,oven,knife,false,0051_fc_s03_false_knife_35_n03041632_27848.png
subject-03,1,52,1.01498317718506,bird,bird,true,0052_fc_s03_true_bird_35_n02018207_5372.png
subject-03,1,53,1.48103404045105,airplane,airplane,true,0053_fc_s03_true_airplane_35_n02690373_5177.png
subject-03,1,54,1.50000190734863,cat,cat,true,0054_fc_s03_true_cat_35_n02123597_11278.png
subject-03,1,55,0.871371030807495,keyboard,keyboard,false,0055_fc_s03_false_keyboard_35_n04505470_1076.png
subject-03,1,56,1.25513982772827,elephant,bear,true,0056_fc_s03_true_bear_35_n02133161_8261.png
subject-03,1,57,1.43749499320984,clock,bird,true,0057_fc_s03_true_bird_35_n02011460_10432.png
subject-03,1,58,1.13749885559082,clock,clock,false,0058_fc_s03_false_clock_35_n03196217_7161.png
subject-03,1,59,1.34960913658142,dog,dog,false,0059_fc_s03_false_dog_35_n02086079_2840.png
subject-03,1,60,1.04980301856995,cat,bear,false,0060_fc_s03_false_bear_35_n02134084_9156.png
subject-03,1,61,0.896198034286499,boat,boat,false,0061_fc_s03_false_boat_35_n03662601_17403.png
subject-03,1,62,1.45480704307556,car,car,false,0062_fc_s03_false_car_35_n02814533_26367.png
subject-03,1,63,NaN,na,oven,true,0063_fc_s03_true_oven_35_n04111531_6479.png
subject-03,1,64,NaN,na,bear,false,0064_fc_s03_false_bear_35_n02134084_7331.png
subject-03,1,65,1.04152393341064,bottle,knife,true,0065_fc_s03_true_knife_35_n03041632_29337.png
subject-03,1,66,0.831714153289795,bicycle,bicycle,false,0066_fc_s03_false_bicycle_35_n02835271_4749.png
subject-03,1,67,1.13853907585144,car,car,true,0067_fc_s03_true_car_35_n04285008_3351.png
subject-03,1,68,0.94321608543396,cat,bear,false,0068_fc_s03_false_bear_35_n02133161_218.png
subject-03,1,69,1.11709189414978,airplane,airplane,false,0069_fc_s03_false_airplane_35_n02690373_6212.png
subject-03,1,70,0.947417974472046,chair,chair,false,0070_fc_s03_false_chair_35_n03376595_2052.png
subject-03,1,71,0.806018114089966,car,car,true,0071_fc_s03_true_car_35_n03100240_23948.png
subject-03,1,72,0.804230928421021,clock,clock,true,0072_fc_s03_true_clock_35_n04548280_7885.png
subject-03,1,73,1.10269904136658,knife,knife,true,0073_fc_s03_true_knife_35_n03041632_81004.png
subject-03,1,74,0.810840129852295,boat,boat,true,0074_fc_s03_true_boat_35_n03344393_8761.png
subject-03,1,75,0.955482959747314,clock,clock,false,0075_fc_s03_false_clock_35_n02708093_1125.png
subject-03,1,76,NaN,na,bicycle,false,0076_fc_s03_false_bicycle_35_n02835271_21707.png
subject-03,1,77,1.1099808216095,bird,bird,false,0077_fc_s03_false_bird_35_n01531178_4251.png
subject-03,1,78,NaN,na,bottle,true,0078_fc_s03_true_bottle_35_n03983396_17453.png
subject-03,1,79,1.10817694664001,airplane,airplane,true,0079_fc_s03_true_airplane_35_n02690373_2935.png
subject-03,1,80,0.937408208847046,keyboard,keyboard,true,0080_fc_s03_true_keyboard_35_n04505470_4918.png
subject-03,1,81,1.34404277801514,knife,knife,true,0081_fc_s03_true_knife_35_n03041632_45270.png
subject-03,1,82,1.50011301040649,airplane,car,true,0082_fc_s03_true_car_35_n03100240_8045.png
subject-03,1,83,1.01008009910583,bicycle,bicycle,false,0083_fc_s03_false_bicycle_35_n02835271_781.png
subject-03,1,84,0.656620979309082,oven,bear,false,0084_fc_s03_false_bear_35_n02134084_3242.png
subject-03,1,85,0.870609045028687,bicycle,bicycle,false,0085_fc_s03_false_bicycle_35_n02835271_20761.png
subject-03,1,86,1.28105401992798,cat,oven,false,0086_fc_s03_false_oven_35_n04111531_1909.png
subject-03,1,87,1.06558299064636,car,car,true,0087_fc_s03_true_car_35_n02814533_73382.png
subject-03,1,88,0.712234973907471,clock,clock,false,0088_fc_s03_false_clock_35_n03196217_6511.png
subject-03,1,89,1.05288410186768,cat,bear,false,0089_fc_s03_false_bear_35_n02133161_9134.png
subject-03,1,90,0.891483068466187,chair,chair,false,0090_fc_s03_false_chair_35_n04099969_7344.png
subject-03,1,91,1.04380893707275,bottle,bottle,false,0091_fc_s03_false_bottle_35_n03983396_6600.png
subject-03,1,92,0.966166973114014,clock,clock,false,0092_fc_s03_false_clock_35_n04548280_1896.png
subject-03,1,93,1.07267904281616,chair,chair,false,0093_fc_s03_false_chair_35_n04429376_10358.png
subject-03,1,94,1.22498798370361,car,car,false,0094_fc_s03_false_car_35_n04285008_8815.png
subject-03,1,95,0.895133018493652,keyboard,keyboard,true,0095_fc_s03_true_keyboard_35_n03085013_24030.png
subject-03,1,96,1.42366099357605,keyboard,keyboard,true,0096_fc_s03_true_keyboard_35_n04505470_1687.png
subject-03,1,97,1.33012509346008,clock,clock,true,0097_fc_s03_true_clock_35_n04548280_1809.png
subject-03,1,98,0.997097015380859,car,car,true,0098_fc_s03_true_car_35_n02814533_87572.png
subject-03,1,99,1.27962398529053,dog,bird,true,0099_fc_s03_true_bird_35_n01819313_15814.png
subject-03,1,100,1.46892690658569,bear,bear,false,0100_fc_s03_false_bear_35_n02133161_11006.png
subject-03,1,101,0.961237907409668,dog,dog,true,0101_fc_s03_true_dog_35_n02108422_7247.png
subject-03,1,102,1.50004816055298,truck,airplane,false,0102_fc_s03_false_airplane_35_n02690373_6807.png
subject-03,1,103,1.02813100814819,cat,bear,false,0103_fc_s03_false_bear_35_n02134084_4622.png
subject-03,1,104,0.912297964096069,cat,cat,false,0104_fc_s03_false_cat_35_n02123394_2490.png
subject-03,1,105,1.03472900390625,airplane,airplane,true,0105_fc_s03_true_airplane_35_n02690373_10926.png
subject-03,1,106,1.2407500743866,truck,truck,true,0106_fc_s03_true_truck_35_n03417042_14838.png
subject-03,1,107,0.755572080612183,clock,clock,false,0107_fc_s03_false_clock_35_n02708093_1384.png
subject-03,1,108,0.891571044921875,chair,chair,true,0108_fc_s03_true_chair_35_n04429376_17363.png
subject-03,1,109,1.12194991111755,airplane,airplane,false,0109_fc_s03_false_airplane_35_n02690373_4009.png
subject-03,1,110,0.914614915847778,airplane,airplane,true,0110_fc_s03_true_airplane_35_n02690373_1119.png
subject-03,1,111,0.983044862747192,airplane,airplane,false,0111_fc_s03_false_airplane_35_n02690373_3216.png
subject-03,1,112,1.22397899627686,bottle,bottle,true,0112_fc_s03_true_bottle_35_n04591713_11499.png
subject-03,1,113,1.47621893882751,dog,oven,false,0113_fc_s03_false_oven_35_n04111531_15416.png
subject-03,1,114,1.43693208694458,bird,bird,false,0114_fc_s03_false_bird_35_n02033041_5796.png
subject-03,1,115,0.969280004501343,knife,knife,false,0115_fc_s03_false_knife_35_n03041632_42887.png
subject-03,1,116,1.07541584968567,cat,boat,false,0116_fc_s03_false_boat_35_n02951358_8145.png
subject-03,1,117,0.744148969650269,clock,clock,true,0117_fc_s03_true_clock_35_n04548280_3234.png
subject-03,1,118,NaN,na,oven,false,0118_fc_s03_false_oven_35_n04111531_7603.png
subject-03,1,119,0.858955860137939,bottle,bottle,true,0119_fc_s03_true_bottle_35_n04591713_4931.png
subject-03,1,120,1.39505696296692,bird,dog,true,0120_fc_s03_true_dog_35_n02113624_4789.png
subject-03,1,121,0.885289907455444,dog,dog,false,0121_fc_s03_false_dog_35_n02088364_16994.png
subject-03,1,122,1.34535312652588,bird,dog,true,0122_fc_s03_true_dog_35_n02106382_16552.png
subject-03,1,123,0.774659872055054,keyboard,keyboard,true,0123_fc_s03_true_keyboard_35_n04505470_4971.png
subject-03,1,124,1.50001406669617,oven,keyboard,false,0124_fc_s03_false_keyboard_35_n03085013_19254.png
subject-03,1,125,0.816805839538574,chair,chair,true,0125_fc_s03_true_chair_35_n04099969_3686.png
subject-03,1,126,1.47330212593079,dog,dog,true,0126_fc_s03_true_dog_35_n02097209_597.png
subject-03,1,127,NaN,na,truck,false,0127_fc_s03_false_truck_35_n03796401_19900.png
subject-03,1,128,1.05518007278442,dog,dog,true,0128_fc_s03_true_dog_35_n02090379_6166.png
subject-03,1,129,1.07870817184448,airplane,airplane,true,0129_fc_s03_true_airplane_35_n02690373_3493.png
subject-03,1,130,1.12567901611328,truck,truck,true,0130_fc_s03_true_truck_35_n04467665_4263.png
subject-03,1,131,NaN,na,bear,true,0131_fc_s03_true_bear_35_n02134084_15118.png
subject-03,1,132,NaN,na,bottle,true,0132_fc_s03_true_bottle_35_n04591713_5378.png
subject-03,1,133,1.08580303192139,elephant,elephant,false,0133_fc_s03_false_elephant_35_n02504458_151.png
subject-03,1,134,0.999490022659302,bicycle,bicycle,false,0134_fc_s03_false_bicycle_35_n02835271_508.png
subject-03,1,135,1.23033785820007,bottle,bottle,false,0135_fc_s03_false_bottle_35_n04560804_9710.png
subject-03,1,136,0.905992984771729,cat,cat,false,0136_fc_s03_false_cat_35_n02125311_37888.png
subject-03,1,137,0.9043869972229,airplane,airplane,false,0137_fc_s03_false_airplane_35_n02690373_3726.png
subject-03,1,138,1.24887990951538,keyboard,keyboard,false,0138_fc_s03_false_keyboard_35_n03085013_23867.png
subject-03,1,139,1.03299498558044,clock,clock,true,0139_fc_s03_true_clock_35_n04548280_2441.png
subject-03,1,140,1.4928150177002,bicycle,bicycle,false,0140_fc_s03_false_bicycle_35_n02835271_12945.png
subject-03,1,141,1.25286602973938,car,car,true,0141_fc_s03_true_car_35_n03100240_7626.png
subject-03,1,142,0.926625967025757,airplane,airplane,false,0142_fc_s03_false_airplane_35_n02690373_7093.png
subject-03,1,143,1.13324904441833,truck,truck,true,0143_fc_s03_true_truck_35_n04467665_38886.png
subject-03,1,144,1.50026392936707,bird,bird,true,0144_fc_s03_true_bird_35_n02028035_846.png
subject-03,1,145,0.744688034057617,clock,chair,true,0145_fc_s03_true_chair_35_n02791124_1456.png
subject-03,1,146,NaN,na,elephant,false,0146_fc_s03_false_elephant_35_n02504013_2545.png
subject-03,1,147,0.994696140289307,keyboard,keyboard,false,0147_fc_s03_false_keyboard_35_n04505470_4797.png
subject-03,1,148,1.03799700737,chair,chair,false,0148_fc_s03_false_chair_35_n04099969_28969.png
subject-03,1,149,1.17359399795532,oven,bottle,false,0149_fc_s03_false_bottle_35_n04579145_466.png
subject-03,1,150,0.773447036743164,chair,chair,false,0150_fc_s03_false_chair_35_n02791124_1174.png
subject-03,1,151,1.19609713554382,boat,boat,true,0151_fc_s03_true_boat_35_n03662601_5687.png
subject-03,1,152,1.17247295379639,airplane,airplane,true,0152_fc_s03_true_airplane_35_n02690373_5565.png
subject-03,1,153,1.22486782073975,bicycle,bicycle,false,0153_fc_s03_false_bicycle_35_n03792782_16482.png
subject-03,1,154,1.11937689781189,bicycle,bicycle,true,0154_fc_s03_true_bicycle_35_n02835271_1070.png
subject-03,1,155,NaN,na,oven,true,0155_fc_s03_true_oven_35_n04111531_136.png
subject-03,1,156,NaN,na,bird,false,0156_fc_s03_false_bird_35_n02002724_4911.png
subject-03,1,157,0.886378049850464,keyboard,keyboard,true,0157_fc_s03_true_keyboard_35_n04505470_250.png
subject-03,1,158,1.28458309173584,bottle,dog,false,0158_fc_s03_false_dog_35_n02089078_8314.png
subject-03,1,159,1.21231412887573,car,car,true,0159_fc_s03_true_car_35_n04285008_1785.png
subject-03,1,160,1.0803689956665,boat,boat,false,0160_fc_s03_false_boat_35_n04612504_21819.png
subject-03,1,161,NaN,na,dog,true,0161_fc_s03_true_dog_35_n02106382_12216.png
subject-03,1,162,1.30510187149048,elephant,elephant,true,0162_fc_s03_true_elephant_35_n02504013_1244.png
subject-03,1,163,NaN,na,cat,false,0163_fc_s03_false_cat_35_n02125311_2285.png
subject-03,1,164,1.23620986938477,chair,chair,true,0164_fc_s03_true_chair_35_n03376595_6302.png
subject-03,1,165,0.941884994506836,knife,bird,false,0165_fc_s03_false_bird_35_n01582220_5919.png
subject-03,1,166,0.986323118209839,elephant,elephant,false,0166_fc_s03_false_elephant_35_n02504013_6855.png
subject-03,1,167,1.0089008808136,bird,elephant,true,0167_fc_s03_true_elephant_35_n02504458_11772.png
subject-03,1,168,0.853432893753052,chair,chair,false,0168_fc_s03_false_chair_35_n03376595_9237.png
subject-03,1,169,1.05987882614136,airplane,airplane,true,0169_fc_s03_true_airplane_35_n02690373_3874.png
subject-03,1,170,0.744670152664185,bicycle,bicycle,false,0170_fc_s03_false_bicycle_35_n03792782_5944.png
subject-03,1,171,1.38909983634949,bottle,bear,false,0171_fc_s03_false_bear_35_n02133161_6531.png
subject-03,1,172,1.09597206115723,bottle,bottle,false,0172_fc_s03_false_bottle_35_n04591713_14741.png
subject-03,1,173,0.894232988357544,bottle,oven,false,0173_fc_s03_false_oven_35_n04111531_15710.png
subject-03,1,174,0.846474170684814,bottle,bottle,true,0174_fc_s03_true_bottle_35_n04591713_2813.png
subject-03,1,175,0.752147912979126,bicycle,bicycle,true,0175_fc_s03_true_bicycle_35_n03792782_51414.png
subject-03,1,176,1.11275887489319,car,car,false,0176_fc_s03_false_car_35_n04285008_8099.png
subject-03,1,177,0.767132043838501,keyboard,keyboard,true,0177_fc_s03_true_keyboard_35_n03085013_20492.png
subject-03,1,178,NaN,na,oven,false,0178_fc_s03_false_oven_35_n04111531_4116.png
subject-03,1,179,1.49368810653687,car,elephant,true,0179_fc_s03_true_elephant_35_n02504013_6321.png
subject-03,1,180,1.18439722061157,dog,dog,true,0180_fc_s03_true_dog_35_n02093428_5132.png
subject-03,1,181,0.798632860183716,elephant,elephant,true,0181_fc_s03_true_elephant_35_n02504013_4295.png
subject-03,1,182,1.05925893783569,elephant,dog,false,0182_fc_s03_false_dog_35_n02088632_6549.png
subject-03,1,183,1.39595890045166,dog,bear,true,0183_fc_s03_true_bear_35_n02134418_2886.png
subject-03,1,184,0.712307214736938,bicycle,bicycle,true,0184_fc_s03_true_bicycle_35_n02835271_21395.png
subject-03,1,185,1.20294499397278,oven,chair,false,0185_fc_s03_false_chair_35_n02791124_5825.png
subject-03,1,186,1.00111508369446,keyboard,keyboard,false,0186_fc_s03_false_keyboard_35_n04505470_4748.png
subject-03,1,187,1.1478419303894,airplane,airplane,true,0187_fc_s03_true_airplane_35_n02690373_20331.png
subject-03,1,188,1.42223000526428,bird,dog,false,0188_fc_s03_false_dog_35_n02094258_1912.png
subject-03,1,189,1.0065929889679,airplane,airplane,false,0189_fc_s03_false_airplane_35_n02690373_6655.png
subject-03,1,190,0.761142015457153,bicycle,bicycle,true,0190_fc_s03_true_bicycle_35_n02835271_3285.png
subject-03,1,191,0.905817985534668,boat,boat,true,0191_fc_s03_true_boat_35_n03662601_3476.png
subject-03,1,192,1.49999809265137,car,car,true,0192_fc_s03_true_car_35_n03100240_1531.png
subject-03,1,193,0.779769897460938,airplane,airplane,true,0193_fc_s03_true_airplane_35_n02690373_1161.png
subject-03,1,194,1.50001215934753,bird,bird,true,0194_fc_s03_true_bird_35_n01843065_5923.png
subject-03,1,195,0.944350957870483,knife,knife,true,0195_fc_s03_true_knife_35_n03041632_33584.png
subject-03,1,196,0.941521883010864,bottle,bottle,false,0196_fc_s03_false_bottle_35_n03983396_16993.png
subject-03,1,197,1.30210399627686,dog,bear,false,0197_fc_s03_false_bear_35_n02133161_3292.png
subject-03,1,198,1.2143280506134,boat,boat,false,0198_fc_s03_false_boat_35_n04273569_2002.png
subject-03,1,199,0.92053484916687,chair,chair,false,0199_fc_s03_false_chair_35_n04099969_7486.png
subject-03,1,200,NaN,na,bottle,true,0200_fc_s03_true_bottle_35_n04557648_220.png
subject-03,1,201,1.16575598716736,bird,bird,true,0201_fc_s03_true_bird_35_n01860187_1133.png
subject-03,1,202,0.904000043869019,airplane,airplane,true,0202_fc_s03_true_airplane_35_n02690373_5866.png
subject-03,1,203,0.978456020355225,bicycle,bicycle,false,0203_fc_s03_false_bicycle_35_n02835271_2030.png
subject-03,1,204,1.00883603096008,bird,bird,false,0204_fc_s03_false_bird_35_n01558993_4784.png
subject-03,1,205,0.977262020111084,bottle,bottle,false,0205_fc_s03_false_bottle_35_n04579145_215.png
subject-03,1,206,0.675100088119507,keyboard,keyboard,false,0206_fc_s03_false_keyboard_35_n04505470_8512.png
subject-03,1,207,NaN,na,oven,false,0207_fc_s03_false_oven_35_n04111531_10446.png
subject-03,1,208,0.778954982757568,bicycle,bicycle,true,0208_fc_s03_true_bicycle_35_n03792782_28168.png
subject-03,1,209,1.07492303848267,clock,clock,true,0209_fc_s03_true_clock_35_n04548280_6781.png
subject-03,1,210,1.29748702049255,cat,dog,true,0210_fc_s03_true_dog_35_n02105855_1529.png
subject-03,1,211,1.31150794029236,bottle,bottle,true,0211_fc_s03_true_bottle_35_n03937543_4365.png
subject-03,1,212,1.00230097770691,oven,truck,false,0212_fc_s03_false_truck_35_n03417042_8334.png
subject-03,1,213,0.986848115921021,oven,oven,true,0213_fc_s03_true_oven_35_n04111531_17507.png
subject-03,1,214,1.19308495521545,chair,chair,false,0214_fc_s03_false_chair_35_n02791124_3875.png
subject-03,1,215,1.22960305213928,bird,bird,true,0215_fc_s03_true_bird_35_n01622779_3016.png
subject-03,1,216,1.35148501396179,car,car,true,0216_fc_s03_true_car_35_n02814533_30383.png
subject-03,1,217,0.662284135818481,chair,chair,true,0217_fc_s03_true_chair_35_n04099969_38402.png
subject-03,1,218,1.32029485702515,bird,bird,false,0218_fc_s03_false_bird_35_n01820546_7074.png
subject-03,1,219,NaN,na,keyboard,false,0219_fc_s03_false_keyboard_35_n03085013_24653.png
subject-03,1,220,0.835115194320679,boat,boat,true,0220_fc_s03_true_boat_35_n04612504_2795.png
subject-03,1,221,0.901551008224487,knife,knife,true,0221_fc_s03_true_knife_35_n03041632_50423.png
subject-03,1,222,1.33828616142273,oven,oven,true,0222_fc_s03_true_oven_35_n04111531_2872.png
subject-03,1,223,NaN,na,bottle,true,0223_fc_s03_true_bottle_35_n04560804_15332.png
subject-03,1,224,0.959074974060059,cat,cat,true,0224_fc_s03_true_cat_35_n02123045_6318.png
subject-03,1,225,0.873250007629395,keyboard,keyboard,false,0225_fc_s03_false_keyboard_35_n04505470_9996.png
subject-03,1,226,0.809525012969971,dog,dog,true,0226_fc_s03_true_dog_35_n02108422_9634.png
subject-03,1,227,0.853492975234985,bird,bird,true,0227_fc_s03_true_bird_35_n02018207_5275.png
subject-03,1,228,1.02623391151428,chair,chair,true,0228_fc_s03_true_chair_35_n04099969_7924.png
subject-03,1,229,0.93242883682251,car,car,true,0229_fc_s03_true_car_35_n04285008_6852.png
subject-03,1,230,0.930996894836426,cat,cat,true,0230_fc_s03_true_cat_35_n02123159_189.png
subject-03,1,231,NaN,na,truck,true,0231_fc_s03_true_truck_35_n04467665_56938.png
subject-03,1,232,0.80551290512085,boat,boat,true,0232_fc_s03_true_boat_35_n04273569_14578.png
subject-03,1,233,NaN,na,bear,false,0233_fc_s03_false_bear_35_n02132136_2810.png
subject-03,1,234,0.76793909072876,chair,chair,true,0234_fc_s03_true_chair_35_n02791124_5359.png
subject-03,1,235,1.30471396446228,truck,truck,true,0235_fc_s03_true_truck_35_n04467665_4165.png
subject-03,1,236,NaN,na,bicycle,true,0236_fc_s03_true_bicycle_35_n03792782_21266.png
subject-03,1,237,1.500333070755,bird,bird,true,0237_fc_s03_true_bird_35_n02002724_2120.png
subject-03,1,238,1.17969512939453,clock,clock,false,0238_fc_s03_false_clock_35_n04548280_960.png
subject-03,1,239,0.725955963134766,bear,bear,true,0239_fc_s03_true_bear_35_n02134084_3898.png
subject-03,1,240,1.30831289291382,airplane,airplane,false,0240_fc_s03_false_airplane_35_n02690373_466.png
subject-03,1,241,0.952749013900757,keyboard,keyboard,true,0241_fc_s03_true_keyboard_35_n04505470_9788.png
subject-03,1,242,1.48901391029358,oven,oven,true,0242_fc_s03_true_oven_35_n04111531_8330.png
subject-03,1,243,1.3619909286499,keyboard,oven,false,0243_fc_s03_false_oven_35_n04111531_7097.png
subject-03,1,244,1.05442714691162,clock,clock,true,0244_fc_s03_true_clock_35_n03196217_5197.png
subject-03,1,245,NaN,na,cat,false,0245_fc_s03_false_cat_35_n02124075_2502.png
subject-03,1,246,1.40971112251282,bird,bird,false,0246_fc_s03_false_bird_35_n02006656_2871.png
subject-03,1,247,0.893767118453979,keyboard,keyboard,false,0247_fc_s03_false_keyboard_35_n04505470_4615.png
subject-03,1,248,1.35215997695923,cat,bear,false,0248_fc_s03_false_bear_35_n02134084_14727.png
subject-03,1,249,NaN,na,bottle,false,0249_fc_s03_false_bottle_35_n04557648_310.png
subject-03,1,250,0.876613140106201,chair,chair,true,0250_fc_s03_true_chair_35_n04099969_2707.png
subject-03,1,251,0.983343839645386,cat,cat,false,0251_fc_s03_false_cat_35_n02123159_6185.png
subject-03,1,252,1.2818009853363,dog,cat,false,0252_fc_s03_false_cat_35_n02125311_14905.png
subject-03,1,253,0.979932069778442,keyboard,keyboard,true,0253_fc_s03_true_keyboard_35_n04505470_3566.png
subject-03,1,254,NaN,na,bottle,false,0254_fc_s03_false_bottle_35_n04591713_3896.png
subject-03,1,255,1.12094593048096,oven,oven,true,0255_fc_s03_true_oven_35_n04111531_172.png
subject-03,1,256,1.40313100814819,cat,bird,false,0256_fc_s03_false_bird_35_n02037110_2710.png
subject-03,1,257,0.979525089263916,dog,dog,false,0257_fc_s03_false_dog_35_n02109047_1449.png
subject-03,1,258,0.882513046264648,dog,dog,true,0258_fc_s03_true_dog_35_n02102318_772.png
subject-03,1,259,1.17278504371643,clock,clock,false,0259_fc_s03_false_clock_35_n04548280_1440.png
subject-03,1,260,0.749135971069336,clock,clock,false,0260_fc_s03_false_clock_35_n04548280_3746.png
subject-03,1,261,0.623153924942017,boat,boat,false,0261_fc_s03_false_boat_35_n04273569_8552.png
subject-03,1,262,1.28365302085876,bear,elephant,true,0262_fc_s03_true_elephant_35_n02504013_7006.png
subject-03,1,263,0.851927042007446,elephant,elephant,true,0263_fc_s03_true_elephant_35_n02504458_10112.png
subject-03,1,264,1.02613091468811,bear,bear,true,0264_fc_s03_true_bear_35_n02134418_1825.png
subject-03,1,265,1.27811503410339,truck,truck,false,0265_fc_s03_false_truck_35_n03417042_21758.png
subject-03,1,266,1.07669496536255,chair,chair,true,0266_fc_s03_true_chair_35_n04099969_34656.png
subject-03,1,267,1.19120597839355,bird,bird,true,0267_fc_s03_true_bird_35_n01614925_31268.png
subject-03,1,268,1.00520300865173,oven,oven,false,0268_fc_s03_false_oven_35_n04111531_12903.png
subject-03,1,269,0.809164047241211,cat,cat,true,0269_fc_s03_true_cat_35_n02124075_12042.png
subject-03,1,270,0.89361310005188,airplane,airplane,false,0270_fc_s03_false_airplane_35_n02690373_19438.png
subject-03,1,271,1.05966186523438,bird,bird,true,0271_fc_s03_true_bird_35_n02009229_3271.png
subject-03,1,272,1.18826699256897,boat,boat,false,0272_fc_s03_false_boat_35_n02951358_727.png
subject-03,1,273,NaN,na,clock,true,0273_fc_s03_true_clock_35_n04548280_5278.png
subject-03,1,274,0.794394016265869,oven,oven,true,0274_fc_s03_true_oven_35_n04111531_14690.png
subject-03,1,275,1.13101410865784,oven,chair,false,0275_fc_s03_false_chair_35_n04429376_16923.png
subject-03,1,276,0.834007024765015,bicycle,bicycle,false,0276_fc_s03_false_bicycle_35_n03792782_3388.png
subject-03,1,277,1.14816689491272,cat,dog,true,0277_fc_s03_true_dog_35_n02085782_6241.png
subject-03,1,278,0.800343036651611,clock,clock,true,0278_fc_s03_true_clock_35_n03196217_343.png
subject-03,1,279,1.12512803077698,boat,bear,false,0279_fc_s03_false_bear_35_n02132136_4111.png
subject-03,1,280,NaN,na,boat,false,0280_fc_s03_false_boat_35_n03344393_5126.png
subject-03,1,281,0.883619785308838,clock,clock,true,0281_fc_s03_true_clock_35_n02708093_6688.png
subject-03,1,282,NaN,na,bird,false,0282_fc_s03_false_bird_35_n01537544_1074.png
subject-03,1,283,1.03935289382935,bird,bird,false,0283_fc_s03_false_bird_35_n02033041_8308.png
subject-03,1,284,NaN,na,knife,false,0284_fc_s03_false_knife_35_n03041632_13846.png
subject-03,1,285,1.07222199440002,chair,dog,false,0285_fc_s03_false_dog_35_n02110806_2027.png
subject-03,1,286,0.786643981933594,knife,knife,false,0286_fc_s03_false_knife_35_n03041632_3717.png
subject-03,1,287,0.938919067382812,truck,truck,false,0287_fc_s03_false_truck_35_n03417042_2386.png
subject-03,1,288,1.36422300338745,dog,bear,false,0288_fc_s03_false_bear_35_n02134418_2591.png
subject-03,1,289,0.894412040710449,bicycle,bicycle,false,0289_fc_s03_false_bicycle_35_n02835271_10202.png
subject-03,1,290,0.946274042129517,keyboard,keyboard,true,0290_fc_s03_true_keyboard_35_n03085013_17884.png
subject-03,1,291,0.949126005172729,bird,bird,false,0291_fc_s03_false_bird_35_n02013706_6952.png
subject-03,1,292,1.10940194129944,oven,oven,false,0292_fc_s03_false_oven_35_n04111531_7340.png
subject-03,1,293,1.16180396080017,clock,keyboard,false,0293_fc_s03_false_keyboard_35_n03085013_22870.png
subject-03,1,294,1.08981704711914,car,car,true,0294_fc_s03_true_car_35_n04285008_3990.png
subject-03,1,295,0.795702934265137,keyboard,keyboard,false,0295_fc_s03_false_keyboard_35_n03085013_20798.png
subject-03,1,296,0.978121042251587,bicycle,bicycle,false,0296_fc_s03_false_bicycle_35_n02835271_3392.png
subject-03,1,297,1.01293992996216,cat,cat,true,0297_fc_s03_true_cat_35_n02124075_3506.png
subject-03,1,298,0.881438970565796,clock,clock,true,0298_fc_s03_true_clock_35_n03196217_66.png
subject-03,1,299,1.50010299682617,elephant,elephant,false,0299_fc_s03_false_elephant_35_n02504458_2618.png
subject-03,1,300,0.854031085968018,cat,cat,false,0300_fc_s03_false_cat_35_n02123394_1940.png
subject-03,1,301,NaN,na,truck,false,0301_fc_s03_false_truck_35_n04467665_33099.png
subject-03,1,302,0.850595951080322,bicycle,bicycle,false,0302_fc_s03_false_bicycle_35_n03792782_15598.png
subject-03,1,303,0.878803968429565,truck,truck,true,0303_fc_s03_true_truck_35_n03417042_19668.png
subject-03,1,304,1.31469202041626,bird,bird,true,0304_fc_s03_true_bird_35_n01601694_3230.png
subject-03,1,305,1.10506987571716,oven,oven,false,0305_fc_s03_false_oven_35_n04111531_22784.png
subject-03,1,306,1.21159291267395,bottle,bottle,true,0306_fc_s03_true_bottle_35_n03937543_7302.png
subject-03,1,307,1.34762215614319,bird,bird,false,0307_fc_s03_false_bird_35_n01531178_21940.png
subject-03,1,308,1.43787717819214,truck,boat,false,0308_fc_s03_false_boat_35_n03344393_2790.png
subject-03,1,309,0.74067497253418,cat,cat,true,0309_fc_s03_true_cat_35_n02123045_10052.png
subject-03,1,310,0.625205993652344,keyboard,keyboard,false,0310_fc_s03_false_keyboard_35_n04505470_2243.png
subject-03,1,311,1.1373450756073,car,car,true,0311_fc_s03_true_car_35_n04285008_9527.png
subject-03,1,312,NaN,na,truck,true,0312_fc_s03_true_truck_35_n04467665_37066.png
subject-03,1,313,1.1927170753479,dog,dog,true,0313_fc_s03_true_dog_35_n02101388_9149.png
subject-03,1,314,1.17517995834351,truck,truck,false,0314_fc_s03_false_truck_35_n03417042_1978.png
subject-03,1,315,1.37320804595947,knife,knife,true,0315_fc_s03_true_knife_35_n03041632_2153.png
subject-03,1,316,0.892786979675293,dog,bear,false,0316_fc_s03_false_bear_35_n02132136_10024.png
subject-03,1,317,NaN,na,knife,false,0317_fc_s03_false_knife_35_n03041632_10796.png
subject-03,1,318,1.02606010437012,keyboard,bottle,false,0318_fc_s03_false_bottle_35_n02823428_5949.png
subject-03,1,319,1.05404806137085,truck,truck,true,0319_fc_s03_true_truck_35_n03796401_4309.png
subject-03,1,320,1.09810090065002,chair,bottle,false,0320_fc_s03_false_bottle_35_n04591713_12782.png
subject-03,1,321,0.689429044723511,clock,clock,true,0321_fc_s03_true_clock_35_n04548280_2717.png
subject-03,1,322,0.995419025421143,cat,cat,false,0322_fc_s03_false_cat_35_n02124075_8106.png
subject-03,1,323,0.909824132919312,truck,truck,true,0323_fc_s03_true_truck_35_n03417042_10229.png
subject-03,1,324,1.33805799484253,car,car,true,0324_fc_s03_true_car_35_n02814533_83665.png
subject-03,1,325,0.703981161117554,keyboard,keyboard,false,0325_fc_s03_false_keyboard_35_n03085013_19450.png
subject-03,1,326,1.22681498527527,bird,bird,true,0326_fc_s03_true_bird_35_n02007558_4181.png
subject-03,1,327,1.17106413841248,bird,bird,true,0327_fc_s03_true_bird_35_n01819313_12058.png
subject-03,1,328,1.12000608444214,elephant,elephant,true,0328_fc_s03_true_elephant_35_n02504013_26878.png
subject-03,1,329,1.33152198791504,dog,bear,true,0329_fc_s03_true_bear_35_n02132136_742.png
subject-03,1,330,1.30567502975464,chair,chair,false,0330_fc_s03_false_chair_35_n02791124_5490.png
subject-03,1,331,0.749820947647095,truck,truck,true,0331_fc_s03_true_truck_35_n04467665_34030.png
subject-03,1,332,1.06399488449097,cat,elephant,true,0332_fc_s03_true_elephant_35_n02504013_10909.png
subject-03,1,333,1.07078504562378,elephant,elephant,true,0333_fc_s03_true_elephant_35_n02504013_6275.png
subject-03,1,334,1.32086205482483,dog,bear,true,0334_fc_s03_true_bear_35_n02134418_5480.png
subject-03,1,335,0.935235023498535,knife,knife,true,0335_fc_s03_true_knife_35_n03041632_46720.png
subject-03,1,336,0.833599090576172,bottle,bottle,false,0336_fc_s03_false_bottle_35_n02823428_10942.png
subject-03,1,337,1.10798001289368,bear,bear,true,0337_fc_s03_true_bear_35_n02134418_5014.png
subject-03,1,338,1.50024890899658,bird,bird,false,0338_fc_s03_false_bird_35_n02033041_2670.png
subject-03,1,339,1.08839917182922,bicycle,bicycle,false,0339_fc_s03_false_bicycle_35_n03792782_4869.png
subject-03,1,340,1.11064004898071,oven,oven,false,0340_fc_s03_false_oven_35_n04111531_10375.png
subject-03,1,341,0.724690198898315,knife,knife,true,0341_fc_s03_true_knife_35_n03041632_33268.png
subject-03,1,342,NaN,na,truck,true,0342_fc_s03_true_truck_35_n03417042_3066.png
subject-03,1,343,1.09056401252747,bird,bird,false,0343_fc_s03_false_bird_35_n01855672_10838.png
subject-03,1,344,1.21090793609619,car,car,false,0344_fc_s03_false_car_35_n04285008_1912.png
subject-03,1,345,NaN,na,bottle,true,0345_fc_s03_true_bottle_35_n04557648_4143.png
subject-03,1,346,1.04804110527039,boat,bicycle,false,0346_fc_s03_false_bicycle_35_n03792782_13617.png
subject-03,1,347,1.00614285469055,elephant,elephant,true,0347_fc_s03_true_elephant_35_n02504458_6185.png
subject-03,1,348,0.766220092773438,bottle,bottle,false,0348_fc_s03_false_bottle_35_n04591713_9599.png
subject-03,1,349,1.19474792480469,airplane,airplane,false,0349_fc_s03_false_airplane_35_n02690373_5342.png
subject-03,1,350,0.879281044006348,truck,truck,false,0350_fc_s03_false_truck_35_n03417042_9559.png
subject-03,1,351,1.04556488990784,clock,clock,false,0351_fc_s03_false_clock_35_n03196217_3430.png
subject-03,1,352,0.927886009216309,car,car,false,0352_fc_s03_false_car_35_n04285008_7033.png
subject-03,1,353,1.38046407699585,truck,truck,true,0353_fc_s03_true_truck_35_n03417042_20489.png
subject-03,1,354,0.862151861190796,oven,bottle,false,0354_fc_s03_false_bottle_35_n04591713_3131.png
subject-03,1,355,1.38215494155884,bird,bird,false,0355_fc_s03_false_bird_35_n02002556_25563.png
subject-03,1,356,1.26361608505249,oven,oven,false,0356_fc_s03_false_oven_35_n04111531_8414.png
subject-03,1,357,0.761538982391357,chair,chair,true,0357_fc_s03_true_chair_35_n02791124_5439.png
subject-03,1,358,1.09824299812317,cat,cat,true,0358_fc_s03_true_cat_35_n02124075_7843.png
subject-03,1,359,1.15050601959229,elephant,elephant,true,0359_fc_s03_true_elephant_35_n02504013_1399.png
subject-03,1,360,1.0167088508606,dog,dog,true,0360_fc_s03_true_dog_35_n02091831_1852.png
subject-03,1,361,0.730731010437012,oven,oven,true,0361_fc_s03_true_oven_35_n04111531_9498.png
subject-03,1,362,0.967296123504639,airplane,airplane,true,0362_fc_s03_true_airplane_35_n02690373_8231.png
subject-03,1,363,1.0875358581543,boat,boat,true,0363_fc_s03_true_boat_35_n04273569_3244.png
subject-03,1,364,0.698071956634521,chair,chair,true,0364_fc_s03_true_chair_35_n04099969_7070.png
subject-03,1,365,1.07280111312866,oven,oven,true,0365_fc_s03_true_oven_35_n04111531_8305.png
subject-03,1,366,1.04064893722534,clock,clock,false,0366_fc_s03_false_clock_35_n04548280_4872.png
subject-03,1,367,0.726815938949585,oven,oven,true,0367_fc_s03_true_oven_35_n04111531_21011.png
subject-03,1,368,0.731368064880371,boat,boat,true,0368_fc_s03_true_boat_35_n04273569_5726.png
subject-03,1,369,0.899444103240967,boat,boat,true,0369_fc_s03_true_boat_35_n03344393_12983.png
subject-03,1,370,1.38158893585205,airplane,keyboard,false,0370_fc_s03_false_keyboard_35_n03085013_7322.png
subject-03,1,371,1.03177499771118,boat,boat,false,0371_fc_s03_false_boat_35_n02951358_13043.png
subject-03,1,372,0.746160984039307,chair,chair,false,0372_fc_s03_false_chair_35_n03376595_15231.png
subject-03,1,373,1.19866299629211,keyboard,keyboard,true,0373_fc_s03_true_keyboard_35_n04505470_1412.png
subject-03,1,374,1.01891803741455,elephant,elephant,false,0374_fc_s03_false_elephant_35_n02504013_2945.png
subject-03,1,375,0.995281934738159,bear,bear,true,0375_fc_s03_true_bear_35_n02132136_13078.png
subject-03,1,376,0.685535907745361,clock,clock,true,0376_fc_s03_true_clock_35_n03196217_2224.png
subject-03,1,377,1.48955011367798,cat,cat,true,0377_fc_s03_true_cat_35_n02125311_5706.png
subject-03,1,378,NaN,na,bottle,false,0378_fc_s03_false_bottle_35_n04560804_570.png
subject-03,1,379,1.2426609992981,car,car,true,0379_fc_s03_true_car_35_n03100240_2667.png
subject-03,1,380,1.19537496566772,oven,airplane,false,0380_fc_s03_false_airplane_35_n02690373_1512.png
subject-03,1,381,1.33970189094543,dog,bear,true,0381_fc_s03_true_bear_35_n02134418_4666.png
subject-03,1,382,0.837970972061157,airplane,airplane,false,0382_fc_s03_false_airplane_35_n02690373_7300.png
subject-03,1,383,1.17443299293518,elephant,elephant,false,0383_fc_s03_false_elephant_35_n02504013_10773.png
subject-03,1,384,NaN,na,bird,false,0384_fc_s03_false_bird_35_n02006656_5963.png
subject-03,1,385,1.0595850944519,dog,dog,true,0385_fc_s03_true_dog_35_n02110806_4105.png
subject-03,1,386,1.48769307136536,car,car,false,0386_fc_s03_false_car_35_n03100240_15867.png
subject-03,1,387,0.985966920852661,bear,bear,true,0387_fc_s03_true_bear_35_n02133161_1126.png
subject-03,1,388,NaN,na,bottle,false,0388_fc_s03_false_bottle_35_n03937543_10181.png
subject-03,1,389,1.28887915611267,truck,truck,true,0389_fc_s03_true_truck_35_n03417042_5866.png
subject-03,1,390,0.926675081253052,oven,oven,false,0390_fc_s03_false_oven_35_n04111531_545.png
subject-03,1,391,0.854859113693237,keyboard,keyboard,true,0391_fc_s03_true_keyboard_35_n04505470_4199.png
subject-03,1,392,0.783239841461182,car,car,true,0392_fc_s03_true_car_35_n02814533_12185.png
subject-03,1,393,1.50018811225891,bicycle,bicycle,true,0393_fc_s03_true_bicycle_35_n02835271_19875.png
subject-03,1,394,1.13188815116882,cat,cat,false,0394_fc_s03_false_cat_35_n02123045_7782.png
subject-03,1,395,1.27606391906738,car,bicycle,true,0395_fc_s03_true_bicycle_35_n03792782_6215.png
subject-03,1,396,0.844466924667358,chair,chair,false,0396_fc_s03_false_chair_35_n04099969_22528.png
subject-03,1,397,NaN,na,knife,false,0397_fc_s03_false_knife_35_n03041632_33326.png
subject-03,1,398,1.25949096679688,chair,chair,false,0398_fc_s03_false_chair_35_n02791124_6183.png
subject-03,1,399,0.67389988899231,keyboard,keyboard,false,0399_fc_s03_false_keyboard_35_n03085013_21355.png
subject-03,1,400,1.08633804321289,bird,oven,false,0400_fc_s03_false_oven_35_n04111531_4955.png
subject-03,1,401,1.2687349319458,bird,bird,true,0401_fc_s03_true_bird_35_n02002724_450.png
subject-03,1,402,1.31946706771851,cat,chair,false,0402_fc_s03_false_chair_35_n02791124_206.png
subject-03,1,403,0.965564966201782,car,car,false,0403_fc_s03_false_car_35_n03100240_2235.png
subject-03,1,404,NaN,na,bear,false,0404_fc_s03_false_bear_35_n02134418_328.png
subject-03,1,405,0.81074595451355,boat,boat,false,0405_fc_s03_false_boat_35_n03344393_1318.png
subject-03,1,406,0.746909141540527,boat,boat,true,0406_fc_s03_true_boat_35_n02951358_30117.png
subject-03,1,407,0.945353984832764,truck,truck,false,0407_fc_s03_false_truck_35_n03417042_4765.png
subject-03,1,408,0.9115309715271,bicycle,bicycle,false,0408_fc_s03_false_bicycle_35_n03792782_35912.png
subject-03,1,409,0.922954082489014,bird,bird,false,0409_fc_s03_false_bird_35_n01616318_2236.png
subject-03,1,410,1.04712319374084,cat,cat,false,0410_fc_s03_false_cat_35_n02123045_2466.png
subject-03,1,411,1.33735918998718,bird,knife,true,0411_fc_s03_true_knife_35_n03041632_32896.png
subject-03,1,412,0.9656081199646,clock,clock,false,0412_fc_s03_false_clock_35_n04548280_2383.png
subject-03,1,413,1.01784205436707,car,car,true,0413_fc_s03_true_car_35_n03100240_5291.png
subject-03,1,414,0.794595956802368,bottle,bottle,false,0414_fc_s03_false_bottle_35_n02823428_1815.png
subject-03,1,415,1.19107985496521,truck,truck,true,0415_fc_s03_true_truck_35_n04467665_59894.png
subject-03,1,416,0.959619998931885,bottle,knife,true,0416_fc_s03_true_knife_35_n03041632_24817.png
subject-03,1,417,1.49385595321655,bottle,knife,false,0417_fc_s03_false_knife_35_n03041632_25257.png
subject-03,1,418,NaN,na,truck,false,0418_fc_s03_false_truck_35_n03417042_9152.png
subject-03,1,419,1.4304530620575,cat,dog,false,0419_fc_s03_false_dog_35_n02094114_7336.png
subject-03,1,420,0.736520051956177,clock,clock,false,0420_fc_s03_false_clock_35_n02708093_4415.png
subject-03,1,421,1.50025987625122,oven,oven,true,0421_fc_s03_true_oven_35_n04111531_3076.png
subject-03,1,422,0.849107027053833,keyboard,keyboard,true,0422_fc_s03_true_keyboard_35_n04505470_1724.png
subject-03,1,423,1.04468512535095,bottle,bottle,true,0423_fc_s03_true_bottle_35_n04557648_16327.png
subject-03,1,424,0.934869050979614,bicycle,bicycle,true,0424_fc_s03_true_bicycle_35_n02835271_11851.png
subject-03,1,425,0.947166919708252,knife,knife,true,0425_fc_s03_true_knife_35_n03041632_24181.png
subject-03,1,426,NaN,na,bear,false,0426_fc_s03_false_bear_35_n02134084_22002.png
subject-03,1,427,1.00320911407471,bottle,bottle,false,0427_fc_s03_false_bottle_35_n04560804_13141.png
subject-03,1,428,0.893678903579712,airplane,airplane,true,0428_fc_s03_true_airplane_35_n02690373_2865.png
subject-03,1,429,1.14596915245056,chair,oven,true,0429_fc_s03_true_oven_35_n04111531_15616.png
subject-03,1,430,1.07461905479431,bottle,bottle,false,0430_fc_s03_false_bottle_35_n04591713_5463.png
subject-03,1,431,1.17732810974121,bottle,bottle,true,0431_fc_s03_true_bottle_35_n04591713_5047.png
subject-03,1,432,0.667558908462524,bicycle,bicycle,false,0432_fc_s03_false_bicycle_35_n03792782_32.png
subject-03,1,433,1.41834402084351,bird,bird,false,0433_fc_s03_false_bird_35_n01820546_4631.png
subject-03,1,434,0.994861125946045,elephant,elephant,true,0434_fc_s03_true_elephant_35_n02504458_8062.png
subject-03,1,435,0.985271215438843,dog,dog,false,0435_fc_s03_false_dog_35_n02092002_15428.png
subject-03,1,436,1.39763212203979,bird,bird,true,0436_fc_s03_true_bird_35_n01798484_8715.png
subject-03,1,437,0.95015287399292,cat,cat,false,0437_fc_s03_false_cat_35_n02123394_1625.png
subject-03,1,438,1.14073705673218,dog,dog,false,0438_fc_s03_false_dog_35_n02093991_2122.png
subject-03,1,439,0.855098962783813,chair,chair,true,0439_fc_s03_true_chair_35_n04429376_13751.png
subject-03,1,440,1.28975081443787,car,car,false,0440_fc_s03_false_car_35_n04285008_1391.png
subject-03,1,441,NaN,na,knife,false,0441_fc_s03_false_knife_35_n03041632_20662.png
subject-03,1,442,1.18672585487366,truck,truck,true,0442_fc_s03_true_truck_35_n04467665_32885.png
subject-03,1,443,0.747024774551392,boat,boat,true,0443_fc_s03_true_boat_35_n04612504_29711.png
subject-03,1,444,NaN,na,boat,false,0444_fc_s03_false_boat_35_n03344393_9262.png
subject-03,1,445,0.981793165206909,airplane,airplane,true,0445_fc_s03_true_airplane_35_n02690373_1829.png
subject-03,1,446,1.50027298927307,chair,knife,true,0446_fc_s03_true_knife_35_n03041632_16606.png
subject-03,1,447,1.00618505477905,bicycle,bicycle,false,0447_fc_s03_false_bicycle_35_n03792782_19116.png
subject-03,1,448,1.23442816734314,truck,chair,false,0448_fc_s03_false_chair_35_n04429376_7416.png
subject-03,1,449,1.07525086402893,chair,chair,true,0449_fc_s03_true_chair_35_n04429376_9312.png
subject-03,1,450,0.927615165710449,keyboard,keyboard,false,0450_fc_s03_false_keyboard_35_n03085013_2143.png
subject-03,1,451,0.701555967330933,boat,boat,true,0451_fc_s03_true_boat_35_n04612504_15794.png
subject-03,1,452,1.00008893013,boat,boat,false,0452_fc_s03_false_boat_35_n03344393_5050.png
subject-03,1,453,1.21263909339905,oven,chair,true,0453_fc_s03_true_chair_35_n02791124_11346.png
subject-03,1,454,0.940789937973022,bicycle,bicycle,false,0454_fc_s03_false_bicycle_35_n02835271_1055.png
subject-03,1,455,1.34397387504578,bird,bird,false,0455_fc_s03_false_bird_35_n02037110_7385.png
subject-03,1,456,0.942238092422485,cat,cat,false,0456_fc_s03_false_cat_35_n02124075_12622.png
subject-03,1,457,0.886823177337646,bottle,bottle,false,0457_fc_s03_false_bottle_35_n04579145_4934.png
subject-03,1,458,0.983234882354736,oven,oven,false,0458_fc_s03_false_oven_35_n04111531_2721.png
subject-03,1,459,1.18994283676147,dog,bear,true,0459_fc_s03_true_bear_35_n02133161_10651.png
subject-03,1,460,1.1983048915863,chair,chair,false,0460_fc_s03_false_chair_35_n03376595_10396.png
subject-03,1,461,0.835065841674805,cat,dog,false,0461_fc_s03_false_dog_35_n02086910_12031.png
subject-03,1,462,1.04131889343262,dog,dog,true,0462_fc_s03_true_dog_35_n02110185_6501.png
subject-03,1,463,0.847745895385742,truck,truck,false,0463_fc_s03_false_truck_35_n03796401_30081.png
subject-03,1,464,1.11992287635803,dog,dog,true,0464_fc_s03_true_dog_35_n02106550_3533.png
subject-03,1,465,1.18850803375244,oven,oven,false,0465_fc_s03_false_oven_35_n04111531_9844.png
subject-03,1,466,0.8489990234375,keyboard,keyboard,false,0466_fc_s03_false_keyboard_35_n04505470_5354.png
subject-03,1,467,0.869853019714355,car,car,true,0467_fc_s03_true_car_35_n02814533_6150.png
subject-03,1,468,0.859886169433594,airplane,airplane,false,0468_fc_s03_false_airplane_35_n02690373_17731.png
subject-03,1,469,1.42291498184204,elephant,elephant,false,0469_fc_s03_false_elephant_35_n02504013_6748.png
subject-03,1,470,1.04557704925537,cat,cat,true,0470_fc_s03_true_cat_35_n02124075_2747.png
subject-03,1,471,0.979209899902344,oven,elephant,true,0471_fc_s03_true_elephant_35_n02504458_5978.png
subject-03,1,472,1.03164291381836,airplane,airplane,true,0472_fc_s03_true_airplane_35_n02690373_4148.png
subject-03,1,473,0.884038925170898,chair,chair,false,0473_fc_s03_false_chair_35_n03376595_7035.png
subject-03,1,474,1.01249980926514,knife,knife,true,0474_fc_s03_true_knife_35_n03041632_24646.png
subject-03,1,475,1.50006198883057,chair,elephant,false,0475_fc_s03_false_elephant_35_n02504458_1863.png
subject-03,1,476,0.876605987548828,oven,knife,false,0476_fc_s03_false_knife_35_n03041632_20217.png
subject-03,1,477,1.27253699302673,knife,knife,false,0477_fc_s03_false_knife_35_n03041632_1201.png
subject-03,1,478,1.06688618659973,bird,bird,true,0478_fc_s03_true_bird_35_n01798484_13335.png
subject-03,1,479,0.997648000717163,chair,chair,true,0479_fc_s03_true_chair_35_n04099969_12099.png
subject-03,1,480,1.08013415336609,chair,chair,true,0480_fc_s03_true_chair_35_n03376595_16321.png
subject-03,1,481,0.75823712348938,oven,oven,true,0481_fc_s03_true_oven_35_n04111531_11935.png
subject-03,1,482,0.986181974411011,keyboard,keyboard,true,0482_fc_s03_true_keyboard_35_n04505470_3089.png
subject-03,1,483,0.918501853942871,cat,cat,false,0483_fc_s03_false_cat_35_n02123597_4300.png
subject-03,1,484,0.771211862564087,bottle,bottle,true,0484_fc_s03_true_bottle_35_n04579145_21.png
subject-03,1,485,0.807523965835571,chair,chair,true,0485_fc_s03_true_chair_35_n03376595_6864.png
subject-03,1,486,0.643898010253906,boat,boat,false,0486_fc_s03_false_boat_35_n02951358_1461.png
subject-03,1,487,0.964302062988281,keyboard,keyboard,true,0487_fc_s03_true_keyboard_35_n04505470_3666.png
subject-03,1,488,0.868706941604614,keyboard,keyboard,false,0488_fc_s03_false_keyboard_35_n04505470_4784.png
subject-03,1,489,0.687432050704956,cat,cat,true,0489_fc_s03_true_cat_35_n02124075_11955.png
subject-03,1,490,1.02377390861511,dog,bear,true,0490_fc_s03_true_bear_35_n02134418_1750.png
subject-03,1,491,0.790615081787109,clock,clock,true,0491_fc_s03_true_clock_35_n04548280_5721.png
subject-03,1,492,0.68912410736084,bottle,bottle,true,0492_fc_s03_true_bottle_35_n04579145_2519.png
subject-03,1,493,0.817587852478027,oven,oven,true,0493_fc_s03_true_oven_35_n04111531_16161.png
subject-03,1,494,0.923863887786865,airplane,airplane,true,0494_fc_s03_true_airplane_35_n02690373_4681.png
subject-03,1,495,1.02435612678528,keyboard,keyboard,true,0495_fc_s03_true_keyboard_35_n03085013_1812.png
subject-03,1,496,0.94675087928772,cat,cat,true,0496_fc_s03_true_cat_35_n02123394_3949.png
subject-03,1,497,NaN,na,bottle,false,0497_fc_s03_false_bottle_35_n02823428_5436.png
subject-03,1,498,1.45787501335144,bottle,bottle,false,0498_fc_s03_false_bottle_35_n02823428_7806.png
subject-03,1,499,0.932590961456299,chair,chair,true,0499_fc_s03_true_chair_35_n04099969_10458.png
subject-03,1,500,NaN,na,knife,false,0500_fc_s03_false_knife_35_n03041632_27709.png
subject-03,1,501,NaN,na,bear,true,0501_fc_s03_true_bear_35_n02132136_6469.png
subject-03,1,502,0.821532011032104,oven,oven,true,0502_fc_s03_true_oven_35_n04111531_20875.png
subject-03,1,503,1.04186010360718,boat,boat,false,0503_fc_s03_false_boat_35_n02951358_26299.png
subject-03,1,504,0.678097009658813,boat,boat,true,0504_fc_s03_true_boat_35_n04612504_40598.png
subject-03,1,505,0.746563196182251,knife,knife,false,0505_fc_s03_false_knife_35_n03041632_36814.png
subject-03,1,506,0.699136972427368,chair,chair,true,0506_fc_s03_true_chair_35_n03376595_10983.png
subject-03,1,507,1.26383996009827,car,car,false,0507_fc_s03_false_car_35_n02814533_1533.png
subject-03,1,508,0.810090065002441,keyboard,keyboard,true,0508_fc_s03_true_keyboard_35_n04505470_4486.png
subject-03,1,509,0.995209932327271,chair,keyboard,true,0509_fc_s03_true_keyboard_35_n03085013_21558.png
subject-03,1,510,NaN,na,cat,false,0510_fc_s03_false_cat_35_n02124075_8528.png
subject-03,1,511,0.992308139801025,knife,knife,true,0511_fc_s03_true_knife_35_n03041632_46103.png
subject-03,1,512,0.716891050338745,cat,bird,false,0512_fc_s03_false_bird_35_n01514859_8481.png
subject-03,1,513,0.869518041610718,boat,boat,false,0513_fc_s03_false_boat_35_n04612504_3179.png
subject-03,1,514,0.906038045883179,airplane,airplane,false,0514_fc_s03_false_airplane_35_n02690373_4108.png
subject-03,1,515,NaN,na,cat,false,0515_fc_s03_false_cat_35_n02123045_10645.png
subject-03,1,516,1.45991492271423,dog,bear,true,0516_fc_s03_true_bear_35_n02133161_2800.png
subject-03,1,517,0.9964759349823,truck,truck,false,0517_fc_s03_false_truck_35_n04467665_4239.png
subject-03,1,518,1.32103705406189,truck,truck,true,0518_fc_s03_true_truck_35_n03417042_22683.png
subject-03,1,519,1.06737804412842,car,car,true,0519_fc_s03_true_car_35_n04285008_3950.png
subject-03,1,520,0.84206485748291,clock,clock,true,0520_fc_s03_true_clock_35_n04548280_64.png
subject-03,1,521,1.08664989471436,chair,oven,true,0521_fc_s03_true_oven_35_n04111531_10884.png
subject-03,1,522,0.790533065795898,bicycle,bicycle,true,0522_fc_s03_true_bicycle_35_n03792782_32689.png
subject-03,1,523,1.0111620426178,car,car,false,0523_fc_s03_false_car_35_n02814533_13278.png
subject-03,1,524,0.738726139068604,oven,boat,false,0524_fc_s03_false_boat_35_n03344393_5176.png
subject-03,1,525,0.675003051757812,boat,boat,false,0525_fc_s03_false_boat_35_n03344393_1074.png
subject-03,1,526,1.31115007400513,dog,bear,true,0526_fc_s03_true_bear_35_n02134084_10224.png
subject-03,1,527,0.793848037719727,clock,clock,false,0527_fc_s03_false_clock_35_n03196217_10518.png
subject-03,1,528,0.984089136123657,boat,bird,false,0528_fc_s03_false_bird_35_n02018207_23568.png
subject-03,1,529,0.762542009353638,clock,clock,false,0529_fc_s03_false_clock_35_n03196217_427.png
subject-03,1,530,1.17547512054443,dog,bear,false,0530_fc_s03_false_bear_35_n02132136_5517.png
subject-03,1,531,0.613225936889648,clock,clock,true,0531_fc_s03_true_clock_35_n02708093_6672.png
subject-03,1,532,1.29875206947327,chair,truck,true,0532_fc_s03_true_truck_35_n03796401_1425.png
subject-03,1,533,1.08340406417847,cat,dog,true,0533_fc_s03_true_dog_35_n02097298_9540.png
subject-03,1,534,0.650058031082153,bicycle,bicycle,true,0534_fc_s03_true_bicycle_35_n02835271_10166.png
subject-03,1,535,0.831822156906128,cat,cat,false,0535_fc_s03_false_cat_35_n02124075_10971.png
subject-03,1,536,1.00649285316467,bottle,bottle,true,0536_fc_s03_true_bottle_35_n02823428_56.png
subject-03,1,537,NaN,na,elephant,false,0537_fc_s03_false_elephant_35_n02504013_1720.png
subject-03,1,538,0.719293117523193,boat,boat,true,0538_fc_s03_true_boat_35_n02951358_2910.png
subject-03,1,539,0.9237220287323,car,car,false,0539_fc_s03_false_car_35_n03100240_23804.png
subject-03,1,540,0.944165945053101,boat,boat,true,0540_fc_s03_true_boat_35_n03344393_6560.png
subject-03,1,541,0.971463918685913,bicycle,bicycle,false,0541_fc_s03_false_bicycle_35_n02835271_3677.png
subject-03,1,542,NaN,na,bear,true,0542_fc_s03_true_bear_35_n02134418_4850.png
subject-03,1,543,1.32809615135193,dog,dog,false,0543_fc_s03_false_dog_35_n02086240_12763.png
subject-03,1,544,0.796746015548706,cat,cat,true,0544_fc_s03_true_cat_35_n02123394_3218.png
subject-03,1,545,0.771020889282227,oven,keyboard,false,0545_fc_s03_false_keyboard_35_n04505470_10786.png
subject-03,1,546,0.959121942520142,elephant,elephant,false,0546_fc_s03_false_elephant_35_n02504013_6469.png
subject-03,1,547,0.903416872024536,car,car,true,0547_fc_s03_true_car_35_n02814533_77053.png
subject-03,1,548,0.831876993179321,cat,cat,false,0548_fc_s03_false_cat_35_n02125311_23734.png
subject-03,1,549,0.952150106430054,dog,bear,false,0549_fc_s03_false_bear_35_n02134084_33375.png
subject-03,1,550,1.29240298271179,elephant,elephant,false,0550_fc_s03_false_elephant_35_n02504458_6199.png
subject-03,1,551,0.698703050613403,oven,oven,true,0551_fc_s03_true_oven_35_n04111531_3976.png
subject-03,1,552,0.710903882980347,boat,boat,false,0552_fc_s03_false_boat_35_n03662601_8096.png
subject-03,1,553,1.12360405921936,cat,dog,false,0553_fc_s03_false_dog_35_n02086079_7380.png
subject-03,1,554,0.800231218338013,boat,airplane,false,0554_fc_s03_false_airplane_35_n02690373_9264.png
subject-03,1,555,0.782394170761108,cat,cat,true,0555_fc_s03_true_cat_35_n02123597_1219.png
subject-03,1,556,1.26132392883301,bottle,oven,false,0556_fc_s03_false_oven_35_n04111531_15296.png
subject-03,1,557,0.681150913238525,bicycle,bicycle,false,0557_fc_s03_false_bicycle_35_n03792782_12503.png
subject-03,1,558,0.871408939361572,clock,clock,true,0558_fc_s03_true_clock_35_n02708093_3623.png
subject-03,1,559,1.40581703186035,dog,elephant,true,0559_fc_s03_true_elephant_35_n02504013_4880.png
subject-03,1,560,1.12787580490112,bird,bird,true,0560_fc_s03_true_bird_35_n02018207_6470.png
subject-03,1,561,1.19443011283875,truck,truck,false,0561_fc_s03_false_truck_35_n04467665_22914.png
subject-03,1,562,0.751786947250366,boat,boat,false,0562_fc_s03_false_boat_35_n04612504_30603.png
subject-03,1,563,1.08001589775085,knife,knife,true,0563_fc_s03_true_knife_35_n03041632_56436.png
subject-03,1,564,0.902493953704834,knife,knife,false,0564_fc_s03_false_knife_35_n03041632_30457.png
subject-03,1,565,0.768921852111816,oven,chair,true,0565_fc_s03_true_chair_35_n02791124_13701.png
subject-03,1,566,1.06724500656128,airplane,airplane,true,0566_fc_s03_true_airplane_35_n02690373_8950.png
subject-03,1,567,0.955274820327759,clock,clock,true,0567_fc_s03_true_clock_35_n03196217_3361.png
subject-03,1,568,0.953948020935059,clock,clock,false,0568_fc_s03_false_clock_35_n03196217_5339.png
subject-03,1,569,NaN,na,boat,true,0569_fc_s03_true_boat_35_n04612504_4447.png
subject-03,1,570,1.16900300979614,chair,chair,true,0570_fc_s03_true_chair_35_n02791124_7019.png
subject-03,1,571,1.42143392562866,bird,bear,true,0571_fc_s03_true_bear_35_n02132136_6900.png
subject-03,1,572,0.849437952041626,airplane,airplane,false,0572_fc_s03_false_airplane_35_n02690373_9618.png
subject-03,1,573,1.14437818527222,cat,cat,true,0573_fc_s03_true_cat_35_n02125311_7148.png
subject-03,1,574,0.818490028381348,bottle,bottle,true,0574_fc_s03_true_bottle_35_n02823428_79.png
subject-03,1,575,1.20081996917725,cat,cat,true,0575_fc_s03_true_cat_35_n02125311_33014.png
subject-03,1,576,1.3879828453064,dog,bicycle,false,0576_fc_s03_false_bicycle_35_n03792782_16568.png
subject-03,1,577,1.07805585861206,boat,boat,false,0577_fc_s03_false_boat_35_n02951358_1586.png
subject-03,1,578,0.808467149734497,oven,oven,true,0578_fc_s03_true_oven_35_n04111531_584.png
subject-03,1,579,0.996466159820557,chair,knife,false,0579_fc_s03_false_knife_35_n03041632_22330.png
subject-03,1,580,0.902959108352661,airplane,airplane,true,0580_fc_s03_true_airplane_35_n02690373_7748.png
subject-03,1,581,1.09927797317505,bicycle,bicycle,false,0581_fc_s03_false_bicycle_35_n03792782_21125.png
subject-03,1,582,0.809473991394043,boat,boat,false,0582_fc_s03_false_boat_35_n03662601_3938.png
subject-03,1,583,1.27398586273193,dog,bear,true,0583_fc_s03_true_bear_35_n02134084_20875.png
subject-03,1,584,1.02010583877563,clock,clock,false,0584_fc_s03_false_clock_35_n03196217_50.png
subject-03,1,585,0.89919900894165,boat,boat,true,0585_fc_s03_true_boat_35_n04612504_1582.png
subject-03,1,586,1.14966011047363,knife,knife,true,0586_fc_s03_true_knife_35_n03041632_32459.png
subject-03,1,587,1.17807388305664,keyboard,keyboard,false,0587_fc_s03_false_keyboard_35_n03085013_23192.png
subject-03,1,588,1.06723308563232,truck,truck,false,0588_fc_s03_false_truck_35_n03796401_99.png
subject-03,1,589,0.887349128723145,keyboard,keyboard,false,0589_fc_s03_false_keyboard_35_n03085013_24363.png
subject-03,1,590,0.861449003219604,airplane,airplane,true,0590_fc_s03_true_airplane_35_n02690373_4412.png
subject-03,1,591,0.81865406036377,car,car,true,0591_fc_s03_true_car_35_n02814533_25877.png
subject-03,1,592,0.954734086990356,airplane,airplane,true,0592_fc_s03_true_airplane_35_n02690373_9760.png
subject-03,1,593,1.02117490768433,cat,bear,false,0593_fc_s03_false_bear_35_n02132136_5453.png
subject-03,1,594,0.932368040084839,chair,chair,true,0594_fc_s03_true_chair_35_n04429376_29954.png
subject-03,1,595,0.914412975311279,car,car,false,0595_fc_s03_false_car_35_n03100240_12104.png
subject-03,1,596,1.14854598045349,bottle,bottle,false,0596_fc_s03_false_bottle_35_n03937543_1705.png
subject-03,1,597,0.962832927703857,cat,cat,false,0597_fc_s03_false_cat_35_n02123394_1414.png
subject-03,1,598,1.25934100151062,chair,clock,true,0598_fc_s03_true_clock_35_n02708093_3723.png
subject-03,1,599,0.979394912719727,keyboard,keyboard,true,0599_fc_s03_true_keyboard_35_n03085013_20682.png
subject-03,1,600,0.969560146331787,clock,clock,false,0600_fc_s03_false_clock_35_n03196217_2536.png
subject-03,1,601,0.875483989715576,bicycle,bicycle,true,0601_fc_s03_true_bicycle_35_n02835271_19676.png
subject-03,1,602,0.971947193145752,bottle,bottle,true,0602_fc_s03_true_bottle_35_n03937543_1883.png
subject-03,1,603,1.06237316131592,bottle,bottle,true,0603_fc_s03_true_bottle_35_n02823428_12738.png
subject-03,1,604,0.898876190185547,chair,chair,false,0604_fc_s03_false_chair_35_n04099969_19060.png
subject-03,1,605,1.0114598274231,bottle,bottle,false,0605_fc_s03_false_bottle_35_n03983396_5148.png
subject-03,1,606,1.20136499404907,car,car,true,0606_fc_s03_true_car_35_n03100240_7592.png
subject-03,1,607,1.11303496360779,cat,dog,false,0607_fc_s03_false_dog_35_n02093428_10575.png
subject-03,1,608,0.749418973922729,boat,boat,false,0608_fc_s03_false_boat_35_n02951358_32930.png
subject-03,1,609,1.22771906852722,truck,truck,false,0609_fc_s03_false_truck_35_n04467665_28301.png
subject-03,1,610,NaN,na,knife,false,0610_fc_s03_false_knife_35_n03041632_33255.png
subject-03,1,611,0.814558982849121,airplane,airplane,false,0611_fc_s03_false_airplane_35_n02690373_9317.png
subject-03,1,612,0.934613943099976,dog,dog,true,0612_fc_s03_true_dog_35_n02098105_2086.png
subject-03,1,613,1.03306698799133,bird,bird,true,0613_fc_s03_true_bird_35_n01824575_7960.png
subject-03,1,614,1.06683611869812,car,car,false,0614_fc_s03_false_car_35_n03100240_17730.png
subject-03,1,615,0.995245933532715,cat,cat,true,0615_fc_s03_true_cat_35_n02124075_8368.png
subject-03,1,616,1.06960797309875,bottle,bottle,true,0616_fc_s03_true_bottle_35_n03983396_5209.png
subject-03,1,617,0.98413610458374,keyboard,keyboard,true,0617_fc_s03_true_keyboard_35_n04505470_4417.png
subject-03,1,618,0.980291128158569,dog,bear,true,0618_fc_s03_true_bear_35_n02134084_2921.png
subject-03,1,619,0.678607940673828,boat,bear,true,0619_fc_s03_true_bear_35_n02132136_9249.png
subject-03,1,620,1.09844613075256,dog,dog,false,0620_fc_s03_false_dog_35_n02100877_3141.png
subject-03,1,621,0.848261117935181,oven,clock,false,0621_fc_s03_false_clock_35_n03196217_7741.png
subject-03,1,622,0.676743984222412,cat,cat,true,0622_fc_s03_true_cat_35_n02123394_10349.png
subject-03,1,623,0.820924997329712,cat,cat,false,0623_fc_s03_false_cat_35_n02125311_3380.png
subject-03,1,624,1.19219899177551,dog,dog,false,0624_fc_s03_false_dog_35_n02091831_2692.png
subject-03,1,625,1.05856585502625,chair,chair,false,0625_fc_s03_false_chair_35_n03376595_5112.png
subject-03,1,626,NaN,na,elephant,true,0626_fc_s03_true_elephant_35_n02504458_461.png
subject-03,1,627,1.08913493156433,dog,dog,false,0627_fc_s03_false_dog_35_n02093991_7954.png
subject-03,1,628,0.817611932754517,clock,clock,true,0628_fc_s03_true_clock_35_n04548280_5018.png
subject-03,1,629,0.86201000213623,keyboard,keyboard,false,0629_fc_s03_false_keyboard_35_n04505470_10558.png
subject-03,1,630,1.02493906021118,knife,knife,false,0630_fc_s03_false_knife_35_n03041632_15444.png
subject-03,1,631,0.815618991851807,bottle,bottle,true,0631_fc_s03_true_bottle_35_n03983396_3047.png
subject-03,1,632,0.889878034591675,knife,knife,false,0632_fc_s03_false_knife_35_n03041632_39840.png
subject-03,1,633,1.15623998641968,elephant,elephant,false,0633_fc_s03_false_elephant_35_n02504013_1430.png
subject-03,1,634,0.862812042236328,clock,clock,true,0634_fc_s03_true_clock_35_n04548280_8156.png
subject-03,1,635,1.00700902938843,bicycle,bicycle,true,0635_fc_s03_true_bicycle_35_n03792782_5160.png
subject-03,1,636,1.03222107887268,elephant,elephant,false,0636_fc_s03_false_elephant_35_n02504013_464.png
subject-03,1,637,1.32866597175598,bird,bird,false,0637_fc_s03_false_bird_35_n01796340_2199.png
subject-03,1,638,0.848433017730713,cat,cat,false,0638_fc_s03_false_cat_35_n02123597_9056.png
subject-03,1,639,1.38895106315613,truck,truck,true,0639_fc_s03_true_truck_35_n04467665_23247.png
subject-03,1,640,1.50025606155396,elephant,elephant,false,0640_fc_s03_false_elephant_35_n02504458_6120.png
subject-03,1,641,1.33349514007568,dog,bear,false,0641_fc_s03_false_bear_35_n02134084_2900.png
subject-03,1,642,0.847586154937744,knife,knife,false,0642_fc_s03_false_knife_35_n03041632_8151.png
subject-03,1,643,NaN,na,bird,false,0643_fc_s03_false_bird_35_n02006656_6894.png
subject-03,1,644,1.08479189872742,truck,truck,false,0644_fc_s03_false_truck_35_n03796401_4605.png
subject-03,1,645,1.13527917861938,bicycle,bicycle,true,0645_fc_s03_true_bicycle_35_n03792782_4591.png
subject-03,1,646,NaN,na,knife,false,0646_fc_s03_false_knife_35_n03041632_82197.png
subject-03,1,647,0.86202597618103,cat,cat,true,0647_fc_s03_true_cat_35_n02123394_3179.png
subject-03,1,648,0.806015014648438,bicycle,bicycle,false,0648_fc_s03_false_bicycle_35_n03792782_9086.png
subject-03,1,649,1.01501798629761,truck,truck,false,0649_fc_s03_false_truck_35_n03417042_10752.png
subject-03,1,650,1.14372420310974,oven,bottle,false,0650_fc_s03_false_bottle_35_n04557648_704.png
subject-03,1,651,1.26394200325012,car,car,false,0651_fc_s03_false_car_35_n03100240_6.png
subject-03,1,652,1.33489108085632,bear,bear,false,0652_fc_s03_false_bear_35_n02133161_13921.png
subject-03,1,653,0.941502094268799,oven,oven,true,0653_fc_s03_true_oven_35_n04111531_4918.png
subject-03,1,654,0.907423973083496,car,car,true,0654_fc_s03_true_car_35_n02814533_41058.png
subject-03,1,655,1.23232293128967,dog,dog,false,0655_fc_s03_false_dog_35_n02086646_8953.png
subject-03,1,656,NaN,na,bicycle,true,0656_fc_s03_true_bicycle_35_n03792782_1851.png
subject-03,1,657,0.735114097595215,cat,cat,true,0657_fc_s03_true_cat_35_n02123045_12069.png
subject-03,1,658,1.11719083786011,knife,knife,false,0658_fc_s03_false_knife_35_n03041632_9488.png
subject-03,1,659,0.951400995254517,clock,clock,true,0659_fc_s03_true_clock_35_n02708093_5169.png
subject-03,1,660,1.05775594711304,truck,truck,false,0660_fc_s03_false_truck_35_n04467665_70509.png
subject-03,1,661,0.77009105682373,clock,clock,false,0661_fc_s03_false_clock_35_n04548280_11763.png
subject-03,1,662,1.18195104598999,boat,boat,true,0662_fc_s03_true_boat_35_n02951358_31148.png
subject-03,1,663,1.08605408668518,bird,bird,true,0663_fc_s03_true_bird_35_n01855672_15813.png
subject-03,1,664,0.992752075195312,bird,bird,true,0664_fc_s03_true_bird_35_n01614925_9157.png
subject-03,1,665,0.737300872802734,clock,clock,false,0665_fc_s03_false_clock_35_n04548280_7800.png
subject-03,1,666,NaN,na,chair,false,0666_fc_s03_false_chair_35_n03376595_17811.png
subject-03,1,667,1.500333070755,dog,bear,false,0667_fc_s03_false_bear_35_n02134084_1999.png
subject-03,1,668,0.923140048980713,clock,clock,false,0668_fc_s03_false_clock_35_n04548280_7047.png
subject-03,1,669,NaN,na,bicycle,true,0669_fc_s03_true_bicycle_35_n03792782_3759.png
subject-03,1,670,0.749809980392456,boat,boat,true,0670_fc_s03_true_boat_35_n03344393_10556.png
subject-03,1,671,1.40602803230286,bottle,bottle,true,0671_fc_s03_true_bottle_35_n04579145_78.png
subject-03,1,672,1.02840709686279,bicycle,bicycle,true,0672_fc_s03_true_bicycle_35_n02835271_7214.png
subject-03,1,673,1.20694780349731,dog,bear,true,0673_fc_s03_true_bear_35_n02132136_1709.png
subject-03,1,674,0.981410980224609,truck,truck,false,0674_fc_s03_false_truck_35_n03796401_540.png
subject-03,1,675,1.46932101249695,bottle,bottle,false,0675_fc_s03_false_bottle_35_n04557648_27488.png
subject-03,1,676,1.17588496208191,airplane,airplane,true,0676_fc_s03_true_airplane_35_n02690373_6336.png
subject-03,1,677,1.04218912124634,clock,clock,false,0677_fc_s03_false_clock_35_n04548280_399.png
subject-03,1,678,0.778555154800415,clock,clock,true,0678_fc_s03_true_clock_35_n02708093_2845.png
subject-03,1,679,1.47513389587402,truck,truck,false,0679_fc_s03_false_truck_35_n04467665_79452.png
subject-03,1,680,1.2192280292511,car,chair,true,0680_fc_s03_true_chair_35_n03376595_2766.png
subject-03,1,681,1.05334091186523,chair,chair,false,0681_fc_s03_false_chair_35_n03376595_15191.png
subject-03,1,682,1.12821412086487,car,car,true,0682_fc_s03_true_car_35_n02814533_81092.png
subject-03,1,683,1.36461710929871,cat,chair,false,0683_fc_s03_false_chair_35_n02791124_7063.png
subject-03,1,684,1.44691586494446,bear,bear,true,0684_fc_s03_true_bear_35_n02134084_8105.png
subject-03,1,685,0.84284496307373,bicycle,bicycle,true,0685_fc_s03_true_bicycle_35_n02835271_5657.png
subject-03,1,686,0.895319938659668,dog,dog,true,0686_fc_s03_true_dog_35_n02106550_2360.png
subject-03,1,687,1.45389199256897,airplane,truck,false,0687_fc_s03_false_truck_35_n04467665_19131.png
subject-03,1,688,0.952100038528442,keyboard,keyboard,true,0688_fc_s03_true_keyboard_35_n03085013_21466.png
subject-03,1,689,0.970363140106201,truck,truck,true,0689_fc_s03_true_truck_35_n03417042_8298.png
subject-03,1,690,1.30679392814636,elephant,elephant,true,0690_fc_s03_true_elephant_35_n02504013_3459.png
subject-03,1,691,0.896965980529785,keyboard,keyboard,false,0691_fc_s03_false_keyboard_35_n04505470_284.png
subject-03,1,692,1.10126209259033,truck,truck,true,0692_fc_s03_true_truck_35_n03417042_2132.png
subject-03,1,693,1.26183414459229,bicycle,bicycle,false,0693_fc_s03_false_bicycle_35_n02835271_7900.png
subject-03,1,694,1.49255084991455,dog,dog,false,0694_fc_s03_false_dog_35_n02097474_17122.png
subject-03,1,695,1.05231904983521,oven,knife,true,0695_fc_s03_true_knife_35_n03041632_4044.png
subject-03,1,696,0.772514820098877,keyboard,keyboard,true,0696_fc_s03_true_keyboard_35_n03085013_20749.png
subject-03,1,697,0.822786808013916,knife,knife,false,0697_fc_s03_false_knife_35_n03041632_120.png
subject-03,1,698,NaN,na,car,true,0698_fc_s03_true_car_35_n04285008_11688.png
subject-03,1,699,1.08793997764587,dog,dog,true,0699_fc_s03_true_dog_35_n02090721_139.png
subject-03,1,700,1.41278409957886,oven,knife,true,0700_fc_s03_true_knife_35_n03041632_751.png
subject-03,1,701,1.34673094749451,bicycle,bicycle,true,0701_fc_s03_true_bicycle_35_n03792782_35183.png
subject-03,1,702,0.939234972000122,clock,clock,true,0702_fc_s03_true_clock_35_n03196217_12291.png
subject-03,1,703,1.24376893043518,boat,boat,true,0703_fc_s03_true_boat_35_n04273569_28.png
subject-03,1,704,0.8507080078125,bicycle,bicycle,true,0704_fc_s03_true_bicycle_35_n02835271_3027.png
subject-03,1,705,1.49889516830444,car,car,true,0705_fc_s03_true_car_35_n02814533_3843.png
subject-03,1,706,0.983986139297485,car,car,true,0706_fc_s03_true_car_35_n02814533_34383.png
subject-03,1,707,1.02028799057007,bottle,bottle,false,0707_fc_s03_false_bottle_35_n04591713_3305.png
subject-03,1,708,1.14035606384277,truck,truck,true,0708_fc_s03_true_truck_35_n03417042_5136.png
subject-03,1,709,0.883081912994385,bottle,bottle,false,0709_fc_s03_false_bottle_35_n03983396_3568.png
subject-03,1,710,0.873253107070923,cat,cat,true,0710_fc_s03_true_cat_35_n02123394_5438.png
subject-03,1,711,1.02379012107849,oven,oven,false,0711_fc_s03_false_oven_35_n04111531_924.png
subject-03,1,712,NaN,na,knife,false,0712_fc_s03_false_knife_35_n03041632_28009.png
subject-03,1,713,0.77199387550354,cat,cat,true,0713_fc_s03_true_cat_35_n02123394_2872.png
subject-03,1,714,1.32273316383362,dog,elephant,true,0714_fc_s03_true_elephant_35_n02504458_6473.png
subject-03,1,715,1.03669595718384,dog,dog,true,0715_fc_s03_true_dog_35_n02101006_6314.png
subject-03,1,716,0.825323104858398,bird,bird,false,0716_fc_s03_false_bird_35_n02018795_4395.png
subject-03,1,717,1.41310596466064,bird,bird,false,0717_fc_s03_false_bird_35_n01824575_7881.png
subject-03,1,718,0.815640926361084,keyboard,keyboard,true,0718_fc_s03_true_keyboard_35_n04505470_3259.png
subject-03,1,719,1.38998985290527,truck,truck,true,0719_fc_s03_true_truck_35_n04467665_51949.png
subject-03,1,720,1.50036597251892,truck,truck,true,0720_fc_s03_true_truck_35_n03417042_19020.png
subject-03,1,721,0.814050197601318,cat,cat,false,0721_fc_s03_false_cat_35_n02123394_741.png
subject-03,1,722,0.733512878417969,clock,clock,false,0722_fc_s03_false_clock_35_n04548280_7892.png
subject-03,1,723,1.07576704025269,truck,car,false,0723_fc_s03_false_car_35_n02814533_74702.png
subject-03,1,724,1.28324103355408,dog,oven,false,0724_fc_s03_false_oven_35_n04111531_1989.png
subject-03,1,725,1.50002694129944,boat,boat,false,0725_fc_s03_false_boat_35_n03662601_22070.png
subject-03,1,726,0.817592144012451,knife,knife,true,0726_fc_s03_true_knife_35_n03041632_131.png
subject-03,1,727,0.876101016998291,keyboard,keyboard,true,0727_fc_s03_true_keyboard_35_n03085013_2272.png
subject-03,1,728,1.09577703475952,bicycle,bicycle,false,0728_fc_s03_false_bicycle_35_n02835271_26897.png
subject-03,1,729,NaN,na,truck,false,0729_fc_s03_false_truck_35_n03417042_3228.png
subject-03,1,730,1.00652694702148,airplane,airplane,true,0730_fc_s03_true_airplane_35_n02690373_9828.png
subject-03,1,731,1.14894914627075,bird,bear,false,0731_fc_s03_false_bear_35_n02134418_3176.png
subject-03,1,732,0.817122936248779,elephant,elephant,false,0732_fc_s03_false_elephant_35_n02504013_2924.png
subject-03,1,733,1.3135998249054,dog,dog,false,0733_fc_s03_false_dog_35_n02113712_3531.png
subject-03,1,734,1.04196691513062,cat,keyboard,false,0734_fc_s03_false_keyboard_35_n03085013_19515.png
subject-03,1,735,1.33822989463806,dog,elephant,true,0735_fc_s03_true_elephant_35_n02504013_10437.png
subject-03,1,736,0.952713966369629,airplane,airplane,true,0736_fc_s03_true_airplane_35_n02690373_4964.png
subject-03,1,737,1.3650369644165,dog,bird,true,0737_fc_s03_true_bird_35_n01601694_14616.png
subject-03,1,738,0.847730875015259,knife,knife,true,0738_fc_s03_true_knife_35_n03041632_1964.png
subject-03,1,739,NaN,na,bottle,false,0739_fc_s03_false_bottle_35_n02823428_2100.png
subject-03,1,740,1.15813612937927,airplane,airplane,false,0740_fc_s03_false_airplane_35_n02690373_13613.png
subject-03,1,741,0.702514171600342,car,car,true,0741_fc_s03_true_car_35_n03100240_7841.png
subject-03,1,742,1.14526414871216,car,car,false,0742_fc_s03_false_car_35_n02814533_21120.png
subject-03,1,743,1.3118109703064,oven,bicycle,false,0743_fc_s03_false_bicycle_35_n02835271_14070.png
subject-03,1,744,0.725689172744751,keyboard,keyboard,true,0744_fc_s03_true_keyboard_35_n03085013_24309.png
subject-03,1,745,1.31413292884827,oven,oven,true,0745_fc_s03_true_oven_35_n04111531_8553.png
subject-03,1,746,1.25867009162903,dog,dog,true,0746_fc_s03_true_dog_35_n02107312_2893.png
subject-03,1,747,0.872727870941162,bicycle,bicycle,false,0747_fc_s03_false_bicycle_35_n02835271_21573.png
subject-03,1,748,1.11547112464905,bird,truck,false,0748_fc_s03_false_truck_35_n03417042_12304.png
subject-03,1,749,NaN,na,cat,true,0749_fc_s03_true_cat_35_n02123597_9664.png
subject-03,1,750,0.933662891387939,airplane,airplane,false,0750_fc_s03_false_airplane_35_n02690373_7614.png
subject-03,1,751,1.25846004486084,cat,bird,false,0751_fc_s03_false_bird_35_n01797886_12241.png
subject-03,1,752,0.826457023620605,chair,chair,true,0752_fc_s03_true_chair_35_n04099969_2523.png
subject-03,1,753,0.922945022583008,chair,chair,true,0753_fc_s03_true_chair_35_n04099969_15780.png
subject-03,1,754,0.767441034317017,bicycle,bicycle,true,0754_fc_s03_true_bicycle_35_n03792782_40598.png
subject-03,1,755,1.50045394897461,bird,bear,true,0755_fc_s03_true_bear_35_n02134418_873.png
subject-03,1,756,0.907883882522583,cat,cat,false,0756_fc_s03_false_cat_35_n02123394_821.png
subject-03,1,757,0.995009899139404,airplane,airplane,false,0757_fc_s03_false_airplane_35_n02690373_6210.png
subject-03,1,758,1.0073709487915,car,car,false,0758_fc_s03_false_car_35_n04285008_15101.png
subject-03,1,759,1.05953598022461,oven,elephant,false,0759_fc_s03_false_elephant_35_n02504013_11159.png
subject-03,1,760,0.884542942047119,car,car,true,0760_fc_s03_true_car_35_n04285008_11451.png
subject-03,1,761,1.08754706382751,dog,dog,false,0761_fc_s03_false_dog_35_n02088632_7827.png
subject-03,1,762,1.17824602127075,chair,bottle,false,0762_fc_s03_false_bottle_35_n04560804_4192.png
subject-03,1,763,1.08520007133484,dog,dog,true,0763_fc_s03_true_dog_35_n02096585_2503.png
subject-03,1,764,1.18893194198608,cat,dog,true,0764_fc_s03_true_dog_35_n02099601_262.png
subject-03,1,765,1.06292200088501,knife,knife,true,0765_fc_s03_true_knife_35_n03041632_30573.png
subject-03,1,766,1.22131609916687,airplane,airplane,false,0766_fc_s03_false_airplane_35_n02690373_6773.png
subject-03,1,767,0.973553895950317,airplane,airplane,false,0767_fc_s03_false_airplane_35_n02690373_4552.png
subject-03,1,768,1.22387790679932,knife,knife,false,0768_fc_s03_false_knife_35_n03041632_44230.png
subject-03,1,769,0.892508983612061,cat,cat,true,0769_fc_s03_true_cat_35_n02124075_4946.png
subject-03,1,770,0.896328926086426,keyboard,keyboard,true,0770_fc_s03_true_keyboard_35_n04505470_8148.png
subject-03,1,771,0.670344114303589,boat,boat,true,0771_fc_s03_true_boat_35_n03662601_7177.png
subject-03,1,772,0.903220891952515,keyboard,airplane,false,0772_fc_s03_false_airplane_35_n02690373_10455.png
subject-03,1,773,1.42359805107117,truck,truck,true,0773_fc_s03_true_truck_35_n04467665_23080.png
subject-03,1,774,0.79755711555481,oven,oven,false,0774_fc_s03_false_oven_35_n04111531_6346.png
subject-03,1,775,0.824153900146484,clock,clock,true,0775_fc_s03_true_clock_35_n02708093_5096.png
subject-03,1,776,0.966436147689819,knife,knife,true,0776_fc_s03_true_knife_35_n03041632_84869.png
subject-03,1,777,0.932881116867065,cat,dog,false,0777_fc_s03_false_dog_35_n02111129_5187.png
subject-03,1,778,0.776762008666992,oven,bear,false,0778_fc_s03_false_bear_35_n02134084_22029.png
subject-03,1,779,0.973491907119751,oven,oven,false,0779_fc_s03_false_oven_35_n04111531_22120.png
subject-03,1,780,1.02557301521301,cat,cat,false,0780_fc_s03_false_cat_35_n02123597_5655.png
subject-03,1,781,1.1220269203186,bird,bird,true,0781_fc_s03_true_bird_35_n01560419_8272.png
subject-03,1,782,1.26659893989563,oven,oven,false,0782_fc_s03_false_oven_35_n04111531_11655.png
subject-03,1,783,1.14864206314087,bird,bird,false,0783_fc_s03_false_bird_35_n01855672_13824.png
subject-03,1,784,0.668774843215942,boat,boat,true,0784_fc_s03_true_boat_35_n04273569_1450.png
subject-03,1,785,1.04341006278992,dog,dog,true,0785_fc_s03_true_dog_35_n02108422_3297.png
subject-03,1,786,1.43173789978027,dog,dog,true,0786_fc_s03_true_dog_35_n02113624_5439.png
subject-03,1,787,0.975686073303223,bird,bird,true,0787_fc_s03_true_bird_35_n01843383_2632.png
subject-03,1,788,1.25005602836609,elephant,elephant,false,0788_fc_s03_false_elephant_35_n02504013_9983.png
subject-03,1,789,NaN,na,truck,false,0789_fc_s03_false_truck_35_n03417042_3789.png
subject-03,1,790,1.37468886375427,knife,knife,false,0790_fc_s03_false_knife_35_n03041632_7205.png
subject-03,1,791,0.780945062637329,keyboard,keyboard,true,0791_fc_s03_true_keyboard_35_n04505470_123.png
subject-03,1,792,1.25308704376221,elephant,elephant,false,0792_fc_s03_false_elephant_35_n02504013_3306.png
subject-03,1,793,1.11358594894409,clock,clock,false,0793_fc_s03_false_clock_35_n03196217_11063.png
subject-03,1,794,0.91217303276062,elephant,elephant,false,0794_fc_s03_false_elephant_35_n02504458_3427.png
subject-03,1,795,0.840500831604004,knife,knife,true,0795_fc_s03_true_knife_35_n03041632_5162.png
subject-03,1,796,NaN,na,bicycle,true,0796_fc_s03_true_bicycle_35_n02835271_5861.png
subject-03,1,797,1.13056612014771,airplane,airplane,true,0797_fc_s03_true_airplane_35_n02690373_6342.png
subject-03,1,798,NaN,na,elephant,true,0798_fc_s03_true_elephant_35_n02504458_6960.png
subject-03,1,799,1.30572295188904,dog,dog,true,0799_fc_s03_true_dog_35_n02112018_13884.png
subject-03,1,800,0.736217975616455,bicycle,bicycle,false,0800_fc_s03_false_bicycle_35_n02835271_6002.png
subject-03,1,801,1.05958008766174,cat,cat,true,0801_fc_s03_true_cat_35_n02123597_7702.png
subject-03,1,802,1.45521903038025,bear,bear,true,0802_fc_s03_true_bear_35_n02134084_973.png
subject-03,1,803,1.48902297019958,cat,bear,true,0803_fc_s03_true_bear_35_n02134084_5794.png
subject-03,1,804,1.13363099098206,bird,bird,true,0804_fc_s03_true_bird_35_n02007558_7403.png
subject-03,1,805,0.8559250831604,clock,clock,false,0805_fc_s03_false_clock_35_n04548280_6200.png
subject-03,1,806,1.34312009811401,dog,bear,false,0806_fc_s03_false_bear_35_n02134418_12457.png
subject-03,1,807,0.809569120407104,knife,knife,true,0807_fc_s03_true_knife_35_n03041632_39952.png
subject-03,1,808,0.862024068832397,elephant,elephant,false,0808_fc_s03_false_elephant_35_n02504458_5169.png
subject-03,1,809,1.0205090045929,chair,chair,false,0809_fc_s03_false_chair_35_n04099969_7959.png
subject-03,1,810,1.37059783935547,car,truck,true,0810_fc_s03_true_truck_35_n04467665_18985.png
subject-03,1,811,0.7551429271698,keyboard,keyboard,true,0811_fc_s03_true_keyboard_35_n03085013_35084.png
subject-03,1,812,NaN,na,bear,false,0812_fc_s03_false_bear_35_n02133161_5904.png
subject-03,1,813,1.16440010070801,truck,truck,true,0813_fc_s03_true_truck_35_n03417042_10677.png
subject-03,1,814,NaN,na,bicycle,true,0814_fc_s03_true_bicycle_35_n03792782_13950.png
subject-03,1,815,0.836693048477173,clock,clock,false,0815_fc_s03_false_clock_35_n03196217_5787.png
subject-03,1,816,1.50020003318787,dog,dog,false,0816_fc_s03_false_dog_35_n02101556_6227.png
subject-03,1,817,1.29149508476257,dog,dog,true,0817_fc_s03_true_dog_35_n02102177_2915.png
subject-03,1,818,0.708945035934448,keyboard,keyboard,true,0818_fc_s03_true_keyboard_35_n03085013_10984.png
subject-03,1,819,1.12743806838989,oven,chair,false,0819_fc_s03_false_chair_35_n02791124_6368.png
subject-03,1,820,1.50009083747864,dog,elephant,false,0820_fc_s03_false_elephant_35_n02504013_3089.png
subject-03,1,821,1.14538502693176,oven,knife,false,0821_fc_s03_false_knife_35_n03041632_105080.png
subject-03,1,822,1.50020098686218,oven,oven,true,0822_fc_s03_true_oven_35_n04111531_1004.png
subject-03,1,823,0.782763004302979,bicycle,bicycle,true,0823_fc_s03_true_bicycle_35_n02835271_20004.png
subject-03,1,824,1.11948490142822,truck,truck,false,0824_fc_s03_false_truck_35_n03417042_8501.png
subject-03,1,825,1.40782499313354,dog,oven,false,0825_fc_s03_false_oven_35_n04111531_3353.png
subject-03,1,826,NaN,na,knife,true,0826_fc_s03_true_knife_35_n03041632_1006.png
subject-03,1,827,1.23937821388245,oven,bicycle,true,0827_fc_s03_true_bicycle_35_n03792782_752.png
subject-03,1,828,0.878287792205811,bottle,bottle,true,0828_fc_s03_true_bottle_35_n04579145_4704.png
subject-03,1,829,1.20433306694031,elephant,elephant,false,0829_fc_s03_false_elephant_35_n02504013_4081.png
subject-03,1,830,0.986686229705811,cat,cat,false,0830_fc_s03_false_cat_35_n02123597_5460.png
subject-03,1,831,0.861119031906128,keyboard,keyboard,false,0831_fc_s03_false_keyboard_35_n03085013_20487.png
subject-03,1,832,0.826931953430176,oven,oven,true,0832_fc_s03_true_oven_35_n04111531_14329.png
subject-03,1,833,1.12366199493408,dog,dog,true,0833_fc_s03_true_dog_35_n02112018_4564.png
subject-03,1,834,1.22126507759094,keyboard,keyboard,false,0834_fc_s03_false_keyboard_35_n03085013_20914.png
subject-03,1,835,0.757719993591309,boat,boat,true,0835_fc_s03_true_boat_35_n02951358_30280.png
subject-03,1,836,0.940871953964233,boat,boat,false,0836_fc_s03_false_boat_35_n02951358_11446.png
subject-03,1,837,0.991006135940552,chair,chair,false,0837_fc_s03_false_chair_35_n04099969_1690.png
subject-03,1,838,1.49999499320984,chair,chair,false,0838_fc_s03_false_chair_35_n04429376_24679.png
subject-03,1,839,NaN,na,bear,true,0839_fc_s03_true_bear_35_n02134084_18596.png
subject-03,1,840,0.822504997253418,clock,clock,false,0840_fc_s03_false_clock_35_n04548280_13247.png
subject-03,1,841,0.797093152999878,car,car,false,0841_fc_s03_false_car_35_n04285008_9708.png
subject-03,1,842,0.865066051483154,clock,clock,true,0842_fc_s03_true_clock_35_n04548280_9965.png
subject-03,1,843,0.898710966110229,airplane,airplane,true,0843_fc_s03_true_airplane_35_n02690373_1296.png
subject-03,1,844,1.28706383705139,airplane,airplane,false,0844_fc_s03_false_airplane_35_n02690373_10129.png
subject-03,1,845,0.909417152404785,bicycle,bicycle,true,0845_fc_s03_true_bicycle_35_n03792782_52581.png
subject-03,1,846,1.14394998550415,airplane,airplane,false,0846_fc_s03_false_airplane_35_n02690373_14117.png
subject-03,1,847,1.08794498443604,bottle,bottle,false,0847_fc_s03_false_bottle_35_n04579145_4315.png
subject-03,1,848,0.832501173019409,elephant,elephant,true,0848_fc_s03_true_elephant_35_n02504458_6443.png
subject-03,1,849,0.884886026382446,boat,boat,false,0849_fc_s03_false_boat_35_n02951358_5211.png
subject-03,1,850,0.913724899291992,boat,boat,true,0850_fc_s03_true_boat_35_n04612504_9952.png
subject-03,1,851,0.901836156845093,oven,elephant,true,0851_fc_s03_true_elephant_35_n02504013_3800.png
subject-03,1,852,1.50038909912109,car,car,false,0852_fc_s03_false_car_35_n04285008_7267.png
subject-03,1,853,1.38049387931824,truck,truck,true,0853_fc_s03_true_truck_35_n03796401_17504.png
subject-03,1,854,NaN,na,bear,false,0854_fc_s03_false_bear_35_n02132136_686.png
subject-03,1,855,1.19928312301636,dog,dog,false,0855_fc_s03_false_dog_35_n02111277_4767.png
subject-03,1,856,1.27904987335205,chair,knife,true,0856_fc_s03_true_knife_35_n03041632_379.png
subject-03,1,857,1.20651602745056,truck,truck,false,0857_fc_s03_false_truck_35_n03796401_2101.png
subject-03,1,858,1.50005292892456,dog,cat,true,0858_fc_s03_true_cat_35_n02124075_13859.png
subject-03,1,859,1.04169893264771,truck,truck,true,0859_fc_s03_true_truck_35_n04467665_30683.png
subject-03,1,860,0.978416919708252,airplane,airplane,true,0860_fc_s03_true_airplane_35_n02690373_2676.png
subject-03,1,861,1.41226196289062,oven,oven,false,0861_fc_s03_false_oven_35_n04111531_2771.png
subject-03,1,862,1.39456796646118,knife,knife,true,0862_fc_s03_true_knife_35_n03041632_2390.png
subject-03,1,863,1.14499402046204,elephant,elephant,false,0863_fc_s03_false_elephant_35_n02504458_1137.png
subject-03,1,864,1.11346101760864,bird,dog,false,0864_fc_s03_false_dog_35_n02106662_18900.png
subject-03,1,865,1.46470022201538,bird,bird,true,0865_fc_s03_true_bird_35_n02013706_5421.png
subject-03,1,866,1.00063109397888,elephant,elephant,true,0866_fc_s03_true_elephant_35_n02504013_21041.png
subject-03,1,867,NaN,na,cat,false,0867_fc_s03_false_cat_35_n02123159_1425.png
subject-03,1,868,1.34180402755737,dog,dog,true,0868_fc_s03_true_dog_35_n02109961_17494.png
subject-03,1,869,0.932167053222656,car,car,true,0869_fc_s03_true_car_35_n02814533_8695.png
subject-03,1,870,0.91461706161499,boat,boat,true,0870_fc_s03_true_boat_35_n02951358_4363.png
subject-03,1,871,1.18048095703125,keyboard,keyboard,false,0871_fc_s03_false_keyboard_35_n03085013_21243.png
subject-03,1,872,NaN,na,clock,true,0872_fc_s03_true_clock_35_n04548280_575.png
subject-03,1,873,0.761164903640747,oven,oven,false,0873_fc_s03_false_oven_35_n04111531_8793.png
subject-03,1,874,0.987685918807983,bird,bird,true,0874_fc_s03_true_bird_35_n01843383_1689.png
subject-03,1,875,0.908321142196655,elephant,elephant,true,0875_fc_s03_true_elephant_35_n02504458_1971.png
subject-03,1,876,1.11490607261658,keyboard,keyboard,false,0876_fc_s03_false_keyboard_35_n03085013_15432.png
subject-03,1,877,0.965467929840088,car,car,false,0877_fc_s03_false_car_35_n02814533_5183.png
subject-03,1,878,0.955660104751587,clock,clock,false,0878_fc_s03_false_clock_35_n04548280_4073.png
subject-03,1,879,1.03788709640503,boat,boat,false,0879_fc_s03_false_boat_35_n03344393_2357.png
subject-03,1,880,1.07446789741516,cat,cat,false,0880_fc_s03_false_cat_35_n02123159_1821.png
subject-03,1,881,0.732897043228149,cat,dog,false,0881_fc_s03_false_dog_35_n02106382_2747.png
subject-03,1,882,1.50031018257141,elephant,elephant,false,0882_fc_s03_false_elephant_35_n02504458_423.png
subject-03,1,883,0.981045007705688,keyboard,keyboard,false,0883_fc_s03_false_keyboard_35_n04505470_3064.png
subject-03,1,884,1.45369410514832,airplane,airplane,false,0884_fc_s03_false_airplane_35_n02690373_1277.png
subject-03,1,885,1.03018116950989,bottle,bottle,true,0885_fc_s03_true_bottle_35_n03983396_5161.png
subject-03,1,886,1.01029896736145,car,car,false,0886_fc_s03_false_car_35_n04285008_6320.png
subject-03,1,887,0.854712963104248,oven,oven,true,0887_fc_s03_true_oven_35_n04111531_467.png
subject-03,1,888,NaN,na,bear,false,0888_fc_s03_false_bear_35_n02134084_4716.png
subject-03,1,889,0.803375005722046,bottle,bottle,true,0889_fc_s03_true_bottle_35_n04557648_1580.png
subject-03,1,890,0.722804069519043,keyboard,keyboard,true,0890_fc_s03_true_keyboard_35_n04505470_9762.png
subject-03,1,891,1.23546504974365,elephant,elephant,false,0891_fc_s03_false_elephant_35_n02504458_3287.png
subject-03,1,892,0.977684020996094,airplane,airplane,false,0892_fc_s03_false_airplane_35_n02690373_8783.png
subject-03,1,893,1.04364919662476,cat,cat,false,0893_fc_s03_false_cat_35_n02125311_47529.png
subject-03,1,894,0.903954029083252,knife,knife,false,0894_fc_s03_false_knife_35_n03041632_22472.png
subject-03,1,895,1.09997200965881,oven,knife,true,0895_fc_s03_true_knife_35_n03041632_5102.png
subject-03,1,896,1.24239587783813,dog,bear,false,0896_fc_s03_false_bear_35_n02133161_10649.png
subject-03,1,897,1.03317499160767,cat,cat,true,0897_fc_s03_true_cat_35_n02123597_11229.png
subject-03,1,898,0.726167917251587,keyboard,keyboard,false,0898_fc_s03_false_keyboard_35_n03085013_24399.png
subject-03,1,899,1.14442205429077,bird,bird,false,0899_fc_s03_false_bird_35_n01829413_6468.png
subject-03,1,900,1.37245798110962,bear,bear,true,0900_fc_s03_true_bear_35_n02134418_838.png
subject-03,1,901,1.02542805671692,oven,clock,true,0901_fc_s03_true_clock_35_n02708093_4727.png
subject-03,1,902,0.715640068054199,bottle,bottle,false,0902_fc_s03_false_bottle_35_n02823428_5018.png
subject-03,1,903,1.09635591506958,airplane,airplane,false,0903_fc_s03_false_airplane_35_n02690373_10203.png
subject-03,1,904,NaN,na,bear,false,0904_fc_s03_false_bear_35_n02132136_33437.png
subject-03,1,905,NaN,na,elephant,true,0905_fc_s03_true_elephant_35_n02504458_4143.png
subject-03,1,906,1.19580984115601,car,car,false,0906_fc_s03_false_car_35_n03100240_13707.png
subject-03,1,907,1.05611300468445,cat,cat,true,0907_fc_s03_true_cat_35_n02123394_1996.png
subject-03,1,908,1.27438306808472,airplane,airplane,true,0908_fc_s03_true_airplane_35_n02690373_3640.png
subject-03,1,909,1.10247898101807,bicycle,bicycle,false,0909_fc_s03_false_bicycle_35_n02835271_597.png
subject-03,1,910,0.854850053787231,cat,cat,false,0910_fc_s03_false_cat_35_n02125311_1445.png
subject-03,1,911,1.07504200935364,bottle,bear,false,0911_fc_s03_false_bear_35_n02132136_22717.png
subject-03,1,912,1.2091109752655,elephant,elephant,false,0912_fc_s03_false_elephant_35_n02504013_22131.png
subject-03,1,913,0.948620080947876,bicycle,bicycle,false,0913_fc_s03_false_bicycle_35_n03792782_49707.png
subject-03,1,914,0.923225879669189,car,car,false,0914_fc_s03_false_car_35_n03100240_16273.png
subject-03,1,915,NaN,na,bear,false,0915_fc_s03_false_bear_35_n02132136_11149.png
subject-03,1,916,0.977288007736206,keyboard,keyboard,false,0916_fc_s03_false_keyboard_35_n03085013_6609.png
subject-03,1,917,0.982140064239502,cat,cat,true,0917_fc_s03_true_cat_35_n02123597_6778.png
subject-03,1,918,0.997101068496704,boat,boat,false,0918_fc_s03_false_boat_35_n04273569_5832.png
subject-03,1,919,0.863311052322388,oven,oven,true,0919_fc_s03_true_oven_35_n04111531_15568.png
subject-03,1,920,NaN,na,oven,false,0920_fc_s03_false_oven_35_n04111531_14913.png
subject-03,1,921,NaN,na,airplane,false,0921_fc_s03_false_airplane_35_n02690373_2923.png
subject-03,1,922,0.885598182678223,car,car,false,0922_fc_s03_false_car_35_n04285008_12659.png
subject-03,1,923,1.28787302970886,car,car,false,0923_fc_s03_false_car_35_n04285008_9388.png
subject-03,1,924,1.08683204650879,boat,boat,true,0924_fc_s03_true_boat_35_n02951358_30540.png
subject-03,1,925,1.08488488197327,bear,elephant,true,0925_fc_s03_true_elephant_35_n02504458_609.png
subject-03,1,926,1.1674108505249,airplane,airplane,false,0926_fc_s03_false_airplane_35_n02690373_6116.png
subject-03,1,927,1.10623598098755,keyboard,keyboard,true,0927_fc_s03_true_keyboard_35_n03085013_25559.png
subject-03,1,928,1.16634106636047,cat,cat,false,0928_fc_s03_false_cat_35_n02123159_370.png
subject-03,1,929,1.20125389099121,oven,bird,false,0929_fc_s03_false_bird_35_n02056570_11927.png
subject-03,1,930,0.969045162200928,car,car,false,0930_fc_s03_false_car_35_n03100240_7497.png
subject-03,1,931,0.997558832168579,chair,chair,true,0931_fc_s03_true_chair_35_n04429376_16192.png
subject-03,1,932,NaN,na,bird,true,0932_fc_s03_true_bird_35_n02028035_10813.png
subject-03,1,933,0.892313003540039,cat,cat,false,0933_fc_s03_false_cat_35_n02123045_11545.png
subject-03,1,934,1.08079504966736,chair,chair,false,0934_fc_s03_false_chair_35_n03376595_7699.png
subject-03,1,935,1.50012302398682,cat,bear,true,0935_fc_s03_true_bear_35_n02134084_16066.png
subject-03,1,936,0.991371154785156,boat,boat,false,0936_fc_s03_false_boat_35_n04612504_18699.png
subject-03,1,937,1.0255138874054,airplane,truck,true,0937_fc_s03_true_truck_35_n04467665_80575.png
subject-03,1,938,1.48387503623962,airplane,boat,false,0938_fc_s03_false_boat_35_n03662601_713.png
subject-03,1,939,1.04403209686279,keyboard,keyboard,true,0939_fc_s03_true_keyboard_35_n03085013_2853.png
subject-03,1,940,0.910402059555054,keyboard,keyboard,true,0940_fc_s03_true_keyboard_35_n03085013_31250.png
subject-03,1,941,1.29910397529602,boat,bear,true,0941_fc_s03_true_bear_35_n02133161_1257.png
subject-03,1,942,0.82917308807373,oven,oven,false,0942_fc_s03_false_oven_35_n04111531_6934.png
subject-03,1,943,0.679719209671021,cat,cat,true,0943_fc_s03_true_cat_35_n02123045_12327.png
subject-03,1,944,0.724365949630737,clock,clock,false,0944_fc_s03_false_clock_35_n02708093_4597.png
subject-03,1,945,1.13394618034363,car,car,true,0945_fc_s03_true_car_35_n03100240_6376.png
subject-03,1,946,0.878417015075684,oven,chair,true,0946_fc_s03_true_chair_35_n02791124_2383.png
subject-03,1,947,1.1962718963623,cat,bottle,true,0947_fc_s03_true_bottle_35_n04560804_2005.png
subject-03,1,948,NaN,na,truck,false,0948_fc_s03_false_truck_35_n03417042_12874.png
subject-03,1,949,1.14465308189392,keyboard,keyboard,true,0949_fc_s03_true_keyboard_35_n03085013_6095.png
subject-03,1,950,0.917954921722412,bottle,bottle,true,0950_fc_s03_true_bottle_35_n03937543_6192.png
subject-03,1,951,0.976825952529907,oven,clock,true,0951_fc_s03_true_clock_35_n04548280_4327.png
subject-03,1,952,1.50034499168396,bird,bird,false,0952_fc_s03_false_bird_35_n01797886_15785.png
subject-03,1,953,0.809207916259766,elephant,elephant,false,0953_fc_s03_false_elephant_35_n02504458_3511.png
subject-03,1,954,0.991636991500854,elephant,cat,false,0954_fc_s03_false_cat_35_n02125311_34487.png
subject-03,1,955,1.35839891433716,oven,chair,false,0955_fc_s03_false_chair_35_n02791124_2488.png
subject-03,1,956,0.778790950775146,oven,oven,true,0956_fc_s03_true_oven_35_n04111531_3265.png
subject-03,1,957,0.861196994781494,chair,chair,false,0957_fc_s03_false_chair_35_n02791124_5438.png
subject-03,1,958,NaN,na,bear,false,0958_fc_s03_false_bear_35_n02134084_985.png
subject-03,1,959,0.955859899520874,cat,cat,false,0959_fc_s03_false_cat_35_n02123394_9037.png
subject-03,1,960,1.1139988899231,dog,bear,false,0960_fc_s03_false_bear_35_n02132136_3109.png
subject-03,1,961,1.03099894523621,bottle,bottle,true,0961_fc_s03_true_bottle_35_n04560804_14318.png
subject-03,1,962,0.699162006378174,clock,clock,true,0962_fc_s03_true_clock_35_n03196217_6203.png
subject-03,1,963,1.50011301040649,cat,elephant,false,0963_fc_s03_false_elephant_35_n02504458_4010.png
subject-03,1,964,1.50028419494629,elephant,elephant,false,0964_fc_s03_false_elephant_35_n02504458_1051.png
subject-03,1,965,0.920645952224731,bicycle,bicycle,true,0965_fc_s03_true_bicycle_35_n02835271_27014.png
subject-03,1,966,0.94031286239624,airplane,airplane,true,0966_fc_s03_true_airplane_35_n02690373_1946.png
subject-03,1,967,0.985008001327515,airplane,airplane,true,0967_fc_s03_true_airplane_35_n02690373_8925.png
subject-03,1,968,1.03549790382385,knife,knife,false,0968_fc_s03_false_knife_35_n03041632_35260.png
subject-03,1,969,0.88809609413147,cat,cat,true,0969_fc_s03_true_cat_35_n02123045_15082.png
subject-03,1,970,1.34603095054626,bird,bird,true,0970_fc_s03_true_bird_35_n01828970_9466.png
subject-03,1,971,1.32015299797058,airplane,boat,true,0971_fc_s03_true_boat_35_n03662601_13885.png
subject-03,1,972,1.00215482711792,truck,truck,true,0972_fc_s03_true_truck_35_n03417042_1770.png
subject-03,1,973,1.09816312789917,truck,truck,true,0973_fc_s03_true_truck_35_n03417042_6881.png
subject-03,1,974,1.01266813278198,truck,truck,false,0974_fc_s03_false_truck_35_n03796401_16603.png
subject-03,1,975,0.99530291557312,bird,bird,false,0975_fc_s03_false_bird_35_n02018207_15800.png
subject-03,1,976,1.28373789787292,bottle,bottle,true,0976_fc_s03_true_bottle_35_n04579145_2896.png
subject-03,1,977,1.50020384788513,bicycle,knife,true,0977_fc_s03_true_knife_35_n03041632_3063.png
subject-03,1,978,1.06391501426697,bottle,bottle,true,0978_fc_s03_true_bottle_35_n02823428_1832.png
subject-03,1,979,0.868545055389404,chair,knife,false,0979_fc_s03_false_knife_35_n03041632_3504.png
subject-03,1,980,1.02045297622681,cat,cat,false,0980_fc_s03_false_cat_35_n02123394_2975.png
subject-03,1,981,0.718798160552979,airplane,airplane,false,0981_fc_s03_false_airplane_35_n02690373_614.png
subject-03,1,982,1.21525883674622,cat,keyboard,true,0982_fc_s03_true_keyboard_35_n03085013_23790.png
subject-03,1,983,NaN,na,bottle,true,0983_fc_s03_true_bottle_35_n03937543_5553.png
subject-03,1,984,0.825974941253662,bicycle,bicycle,true,0984_fc_s03_true_bicycle_35_n03792782_8374.png
subject-03,1,985,1.3523280620575,bear,bear,false,0985_fc_s03_false_bear_35_n02133161_830.png
subject-03,1,986,0.996528148651123,bottle,elephant,true,0986_fc_s03_true_elephant_35_n02504013_3402.png
subject-03,1,987,1.42291712760925,oven,dog,true,0987_fc_s03_true_dog_35_n02113799_1344.png
subject-03,1,988,1.27529501914978,dog,bear,true,0988_fc_s03_true_bear_35_n02134084_21921.png
subject-03,1,989,0.944020986557007,airplane,airplane,true,0989_fc_s03_true_airplane_35_n02690373_6716.png
subject-03,1,990,1.2185971736908,boat,boat,true,0990_fc_s03_true_boat_35_n03662601_9498.png
subject-03,1,991,1.2611038684845,truck,truck,false,0991_fc_s03_false_truck_35_n04467665_69400.png
subject-03,1,992,0.975169897079468,knife,knife,true,0992_fc_s03_true_knife_35_n03041632_29037.png
subject-03,1,993,1.2853479385376,airplane,airplane,false,0993_fc_s03_false_airplane_35_n02690373_1350.png
subject-03,1,994,1.50001788139343,clock,bicycle,true,0994_fc_s03_true_bicycle_35_n02835271_12097.png
subject-03,1,995,1.21778392791748,bird,bird,true,0995_fc_s03_true_bird_35_n01601694_22111.png
subject-03,1,996,1.15397691726685,chair,knife,true,0996_fc_s03_true_knife_35_n03041632_13518.png
subject-03,1,997,1.16704607009888,oven,oven,true,0997_fc_s03_true_oven_35_n04111531_1770.png
subject-03,1,998,1.14304113388062,car,car,true,0998_fc_s03_true_car_35_n02814533_68219.png
subject-03,1,999,1.28586506843567,car,car,false,0999_fc_s03_false_car_35_n02814533_4977.png
subject-03,1,1000,0.814177989959717,airplane,airplane,true,1000_fc_s03_true_airplane_35_n02690373_8804.png
subject-03,1,1001,1.09661197662354,bear,bear,true,1001_fc_s03_true_bear_35_n02133161_8448.png
subject-03,1,1002,NaN,na,boat,false,1002_fc_s03_false_boat_35_n03344393_2354.png
subject-03,1,1003,0.907343149185181,keyboard,keyboard,true,1003_fc_s03_true_keyboard_35_n03085013_914.png
subject-03,1,1004,1.36322689056396,oven,oven,true,1004_fc_s03_true_oven_35_n04111531_8082.png
subject-03,1,1005,NaN,na,bear,true,1005_fc_s03_true_bear_35_n02134418_2936.png
subject-03,1,1006,0.892843008041382,chair,knife,false,1006_fc_s03_false_knife_35_n03041632_24950.png
subject-03,1,1007,1.0055980682373,bottle,bottle,false,1007_fc_s03_false_bottle_35_n04557648_2456.png
subject-03,1,1008,0.871716022491455,truck,truck,false,1008_fc_s03_false_truck_35_n03417042_6373.png
subject-03,1,1009,1.40633797645569,cat,dog,true,1009_fc_s03_true_dog_35_n02085936_2318.png
subject-03,1,1010,1.28051090240479,elephant,elephant,false,1010_fc_s03_false_elephant_35_n02504458_908.png
subject-03,1,1011,1.13323879241943,chair,chair,true,1011_fc_s03_true_chair_35_n02791124_3815.png
subject-03,1,1012,0.839123964309692,airplane,airplane,true,1012_fc_s03_true_airplane_35_n02690373_2468.png
subject-03,1,1013,1.50035095214844,car,car,false,1013_fc_s03_false_car_35_n03100240_16590.png
subject-03,1,1014,NaN,na,truck,false,1014_fc_s03_false_truck_35_n03796401_6983.png
subject-03,1,1015,0.938345909118652,knife,knife,false,1015_fc_s03_false_knife_35_n03041632_5801.png
subject-03,1,1016,0.941870212554932,elephant,elephant,true,1016_fc_s03_true_elephant_35_n02504458_5539.png
subject-03,1,1017,1.20020318031311,cat,elephant,false,1017_fc_s03_false_elephant_35_n02504458_13409.png
subject-03,1,1018,NaN,na,oven,false,1018_fc_s03_false_oven_35_n04111531_8290.png
subject-03,1,1019,1.20348119735718,bicycle,bicycle,true,1019_fc_s03_true_bicycle_35_n03792782_3385.png
subject-03,1,1020,0.885613918304443,bottle,bottle,true,1020_fc_s03_true_bottle_35_n04560804_2586.png
subject-03,1,1021,NaN,na,knife,true,1021_fc_s03_true_knife_35_n03041632_34769.png
subject-03,1,1022,1.02278089523315,cat,cat,true,1022_fc_s03_true_cat_35_n02123159_2607.png
subject-03,1,1023,1.25881099700928,bird,bird,false,1023_fc_s03_false_bird_35_n01819313_3795.png
subject-03,1,1024,0.995399951934814,bottle,bottle,true,1024_fc_s03_true_bottle_35_n03983396_7722.png
subject-03,1,1025,0.685719013214111,chair,chair,true,1025_fc_s03_true_chair_35_n04099969_19530.png
subject-03,1,1026,0.797705173492432,bicycle,bicycle,true,1026_fc_s03_true_bicycle_35_n03792782_15898.png
subject-03,1,1027,1.30229306221008,elephant,elephant,true,1027_fc_s03_true_elephant_35_n02504458_1998.png
subject-03,1,1028,0.914578914642334,airplane,airplane,false,1028_fc_s03_false_airplane_35_n02690373_2611.png
subject-03,1,1029,0.980727910995483,oven,oven,false,1029_fc_s03_false_oven_35_n04111531_4370.png
subject-03,1,1030,1.40107202529907,boat,boat,true,1030_fc_s03_true_boat_35_n04612504_30125.png
subject-03,1,1031,1.38355493545532,car,car,false,1031_fc_s03_false_car_35_n02814533_40716.png
subject-03,1,1032,0.943432092666626,cat,cat,true,1032_fc_s03_true_cat_35_n02123159_2233.png
subject-03,1,1033,0.748610973358154,oven,oven,false,1033_fc_s03_false_oven_35_n04111531_4585.png
subject-03,1,1034,1.19032001495361,bird,bird,true,1034_fc_s03_true_bird_35_n02033041_5797.png
subject-03,1,1035,1.13226389884949,car,car,true,1035_fc_s03_true_car_35_n02814533_61039.png
subject-03,1,1036,1.13892197608948,oven,oven,true,1036_fc_s03_true_oven_35_n04111531_1230.png
subject-03,1,1037,0.766831874847412,bicycle,bicycle,true,1037_fc_s03_true_bicycle_35_n02835271_6935.png
