subj,session,trial,rt,object_response,category,condition,imagename
subject-02,1,1,0.725551843643188,dog,dog,false,0001_fc_s02_false_dog_35_n02091244_4363.png
subject-02,1,2,0.839516878128052,chair,chair,false,0002_fc_s02_false_chair_35_n02791124_3117.png
subject-02,1,3,0.592088937759399,car,car,true,0003_fc_s02_true_car_35_n02814533_42859.png
subject-02,1,4,0.5605149269104,bird,bird,true,0004_fc_s02_true_bird_35_n02033041_1718.png
subject-02,1,5,0.506967067718506,oven,oven,false,0005_fc_s02_false_oven_35_n04111531_8036.png
subject-02,1,6,0.545715808868408,boat,boat,true,0006_fc_s02_true_boat_35_n03344393_5253.png
subject-02,1,7,0.52811598777771,boat,boat,false,0007_fc_s02_false_boat_35_n04612504_5535.png
subject-02,1,8,0.542334079742432,boat,boat,true,0008_fc_s02_true_boat_35_n03344393_2973.png
subject-02,1,9,0.580620050430298,oven,oven,true,0009_fc_s02_true_oven_35_n04111531_807.png
subject-02,1,10,0.557115077972412,dog,dog,false,0010_fc_s02_false_dog_35_n02087394_30776.png
subject-02,1,11,0.647418022155762,boat,boat,true,0011_fc_s02_true_boat_35_n04612504_8942.png
subject-02,1,12,0.710116863250732,bear,bear,true,0012_fc_s02_true_bear_35_n02133161_1495.png
subject-02,1,13,0.716640949249268,boat,boat,false,0013_fc_s02_false_boat_35_n02951358_12296.png
subject-02,1,14,0.59293794631958,chair,chair,true,0014_fc_s02_true_chair_35_n03376595_9746.png
subject-02,1,15,0.545622825622559,bird,bird,true,0015_fc_s02_true_bird_35_n01795545_11554.png
subject-02,1,16,0.729918956756592,dog,dog,false,0016_fc_s02_false_dog_35_n02101556_8136.png
subject-02,1,17,0.882598876953125,truck,truck,false,0017_fc_s02_false_truck_35_n04467665_76958.png
subject-02,1,18,0.704583883285522,cat,cat,true,0018_fc_s02_true_cat_35_n02124075_3744.png
subject-02,1,19,0.689068078994751,dog,dog,false,0019_fc_s02_false_dog_35_n02107142_45563.png
subject-02,1,20,0.649616003036499,bicycle,bicycle,false,0020_fc_s02_false_bicycle_35_n02835271_12263.png
subject-02,1,21,0.564131021499634,chair,chair,false,0021_fc_s02_false_chair_35_n03376595_1363.png
subject-02,1,22,0.464594125747681,cat,cat,true,0022_fc_s02_true_cat_35_n02123159_5299.png
subject-02,1,23,0.647150993347168,airplane,airplane,true,0023_fc_s02_true_airplane_35_n02690373_7686.png
subject-02,1,24,0.601692199707031,bottle,bottle,false,0024_fc_s02_false_bottle_35_n04560804_4624.png
subject-02,1,25,0.746143102645874,dog,dog,false,0025_fc_s02_false_dog_35_n02110627_18469.png
subject-02,1,26,0.584578037261963,keyboard,keyboard,false,0026_fc_s02_false_keyboard_35_n03085013_21967.png
subject-02,1,27,0.898969888687134,chair,keyboard,false,0027_fc_s02_false_keyboard_35_n03085013_22837.png
subject-02,1,28,0.675415992736816,dog,dog,true,0028_fc_s02_true_dog_35_n02105505_6885.png
subject-02,1,29,0.67399787902832,elephant,elephant,true,0029_fc_s02_true_elephant_35_n02504458_3378.png
subject-02,1,30,1.16452693939209,boat,airplane,true,0030_fc_s02_true_airplane_35_n02690373_4982.png
subject-02,1,31,0.711107015609741,bird,bird,false,0031_fc_s02_false_bird_35_n01818515_21537.png
subject-02,1,32,0.549232959747314,cat,cat,false,0032_fc_s02_false_cat_35_n02125311_1899.png
subject-02,1,33,0.57781720161438,dog,dog,false,0033_fc_s02_false_dog_35_n02105056_9877.png
subject-02,1,34,0.837934970855713,clock,clock,false,0034_fc_s02_false_clock_35_n03196217_1792.png
subject-02,1,35,0.936359167098999,bear,bear,true,0035_fc_s02_true_bear_35_n02133161_8367.png
subject-02,1,36,1.08290410041809,chair,knife,true,0036_fc_s02_true_knife_35_n03041632_18304.png
subject-02,1,37,0.981318950653076,car,car,false,0037_fc_s02_false_car_35_n02814533_11273.png
subject-02,1,38,0.695923089981079,elephant,elephant,true,0038_fc_s02_true_elephant_35_n02504458_10264.png
subject-02,1,39,0.618412017822266,chair,chair,true,0039_fc_s02_true_chair_35_n03376595_13949.png
subject-02,1,40,0.832792043685913,airplane,airplane,true,0040_fc_s02_true_airplane_35_n02690373_6549.png
subject-02,1,41,0.723257064819336,airplane,airplane,false,0041_fc_s02_false_airplane_35_n02690373_4113.png
subject-02,1,42,0.561880111694336,cat,cat,false,0042_fc_s02_false_cat_35_n02123159_7259.png
subject-02,1,43,1.01427602767944,oven,oven,true,0043_fc_s02_true_oven_35_n04111531_73.png
subject-02,1,44,0.790848016738892,elephant,elephant,false,0044_fc_s02_false_elephant_35_n02504458_2794.png
subject-02,1,45,0.775442838668823,cat,cat,true,0045_fc_s02_true_cat_35_n02124075_4189.png
subject-02,1,46,0.643728971481323,boat,boat,false,0046_fc_s02_false_boat_35_n04273569_13012.png
subject-02,1,47,0.588417053222656,bicycle,bicycle,false,0047_fc_s02_false_bicycle_35_n02835271_3642.png
subject-02,1,48,0.832741022109985,boat,boat,true,0048_fc_s02_true_boat_35_n03344393_8184.png
subject-02,1,49,0.671190977096558,truck,truck,true,0049_fc_s02_true_truck_35_n03796401_10994.png
subject-02,1,50,1.01546001434326,bottle,bottle,true,0050_fc_s02_true_bottle_35_n04591713_2956.png
subject-02,1,51,0.845945119857788,knife,knife,false,0051_fc_s02_false_knife_35_n03041632_27848.png
subject-02,1,52,0.584394931793213,bird,bird,true,0052_fc_s02_true_bird_35_n02018207_5372.png
subject-02,1,53,0.696802854537964,airplane,airplane,true,0053_fc_s02_true_airplane_35_n02690373_5177.png
subject-02,1,54,0.80551815032959,cat,cat,true,0054_fc_s02_true_cat_35_n02123597_11278.png
subject-02,1,55,0.679975986480713,keyboard,keyboard,false,0055_fc_s02_false_keyboard_35_n04505470_1076.png
subject-02,1,56,0.696606874465942,bear,bear,true,0056_fc_s02_true_bear_35_n02133161_8261.png
subject-02,1,57,0.53291392326355,bird,bird,true,0057_fc_s02_true_bird_35_n02011460_10432.png
subject-02,1,58,0.693364858627319,clock,clock,false,0058_fc_s02_false_clock_35_n03196217_7161.png
subject-02,1,59,0.69886302947998,dog,dog,false,0059_fc_s02_false_dog_35_n02086079_2840.png
subject-02,1,60,0.68109393119812,bear,bear,false,0060_fc_s02_false_bear_35_n02134084_9156.png
subject-02,1,61,0.519231081008911,boat,boat,false,0061_fc_s02_false_boat_35_n03662601_17403.png
subject-02,1,62,0.709249019622803,car,car,false,0062_fc_s02_false_car_35_n02814533_26367.png
subject-02,1,63,0.823763847351074,oven,oven,true,0063_fc_s02_true_oven_35_n04111531_6479.png
subject-02,1,64,0.754560947418213,bear,bear,false,0064_fc_s02_false_bear_35_n02134084_7331.png
subject-02,1,65,0.736744165420532,knife,knife,true,0065_fc_s02_true_knife_35_n03041632_29337.png
subject-02,1,66,0.829026937484741,bicycle,bicycle,false,0066_fc_s02_false_bicycle_35_n02835271_4749.png
subject-02,1,67,0.543594121932983,car,car,true,0067_fc_s02_true_car_35_n04285008_3351.png
subject-02,1,68,0.612262010574341,bear,bear,false,0068_fc_s02_false_bear_35_n02133161_218.png
subject-02,1,69,0.486523151397705,airplane,airplane,false,0069_fc_s02_false_airplane_35_n02690373_6212.png
subject-02,1,70,0.616625070571899,chair,chair,false,0070_fc_s02_false_chair_35_n03376595_2052.png
subject-02,1,71,0.607233047485352,car,car,true,0071_fc_s02_true_car_35_n03100240_23948.png
subject-02,1,72,0.583952903747559,clock,clock,true,0072_fc_s02_true_clock_35_n04548280_7885.png
subject-02,1,73,0.806164979934692,knife,knife,true,0073_fc_s02_true_knife_35_n03041632_81004.png
subject-02,1,74,0.504892826080322,boat,boat,true,0074_fc_s02_true_boat_35_n03344393_8761.png
subject-02,1,75,0.581364870071411,oven,clock,false,0075_fc_s02_false_clock_35_n02708093_1125.png
subject-02,1,76,0.573874950408936,bicycle,bicycle,false,0076_fc_s02_false_bicycle_35_n02835271_21707.png
subject-02,1,77,0.488032102584839,bird,bird,false,0077_fc_s02_false_bird_35_n01531178_4251.png
subject-02,1,78,0.740978956222534,bottle,bottle,true,0078_fc_s02_true_bottle_35_n03983396_17453.png
subject-02,1,79,0.601238965988159,airplane,airplane,true,0079_fc_s02_true_airplane_35_n02690373_2935.png
subject-02,1,80,0.553617000579834,keyboard,keyboard,true,0080_fc_s02_true_keyboard_35_n04505470_4918.png
subject-02,1,81,0.659682035446167,knife,knife,true,0081_fc_s02_true_knife_35_n03041632_45270.png
subject-02,1,82,0.706245899200439,car,car,true,0082_fc_s02_true_car_35_n03100240_8045.png
subject-02,1,83,0.54252815246582,bicycle,bicycle,false,0083_fc_s02_false_bicycle_35_n02835271_781.png
subject-02,1,84,0.702888011932373,bear,bear,false,0084_fc_s02_false_bear_35_n02134084_3242.png
subject-02,1,85,0.495355129241943,bicycle,bicycle,false,0085_fc_s02_false_bicycle_35_n02835271_20761.png
subject-02,1,86,0.493745088577271,oven,oven,false,0086_fc_s02_false_oven_35_n04111531_1909.png
subject-02,1,87,0.478708982467651,car,car,true,0087_fc_s02_true_car_35_n02814533_73382.png
subject-02,1,88,0.506891012191772,clock,clock,false,0088_fc_s02_false_clock_35_n03196217_6511.png
subject-02,1,89,0.81341814994812,bear,bear,false,0089_fc_s02_false_bear_35_n02133161_9134.png
subject-02,1,90,0.514101028442383,chair,chair,false,0090_fc_s02_false_chair_35_n04099969_7344.png
subject-02,1,91,0.590305089950562,bottle,bottle,false,0091_fc_s02_false_bottle_35_n03983396_6600.png
subject-02,1,92,0.56447696685791,clock,clock,false,0092_fc_s02_false_clock_35_n04548280_1896.png
subject-02,1,93,NaN,na,chair,false,0093_fc_s02_false_chair_35_n04429376_10358.png
subject-02,1,94,0.547469854354858,car,car,false,0094_fc_s02_false_car_35_n04285008_8815.png
subject-02,1,95,0.67792797088623,keyboard,keyboard,true,0095_fc_s02_true_keyboard_35_n03085013_24030.png
subject-02,1,96,0.708308935165405,keyboard,keyboard,true,0096_fc_s02_true_keyboard_35_n04505470_1687.png
subject-02,1,97,0.676896095275879,clock,clock,true,0097_fc_s02_true_clock_35_n04548280_1809.png
subject-02,1,98,0.591294050216675,car,car,true,0098_fc_s02_true_car_35_n02814533_87572.png
subject-02,1,99,0.765537977218628,bird,bird,true,0099_fc_s02_true_bird_35_n01819313_15814.png
subject-02,1,100,0.712325096130371,bear,bear,false,0100_fc_s02_false_bear_35_n02133161_11006.png
subject-02,1,101,0.532742977142334,dog,dog,true,0101_fc_s02_true_dog_35_n02108422_7247.png
subject-02,1,102,0.801212072372437,airplane,airplane,false,0102_fc_s02_false_airplane_35_n02690373_6807.png
subject-02,1,103,0.623322010040283,bear,bear,false,0103_fc_s02_false_bear_35_n02134084_4622.png
subject-02,1,104,0.637970924377441,cat,cat,false,0104_fc_s02_false_cat_35_n02123394_2490.png
subject-02,1,105,0.760329008102417,airplane,airplane,true,0105_fc_s02_true_airplane_35_n02690373_10926.png
subject-02,1,106,0.697067022323608,truck,truck,true,0106_fc_s02_true_truck_35_n03417042_14838.png
subject-02,1,107,0.66545295715332,clock,clock,false,0107_fc_s02_false_clock_35_n02708093_1384.png
subject-02,1,108,0.528028011322021,chair,chair,true,0108_fc_s02_true_chair_35_n04429376_17363.png
subject-02,1,109,0.526226997375488,airplane,airplane,false,0109_fc_s02_false_airplane_35_n02690373_4009.png
subject-02,1,110,0.562880992889404,airplane,airplane,true,0110_fc_s02_true_airplane_35_n02690373_1119.png
subject-02,1,111,0.609214067459106,airplane,airplane,false,0111_fc_s02_false_airplane_35_n02690373_3216.png
subject-02,1,112,0.753990173339844,bottle,bottle,true,0112_fc_s02_true_bottle_35_n04591713_11499.png
subject-02,1,113,0.906507015228271,oven,oven,false,0113_fc_s02_false_oven_35_n04111531_15416.png
subject-02,1,114,0.574717998504639,bird,bird,false,0114_fc_s02_false_bird_35_n02033041_5796.png
subject-02,1,115,0.505186796188354,knife,knife,false,0115_fc_s02_false_knife_35_n03041632_42887.png
subject-02,1,116,0.91936206817627,boat,boat,false,0116_fc_s02_false_boat_35_n02951358_8145.png
subject-02,1,117,0.60344386100769,clock,clock,true,0117_fc_s02_true_clock_35_n04548280_3234.png
subject-02,1,118,0.732200145721436,oven,oven,false,0118_fc_s02_false_oven_35_n04111531_7603.png
subject-02,1,119,0.738739967346191,bottle,bottle,true,0119_fc_s02_true_bottle_35_n04591713_4931.png
subject-02,1,120,0.77724289894104,dog,dog,true,0120_fc_s02_true_dog_35_n02113624_4789.png
subject-02,1,121,0.683938026428223,dog,dog,false,0121_fc_s02_false_dog_35_n02088364_16994.png
subject-02,1,122,0.713998079299927,dog,dog,true,0122_fc_s02_true_dog_35_n02106382_16552.png
subject-02,1,123,0.742496013641357,keyboard,keyboard,true,0123_fc_s02_true_keyboard_35_n04505470_4971.png
subject-02,1,124,0.481149911880493,keyboard,keyboard,false,0124_fc_s02_false_keyboard_35_n03085013_19254.png
subject-02,1,125,1.34957695007324,chair,chair,true,0125_fc_s02_true_chair_35_n04099969_3686.png
subject-02,1,126,0.650346994400024,dog,dog,true,0126_fc_s02_true_dog_35_n02097209_597.png
subject-02,1,127,0.886813879013062,truck,truck,false,0127_fc_s02_false_truck_35_n03796401_19900.png
subject-02,1,128,0.571114063262939,dog,dog,true,0128_fc_s02_true_dog_35_n02090379_6166.png
subject-02,1,129,0.607216835021973,airplane,airplane,true,0129_fc_s02_true_airplane_35_n02690373_3493.png
subject-02,1,130,0.921929836273193,truck,truck,true,0130_fc_s02_true_truck_35_n04467665_4263.png
subject-02,1,131,0.960465908050537,bear,bear,true,0131_fc_s02_true_bear_35_n02134084_15118.png
subject-02,1,132,0.734709978103638,oven,bottle,true,0132_fc_s02_true_bottle_35_n04591713_5378.png
subject-02,1,133,0.711400032043457,elephant,elephant,false,0133_fc_s02_false_elephant_35_n02504458_151.png
subject-02,1,134,0.487711906433105,bicycle,bicycle,false,0134_fc_s02_false_bicycle_35_n02835271_508.png
subject-02,1,135,0.748102903366089,bottle,bottle,false,0135_fc_s02_false_bottle_35_n04560804_9710.png
subject-02,1,136,0.56299901008606,bear,cat,false,0136_fc_s02_false_cat_35_n02125311_37888.png
subject-02,1,137,0.56337308883667,airplane,airplane,false,0137_fc_s02_false_airplane_35_n02690373_3726.png
subject-02,1,138,0.537688016891479,keyboard,keyboard,false,0138_fc_s02_false_keyboard_35_n03085013_23867.png
subject-02,1,139,0.560404062271118,clock,clock,true,0139_fc_s02_true_clock_35_n04548280_2441.png
subject-02,1,140,0.498577117919922,bicycle,bicycle,false,0140_fc_s02_false_bicycle_35_n02835271_12945.png
subject-02,1,141,0.497381925582886,car,car,true,0141_fc_s02_true_car_35_n03100240_7626.png
subject-02,1,142,0.427485942840576,airplane,airplane,false,0142_fc_s02_false_airplane_35_n02690373_7093.png
subject-02,1,143,0.742178201675415,truck,truck,true,0143_fc_s02_true_truck_35_n04467665_38886.png
subject-02,1,144,0.464959144592285,bird,bird,true,0144_fc_s02_true_bird_35_n02028035_846.png
subject-02,1,145,0.609091997146606,oven,chair,true,0145_fc_s02_true_chair_35_n02791124_1456.png
subject-02,1,146,1.10783696174622,elephant,elephant,false,0146_fc_s02_false_elephant_35_n02504013_2545.png
subject-02,1,147,0.599920988082886,keyboard,keyboard,false,0147_fc_s02_false_keyboard_35_n04505470_4797.png
subject-02,1,148,0.990315914154053,chair,chair,false,0148_fc_s02_false_chair_35_n04099969_28969.png
subject-02,1,149,0.966890096664429,bottle,bottle,false,0149_fc_s02_false_bottle_35_n04579145_466.png
subject-02,1,150,0.719154119491577,chair,chair,false,0150_fc_s02_false_chair_35_n02791124_1174.png
subject-02,1,151,0.665930032730103,boat,boat,true,0151_fc_s02_true_boat_35_n03662601_5687.png
subject-02,1,152,0.586291074752808,airplane,airplane,true,0152_fc_s02_true_airplane_35_n02690373_5565.png
subject-02,1,153,0.662734031677246,bicycle,bicycle,false,0153_fc_s02_false_bicycle_35_n03792782_16482.png
subject-02,1,154,0.715508937835693,bicycle,bicycle,true,0154_fc_s02_true_bicycle_35_n02835271_1070.png
subject-02,1,155,1.08390784263611,oven,oven,true,0155_fc_s02_true_oven_35_n04111531_136.png
subject-02,1,156,0.560266017913818,bird,bird,false,0156_fc_s02_false_bird_35_n02002724_4911.png
subject-02,1,157,0.850908994674683,keyboard,keyboard,true,0157_fc_s02_true_keyboard_35_n04505470_250.png
subject-02,1,158,0.897222995758057,chair,dog,false,0158_fc_s02_false_dog_35_n02089078_8314.png
subject-02,1,159,0.620027780532837,car,car,true,0159_fc_s02_true_car_35_n04285008_1785.png
subject-02,1,160,0.7723388671875,boat,boat,false,0160_fc_s02_false_boat_35_n04612504_21819.png
subject-02,1,161,0.740786075592041,bear,dog,true,0161_fc_s02_true_dog_35_n02106382_12216.png
subject-02,1,162,0.585253000259399,elephant,elephant,true,0162_fc_s02_true_elephant_35_n02504013_1244.png
subject-02,1,163,0.899482011795044,cat,cat,false,0163_fc_s02_false_cat_35_n02125311_2285.png
subject-02,1,164,0.505750894546509,chair,chair,true,0164_fc_s02_true_chair_35_n03376595_6302.png
subject-02,1,165,0.779962062835693,airplane,bird,false,0165_fc_s02_false_bird_35_n01582220_5919.png
subject-02,1,166,0.502500057220459,elephant,elephant,false,0166_fc_s02_false_elephant_35_n02504013_6855.png
subject-02,1,167,1.17695093154907,cat,elephant,true,0167_fc_s02_true_elephant_35_n02504458_11772.png
subject-02,1,168,0.393615007400513,chair,chair,false,0168_fc_s02_false_chair_35_n03376595_9237.png
subject-02,1,169,0.58381986618042,airplane,airplane,true,0169_fc_s02_true_airplane_35_n02690373_3874.png
subject-02,1,170,0.552465200424194,bicycle,bicycle,false,0170_fc_s02_false_bicycle_35_n03792782_5944.png
subject-02,1,171,0.63515305519104,bear,bear,false,0171_fc_s02_false_bear_35_n02133161_6531.png
subject-02,1,172,0.541313886642456,bottle,bottle,false,0172_fc_s02_false_bottle_35_n04591713_14741.png
subject-02,1,173,0.794094800949097,chair,oven,false,0173_fc_s02_false_oven_35_n04111531_15710.png
subject-02,1,174,0.548204898834229,bottle,bottle,true,0174_fc_s02_true_bottle_35_n04591713_2813.png
subject-02,1,175,0.506997108459473,bicycle,bicycle,true,0175_fc_s02_true_bicycle_35_n03792782_51414.png
subject-02,1,176,0.591387987136841,car,car,false,0176_fc_s02_false_car_35_n04285008_8099.png
subject-02,1,177,0.582280874252319,keyboard,keyboard,true,0177_fc_s02_true_keyboard_35_n03085013_20492.png
subject-02,1,178,0.636548042297363,oven,oven,false,0178_fc_s02_false_oven_35_n04111531_4116.png
subject-02,1,179,0.735008001327515,truck,elephant,true,0179_fc_s02_true_elephant_35_n02504013_6321.png
subject-02,1,180,0.7256920337677,dog,dog,true,0180_fc_s02_true_dog_35_n02093428_5132.png
subject-02,1,181,0.55626392364502,elephant,elephant,true,0181_fc_s02_true_elephant_35_n02504013_4295.png
subject-02,1,182,0.562535047531128,elephant,dog,false,0182_fc_s02_false_dog_35_n02088632_6549.png
subject-02,1,183,0.583330869674683,bear,bear,true,0183_fc_s02_true_bear_35_n02134418_2886.png
subject-02,1,184,0.543708086013794,bicycle,bicycle,true,0184_fc_s02_true_bicycle_35_n02835271_21395.png
subject-02,1,185,0.544258832931519,chair,chair,false,0185_fc_s02_false_chair_35_n02791124_5825.png
subject-02,1,186,0.572598934173584,keyboard,keyboard,false,0186_fc_s02_false_keyboard_35_n04505470_4748.png
subject-02,1,187,0.473048210144043,airplane,airplane,true,0187_fc_s02_true_airplane_35_n02690373_20331.png
subject-02,1,188,0.6648108959198,dog,dog,false,0188_fc_s02_false_dog_35_n02094258_1912.png
subject-02,1,189,0.603070020675659,airplane,airplane,false,0189_fc_s02_false_airplane_35_n02690373_6655.png
subject-02,1,190,0.555427074432373,bicycle,bicycle,true,0190_fc_s02_true_bicycle_35_n02835271_3285.png
subject-02,1,191,0.524061918258667,boat,boat,true,0191_fc_s02_true_boat_35_n03662601_3476.png
subject-02,1,192,0.516624927520752,car,car,true,0192_fc_s02_true_car_35_n03100240_1531.png
subject-02,1,193,0.606999158859253,airplane,airplane,true,0193_fc_s02_true_airplane_35_n02690373_1161.png
subject-02,1,194,0.591542959213257,bird,bird,true,0194_fc_s02_true_bird_35_n01843065_5923.png
subject-02,1,195,0.674049854278564,knife,knife,true,0195_fc_s02_true_knife_35_n03041632_33584.png
subject-02,1,196,0.688705921173096,bottle,bottle,false,0196_fc_s02_false_bottle_35_n03983396_16993.png
subject-02,1,197,0.51109504699707,bear,bear,false,0197_fc_s02_false_bear_35_n02133161_3292.png
subject-02,1,198,0.609281063079834,boat,boat,false,0198_fc_s02_false_boat_35_n04273569_2002.png
subject-02,1,199,0.485929012298584,chair,chair,false,0199_fc_s02_false_chair_35_n04099969_7486.png
subject-02,1,200,0.744074106216431,elephant,bottle,true,0200_fc_s02_true_bottle_35_n04557648_220.png
subject-02,1,201,0.713025093078613,bird,bird,true,0201_fc_s02_true_bird_35_n01860187_1133.png
subject-02,1,202,0.573071002960205,airplane,airplane,true,0202_fc_s02_true_airplane_35_n02690373_5866.png
subject-02,1,203,0.549571990966797,bicycle,bicycle,false,0203_fc_s02_false_bicycle_35_n02835271_2030.png
subject-02,1,204,0.448396921157837,bird,bird,false,0204_fc_s02_false_bird_35_n01558993_4784.png
subject-02,1,205,0.630783796310425,bottle,bottle,false,0205_fc_s02_false_bottle_35_n04579145_215.png
subject-02,1,206,0.523164033889771,keyboard,keyboard,false,0206_fc_s02_false_keyboard_35_n04505470_8512.png
subject-02,1,207,0.575713872909546,oven,oven,false,0207_fc_s02_false_oven_35_n04111531_10446.png
subject-02,1,208,0.723586082458496,bicycle,bicycle,true,0208_fc_s02_true_bicycle_35_n03792782_28168.png
subject-02,1,209,0.575712919235229,clock,clock,true,0209_fc_s02_true_clock_35_n04548280_6781.png
subject-02,1,210,0.582080125808716,dog,dog,true,0210_fc_s02_true_dog_35_n02105855_1529.png
subject-02,1,211,0.642538070678711,bottle,bottle,true,0211_fc_s02_true_bottle_35_n03937543_4365.png
subject-02,1,212,0.496996879577637,boat,truck,false,0212_fc_s02_false_truck_35_n03417042_8334.png
subject-02,1,213,0.379806995391846,oven,oven,true,0213_fc_s02_true_oven_35_n04111531_17507.png
subject-02,1,214,0.464050054550171,chair,chair,false,0214_fc_s02_false_chair_35_n02791124_3875.png
subject-02,1,215,0.600517988204956,bird,bird,true,0215_fc_s02_true_bird_35_n01622779_3016.png
subject-02,1,216,0.807300090789795,car,car,true,0216_fc_s02_true_car_35_n02814533_30383.png
subject-02,1,217,0.645826816558838,chair,chair,true,0217_fc_s02_true_chair_35_n04099969_38402.png
subject-02,1,218,NaN,na,bird,false,0218_fc_s02_false_bird_35_n01820546_7074.png
subject-02,1,219,0.772351026535034,keyboard,keyboard,false,0219_fc_s02_false_keyboard_35_n03085013_24653.png
subject-02,1,220,0.472914934158325,boat,boat,true,0220_fc_s02_true_boat_35_n04612504_2795.png
subject-02,1,221,0.585514068603516,knife,knife,true,0221_fc_s02_true_knife_35_n03041632_50423.png
subject-02,1,222,0.439864158630371,oven,oven,true,0222_fc_s02_true_oven_35_n04111531_2872.png
subject-02,1,223,0.721895933151245,bottle,bottle,true,0223_fc_s02_true_bottle_35_n04560804_15332.png
subject-02,1,224,0.604235887527466,cat,cat,true,0224_fc_s02_true_cat_35_n02123045_6318.png
subject-02,1,225,0.526679039001465,keyboard,keyboard,false,0225_fc_s02_false_keyboard_35_n04505470_9996.png
subject-02,1,226,0.663279056549072,dog,dog,true,0226_fc_s02_true_dog_35_n02108422_9634.png
subject-02,1,227,0.501795053482056,bird,bird,true,0227_fc_s02_true_bird_35_n02018207_5275.png
subject-02,1,228,0.492465972900391,chair,chair,true,0228_fc_s02_true_chair_35_n04099969_7924.png
subject-02,1,229,0.422667980194092,car,car,true,0229_fc_s02_true_car_35_n04285008_6852.png
subject-02,1,230,0.529542922973633,cat,cat,true,0230_fc_s02_true_cat_35_n02123159_189.png
subject-02,1,231,0.90378999710083,airplane,truck,true,0231_fc_s02_true_truck_35_n04467665_56938.png
subject-02,1,232,0.572360992431641,boat,boat,true,0232_fc_s02_true_boat_35_n04273569_14578.png
subject-02,1,233,NaN,na,bear,false,0233_fc_s02_false_bear_35_n02132136_2810.png
subject-02,1,234,0.65513801574707,chair,chair,true,0234_fc_s02_true_chair_35_n02791124_5359.png
subject-02,1,235,0.707683086395264,truck,truck,true,0235_fc_s02_true_truck_35_n04467665_4165.png
subject-02,1,236,0.576122045516968,bicycle,bicycle,true,0236_fc_s02_true_bicycle_35_n03792782_21266.png
subject-02,1,237,0.674979209899902,bird,bird,true,0237_fc_s02_true_bird_35_n02002724_2120.png
subject-02,1,238,0.521410942077637,clock,clock,false,0238_fc_s02_false_clock_35_n04548280_960.png
subject-02,1,239,0.719365835189819,bear,bear,true,0239_fc_s02_true_bear_35_n02134084_3898.png
subject-02,1,240,0.818079948425293,airplane,airplane,false,0240_fc_s02_false_airplane_35_n02690373_466.png
subject-02,1,241,0.854519128799438,keyboard,keyboard,true,0241_fc_s02_true_keyboard_35_n04505470_9788.png
subject-02,1,242,0.854791879653931,oven,oven,true,0242_fc_s02_true_oven_35_n04111531_8330.png
subject-02,1,243,0.823634147644043,oven,oven,false,0243_fc_s02_false_oven_35_n04111531_7097.png
subject-02,1,244,0.721963167190552,clock,clock,true,0244_fc_s02_true_clock_35_n03196217_5197.png
subject-02,1,245,0.668639898300171,cat,cat,false,0245_fc_s02_false_cat_35_n02124075_2502.png
subject-02,1,246,0.651035070419312,bird,bird,false,0246_fc_s02_false_bird_35_n02006656_2871.png
subject-02,1,247,0.657563924789429,keyboard,keyboard,false,0247_fc_s02_false_keyboard_35_n04505470_4615.png
subject-02,1,248,0.995964050292969,bird,bear,false,0248_fc_s02_false_bear_35_n02134084_14727.png
subject-02,1,249,0.970335960388184,bottle,bottle,false,0249_fc_s02_false_bottle_35_n04557648_310.png
subject-02,1,250,0.678977012634277,chair,chair,true,0250_fc_s02_true_chair_35_n04099969_2707.png
subject-02,1,251,0.885333061218262,cat,cat,false,0251_fc_s02_false_cat_35_n02123159_6185.png
subject-02,1,252,0.78387188911438,cat,cat,false,0252_fc_s02_false_cat_35_n02125311_14905.png
subject-02,1,253,0.484482049942017,keyboard,keyboard,true,0253_fc_s02_true_keyboard_35_n04505470_3566.png
subject-02,1,254,0.744725942611694,bottle,bottle,false,0254_fc_s02_false_bottle_35_n04591713_3896.png
subject-02,1,255,0.720958948135376,oven,oven,true,0255_fc_s02_true_oven_35_n04111531_172.png
subject-02,1,256,0.665509939193726,bird,bird,false,0256_fc_s02_false_bird_35_n02037110_2710.png
subject-02,1,257,0.996093034744263,dog,dog,false,0257_fc_s02_false_dog_35_n02109047_1449.png
subject-02,1,258,0.910470008850098,dog,dog,true,0258_fc_s02_true_dog_35_n02102318_772.png
subject-02,1,259,0.887045860290527,clock,clock,false,0259_fc_s02_false_clock_35_n04548280_1440.png
subject-02,1,260,0.945410966873169,clock,clock,false,0260_fc_s02_false_clock_35_n04548280_3746.png
subject-02,1,261,0.753346920013428,boat,boat,false,0261_fc_s02_false_boat_35_n04273569_8552.png
subject-02,1,262,0.820121049880981,elephant,elephant,true,0262_fc_s02_true_elephant_35_n02504013_7006.png
subject-02,1,263,0.588501930236816,elephant,elephant,true,0263_fc_s02_true_elephant_35_n02504458_10112.png
subject-02,1,264,0.548763036727905,bear,bear,true,0264_fc_s02_true_bear_35_n02134418_1825.png
subject-02,1,265,0.655111789703369,truck,truck,false,0265_fc_s02_false_truck_35_n03417042_21758.png
subject-02,1,266,0.693698883056641,chair,chair,true,0266_fc_s02_true_chair_35_n04099969_34656.png
subject-02,1,267,0.876330852508545,bird,bird,true,0267_fc_s02_true_bird_35_n01614925_31268.png
subject-02,1,268,0.836843013763428,oven,oven,false,0268_fc_s02_false_oven_35_n04111531_12903.png
subject-02,1,269,0.537374019622803,cat,cat,true,0269_fc_s02_true_cat_35_n02124075_12042.png
subject-02,1,270,0.689689874649048,airplane,airplane,false,0270_fc_s02_false_airplane_35_n02690373_19438.png
subject-02,1,271,0.674389123916626,bird,bird,true,0271_fc_s02_true_bird_35_n02009229_3271.png
subject-02,1,272,1.0028030872345,boat,boat,false,0272_fc_s02_false_boat_35_n02951358_727.png
subject-02,1,273,0.825279951095581,clock,clock,true,0273_fc_s02_true_clock_35_n04548280_5278.png
subject-02,1,274,0.731754064559937,oven,oven,true,0274_fc_s02_true_oven_35_n04111531_14690.png
subject-02,1,275,0.632692813873291,chair,chair,false,0275_fc_s02_false_chair_35_n04429376_16923.png
subject-02,1,276,0.753271102905273,bicycle,bicycle,false,0276_fc_s02_false_bicycle_35_n03792782_3388.png
subject-02,1,277,0.545468091964722,dog,dog,true,0277_fc_s02_true_dog_35_n02085782_6241.png
subject-02,1,278,0.567645072937012,clock,clock,true,0278_fc_s02_true_clock_35_n03196217_343.png
subject-02,1,279,0.742138862609863,bear,bear,false,0279_fc_s02_false_bear_35_n02132136_4111.png
subject-02,1,280,0.840842008590698,boat,boat,false,0280_fc_s02_false_boat_35_n03344393_5126.png
subject-02,1,281,0.533415079116821,clock,clock,true,0281_fc_s02_true_clock_35_n02708093_6688.png
subject-02,1,282,0.501528024673462,bird,bird,false,0282_fc_s02_false_bird_35_n01537544_1074.png
subject-02,1,283,0.49180793762207,bird,bird,false,0283_fc_s02_false_bird_35_n02033041_8308.png
subject-02,1,284,0.844542026519775,knife,knife,false,0284_fc_s02_false_knife_35_n03041632_13846.png
subject-02,1,285,0.729128122329712,cat,dog,false,0285_fc_s02_false_dog_35_n02110806_2027.png
subject-02,1,286,0.611495971679688,knife,knife,false,0286_fc_s02_false_knife_35_n03041632_3717.png
subject-02,1,287,0.525989055633545,truck,truck,false,0287_fc_s02_false_truck_35_n03417042_2386.png
subject-02,1,288,0.824450969696045,bear,bear,false,0288_fc_s02_false_bear_35_n02134418_2591.png
subject-02,1,289,1.0089898109436,bicycle,bicycle,false,0289_fc_s02_false_bicycle_35_n02835271_10202.png
subject-02,1,290,0.761291980743408,keyboard,keyboard,true,0290_fc_s02_true_keyboard_35_n03085013_17884.png
subject-02,1,291,0.999988794326782,bird,bird,false,0291_fc_s02_false_bird_35_n02013706_6952.png
subject-02,1,292,0.706253051757812,oven,oven,false,0292_fc_s02_false_oven_35_n04111531_7340.png
subject-02,1,293,0.697015047073364,keyboard,keyboard,false,0293_fc_s02_false_keyboard_35_n03085013_22870.png
subject-02,1,294,0.835034847259521,car,car,true,0294_fc_s02_true_car_35_n04285008_3990.png
subject-02,1,295,0.641626119613647,keyboard,keyboard,false,0295_fc_s02_false_keyboard_35_n03085013_20798.png
subject-02,1,296,0.699712991714478,bicycle,bicycle,false,0296_fc_s02_false_bicycle_35_n02835271_3392.png
subject-02,1,297,0.600127935409546,cat,cat,true,0297_fc_s02_true_cat_35_n02124075_3506.png
subject-02,1,298,0.668677806854248,clock,clock,true,0298_fc_s02_true_clock_35_n03196217_66.png
subject-02,1,299,0.797225952148438,elephant,elephant,false,0299_fc_s02_false_elephant_35_n02504458_2618.png
subject-02,1,300,0.681725025177002,cat,cat,false,0300_fc_s02_false_cat_35_n02123394_1940.png
subject-02,1,301,0.742084980010986,truck,truck,false,0301_fc_s02_false_truck_35_n04467665_33099.png
subject-02,1,302,0.618580102920532,bicycle,bicycle,false,0302_fc_s02_false_bicycle_35_n03792782_15598.png
subject-02,1,303,0.563246965408325,truck,truck,true,0303_fc_s02_true_truck_35_n03417042_19668.png
subject-02,1,304,0.709798097610474,bird,bird,true,0304_fc_s02_true_bird_35_n01601694_3230.png
subject-02,1,305,0.999795913696289,chair,oven,false,0305_fc_s02_false_oven_35_n04111531_22784.png
subject-02,1,306,0.56863808631897,bottle,bottle,true,0306_fc_s02_true_bottle_35_n03937543_7302.png
subject-02,1,307,0.733097791671753,bird,bird,false,0307_fc_s02_false_bird_35_n01531178_21940.png
subject-02,1,308,0.831748008728027,bird,boat,false,0308_fc_s02_false_boat_35_n03344393_2790.png
subject-02,1,309,0.838200807571411,cat,cat,true,0309_fc_s02_true_cat_35_n02123045_10052.png
subject-02,1,310,0.730693817138672,keyboard,keyboard,false,0310_fc_s02_false_keyboard_35_n04505470_2243.png
subject-02,1,311,0.645381927490234,car,car,true,0311_fc_s02_true_car_35_n04285008_9527.png
subject-02,1,312,0.873656034469604,car,truck,true,0312_fc_s02_true_truck_35_n04467665_37066.png
subject-02,1,313,0.787996053695679,dog,dog,true,0313_fc_s02_true_dog_35_n02101388_9149.png
subject-02,1,314,0.564568996429443,truck,truck,false,0314_fc_s02_false_truck_35_n03417042_1978.png
subject-02,1,315,0.638880968093872,knife,knife,true,0315_fc_s02_true_knife_35_n03041632_2153.png
subject-02,1,316,0.639158964157104,bear,bear,false,0316_fc_s02_false_bear_35_n02132136_10024.png
subject-02,1,317,0.875469207763672,bottle,knife,false,0317_fc_s02_false_knife_35_n03041632_10796.png
subject-02,1,318,0.535543203353882,bottle,bottle,false,0318_fc_s02_false_bottle_35_n02823428_5949.png
subject-02,1,319,0.801928997039795,truck,truck,true,0319_fc_s02_true_truck_35_n03796401_4309.png
subject-02,1,320,0.608498096466064,bottle,bottle,false,0320_fc_s02_false_bottle_35_n04591713_12782.png
subject-02,1,321,0.5990891456604,clock,clock,true,0321_fc_s02_true_clock_35_n04548280_2717.png
subject-02,1,322,0.429475069046021,cat,cat,false,0322_fc_s02_false_cat_35_n02124075_8106.png
subject-02,1,323,0.711933851242065,truck,truck,true,0323_fc_s02_true_truck_35_n03417042_10229.png
subject-02,1,324,0.618304014205933,car,car,true,0324_fc_s02_true_car_35_n02814533_83665.png
subject-02,1,325,0.508884906768799,keyboard,keyboard,false,0325_fc_s02_false_keyboard_35_n03085013_19450.png
subject-02,1,326,0.593115091323853,bird,bird,true,0326_fc_s02_true_bird_35_n02007558_4181.png
subject-02,1,327,0.568013191223145,bird,bird,true,0327_fc_s02_true_bird_35_n01819313_12058.png
subject-02,1,328,0.556861162185669,elephant,elephant,true,0328_fc_s02_true_elephant_35_n02504013_26878.png
subject-02,1,329,0.639590978622437,bear,bear,true,0329_fc_s02_true_bear_35_n02132136_742.png
subject-02,1,330,0.623431921005249,chair,chair,false,0330_fc_s02_false_chair_35_n02791124_5490.png
subject-02,1,331,0.684151887893677,truck,truck,true,0331_fc_s02_true_truck_35_n04467665_34030.png
subject-02,1,332,1.25049901008606,elephant,elephant,true,0332_fc_s02_true_elephant_35_n02504013_10909.png
subject-02,1,333,0.803282022476196,elephant,elephant,true,0333_fc_s02_true_elephant_35_n02504013_6275.png
subject-02,1,334,0.641697883605957,bear,bear,true,0334_fc_s02_true_bear_35_n02134418_5480.png
subject-02,1,335,0.655904054641724,knife,knife,true,0335_fc_s02_true_knife_35_n03041632_46720.png
subject-02,1,336,0.616522073745728,bottle,bottle,false,0336_fc_s02_false_bottle_35_n02823428_10942.png
subject-02,1,337,0.492990016937256,bear,bear,true,0337_fc_s02_true_bear_35_n02134418_5014.png
subject-02,1,338,0.583894014358521,bird,bird,false,0338_fc_s02_false_bird_35_n02033041_2670.png
subject-02,1,339,0.524279117584229,bicycle,bicycle,false,0339_fc_s02_false_bicycle_35_n03792782_4869.png
subject-02,1,340,0.660594940185547,oven,oven,false,0340_fc_s02_false_oven_35_n04111531_10375.png
subject-02,1,341,0.798939943313599,knife,knife,true,0341_fc_s02_true_knife_35_n03041632_33268.png
subject-02,1,342,0.597615957260132,truck,truck,true,0342_fc_s02_true_truck_35_n03417042_3066.png
subject-02,1,343,0.449954986572266,bird,bird,false,0343_fc_s02_false_bird_35_n01855672_10838.png
subject-02,1,344,0.77276086807251,car,car,false,0344_fc_s02_false_car_35_n04285008_1912.png
subject-02,1,345,1.36902403831482,bottle,bottle,true,0345_fc_s02_true_bottle_35_n04557648_4143.png
subject-02,1,346,1.19130182266235,boat,bicycle,false,0346_fc_s02_false_bicycle_35_n03792782_13617.png
subject-02,1,347,0.614037036895752,elephant,elephant,true,0347_fc_s02_true_elephant_35_n02504458_6185.png
subject-02,1,348,0.490498065948486,bottle,bottle,false,0348_fc_s02_false_bottle_35_n04591713_9599.png
subject-02,1,349,0.613034009933472,airplane,airplane,false,0349_fc_s02_false_airplane_35_n02690373_5342.png
subject-02,1,350,0.57352089881897,truck,truck,false,0350_fc_s02_false_truck_35_n03417042_9559.png
subject-02,1,351,0.525576114654541,clock,clock,false,0351_fc_s02_false_clock_35_n03196217_3430.png
subject-02,1,352,0.654313087463379,car,car,false,0352_fc_s02_false_car_35_n04285008_7033.png
subject-02,1,353,0.58433198928833,truck,truck,true,0353_fc_s02_true_truck_35_n03417042_20489.png
subject-02,1,354,0.812848091125488,chair,bottle,false,0354_fc_s02_false_bottle_35_n04591713_3131.png
subject-02,1,355,0.735368967056274,bird,bird,false,0355_fc_s02_false_bird_35_n02002556_25563.png
subject-02,1,356,0.617419004440308,oven,oven,false,0356_fc_s02_false_oven_35_n04111531_8414.png
subject-02,1,357,0.547564029693604,chair,chair,true,0357_fc_s02_true_chair_35_n02791124_5439.png
subject-02,1,358,0.654237031936646,cat,cat,true,0358_fc_s02_true_cat_35_n02124075_7843.png
subject-02,1,359,0.568562030792236,elephant,elephant,true,0359_fc_s02_true_elephant_35_n02504013_1399.png
subject-02,1,360,0.889209985733032,cat,dog,true,0360_fc_s02_true_dog_35_n02091831_1852.png
subject-02,1,361,0.695553064346313,oven,oven,true,0361_fc_s02_true_oven_35_n04111531_9498.png
subject-02,1,362,0.633951902389526,airplane,airplane,true,0362_fc_s02_true_airplane_35_n02690373_8231.png
subject-02,1,363,0.724820852279663,boat,boat,true,0363_fc_s02_true_boat_35_n04273569_3244.png
subject-02,1,364,0.571006059646606,chair,chair,true,0364_fc_s02_true_chair_35_n04099969_7070.png
subject-02,1,365,0.669824123382568,chair,oven,true,0365_fc_s02_true_oven_35_n04111531_8305.png
subject-02,1,366,0.713982105255127,clock,clock,false,0366_fc_s02_false_clock_35_n04548280_4872.png
subject-02,1,367,0.620051145553589,oven,oven,true,0367_fc_s02_true_oven_35_n04111531_21011.png
subject-02,1,368,0.558264017105103,boat,boat,true,0368_fc_s02_true_boat_35_n04273569_5726.png
subject-02,1,369,0.470983982086182,boat,boat,true,0369_fc_s02_true_boat_35_n03344393_12983.png
subject-02,1,370,0.909375190734863,keyboard,keyboard,false,0370_fc_s02_false_keyboard_35_n03085013_7322.png
subject-02,1,371,0.691863775253296,boat,boat,false,0371_fc_s02_false_boat_35_n02951358_13043.png
subject-02,1,372,0.89838695526123,chair,chair,false,0372_fc_s02_false_chair_35_n03376595_15231.png
subject-02,1,373,0.690696001052856,keyboard,keyboard,true,0373_fc_s02_true_keyboard_35_n04505470_1412.png
subject-02,1,374,1.20341396331787,elephant,elephant,false,0374_fc_s02_false_elephant_35_n02504013_2945.png
subject-02,1,375,0.726062059402466,bear,bear,true,0375_fc_s02_true_bear_35_n02132136_13078.png
subject-02,1,376,0.740410089492798,clock,clock,true,0376_fc_s02_true_clock_35_n03196217_2224.png
subject-02,1,377,0.562900066375732,cat,cat,true,0377_fc_s02_true_cat_35_n02125311_5706.png
subject-02,1,378,0.807363986968994,boat,bottle,false,0378_fc_s02_false_bottle_35_n04560804_570.png
subject-02,1,379,0.597904205322266,car,car,true,0379_fc_s02_true_car_35_n03100240_2667.png
subject-02,1,380,0.812527894973755,airplane,airplane,false,0380_fc_s02_false_airplane_35_n02690373_1512.png
subject-02,1,381,0.596947908401489,bear,bear,true,0381_fc_s02_true_bear_35_n02134418_4666.png
subject-02,1,382,0.578916072845459,airplane,airplane,false,0382_fc_s02_false_airplane_35_n02690373_7300.png
subject-02,1,383,0.509600162506104,elephant,elephant,false,0383_fc_s02_false_elephant_35_n02504013_10773.png
subject-02,1,384,0.575922012329102,bird,bird,false,0384_fc_s02_false_bird_35_n02006656_5963.png
subject-02,1,385,0.744364976882935,dog,dog,true,0385_fc_s02_true_dog_35_n02110806_4105.png
subject-02,1,386,0.867199897766113,car,car,false,0386_fc_s02_false_car_35_n03100240_15867.png
subject-02,1,387,0.719697952270508,bear,bear,true,0387_fc_s02_true_bear_35_n02133161_1126.png
subject-02,1,388,0.902330875396729,bottle,bottle,false,0388_fc_s02_false_bottle_35_n03937543_10181.png
subject-02,1,389,0.602662086486816,truck,truck,true,0389_fc_s02_true_truck_35_n03417042_5866.png
subject-02,1,390,0.515115022659302,oven,oven,false,0390_fc_s02_false_oven_35_n04111531_545.png
subject-02,1,391,0.483538866043091,keyboard,keyboard,true,0391_fc_s02_true_keyboard_35_n04505470_4199.png
subject-02,1,392,0.76784086227417,car,car,true,0392_fc_s02_true_car_35_n02814533_12185.png
subject-02,1,393,1.25662684440613,bicycle,bicycle,true,0393_fc_s02_true_bicycle_35_n02835271_19875.png
subject-02,1,394,0.772979021072388,cat,cat,false,0394_fc_s02_false_cat_35_n02123045_7782.png
subject-02,1,395,0.571200847625732,bicycle,bicycle,true,0395_fc_s02_true_bicycle_35_n03792782_6215.png
subject-02,1,396,0.70750904083252,chair,chair,false,0396_fc_s02_false_chair_35_n04099969_22528.png
subject-02,1,397,0.846012115478516,chair,knife,false,0397_fc_s02_false_knife_35_n03041632_33326.png
subject-02,1,398,0.828248977661133,chair,chair,false,0398_fc_s02_false_chair_35_n02791124_6183.png
subject-02,1,399,0.634577035903931,keyboard,keyboard,false,0399_fc_s02_false_keyboard_35_n03085013_21355.png
subject-02,1,400,NaN,na,oven,false,0400_fc_s02_false_oven_35_n04111531_4955.png
subject-02,1,401,0.731964826583862,bird,bird,true,0401_fc_s02_true_bird_35_n02002724_450.png
subject-02,1,402,0.829831838607788,chair,chair,false,0402_fc_s02_false_chair_35_n02791124_206.png
subject-02,1,403,0.659917116165161,car,car,false,0403_fc_s02_false_car_35_n03100240_2235.png
subject-02,1,404,0.766726016998291,bear,bear,false,0404_fc_s02_false_bear_35_n02134418_328.png
subject-02,1,405,0.789129972457886,boat,boat,false,0405_fc_s02_false_boat_35_n03344393_1318.png
subject-02,1,406,0.809600114822388,boat,boat,true,0406_fc_s02_true_boat_35_n02951358_30117.png
subject-02,1,407,0.809948921203613,truck,truck,false,0407_fc_s02_false_truck_35_n03417042_4765.png
subject-02,1,408,0.708663940429688,bicycle,bicycle,false,0408_fc_s02_false_bicycle_35_n03792782_35912.png
subject-02,1,409,0.545066118240356,bird,bird,false,0409_fc_s02_false_bird_35_n01616318_2236.png
subject-02,1,410,0.813822031021118,cat,cat,false,0410_fc_s02_false_cat_35_n02123045_2466.png
subject-02,1,411,0.920023918151855,cat,knife,true,0411_fc_s02_true_knife_35_n03041632_32896.png
subject-02,1,412,0.804557800292969,clock,clock,false,0412_fc_s02_false_clock_35_n04548280_2383.png
subject-02,1,413,0.619331836700439,car,car,true,0413_fc_s02_true_car_35_n03100240_5291.png
subject-02,1,414,1.22357296943665,bottle,bottle,false,0414_fc_s02_false_bottle_35_n02823428_1815.png
subject-02,1,415,0.785959959030151,truck,truck,true,0415_fc_s02_true_truck_35_n04467665_59894.png
subject-02,1,416,0.882061958312988,knife,knife,true,0416_fc_s02_true_knife_35_n03041632_24817.png
subject-02,1,417,0.742542028427124,bottle,knife,false,0417_fc_s02_false_knife_35_n03041632_25257.png
subject-02,1,418,0.841281890869141,truck,truck,false,0418_fc_s02_false_truck_35_n03417042_9152.png
subject-02,1,419,0.549719095230103,cat,dog,false,0419_fc_s02_false_dog_35_n02094114_7336.png
subject-02,1,420,0.524410963058472,clock,clock,false,0420_fc_s02_false_clock_35_n02708093_4415.png
subject-02,1,421,0.630527973175049,oven,oven,true,0421_fc_s02_true_oven_35_n04111531_3076.png
subject-02,1,422,0.767375946044922,keyboard,keyboard,true,0422_fc_s02_true_keyboard_35_n04505470_1724.png
subject-02,1,423,0.697514057159424,bottle,bottle,true,0423_fc_s02_true_bottle_35_n04557648_16327.png
subject-02,1,424,0.534055948257446,bicycle,bicycle,true,0424_fc_s02_true_bicycle_35_n02835271_11851.png
subject-02,1,425,0.70263409614563,knife,knife,true,0425_fc_s02_true_knife_35_n03041632_24181.png
subject-02,1,426,0.947272062301636,bear,bear,false,0426_fc_s02_false_bear_35_n02134084_22002.png
subject-02,1,427,0.693380117416382,bottle,bottle,false,0427_fc_s02_false_bottle_35_n04560804_13141.png
subject-02,1,428,0.63768482208252,airplane,airplane,true,0428_fc_s02_true_airplane_35_n02690373_2865.png
subject-02,1,429,0.589986085891724,oven,oven,true,0429_fc_s02_true_oven_35_n04111531_15616.png
subject-02,1,430,0.680716037750244,bottle,bottle,false,0430_fc_s02_false_bottle_35_n04591713_5463.png
subject-02,1,431,1.23301911354065,bottle,bottle,true,0431_fc_s02_true_bottle_35_n04591713_5047.png
subject-02,1,432,0.747381925582886,bicycle,bicycle,false,0432_fc_s02_false_bicycle_35_n03792782_32.png
subject-02,1,433,0.524296045303345,bird,bird,false,0433_fc_s02_false_bird_35_n01820546_4631.png
subject-02,1,434,0.744374990463257,elephant,elephant,true,0434_fc_s02_true_elephant_35_n02504458_8062.png
subject-02,1,435,0.728975057601929,dog,dog,false,0435_fc_s02_false_dog_35_n02092002_15428.png
subject-02,1,436,0.8332839012146,bird,bird,true,0436_fc_s02_true_bird_35_n01798484_8715.png
subject-02,1,437,0.863842010498047,bear,cat,false,0437_fc_s02_false_cat_35_n02123394_1625.png
subject-02,1,438,0.60825514793396,dog,dog,false,0438_fc_s02_false_dog_35_n02093991_2122.png
subject-02,1,439,1.0222020149231,chair,chair,true,0439_fc_s02_true_chair_35_n04429376_13751.png
subject-02,1,440,0.636826038360596,car,car,false,0440_fc_s02_false_car_35_n04285008_1391.png
subject-02,1,441,0.60313892364502,knife,knife,false,0441_fc_s02_false_knife_35_n03041632_20662.png
subject-02,1,442,0.571760892868042,truck,truck,true,0442_fc_s02_true_truck_35_n04467665_32885.png
subject-02,1,443,0.73228907585144,boat,boat,true,0443_fc_s02_true_boat_35_n04612504_29711.png
subject-02,1,444,1.23663806915283,airplane,boat,false,0444_fc_s02_false_boat_35_n03344393_9262.png
subject-02,1,445,0.991231918334961,airplane,airplane,true,0445_fc_s02_true_airplane_35_n02690373_1829.png
subject-02,1,446,0.789745092391968,knife,knife,true,0446_fc_s02_true_knife_35_n03041632_16606.png
subject-02,1,447,0.787930965423584,bicycle,bicycle,false,0447_fc_s02_false_bicycle_35_n03792782_19116.png
subject-02,1,448,0.732172012329102,oven,chair,false,0448_fc_s02_false_chair_35_n04429376_7416.png
subject-02,1,449,0.697449922561646,chair,chair,true,0449_fc_s02_true_chair_35_n04429376_9312.png
subject-02,1,450,0.85017991065979,keyboard,keyboard,false,0450_fc_s02_false_keyboard_35_n03085013_2143.png
subject-02,1,451,0.702636957168579,boat,boat,true,0451_fc_s02_true_boat_35_n04612504_15794.png
subject-02,1,452,0.701228857040405,boat,boat,false,0452_fc_s02_false_boat_35_n03344393_5050.png
subject-02,1,453,0.877638101577759,chair,chair,true,0453_fc_s02_true_chair_35_n02791124_11346.png
subject-02,1,454,0.706478834152222,bicycle,bicycle,false,0454_fc_s02_false_bicycle_35_n02835271_1055.png
subject-02,1,455,0.574526786804199,bird,bird,false,0455_fc_s02_false_bird_35_n02037110_7385.png
subject-02,1,456,0.597268104553223,cat,cat,false,0456_fc_s02_false_cat_35_n02124075_12622.png
subject-02,1,457,0.641643047332764,bottle,bottle,false,0457_fc_s02_false_bottle_35_n04579145_4934.png
subject-02,1,458,0.869924068450928,oven,oven,false,0458_fc_s02_false_oven_35_n04111531_2721.png
subject-02,1,459,0.946077823638916,bear,bear,true,0459_fc_s02_true_bear_35_n02133161_10651.png
subject-02,1,460,0.460346937179565,chair,chair,false,0460_fc_s02_false_chair_35_n03376595_10396.png
subject-02,1,461,0.656710863113403,dog,dog,false,0461_fc_s02_false_dog_35_n02086910_12031.png
subject-02,1,462,0.64119291305542,dog,dog,true,0462_fc_s02_true_dog_35_n02110185_6501.png
subject-02,1,463,0.977803945541382,truck,truck,false,0463_fc_s02_false_truck_35_n03796401_30081.png
subject-02,1,464,0.67628812789917,dog,dog,true,0464_fc_s02_true_dog_35_n02106550_3533.png
subject-02,1,465,0.590840101242065,oven,oven,false,0465_fc_s02_false_oven_35_n04111531_9844.png
subject-02,1,466,0.65938401222229,keyboard,keyboard,false,0466_fc_s02_false_keyboard_35_n04505470_5354.png
subject-02,1,467,0.465849161148071,car,car,true,0467_fc_s02_true_car_35_n02814533_6150.png
subject-02,1,468,0.634429931640625,airplane,airplane,false,0468_fc_s02_false_airplane_35_n02690373_17731.png
subject-02,1,469,0.578454971313477,elephant,elephant,false,0469_fc_s02_false_elephant_35_n02504013_6748.png
subject-02,1,470,0.730981111526489,cat,cat,true,0470_fc_s02_true_cat_35_n02124075_2747.png
subject-02,1,471,0.843173027038574,elephant,elephant,true,0471_fc_s02_true_elephant_35_n02504458_5978.png
subject-02,1,472,0.565644979476929,airplane,airplane,true,0472_fc_s02_true_airplane_35_n02690373_4148.png
subject-02,1,473,0.634068965911865,chair,chair,false,0473_fc_s02_false_chair_35_n03376595_7035.png
subject-02,1,474,0.962979078292847,bottle,knife,true,0474_fc_s02_true_knife_35_n03041632_24646.png
subject-02,1,475,0.84515380859375,elephant,elephant,false,0475_fc_s02_false_elephant_35_n02504458_1863.png
subject-02,1,476,NaN,na,knife,false,0476_fc_s02_false_knife_35_n03041632_20217.png
subject-02,1,477,0.773831844329834,knife,knife,false,0477_fc_s02_false_knife_35_n03041632_1201.png
subject-02,1,478,0.488205909729004,bird,bird,true,0478_fc_s02_true_bird_35_n01798484_13335.png
subject-02,1,479,0.632488965988159,chair,chair,true,0479_fc_s02_true_chair_35_n04099969_12099.png
subject-02,1,480,0.676853895187378,chair,chair,true,0480_fc_s02_true_chair_35_n03376595_16321.png
subject-02,1,481,0.683044910430908,oven,oven,true,0481_fc_s02_true_oven_35_n04111531_11935.png
subject-02,1,482,0.559613943099976,keyboard,keyboard,true,0482_fc_s02_true_keyboard_35_n04505470_3089.png
subject-02,1,483,0.857696056365967,cat,cat,false,0483_fc_s02_false_cat_35_n02123597_4300.png
subject-02,1,484,0.702175855636597,bottle,bottle,true,0484_fc_s02_true_bottle_35_n04579145_21.png
subject-02,1,485,0.800605773925781,chair,chair,true,0485_fc_s02_true_chair_35_n03376595_6864.png
subject-02,1,486,0.50738787651062,boat,boat,false,0486_fc_s02_false_boat_35_n02951358_1461.png
subject-02,1,487,0.559802770614624,keyboard,keyboard,true,0487_fc_s02_true_keyboard_35_n04505470_3666.png
subject-02,1,488,0.534080028533936,keyboard,keyboard,false,0488_fc_s02_false_keyboard_35_n04505470_4784.png
subject-02,1,489,0.624594926834106,cat,cat,true,0489_fc_s02_true_cat_35_n02124075_11955.png
subject-02,1,490,0.63912296295166,bear,bear,true,0490_fc_s02_true_bear_35_n02134418_1750.png
subject-02,1,491,0.529510021209717,clock,clock,true,0491_fc_s02_true_clock_35_n04548280_5721.png
subject-02,1,492,0.666341066360474,bottle,bottle,true,0492_fc_s02_true_bottle_35_n04579145_2519.png
subject-02,1,493,0.496766090393066,oven,oven,true,0493_fc_s02_true_oven_35_n04111531_16161.png
subject-02,1,494,0.503262996673584,airplane,airplane,true,0494_fc_s02_true_airplane_35_n02690373_4681.png
subject-02,1,495,0.50968599319458,keyboard,keyboard,true,0495_fc_s02_true_keyboard_35_n03085013_1812.png
subject-02,1,496,0.568087816238403,cat,cat,true,0496_fc_s02_true_cat_35_n02123394_3949.png
subject-02,1,497,0.53594183921814,chair,bottle,false,0497_fc_s02_false_bottle_35_n02823428_5436.png
subject-02,1,498,0.558839082717896,bottle,bottle,false,0498_fc_s02_false_bottle_35_n02823428_7806.png
subject-02,1,499,0.609056949615479,chair,chair,true,0499_fc_s02_true_chair_35_n04099969_10458.png
subject-02,1,500,1.24533605575562,bottle,knife,false,0500_fc_s02_false_knife_35_n03041632_27709.png
subject-02,1,501,1.00585508346558,bear,bear,true,0501_fc_s02_true_bear_35_n02132136_6469.png
subject-02,1,502,0.5206298828125,oven,oven,true,0502_fc_s02_true_oven_35_n04111531_20875.png
subject-02,1,503,0.451062917709351,boat,boat,false,0503_fc_s02_false_boat_35_n02951358_26299.png
subject-02,1,504,0.449362993240356,boat,boat,true,0504_fc_s02_true_boat_35_n04612504_40598.png
subject-02,1,505,0.477646112442017,knife,knife,false,0505_fc_s02_false_knife_35_n03041632_36814.png
subject-02,1,506,0.897649049758911,chair,chair,true,0506_fc_s02_true_chair_35_n03376595_10983.png
subject-02,1,507,0.742521047592163,car,car,false,0507_fc_s02_false_car_35_n02814533_1533.png
subject-02,1,508,0.572681903839111,keyboard,keyboard,true,0508_fc_s02_true_keyboard_35_n04505470_4486.png
subject-02,1,509,0.571185827255249,keyboard,keyboard,true,0509_fc_s02_true_keyboard_35_n03085013_21558.png
subject-02,1,510,0.723785877227783,cat,cat,false,0510_fc_s02_false_cat_35_n02124075_8528.png
subject-02,1,511,0.668285131454468,knife,knife,true,0511_fc_s02_true_knife_35_n03041632_46103.png
subject-02,1,512,0.750860214233398,bird,bird,false,0512_fc_s02_false_bird_35_n01514859_8481.png
subject-02,1,513,0.498915910720825,boat,boat,false,0513_fc_s02_false_boat_35_n04612504_3179.png
subject-02,1,514,0.743333101272583,airplane,airplane,false,0514_fc_s02_false_airplane_35_n02690373_4108.png
subject-02,1,515,1.01805210113525,cat,cat,false,0515_fc_s02_false_cat_35_n02123045_10645.png
subject-02,1,516,0.626317024230957,bear,bear,true,0516_fc_s02_true_bear_35_n02133161_2800.png
subject-02,1,517,0.884954929351807,truck,truck,false,0517_fc_s02_false_truck_35_n04467665_4239.png
subject-02,1,518,1.32089400291443,truck,truck,true,0518_fc_s02_true_truck_35_n03417042_22683.png
subject-02,1,519,0.65151309967041,car,car,true,0519_fc_s02_true_car_35_n04285008_3950.png
subject-02,1,520,0.466084003448486,clock,clock,true,0520_fc_s02_true_clock_35_n04548280_64.png
subject-02,1,521,0.596595048904419,oven,oven,true,0521_fc_s02_true_oven_35_n04111531_10884.png
subject-02,1,522,0.80902099609375,bicycle,bicycle,true,0522_fc_s02_true_bicycle_35_n03792782_32689.png
subject-02,1,523,0.63933801651001,car,car,false,0523_fc_s02_false_car_35_n02814533_13278.png
subject-02,1,524,0.935155868530273,truck,boat,false,0524_fc_s02_false_boat_35_n03344393_5176.png
subject-02,1,525,0.595705986022949,boat,boat,false,0525_fc_s02_false_boat_35_n03344393_1074.png
subject-02,1,526,0.524180889129639,bear,bear,true,0526_fc_s02_true_bear_35_n02134084_10224.png
subject-02,1,527,0.746530055999756,clock,clock,false,0527_fc_s02_false_clock_35_n03196217_10518.png
subject-02,1,528,0.705111980438232,bird,bird,false,0528_fc_s02_false_bird_35_n02018207_23568.png
subject-02,1,529,0.551458120346069,clock,clock,false,0529_fc_s02_false_clock_35_n03196217_427.png
subject-02,1,530,0.701741933822632,bear,bear,false,0530_fc_s02_false_bear_35_n02132136_5517.png
subject-02,1,531,0.516302108764648,clock,clock,true,0531_fc_s02_true_clock_35_n02708093_6672.png
subject-02,1,532,0.598349094390869,chair,truck,true,0532_fc_s02_true_truck_35_n03796401_1425.png
subject-02,1,533,0.633350133895874,dog,dog,true,0533_fc_s02_true_dog_35_n02097298_9540.png
subject-02,1,534,0.577805995941162,bicycle,bicycle,true,0534_fc_s02_true_bicycle_35_n02835271_10166.png
subject-02,1,535,0.468568086624146,cat,cat,false,0535_fc_s02_false_cat_35_n02124075_10971.png
subject-02,1,536,0.444784164428711,bottle,bottle,true,0536_fc_s02_true_bottle_35_n02823428_56.png
subject-02,1,537,0.473383188247681,elephant,elephant,false,0537_fc_s02_false_elephant_35_n02504013_1720.png
subject-02,1,538,0.464257955551147,boat,boat,true,0538_fc_s02_true_boat_35_n02951358_2910.png
subject-02,1,539,0.768529891967773,car,car,false,0539_fc_s02_false_car_35_n03100240_23804.png
subject-02,1,540,1.40469717979431,oven,boat,true,0540_fc_s02_true_boat_35_n03344393_6560.png
subject-02,1,541,0.719114065170288,bicycle,bicycle,false,0541_fc_s02_false_bicycle_35_n02835271_3677.png
subject-02,1,542,0.709639072418213,bear,bear,true,0542_fc_s02_true_bear_35_n02134418_4850.png
subject-02,1,543,0.540050983428955,dog,dog,false,0543_fc_s02_false_dog_35_n02086240_12763.png
subject-02,1,544,0.522406816482544,cat,cat,true,0544_fc_s02_true_cat_35_n02123394_3218.png
subject-02,1,545,0.543174028396606,keyboard,keyboard,false,0545_fc_s02_false_keyboard_35_n04505470_10786.png
subject-02,1,546,0.603634119033813,elephant,elephant,false,0546_fc_s02_false_elephant_35_n02504013_6469.png
subject-02,1,547,0.986027956008911,car,car,true,0547_fc_s02_true_car_35_n02814533_77053.png
subject-02,1,548,0.632462024688721,cat,cat,false,0548_fc_s02_false_cat_35_n02125311_23734.png
subject-02,1,549,0.699027061462402,bear,bear,false,0549_fc_s02_false_bear_35_n02134084_33375.png
subject-02,1,550,0.651324987411499,elephant,elephant,false,0550_fc_s02_false_elephant_35_n02504458_6199.png
subject-02,1,551,0.671941995620728,oven,oven,true,0551_fc_s02_true_oven_35_n04111531_3976.png
subject-02,1,552,0.86236310005188,boat,boat,false,0552_fc_s02_false_boat_35_n03662601_8096.png
subject-02,1,553,0.830712080001831,dog,dog,false,0553_fc_s02_false_dog_35_n02086079_7380.png
subject-02,1,554,0.683182954788208,airplane,airplane,false,0554_fc_s02_false_airplane_35_n02690373_9264.png
subject-02,1,555,0.665177822113037,cat,cat,true,0555_fc_s02_true_cat_35_n02123597_1219.png
subject-02,1,556,0.579648017883301,oven,oven,false,0556_fc_s02_false_oven_35_n04111531_15296.png
subject-02,1,557,0.618238925933838,bicycle,bicycle,false,0557_fc_s02_false_bicycle_35_n03792782_12503.png
subject-02,1,558,0.668843030929565,clock,clock,true,0558_fc_s02_true_clock_35_n02708093_3623.png
subject-02,1,559,0.661519050598145,elephant,elephant,true,0559_fc_s02_true_elephant_35_n02504013_4880.png
subject-02,1,560,0.752059936523438,bird,bird,true,0560_fc_s02_true_bird_35_n02018207_6470.png
subject-02,1,561,0.818487167358398,truck,truck,false,0561_fc_s02_false_truck_35_n04467665_22914.png
subject-02,1,562,0.649075984954834,boat,boat,false,0562_fc_s02_false_boat_35_n04612504_30603.png
subject-02,1,563,0.944886207580566,knife,knife,true,0563_fc_s02_true_knife_35_n03041632_56436.png
subject-02,1,564,0.813436031341553,knife,knife,false,0564_fc_s02_false_knife_35_n03041632_30457.png
subject-02,1,565,0.628077983856201,oven,chair,true,0565_fc_s02_true_chair_35_n02791124_13701.png
subject-02,1,566,0.510440111160278,airplane,airplane,true,0566_fc_s02_true_airplane_35_n02690373_8950.png
subject-02,1,567,0.370758056640625,clock,clock,true,0567_fc_s02_true_clock_35_n03196217_3361.png
subject-02,1,568,0.461470127105713,clock,clock,false,0568_fc_s02_false_clock_35_n03196217_5339.png
subject-02,1,569,1.07380104064941,boat,boat,true,0569_fc_s02_true_boat_35_n04612504_4447.png
subject-02,1,570,0.612346172332764,chair,chair,true,0570_fc_s02_true_chair_35_n02791124_7019.png
subject-02,1,571,0.941133975982666,bear,bear,true,0571_fc_s02_true_bear_35_n02132136_6900.png
subject-02,1,572,0.531422853469849,airplane,airplane,false,0572_fc_s02_false_airplane_35_n02690373_9618.png
subject-02,1,573,0.46197509765625,cat,cat,true,0573_fc_s02_true_cat_35_n02125311_7148.png
subject-02,1,574,0.614423036575317,bottle,bottle,true,0574_fc_s02_true_bottle_35_n02823428_79.png
subject-02,1,575,0.726845979690552,cat,cat,true,0575_fc_s02_true_cat_35_n02125311_33014.png
subject-02,1,576,0.557390928268433,bicycle,bicycle,false,0576_fc_s02_false_bicycle_35_n03792782_16568.png
subject-02,1,577,0.480983018875122,boat,boat,false,0577_fc_s02_false_boat_35_n02951358_1586.png
subject-02,1,578,0.63117504119873,oven,oven,true,0578_fc_s02_true_oven_35_n04111531_584.png
subject-02,1,579,0.729711055755615,knife,knife,false,0579_fc_s02_false_knife_35_n03041632_22330.png
subject-02,1,580,0.728299140930176,airplane,airplane,true,0580_fc_s02_true_airplane_35_n02690373_7748.png
subject-02,1,581,0.580976963043213,bicycle,bicycle,false,0581_fc_s02_false_bicycle_35_n03792782_21125.png
subject-02,1,582,0.571612119674683,boat,boat,false,0582_fc_s02_false_boat_35_n03662601_3938.png
subject-02,1,583,0.58586597442627,bear,bear,true,0583_fc_s02_true_bear_35_n02134084_20875.png
subject-02,1,584,0.668489933013916,clock,clock,false,0584_fc_s02_false_clock_35_n03196217_50.png
subject-02,1,585,0.345095872879028,boat,boat,true,0585_fc_s02_true_boat_35_n04612504_1582.png
subject-02,1,586,0.535150051116943,knife,knife,true,0586_fc_s02_true_knife_35_n03041632_32459.png
subject-02,1,587,0.909820079803467,keyboard,keyboard,false,0587_fc_s02_false_keyboard_35_n03085013_23192.png
subject-02,1,588,0.570001840591431,truck,truck,false,0588_fc_s02_false_truck_35_n03796401_99.png
subject-02,1,589,0.53054404258728,keyboard,keyboard,false,0589_fc_s02_false_keyboard_35_n03085013_24363.png
subject-02,1,590,0.45891809463501,airplane,airplane,true,0590_fc_s02_true_airplane_35_n02690373_4412.png
subject-02,1,591,0.549844980239868,car,car,true,0591_fc_s02_true_car_35_n02814533_25877.png
subject-02,1,592,0.518014907836914,airplane,airplane,true,0592_fc_s02_true_airplane_35_n02690373_9760.png
subject-02,1,593,0.914467811584473,bear,bear,false,0593_fc_s02_false_bear_35_n02132136_5453.png
subject-02,1,594,0.598843097686768,chair,chair,true,0594_fc_s02_true_chair_35_n04429376_29954.png
subject-02,1,595,0.467286109924316,car,car,false,0595_fc_s02_false_car_35_n03100240_12104.png
subject-02,1,596,0.626217842102051,bottle,bottle,false,0596_fc_s02_false_bottle_35_n03937543_1705.png
subject-02,1,597,0.54065990447998,cat,cat,false,0597_fc_s02_false_cat_35_n02123394_1414.png
subject-02,1,598,0.877102851867676,oven,clock,true,0598_fc_s02_true_clock_35_n02708093_3723.png
subject-02,1,599,0.658600091934204,keyboard,keyboard,true,0599_fc_s02_true_keyboard_35_n03085013_20682.png
subject-02,1,600,0.497134923934937,clock,clock,false,0600_fc_s02_false_clock_35_n03196217_2536.png
subject-02,1,601,0.809062957763672,bicycle,bicycle,true,0601_fc_s02_true_bicycle_35_n02835271_19676.png
subject-02,1,602,0.631227970123291,bottle,bottle,true,0602_fc_s02_true_bottle_35_n03937543_1883.png
subject-02,1,603,0.690038919448853,bottle,bottle,true,0603_fc_s02_true_bottle_35_n02823428_12738.png
subject-02,1,604,0.588270902633667,chair,chair,false,0604_fc_s02_false_chair_35_n04099969_19060.png
subject-02,1,605,0.586935997009277,bottle,bottle,false,0605_fc_s02_false_bottle_35_n03983396_5148.png
subject-02,1,606,0.477267026901245,car,car,true,0606_fc_s02_true_car_35_n03100240_7592.png
subject-02,1,607,0.77564001083374,cat,dog,false,0607_fc_s02_false_dog_35_n02093428_10575.png
subject-02,1,608,0.444415092468262,boat,boat,false,0608_fc_s02_false_boat_35_n02951358_32930.png
subject-02,1,609,1.04281306266785,truck,truck,false,0609_fc_s02_false_truck_35_n04467665_28301.png
subject-02,1,610,0.842816114425659,cat,knife,false,0610_fc_s02_false_knife_35_n03041632_33255.png
subject-02,1,611,0.426877021789551,airplane,airplane,false,0611_fc_s02_false_airplane_35_n02690373_9317.png
subject-02,1,612,0.563414812088013,dog,dog,true,0612_fc_s02_true_dog_35_n02098105_2086.png
subject-02,1,613,0.499873876571655,bird,bird,true,0613_fc_s02_true_bird_35_n01824575_7960.png
subject-02,1,614,0.490165948867798,car,car,false,0614_fc_s02_false_car_35_n03100240_17730.png
subject-02,1,615,0.426630020141602,cat,cat,true,0615_fc_s02_true_cat_35_n02124075_8368.png
subject-02,1,616,0.587041854858398,bottle,bottle,true,0616_fc_s02_true_bottle_35_n03983396_5209.png
subject-02,1,617,0.569729089736938,keyboard,keyboard,true,0617_fc_s02_true_keyboard_35_n04505470_4417.png
subject-02,1,618,0.752243995666504,bear,bear,true,0618_fc_s02_true_bear_35_n02134084_2921.png
subject-02,1,619,0.65280294418335,boat,bear,true,0619_fc_s02_true_bear_35_n02132136_9249.png
subject-02,1,620,0.596926927566528,dog,dog,false,0620_fc_s02_false_dog_35_n02100877_3141.png
subject-02,1,621,0.808839797973633,clock,clock,false,0621_fc_s02_false_clock_35_n03196217_7741.png
subject-02,1,622,0.523645877838135,cat,cat,true,0622_fc_s02_true_cat_35_n02123394_10349.png
subject-02,1,623,0.637786865234375,cat,cat,false,0623_fc_s02_false_cat_35_n02125311_3380.png
subject-02,1,624,0.988410949707031,dog,dog,false,0624_fc_s02_false_dog_35_n02091831_2692.png
subject-02,1,625,0.6110680103302,chair,chair,false,0625_fc_s02_false_chair_35_n03376595_5112.png
subject-02,1,626,0.831369876861572,elephant,elephant,true,0626_fc_s02_true_elephant_35_n02504458_461.png
subject-02,1,627,0.492053031921387,cat,dog,false,0627_fc_s02_false_dog_35_n02093991_7954.png
subject-02,1,628,0.535939931869507,clock,clock,true,0628_fc_s02_true_clock_35_n04548280_5018.png
subject-02,1,629,0.602299928665161,keyboard,keyboard,false,0629_fc_s02_false_keyboard_35_n04505470_10558.png
subject-02,1,630,0.778663158416748,knife,knife,false,0630_fc_s02_false_knife_35_n03041632_15444.png
subject-02,1,631,0.639175891876221,bottle,bottle,true,0631_fc_s02_true_bottle_35_n03983396_3047.png
subject-02,1,632,0.767784118652344,knife,knife,false,0632_fc_s02_false_knife_35_n03041632_39840.png
subject-02,1,633,0.766329050064087,elephant,elephant,false,0633_fc_s02_false_elephant_35_n02504013_1430.png
subject-02,1,634,0.464570999145508,clock,clock,true,0634_fc_s02_true_clock_35_n04548280_8156.png
subject-02,1,635,0.563277006149292,bicycle,bicycle,true,0635_fc_s02_true_bicycle_35_n03792782_5160.png
subject-02,1,636,0.677697896957397,elephant,elephant,false,0636_fc_s02_false_elephant_35_n02504013_464.png
subject-02,1,637,0.690319061279297,bird,bird,false,0637_fc_s02_false_bird_35_n01796340_2199.png
subject-02,1,638,0.772975921630859,cat,cat,false,0638_fc_s02_false_cat_35_n02123597_9056.png
subject-02,1,639,1.18501091003418,truck,truck,true,0639_fc_s02_true_truck_35_n04467665_23247.png
subject-02,1,640,0.685518026351929,elephant,elephant,false,0640_fc_s02_false_elephant_35_n02504458_6120.png
subject-02,1,641,0.736397981643677,bear,bear,false,0641_fc_s02_false_bear_35_n02134084_2900.png
subject-02,1,642,0.865146160125732,knife,knife,false,0642_fc_s02_false_knife_35_n03041632_8151.png
subject-02,1,643,0.541670799255371,bird,bird,false,0643_fc_s02_false_bird_35_n02006656_6894.png
subject-02,1,644,0.570436000823975,truck,truck,false,0644_fc_s02_false_truck_35_n03796401_4605.png
subject-02,1,645,0.614798069000244,bicycle,bicycle,true,0645_fc_s02_true_bicycle_35_n03792782_4591.png
subject-02,1,646,0.82095193862915,knife,knife,false,0646_fc_s02_false_knife_35_n03041632_82197.png
subject-02,1,647,0.451298952102661,cat,cat,true,0647_fc_s02_true_cat_35_n02123394_3179.png
subject-02,1,648,0.395246982574463,bicycle,bicycle,false,0648_fc_s02_false_bicycle_35_n03792782_9086.png
subject-02,1,649,0.527935981750488,truck,truck,false,0649_fc_s02_false_truck_35_n03417042_10752.png
subject-02,1,650,0.786226987838745,bottle,bottle,false,0650_fc_s02_false_bottle_35_n04557648_704.png
subject-02,1,651,0.432760953903198,car,car,false,0651_fc_s02_false_car_35_n03100240_6.png
subject-02,1,652,0.453213930130005,bear,bear,false,0652_fc_s02_false_bear_35_n02133161_13921.png
subject-02,1,653,0.421651124954224,oven,oven,true,0653_fc_s02_true_oven_35_n04111531_4918.png
subject-02,1,654,0.674340009689331,car,car,true,0654_fc_s02_true_car_35_n02814533_41058.png
subject-02,1,655,0.556780099868774,dog,dog,false,0655_fc_s02_false_dog_35_n02086646_8953.png
subject-02,1,656,0.487328052520752,bicycle,bicycle,true,0656_fc_s02_true_bicycle_35_n03792782_1851.png
subject-02,1,657,0.661661863327026,cat,cat,true,0657_fc_s02_true_cat_35_n02123045_12069.png
subject-02,1,658,0.506407022476196,knife,knife,false,0658_fc_s02_false_knife_35_n03041632_9488.png
subject-02,1,659,0.437018156051636,clock,clock,true,0659_fc_s02_true_clock_35_n02708093_5169.png
subject-02,1,660,0.55166220664978,truck,truck,false,0660_fc_s02_false_truck_35_n04467665_70509.png
subject-02,1,661,0.417929172515869,clock,clock,false,0661_fc_s02_false_clock_35_n04548280_11763.png
subject-02,1,662,0.524403095245361,boat,boat,true,0662_fc_s02_true_boat_35_n02951358_31148.png
subject-02,1,663,0.468327045440674,bird,bird,true,0663_fc_s02_true_bird_35_n01855672_15813.png
subject-02,1,664,0.390978813171387,bird,bird,true,0664_fc_s02_true_bird_35_n01614925_9157.png
subject-02,1,665,0.334996938705444,clock,clock,false,0665_fc_s02_false_clock_35_n04548280_7800.png
subject-02,1,666,0.771504163742065,clock,chair,false,0666_fc_s02_false_chair_35_n03376595_17811.png
subject-02,1,667,0.477938890457153,bear,bear,false,0667_fc_s02_false_bear_35_n02134084_1999.png
subject-02,1,668,0.476577043533325,clock,clock,false,0668_fc_s02_false_clock_35_n04548280_7047.png
subject-02,1,669,0.545660972595215,bicycle,bicycle,true,0669_fc_s02_true_bicycle_35_n03792782_3759.png
subject-02,1,670,0.612045049667358,boat,boat,true,0670_fc_s02_true_boat_35_n03344393_10556.png
subject-02,1,671,0.586611986160278,bottle,bottle,true,0671_fc_s02_true_bottle_35_n04579145_78.png
subject-02,1,672,0.724770069122314,bicycle,bicycle,true,0672_fc_s02_true_bicycle_35_n02835271_7214.png
subject-02,1,673,0.529238939285278,bear,bear,true,0673_fc_s02_true_bear_35_n02132136_1709.png
subject-02,1,674,0.719545125961304,truck,truck,false,0674_fc_s02_false_truck_35_n03796401_540.png
subject-02,1,675,0.573848962783813,bottle,bottle,false,0675_fc_s02_false_bottle_35_n04557648_27488.png
subject-02,1,676,0.940692186355591,airplane,airplane,true,0676_fc_s02_true_airplane_35_n02690373_6336.png
subject-02,1,677,0.562484979629517,clock,clock,false,0677_fc_s02_false_clock_35_n04548280_399.png
subject-02,1,678,0.490476131439209,clock,clock,true,0678_fc_s02_true_clock_35_n02708093_2845.png
subject-02,1,679,0.526856184005737,airplane,truck,false,0679_fc_s02_false_truck_35_n04467665_79452.png
subject-02,1,680,0.612393856048584,chair,chair,true,0680_fc_s02_true_chair_35_n03376595_2766.png
subject-02,1,681,0.486836910247803,chair,chair,false,0681_fc_s02_false_chair_35_n03376595_15191.png
subject-02,1,682,0.471257925033569,car,car,true,0682_fc_s02_true_car_35_n02814533_81092.png
subject-02,1,683,0.770027160644531,boat,chair,false,0683_fc_s02_false_chair_35_n02791124_7063.png
subject-02,1,684,0.498385190963745,bear,bear,true,0684_fc_s02_true_bear_35_n02134084_8105.png
subject-02,1,685,0.558588981628418,bicycle,bicycle,true,0685_fc_s02_true_bicycle_35_n02835271_5657.png
subject-02,1,686,0.540950059890747,dog,dog,true,0686_fc_s02_true_dog_35_n02106550_2360.png
subject-02,1,687,0.585415840148926,truck,truck,false,0687_fc_s02_false_truck_35_n04467665_19131.png
subject-02,1,688,0.484124898910522,keyboard,keyboard,true,0688_fc_s02_true_keyboard_35_n03085013_21466.png
subject-02,1,689,0.606369972229004,truck,truck,true,0689_fc_s02_true_truck_35_n03417042_8298.png
subject-02,1,690,0.558602094650269,elephant,elephant,true,0690_fc_s02_true_elephant_35_n02504013_3459.png
subject-02,1,691,0.603167057037354,keyboard,keyboard,false,0691_fc_s02_false_keyboard_35_n04505470_284.png
subject-02,1,692,0.807778835296631,truck,truck,true,0692_fc_s02_true_truck_35_n03417042_2132.png
subject-02,1,693,0.476178884506226,bicycle,bicycle,false,0693_fc_s02_false_bicycle_35_n02835271_7900.png
subject-02,1,694,0.528575897216797,dog,dog,false,0694_fc_s02_false_dog_35_n02097474_17122.png
subject-02,1,695,0.62716007232666,knife,knife,true,0695_fc_s02_true_knife_35_n03041632_4044.png
subject-02,1,696,0.565563917160034,keyboard,keyboard,true,0696_fc_s02_true_keyboard_35_n03085013_20749.png
subject-02,1,697,0.518089056015015,knife,knife,false,0697_fc_s02_false_knife_35_n03041632_120.png
subject-02,1,698,0.37078595161438,car,car,true,0698_fc_s02_true_car_35_n04285008_11688.png
subject-02,1,699,0.599300146102905,dog,dog,true,0699_fc_s02_true_dog_35_n02090721_139.png
subject-02,1,700,0.763916969299316,knife,knife,true,0700_fc_s02_true_knife_35_n03041632_751.png
subject-02,1,701,0.41661810874939,bicycle,bicycle,true,0701_fc_s02_true_bicycle_35_n03792782_35183.png
subject-02,1,702,0.623157978057861,clock,clock,true,0702_fc_s02_true_clock_35_n03196217_12291.png
subject-02,1,703,0.867491006851196,boat,boat,true,0703_fc_s02_true_boat_35_n04273569_28.png
subject-02,1,704,0.79810905456543,bicycle,bicycle,true,0704_fc_s02_true_bicycle_35_n02835271_3027.png
subject-02,1,705,0.634841918945312,car,car,true,0705_fc_s02_true_car_35_n02814533_3843.png
subject-02,1,706,0.763056039810181,car,car,true,0706_fc_s02_true_car_35_n02814533_34383.png
subject-02,1,707,0.609051942825317,bottle,bottle,false,0707_fc_s02_false_bottle_35_n04591713_3305.png
subject-02,1,708,0.567323207855225,truck,truck,true,0708_fc_s02_true_truck_35_n03417042_5136.png
subject-02,1,709,0.498021841049194,bottle,bottle,false,0709_fc_s02_false_bottle_35_n03983396_3568.png
subject-02,1,710,0.642508029937744,cat,cat,true,0710_fc_s02_true_cat_35_n02123394_5438.png
subject-02,1,711,0.902667999267578,oven,oven,false,0711_fc_s02_false_oven_35_n04111531_924.png
subject-02,1,712,0.61712908744812,knife,knife,false,0712_fc_s02_false_knife_35_n03041632_28009.png
subject-02,1,713,0.769797801971436,cat,cat,true,0713_fc_s02_true_cat_35_n02123394_2872.png
subject-02,1,714,0.668177843093872,elephant,elephant,true,0714_fc_s02_true_elephant_35_n02504458_6473.png
subject-02,1,715,0.690554141998291,dog,dog,true,0715_fc_s02_true_dog_35_n02101006_6314.png
subject-02,1,716,0.451319932937622,bird,bird,false,0716_fc_s02_false_bird_35_n02018795_4395.png
subject-02,1,717,0.657713890075684,bird,bird,false,0717_fc_s02_false_bird_35_n01824575_7881.png
subject-02,1,718,0.532249927520752,keyboard,keyboard,true,0718_fc_s02_true_keyboard_35_n04505470_3259.png
subject-02,1,719,0.954874992370605,truck,truck,true,0719_fc_s02_true_truck_35_n04467665_51949.png
subject-02,1,720,0.599974155426025,truck,truck,true,0720_fc_s02_true_truck_35_n03417042_19020.png
subject-02,1,721,0.468542098999023,cat,cat,false,0721_fc_s02_false_cat_35_n02123394_741.png
subject-02,1,722,0.52043604850769,clock,clock,false,0722_fc_s02_false_clock_35_n04548280_7892.png
subject-02,1,723,0.994761943817139,car,car,false,0723_fc_s02_false_car_35_n02814533_74702.png
subject-02,1,724,0.893423080444336,oven,oven,false,0724_fc_s02_false_oven_35_n04111531_1989.png
subject-02,1,725,0.424159049987793,boat,boat,false,0725_fc_s02_false_boat_35_n03662601_22070.png
subject-02,1,726,0.754560947418213,knife,knife,true,0726_fc_s02_true_knife_35_n03041632_131.png
subject-02,1,727,0.475117921829224,keyboard,keyboard,true,0727_fc_s02_true_keyboard_35_n03085013_2272.png
subject-02,1,728,0.673610925674438,bicycle,bicycle,false,0728_fc_s02_false_bicycle_35_n02835271_26897.png
subject-02,1,729,0.650247097015381,truck,truck,false,0729_fc_s02_false_truck_35_n03417042_3228.png
subject-02,1,730,0.602418899536133,airplane,airplane,true,0730_fc_s02_true_airplane_35_n02690373_9828.png
subject-02,1,731,1.14049887657166,cat,bear,false,0731_fc_s02_false_bear_35_n02134418_3176.png
subject-02,1,732,0.649123907089233,elephant,elephant,false,0732_fc_s02_false_elephant_35_n02504013_2924.png
subject-02,1,733,0.423900127410889,dog,dog,false,0733_fc_s02_false_dog_35_n02113712_3531.png
subject-02,1,734,0.500149965286255,cat,keyboard,false,0734_fc_s02_false_keyboard_35_n03085013_19515.png
subject-02,1,735,0.620589971542358,elephant,elephant,true,0735_fc_s02_true_elephant_35_n02504013_10437.png
subject-02,1,736,0.404858112335205,airplane,airplane,true,0736_fc_s02_true_airplane_35_n02690373_4964.png
subject-02,1,737,0.549150943756104,bird,bird,true,0737_fc_s02_true_bird_35_n01601694_14616.png
subject-02,1,738,0.793584823608398,knife,knife,true,0738_fc_s02_true_knife_35_n03041632_1964.png
subject-02,1,739,0.646122932434082,bottle,bottle,false,0739_fc_s02_false_bottle_35_n02823428_2100.png
subject-02,1,740,0.644878149032593,airplane,airplane,false,0740_fc_s02_false_airplane_35_n02690373_13613.png
subject-02,1,741,0.573192834854126,car,car,true,0741_fc_s02_true_car_35_n03100240_7841.png
subject-02,1,742,0.533961057662964,car,car,false,0742_fc_s02_false_car_35_n02814533_21120.png
subject-02,1,743,0.632428884506226,bicycle,bicycle,false,0743_fc_s02_false_bicycle_35_n02835271_14070.png
subject-02,1,744,0.42308497428894,keyboard,keyboard,true,0744_fc_s02_true_keyboard_35_n03085013_24309.png
subject-02,1,745,0.537348985671997,oven,oven,true,0745_fc_s02_true_oven_35_n04111531_8553.png
subject-02,1,746,0.665334939956665,dog,dog,true,0746_fc_s02_true_dog_35_n02107312_2893.png
subject-02,1,747,0.693374872207642,bicycle,bicycle,false,0747_fc_s02_false_bicycle_35_n02835271_21573.png
subject-02,1,748,0.894178867340088,truck,truck,false,0748_fc_s02_false_truck_35_n03417042_12304.png
subject-02,1,749,0.560466051101685,cat,cat,true,0749_fc_s02_true_cat_35_n02123597_9664.png
subject-02,1,750,1.03696703910828,airplane,airplane,false,0750_fc_s02_false_airplane_35_n02690373_7614.png
subject-02,1,751,0.589682817459106,bird,bird,false,0751_fc_s02_false_bird_35_n01797886_12241.png
subject-02,1,752,0.596101999282837,chair,chair,true,0752_fc_s02_true_chair_35_n04099969_2523.png
subject-02,1,753,0.418342113494873,chair,chair,true,0753_fc_s02_true_chair_35_n04099969_15780.png
subject-02,1,754,0.476713895797729,bicycle,bicycle,true,0754_fc_s02_true_bicycle_35_n03792782_40598.png
subject-02,1,755,0.69152307510376,bear,bear,true,0755_fc_s02_true_bear_35_n02134418_873.png
subject-02,1,756,0.865964889526367,cat,cat,false,0756_fc_s02_false_cat_35_n02123394_821.png
subject-02,1,757,1.08058190345764,airplane,airplane,false,0757_fc_s02_false_airplane_35_n02690373_6210.png
subject-02,1,758,0.610848903656006,car,car,false,0758_fc_s02_false_car_35_n04285008_15101.png
subject-02,1,759,0.493352890014648,bottle,elephant,false,0759_fc_s02_false_elephant_35_n02504013_11159.png
subject-02,1,760,0.408117055892944,car,car,true,0760_fc_s02_true_car_35_n04285008_11451.png
subject-02,1,761,0.544567823410034,dog,dog,false,0761_fc_s02_false_dog_35_n02088632_7827.png
subject-02,1,762,0.642945051193237,bottle,bottle,false,0762_fc_s02_false_bottle_35_n04560804_4192.png
subject-02,1,763,0.457724094390869,dog,dog,true,0763_fc_s02_true_dog_35_n02096585_2503.png
subject-02,1,764,0.496110916137695,dog,dog,true,0764_fc_s02_true_dog_35_n02099601_262.png
subject-02,1,765,0.562448024749756,knife,knife,true,0765_fc_s02_true_knife_35_n03041632_30573.png
subject-02,1,766,0.638526916503906,airplane,airplane,false,0766_fc_s02_false_airplane_35_n02690373_6773.png
subject-02,1,767,0.65870213508606,airplane,airplane,false,0767_fc_s02_false_airplane_35_n02690373_4552.png
subject-02,1,768,0.741154909133911,knife,knife,false,0768_fc_s02_false_knife_35_n03041632_44230.png
subject-02,1,769,0.501545906066895,cat,cat,true,0769_fc_s02_true_cat_35_n02124075_4946.png
subject-02,1,770,0.746424913406372,keyboard,keyboard,true,0770_fc_s02_true_keyboard_35_n04505470_8148.png
subject-02,1,771,0.576642036437988,boat,boat,true,0771_fc_s02_true_boat_35_n03662601_7177.png
subject-02,1,772,1.01306295394897,airplane,airplane,false,0772_fc_s02_false_airplane_35_n02690373_10455.png
subject-02,1,773,0.587861061096191,truck,truck,true,0773_fc_s02_true_truck_35_n04467665_23080.png
subject-02,1,774,0.626101970672607,oven,oven,false,0774_fc_s02_false_oven_35_n04111531_6346.png
subject-02,1,775,0.594575166702271,clock,clock,true,0775_fc_s02_true_clock_35_n02708093_5096.png
subject-02,1,776,0.515094995498657,knife,knife,true,0776_fc_s02_true_knife_35_n03041632_84869.png
subject-02,1,777,0.837924957275391,dog,dog,false,0777_fc_s02_false_dog_35_n02111129_5187.png
subject-02,1,778,0.958307027816772,cat,bear,false,0778_fc_s02_false_bear_35_n02134084_22029.png
subject-02,1,779,0.558512926101685,oven,oven,false,0779_fc_s02_false_oven_35_n04111531_22120.png
subject-02,1,780,0.533031225204468,cat,cat,false,0780_fc_s02_false_cat_35_n02123597_5655.png
subject-02,1,781,0.601547956466675,bird,bird,true,0781_fc_s02_true_bird_35_n01560419_8272.png
subject-02,1,782,0.954097032546997,oven,oven,false,0782_fc_s02_false_oven_35_n04111531_11655.png
subject-02,1,783,0.43057918548584,bird,bird,false,0783_fc_s02_false_bird_35_n01855672_13824.png
subject-02,1,784,0.43494701385498,boat,boat,true,0784_fc_s02_true_boat_35_n04273569_1450.png
subject-02,1,785,0.670772075653076,dog,dog,true,0785_fc_s02_true_dog_35_n02108422_3297.png
subject-02,1,786,0.585427045822144,dog,dog,true,0786_fc_s02_true_dog_35_n02113624_5439.png
subject-02,1,787,0.515769958496094,bird,bird,true,0787_fc_s02_true_bird_35_n01843383_2632.png
subject-02,1,788,0.906331062316895,elephant,elephant,false,0788_fc_s02_false_elephant_35_n02504013_9983.png
subject-02,1,789,0.937044858932495,truck,truck,false,0789_fc_s02_false_truck_35_n03417042_3789.png
subject-02,1,790,0.827449083328247,knife,knife,false,0790_fc_s02_false_knife_35_n03041632_7205.png
subject-02,1,791,0.657721996307373,keyboard,keyboard,true,0791_fc_s02_true_keyboard_35_n04505470_123.png
subject-02,1,792,0.602293014526367,elephant,elephant,false,0792_fc_s02_false_elephant_35_n02504013_3306.png
subject-02,1,793,0.632833957672119,clock,clock,false,0793_fc_s02_false_clock_35_n03196217_11063.png
subject-02,1,794,0.639344930648804,elephant,elephant,false,0794_fc_s02_false_elephant_35_n02504458_3427.png
subject-02,1,795,0.767814874649048,knife,knife,true,0795_fc_s02_true_knife_35_n03041632_5162.png
subject-02,1,796,0.558084011077881,bicycle,bicycle,true,0796_fc_s02_true_bicycle_35_n02835271_5861.png
subject-02,1,797,0.718453884124756,airplane,airplane,true,0797_fc_s02_true_airplane_35_n02690373_6342.png
subject-02,1,798,0.533041000366211,elephant,elephant,true,0798_fc_s02_true_elephant_35_n02504458_6960.png
subject-02,1,799,0.555621147155762,dog,dog,true,0799_fc_s02_true_dog_35_n02112018_13884.png
subject-02,1,800,0.575907945632935,bicycle,bicycle,false,0800_fc_s02_false_bicycle_35_n02835271_6002.png
subject-02,1,801,0.565130233764648,cat,cat,true,0801_fc_s02_true_cat_35_n02123597_7702.png
subject-02,1,802,0.525529861450195,bear,bear,true,0802_fc_s02_true_bear_35_n02134084_973.png
subject-02,1,803,0.463901996612549,bear,bear,true,0803_fc_s02_true_bear_35_n02134084_5794.png
subject-02,1,804,0.522146940231323,bird,bird,true,0804_fc_s02_true_bird_35_n02007558_7403.png
subject-02,1,805,0.460848093032837,clock,clock,false,0805_fc_s02_false_clock_35_n04548280_6200.png
subject-02,1,806,0.765327930450439,bear,bear,false,0806_fc_s02_false_bear_35_n02134418_12457.png
subject-02,1,807,0.909577131271362,knife,knife,true,0807_fc_s02_true_knife_35_n03041632_39952.png
subject-02,1,808,0.618251800537109,elephant,elephant,false,0808_fc_s02_false_elephant_35_n02504458_5169.png
subject-02,1,809,0.546657800674438,chair,chair,false,0809_fc_s02_false_chair_35_n04099969_7959.png
subject-02,1,810,0.769463062286377,car,truck,true,0810_fc_s02_true_truck_35_n04467665_18985.png
subject-02,1,811,0.421663999557495,keyboard,keyboard,true,0811_fc_s02_true_keyboard_35_n03085013_35084.png
subject-02,1,812,0.990318059921265,bear,bear,false,0812_fc_s02_false_bear_35_n02133161_5904.png
subject-02,1,813,0.750826835632324,truck,truck,true,0813_fc_s02_true_truck_35_n03417042_10677.png
subject-02,1,814,0.624971151351929,bicycle,bicycle,true,0814_fc_s02_true_bicycle_35_n03792782_13950.png
subject-02,1,815,0.86164116859436,clock,clock,false,0815_fc_s02_false_clock_35_n03196217_5787.png
subject-02,1,816,1.04596519470215,dog,dog,false,0816_fc_s02_false_dog_35_n02101556_6227.png
subject-02,1,817,1.50004696846008,dog,dog,true,0817_fc_s02_true_dog_35_n02102177_2915.png
subject-02,1,818,0.604916095733643,keyboard,keyboard,true,0818_fc_s02_true_keyboard_35_n03085013_10984.png
subject-02,1,819,0.640788078308105,chair,chair,false,0819_fc_s02_false_chair_35_n02791124_6368.png
subject-02,1,820,0.869329929351807,elephant,elephant,false,0820_fc_s02_false_elephant_35_n02504013_3089.png
subject-02,1,821,0.761888980865479,oven,knife,false,0821_fc_s02_false_knife_35_n03041632_105080.png
subject-02,1,822,0.522514820098877,oven,oven,true,0822_fc_s02_true_oven_35_n04111531_1004.png
subject-02,1,823,0.597334861755371,bicycle,bicycle,true,0823_fc_s02_true_bicycle_35_n02835271_20004.png
subject-02,1,824,0.581302881240845,truck,truck,false,0824_fc_s02_false_truck_35_n03417042_8501.png
subject-02,1,825,0.739800930023193,oven,oven,false,0825_fc_s02_false_oven_35_n04111531_3353.png
subject-02,1,826,NaN,na,knife,true,0826_fc_s02_true_knife_35_n03041632_1006.png
subject-02,1,827,0.82889199256897,bird,bicycle,true,0827_fc_s02_true_bicycle_35_n03792782_752.png
subject-02,1,828,0.537458181381226,bottle,bottle,true,0828_fc_s02_true_bottle_35_n04579145_4704.png
subject-02,1,829,0.796030044555664,elephant,elephant,false,0829_fc_s02_false_elephant_35_n02504013_4081.png
subject-02,1,830,0.972151041030884,cat,cat,false,0830_fc_s02_false_cat_35_n02123597_5460.png
subject-02,1,831,0.738441944122314,keyboard,keyboard,false,0831_fc_s02_false_keyboard_35_n03085013_20487.png
subject-02,1,832,0.815104961395264,oven,oven,true,0832_fc_s02_true_oven_35_n04111531_14329.png
subject-02,1,833,0.759987115859985,dog,dog,true,0833_fc_s02_true_dog_35_n02112018_4564.png
subject-02,1,834,0.512388944625854,keyboard,keyboard,false,0834_fc_s02_false_keyboard_35_n03085013_20914.png
subject-02,1,835,0.68084192276001,boat,boat,true,0835_fc_s02_true_boat_35_n02951358_30280.png
subject-02,1,836,0.695381164550781,boat,boat,false,0836_fc_s02_false_boat_35_n02951358_11446.png
subject-02,1,837,0.755945920944214,chair,chair,false,0837_fc_s02_false_chair_35_n04099969_1690.png
subject-02,1,838,0.708429098129272,bottle,chair,false,0838_fc_s02_false_chair_35_n04429376_24679.png
subject-02,1,839,0.990355968475342,bear,bear,true,0839_fc_s02_true_bear_35_n02134084_18596.png
subject-02,1,840,0.696815013885498,clock,clock,false,0840_fc_s02_false_clock_35_n04548280_13247.png
subject-02,1,841,0.519093036651611,car,car,false,0841_fc_s02_false_car_35_n04285008_9708.png
subject-02,1,842,0.66932487487793,clock,clock,true,0842_fc_s02_true_clock_35_n04548280_9965.png
subject-02,1,843,0.561445951461792,airplane,airplane,true,0843_fc_s02_true_airplane_35_n02690373_1296.png
subject-02,1,844,0.680999040603638,airplane,airplane,false,0844_fc_s02_false_airplane_35_n02690373_10129.png
subject-02,1,845,0.687376022338867,bicycle,bicycle,true,0845_fc_s02_true_bicycle_35_n03792782_52581.png
subject-02,1,846,0.653800964355469,airplane,airplane,false,0846_fc_s02_false_airplane_35_n02690373_14117.png
subject-02,1,847,0.614542961120605,bottle,bottle,false,0847_fc_s02_false_bottle_35_n04579145_4315.png
subject-02,1,848,0.752799034118652,elephant,elephant,true,0848_fc_s02_true_elephant_35_n02504458_6443.png
subject-02,1,849,0.681437015533447,boat,boat,false,0849_fc_s02_false_boat_35_n02951358_5211.png
subject-02,1,850,0.810091018676758,boat,boat,true,0850_fc_s02_true_boat_35_n04612504_9952.png
subject-02,1,851,0.656241893768311,elephant,elephant,true,0851_fc_s02_true_elephant_35_n02504013_3800.png
subject-02,1,852,0.730888843536377,car,car,false,0852_fc_s02_false_car_35_n04285008_7267.png
subject-02,1,853,0.751585960388184,truck,truck,true,0853_fc_s02_true_truck_35_n03796401_17504.png
subject-02,1,854,0.697988986968994,bear,bear,false,0854_fc_s02_false_bear_35_n02132136_686.png
subject-02,1,855,0.656732082366943,dog,dog,false,0855_fc_s02_false_dog_35_n02111277_4767.png
subject-02,1,856,0.794877052307129,knife,knife,true,0856_fc_s02_true_knife_35_n03041632_379.png
subject-02,1,857,0.663332939147949,truck,truck,false,0857_fc_s02_false_truck_35_n03796401_2101.png
subject-02,1,858,0.57602596282959,cat,cat,true,0858_fc_s02_true_cat_35_n02124075_13859.png
subject-02,1,859,0.652511835098267,truck,truck,true,0859_fc_s02_true_truck_35_n04467665_30683.png
subject-02,1,860,0.512773990631104,airplane,airplane,true,0860_fc_s02_true_airplane_35_n02690373_2676.png
subject-02,1,861,0.471044063568115,oven,oven,false,0861_fc_s02_false_oven_35_n04111531_2771.png
subject-02,1,862,1.02339601516724,knife,knife,true,0862_fc_s02_true_knife_35_n03041632_2390.png
subject-02,1,863,0.646127939224243,elephant,elephant,false,0863_fc_s02_false_elephant_35_n02504458_1137.png
subject-02,1,864,0.62239408493042,dog,dog,false,0864_fc_s02_false_dog_35_n02106662_18900.png
subject-02,1,865,1.05903196334839,dog,bird,true,0865_fc_s02_true_bird_35_n02013706_5421.png
subject-02,1,866,0.819662094116211,elephant,elephant,true,0866_fc_s02_true_elephant_35_n02504013_21041.png
subject-02,1,867,0.534197092056274,cat,cat,false,0867_fc_s02_false_cat_35_n02123159_1425.png
subject-02,1,868,0.708404064178467,dog,dog,true,0868_fc_s02_true_dog_35_n02109961_17494.png
subject-02,1,869,0.706300020217896,car,car,true,0869_fc_s02_true_car_35_n02814533_8695.png
subject-02,1,870,0.759005069732666,boat,boat,true,0870_fc_s02_true_boat_35_n02951358_4363.png
subject-02,1,871,0.427371978759766,keyboard,keyboard,false,0871_fc_s02_false_keyboard_35_n03085013_21243.png
subject-02,1,872,0.672012805938721,clock,clock,true,0872_fc_s02_true_clock_35_n04548280_575.png
subject-02,1,873,0.394438028335571,oven,oven,false,0873_fc_s02_false_oven_35_n04111531_8793.png
subject-02,1,874,0.484791994094849,bird,bird,true,0874_fc_s02_true_bird_35_n01843383_1689.png
subject-02,1,875,0.553271055221558,elephant,elephant,true,0875_fc_s02_true_elephant_35_n02504458_1971.png
subject-02,1,876,0.521926879882812,keyboard,keyboard,false,0876_fc_s02_false_keyboard_35_n03085013_15432.png
subject-02,1,877,0.918478965759277,car,car,false,0877_fc_s02_false_car_35_n02814533_5183.png
subject-02,1,878,0.632849931716919,clock,clock,false,0878_fc_s02_false_clock_35_n04548280_4073.png
subject-02,1,879,0.555295944213867,boat,boat,false,0879_fc_s02_false_boat_35_n03344393_2357.png
subject-02,1,880,0.483579874038696,cat,cat,false,0880_fc_s02_false_cat_35_n02123159_1821.png
subject-02,1,881,0.729818820953369,dog,dog,false,0881_fc_s02_false_dog_35_n02106382_2747.png
subject-02,1,882,0.758120059967041,elephant,elephant,false,0882_fc_s02_false_elephant_35_n02504458_423.png
subject-02,1,883,0.834470987319946,keyboard,keyboard,false,0883_fc_s02_false_keyboard_35_n04505470_3064.png
subject-02,1,884,1.08526396751404,airplane,airplane,false,0884_fc_s02_false_airplane_35_n02690373_1277.png
subject-02,1,885,0.469850063323975,bottle,bottle,true,0885_fc_s02_true_bottle_35_n03983396_5161.png
subject-02,1,886,0.5379958152771,car,car,false,0886_fc_s02_false_car_35_n04285008_6320.png
subject-02,1,887,0.59868597984314,oven,oven,true,0887_fc_s02_true_oven_35_n04111531_467.png
subject-02,1,888,0.819138050079346,bear,bear,false,0888_fc_s02_false_bear_35_n02134084_4716.png
subject-02,1,889,0.9931800365448,bottle,bottle,true,0889_fc_s02_true_bottle_35_n04557648_1580.png
subject-02,1,890,0.609289169311523,keyboard,keyboard,true,0890_fc_s02_true_keyboard_35_n04505470_9762.png
subject-02,1,891,1.25999999046326,elephant,elephant,false,0891_fc_s02_false_elephant_35_n02504458_3287.png
subject-02,1,892,0.674293994903564,airplane,airplane,false,0892_fc_s02_false_airplane_35_n02690373_8783.png
subject-02,1,893,0.672945022583008,cat,cat,false,0893_fc_s02_false_cat_35_n02125311_47529.png
subject-02,1,894,0.649309873580933,knife,knife,false,0894_fc_s02_false_knife_35_n03041632_22472.png
subject-02,1,895,0.601799964904785,oven,knife,true,0895_fc_s02_true_knife_35_n03041632_5102.png
subject-02,1,896,0.662344932556152,bear,bear,false,0896_fc_s02_false_bear_35_n02133161_10649.png
subject-02,1,897,0.712682962417603,cat,cat,true,0897_fc_s02_true_cat_35_n02123597_11229.png
subject-02,1,898,0.496702194213867,keyboard,keyboard,false,0898_fc_s02_false_keyboard_35_n03085013_24399.png
subject-02,1,899,0.833143949508667,bird,bird,false,0899_fc_s02_false_bird_35_n01829413_6468.png
subject-02,1,900,0.739809989929199,bear,bear,true,0900_fc_s02_true_bear_35_n02134418_838.png
subject-02,1,901,0.423831939697266,clock,clock,true,0901_fc_s02_true_clock_35_n02708093_4727.png
subject-02,1,902,0.582041025161743,bottle,bottle,false,0902_fc_s02_false_bottle_35_n02823428_5018.png
subject-02,1,903,0.542442083358765,airplane,airplane,false,0903_fc_s02_false_airplane_35_n02690373_10203.png
subject-02,1,904,0.457127094268799,bear,bear,false,0904_fc_s02_false_bear_35_n02132136_33437.png
subject-02,1,905,0.993378877639771,elephant,elephant,true,0905_fc_s02_true_elephant_35_n02504458_4143.png
subject-02,1,906,0.670125961303711,car,car,false,0906_fc_s02_false_car_35_n03100240_13707.png
subject-02,1,907,0.476645946502686,cat,cat,true,0907_fc_s02_true_cat_35_n02123394_1996.png
subject-02,1,908,1.09685397148132,airplane,airplane,true,0908_fc_s02_true_airplane_35_n02690373_3640.png
subject-02,1,909,1.39537191390991,bicycle,bicycle,false,0909_fc_s02_false_bicycle_35_n02835271_597.png
subject-02,1,910,0.710096836090088,cat,cat,false,0910_fc_s02_false_cat_35_n02125311_1445.png
subject-02,1,911,0.970566034317017,bird,bear,false,0911_fc_s02_false_bear_35_n02132136_22717.png
subject-02,1,912,0.890832185745239,elephant,elephant,false,0912_fc_s02_false_elephant_35_n02504013_22131.png
subject-02,1,913,0.927315950393677,bicycle,bicycle,false,0913_fc_s02_false_bicycle_35_n03792782_49707.png
subject-02,1,914,0.689887046813965,car,car,false,0914_fc_s02_false_car_35_n03100240_16273.png
subject-02,1,915,0.664576053619385,bear,bear,false,0915_fc_s02_false_bear_35_n02132136_11149.png
subject-02,1,916,0.510915994644165,keyboard,keyboard,false,0916_fc_s02_false_keyboard_35_n03085013_6609.png
subject-02,1,917,0.655583143234253,cat,cat,true,0917_fc_s02_true_cat_35_n02123597_6778.png
subject-02,1,918,0.584110021591187,boat,boat,false,0918_fc_s02_false_boat_35_n04273569_5832.png
subject-02,1,919,0.70667290687561,oven,oven,true,0919_fc_s02_true_oven_35_n04111531_15568.png
subject-02,1,920,1.36478018760681,elephant,oven,false,0920_fc_s02_false_oven_35_n04111531_14913.png
subject-02,1,921,0.749661922454834,airplane,airplane,false,0921_fc_s02_false_airplane_35_n02690373_2923.png
subject-02,1,922,0.55619215965271,car,car,false,0922_fc_s02_false_car_35_n04285008_12659.png
subject-02,1,923,0.524224996566772,car,car,false,0923_fc_s02_false_car_35_n04285008_9388.png
subject-02,1,924,0.406693935394287,boat,boat,true,0924_fc_s02_true_boat_35_n02951358_30540.png
subject-02,1,925,0.535012006759644,elephant,elephant,true,0925_fc_s02_true_elephant_35_n02504458_609.png
subject-02,1,926,0.711612939834595,airplane,airplane,false,0926_fc_s02_false_airplane_35_n02690373_6116.png
subject-02,1,927,0.518154144287109,keyboard,keyboard,true,0927_fc_s02_true_keyboard_35_n03085013_25559.png
subject-02,1,928,0.830566167831421,cat,cat,false,0928_fc_s02_false_cat_35_n02123159_370.png
subject-02,1,929,1.12112784385681,clock,bird,false,0929_fc_s02_false_bird_35_n02056570_11927.png
subject-02,1,930,0.651405096054077,car,car,false,0930_fc_s02_false_car_35_n03100240_7497.png
subject-02,1,931,0.780028104782104,chair,chair,true,0931_fc_s02_true_chair_35_n04429376_16192.png
subject-02,1,932,0.640526056289673,bird,bird,true,0932_fc_s02_true_bird_35_n02028035_10813.png
subject-02,1,933,0.430617809295654,cat,cat,false,0933_fc_s02_false_cat_35_n02123045_11545.png
subject-02,1,934,0.490767955780029,chair,chair,false,0934_fc_s02_false_chair_35_n03376595_7699.png
subject-02,1,935,0.573377132415771,bear,bear,true,0935_fc_s02_true_bear_35_n02134084_16066.png
subject-02,1,936,0.571809053421021,boat,boat,false,0936_fc_s02_false_boat_35_n04612504_18699.png
subject-02,1,937,0.640527963638306,truck,truck,true,0937_fc_s02_true_truck_35_n04467665_80575.png
subject-02,1,938,0.714806079864502,boat,boat,false,0938_fc_s02_false_boat_35_n03662601_713.png
subject-02,1,939,0.56929087638855,keyboard,keyboard,true,0939_fc_s02_true_keyboard_35_n03085013_2853.png
subject-02,1,940,0.665798902511597,keyboard,keyboard,true,0940_fc_s02_true_keyboard_35_n03085013_31250.png
subject-02,1,941,0.650224924087524,bear,bear,true,0941_fc_s02_true_bear_35_n02133161_1257.png
subject-02,1,942,0.694889068603516,bottle,oven,false,0942_fc_s02_false_oven_35_n04111531_6934.png
subject-02,1,943,0.615485906600952,cat,cat,true,0943_fc_s02_true_cat_35_n02123045_12327.png
subject-02,1,944,0.484064817428589,clock,clock,false,0944_fc_s02_false_clock_35_n02708093_4597.png
subject-02,1,945,0.606667041778564,car,car,true,0945_fc_s02_true_car_35_n03100240_6376.png
subject-02,1,946,1.06488084793091,chair,chair,true,0946_fc_s02_true_chair_35_n02791124_2383.png
subject-02,1,947,0.679315090179443,bottle,bottle,true,0947_fc_s02_true_bottle_35_n04560804_2005.png
subject-02,1,948,0.615673065185547,truck,truck,false,0948_fc_s02_false_truck_35_n03417042_12874.png
subject-02,1,949,0.668085098266602,keyboard,keyboard,true,0949_fc_s02_true_keyboard_35_n03085013_6095.png
subject-02,1,950,0.644554138183594,bottle,bottle,true,0950_fc_s02_true_bottle_35_n03937543_6192.png
subject-02,1,951,1.21121001243591,clock,clock,true,0951_fc_s02_true_clock_35_n04548280_4327.png
subject-02,1,952,0.911359071731567,bird,bird,false,0952_fc_s02_false_bird_35_n01797886_15785.png
subject-02,1,953,0.61810302734375,elephant,elephant,false,0953_fc_s02_false_elephant_35_n02504458_3511.png
subject-02,1,954,0.989030838012695,bird,cat,false,0954_fc_s02_false_cat_35_n02125311_34487.png
subject-02,1,955,0.710970163345337,keyboard,chair,false,0955_fc_s02_false_chair_35_n02791124_2488.png
subject-02,1,956,0.909644842147827,oven,oven,true,0956_fc_s02_true_oven_35_n04111531_3265.png
subject-02,1,957,0.69408917427063,chair,chair,false,0957_fc_s02_false_chair_35_n02791124_5438.png
subject-02,1,958,0.630706071853638,bird,bear,false,0958_fc_s02_false_bear_35_n02134084_985.png
subject-02,1,959,0.683222055435181,cat,cat,false,0959_fc_s02_false_cat_35_n02123394_9037.png
subject-02,1,960,0.811633110046387,bear,bear,false,0960_fc_s02_false_bear_35_n02132136_3109.png
subject-02,1,961,0.61048412322998,bottle,bottle,true,0961_fc_s02_true_bottle_35_n04560804_14318.png
subject-02,1,962,0.532981872558594,clock,clock,true,0962_fc_s02_true_clock_35_n03196217_6203.png
subject-02,1,963,0.769681930541992,elephant,elephant,false,0963_fc_s02_false_elephant_35_n02504458_4010.png
subject-02,1,964,0.827935934066772,elephant,elephant,false,0964_fc_s02_false_elephant_35_n02504458_1051.png
subject-02,1,965,0.688467025756836,bicycle,bicycle,true,0965_fc_s02_true_bicycle_35_n02835271_27014.png
subject-02,1,966,0.494488000869751,airplane,airplane,true,0966_fc_s02_true_airplane_35_n02690373_1946.png
subject-02,1,967,0.555033922195435,airplane,airplane,true,0967_fc_s02_true_airplane_35_n02690373_8925.png
subject-02,1,968,0.837321043014526,knife,knife,false,0968_fc_s02_false_knife_35_n03041632_35260.png
subject-02,1,969,0.427989959716797,cat,cat,true,0969_fc_s02_true_cat_35_n02123045_15082.png
subject-02,1,970,0.726392984390259,bird,bird,true,0970_fc_s02_true_bird_35_n01828970_9466.png
subject-02,1,971,0.633072137832642,boat,boat,true,0971_fc_s02_true_boat_35_n03662601_13885.png
subject-02,1,972,0.677519798278809,truck,truck,true,0972_fc_s02_true_truck_35_n03417042_1770.png
subject-02,1,973,0.576117992401123,truck,truck,true,0973_fc_s02_true_truck_35_n03417042_6881.png
subject-02,1,974,0.7582688331604,truck,truck,false,0974_fc_s02_false_truck_35_n03796401_16603.png
subject-02,1,975,0.572741031646729,bird,bird,false,0975_fc_s02_false_bird_35_n02018207_15800.png
subject-02,1,976,0.657484769821167,bottle,bottle,true,0976_fc_s02_true_bottle_35_n04579145_2896.png
subject-02,1,977,0.962002038955688,knife,knife,true,0977_fc_s02_true_knife_35_n03041632_3063.png
subject-02,1,978,0.622627019882202,bottle,bottle,true,0978_fc_s02_true_bottle_35_n02823428_1832.png
subject-02,1,979,0.828855991363525,chair,knife,false,0979_fc_s02_false_knife_35_n03041632_3504.png
subject-02,1,980,0.567008972167969,cat,cat,false,0980_fc_s02_false_cat_35_n02123394_2975.png
subject-02,1,981,0.541649103164673,airplane,airplane,false,0981_fc_s02_false_airplane_35_n02690373_614.png
subject-02,1,982,0.61009693145752,bottle,keyboard,true,0982_fc_s02_true_keyboard_35_n03085013_23790.png
subject-02,1,983,1.23078799247742,bottle,bottle,true,0983_fc_s02_true_bottle_35_n03937543_5553.png
subject-02,1,984,0.570963859558105,bicycle,bicycle,true,0984_fc_s02_true_bicycle_35_n03792782_8374.png
subject-02,1,985,0.477375984191895,bear,bear,false,0985_fc_s02_false_bear_35_n02133161_830.png
subject-02,1,986,0.783777952194214,elephant,elephant,true,0986_fc_s02_true_elephant_35_n02504013_3402.png
subject-02,1,987,0.628440856933594,dog,dog,true,0987_fc_s02_true_dog_35_n02113799_1344.png
subject-02,1,988,0.8264319896698,bear,bear,true,0988_fc_s02_true_bear_35_n02134084_21921.png
subject-02,1,989,0.562462091445923,airplane,airplane,true,0989_fc_s02_true_airplane_35_n02690373_6716.png
subject-02,1,990,0.569233894348145,boat,boat,true,0990_fc_s02_true_boat_35_n03662601_9498.png
subject-02,1,991,1.05141806602478,truck,truck,false,0991_fc_s02_false_truck_35_n04467665_69400.png
subject-02,1,992,0.704074859619141,knife,knife,true,0992_fc_s02_true_knife_35_n03041632_29037.png
subject-02,1,993,0.678453922271729,airplane,airplane,false,0993_fc_s02_false_airplane_35_n02690373_1350.png
subject-02,1,994,0.793040990829468,bicycle,bicycle,true,0994_fc_s02_true_bicycle_35_n02835271_12097.png
subject-02,1,995,0.72346305847168,bird,bird,true,0995_fc_s02_true_bird_35_n01601694_22111.png
subject-02,1,996,0.827815055847168,cat,knife,true,0996_fc_s02_true_knife_35_n03041632_13518.png
subject-02,1,997,0.572280883789062,oven,oven,true,0997_fc_s02_true_oven_35_n04111531_1770.png
subject-02,1,998,0.710139036178589,car,car,true,0998_fc_s02_true_car_35_n02814533_68219.png
subject-02,1,999,0.6387939453125,car,car,false,0999_fc_s02_false_car_35_n02814533_4977.png
subject-02,1,1000,0.69927191734314,airplane,airplane,true,1000_fc_s02_true_airplane_35_n02690373_8804.png
subject-02,1,1001,0.720139980316162,bear,bear,true,1001_fc_s02_true_bear_35_n02133161_8448.png
subject-02,1,1002,0.856336116790771,boat,boat,false,1002_fc_s02_false_boat_35_n03344393_2354.png
subject-02,1,1003,0.702822923660278,keyboard,keyboard,true,1003_fc_s02_true_keyboard_35_n03085013_914.png
subject-02,1,1004,0.756983995437622,oven,oven,true,1004_fc_s02_true_oven_35_n04111531_8082.png
subject-02,1,1005,0.824916839599609,bear,bear,true,1005_fc_s02_true_bear_35_n02134418_2936.png
subject-02,1,1006,0.631372928619385,bottle,knife,false,1006_fc_s02_false_knife_35_n03041632_24950.png
subject-02,1,1007,0.797652959823608,bottle,bottle,false,1007_fc_s02_false_bottle_35_n04557648_2456.png
subject-02,1,1008,0.920403957366943,truck,truck,false,1008_fc_s02_false_truck_35_n03417042_6373.png
subject-02,1,1009,0.534886121749878,dog,dog,true,1009_fc_s02_true_dog_35_n02085936_2318.png
subject-02,1,1010,0.647236824035645,elephant,elephant,false,1010_fc_s02_false_elephant_35_n02504458_908.png
subject-02,1,1011,0.71561598777771,chair,chair,true,1011_fc_s02_true_chair_35_n02791124_3815.png
subject-02,1,1012,0.684289216995239,airplane,airplane,true,1012_fc_s02_true_airplane_35_n02690373_2468.png
subject-02,1,1013,0.628675937652588,car,car,false,1013_fc_s02_false_car_35_n03100240_16590.png
subject-02,1,1014,NaN,na,truck,false,1014_fc_s02_false_truck_35_n03796401_6983.png
subject-02,1,1015,0.801841974258423,knife,knife,false,1015_fc_s02_false_knife_35_n03041632_5801.png
subject-02,1,1016,0.686384916305542,elephant,elephant,true,1016_fc_s02_true_elephant_35_n02504458_5539.png
