subj,session,trial,rt,object_response,category,condition,imagename
subject-06,1,1,1.19033288955688,airplane,airplane,false,0001_fc_s06_false_airplane_35_n02690373_18845.png
subject-06,1,2,0.906470060348511,oven,oven,true,0002_fc_s06_true_oven_35_n04111531_101.png
subject-06,1,3,0.966752052307129,airplane,truck,false,0003_fc_s06_false_truck_35_n04467665_15994.png
subject-06,1,4,1.40557503700256,bear,oven,false,0004_fc_s06_false_oven_35_n04111531_7600.png
subject-06,1,5,0.6754310131073,airplane,airplane,false,0005_fc_s06_false_airplane_35_n02690373_8141.png
subject-06,1,6,0.725769996643066,dog,dog,false,0006_fc_s06_false_dog_35_n02096585_342.png
subject-06,1,7,0.902511835098267,cat,cat,true,0007_fc_s06_true_cat_35_n02123597_7468.png
subject-06,1,8,0.846996068954468,bicycle,bicycle,false,0008_fc_s06_false_bicycle_35_n02835271_12701.png
subject-06,1,9,1.00077080726624,dog,dog,false,0009_fc_s06_false_dog_35_n02099712_6820.png
subject-06,1,10,0.847436904907227,truck,truck,true,0010_fc_s06_true_truck_35_n03796401_3156.png
subject-06,1,11,0.752121925354004,knife,knife,false,0011_fc_s06_false_knife_35_n03041632_45775.png
subject-06,1,12,0.83650803565979,airplane,airplane,false,0012_fc_s06_false_airplane_35_n02690373_10006.png
subject-06,1,13,0.62620997428894,bear,bear,true,0013_fc_s06_true_bear_35_n02132136_2387.png
subject-06,1,14,0.863558053970337,bird,bird,false,0014_fc_s06_false_bird_35_n02051845_6128.png
subject-06,1,15,0.470247983932495,bird,bird,true,0015_fc_s06_true_bird_35_n01855032_2880.png
subject-06,1,16,0.570375919342041,bird,bird,false,0016_fc_s06_false_bird_35_n01614925_686.png
subject-06,1,17,0.716859102249146,oven,oven,true,0017_fc_s06_true_oven_35_n04111531_11505.png
subject-06,1,18,0.631432056427002,bicycle,bicycle,false,0018_fc_s06_false_bicycle_35_n03792782_4740.png
subject-06,1,19,1.16994190216064,airplane,bottle,true,0019_fc_s06_true_bottle_35_n04579145_198.png
subject-06,1,20,0.724492073059082,airplane,airplane,true,0020_fc_s06_true_airplane_35_n02690373_6914.png
subject-06,1,21,0.792778015136719,truck,truck,true,0021_fc_s06_true_truck_35_n03417042_17839.png
subject-06,1,22,1.21569609642029,chair,chair,true,0022_fc_s06_true_chair_35_n03376595_3812.png
subject-06,1,23,0.766670942306519,bird,bird,false,0023_fc_s06_false_bird_35_n02006656_124.png
subject-06,1,24,0.642107009887695,oven,truck,true,0024_fc_s06_true_truck_35_n03417042_1087.png
subject-06,1,25,0.780362129211426,knife,knife,false,0025_fc_s06_false_knife_35_n03041632_43289.png
subject-06,1,26,0.526427984237671,bear,bear,true,0026_fc_s06_true_bear_35_n02134084_20692.png
subject-06,1,27,0.819094896316528,elephant,dog,false,0027_fc_s06_false_dog_35_n02108000_6587.png
subject-06,1,28,0.595475912094116,keyboard,keyboard,true,0028_fc_s06_true_keyboard_35_n03085013_20843.png
subject-06,1,29,0.562416076660156,bear,bear,false,0029_fc_s06_false_bear_35_n02132136_1467.png
subject-06,1,30,0.646786212921143,keyboard,keyboard,true,0030_fc_s06_true_keyboard_35_n04505470_550.png
subject-06,1,31,0.677201986312866,bird,bird,true,0031_fc_s06_true_bird_35_n01843383_2335.png
subject-06,1,32,0.84553599357605,dog,dog,false,0032_fc_s06_false_dog_35_n02088466_918.png
subject-06,1,33,1.14643001556396,boat,boat,true,0033_fc_s06_true_boat_35_n02951358_12627.png
subject-06,1,34,0.982671976089478,clock,clock,true,0034_fc_s06_true_clock_35_n02708093_245.png
subject-06,1,35,0.560800075531006,bear,bear,true,0035_fc_s06_true_bear_35_n02134418_3570.png
subject-06,1,36,0.691334009170532,truck,truck,false,0036_fc_s06_false_truck_35_n03796401_15465.png
subject-06,1,37,0.751800060272217,car,car,false,0037_fc_s06_false_car_35_n03100240_5479.png
subject-06,1,38,1.22762584686279,airplane,boat,false,0038_fc_s06_false_boat_35_n03344393_5110.png
subject-06,1,39,1.50033903121948,airplane,oven,false,0039_fc_s06_false_oven_35_n04111531_22203.png
subject-06,1,40,0.580648899078369,clock,clock,false,0040_fc_s06_false_clock_35_n03196217_10139.png
subject-06,1,41,1.28677701950073,elephant,bear,false,0041_fc_s06_false_bear_35_n02134084_6972.png
subject-06,1,42,0.686904907226562,truck,truck,false,0042_fc_s06_false_truck_35_n03417042_3338.png
subject-06,1,43,0.755511999130249,keyboard,keyboard,true,0043_fc_s06_true_keyboard_35_n03085013_20778.png
subject-06,1,44,0.485934972763062,oven,oven,true,0044_fc_s06_true_oven_35_n04111531_19000.png
subject-06,1,45,0.632342100143433,bicycle,bicycle,false,0045_fc_s06_false_bicycle_35_n03792782_10547.png
subject-06,1,46,0.767899036407471,bottle,bottle,true,0046_fc_s06_true_bottle_35_n04557648_6531.png
subject-06,1,47,0.754603862762451,clock,clock,true,0047_fc_s06_true_clock_35_n04548280_994.png
subject-06,1,48,1.10690402984619,bird,bear,false,0048_fc_s06_false_bear_35_n02132136_17778.png
subject-06,1,49,0.645315885543823,bicycle,bicycle,true,0049_fc_s06_true_bicycle_35_n03792782_49510.png
subject-06,1,50,1.00569796562195,oven,dog,false,0050_fc_s06_false_dog_35_n02095889_7640.png
subject-06,1,51,0.630205154418945,cat,cat,true,0051_fc_s06_true_cat_35_n02124075_2676.png
subject-06,1,52,0.790126085281372,dog,dog,false,0052_fc_s06_false_dog_35_n02101006_11290.png
subject-06,1,53,0.620359182357788,bear,bear,false,0053_fc_s06_false_bear_35_n02134418_972.png
subject-06,1,54,0.609278202056885,bicycle,bicycle,true,0054_fc_s06_true_bicycle_35_n02835271_8975.png
subject-06,1,55,0.661174058914185,chair,chair,true,0055_fc_s06_true_chair_35_n04429376_21362.png
subject-06,1,56,0.591655969619751,bicycle,bicycle,true,0056_fc_s06_true_bicycle_35_n02835271_22739.png
subject-06,1,57,0.518643856048584,keyboard,keyboard,false,0057_fc_s06_false_keyboard_35_n03085013_23731.png
subject-06,1,58,1.21111297607422,bottle,bottle,true,0058_fc_s06_true_bottle_35_n04557648_6060.png
subject-06,1,59,1.06351613998413,keyboard,keyboard,false,0059_fc_s06_false_keyboard_35_n03085013_23916.png
subject-06,1,60,0.663595914840698,bird,bird,true,0060_fc_s06_true_bird_35_n02056570_13692.png
subject-06,1,61,0.84050989151001,elephant,elephant,true,0061_fc_s06_true_elephant_35_n02504013_17878.png
subject-06,1,62,0.578351974487305,clock,clock,true,0062_fc_s06_true_clock_35_n04548280_5038.png
subject-06,1,63,0.713417053222656,bicycle,bicycle,false,0063_fc_s06_false_bicycle_35_n03792782_51686.png
subject-06,1,64,0.76595401763916,dog,dog,true,0064_fc_s06_true_dog_35_n02101388_4543.png
subject-06,1,65,0.62012791633606,bicycle,bicycle,false,0065_fc_s06_false_bicycle_35_n02835271_759.png
subject-06,1,66,0.931055068969727,dog,dog,false,0066_fc_s06_false_dog_35_n02105056_2024.png
subject-06,1,67,0.6232008934021,keyboard,keyboard,true,0067_fc_s06_true_keyboard_35_n03085013_9184.png
subject-06,1,68,0.575610876083374,airplane,airplane,true,0068_fc_s06_true_airplane_35_n02690373_7685.png
subject-06,1,69,0.626466035842896,oven,oven,true,0069_fc_s06_true_oven_35_n04111531_8036.png
subject-06,1,70,0.932693004608154,dog,dog,false,0070_fc_s06_false_dog_35_n02100583_2714.png
subject-06,1,71,0.730708122253418,dog,dog,false,0071_fc_s06_false_dog_35_n02094114_6444.png
subject-06,1,72,0.847185134887695,truck,truck,true,0072_fc_s06_true_truck_35_n04467665_68331.png
subject-06,1,73,1.14574384689331,bottle,bottle,false,0073_fc_s06_false_bottle_35_n04579145_7831.png
subject-06,1,74,0.706023931503296,bird,bird,true,0074_fc_s06_true_bird_35_n02009229_9202.png
subject-06,1,75,0.590721130371094,truck,truck,true,0075_fc_s06_true_truck_35_n03796401_7258.png
subject-06,1,76,1.29092502593994,cat,oven,true,0076_fc_s06_true_oven_35_n04111531_14959.png
subject-06,1,77,0.62938404083252,chair,chair,true,0077_fc_s06_true_chair_35_n03376595_53.png
subject-06,1,78,0.576048851013184,car,car,false,0078_fc_s06_false_car_35_n02814533_45312.png
subject-06,1,79,0.743986845016479,elephant,elephant,true,0079_fc_s06_true_elephant_35_n02504458_4725.png
subject-06,1,80,NaN,na,keyboard,false,0080_fc_s06_false_keyboard_35_n04505470_10596.png
subject-06,1,81,0.773373126983643,bird,bird,false,0081_fc_s06_false_bird_35_n01622779_9781.png
subject-06,1,82,0.895137071609497,bear,bicycle,false,0082_fc_s06_false_bicycle_35_n03792782_5375.png
subject-06,1,83,0.825435161590576,boat,boat,true,0083_fc_s06_true_boat_35_n03662601_16425.png
subject-06,1,84,0.868150949478149,oven,chair,true,0084_fc_s06_true_chair_35_n02791124_2608.png
subject-06,1,85,0.682573080062866,truck,truck,true,0085_fc_s06_true_truck_35_n04467665_17283.png
subject-06,1,86,0.645092964172363,car,car,true,0086_fc_s06_true_car_35_n04285008_6901.png
subject-06,1,87,0.596082925796509,oven,oven,false,0087_fc_s06_false_oven_35_n04111531_19576.png
subject-06,1,88,0.724209070205688,bicycle,bicycle,false,0088_fc_s06_false_bicycle_35_n02835271_11974.png
subject-06,1,89,1.03272199630737,cat,cat,false,0089_fc_s06_false_cat_35_n02123597_9679.png
subject-06,1,90,0.739029884338379,elephant,elephant,true,0090_fc_s06_true_elephant_35_n02504458_11884.png
subject-06,1,91,0.623663902282715,bicycle,bicycle,false,0091_fc_s06_false_bicycle_35_n02835271_12097.png
subject-06,1,92,0.778083086013794,oven,oven,true,0092_fc_s06_true_oven_35_n04111531_2462.png
subject-06,1,93,0.600490093231201,clock,clock,false,0093_fc_s06_false_clock_35_n03196217_5137.png
subject-06,1,94,0.606876134872437,keyboard,keyboard,false,0094_fc_s06_false_keyboard_35_n04505470_10705.png
subject-06,1,95,0.653181076049805,elephant,elephant,true,0095_fc_s06_true_elephant_35_n02504458_3458.png
subject-06,1,96,1.25967216491699,cat,dog,false,0096_fc_s06_false_dog_35_n02086646_7181.png
subject-06,1,97,0.787569999694824,bicycle,bicycle,false,0097_fc_s06_false_bicycle_35_n02835271_13551.png
subject-06,1,98,0.550055027008057,bear,bear,true,0098_fc_s06_true_bear_35_n02134084_40196.png
subject-06,1,99,0.748380184173584,bicycle,bicycle,false,0099_fc_s06_false_bicycle_35_n02835271_1199.png
subject-06,1,100,1.02489399909973,clock,bottle,true,0100_fc_s06_true_bottle_35_n03983396_7378.png
subject-06,1,101,0.809109210968018,oven,cat,true,0101_fc_s06_true_cat_35_n02124075_8985.png
subject-06,1,102,0.939911842346191,cat,cat,true,0102_fc_s06_true_cat_35_n02123045_12278.png
subject-06,1,103,1.08428192138672,knife,knife,true,0103_fc_s06_true_knife_35_n03041632_31632.png
subject-06,1,104,0.766739130020142,knife,knife,true,0104_fc_s06_true_knife_35_n03041632_45326.png
subject-06,1,105,1.47040200233459,knife,knife,true,0105_fc_s06_true_knife_35_n03041632_89391.png
subject-06,1,106,0.679111003875732,airplane,airplane,true,0106_fc_s06_true_airplane_35_n02690373_1781.png
subject-06,1,107,0.901575088500977,cat,cat,true,0107_fc_s06_true_cat_35_n02123045_3066.png
subject-06,1,108,0.740097999572754,truck,truck,false,0108_fc_s06_false_truck_35_n04467665_68748.png
subject-06,1,109,0.546583890914917,car,truck,true,0109_fc_s06_true_truck_35_n04467665_3843.png
subject-06,1,110,1.01493287086487,bottle,boat,false,0110_fc_s06_false_boat_35_n03344393_8143.png
subject-06,1,111,1.01347613334656,bottle,oven,true,0111_fc_s06_true_oven_35_n04111531_6489.png
subject-06,1,112,0.697885990142822,bottle,bottle,false,0112_fc_s06_false_bottle_35_n04557648_5682.png
subject-06,1,113,0.666075944900513,car,car,true,0113_fc_s06_true_car_35_n04285008_820.png
subject-06,1,114,0.910538911819458,bottle,bottle,true,0114_fc_s06_true_bottle_35_n03937543_2537.png
subject-06,1,115,0.802905082702637,airplane,airplane,true,0115_fc_s06_true_airplane_35_n02690373_4814.png
subject-06,1,116,1.30095386505127,bottle,bottle,false,0116_fc_s06_false_bottle_35_n04557648_7646.png
subject-06,1,117,0.623238801956177,car,car,false,0117_fc_s06_false_car_35_n02814533_16015.png
subject-06,1,118,0.704286098480225,oven,oven,false,0118_fc_s06_false_oven_35_n04111531_4749.png
subject-06,1,119,0.934700012207031,elephant,elephant,false,0119_fc_s06_false_elephant_35_n02504013_4373.png
subject-06,1,120,0.57338809967041,airplane,airplane,false,0120_fc_s06_false_airplane_35_n02690373_101.png
subject-06,1,121,0.769922018051147,car,car,true,0121_fc_s06_true_car_35_n03100240_14533.png
subject-06,1,122,0.70065712928772,bird,bird,true,0122_fc_s06_true_bird_35_n01622779_539.png
subject-06,1,123,0.783279180526733,bicycle,bicycle,true,0123_fc_s06_true_bicycle_35_n03792782_18896.png
subject-06,1,124,0.809970140457153,elephant,elephant,false,0124_fc_s06_false_elephant_35_n02504458_3730.png
subject-06,1,125,1.32336711883545,clock,knife,false,0125_fc_s06_false_knife_35_n03041632_14916.png
subject-06,1,126,0.729308128356934,bottle,bottle,false,0126_fc_s06_false_bottle_35_n04579145_2400.png
subject-06,1,127,0.705722808837891,boat,boat,true,0127_fc_s06_true_boat_35_n04273569_6331.png
subject-06,1,128,0.557801008224487,clock,clock,true,0128_fc_s06_true_clock_35_n04548280_5699.png
subject-06,1,129,0.634264945983887,keyboard,keyboard,true,0129_fc_s06_true_keyboard_35_n04505470_4490.png
subject-06,1,130,0.780400991439819,airplane,airplane,true,0130_fc_s06_true_airplane_35_n02690373_17764.png
subject-06,1,131,1.18435907363892,clock,bottle,true,0131_fc_s06_true_bottle_35_n04557648_3598.png
subject-06,1,132,1.38468813896179,dog,dog,true,0132_fc_s06_true_dog_35_n02093428_16245.png
subject-06,1,133,1.11179900169373,boat,truck,false,0133_fc_s06_false_truck_35_n03417042_21663.png
subject-06,1,134,1.01199793815613,knife,knife,false,0134_fc_s06_false_knife_35_n03041632_29862.png
subject-06,1,135,1.31072807312012,bottle,keyboard,false,0135_fc_s06_false_keyboard_35_n03085013_30073.png
subject-06,1,136,0.82986307144165,elephant,elephant,true,0136_fc_s06_true_elephant_35_n02504458_432.png
subject-06,1,137,1.23029088973999,clock,bottle,true,0137_fc_s06_true_bottle_35_n03937543_6758.png
subject-06,1,138,0.882411003112793,keyboard,keyboard,true,0138_fc_s06_true_keyboard_35_n04505470_2421.png
subject-06,1,139,0.742391109466553,bottle,bottle,false,0139_fc_s06_false_bottle_35_n04560804_15914.png
subject-06,1,140,0.704894065856934,chair,chair,true,0140_fc_s06_true_chair_35_n04099969_21821.png
subject-06,1,141,1.01932501792908,bottle,bottle,true,0141_fc_s06_true_bottle_35_n03937543_723.png
subject-06,1,142,0.617817163467407,car,car,true,0142_fc_s06_true_car_35_n02814533_52866.png
subject-06,1,143,0.664593935012817,truck,truck,false,0143_fc_s06_false_truck_35_n03417042_411.png
subject-06,1,144,0.779109954833984,elephant,elephant,true,0144_fc_s06_true_elephant_35_n02504013_1430.png
subject-06,1,145,0.629980087280273,boat,boat,true,0145_fc_s06_true_boat_35_n04273569_408.png
subject-06,1,146,0.68217396736145,bicycle,bicycle,true,0146_fc_s06_true_bicycle_35_n02835271_14966.png
subject-06,1,147,0.734557867050171,bear,bear,false,0147_fc_s06_false_bear_35_n02134084_7570.png
subject-06,1,148,0.77841591835022,knife,knife,false,0148_fc_s06_false_knife_35_n03041632_11887.png
subject-06,1,149,0.839061975479126,bottle,oven,true,0149_fc_s06_true_oven_35_n04111531_27.png
subject-06,1,150,0.72309398651123,bottle,bottle,false,0150_fc_s06_false_bottle_35_n02823428_5807.png
subject-06,1,151,0.971744060516357,clock,chair,false,0151_fc_s06_false_chair_35_n02791124_8315.png
subject-06,1,152,0.971657991409302,bird,bird,true,0152_fc_s06_true_bird_35_n01532829_122.png
subject-06,1,153,0.762250900268555,dog,dog,true,0153_fc_s06_true_dog_35_n02113624_1416.png
subject-06,1,154,0.746561050415039,keyboard,keyboard,false,0154_fc_s06_false_keyboard_35_n04505470_5060.png
subject-06,1,155,0.837080001831055,cat,cat,true,0155_fc_s06_true_cat_35_n02123394_2084.png
subject-06,1,156,0.629163980484009,clock,clock,false,0156_fc_s06_false_clock_35_n02708093_3114.png
subject-06,1,157,0.861900806427002,keyboard,chair,true,0157_fc_s06_true_chair_35_n03376595_7824.png
subject-06,1,158,0.64578104019165,clock,clock,false,0158_fc_s06_false_clock_35_n03196217_8887.png
subject-06,1,159,0.668277978897095,knife,knife,false,0159_fc_s06_false_knife_35_n03041632_36907.png
subject-06,1,160,1.03352308273315,keyboard,keyboard,true,0160_fc_s06_true_keyboard_35_n04505470_2623.png
subject-06,1,161,0.693145036697388,car,car,false,0161_fc_s06_false_car_35_n02814533_45315.png
subject-06,1,162,0.691442012786865,bicycle,bicycle,false,0162_fc_s06_false_bicycle_35_n03792782_2959.png
subject-06,1,163,0.459872007369995,clock,clock,true,0163_fc_s06_true_clock_35_n04548280_4390.png
subject-06,1,164,0.582717180252075,bottle,bottle,false,0164_fc_s06_false_bottle_35_n04579145_4130.png
subject-06,1,165,1.01327109336853,dog,dog,true,0165_fc_s06_true_dog_35_n02107683_2088.png
subject-06,1,166,0.631588935852051,dog,dog,true,0166_fc_s06_true_dog_35_n02091831_9413.png
subject-06,1,167,0.613143920898438,keyboard,keyboard,false,0167_fc_s06_false_keyboard_35_n03085013_23109.png
subject-06,1,168,0.689867973327637,bottle,bottle,false,0168_fc_s06_false_bottle_35_n04560804_1089.png
subject-06,1,169,1.02506899833679,bottle,oven,false,0169_fc_s06_false_oven_35_n04111531_22797.png
subject-06,1,170,0.52292799949646,clock,clock,true,0170_fc_s06_true_clock_35_n02708093_2800.png
subject-06,1,171,0.923664093017578,bottle,bottle,true,0171_fc_s06_true_bottle_35_n04579145_4597.png
subject-06,1,172,0.491818904876709,keyboard,keyboard,false,0172_fc_s06_false_keyboard_35_n04505470_4965.png
subject-06,1,173,0.552030801773071,chair,chair,false,0173_fc_s06_false_chair_35_n03376595_14932.png
subject-06,1,174,1.10461711883545,airplane,airplane,false,0174_fc_s06_false_airplane_35_n02690373_1213.png
subject-06,1,175,0.626971006393433,knife,knife,false,0175_fc_s06_false_knife_35_n03041632_48071.png
subject-06,1,176,0.93316388130188,bear,bird,false,0176_fc_s06_false_bird_35_n02013706_4590.png
subject-06,1,177,0.56371808052063,car,car,false,0177_fc_s06_false_car_35_n02814533_38087.png
subject-06,1,178,0.729573011398315,knife,knife,true,0178_fc_s06_true_knife_35_n03041632_48816.png
subject-06,1,179,0.567797183990479,clock,clock,true,0179_fc_s06_true_clock_35_n02708093_483.png
subject-06,1,180,1.3503201007843,knife,chair,true,0180_fc_s06_true_chair_35_n04429376_19616.png
subject-06,1,181,0.588782072067261,airplane,airplane,false,0181_fc_s06_false_airplane_35_n02690373_1074.png
subject-06,1,182,0.695131063461304,airplane,airplane,false,0182_fc_s06_false_airplane_35_n02690373_5106.png
subject-06,1,183,0.817339897155762,bird,bird,false,0183_fc_s06_false_bird_35_n01537544_644.png
subject-06,1,184,0.601725816726685,elephant,elephant,true,0184_fc_s06_true_elephant_35_n02504013_1078.png
subject-06,1,185,1.0703399181366,clock,chair,false,0185_fc_s06_false_chair_35_n03376595_8995.png
subject-06,1,186,0.984680891036987,cat,keyboard,false,0186_fc_s06_false_keyboard_35_n03085013_24649.png
subject-06,1,187,0.636994123458862,elephant,elephant,false,0187_fc_s06_false_elephant_35_n02504458_7835.png
subject-06,1,188,0.713609933853149,elephant,oven,false,0188_fc_s06_false_oven_35_n04111531_9342.png
subject-06,1,189,0.852102041244507,clock,bottle,false,0189_fc_s06_false_bottle_35_n04560804_1908.png
subject-06,1,190,0.766368865966797,bottle,bottle,true,0190_fc_s06_true_bottle_35_n03983396_11469.png
subject-06,1,191,0.880455017089844,elephant,elephant,true,0191_fc_s06_true_elephant_35_n02504013_1970.png
subject-06,1,192,0.987091064453125,boat,boat,true,0192_fc_s06_true_boat_35_n02951358_7658.png
subject-06,1,193,0.785660982131958,clock,clock,true,0193_fc_s06_true_clock_35_n03196217_1187.png
subject-06,1,194,0.662139177322388,car,car,false,0194_fc_s06_false_car_35_n04285008_8555.png
subject-06,1,195,0.68457293510437,airplane,airplane,true,0195_fc_s06_true_airplane_35_n02690373_6739.png
subject-06,1,196,1.22531485557556,elephant,elephant,false,0196_fc_s06_false_elephant_35_n02504458_1803.png
subject-06,1,197,1.4177610874176,bear,dog,true,0197_fc_s06_true_dog_35_n02102177_217.png
subject-06,1,198,1.4743709564209,airplane,knife,true,0198_fc_s06_true_knife_35_n03041632_101673.png
subject-06,1,199,1.39659190177917,clock,boat,false,0199_fc_s06_false_boat_35_n03344393_2739.png
subject-06,1,200,0.95737099647522,bear,bear,false,0200_fc_s06_false_bear_35_n02134418_5765.png
subject-06,1,201,0.727586984634399,car,car,false,0201_fc_s06_false_car_35_n03100240_8489.png
subject-06,1,202,0.671764850616455,oven,knife,true,0202_fc_s06_true_knife_35_n03041632_30666.png
subject-06,1,203,1.07795906066895,knife,chair,false,0203_fc_s06_false_chair_35_n03376595_7959.png
subject-06,1,204,1.06766700744629,dog,dog,false,0204_fc_s06_false_dog_35_n02093991_8077.png
subject-06,1,205,1.13609385490417,bear,bear,false,0205_fc_s06_false_bear_35_n02134084_2956.png
subject-06,1,206,0.65039587020874,elephant,elephant,true,0206_fc_s06_true_elephant_35_n02504458_2046.png
subject-06,1,207,1.04057002067566,car,car,true,0207_fc_s06_true_car_35_n02814533_60418.png
subject-06,1,208,0.69495677947998,knife,knife,false,0208_fc_s06_false_knife_35_n03041632_11969.png
subject-06,1,209,0.693535089492798,knife,knife,true,0209_fc_s06_true_knife_35_n03041632_46185.png
subject-06,1,210,1.2968111038208,cat,knife,false,0210_fc_s06_false_knife_35_n03041632_22480.png
subject-06,1,211,0.926551103591919,dog,cat,false,0211_fc_s06_false_cat_35_n02123394_2099.png
subject-06,1,212,0.711087942123413,cat,cat,false,0212_fc_s06_false_cat_35_n02125311_25280.png
subject-06,1,213,0.787376880645752,boat,boat,true,0213_fc_s06_true_boat_35_n03662601_35800.png
subject-06,1,214,0.68599796295166,keyboard,keyboard,true,0214_fc_s06_true_keyboard_35_n03085013_21183.png
subject-06,1,215,0.778568983078003,bicycle,bicycle,false,0215_fc_s06_false_bicycle_35_n02835271_1055.png
subject-06,1,216,0.583559989929199,bicycle,bicycle,true,0216_fc_s06_true_bicycle_35_n03792782_51296.png
subject-06,1,217,0.782206058502197,oven,oven,false,0217_fc_s06_false_oven_35_n04111531_3977.png
subject-06,1,218,0.512592077255249,bicycle,bicycle,false,0218_fc_s06_false_bicycle_35_n02835271_8857.png
subject-06,1,219,0.941281080245972,chair,chair,true,0219_fc_s06_true_chair_35_n03376595_2768.png
subject-06,1,220,0.925306081771851,elephant,elephant,false,0220_fc_s06_false_elephant_35_n02504458_4345.png
subject-06,1,221,0.539541959762573,oven,oven,false,0221_fc_s06_false_oven_35_n04111531_14559.png
subject-06,1,222,0.711608171463013,boat,boat,true,0222_fc_s06_true_boat_35_n03662601_26273.png
subject-06,1,223,NaN,na,truck,true,0223_fc_s06_true_truck_35_n03417042_1718.png
subject-06,1,224,0.886361837387085,airplane,airplane,false,0224_fc_s06_false_airplane_35_n02690373_3032.png
subject-06,1,225,1.05138993263245,knife,knife,true,0225_fc_s06_true_knife_35_n03041632_86783.png
subject-06,1,226,0.687263011932373,bear,bear,false,0226_fc_s06_false_bear_35_n02132136_4203.png
subject-06,1,227,0.793333053588867,cat,cat,false,0227_fc_s06_false_cat_35_n02123045_4829.png
subject-06,1,228,1.02004098892212,bird,bird,false,0228_fc_s06_false_bird_35_n02011460_1391.png
subject-06,1,229,0.618886947631836,bear,bear,false,0229_fc_s06_false_bear_35_n02133161_7351.png
subject-06,1,230,0.610530138015747,chair,chair,false,0230_fc_s06_false_chair_35_n04099969_2713.png
subject-06,1,231,1.00865387916565,knife,knife,true,0231_fc_s06_true_knife_35_n03041632_50423.png
subject-06,1,232,0.606952905654907,boat,boat,false,0232_fc_s06_false_boat_35_n04273569_6707.png
subject-06,1,233,0.751446962356567,car,car,false,0233_fc_s06_false_car_35_n04285008_2298.png
subject-06,1,234,0.948786973953247,bicycle,bicycle,false,0234_fc_s06_false_bicycle_35_n03792782_7764.png
subject-06,1,235,0.457422018051147,clock,clock,true,0235_fc_s06_true_clock_35_n02708093_3043.png
subject-06,1,236,0.577996015548706,boat,boat,false,0236_fc_s06_false_boat_35_n03662601_22477.png
subject-06,1,237,0.854372978210449,clock,bird,false,0237_fc_s06_false_bird_35_n02002556_1695.png
subject-06,1,238,0.638603210449219,elephant,elephant,false,0238_fc_s06_false_elephant_35_n02504458_3889.png
subject-06,1,239,0.715498924255371,bottle,bottle,false,0239_fc_s06_false_bottle_35_n04591713_3412.png
subject-06,1,240,0.59372615814209,oven,oven,false,0240_fc_s06_false_oven_35_n04111531_6120.png
subject-06,1,241,0.770049095153809,car,car,true,0241_fc_s06_true_car_35_n03100240_17986.png
subject-06,1,242,0.800652980804443,cat,cat,false,0242_fc_s06_false_cat_35_n02123597_256.png
subject-06,1,243,0.819890022277832,bird,bird,true,0243_fc_s06_true_bird_35_n01817953_4730.png
subject-06,1,244,1.05590915679932,oven,oven,false,0244_fc_s06_false_oven_35_n04111531_22263.png
subject-06,1,245,0.724220037460327,cat,cat,false,0245_fc_s06_false_cat_35_n02124075_11776.png
subject-06,1,246,0.72884202003479,bird,bird,false,0246_fc_s06_false_bird_35_n02011460_8409.png
subject-06,1,247,0.573361158370972,bird,bird,true,0247_fc_s06_true_bird_35_n01829413_2266.png
subject-06,1,248,0.725594043731689,airplane,airplane,true,0248_fc_s06_true_airplane_35_n02690373_4945.png
subject-06,1,249,0.529960870742798,oven,oven,true,0249_fc_s06_true_oven_35_n04111531_15296.png
subject-06,1,250,0.720252990722656,chair,chair,false,0250_fc_s06_false_chair_35_n04099969_22534.png
subject-06,1,251,0.978285074234009,oven,oven,false,0251_fc_s06_false_oven_35_n04111531_9762.png
subject-06,1,252,0.66246485710144,keyboard,keyboard,false,0252_fc_s06_false_keyboard_35_n03085013_7152.png
subject-06,1,253,1.07723808288574,clock,chair,false,0253_fc_s06_false_chair_35_n02791124_16085.png
subject-06,1,254,1.29700398445129,bicycle,bicycle,true,0254_fc_s06_true_bicycle_35_n03792782_7269.png
subject-06,1,255,0.696882963180542,keyboard,bottle,false,0255_fc_s06_false_bottle_35_n03937543_2336.png
subject-06,1,256,0.725049018859863,boat,boat,false,0256_fc_s06_false_boat_35_n04273569_8366.png
subject-06,1,257,0.593410968780518,boat,boat,true,0257_fc_s06_true_boat_35_n03344393_3285.png
subject-06,1,258,1.29284596443176,boat,bear,false,0258_fc_s06_false_bear_35_n02133161_2353.png
subject-06,1,259,0.555485010147095,cat,cat,false,0259_fc_s06_false_cat_35_n02124075_15157.png
subject-06,1,260,1.43044710159302,oven,clock,true,0260_fc_s06_true_clock_35_n04548280_8892.png
subject-06,1,261,0.677127838134766,knife,knife,false,0261_fc_s06_false_knife_35_n03041632_46422.png
subject-06,1,262,0.653717041015625,car,car,true,0262_fc_s06_true_car_35_n03100240_4447.png
subject-06,1,263,0.690818071365356,airplane,airplane,true,0263_fc_s06_true_airplane_35_n02690373_8704.png
subject-06,1,264,1.16701698303223,elephant,elephant,true,0264_fc_s06_true_elephant_35_n02504458_7901.png
subject-06,1,265,0.505461931228638,boat,boat,false,0265_fc_s06_false_boat_35_n03662601_4418.png
subject-06,1,266,0.741196870803833,boat,boat,true,0266_fc_s06_true_boat_35_n03662601_4255.png
subject-06,1,267,0.906569004058838,oven,chair,true,0267_fc_s06_true_chair_35_n02791124_16098.png
subject-06,1,268,0.921539068222046,boat,boat,false,0268_fc_s06_false_boat_35_n02951358_32049.png
subject-06,1,269,0.819453001022339,bottle,bottle,false,0269_fc_s06_false_bottle_35_n03983396_123.png
subject-06,1,270,0.595385074615479,chair,chair,false,0270_fc_s06_false_chair_35_n03376595_2368.png
subject-06,1,271,1.26974487304688,bottle,bottle,true,0271_fc_s06_true_bottle_35_n04591713_2956.png
subject-06,1,272,0.654016971588135,keyboard,bottle,false,0272_fc_s06_false_bottle_35_n03983396_9600.png
subject-06,1,273,0.627645969390869,keyboard,keyboard,true,0273_fc_s06_true_keyboard_35_n04505470_3117.png
subject-06,1,274,0.674997806549072,oven,oven,true,0274_fc_s06_true_oven_35_n04111531_681.png
subject-06,1,275,1.3243420124054,cat,knife,false,0275_fc_s06_false_knife_35_n03041632_18468.png
subject-06,1,276,0.868575096130371,bear,bear,true,0276_fc_s06_true_bear_35_n02134418_4180.png
subject-06,1,277,0.498057842254639,boat,boat,true,0277_fc_s06_true_boat_35_n03662601_24579.png
subject-06,1,278,0.541934013366699,boat,boat,false,0278_fc_s06_false_boat_35_n04612504_13668.png
subject-06,1,279,0.945830106735229,knife,knife,false,0279_fc_s06_false_knife_35_n03041632_45636.png
subject-06,1,280,1.31440401077271,truck,truck,false,0280_fc_s06_false_truck_35_n03417042_6420.png
subject-06,1,281,0.658736944198608,airplane,airplane,false,0281_fc_s06_false_airplane_35_n02690373_4009.png
subject-06,1,282,0.672871828079224,bird,bird,false,0282_fc_s06_false_bird_35_n01537544_2772.png
subject-06,1,283,0.457523107528687,boat,boat,false,0283_fc_s06_false_boat_35_n02951358_9661.png
subject-06,1,284,0.779497861862183,bird,bird,true,0284_fc_s06_true_bird_35_n01855032_518.png
subject-06,1,285,0.645782947540283,bird,bird,false,0285_fc_s06_false_bird_35_n01534433_6260.png
subject-06,1,286,0.826367139816284,dog,dog,true,0286_fc_s06_true_dog_35_n02106550_8979.png
subject-06,1,287,0.610669851303101,airplane,airplane,true,0287_fc_s06_true_airplane_35_n02690373_7075.png
subject-06,1,288,1.40110802650452,bicycle,bicycle,false,0288_fc_s06_false_bicycle_35_n03792782_12752.png
subject-06,1,289,0.828238010406494,bird,bird,true,0289_fc_s06_true_bird_35_n01818515_9891.png
subject-06,1,290,0.595898151397705,car,car,false,0290_fc_s06_false_car_35_n03100240_3988.png
subject-06,1,291,1.36813688278198,car,truck,false,0291_fc_s06_false_truck_35_n03796401_14490.png
subject-06,1,292,0.600734949111938,airplane,airplane,true,0292_fc_s06_true_airplane_35_n02690373_2561.png
subject-06,1,293,0.545087099075317,keyboard,keyboard,true,0293_fc_s06_true_keyboard_35_n04505470_7928.png
subject-06,1,294,1.1570451259613,knife,knife,true,0294_fc_s06_true_knife_35_n03041632_29338.png
subject-06,1,295,0.824182987213135,chair,chair,false,0295_fc_s06_false_chair_35_n04099969_6710.png
subject-06,1,296,1.2525680065155,knife,knife,true,0296_fc_s06_true_knife_35_n03041632_19614.png
subject-06,1,297,0.905098915100098,truck,truck,true,0297_fc_s06_true_truck_35_n03796401_20093.png
subject-06,1,298,0.878844022750854,elephant,elephant,false,0298_fc_s06_false_elephant_35_n02504458_209.png
subject-06,1,299,0.755192995071411,bird,cat,true,0299_fc_s06_true_cat_35_n02123597_9668.png
subject-06,1,300,1.06972289085388,keyboard,clock,false,0300_fc_s06_false_clock_35_n04548280_3293.png
subject-06,1,301,0.8886399269104,oven,oven,false,0301_fc_s06_false_oven_35_n04111531_8305.png
subject-06,1,302,0.633364915847778,oven,oven,false,0302_fc_s06_false_oven_35_n04111531_9289.png
subject-06,1,303,0.923315048217773,truck,truck,false,0303_fc_s06_false_truck_35_n03417042_1756.png
subject-06,1,304,0.915743112564087,knife,knife,false,0304_fc_s06_false_knife_35_n03041632_55711.png
subject-06,1,305,0.78223991394043,bottle,bottle,false,0305_fc_s06_false_bottle_35_n04557648_840.png
subject-06,1,306,0.574265956878662,clock,clock,true,0306_fc_s06_true_clock_35_n04548280_4894.png
subject-06,1,307,0.832396984100342,elephant,elephant,false,0307_fc_s06_false_elephant_35_n02504013_10588.png
subject-06,1,308,0.692334175109863,chair,bicycle,false,0308_fc_s06_false_bicycle_35_n02835271_14504.png
subject-06,1,309,0.627470970153809,truck,truck,false,0309_fc_s06_false_truck_35_n03796401_2557.png
subject-06,1,310,0.793493032455444,bicycle,bicycle,false,0310_fc_s06_false_bicycle_35_n02835271_18228.png
subject-06,1,311,0.615741014480591,elephant,elephant,false,0311_fc_s06_false_elephant_35_n02504458_8254.png
subject-06,1,312,1.31057500839233,truck,truck,false,0312_fc_s06_false_truck_35_n03417042_15898.png
subject-06,1,313,1.49346899986267,chair,chair,false,0313_fc_s06_false_chair_35_n04099969_3800.png
subject-06,1,314,0.815770149230957,elephant,elephant,false,0314_fc_s06_false_elephant_35_n02504458_4806.png
subject-06,1,315,0.628596782684326,elephant,elephant,true,0315_fc_s06_true_elephant_35_n02504013_4081.png
subject-06,1,316,0.787017107009888,car,car,true,0316_fc_s06_true_car_35_n03100240_5573.png
subject-06,1,317,0.847162008285522,knife,knife,false,0317_fc_s06_false_knife_35_n03041632_3210.png
subject-06,1,318,0.936176061630249,elephant,truck,false,0318_fc_s06_false_truck_35_n03417042_3307.png
subject-06,1,319,0.942632913589478,clock,clock,true,0319_fc_s06_true_clock_35_n03196217_2248.png
subject-06,1,320,0.649487018585205,bottle,bottle,false,0320_fc_s06_false_bottle_35_n03983396_10161.png
subject-06,1,321,0.666594982147217,clock,clock,false,0321_fc_s06_false_clock_35_n04548280_189.png
subject-06,1,322,0.464478015899658,boat,boat,true,0322_fc_s06_true_boat_35_n04273569_5573.png
subject-06,1,323,0.685052156448364,bird,bird,false,0323_fc_s06_false_bird_35_n01820546_5542.png
subject-06,1,324,0.553012847900391,car,car,true,0324_fc_s06_true_car_35_n03100240_9467.png
subject-06,1,325,0.743453979492188,bear,bear,false,0325_fc_s06_false_bear_35_n02134418_4137.png
subject-06,1,326,0.565697908401489,keyboard,keyboard,true,0326_fc_s06_true_keyboard_35_n03085013_2189.png
subject-06,1,327,0.693607091903687,truck,truck,true,0327_fc_s06_true_truck_35_n04467665_1800.png
subject-06,1,328,0.937875986099243,dog,dog,true,0328_fc_s06_true_dog_35_n02097298_3647.png
subject-06,1,329,0.698064088821411,clock,clock,true,0329_fc_s06_true_clock_35_n04548280_9426.png
subject-06,1,330,0.628594875335693,clock,clock,true,0330_fc_s06_true_clock_35_n04548280_4037.png
subject-06,1,331,0.940851926803589,bottle,bottle,true,0331_fc_s06_true_bottle_35_n04560804_15516.png
subject-06,1,332,0.789583921432495,elephant,elephant,false,0332_fc_s06_false_elephant_35_n02504458_4809.png
subject-06,1,333,0.873131036758423,bicycle,bicycle,false,0333_fc_s06_false_bicycle_35_n03792782_15833.png
subject-06,1,334,0.547804117202759,airplane,airplane,false,0334_fc_s06_false_airplane_35_n02690373_9848.png
subject-06,1,335,0.750524997711182,cat,cat,false,0335_fc_s06_false_cat_35_n02123597_4593.png
subject-06,1,336,1.10319900512695,oven,oven,true,0336_fc_s06_true_oven_35_n04111531_2922.png
subject-06,1,337,0.86338996887207,clock,clock,true,0337_fc_s06_true_clock_35_n03196217_2022.png
subject-06,1,338,0.693386077880859,truck,truck,false,0338_fc_s06_false_truck_35_n04467665_66016.png
subject-06,1,339,0.675527811050415,elephant,elephant,true,0339_fc_s06_true_elephant_35_n02504458_5369.png
subject-06,1,340,1.49587297439575,keyboard,keyboard,true,0340_fc_s06_true_keyboard_35_n03085013_24578.png
subject-06,1,341,0.655826091766357,bird,bird,true,0341_fc_s06_true_bird_35_n01592084_1228.png
subject-06,1,342,0.667449951171875,bicycle,bicycle,false,0342_fc_s06_false_bicycle_35_n03792782_9563.png
subject-06,1,343,0.811671018600464,dog,dog,true,0343_fc_s06_true_dog_35_n02091831_4962.png
subject-06,1,344,0.722452878952026,car,car,false,0344_fc_s06_false_car_35_n02814533_94532.png
subject-06,1,345,0.790884971618652,truck,truck,false,0345_fc_s06_false_truck_35_n03417042_14459.png
subject-06,1,346,0.742983102798462,truck,truck,true,0346_fc_s06_true_truck_35_n04467665_7110.png
subject-06,1,347,1.12990808486938,clock,bottle,false,0347_fc_s06_false_bottle_35_n04560804_2019.png
subject-06,1,348,0.668061017990112,boat,boat,true,0348_fc_s06_true_boat_35_n02951358_31514.png
subject-06,1,349,1.03376698493958,bear,bear,true,0349_fc_s06_true_bear_35_n02134418_2351.png
subject-06,1,350,1.123694896698,knife,knife,true,0350_fc_s06_true_knife_35_n03041632_49570.png
subject-06,1,351,0.543933153152466,airplane,airplane,false,0351_fc_s06_false_airplane_35_n02690373_220.png
subject-06,1,352,0.604143142700195,chair,chair,false,0352_fc_s06_false_chair_35_n04099969_8961.png
subject-06,1,353,0.823156118392944,elephant,elephant,false,0353_fc_s06_false_elephant_35_n02504458_2709.png
subject-06,1,354,1.30548882484436,dog,bear,false,0354_fc_s06_false_bear_35_n02134084_6948.png
subject-06,1,355,0.619734048843384,bear,bear,true,0355_fc_s06_true_bear_35_n02133161_2593.png
subject-06,1,356,0.579668045043945,chair,chair,true,0356_fc_s06_true_chair_35_n04099969_7274.png
subject-06,1,357,0.915881872177124,car,truck,false,0357_fc_s06_false_truck_35_n03796401_3376.png
subject-06,1,358,1.07438278198242,car,car,true,0358_fc_s06_true_car_35_n04285008_13276.png
subject-06,1,359,0.928518056869507,dog,dog,true,0359_fc_s06_true_dog_35_n02089078_502.png
subject-06,1,360,0.602953910827637,airplane,airplane,false,0360_fc_s06_false_airplane_35_n02690373_6455.png
subject-06,1,361,0.909703016281128,dog,dog,false,0361_fc_s06_false_dog_35_n02113023_4030.png
subject-06,1,362,0.708279848098755,bear,bear,true,0362_fc_s06_true_bear_35_n02133161_14810.png
subject-06,1,363,0.662546873092651,bicycle,bicycle,true,0363_fc_s06_true_bicycle_35_n03792782_8172.png
subject-06,1,364,0.937027931213379,dog,cat,false,0364_fc_s06_false_cat_35_n02123394_8848.png
subject-06,1,365,0.656029939651489,bicycle,bicycle,false,0365_fc_s06_false_bicycle_35_n02835271_9216.png
subject-06,1,366,1.12461400032043,truck,truck,false,0366_fc_s06_false_truck_35_n04467665_68706.png
subject-06,1,367,0.692805767059326,boat,boat,true,0367_fc_s06_true_boat_35_n04612504_1748.png
subject-06,1,368,0.591440916061401,chair,chair,false,0368_fc_s06_false_chair_35_n04099969_875.png
subject-06,1,369,0.634812116622925,clock,clock,true,0369_fc_s06_true_clock_35_n04548280_3208.png
subject-06,1,370,0.487571001052856,clock,clock,false,0370_fc_s06_false_clock_35_n04548280_8917.png
subject-06,1,371,0.640097856521606,bird,bird,false,0371_fc_s06_false_bird_35_n01828970_10043.png
subject-06,1,372,0.776291131973267,bicycle,bicycle,false,0372_fc_s06_false_bicycle_35_n02835271_14862.png
subject-06,1,373,0.720963954925537,bear,bear,false,0373_fc_s06_false_bear_35_n02134418_817.png
subject-06,1,374,0.647474050521851,dog,dog,false,0374_fc_s06_false_dog_35_n02099601_487.png
subject-06,1,375,1.13772702217102,knife,knife,false,0375_fc_s06_false_knife_35_n03041632_102828.png
subject-06,1,376,0.638372898101807,bottle,bottle,false,0376_fc_s06_false_bottle_35_n03983396_8968.png
subject-06,1,377,0.549313068389893,bicycle,bicycle,true,0377_fc_s06_true_bicycle_35_n02835271_20104.png
subject-06,1,378,0.893625020980835,oven,oven,false,0378_fc_s06_false_oven_35_n04111531_774.png
subject-06,1,379,0.654140949249268,cat,cat,true,0379_fc_s06_true_cat_35_n02123394_8252.png
subject-06,1,380,0.773123979568481,oven,oven,false,0380_fc_s06_false_oven_35_n04111531_22784.png
subject-06,1,381,0.809252977371216,clock,clock,true,0381_fc_s06_true_clock_35_n04548280_636.png
subject-06,1,382,0.723395824432373,bird,bird,false,0382_fc_s06_false_bird_35_n01855672_15783.png
subject-06,1,383,0.781743049621582,bicycle,bicycle,true,0383_fc_s06_true_bicycle_35_n03792782_10243.png
subject-06,1,384,0.687671899795532,car,car,false,0384_fc_s06_false_car_35_n03100240_8107.png
subject-06,1,385,0.755774974822998,knife,bear,false,0385_fc_s06_false_bear_35_n02134084_13029.png
subject-06,1,386,1.09610915184021,dog,dog,false,0386_fc_s06_false_dog_35_n02088364_7652.png
subject-06,1,387,0.448477029800415,cat,cat,false,0387_fc_s06_false_cat_35_n02123394_797.png
subject-06,1,388,1.13876008987427,bicycle,chair,false,0388_fc_s06_false_chair_35_n02791124_2034.png
subject-06,1,389,0.774859189987183,car,car,false,0389_fc_s06_false_car_35_n03100240_21073.png
subject-06,1,390,0.773187875747681,keyboard,keyboard,false,0390_fc_s06_false_keyboard_35_n03085013_8007.png
subject-06,1,391,0.579499959945679,boat,boat,true,0391_fc_s06_true_boat_35_n02951358_865.png
subject-06,1,392,0.677909851074219,boat,boat,false,0392_fc_s06_false_boat_35_n03662601_19823.png
subject-06,1,393,0.700146198272705,bird,bird,false,0393_fc_s06_false_bird_35_n01820546_5908.png
subject-06,1,394,0.844135046005249,bear,bear,true,0394_fc_s06_true_bear_35_n02133161_8764.png
subject-06,1,395,0.7724289894104,dog,dog,true,0395_fc_s06_true_dog_35_n02107683_733.png
subject-06,1,396,0.648248910903931,oven,oven,true,0396_fc_s06_true_oven_35_n04111531_22041.png
subject-06,1,397,0.730726957321167,car,car,true,0397_fc_s06_true_car_35_n03100240_4823.png
subject-06,1,398,1.03684115409851,bear,bear,true,0398_fc_s06_true_bear_35_n02132136_24690.png
subject-06,1,399,0.826659917831421,elephant,bird,true,0399_fc_s06_true_bird_35_n01616318_1411.png
subject-06,1,400,0.624947071075439,bear,bear,false,0400_fc_s06_false_bear_35_n02133161_2961.png
subject-06,1,401,0.76115608215332,truck,truck,false,0401_fc_s06_false_truck_35_n03796401_26284.png
subject-06,1,402,0.667661905288696,car,car,true,0402_fc_s06_true_car_35_n02814533_74915.png
subject-06,1,403,0.573448181152344,oven,oven,true,0403_fc_s06_true_oven_35_n04111531_4944.png
subject-06,1,404,0.839210987091064,car,car,false,0404_fc_s06_false_car_35_n04285008_12045.png
subject-06,1,405,0.569344997406006,cat,cat,true,0405_fc_s06_true_cat_35_n02125311_77.png
subject-06,1,406,0.78351902961731,car,car,false,0406_fc_s06_false_car_35_n02814533_23628.png
subject-06,1,407,0.881575107574463,oven,oven,true,0407_fc_s06_true_oven_35_n04111531_22388.png
subject-06,1,408,0.69423508644104,dog,dog,false,0408_fc_s06_false_dog_35_n02097047_2948.png
subject-06,1,409,0.762120962142944,elephant,elephant,true,0409_fc_s06_true_elephant_35_n02504013_3017.png
subject-06,1,410,0.973037004470825,airplane,knife,false,0410_fc_s06_false_knife_35_n03041632_52929.png
subject-06,1,411,1.14711999893188,clock,chair,true,0411_fc_s06_true_chair_35_n04429376_7732.png
subject-06,1,412,0.661302089691162,bicycle,bicycle,true,0412_fc_s06_true_bicycle_35_n03792782_11679.png
subject-06,1,413,0.981757164001465,airplane,truck,false,0413_fc_s06_false_truck_35_n04467665_52003.png
subject-06,1,414,0.612192869186401,bottle,bottle,false,0414_fc_s06_false_bottle_35_n03937543_11143.png
subject-06,1,415,1.44864106178284,knife,knife,true,0415_fc_s06_true_knife_35_n03041632_15299.png
subject-06,1,416,0.825030088424683,airplane,airplane,false,0416_fc_s06_false_airplane_35_n02690373_2092.png
subject-06,1,417,0.639522790908813,bear,bear,true,0417_fc_s06_true_bear_35_n02134418_1692.png
subject-06,1,418,0.726394176483154,elephant,elephant,true,0418_fc_s06_true_elephant_35_n02504013_15920.png
subject-06,1,419,0.832498073577881,chair,chair,true,0419_fc_s06_true_chair_35_n04099969_3611.png
subject-06,1,420,0.676501989364624,airplane,airplane,true,0420_fc_s06_true_airplane_35_n02690373_18936.png
subject-06,1,421,0.778639078140259,elephant,elephant,true,0421_fc_s06_true_elephant_35_n02504013_875.png
subject-06,1,422,0.877019882202148,dog,dog,true,0422_fc_s06_true_dog_35_n02085936_6059.png
subject-06,1,423,0.951620817184448,car,keyboard,false,0423_fc_s06_false_keyboard_35_n03085013_3812.png
subject-06,1,424,0.478415966033936,car,car,false,0424_fc_s06_false_car_35_n02814533_46508.png
subject-06,1,425,0.668631076812744,bicycle,bicycle,true,0425_fc_s06_true_bicycle_35_n03792782_19933.png
subject-06,1,426,0.544728994369507,bicycle,bicycle,false,0426_fc_s06_false_bicycle_35_n02835271_1627.png
subject-06,1,427,0.693707942962646,boat,boat,false,0427_fc_s06_false_boat_35_n02951358_14280.png
subject-06,1,428,0.891841173171997,boat,boat,true,0428_fc_s06_true_boat_35_n02951358_32026.png
subject-06,1,429,0.590107202529907,clock,clock,true,0429_fc_s06_true_clock_35_n03196217_11035.png
subject-06,1,430,1.26131987571716,chair,chair,true,0430_fc_s06_true_chair_35_n03376595_2724.png
subject-06,1,431,0.888329029083252,truck,truck,true,0431_fc_s06_true_truck_35_n03417042_29342.png
subject-06,1,432,0.548156976699829,clock,clock,true,0432_fc_s06_true_clock_35_n02708093_2588.png
subject-06,1,433,1.000403881073,bicycle,bicycle,true,0433_fc_s06_true_bicycle_35_n02835271_1724.png
subject-06,1,434,0.53093409538269,oven,oven,true,0434_fc_s06_true_oven_35_n04111531_17781.png
subject-06,1,435,0.867077112197876,knife,knife,true,0435_fc_s06_true_knife_35_n03041632_94470.png
subject-06,1,436,0.741618871688843,dog,dog,true,0436_fc_s06_true_dog_35_n02106030_1388.png
subject-06,1,437,0.840095996856689,truck,truck,false,0437_fc_s06_false_truck_35_n03417042_4485.png
subject-06,1,438,0.608559131622314,bird,bird,false,0438_fc_s06_false_bird_35_n01860187_30453.png
subject-06,1,439,0.523215055465698,bird,bird,true,0439_fc_s06_true_bird_35_n02037110_2049.png
subject-06,1,440,0.867494106292725,elephant,elephant,true,0440_fc_s06_true_elephant_35_n02504013_7774.png
subject-06,1,441,0.74114203453064,cat,cat,true,0441_fc_s06_true_cat_35_n02123394_684.png
subject-06,1,442,0.694139003753662,dog,dog,false,0442_fc_s06_false_dog_35_n02106662_29542.png
subject-06,1,443,1.03827881813049,knife,knife,true,0443_fc_s06_true_knife_35_n03041632_23087.png
subject-06,1,444,0.920783996582031,elephant,dog,false,0444_fc_s06_false_dog_35_n02091032_6740.png
subject-06,1,445,0.53547191619873,boat,boat,true,0445_fc_s06_true_boat_35_n03344393_615.png
subject-06,1,446,1.01772499084473,cat,cat,false,0446_fc_s06_false_cat_35_n02125311_47798.png
subject-06,1,447,0.994182109832764,knife,cat,false,0447_fc_s06_false_cat_35_n02123045_11101.png
subject-06,1,448,0.69725513458252,keyboard,keyboard,true,0448_fc_s06_true_keyboard_35_n04505470_4554.png
subject-06,1,449,0.67280101776123,car,car,true,0449_fc_s06_true_car_35_n02814533_2308.png
subject-06,1,450,0.747308015823364,clock,clock,false,0450_fc_s06_false_clock_35_n02708093_1557.png
subject-06,1,451,0.525837898254395,bird,bird,false,0451_fc_s06_false_bird_35_n01797886_7661.png
subject-06,1,452,0.656512975692749,bird,bird,false,0452_fc_s06_false_bird_35_n02037110_5024.png
subject-06,1,453,0.778958082199097,bird,bird,true,0453_fc_s06_true_bird_35_n01530575_3667.png
subject-06,1,454,0.526939868927002,bird,bird,false,0454_fc_s06_false_bird_35_n02027492_7198.png
subject-06,1,455,0.747166156768799,oven,oven,true,0455_fc_s06_true_oven_35_n04111531_4750.png
subject-06,1,456,0.669661998748779,car,truck,true,0456_fc_s06_true_truck_35_n03417042_9170.png
subject-06,1,457,0.698013782501221,elephant,elephant,true,0457_fc_s06_true_elephant_35_n02504013_720.png
subject-06,1,458,0.466553211212158,car,car,false,0458_fc_s06_false_car_35_n03100240_5876.png
subject-06,1,459,0.635257005691528,bottle,bottle,true,0459_fc_s06_true_bottle_35_n04560804_3235.png
subject-06,1,460,0.629920959472656,bicycle,bicycle,true,0460_fc_s06_true_bicycle_35_n02835271_6361.png
subject-06,1,461,0.942184925079346,bear,bear,false,0461_fc_s06_false_bear_35_n02132136_32838.png
subject-06,1,462,0.480717897415161,boat,boat,true,0462_fc_s06_true_boat_35_n02951358_2524.png
subject-06,1,463,1.20533108711243,elephant,boat,false,0463_fc_s06_false_boat_35_n03662601_21678.png
subject-06,1,464,0.819323062896729,knife,knife,true,0464_fc_s06_true_knife_35_n03041632_22988.png
subject-06,1,465,0.701900959014893,car,car,true,0465_fc_s06_true_car_35_n04285008_1277.png
subject-06,1,466,0.632382154464722,truck,truck,true,0466_fc_s06_true_truck_35_n03417042_27022.png
subject-06,1,467,1.07687306404114,truck,truck,false,0467_fc_s06_false_truck_35_n03796401_5208.png
subject-06,1,468,0.745239019393921,knife,knife,true,0468_fc_s06_true_knife_35_n03041632_77022.png
subject-06,1,469,1.04831600189209,dog,cat,true,0469_fc_s06_true_cat_35_n02123394_4775.png
subject-06,1,470,0.608525991439819,car,car,false,0470_fc_s06_false_car_35_n03100240_6853.png
subject-06,1,471,0.64482307434082,clock,clock,false,0471_fc_s06_false_clock_35_n03196217_3558.png
subject-06,1,472,0.530647039413452,car,car,true,0472_fc_s06_true_car_35_n03100240_23219.png
subject-06,1,473,0.742735862731934,knife,knife,false,0473_fc_s06_false_knife_35_n03041632_26314.png
subject-06,1,474,0.581364870071411,clock,clock,true,0474_fc_s06_true_clock_35_n03196217_1272.png
subject-06,1,475,1.09243202209473,clock,bottle,false,0475_fc_s06_false_bottle_35_n02823428_9063.png
subject-06,1,476,1.4588451385498,oven,oven,false,0476_fc_s06_false_oven_35_n04111531_15682.png
subject-06,1,477,0.789680004119873,bear,bear,true,0477_fc_s06_true_bear_35_n02132136_3273.png
subject-06,1,478,0.720129013061523,knife,knife,true,0478_fc_s06_true_knife_35_n03041632_18863.png
subject-06,1,479,0.526467800140381,boat,boat,true,0479_fc_s06_true_boat_35_n02951358_1718.png
subject-06,1,480,1.50024318695068,cat,knife,true,0480_fc_s06_true_knife_35_n03041632_9302.png
subject-06,1,481,0.794011831283569,knife,knife,false,0481_fc_s06_false_knife_35_n03041632_50648.png
subject-06,1,482,1.18450284004211,car,car,false,0482_fc_s06_false_car_35_n03100240_1988.png
subject-06,1,483,0.57533597946167,boat,boat,true,0483_fc_s06_true_boat_35_n03344393_6870.png
subject-06,1,484,0.643834114074707,truck,truck,false,0484_fc_s06_false_truck_35_n03417042_15485.png
subject-06,1,485,0.55816912651062,clock,clock,false,0485_fc_s06_false_clock_35_n02708093_3687.png
subject-06,1,486,0.61500096321106,bicycle,bicycle,true,0486_fc_s06_true_bicycle_35_n02835271_3611.png
subject-06,1,487,0.635406970977783,knife,knife,false,0487_fc_s06_false_knife_35_n03041632_2058.png
subject-06,1,488,0.73365306854248,bird,bird,false,0488_fc_s06_false_bird_35_n02056570_11267.png
subject-06,1,489,0.626093149185181,bird,bird,true,0489_fc_s06_true_bird_35_n01833805_5691.png
subject-06,1,490,0.868165969848633,dog,dog,false,0490_fc_s06_false_dog_35_n02110063_11239.png
subject-06,1,491,0.636492967605591,oven,oven,false,0491_fc_s06_false_oven_35_n04111531_13502.png
subject-06,1,492,0.518419981002808,clock,clock,true,0492_fc_s06_true_clock_35_n03196217_4147.png
subject-06,1,493,0.717204093933105,elephant,elephant,false,0493_fc_s06_false_elephant_35_n02504013_1500.png
subject-06,1,494,0.807185888290405,bicycle,bicycle,true,0494_fc_s06_true_bicycle_35_n02835271_12036.png
subject-06,1,495,0.537405014038086,oven,oven,true,0495_fc_s06_true_oven_35_n04111531_7096.png
subject-06,1,496,0.749576807022095,bear,bear,false,0496_fc_s06_false_bear_35_n02133161_2088.png
subject-06,1,497,1.29422521591187,bicycle,bicycle,true,0497_fc_s06_true_bicycle_35_n03792782_850.png
subject-06,1,498,0.570621967315674,keyboard,keyboard,false,0498_fc_s06_false_keyboard_35_n03085013_24416.png
subject-06,1,499,0.714893817901611,elephant,elephant,true,0499_fc_s06_true_elephant_35_n02504013_256.png
subject-06,1,500,0.659382820129395,cat,cat,true,0500_fc_s06_true_cat_35_n02123394_602.png
subject-06,1,501,0.415840148925781,oven,oven,true,0501_fc_s06_true_oven_35_n04111531_5336.png
subject-06,1,502,0.613800048828125,boat,boat,false,0502_fc_s06_false_boat_35_n04273569_4465.png
subject-06,1,503,0.603579998016357,elephant,elephant,false,0503_fc_s06_false_elephant_35_n02504013_7395.png
subject-06,1,504,0.490421056747437,boat,boat,false,0504_fc_s06_false_boat_35_n02951358_33580.png
subject-06,1,505,0.672549962997437,keyboard,keyboard,true,0505_fc_s06_true_keyboard_35_n03085013_20597.png
subject-06,1,506,0.494616031646729,oven,oven,true,0506_fc_s06_true_oven_35_n04111531_15317.png
subject-06,1,507,1.0493791103363,clock,clock,false,0507_fc_s06_false_clock_35_n02708093_3289.png
subject-06,1,508,0.741935968399048,keyboard,keyboard,true,0508_fc_s06_true_keyboard_35_n04505470_3675.png
subject-06,1,509,0.648713827133179,car,car,true,0509_fc_s06_true_car_35_n04285008_7249.png
subject-06,1,510,0.676637887954712,car,car,true,0510_fc_s06_true_car_35_n03100240_7715.png
subject-06,1,511,0.936810970306396,dog,dog,false,0511_fc_s06_false_dog_35_n02108915_5910.png
subject-06,1,512,0.895203113555908,chair,chair,false,0512_fc_s06_false_chair_35_n02791124_2429.png
subject-06,1,513,0.755677938461304,keyboard,keyboard,false,0513_fc_s06_false_keyboard_35_n03085013_23718.png
subject-06,1,514,0.691896915435791,chair,chair,true,0514_fc_s06_true_chair_35_n02791124_3037.png
subject-06,1,515,0.675950050354004,bottle,bottle,true,0515_fc_s06_true_bottle_35_n02823428_5064.png
subject-06,1,516,0.962743997573853,boat,boat,true,0516_fc_s06_true_boat_35_n03662601_10189.png
subject-06,1,517,0.76896595954895,cat,cat,true,0517_fc_s06_true_cat_35_n02124075_2308.png
subject-06,1,518,0.567696809768677,boat,boat,true,0518_fc_s06_true_boat_35_n03662601_30017.png
subject-06,1,519,0.795712947845459,cat,cat,true,0519_fc_s06_true_cat_35_n02123394_317.png
subject-06,1,520,0.893798828125,dog,dog,false,0520_fc_s06_false_dog_35_n02097658_6335.png
subject-06,1,521,0.954198122024536,bear,bear,true,0521_fc_s06_true_bear_35_n02133161_11816.png
subject-06,1,522,0.579004049301147,bear,bear,false,0522_fc_s06_false_bear_35_n02132136_2451.png
subject-06,1,523,0.693373918533325,oven,oven,false,0523_fc_s06_false_oven_35_n04111531_8910.png
subject-06,1,524,0.837695121765137,bird,bird,true,0524_fc_s06_true_bird_35_n02017213_6905.png
subject-06,1,525,0.694959878921509,clock,clock,false,0525_fc_s06_false_clock_35_n03196217_6972.png
subject-06,1,526,0.947367906570435,bird,bird,false,0526_fc_s06_false_bird_35_n01560419_4330.png
subject-06,1,527,0.539724826812744,oven,oven,false,0527_fc_s06_false_oven_35_n04111531_9822.png
subject-06,1,528,1.49433493614197,car,truck,true,0528_fc_s06_true_truck_35_n03417042_3748.png
subject-06,1,529,0.940760850906372,elephant,elephant,false,0529_fc_s06_false_elephant_35_n02504013_4044.png
subject-06,1,530,0.530755043029785,clock,clock,false,0530_fc_s06_false_clock_35_n04548280_9700.png
subject-06,1,531,0.58299994468689,cat,cat,true,0531_fc_s06_true_cat_35_n02123597_6251.png
subject-06,1,532,1.0412700176239,truck,truck,false,0532_fc_s06_false_truck_35_n04467665_22573.png
subject-06,1,533,0.595751047134399,oven,oven,true,0533_fc_s06_true_oven_35_n04111531_15912.png
subject-06,1,534,0.552588939666748,cat,cat,false,0534_fc_s06_false_cat_35_n02124075_13357.png
subject-06,1,535,0.642925977706909,bicycle,bicycle,false,0535_fc_s06_false_bicycle_35_n02835271_14680.png
subject-06,1,536,0.641466856002808,keyboard,keyboard,false,0536_fc_s06_false_keyboard_35_n03085013_29042.png
subject-06,1,537,0.717494010925293,clock,clock,true,0537_fc_s06_true_clock_35_n04548280_6057.png
subject-06,1,538,0.600093126296997,bicycle,bicycle,true,0538_fc_s06_true_bicycle_35_n02835271_11868.png
subject-06,1,539,0.72278904914856,cat,cat,false,0539_fc_s06_false_cat_35_n02123045_5913.png
subject-06,1,540,0.99707818031311,dog,dog,true,0540_fc_s06_true_dog_35_n02089867_1918.png
subject-06,1,541,1.02467489242554,truck,truck,true,0541_fc_s06_true_truck_35_n03417042_2794.png
subject-06,1,542,0.7553551197052,airplane,airplane,true,0542_fc_s06_true_airplane_35_n02690373_4893.png
subject-06,1,543,0.640970945358276,elephant,elephant,false,0543_fc_s06_false_elephant_35_n02504013_10533.png
subject-06,1,544,0.631399154663086,dog,dog,false,0544_fc_s06_false_dog_35_n02108915_12460.png
subject-06,1,545,0.70735502243042,car,car,true,0545_fc_s06_true_car_35_n02814533_83215.png
subject-06,1,546,0.656557083129883,boat,boat,false,0546_fc_s06_false_boat_35_n03662601_3704.png
subject-06,1,547,0.676651954650879,elephant,elephant,false,0547_fc_s06_false_elephant_35_n02504013_7322.png
subject-06,1,548,0.737165927886963,bottle,bottle,true,0548_fc_s06_true_bottle_35_n04591713_4367.png
subject-06,1,549,0.537802934646606,cat,cat,false,0549_fc_s06_false_cat_35_n02123159_1662.png
subject-06,1,550,0.781812191009521,knife,knife,false,0550_fc_s06_false_knife_35_n03041632_101553.png
subject-06,1,551,0.663902044296265,bottle,bottle,true,0551_fc_s06_true_bottle_35_n03983396_18763.png
subject-06,1,552,0.674951076507568,bicycle,bicycle,true,0552_fc_s06_true_bicycle_35_n02835271_14544.png
subject-06,1,553,0.794934034347534,dog,dog,false,0553_fc_s06_false_dog_35_n02100583_28504.png
subject-06,1,554,0.663235902786255,truck,truck,true,0554_fc_s06_true_truck_35_n03796401_9472.png
subject-06,1,555,1.08796000480652,cat,cat,true,0555_fc_s06_true_cat_35_n02123045_6024.png
subject-06,1,556,1.33985209465027,cat,bear,true,0556_fc_s06_true_bear_35_n02133161_703.png
subject-06,1,557,1.07787799835205,bicycle,chair,false,0557_fc_s06_false_chair_35_n04429376_2915.png
subject-06,1,558,0.960486888885498,cat,cat,false,0558_fc_s06_false_cat_35_n02125311_47339.png
subject-06,1,559,0.544265985488892,car,car,false,0559_fc_s06_false_car_35_n03100240_9314.png
subject-06,1,560,0.88668417930603,elephant,elephant,true,0560_fc_s06_true_elephant_35_n02504013_8215.png
subject-06,1,561,0.642844915390015,clock,clock,false,0561_fc_s06_false_clock_35_n04548280_1878.png
subject-06,1,562,0.856945991516113,elephant,elephant,false,0562_fc_s06_false_elephant_35_n02504013_2861.png
subject-06,1,563,0.777182102203369,car,car,false,0563_fc_s06_false_car_35_n04285008_1156.png
subject-06,1,564,0.745512008666992,bottle,bottle,false,0564_fc_s06_false_bottle_35_n04557648_9282.png
subject-06,1,565,0.705942869186401,bottle,boat,false,0565_fc_s06_false_boat_35_n02951358_10108.png
subject-06,1,566,0.780807971954346,boat,boat,false,0566_fc_s06_false_boat_35_n03662601_2048.png
subject-06,1,567,0.810976982116699,elephant,cat,true,0567_fc_s06_true_cat_35_n02125311_8972.png
subject-06,1,568,0.801555871963501,knife,knife,false,0568_fc_s06_false_knife_35_n03041632_45264.png
subject-06,1,569,0.838038921356201,knife,knife,true,0569_fc_s06_true_knife_35_n03041632_5640.png
subject-06,1,570,0.852277040481567,dog,dog,true,0570_fc_s06_true_dog_35_n02097658_6927.png
subject-06,1,571,0.996862888336182,elephant,elephant,false,0571_fc_s06_false_elephant_35_n02504458_7200.png
subject-06,1,572,1.4870719909668,clock,keyboard,true,0572_fc_s06_true_keyboard_35_n03085013_20779.png
subject-06,1,573,0.823035955429077,bear,bear,true,0573_fc_s06_true_bear_35_n02134084_3103.png
subject-06,1,574,NaN,na,clock,false,0574_fc_s06_false_clock_35_n04548280_6126.png
subject-06,1,575,0.60291600227356,boat,boat,false,0575_fc_s06_false_boat_35_n03344393_2639.png
subject-06,1,576,0.755316019058228,bottle,bottle,true,0576_fc_s06_true_bottle_35_n03983396_4694.png
subject-06,1,577,1.06124806404114,bear,dog,false,0577_fc_s06_false_dog_35_n02096294_392.png
subject-06,1,578,0.697790145874023,bear,bear,true,0578_fc_s06_true_bear_35_n02132136_900.png
subject-06,1,579,0.80431604385376,bear,bear,false,0579_fc_s06_false_bear_35_n02134418_957.png
subject-06,1,580,0.864500999450684,bottle,bottle,true,0580_fc_s06_true_bottle_35_n03983396_6512.png
subject-06,1,581,0.54085111618042,bottle,bottle,true,0581_fc_s06_true_bottle_35_n02823428_3208.png
subject-06,1,582,0.645018100738525,bear,bear,true,0582_fc_s06_true_bear_35_n02133161_12868.png
subject-06,1,583,0.713320970535278,chair,chair,true,0583_fc_s06_true_chair_35_n03376595_6445.png
subject-06,1,584,0.62468409538269,airplane,airplane,false,0584_fc_s06_false_airplane_35_n02690373_2514.png
subject-06,1,585,0.981490135192871,knife,knife,true,0585_fc_s06_true_knife_35_n03041632_14546.png
subject-06,1,586,0.649839162826538,bicycle,bicycle,true,0586_fc_s06_true_bicycle_35_n02835271_508.png
subject-06,1,587,0.702136993408203,bear,bear,true,0587_fc_s06_true_bear_35_n02133161_2226.png
subject-06,1,588,0.53839111328125,bottle,bottle,false,0588_fc_s06_false_bottle_35_n04579145_459.png
subject-06,1,589,0.82875394821167,airplane,airplane,true,0589_fc_s06_true_airplane_35_n02690373_1512.png
subject-06,1,590,0.640710115432739,airplane,airplane,true,0590_fc_s06_true_airplane_35_n02690373_5405.png
subject-06,1,591,0.797274112701416,elephant,elephant,true,0591_fc_s06_true_elephant_35_n02504013_6672.png
subject-06,1,592,0.687666893005371,airplane,airplane,false,0592_fc_s06_false_airplane_35_n02690373_5909.png
subject-06,1,593,0.96399188041687,dog,dog,true,0593_fc_s06_true_dog_35_n02085936_450.png
subject-06,1,594,0.946821928024292,dog,dog,true,0594_fc_s06_true_dog_35_n02093647_6876.png
subject-06,1,595,0.539063930511475,cat,cat,false,0595_fc_s06_false_cat_35_n02123159_5939.png
subject-06,1,596,0.705644845962524,bird,bird,true,0596_fc_s06_true_bird_35_n02017213_497.png
subject-06,1,597,0.48629903793335,cat,cat,false,0597_fc_s06_false_cat_35_n02123159_5831.png
subject-06,1,598,0.646458864212036,keyboard,keyboard,false,0598_fc_s06_false_keyboard_35_n04505470_3335.png
subject-06,1,599,0.599220991134644,car,car,false,0599_fc_s06_false_car_35_n02814533_20833.png
subject-06,1,600,0.697301864624023,elephant,elephant,true,0600_fc_s06_true_elephant_35_n02504458_2417.png
subject-06,1,601,0.50328803062439,keyboard,keyboard,true,0601_fc_s06_true_keyboard_35_n03085013_12164.png
subject-06,1,602,0.677793979644775,bottle,bottle,false,0602_fc_s06_false_bottle_35_n03983396_2114.png
subject-06,1,603,0.784357786178589,dog,dog,false,0603_fc_s06_false_dog_35_n02089867_6306.png
subject-06,1,604,0.612725019454956,cat,cat,true,0604_fc_s06_true_cat_35_n02123159_6483.png
subject-06,1,605,1.03493595123291,bear,bear,true,0605_fc_s06_true_bear_35_n02133161_3312.png
subject-06,1,606,0.683417081832886,oven,oven,false,0606_fc_s06_false_oven_35_n04111531_6567.png
subject-06,1,607,0.989987134933472,bicycle,bicycle,false,0607_fc_s06_false_bicycle_35_n03792782_12010.png
subject-06,1,608,0.512647867202759,clock,clock,false,0608_fc_s06_false_clock_35_n04548280_5516.png
subject-06,1,609,0.872552156448364,boat,boat,true,0609_fc_s06_true_boat_35_n03662601_23715.png
subject-06,1,610,0.946846961975098,bottle,bottle,false,0610_fc_s06_false_bottle_35_n03937543_4450.png
subject-06,1,611,0.713949918746948,truck,truck,false,0611_fc_s06_false_truck_35_n03417042_27673.png
subject-06,1,612,0.947649002075195,truck,truck,true,0612_fc_s06_true_truck_35_n03417042_3755.png
subject-06,1,613,0.645601034164429,cat,cat,true,0613_fc_s06_true_cat_35_n02123159_1752.png
subject-06,1,614,0.935950040817261,keyboard,keyboard,false,0614_fc_s06_false_keyboard_35_n03085013_3002.png
subject-06,1,615,0.695824861526489,bicycle,bicycle,true,0615_fc_s06_true_bicycle_35_n03792782_14262.png
subject-06,1,616,0.940688133239746,elephant,elephant,false,0616_fc_s06_false_elephant_35_n02504458_2968.png
subject-06,1,617,1.02096700668335,chair,chair,false,0617_fc_s06_false_chair_35_n04429376_4296.png
subject-06,1,618,0.665543079376221,elephant,elephant,false,0618_fc_s06_false_elephant_35_n02504013_23032.png
subject-06,1,619,0.749408006668091,oven,oven,false,0619_fc_s06_false_oven_35_n04111531_4327.png
subject-06,1,620,0.599486112594604,car,car,false,0620_fc_s06_false_car_35_n04285008_1513.png
subject-06,1,621,1.43550300598145,chair,chair,true,0621_fc_s06_true_chair_35_n02791124_4026.png
subject-06,1,622,0.56591796875,car,car,false,0622_fc_s06_false_car_35_n02814533_26406.png
subject-06,1,623,0.739490985870361,airplane,airplane,true,0623_fc_s06_true_airplane_35_n02690373_6825.png
subject-06,1,624,0.691703081130981,keyboard,keyboard,false,0624_fc_s06_false_keyboard_35_n04505470_8789.png
subject-06,1,625,0.590031862258911,chair,chair,true,0625_fc_s06_true_chair_35_n04099969_7653.png
subject-06,1,626,0.722813129425049,elephant,elephant,true,0626_fc_s06_true_elephant_35_n02504458_6199.png
subject-06,1,627,0.9375319480896,knife,knife,false,0627_fc_s06_false_knife_35_n03041632_55140.png
subject-06,1,628,0.665601015090942,airplane,airplane,false,0628_fc_s06_false_airplane_35_n02690373_1706.png
subject-06,1,629,0.825761079788208,truck,truck,true,0629_fc_s06_true_truck_35_n03417042_16370.png
subject-06,1,630,1.14615893363953,chair,dog,false,0630_fc_s06_false_dog_35_n02094433_6714.png
subject-06,1,631,0.606607913970947,bear,bear,true,0631_fc_s06_true_bear_35_n02132136_5315.png
subject-06,1,632,1.04302883148193,cat,cat,true,0632_fc_s06_true_cat_35_n02125311_9494.png
subject-06,1,633,0.803264856338501,keyboard,keyboard,false,0633_fc_s06_false_keyboard_35_n03085013_19096.png
subject-06,1,634,0.4476158618927,car,car,true,0634_fc_s06_true_car_35_n02814533_27818.png
subject-06,1,635,0.712404012680054,bird,bird,true,0635_fc_s06_true_bird_35_n01818515_15029.png
subject-06,1,636,0.680489063262939,keyboard,keyboard,true,0636_fc_s06_true_keyboard_35_n03085013_6517.png
subject-06,1,637,0.808897018432617,bird,bird,false,0637_fc_s06_false_bird_35_n02056570_6296.png
subject-06,1,638,0.553462028503418,clock,clock,false,0638_fc_s06_false_clock_35_n02708093_1124.png
subject-06,1,639,0.652159929275513,boat,boat,false,0639_fc_s06_false_boat_35_n03344393_8683.png
subject-06,1,640,0.766402959823608,car,car,true,0640_fc_s06_true_car_35_n03100240_2682.png
subject-06,1,641,0.764880895614624,chair,chair,false,0641_fc_s06_false_chair_35_n04429376_29954.png
subject-06,1,642,0.702671051025391,elephant,elephant,true,0642_fc_s06_true_elephant_35_n02504458_2026.png
subject-06,1,643,1.2915050983429,elephant,dog,true,0643_fc_s06_true_dog_35_n02105162_10803.png
subject-06,1,644,1.09985423088074,knife,knife,false,0644_fc_s06_false_knife_35_n03041632_47743.png
subject-06,1,645,0.535974025726318,car,car,true,0645_fc_s06_true_car_35_n04285008_4969.png
subject-06,1,646,0.764413118362427,chair,chair,false,0646_fc_s06_false_chair_35_n03376595_6044.png
subject-06,1,647,1.45425701141357,airplane,airplane,false,0647_fc_s06_false_airplane_35_n02690373_2611.png
subject-06,1,648,1.12881708145142,clock,clock,false,0648_fc_s06_false_clock_35_n03196217_3228.png
subject-06,1,649,0.812986135482788,airplane,airplane,true,0649_fc_s06_true_airplane_35_n02690373_2240.png
subject-06,1,650,0.795305967330933,chair,chair,true,0650_fc_s06_true_chair_35_n02791124_495.png
subject-06,1,651,0.663769960403442,cat,cat,true,0651_fc_s06_true_cat_35_n02124075_2643.png
subject-06,1,652,1.02900505065918,dog,dog,true,0652_fc_s06_true_dog_35_n02105505_2382.png
subject-06,1,653,0.857012033462524,keyboard,keyboard,true,0653_fc_s06_true_keyboard_35_n03085013_14351.png
subject-06,1,654,0.825672149658203,bicycle,bicycle,true,0654_fc_s06_true_bicycle_35_n03792782_9396.png
subject-06,1,655,1.18020582199097,bird,bear,false,0655_fc_s06_false_bear_35_n02134418_855.png
subject-06,1,656,1.11078381538391,bird,bird,true,0656_fc_s06_true_bird_35_n02037110_8227.png
subject-06,1,657,0.617036819458008,chair,chair,false,0657_fc_s06_false_chair_35_n03376595_6589.png
subject-06,1,658,0.419869899749756,keyboard,keyboard,false,0658_fc_s06_false_keyboard_35_n04505470_2737.png
subject-06,1,659,0.634357929229736,chair,chair,true,0659_fc_s06_true_chair_35_n02791124_6390.png
subject-06,1,660,0.516511917114258,oven,oven,true,0660_fc_s06_true_oven_35_n04111531_2872.png
subject-06,1,661,0.882910013198853,keyboard,clock,true,0661_fc_s06_true_clock_35_n03196217_1024.png
subject-06,1,662,0.975342988967896,keyboard,keyboard,true,0662_fc_s06_true_keyboard_35_n04505470_848.png
subject-06,1,663,0.68128490447998,bird,bird,true,0663_fc_s06_true_bird_35_n01817953_3847.png
subject-06,1,664,1.03982305526733,truck,truck,true,0664_fc_s06_true_truck_35_n03417042_29361.png
subject-06,1,665,0.807943105697632,airplane,airplane,false,0665_fc_s06_false_airplane_35_n02690373_939.png
subject-06,1,666,0.636713981628418,keyboard,keyboard,true,0666_fc_s06_true_keyboard_35_n04505470_213.png
subject-06,1,667,1.03475308418274,bear,bird,true,0667_fc_s06_true_bird_35_n01797886_12068.png
subject-06,1,668,0.832840919494629,chair,chair,false,0668_fc_s06_false_chair_35_n02791124_3598.png
subject-06,1,669,0.731273889541626,car,car,true,0669_fc_s06_true_car_35_n04285008_13759.png
subject-06,1,670,0.695956945419312,truck,truck,true,0670_fc_s06_true_truck_35_n03417042_27546.png
subject-06,1,671,0.762151002883911,bear,bear,true,0671_fc_s06_true_bear_35_n02132136_10461.png
subject-06,1,672,0.827135801315308,chair,chair,true,0672_fc_s06_true_chair_35_n04429376_5851.png
subject-06,1,673,0.49571704864502,boat,boat,true,0673_fc_s06_true_boat_35_n04273569_9677.png
subject-06,1,674,0.685807943344116,car,car,true,0674_fc_s06_true_car_35_n03100240_418.png
subject-06,1,675,0.607692003250122,car,car,false,0675_fc_s06_false_car_35_n03100240_24471.png
subject-06,1,676,0.689438819885254,keyboard,keyboard,true,0676_fc_s06_true_keyboard_35_n03085013_15597.png
subject-06,1,677,0.433798789978027,car,car,false,0677_fc_s06_false_car_35_n02814533_5230.png
subject-06,1,678,0.975594043731689,chair,chair,false,0678_fc_s06_false_chair_35_n04429376_14624.png
subject-06,1,679,1.12792301177979,clock,bird,false,0679_fc_s06_false_bird_35_n01592084_3673.png
subject-06,1,680,0.747769117355347,elephant,elephant,false,0680_fc_s06_false_elephant_35_n02504458_1998.png
subject-06,1,681,0.653984785079956,bird,bird,true,0681_fc_s06_true_bird_35_n01534433_7325.png
subject-06,1,682,0.654381036758423,bottle,bottle,true,0682_fc_s06_true_bottle_35_n04579145_3143.png
subject-06,1,683,0.790880918502808,clock,clock,false,0683_fc_s06_false_clock_35_n04548280_8348.png
subject-06,1,684,0.657140970230103,car,car,true,0684_fc_s06_true_car_35_n02814533_48107.png
subject-06,1,685,0.425130128860474,boat,boat,false,0685_fc_s06_false_boat_35_n04273569_395.png
subject-06,1,686,0.815616130828857,bicycle,bicycle,true,0686_fc_s06_true_bicycle_35_n03792782_28030.png
subject-06,1,687,0.960320949554443,car,car,true,0687_fc_s06_true_car_35_n02814533_85971.png
subject-06,1,688,1.08881211280823,bicycle,knife,false,0688_fc_s06_false_knife_35_n03041632_82197.png
subject-06,1,689,1.00278306007385,knife,knife,false,0689_fc_s06_false_knife_35_n03041632_4443.png
subject-06,1,690,0.913989067077637,dog,dog,true,0690_fc_s06_true_dog_35_n02107908_11493.png
subject-06,1,691,0.789949178695679,truck,truck,true,0691_fc_s06_true_truck_35_n03417042_29267.png
subject-06,1,692,0.664805173873901,car,car,true,0692_fc_s06_true_car_35_n04285008_2185.png
subject-06,1,693,0.501137971878052,clock,clock,false,0693_fc_s06_false_clock_35_n02708093_340.png
subject-06,1,694,0.501451969146729,oven,oven,true,0694_fc_s06_true_oven_35_n04111531_49.png
subject-06,1,695,0.689288139343262,keyboard,keyboard,false,0695_fc_s06_false_keyboard_35_n04505470_5038.png
subject-06,1,696,0.565621852874756,cat,cat,false,0696_fc_s06_false_cat_35_n02123045_12117.png
subject-06,1,697,0.862191915512085,keyboard,oven,false,0697_fc_s06_false_oven_35_n04111531_14329.png
subject-06,1,698,0.692117929458618,chair,chair,true,0698_fc_s06_true_chair_35_n03376595_8959.png
subject-06,1,699,0.695086002349854,bicycle,bicycle,true,0699_fc_s06_true_bicycle_35_n02835271_10064.png
subject-06,1,700,0.584425926208496,car,car,false,0700_fc_s06_false_car_35_n04285008_7096.png
subject-06,1,701,0.674549102783203,truck,truck,true,0701_fc_s06_true_truck_35_n03417042_7287.png
subject-06,1,702,NaN,na,elephant,false,0702_fc_s06_false_elephant_35_n02504458_6805.png
subject-06,1,703,0.567806959152222,clock,clock,false,0703_fc_s06_false_clock_35_n04548280_11828.png
subject-06,1,704,0.73658013343811,bicycle,bicycle,true,0704_fc_s06_true_bicycle_35_n02835271_15601.png
subject-06,1,705,0.707793951034546,truck,boat,true,0705_fc_s06_true_boat_35_n03662601_10278.png
subject-06,1,706,0.952051162719727,elephant,elephant,true,0706_fc_s06_true_elephant_35_n02504458_5908.png
subject-06,1,707,0.93453311920166,dog,bottle,false,0707_fc_s06_false_bottle_35_n04557648_3345.png
subject-06,1,708,0.746889114379883,boat,boat,true,0708_fc_s06_true_boat_35_n03662601_6664.png
subject-06,1,709,0.875293970108032,elephant,elephant,false,0709_fc_s06_false_elephant_35_n02504013_4444.png
subject-06,1,710,0.587200880050659,clock,clock,false,0710_fc_s06_false_clock_35_n04548280_7539.png
subject-06,1,711,0.869861841201782,dog,dog,false,0711_fc_s06_false_dog_35_n02110063_8795.png
subject-06,1,712,0.608173131942749,elephant,elephant,true,0712_fc_s06_true_elephant_35_n02504458_5029.png
subject-06,1,713,0.766630887985229,airplane,airplane,true,0713_fc_s06_true_airplane_35_n02690373_4784.png
subject-06,1,714,1.12355399131775,bear,bird,false,0714_fc_s06_false_bird_35_n01817953_6775.png
subject-06,1,715,0.997611999511719,truck,truck,true,0715_fc_s06_true_truck_35_n03417042_26437.png
subject-06,1,716,0.89852499961853,bear,bear,true,0716_fc_s06_true_bear_35_n02133161_9672.png
subject-06,1,717,0.888929128646851,elephant,elephant,false,0717_fc_s06_false_elephant_35_n02504013_8237.png
subject-06,1,718,0.803393840789795,bird,bird,false,0718_fc_s06_false_bird_35_n01531178_22534.png
subject-06,1,719,1.14541888237,truck,truck,true,0719_fc_s06_true_truck_35_n03796401_6705.png
subject-06,1,720,0.542178153991699,bear,bear,true,0720_fc_s06_true_bear_35_n02134418_254.png
subject-06,1,721,0.762547016143799,cat,keyboard,true,0721_fc_s06_true_keyboard_35_n03085013_23223.png
subject-06,1,722,1.27684688568115,cat,cat,true,0722_fc_s06_true_cat_35_n02123597_12609.png
subject-06,1,723,0.783243179321289,keyboard,keyboard,true,0723_fc_s06_true_keyboard_35_n03085013_24149.png
subject-06,1,724,0.572618961334229,bird,bird,true,0724_fc_s06_true_bird_35_n02009912_5106.png
subject-06,1,725,0.724905967712402,airplane,airplane,false,0725_fc_s06_false_airplane_35_n02690373_181.png
subject-06,1,726,0.661378145217896,knife,knife,false,0726_fc_s06_false_knife_35_n03041632_22286.png
subject-06,1,727,0.683881998062134,oven,oven,true,0727_fc_s06_true_oven_35_n04111531_5965.png
subject-06,1,728,0.62846302986145,clock,clock,true,0728_fc_s06_true_clock_35_n02708093_353.png
subject-06,1,729,1.06175208091736,bear,bear,true,0729_fc_s06_true_bear_35_n02134418_3482.png
subject-06,1,730,0.60810399055481,keyboard,keyboard,true,0730_fc_s06_true_keyboard_35_n03085013_19724.png
subject-06,1,731,0.460694074630737,boat,boat,true,0731_fc_s06_true_boat_35_n03662601_35351.png
subject-06,1,732,0.635134935379028,cat,cat,false,0732_fc_s06_false_cat_35_n02123597_12863.png
subject-06,1,733,0.611784934997559,car,car,true,0733_fc_s06_true_car_35_n02814533_54380.png
subject-06,1,734,0.547999143600464,bear,bear,false,0734_fc_s06_false_bear_35_n02132136_22190.png
subject-06,1,735,0.868281126022339,truck,truck,false,0735_fc_s06_false_truck_35_n04467665_67081.png
subject-06,1,736,1.41247701644897,keyboard,keyboard,false,0736_fc_s06_false_keyboard_35_n04505470_2446.png
subject-06,1,737,0.596951961517334,keyboard,keyboard,false,0737_fc_s06_false_keyboard_35_n04505470_912.png
subject-06,1,738,0.457509994506836,cat,cat,true,0738_fc_s06_true_cat_35_n02123159_117.png
subject-06,1,739,0.853029012680054,boat,boat,true,0739_fc_s06_true_boat_35_n03662601_19488.png
subject-06,1,740,1.04355001449585,knife,knife,true,0740_fc_s06_true_knife_35_n03041632_62810.png
subject-06,1,741,0.61946702003479,elephant,elephant,false,0741_fc_s06_false_elephant_35_n02504013_2431.png
subject-06,1,742,0.609614133834839,boat,boat,false,0742_fc_s06_false_boat_35_n03662601_34444.png
subject-06,1,743,0.891813039779663,boat,boat,false,0743_fc_s06_false_boat_35_n02951358_15229.png
subject-06,1,744,0.656592130661011,bear,bear,false,0744_fc_s06_false_bear_35_n02132136_11339.png
subject-06,1,745,0.709213018417358,airplane,airplane,true,0745_fc_s06_true_airplane_35_n02690373_7118.png
subject-06,1,746,0.921826839447021,bear,bear,true,0746_fc_s06_true_bear_35_n02134084_661.png
subject-06,1,747,1.17077994346619,chair,chair,true,0747_fc_s06_true_chair_35_n04429376_5770.png
subject-06,1,748,1.00128197669983,oven,oven,true,0748_fc_s06_true_oven_35_n04111531_11470.png
subject-06,1,749,0.516005992889404,cat,cat,false,0749_fc_s06_false_cat_35_n02125311_33933.png
subject-06,1,750,0.836277961730957,knife,knife,true,0750_fc_s06_true_knife_35_n03041632_76163.png
subject-06,1,751,0.742517948150635,cat,cat,false,0751_fc_s06_false_cat_35_n02123394_642.png
subject-06,1,752,0.508383989334106,bottle,bottle,true,0752_fc_s06_true_bottle_35_n04557648_40.png
subject-06,1,753,0.710306882858276,car,car,false,0753_fc_s06_false_car_35_n02814533_38205.png
subject-06,1,754,0.530409812927246,airplane,airplane,true,0754_fc_s06_true_airplane_35_n02690373_871.png
subject-06,1,755,0.765578031539917,bicycle,bicycle,false,0755_fc_s06_false_bicycle_35_n03792782_4321.png
subject-06,1,756,1.02389097213745,car,car,false,0756_fc_s06_false_car_35_n02814533_38308.png
subject-06,1,757,0.622396945953369,elephant,elephant,false,0757_fc_s06_false_elephant_35_n02504458_3714.png
subject-06,1,758,0.590173006057739,bicycle,bicycle,false,0758_fc_s06_false_bicycle_35_n03792782_3613.png
subject-06,1,759,0.98647403717041,bear,cat,true,0759_fc_s06_true_cat_35_n02125311_14846.png
subject-06,1,760,1.09276509284973,chair,chair,false,0760_fc_s06_false_chair_35_n02791124_643.png
subject-06,1,761,0.845088958740234,dog,dog,true,0761_fc_s06_true_dog_35_n02106662_11123.png
subject-06,1,762,0.857236862182617,airplane,airplane,false,0762_fc_s06_false_airplane_35_n02690373_3173.png
subject-06,1,763,0.779613018035889,bottle,bottle,true,0763_fc_s06_true_bottle_35_n04579145_3109.png
subject-06,1,764,1.07818293571472,elephant,elephant,true,0764_fc_s06_true_elephant_35_n02504013_1201.png
subject-06,1,765,0.692772150039673,bird,bird,false,0765_fc_s06_false_bird_35_n01798484_4780.png
subject-06,1,766,0.667236089706421,bottle,bottle,true,0766_fc_s06_true_bottle_35_n04591713_2014.png
subject-06,1,767,0.56573486328125,cat,keyboard,false,0767_fc_s06_false_keyboard_35_n03085013_26449.png
subject-06,1,768,1.11572909355164,clock,knife,false,0768_fc_s06_false_knife_35_n03041632_11186.png
subject-06,1,769,0.953865051269531,bicycle,bicycle,false,0769_fc_s06_false_bicycle_35_n02835271_5348.png
subject-06,1,770,0.520342826843262,cat,cat,true,0770_fc_s06_true_cat_35_n02123045_2843.png
subject-06,1,771,0.604840993881226,chair,chair,false,0771_fc_s06_false_chair_35_n02791124_5006.png
subject-06,1,772,0.817419052124023,keyboard,keyboard,false,0772_fc_s06_false_keyboard_35_n03085013_20837.png
subject-06,1,773,1.07782006263733,bicycle,truck,true,0773_fc_s06_true_truck_35_n03417042_2812.png
subject-06,1,774,0.562447071075439,clock,clock,true,0774_fc_s06_true_clock_35_n03196217_4541.png
subject-06,1,775,0.62049412727356,chair,chair,false,0775_fc_s06_false_chair_35_n03376595_16706.png
subject-06,1,776,0.572547912597656,car,car,true,0776_fc_s06_true_car_35_n03100240_16145.png
subject-06,1,777,0.592952013015747,keyboard,keyboard,false,0777_fc_s06_false_keyboard_35_n04505470_1236.png
subject-06,1,778,0.783247947692871,dog,dog,true,0778_fc_s06_true_dog_35_n02088364_7514.png
subject-06,1,779,0.743093967437744,chair,chair,false,0779_fc_s06_false_chair_35_n04099969_4049.png
subject-06,1,780,0.649250030517578,boat,boat,false,0780_fc_s06_false_boat_35_n04612504_7360.png
subject-06,1,781,1.37513899803162,boat,bear,true,0781_fc_s06_true_bear_35_n02133161_1990.png
subject-06,1,782,1.14867401123047,knife,knife,true,0782_fc_s06_true_knife_35_n03041632_19571.png
subject-06,1,783,0.495165109634399,bottle,bottle,true,0783_fc_s06_true_bottle_35_n03983396_1746.png
subject-06,1,784,0.736230134963989,dog,dog,true,0784_fc_s06_true_dog_35_n02108915_13237.png
subject-06,1,785,0.718063116073608,bird,bird,true,0785_fc_s06_true_bird_35_n02028035_23979.png
subject-06,1,786,0.784353017807007,car,car,true,0786_fc_s06_true_car_35_n02814533_11830.png
subject-06,1,787,0.468822002410889,boat,boat,false,0787_fc_s06_false_boat_35_n03662601_8288.png
subject-06,1,788,0.813418865203857,chair,chair,true,0788_fc_s06_true_chair_35_n04429376_24375.png
subject-06,1,789,0.771629095077515,knife,knife,false,0789_fc_s06_false_knife_35_n03041632_4269.png
subject-06,1,790,0.732161045074463,chair,chair,true,0790_fc_s06_true_chair_35_n03376595_5294.png
subject-06,1,791,0.914376020431519,dog,dog,true,0791_fc_s06_true_dog_35_n02107574_5650.png
subject-06,1,792,0.675142049789429,bear,bear,true,0792_fc_s06_true_bear_35_n02134084_3654.png
subject-06,1,793,0.672773838043213,knife,knife,false,0793_fc_s06_false_knife_35_n03041632_40652.png
subject-06,1,794,1.14467883110046,cat,cat,false,0794_fc_s06_false_cat_35_n02123159_4399.png
subject-06,1,795,0.575431823730469,bird,bird,true,0795_fc_s06_true_bird_35_n01582220_11535.png
subject-06,1,796,0.927446126937866,keyboard,keyboard,true,0796_fc_s06_true_keyboard_35_n03085013_5141.png
subject-06,1,797,0.626127958297729,airplane,airplane,true,0797_fc_s06_true_airplane_35_n02690373_2447.png
subject-06,1,798,0.724427938461304,bear,bear,false,0798_fc_s06_false_bear_35_n02134418_5156.png
subject-06,1,799,0.781414985656738,dog,dog,false,0799_fc_s06_false_dog_35_n02096051_8145.png
subject-06,1,800,0.685621023178101,elephant,elephant,true,0800_fc_s06_true_elephant_35_n02504013_1878.png
subject-06,1,801,0.550692081451416,boat,boat,true,0801_fc_s06_true_boat_35_n04612504_3899.png
subject-06,1,802,0.448822975158691,boat,boat,false,0802_fc_s06_false_boat_35_n04273569_4136.png
subject-06,1,803,0.70755410194397,bottle,bottle,true,0803_fc_s06_true_bottle_35_n03983396_5548.png
subject-06,1,804,0.559433937072754,airplane,airplane,true,0804_fc_s06_true_airplane_35_n02690373_3415.png
subject-06,1,805,0.589866161346436,airplane,airplane,true,0805_fc_s06_true_airplane_35_n02690373_599.png
subject-06,1,806,0.790565013885498,bird,bird,true,0806_fc_s06_true_bird_35_n01855672_3586.png
subject-06,1,807,0.3910231590271,clock,clock,true,0807_fc_s06_true_clock_35_n04548280_6210.png
subject-06,1,808,0.553790092468262,keyboard,keyboard,true,0808_fc_s06_true_keyboard_35_n04505470_10129.png
subject-06,1,809,0.622008085250854,cat,cat,false,0809_fc_s06_false_cat_35_n02123597_1601.png
subject-06,1,810,0.772459030151367,bear,bear,false,0810_fc_s06_false_bear_35_n02134418_149.png
subject-06,1,811,0.570940017700195,clock,clock,false,0811_fc_s06_false_clock_35_n04548280_7892.png
subject-06,1,812,0.623376846313477,car,car,false,0812_fc_s06_false_car_35_n04285008_7139.png
subject-06,1,813,0.688836097717285,oven,knife,false,0813_fc_s06_false_knife_35_n03041632_24326.png
subject-06,1,814,0.611561059951782,airplane,airplane,false,0814_fc_s06_false_airplane_35_n02690373_4213.png
subject-06,1,815,0.539968967437744,clock,clock,false,0815_fc_s06_false_clock_35_n02708093_3496.png
subject-06,1,816,0.692532062530518,knife,knife,true,0816_fc_s06_true_knife_35_n03041632_11358.png
subject-06,1,817,0.687376022338867,car,car,true,0817_fc_s06_true_car_35_n02814533_4399.png
subject-06,1,818,0.531553030014038,clock,clock,false,0818_fc_s06_false_clock_35_n02708093_906.png
subject-06,1,819,0.684076070785522,chair,chair,false,0819_fc_s06_false_chair_35_n03376595_3100.png
subject-06,1,820,0.578527927398682,oven,oven,false,0820_fc_s06_false_oven_35_n04111531_6474.png
subject-06,1,821,1.09886288642883,clock,chair,true,0821_fc_s06_true_chair_35_n04429376_21668.png
subject-06,1,822,0.567621946334839,car,car,true,0822_fc_s06_true_car_35_n03100240_932.png
subject-06,1,823,0.784098863601685,bicycle,bicycle,false,0823_fc_s06_false_bicycle_35_n02835271_20657.png
subject-06,1,824,1.35861301422119,keyboard,elephant,false,0824_fc_s06_false_elephant_35_n02504013_7070.png
subject-06,1,825,0.780945062637329,knife,knife,false,0825_fc_s06_false_knife_35_n03041632_18311.png
subject-06,1,826,1.159823179245,bear,cat,true,0826_fc_s06_true_cat_35_n02125311_24439.png
subject-06,1,827,0.598571062088013,oven,oven,false,0827_fc_s06_false_oven_35_n04111531_6851.png
subject-06,1,828,0.750371932983398,bird,bird,true,0828_fc_s06_true_bird_35_n01843065_3865.png
subject-06,1,829,0.528777122497559,keyboard,keyboard,true,0829_fc_s06_true_keyboard_35_n04505470_650.png
subject-06,1,830,0.727257013320923,bear,dog,true,0830_fc_s06_true_dog_35_n02113799_8577.png
subject-06,1,831,0.739495038986206,bird,bird,false,0831_fc_s06_false_bird_35_n01818515_1272.png
subject-06,1,832,0.653364896774292,bicycle,bicycle,true,0832_fc_s06_true_bicycle_35_n02835271_14097.png
subject-06,1,833,0.489681959152222,oven,oven,false,0833_fc_s06_false_oven_35_n04111531_1909.png
subject-06,1,834,0.693957090377808,bear,bear,true,0834_fc_s06_true_bear_35_n02134084_27229.png
subject-06,1,835,0.48321008682251,oven,oven,true,0835_fc_s06_true_oven_35_n04111531_9380.png
subject-06,1,836,0.594713926315308,keyboard,keyboard,true,0836_fc_s06_true_keyboard_35_n03085013_19504.png
subject-06,1,837,0.801160097122192,keyboard,keyboard,false,0837_fc_s06_false_keyboard_35_n03085013_8136.png
subject-06,1,838,0.659274816513062,keyboard,keyboard,true,0838_fc_s06_true_keyboard_35_n04505470_4795.png
subject-06,1,839,0.557738065719604,bear,bear,false,0839_fc_s06_false_bear_35_n02134084_1406.png
subject-06,1,840,0.694203853607178,clock,chair,false,0840_fc_s06_false_chair_35_n04429376_13448.png
subject-06,1,841,1.4746880531311,cat,knife,false,0841_fc_s06_false_knife_35_n03041632_4494.png
subject-06,1,842,0.828549861907959,boat,boat,true,0842_fc_s06_true_boat_35_n03662601_12300.png
subject-06,1,843,0.710672855377197,boat,boat,true,0843_fc_s06_true_boat_35_n03344393_8051.png
subject-06,1,844,0.581758975982666,chair,chair,false,0844_fc_s06_false_chair_35_n03376595_10579.png
subject-06,1,845,0.85811710357666,airplane,airplane,true,0845_fc_s06_true_airplane_35_n02690373_7115.png
subject-06,1,846,0.67067289352417,elephant,elephant,false,0846_fc_s06_false_elephant_35_n02504013_5837.png
subject-06,1,847,0.527908086776733,clock,clock,false,0847_fc_s06_false_clock_35_n04548280_9172.png
subject-06,1,848,0.588344097137451,bear,bear,false,0848_fc_s06_false_bear_35_n02133161_3026.png
subject-06,1,849,0.632911205291748,airplane,airplane,true,0849_fc_s06_true_airplane_35_n02690373_4591.png
subject-06,1,850,0.937317848205566,bear,bear,true,0850_fc_s06_true_bear_35_n02134418_7067.png
subject-06,1,851,0.575654983520508,airplane,airplane,true,0851_fc_s06_true_airplane_35_n02690373_12966.png
subject-06,1,852,0.703938961029053,boat,boat,false,0852_fc_s06_false_boat_35_n02951358_34786.png
subject-06,1,853,1.01527309417725,dog,dog,true,0853_fc_s06_true_dog_35_n02098105_2353.png
subject-06,1,854,0.635149955749512,clock,clock,false,0854_fc_s06_false_clock_35_n02708093_1245.png
subject-06,1,855,0.54596996307373,bicycle,bicycle,false,0855_fc_s06_false_bicycle_35_n03792782_51335.png
subject-06,1,856,0.936580896377563,elephant,elephant,true,0856_fc_s06_true_elephant_35_n02504013_4231.png
subject-06,1,857,0.450770854949951,clock,clock,true,0857_fc_s06_true_clock_35_n02708093_1360.png
subject-06,1,858,0.733155012130737,elephant,elephant,true,0858_fc_s06_true_elephant_35_n02504458_7930.png
subject-06,1,859,0.869791984558105,bottle,bottle,true,0859_fc_s06_true_bottle_35_n04560804_24142.png
subject-06,1,860,0.743953943252563,airplane,airplane,true,0860_fc_s06_true_airplane_35_n02690373_764.png
subject-06,1,861,0.839294195175171,knife,knife,true,0861_fc_s06_true_knife_35_n03041632_18141.png
subject-06,1,862,0.636653900146484,bear,bear,true,0862_fc_s06_true_bear_35_n02132136_10769.png
subject-06,1,863,0.643383026123047,cat,cat,false,0863_fc_s06_false_cat_35_n02123394_6823.png
subject-06,1,864,0.652054071426392,bear,bear,true,0864_fc_s06_true_bear_35_n02132136_282.png
subject-06,1,865,0.804455041885376,chair,chair,true,0865_fc_s06_true_chair_35_n03376595_7247.png
subject-06,1,866,1.03201580047607,dog,dog,true,0866_fc_s06_true_dog_35_n02113624_6230.png
subject-06,1,867,0.4670569896698,cat,cat,false,0867_fc_s06_false_cat_35_n02123597_7098.png
subject-06,1,868,0.657439947128296,car,car,false,0868_fc_s06_false_car_35_n04285008_15005.png
subject-06,1,869,0.899825096130371,bottle,bottle,true,0869_fc_s06_true_bottle_35_n03937543_4678.png
subject-06,1,870,0.604783058166504,bicycle,bicycle,true,0870_fc_s06_true_bicycle_35_n02835271_7096.png
subject-06,1,871,0.717157125473022,knife,knife,true,0871_fc_s06_true_knife_35_n03041632_4787.png
subject-06,1,872,0.837515830993652,truck,truck,false,0872_fc_s06_false_truck_35_n03796401_421.png
subject-06,1,873,0.986588954925537,elephant,elephant,true,0873_fc_s06_true_elephant_35_n02504013_6407.png
subject-06,1,874,1.22253584861755,dog,dog,false,0874_fc_s06_false_dog_35_n02098286_3528.png
subject-06,1,875,0.820477962493896,oven,oven,true,0875_fc_s06_true_oven_35_n04111531_1165.png
subject-06,1,876,0.688549995422363,airplane,airplane,false,0876_fc_s06_false_airplane_35_n02690373_8527.png
subject-06,1,877,0.533085107803345,keyboard,keyboard,false,0877_fc_s06_false_keyboard_35_n04505470_10668.png
subject-06,1,878,0.685404062271118,oven,oven,false,0878_fc_s06_false_oven_35_n04111531_14269.png
subject-06,1,879,0.496201038360596,cat,cat,false,0879_fc_s06_false_cat_35_n02123159_5908.png
subject-06,1,880,0.632404088973999,cat,cat,true,0880_fc_s06_true_cat_35_n02123045_7174.png
subject-06,1,881,0.569392919540405,cat,cat,true,0881_fc_s06_true_cat_35_n02123045_7501.png
subject-06,1,882,0.710330009460449,bear,bear,false,0882_fc_s06_false_bear_35_n02132136_38.png
subject-06,1,883,0.516572952270508,boat,boat,false,0883_fc_s06_false_boat_35_n04612504_16783.png
subject-06,1,884,1.32306814193726,car,car,false,0884_fc_s06_false_car_35_n03100240_3214.png
subject-06,1,885,0.836874008178711,airplane,airplane,false,0885_fc_s06_false_airplane_35_n02690373_10044.png
subject-06,1,886,0.979145050048828,knife,knife,true,0886_fc_s06_true_knife_35_n03041632_27134.png
subject-06,1,887,0.839531898498535,keyboard,keyboard,true,0887_fc_s06_true_keyboard_35_n03085013_7382.png
subject-06,1,888,0.929527044296265,keyboard,bottle,false,0888_fc_s06_false_bottle_35_n03937543_7501.png
subject-06,1,889,0.765471935272217,bird,bird,true,0889_fc_s06_true_bird_35_n01534433_1267.png
subject-06,1,890,1.30778312683105,bear,cat,false,0890_fc_s06_false_cat_35_n02123159_2485.png
subject-06,1,891,0.842054128646851,clock,clock,false,0891_fc_s06_false_clock_35_n04548280_4839.png
subject-06,1,892,0.478404998779297,clock,clock,true,0892_fc_s06_true_clock_35_n03196217_7816.png
subject-06,1,893,1.09088587760925,oven,oven,true,0893_fc_s06_true_oven_35_n04111531_21911.png
subject-06,1,894,0.613116979598999,boat,boat,true,0894_fc_s06_true_boat_35_n02951358_7089.png
subject-06,1,895,1.13358116149902,bear,cat,false,0895_fc_s06_false_cat_35_n02125311_47792.png
subject-06,1,896,0.63083291053772,bear,dog,true,0896_fc_s06_true_dog_35_n02099429_2509.png
subject-06,1,897,0.720871925354004,truck,truck,true,0897_fc_s06_true_truck_35_n03796401_25113.png
subject-06,1,898,0.603129863739014,keyboard,keyboard,true,0898_fc_s06_true_keyboard_35_n03085013_15484.png
subject-06,1,899,0.593796014785767,airplane,airplane,true,0899_fc_s06_true_airplane_35_n02690373_20996.png
subject-06,1,900,0.70042610168457,keyboard,keyboard,false,0900_fc_s06_false_keyboard_35_n04505470_10697.png
subject-06,1,901,0.95063304901123,dog,dog,true,0901_fc_s06_true_dog_35_n02105056_187.png
subject-06,1,902,0.634723901748657,bear,bear,true,0902_fc_s06_true_bear_35_n02134418_603.png
subject-06,1,903,0.554559946060181,keyboard,keyboard,false,0903_fc_s06_false_keyboard_35_n04505470_2156.png
subject-06,1,904,0.628956079483032,car,car,true,0904_fc_s06_true_car_35_n04285008_3630.png
subject-06,1,905,0.740826845169067,elephant,elephant,true,0905_fc_s06_true_elephant_35_n02504013_6141.png
subject-06,1,906,0.755355834960938,truck,truck,false,0906_fc_s06_false_truck_35_n03417042_2633.png
subject-06,1,907,0.629727840423584,chair,chair,true,0907_fc_s06_true_chair_35_n04099969_3900.png
subject-06,1,908,0.610805988311768,oven,oven,false,0908_fc_s06_false_oven_35_n04111531_11749.png
subject-06,1,909,0.639178991317749,cat,cat,false,0909_fc_s06_false_cat_35_n02123045_12211.png
subject-06,1,910,0.653634071350098,bicycle,bicycle,false,0910_fc_s06_false_bicycle_35_n02835271_608.png
subject-06,1,911,1.01949191093445,knife,knife,true,0911_fc_s06_true_knife_35_n03041632_7119.png
subject-06,1,912,0.609640121459961,bottle,bottle,false,0912_fc_s06_false_bottle_35_n04591713_2694.png
subject-06,1,913,0.670444965362549,bear,bear,true,0913_fc_s06_true_bear_35_n02133161_3232.png
subject-06,1,914,0.799247980117798,chair,chair,true,0914_fc_s06_true_chair_35_n04429376_21846.png
subject-06,1,915,0.566898107528687,truck,truck,false,0915_fc_s06_false_truck_35_n03417042_17726.png
subject-06,1,916,0.532532930374146,clock,clock,true,0916_fc_s06_true_clock_35_n02708093_3213.png
subject-06,1,917,0.568589925765991,cat,cat,false,0917_fc_s06_false_cat_35_n02124075_12449.png
subject-06,1,918,1.50000715255737,chair,clock,false,0918_fc_s06_false_clock_35_n04548280_286.png
subject-06,1,919,0.645523071289062,bear,bear,false,0919_fc_s06_false_bear_35_n02134418_4908.png
subject-06,1,920,1.06591892242432,knife,chair,false,0920_fc_s06_false_chair_35_n03376595_2056.png
subject-06,1,921,0.609847068786621,chair,chair,false,0921_fc_s06_false_chair_35_n04099969_3243.png
subject-06,1,922,0.628308057785034,truck,truck,false,0922_fc_s06_false_truck_35_n04467665_44771.png
subject-06,1,923,0.540032863616943,chair,chair,true,0923_fc_s06_true_chair_35_n04099969_2020.png
subject-06,1,924,0.822443008422852,chair,dog,false,0924_fc_s06_false_dog_35_n02094258_4766.png
subject-06,1,925,1.10929298400879,dog,dog,false,0925_fc_s06_false_dog_35_n02108551_9793.png
subject-06,1,926,0.609596967697144,truck,truck,false,0926_fc_s06_false_truck_35_n04467665_28287.png
subject-06,1,927,0.492171049118042,chair,chair,false,0927_fc_s06_false_chair_35_n03376595_1418.png
subject-06,1,928,0.670955896377563,boat,boat,true,0928_fc_s06_true_boat_35_n04612504_33307.png
subject-06,1,929,0.799268960952759,chair,chair,false,0929_fc_s06_false_chair_35_n04099969_16556.png
subject-06,1,930,0.613981962203979,bicycle,bicycle,true,0930_fc_s06_true_bicycle_35_n03792782_11621.png
subject-06,1,931,0.787110805511475,chair,chair,true,0931_fc_s06_true_chair_35_n04429376_5542.png
subject-06,1,932,0.647645950317383,truck,truck,true,0932_fc_s06_true_truck_35_n03796401_6841.png
subject-06,1,933,1.2897641658783,chair,boat,false,0933_fc_s06_false_boat_35_n02951358_15295.png
subject-06,1,934,0.641972064971924,bird,bird,true,0934_fc_s06_true_bird_35_n02033041_3196.png
subject-06,1,935,0.931885004043579,chair,knife,false,0935_fc_s06_false_knife_35_n03041632_32459.png
subject-06,1,936,0.661978960037231,bird,bird,true,0936_fc_s06_true_bird_35_n01828970_4715.png
subject-06,1,937,0.63306188583374,bear,bear,false,0937_fc_s06_false_bear_35_n02132136_15581.png
subject-06,1,938,0.639532089233398,bicycle,bicycle,false,0938_fc_s06_false_bicycle_35_n03792782_11493.png
subject-06,1,939,0.813711881637573,airplane,airplane,true,0939_fc_s06_true_airplane_35_n02690373_7239.png
subject-06,1,940,0.68643593788147,bird,bird,true,0940_fc_s06_true_bird_35_n01534433_906.png
subject-06,1,941,0.592879056930542,cat,cat,false,0941_fc_s06_false_cat_35_n02124075_11262.png
subject-06,1,942,0.683272123336792,airplane,airplane,false,0942_fc_s06_false_airplane_35_n02690373_4024.png
subject-06,1,943,0.7867271900177,bottle,bottle,true,0943_fc_s06_true_bottle_35_n02823428_1407.png
subject-06,1,944,0.736589908599854,airplane,airplane,false,0944_fc_s06_false_airplane_35_n02690373_9869.png
subject-06,1,945,0.659252882003784,knife,knife,false,0945_fc_s06_false_knife_35_n03041632_7090.png
subject-06,1,946,0.85918402671814,elephant,elephant,false,0946_fc_s06_false_elephant_35_n02504458_8477.png
subject-06,1,947,1.06581211090088,dog,dog,false,0947_fc_s06_false_dog_35_n02105855_12864.png
subject-06,1,948,0.618346929550171,airplane,airplane,false,0948_fc_s06_false_airplane_35_n02690373_1592.png
subject-06,1,949,0.784872055053711,bird,bird,false,0949_fc_s06_false_bird_35_n02051845_375.png
subject-06,1,950,0.536827087402344,bear,bear,true,0950_fc_s06_true_bear_35_n02132136_2463.png
subject-06,1,951,0.849297046661377,chair,oven,false,0951_fc_s06_false_oven_35_n04111531_3121.png
subject-06,1,952,0.746423959732056,dog,dog,false,0952_fc_s06_false_dog_35_n02106030_15220.png
subject-06,1,953,0.61300802230835,bottle,bottle,true,0953_fc_s06_true_bottle_35_n02823428_46.png
subject-06,1,954,0.780855178833008,boat,boat,false,0954_fc_s06_false_boat_35_n02951358_3773.png
subject-06,1,955,0.625137090682983,airplane,airplane,true,0955_fc_s06_true_airplane_35_n02690373_18304.png
subject-06,1,956,0.599396228790283,bird,bird,true,0956_fc_s06_true_bird_35_n01855032_2449.png
subject-06,1,957,0.514039993286133,clock,clock,true,0957_fc_s06_true_clock_35_n02708093_7827.png
subject-06,1,958,0.796469926834106,airplane,airplane,false,0958_fc_s06_false_airplane_35_n02690373_2584.png
subject-06,1,959,1.07081007957458,keyboard,clock,false,0959_fc_s06_false_clock_35_n03196217_1163.png
subject-06,1,960,0.501361846923828,airplane,airplane,false,0960_fc_s06_false_airplane_35_n02690373_17603.png
subject-06,1,961,0.634687900543213,cat,cat,true,0961_fc_s06_true_cat_35_n02125311_8745.png
subject-06,1,962,0.673125982284546,chair,chair,true,0962_fc_s06_true_chair_35_n03376595_16121.png
subject-06,1,963,0.752126932144165,truck,truck,false,0963_fc_s06_false_truck_35_n03417042_3107.png
subject-06,1,964,0.82622504234314,elephant,elephant,false,0964_fc_s06_false_elephant_35_n02504013_2149.png
subject-06,1,965,0.886827945709229,keyboard,keyboard,true,0965_fc_s06_true_keyboard_35_n03085013_23635.png
subject-06,1,966,1.14504599571228,clock,clock,false,0966_fc_s06_false_clock_35_n04548280_11056.png
subject-06,1,967,0.751368999481201,cat,cat,true,0967_fc_s06_true_cat_35_n02123159_2593.png
subject-06,1,968,0.787658929824829,bird,bird,true,0968_fc_s06_true_bird_35_n01532829_4571.png
subject-06,1,969,0.690544128417969,bird,bird,false,0969_fc_s06_false_bird_35_n02002556_9664.png
subject-06,1,970,0.726713895797729,cat,cat,false,0970_fc_s06_false_cat_35_n02123394_7070.png
subject-06,1,971,0.654760122299194,airplane,airplane,true,0971_fc_s06_true_airplane_35_n02690373_15472.png
subject-06,1,972,0.58116602897644,clock,clock,true,0972_fc_s06_true_clock_35_n04548280_8795.png
subject-06,1,973,0.77133584022522,dog,dog,false,0973_fc_s06_false_dog_35_n02102040_626.png
subject-06,1,974,0.475618839263916,oven,oven,true,0974_fc_s06_true_oven_35_n04111531_15683.png
subject-06,1,975,0.749619960784912,chair,chair,true,0975_fc_s06_true_chair_35_n02791124_3531.png
subject-06,1,976,0.709962844848633,bicycle,bicycle,false,0976_fc_s06_false_bicycle_35_n03792782_3338.png
subject-06,1,977,0.8541579246521,truck,truck,false,0977_fc_s06_false_truck_35_n04467665_14623.png
subject-06,1,978,0.690696954727173,keyboard,keyboard,true,0978_fc_s06_true_keyboard_35_n04505470_876.png
subject-06,1,979,0.605515003204346,dog,dog,true,0979_fc_s06_true_dog_35_n02092002_2294.png
subject-06,1,980,1.00164890289307,keyboard,keyboard,false,0980_fc_s06_false_keyboard_35_n03085013_20661.png
subject-06,1,981,0.846193075180054,bird,bird,false,0981_fc_s06_false_bird_35_n01824575_9812.png
subject-06,1,982,0.644912958145142,chair,chair,true,0982_fc_s06_true_chair_35_n04429376_49840.png
subject-06,1,983,0.675242900848389,airplane,airplane,false,0983_fc_s06_false_airplane_35_n02690373_13609.png
subject-06,1,984,0.691980123519897,airplane,airplane,true,0984_fc_s06_true_airplane_35_n02690373_7311.png
subject-06,1,985,0.498398065567017,airplane,airplane,true,0985_fc_s06_true_airplane_35_n02690373_2155.png
subject-06,1,986,0.559051036834717,bicycle,bicycle,false,0986_fc_s06_false_bicycle_35_n03792782_11350.png
subject-06,1,987,0.573516130447388,airplane,airplane,false,0987_fc_s06_false_airplane_35_n02690373_15411.png
subject-06,1,988,0.656126976013184,dog,dog,true,0988_fc_s06_true_dog_35_n02109525_14665.png
subject-06,1,989,0.592786073684692,bottle,bottle,false,0989_fc_s06_false_bottle_35_n04557648_1271.png
subject-06,1,990,0.79101300239563,airplane,airplane,true,0990_fc_s06_true_airplane_35_n02690373_7735.png
subject-06,1,991,0.643783092498779,boat,boat,false,0991_fc_s06_false_boat_35_n04612504_27085.png
subject-06,1,992,0.872052907943726,elephant,elephant,false,0992_fc_s06_false_elephant_35_n02504013_4531.png
subject-06,1,993,0.515301942825317,boat,boat,false,0993_fc_s06_false_boat_35_n03662601_17651.png
subject-06,1,994,0.581655025482178,bicycle,bicycle,true,0994_fc_s06_true_bicycle_35_n02835271_9503.png
subject-06,1,995,0.656369924545288,oven,oven,true,0995_fc_s06_true_oven_35_n04111531_5110.png
subject-06,1,996,0.997488975524902,bear,truck,true,0996_fc_s06_true_truck_35_n03417042_10584.png
subject-06,1,997,0.635966062545776,knife,knife,true,0997_fc_s06_true_knife_35_n03041632_52040.png
subject-06,1,998,0.701689958572388,clock,clock,false,0998_fc_s06_false_clock_35_n04548280_8390.png
subject-06,1,999,0.992469072341919,car,truck,false,0999_fc_s06_false_truck_35_n03417042_27988.png
subject-06,1,1000,0.660804986953735,bottle,bottle,false,1000_fc_s06_false_bottle_35_n04591713_7385.png
subject-06,1,1001,0.780862092971802,bear,bear,false,1001_fc_s06_false_bear_35_n02132136_2815.png
subject-06,1,1002,0.683516025543213,elephant,elephant,false,1002_fc_s06_false_elephant_35_n02504458_4967.png
subject-06,1,1003,0.774175882339478,bicycle,bicycle,true,1003_fc_s06_true_bicycle_35_n03792782_13051.png
subject-06,1,1004,0.870461940765381,dog,dog,false,1004_fc_s06_false_dog_35_n02090622_10714.png
subject-06,1,1005,0.543025016784668,oven,oven,true,1005_fc_s06_true_oven_35_n04111531_21173.png
subject-06,1,1006,0.671368837356567,bird,bird,false,1006_fc_s06_false_bird_35_n01560419_14927.png
subject-06,1,1007,0.577475070953369,bird,bird,false,1007_fc_s06_false_bird_35_n01855032_8088.png
subject-06,1,1008,0.680520057678223,chair,chair,true,1008_fc_s06_true_chair_35_n03376595_11346.png
subject-06,1,1009,0.877288818359375,elephant,elephant,true,1009_fc_s06_true_elephant_35_n02504458_2442.png
subject-06,1,1010,0.577452898025513,boat,boat,false,1010_fc_s06_false_boat_35_n04273569_5426.png
subject-06,1,1011,0.610805988311768,elephant,elephant,true,1011_fc_s06_true_elephant_35_n02504458_3616.png
subject-06,1,1012,0.908667087554932,elephant,elephant,true,1012_fc_s06_true_elephant_35_n02504013_6078.png
subject-06,1,1013,0.604913949966431,clock,clock,true,1013_fc_s06_true_clock_35_n04548280_10971.png
subject-06,1,1014,0.749566078186035,boat,knife,true,1014_fc_s06_true_knife_35_n03041632_9635.png
subject-06,1,1015,0.923929929733276,elephant,truck,true,1015_fc_s06_true_truck_35_n03417042_12300.png
subject-06,1,1016,1.02170395851135,dog,dog,true,1016_fc_s06_true_dog_35_n02097130_3156.png
subject-06,1,1017,0.502763032913208,chair,chair,true,1017_fc_s06_true_chair_35_n03376595_14756.png
