subj,session,trial,rt,object_response,category,condition,imagename
subject-05,1,1,0.612639188766479,cat,car,40,0001_lp_s05_40_car_10_n03100240_21073.png
subject-05,1,2,0.867173194885254,boat,boat,15,0002_lp_s05_15_boat_10_n02951358_13352.png
subject-05,1,3,0.929667949676514,airplane,truck,0,0003_lp_s05_0_truck_10_n04467665_29863.png
subject-05,1,4,0.768328905105591,boat,boat,7,0004_lp_s05_7_boat_10_n04612504_1099.png
subject-05,1,5,0.5986008644104,elephant,elephant,0,0005_lp_s05_0_elephant_10_n02504013_7005.png
subject-05,1,6,0.699350118637085,car,bear,15,0006_lp_s05_15_bear_10_n02133161_11637.png
subject-05,1,7,0.728837013244629,bird,truck,40,0007_lp_s05_40_truck_10_n03417042_11511.png
subject-05,1,8,0.7295081615448,car,cat,10,0008_lp_s05_10_cat_10_n02124075_15123.png
subject-05,1,9,1.38953995704651,dog,elephant,3,0009_lp_s05_3_elephant_10_n02504013_2640.png
subject-05,1,10,0.976152896881104,clock,cat,40,0010_lp_s05_40_cat_10_n02123045_3168.png
subject-05,1,11,0.676488161087036,knife,knife,1,0011_lp_s05_1_knife_10_n03041632_33075.png
subject-05,1,12,1.01409697532654,cat,cat,0,0012_lp_s05_0_cat_10_n02123597_14094.png
subject-05,1,13,0.836199998855591,car,cat,7,0013_lp_s05_7_cat_10_n02123045_4009.png
subject-05,1,14,0.712382793426514,boat,bird,10,0014_lp_s05_10_bird_10_n01796340_1266.png
subject-05,1,15,0.76692008972168,boat,airplane,40,0015_lp_s05_40_airplane_10_n02690373_10176.png
subject-05,1,16,1.18959784507751,car,car,5,0016_lp_s05_5_car_10_n04285008_2790.png
subject-05,1,17,0.827828168869019,car,car,0,0017_lp_s05_0_car_10_n04285008_13267.png
subject-05,1,18,1.4902400970459,cat,chair,10,0018_lp_s05_10_chair_10_n03376595_4084.png
subject-05,1,19,0.649940967559814,bear,bear,0,0019_lp_s05_0_bear_10_n02133161_991.png
subject-05,1,20,1.06627702713013,keyboard,clock,7,0020_lp_s05_7_clock_10_n04548280_1190.png
subject-05,1,21,0.666889905929565,oven,bottle,40,0021_lp_s05_40_bottle_10_n04557648_9222.png
subject-05,1,22,0.797411918640137,car,car,40,0022_lp_s05_40_car_10_n02814533_10701.png
subject-05,1,23,0.676116943359375,chair,chair,1,0023_lp_s05_1_chair_10_n02791124_5079.png
subject-05,1,24,1.46654391288757,airplane,airplane,5,0024_lp_s05_5_airplane_10_n02690373_3553.png
subject-05,1,25,0.87468409538269,car,knife,40,0025_lp_s05_40_knife_10_n03041632_26314.png
subject-05,1,26,1.07492303848267,bottle,bottle,15,0026_lp_s05_15_bottle_10_n03983396_13391.png
subject-05,1,27,1.23522996902466,oven,elephant,10,0027_lp_s05_10_elephant_10_n02504013_9393.png
subject-05,1,28,0.689877033233643,boat,bird,5,0028_lp_s05_5_bird_10_n02009912_29971.png
subject-05,1,29,0.960177898406982,airplane,knife,3,0029_lp_s05_3_knife_10_n03041632_22570.png
subject-05,1,30,0.89568305015564,car,car,0,0030_lp_s05_0_car_10_n02814533_92940.png
subject-05,1,31,0.933881998062134,truck,truck,7,0031_lp_s05_7_truck_10_n03417042_234.png
subject-05,1,32,0.671786069869995,truck,truck,0,0032_lp_s05_0_truck_10_n04467665_67927.png
subject-05,1,33,1.19334101676941,clock,chair,0,0033_lp_s05_0_chair_10_n04429376_57621.png
subject-05,1,34,0.845152139663696,bottle,bottle,0,0034_lp_s05_0_bottle_10_n03937543_7554.png
subject-05,1,35,0.777767896652222,bicycle,bicycle,0,0035_lp_s05_0_bicycle_10_n03792782_34550.png
subject-05,1,36,NaN,na,chair,7,0036_lp_s05_7_chair_10_n04099969_3733.png
subject-05,1,37,0.699877977371216,car,car,3,0037_lp_s05_3_car_10_n04285008_8080.png
subject-05,1,38,0.776357889175415,boat,elephant,7,0038_lp_s05_7_elephant_10_n02504013_7674.png
subject-05,1,39,0.836791038513184,truck,truck,5,0039_lp_s05_5_truck_10_n03796401_7431.png
subject-05,1,40,1.17512106895447,car,boat,10,0040_lp_s05_10_boat_10_n04612504_3003.png
subject-05,1,41,0.675347089767456,elephant,elephant,5,0041_lp_s05_5_elephant_10_n02504458_2716.png
subject-05,1,42,0.680683135986328,cat,keyboard,40,0042_lp_s05_40_keyboard_10_n03085013_14411.png
subject-05,1,43,0.995021820068359,car,car,5,0043_lp_s05_5_car_10_n02814533_9530.png
subject-05,1,44,0.657438993453979,car,car,5,0044_lp_s05_5_car_10_n02814533_11155.png
subject-05,1,45,0.725409030914307,bird,bird,3,0045_lp_s05_3_bird_10_n01820546_6762.png
subject-05,1,46,0.601176023483276,boat,boat,7,0046_lp_s05_7_boat_10_n02951358_32698.png
subject-05,1,47,1.07763314247131,truck,bird,40,0047_lp_s05_40_bird_10_n01796340_9197.png
subject-05,1,48,0.953795909881592,bird,bear,15,0048_lp_s05_15_bear_10_n02134418_4646.png
subject-05,1,49,0.516508102416992,oven,oven,0,0049_lp_s05_0_oven_10_n04111531_1970.png
subject-05,1,50,0.887091875076294,boat,airplane,40,0050_lp_s05_40_airplane_10_n02690373_1229.png
subject-05,1,51,0.738498210906982,clock,clock,5,0051_lp_s05_5_clock_10_n04548280_5268.png
subject-05,1,52,0.960760831832886,car,dog,15,0052_lp_s05_15_dog_10_n02107574_3360.png
subject-05,1,53,1.0452721118927,bird,bicycle,40,0053_lp_s05_40_bicycle_10_n03792782_26289.png
subject-05,1,54,1.12096118927002,keyboard,keyboard,7,0054_lp_s05_7_keyboard_10_n03085013_15887.png
subject-05,1,55,0.905465126037598,car,car,0,0055_lp_s05_0_car_10_n03100240_16210.png
subject-05,1,56,0.851656198501587,bottle,bottle,0,0056_lp_s05_0_bottle_10_n03983396_12030.png
subject-05,1,57,1.05838489532471,airplane,airplane,0,0057_lp_s05_0_airplane_10_n02690373_3407.png
subject-05,1,58,1.08060598373413,dog,dog,3,0058_lp_s05_3_dog_10_n02086240_6898.png
subject-05,1,59,0.767286062240601,airplane,airplane,0,0059_lp_s05_0_airplane_10_n02690373_7740.png
subject-05,1,60,0.848317861557007,truck,truck,3,0060_lp_s05_3_truck_10_n04467665_41861.png
subject-05,1,61,1.18661308288574,truck,truck,5,0061_lp_s05_5_truck_10_n03417042_1280.png
subject-05,1,62,1.10907006263733,car,bottle,3,0062_lp_s05_3_bottle_10_n04591713_78.png
subject-05,1,63,0.863619804382324,bird,bird,0,0063_lp_s05_0_bird_10_n01843065_1742.png
subject-05,1,64,0.861965894699097,airplane,airplane,3,0064_lp_s05_3_airplane_10_n02690373_9293.png
subject-05,1,65,0.908615827560425,cat,cat,0,0065_lp_s05_0_cat_10_n02123394_6114.png
subject-05,1,66,0.654986143112183,truck,truck,0,0066_lp_s05_0_truck_10_n03417042_4357.png
subject-05,1,67,0.753069877624512,bird,bird,1,0067_lp_s05_1_bird_10_n02025239_5887.png
subject-05,1,68,0.722946166992188,bear,bear,7,0068_lp_s05_7_bear_10_n02133161_1356.png
subject-05,1,69,0.683741092681885,clock,clock,0,0069_lp_s05_0_clock_10_n04548280_8510.png
subject-05,1,70,0.806217908859253,car,car,0,0070_lp_s05_0_car_10_n04285008_3911.png
subject-05,1,71,0.744311809539795,boat,truck,40,0071_lp_s05_40_truck_10_n03417042_12013.png
subject-05,1,72,0.898200035095215,bottle,bottle,5,0072_lp_s05_5_bottle_10_n04579145_2949.png
subject-05,1,73,0.796643018722534,cat,keyboard,40,0073_lp_s05_40_keyboard_10_n03085013_15576.png
subject-05,1,74,0.920955181121826,airplane,car,7,0074_lp_s05_7_car_10_n02814533_76.png
subject-05,1,75,0.757170915603638,car,bird,15,0075_lp_s05_15_bird_10_n01819313_16740.png
subject-05,1,76,0.811224937438965,bicycle,bicycle,1,0076_lp_s05_1_bicycle_10_n03792782_6146.png
subject-05,1,77,0.825686931610107,bear,knife,1,0077_lp_s05_1_knife_10_n03041632_47703.png
subject-05,1,78,0.971899032592773,oven,chair,7,0078_lp_s05_7_chair_10_n04429376_39889.png
subject-05,1,79,0.799817085266113,dog,dog,0,0079_lp_s05_0_dog_10_n02086910_2881.png
subject-05,1,80,1.4304358959198,bear,bear,1,0080_lp_s05_1_bear_10_n02133161_15585.png
subject-05,1,81,0.800311803817749,boat,boat,3,0081_lp_s05_3_boat_10_n03662601_11104.png
subject-05,1,82,1.04455304145813,clock,airplane,40,0082_lp_s05_40_airplane_10_n02690373_3827.png
subject-05,1,83,0.990962028503418,knife,knife,0,0083_lp_s05_0_knife_10_n03041632_8051.png
subject-05,1,84,0.721184015274048,elephant,elephant,0,0084_lp_s05_0_elephant_10_n02504013_4218.png
subject-05,1,85,0.743988990783691,truck,truck,0,0085_lp_s05_0_truck_10_n03417042_5335.png
subject-05,1,86,0.873955965042114,bicycle,bicycle,1,0086_lp_s05_1_bicycle_10_n02835271_17509.png
subject-05,1,87,1.12041592597961,truck,bottle,5,0087_lp_s05_5_bottle_10_n04557648_32506.png
subject-05,1,88,0.872919082641602,car,car,0,0088_lp_s05_0_car_10_n04285008_962.png
subject-05,1,89,0.889373064041138,bird,bottle,15,0089_lp_s05_15_bottle_10_n04560804_4909.png
subject-05,1,90,1.34210109710693,cat,dog,40,0090_lp_s05_40_dog_10_n02099601_2541.png
subject-05,1,91,1.31243920326233,car,car,10,0091_lp_s05_10_car_10_n02814533_26180.png
subject-05,1,92,0.964058876037598,cat,cat,3,0092_lp_s05_3_cat_10_n02125311_45653.png
subject-05,1,93,0.84818696975708,car,car,5,0093_lp_s05_5_car_10_n04285008_15006.png
subject-05,1,94,0.856970071792603,bottle,bottle,7,0094_lp_s05_7_bottle_10_n04557648_1335.png
subject-05,1,95,0.893378973007202,boat,airplane,10,0095_lp_s05_10_airplane_10_n02690373_1663.png
subject-05,1,96,1.08585786819458,cat,cat,10,0096_lp_s05_10_cat_10_n02123394_28.png
subject-05,1,97,1.32420015335083,airplane,elephant,40,0097_lp_s05_40_elephant_10_n02504458_5320.png
subject-05,1,98,1.50030493736267,bird,cat,15,0098_lp_s05_15_cat_10_n02123159_10815.png
subject-05,1,99,1.06008195877075,cat,oven,5,0099_lp_s05_5_oven_10_n04111531_13486.png
subject-05,1,100,1.09842205047607,dog,bear,5,0100_lp_s05_5_bear_10_n02133161_2993.png
subject-05,1,101,0.977091073989868,car,truck,0,0101_lp_s05_0_truck_10_n03796401_5035.png
subject-05,1,102,1.33740401268005,clock,bird,15,0102_lp_s05_15_bird_10_n01819313_4618.png
subject-05,1,103,1.18979501724243,bear,bicycle,15,0103_lp_s05_15_bicycle_10_n02835271_3874.png
subject-05,1,104,1.11907601356506,chair,chair,0,0104_lp_s05_0_chair_10_n04099969_42972.png
subject-05,1,105,1.25762104988098,truck,chair,5,0105_lp_s05_5_chair_10_n04099969_24235.png
subject-05,1,106,1.32593321800232,car,knife,15,0106_lp_s05_15_knife_10_n03041632_33326.png
subject-05,1,107,1.38665699958801,airplane,airplane,3,0107_lp_s05_3_airplane_10_n02690373_2733.png
subject-05,1,108,0.786960124969482,chair,chair,10,0108_lp_s05_10_chair_10_n03376595_9527.png
subject-05,1,109,0.962085008621216,boat,keyboard,40,0109_lp_s05_40_keyboard_10_n03085013_7971.png
subject-05,1,110,0.73853611946106,cat,oven,40,0110_lp_s05_40_oven_10_n04111531_10884.png
subject-05,1,111,0.987076044082642,boat,bear,5,0111_lp_s05_5_bear_10_n02134418_2411.png
subject-05,1,112,0.777360916137695,knife,knife,0,0112_lp_s05_0_knife_10_n03041632_14883.png
subject-05,1,113,0.945832967758179,elephant,elephant,0,0113_lp_s05_0_elephant_10_n02504458_6281.png
subject-05,1,114,0.646556854248047,clock,clock,1,0114_lp_s05_1_clock_10_n02708093_2196.png
subject-05,1,115,NaN,na,bird,5,0115_lp_s05_5_bird_10_n01530575_34294.png
subject-05,1,116,0.706644773483276,airplane,airplane,7,0116_lp_s05_7_airplane_10_n02690373_2025.png
subject-05,1,117,0.742563962936401,boat,boat,0,0117_lp_s05_0_boat_10_n02951358_4443.png
subject-05,1,118,1.32743191719055,boat,bicycle,0,0118_lp_s05_0_bicycle_10_n02835271_5844.png
subject-05,1,119,0.68163013458252,bear,bear,1,0119_lp_s05_1_bear_10_n02133161_13375.png
subject-05,1,120,0.803930997848511,boat,cat,1,0120_lp_s05_1_cat_10_n02123159_7239.png
subject-05,1,121,0.74188494682312,keyboard,keyboard,0,0121_lp_s05_0_keyboard_10_n04505470_2048.png
subject-05,1,122,0.916306018829346,bear,bear,7,0122_lp_s05_7_bear_10_n02134418_4291.png
subject-05,1,123,0.970574855804443,car,knife,40,0123_lp_s05_40_knife_10_n03041632_51581.png
subject-05,1,124,1.07718420028687,bottle,bottle,1,0124_lp_s05_1_bottle_10_n03983396_1102.png
subject-05,1,125,0.823371887207031,oven,clock,7,0125_lp_s05_7_clock_10_n02708093_4391.png
subject-05,1,126,0.975722074508667,cat,cat,3,0126_lp_s05_3_cat_10_n02123159_6590.png
subject-05,1,127,0.813759088516235,car,airplane,10,0127_lp_s05_10_airplane_10_n02690373_3054.png
subject-05,1,128,1.2120988368988,keyboard,oven,5,0128_lp_s05_5_oven_10_n04111531_2213.png
subject-05,1,129,1.40436506271362,chair,bottle,5,0129_lp_s05_5_bottle_10_n04579145_1443.png
subject-05,1,130,0.766777038574219,bottle,bottle,7,0130_lp_s05_7_bottle_10_n04557648_3501.png
subject-05,1,131,1.30296182632446,bird,chair,15,0131_lp_s05_15_chair_10_n04099969_13796.png
subject-05,1,132,NaN,na,bear,10,0132_lp_s05_10_bear_10_n02134084_3500.png
subject-05,1,133,0.871379852294922,boat,airplane,40,0133_lp_s05_40_airplane_10_n02690373_2379.png
subject-05,1,134,0.701373100280762,keyboard,keyboard,0,0134_lp_s05_0_keyboard_10_n04505470_6864.png
subject-05,1,135,1.17775201797485,chair,chair,0,0135_lp_s05_0_chair_10_n02791124_5868.png
subject-05,1,136,0.922168016433716,car,car,0,0136_lp_s05_0_car_10_n02814533_42123.png
subject-05,1,137,0.784714937210083,cat,airplane,40,0137_lp_s05_40_airplane_10_n02690373_8524.png
subject-05,1,138,0.899098873138428,bear,elephant,7,0138_lp_s05_7_elephant_10_n02504458_2339.png
subject-05,1,139,0.590487957000732,chair,bicycle,5,0139_lp_s05_5_bicycle_10_n02835271_24207.png
subject-05,1,140,0.651127099990845,elephant,elephant,7,0140_lp_s05_7_elephant_10_n02504458_7950.png
subject-05,1,141,0.951490879058838,boat,boat,10,0141_lp_s05_10_boat_10_n03344393_3804.png
subject-05,1,142,0.988294124603271,dog,dog,5,0142_lp_s05_5_dog_10_n02088632_5475.png
subject-05,1,143,0.904822826385498,bottle,bottle,7,0143_lp_s05_7_bottle_10_n04579145_2891.png
subject-05,1,144,0.865149974822998,boat,boat,3,0144_lp_s05_3_boat_10_n02951358_13533.png
subject-05,1,145,0.895434856414795,boat,boat,0,0145_lp_s05_0_boat_10_n03662601_5171.png
subject-05,1,146,0.817653894424438,bicycle,bicycle,1,0146_lp_s05_1_bicycle_10_n02835271_5289.png
subject-05,1,147,0.726194143295288,dog,dog,1,0147_lp_s05_1_dog_10_n02108000_3997.png
subject-05,1,148,0.848006010055542,knife,knife,1,0148_lp_s05_1_knife_10_n03041632_46112.png
subject-05,1,149,1.29248404502869,elephant,dog,10,0149_lp_s05_10_dog_10_n02109047_39001.png
subject-05,1,150,1.03114581108093,bird,bear,5,0150_lp_s05_5_bear_10_n02134084_6505.png
subject-05,1,151,1.28517293930054,knife,knife,0,0151_lp_s05_0_knife_10_n03041632_35764.png
subject-05,1,152,0.645227193832397,cat,dog,40,0152_lp_s05_40_dog_10_n02111277_8658.png
subject-05,1,153,0.868052959442139,boat,clock,10,0153_lp_s05_10_clock_10_n04548280_6743.png
subject-05,1,154,1.00636911392212,cat,bottle,3,0154_lp_s05_3_bottle_10_n04560804_9122.png
subject-05,1,155,0.936974048614502,car,cat,15,0155_lp_s05_15_cat_10_n02123597_6407.png
subject-05,1,156,0.713300943374634,bottle,bottle,1,0156_lp_s05_1_bottle_10_n03983396_65.png
subject-05,1,157,1.19792199134827,clock,bottle,3,0157_lp_s05_3_bottle_10_n04560804_13541.png
subject-05,1,158,1.2203209400177,boat,elephant,15,0158_lp_s05_15_elephant_10_n02504013_6405.png
subject-05,1,159,0.758750915527344,keyboard,keyboard,5,0159_lp_s05_5_keyboard_10_n03085013_6295.png
subject-05,1,160,0.834185123443604,bear,bear,7,0160_lp_s05_7_bear_10_n02132136_1665.png
subject-05,1,161,1.10244107246399,bear,bear,3,0161_lp_s05_3_bear_10_n02132136_4362.png
subject-05,1,162,0.778544902801514,boat,chair,3,0162_lp_s05_3_chair_10_n03376595_10149.png
subject-05,1,163,0.741282939910889,truck,truck,7,0163_lp_s05_7_truck_10_n04467665_35343.png
subject-05,1,164,1.01512908935547,bear,dog,10,0164_lp_s05_10_dog_10_n02102480_2801.png
subject-05,1,165,0.823227167129517,car,car,1,0165_lp_s05_1_car_10_n03100240_2996.png
subject-05,1,166,1.25976586341858,cat,cat,1,0166_lp_s05_1_cat_10_n02123394_7471.png
subject-05,1,167,1.06793880462646,oven,boat,10,0167_lp_s05_10_boat_10_n04273569_3598.png
subject-05,1,168,0.906359910964966,knife,knife,0,0168_lp_s05_0_knife_10_n03041632_30602.png
subject-05,1,169,0.929291963577271,dog,chair,15,0169_lp_s05_15_chair_10_n04429376_694.png
subject-05,1,170,1.32615208625793,dog,dog,0,0170_lp_s05_0_dog_10_n02095314_3748.png
subject-05,1,171,1.28668999671936,bicycle,bicycle,0,0171_lp_s05_0_bicycle_10_n03792782_15989.png
subject-05,1,172,0.963458776473999,bird,car,15,0172_lp_s05_15_car_10_n03100240_16740.png
subject-05,1,173,0.917469024658203,cat,cat,5,0173_lp_s05_5_cat_10_n02124075_15039.png
subject-05,1,174,1.06414198875427,clock,clock,1,0174_lp_s05_1_clock_10_n03196217_11614.png
subject-05,1,175,1.21662092208862,knife,knife,0,0175_lp_s05_0_knife_10_n03041632_84048.png
subject-05,1,176,0.892341136932373,bottle,bottle,1,0176_lp_s05_1_bottle_10_n04579145_34.png
subject-05,1,177,1.16832804679871,oven,bottle,40,0177_lp_s05_40_bottle_10_n04579145_3369.png
subject-05,1,178,0.936868906021118,car,bicycle,5,0178_lp_s05_5_bicycle_10_n02835271_13689.png
subject-05,1,179,0.807085990905762,knife,knife,5,0179_lp_s05_5_knife_10_n03041632_6575.png
subject-05,1,180,1.14328384399414,boat,bird,7,0180_lp_s05_7_bird_10_n01530575_9160.png
subject-05,1,181,1.0110559463501,clock,clock,40,0181_lp_s05_40_clock_10_n04548280_2150.png
subject-05,1,182,0.64935302734375,boat,boat,1,0182_lp_s05_1_boat_10_n02951358_11706.png
subject-05,1,183,0.593940019607544,elephant,elephant,0,0183_lp_s05_0_elephant_10_n02504013_4514.png
subject-05,1,184,0.87057900428772,car,keyboard,15,0184_lp_s05_15_keyboard_10_n04505470_4625.png
subject-05,1,185,0.670938968658447,clock,clock,10,0185_lp_s05_10_clock_10_n04548280_9963.png
subject-05,1,186,0.755402088165283,boat,knife,40,0186_lp_s05_40_knife_10_n03041632_98864.png
subject-05,1,187,0.772068023681641,chair,chair,0,0187_lp_s05_0_chair_10_n03376595_9603.png
subject-05,1,188,0.675337076187134,truck,truck,3,0188_lp_s05_3_truck_10_n03417042_27675.png
subject-05,1,189,1.17593908309937,elephant,elephant,5,0189_lp_s05_5_elephant_10_n02504013_644.png
subject-05,1,190,0.968196868896484,keyboard,keyboard,1,0190_lp_s05_1_keyboard_10_n04505470_3335.png
subject-05,1,191,0.874706983566284,bottle,bottle,10,0191_lp_s05_10_bottle_10_n04591713_7661.png
subject-05,1,192,1.4651038646698,cat,cat,1,0192_lp_s05_1_cat_10_n02125311_43078.png
subject-05,1,193,1.01885914802551,car,oven,40,0193_lp_s05_40_oven_10_n04111531_9474.png
subject-05,1,194,0.970879077911377,boat,bicycle,15,0194_lp_s05_15_bicycle_10_n02835271_1851.png
subject-05,1,195,0.833387851715088,elephant,elephant,1,0195_lp_s05_1_elephant_10_n02504458_5766.png
subject-05,1,196,1.03955292701721,dog,bear,5,0196_lp_s05_5_bear_10_n02134418_280.png
subject-05,1,197,0.791980981826782,keyboard,keyboard,3,0197_lp_s05_3_keyboard_10_n04505470_4965.png
subject-05,1,198,0.684545993804932,car,bear,40,0198_lp_s05_40_bear_10_n02134418_3756.png
subject-05,1,199,0.706824064254761,oven,clock,3,0199_lp_s05_3_clock_10_n02708093_7821.png
subject-05,1,200,NaN,na,clock,1,0200_lp_s05_1_clock_10_n03196217_194.png
subject-05,1,201,1.28340196609497,chair,chair,5,0201_lp_s05_5_chair_10_n02791124_1023.png
subject-05,1,202,0.567612886428833,knife,bear,3,0202_lp_s05_3_bear_10_n02133161_2429.png
subject-05,1,203,1.11989092826843,car,keyboard,15,0203_lp_s05_15_keyboard_10_n04505470_2358.png
subject-05,1,204,0.734738826751709,chair,chair,3,0204_lp_s05_3_chair_10_n02791124_13073.png
subject-05,1,205,0.872820854187012,oven,chair,1,0205_lp_s05_1_chair_10_n03376595_9054.png
subject-05,1,206,0.616804122924805,cat,truck,40,0206_lp_s05_40_truck_10_n04467665_5053.png
subject-05,1,207,0.885558843612671,bicycle,bicycle,0,0207_lp_s05_0_bicycle_10_n03792782_10734.png
subject-05,1,208,0.752673149108887,car,car,1,0208_lp_s05_1_car_10_n04285008_10462.png
subject-05,1,209,0.913247108459473,bicycle,bicycle,1,0209_lp_s05_1_bicycle_10_n02835271_695.png
subject-05,1,210,0.959916114807129,car,truck,1,0210_lp_s05_1_truck_10_n03417042_27850.png
subject-05,1,211,1.50002717971802,oven,bottle,15,0211_lp_s05_15_bottle_10_n04579145_2276.png
subject-05,1,212,1.25607204437256,dog,dog,1,0212_lp_s05_1_dog_10_n02096051_599.png
subject-05,1,213,0.926129817962646,boat,chair,1,0213_lp_s05_1_chair_10_n04429376_23573.png
subject-05,1,214,0.73190712928772,elephant,elephant,0,0214_lp_s05_0_elephant_10_n02504458_4696.png
subject-05,1,215,1.04641604423523,car,boat,40,0215_lp_s05_40_boat_10_n02951358_4531.png
subject-05,1,216,0.99879789352417,keyboard,car,40,0216_lp_s05_40_car_10_n04285008_11658.png
subject-05,1,217,0.999230861663818,clock,clock,7,0217_lp_s05_7_clock_10_n03196217_12852.png
subject-05,1,218,1.36766815185547,chair,chair,7,0218_lp_s05_7_chair_10_n04099969_4644.png
subject-05,1,219,1.09013485908508,oven,oven,0,0219_lp_s05_0_oven_10_n04111531_9498.png
subject-05,1,220,1.3200318813324,bird,truck,15,0220_lp_s05_15_truck_10_n03796401_2693.png
subject-05,1,221,0.65870213508606,boat,boat,3,0221_lp_s05_3_boat_10_n03344393_4081.png
subject-05,1,222,1.01891708374023,dog,knife,15,0222_lp_s05_15_knife_10_n03041632_90125.png
subject-05,1,223,1.10954213142395,bird,bird,3,0223_lp_s05_3_bird_10_n01534433_10365.png
subject-05,1,224,1.02606201171875,car,oven,40,0224_lp_s05_40_oven_10_n04111531_4817.png
subject-05,1,225,0.918444156646729,oven,oven,7,0225_lp_s05_7_oven_10_n04111531_3099.png
subject-05,1,226,0.708063840866089,chair,chair,5,0226_lp_s05_5_chair_10_n02791124_2897.png
subject-05,1,227,NaN,na,bicycle,7,0227_lp_s05_7_bicycle_10_n03792782_7688.png
subject-05,1,228,0.599033832550049,boat,boat,0,0228_lp_s05_0_boat_10_n04612504_1145.png
subject-05,1,229,0.843324899673462,bird,bird,15,0229_lp_s05_15_bird_10_n01860187_5817.png
subject-05,1,230,1.0580370426178,cat,boat,40,0230_lp_s05_40_boat_10_n03662601_6916.png
subject-05,1,231,1.43059206008911,boat,knife,5,0231_lp_s05_5_knife_10_n03041632_38996.png
subject-05,1,232,0.614431858062744,boat,boat,5,0232_lp_s05_5_boat_10_n04273569_12220.png
subject-05,1,233,0.960824012756348,chair,bottle,10,0233_lp_s05_10_bottle_10_n04557648_31733.png
subject-05,1,234,0.696955919265747,truck,truck,1,0234_lp_s05_1_truck_10_n03417042_6204.png
subject-05,1,235,1.26543498039246,bicycle,bottle,0,0235_lp_s05_0_bottle_10_n04557648_16426.png
subject-05,1,236,0.903806924819946,keyboard,boat,3,0236_lp_s05_3_boat_10_n02951358_8522.png
subject-05,1,237,0.812426090240479,bird,bird,7,0237_lp_s05_7_bird_10_n02018207_16350.png
subject-05,1,238,0.666987895965576,elephant,elephant,7,0238_lp_s05_7_elephant_10_n02504013_5463.png
subject-05,1,239,0.595227956771851,boat,boat,0,0239_lp_s05_0_boat_10_n03344393_4349.png
subject-05,1,240,0.701057910919189,elephant,elephant,5,0240_lp_s05_5_elephant_10_n02504013_6078.png
subject-05,1,241,1.06358981132507,cat,cat,3,0241_lp_s05_3_cat_10_n02123394_2045.png
subject-05,1,242,0.644713163375854,car,boat,40,0242_lp_s05_40_boat_10_n04273569_4605.png
subject-05,1,243,NaN,na,bear,40,0243_lp_s05_40_bear_10_n02134418_8454.png
subject-05,1,244,0.789094209671021,bear,bear,1,0244_lp_s05_1_bear_10_n02134084_2110.png
subject-05,1,245,0.811539173126221,cat,cat,7,0245_lp_s05_7_cat_10_n02123045_624.png
subject-05,1,246,0.726212024688721,car,car,1,0246_lp_s05_1_car_10_n02814533_10404.png
subject-05,1,247,0.972835063934326,airplane,oven,15,0247_lp_s05_15_oven_10_n04111531_18592.png
subject-05,1,248,1.33008885383606,oven,chair,10,0248_lp_s05_10_chair_10_n04099969_12574.png
subject-05,1,249,0.660731792449951,oven,dog,5,0249_lp_s05_5_dog_10_n02109047_11604.png
subject-05,1,250,1.36124610900879,bear,bear,1,0250_lp_s05_1_bear_10_n02132136_1516.png
subject-05,1,251,0.683825016021729,oven,oven,3,0251_lp_s05_3_oven_10_n04111531_13520.png
subject-05,1,252,NaN,na,keyboard,7,0252_lp_s05_7_keyboard_10_n03085013_21055.png
subject-05,1,253,1.16680312156677,boat,oven,15,0253_lp_s05_15_oven_10_n04111531_6958.png
subject-05,1,254,0.888271808624268,airplane,airplane,0,0254_lp_s05_0_airplane_10_n02690373_9946.png
subject-05,1,255,0.886722087860107,boat,airplane,10,0255_lp_s05_10_airplane_10_n02690373_945.png
subject-05,1,256,0.600666046142578,bicycle,bicycle,0,0256_lp_s05_0_bicycle_10_n03792782_30962.png
subject-05,1,257,0.885199069976807,knife,bottle,5,0257_lp_s05_5_bottle_10_n04591713_1064.png
subject-05,1,258,0.652284145355225,elephant,elephant,1,0258_lp_s05_1_elephant_10_n02504458_12145.png
subject-05,1,259,1.03504300117493,car,oven,5,0259_lp_s05_5_oven_10_n04111531_2433.png
subject-05,1,260,1.18694114685059,oven,oven,3,0260_lp_s05_3_oven_10_n04111531_10077.png
subject-05,1,261,0.757642030715942,boat,dog,15,0261_lp_s05_15_dog_10_n02113712_3531.png
subject-05,1,262,1.23985004425049,chair,bird,0,0262_lp_s05_0_bird_10_n01532829_16073.png
subject-05,1,263,0.656390190124512,bird,bird,0,0263_lp_s05_0_bird_10_n02037110_7208.png
subject-05,1,264,0.87682318687439,bottle,bottle,10,0264_lp_s05_10_bottle_10_n04557648_7462.png
subject-05,1,265,0.715453863143921,bird,bird,3,0265_lp_s05_3_bird_10_n01824575_11453.png
subject-05,1,266,0.682867050170898,boat,boat,10,0266_lp_s05_10_boat_10_n02951358_31811.png
subject-05,1,267,0.73547101020813,truck,oven,7,0267_lp_s05_7_oven_10_n04111531_5533.png
subject-05,1,268,0.995791912078857,keyboard,keyboard,10,0268_lp_s05_10_keyboard_10_n03085013_33271.png
subject-05,1,269,0.734230041503906,keyboard,keyboard,1,0269_lp_s05_1_keyboard_10_n04505470_10191.png
subject-05,1,270,0.856115102767944,truck,car,10,0270_lp_s05_10_car_10_n04285008_5077.png
subject-05,1,271,1.23536586761475,car,car,0,0271_lp_s05_0_car_10_n04285008_1314.png
subject-05,1,272,0.921462059020996,bird,cat,10,0272_lp_s05_10_cat_10_n02124075_924.png
subject-05,1,273,1.12797498703003,clock,boat,40,0273_lp_s05_40_boat_10_n03344393_6363.png
subject-05,1,274,0.7726891040802,cat,dog,40,0274_lp_s05_40_dog_10_n02097130_10513.png
subject-05,1,275,0.811085939407349,boat,elephant,40,0275_lp_s05_40_elephant_10_n02504013_5871.png
subject-05,1,276,1.42547702789307,clock,bird,40,0276_lp_s05_40_bird_10_n02013706_4350.png
subject-05,1,277,0.709017038345337,keyboard,keyboard,3,0277_lp_s05_3_keyboard_10_n04505470_6327.png
subject-05,1,278,0.699402093887329,keyboard,keyboard,0,0278_lp_s05_0_keyboard_10_n03085013_24061.png
subject-05,1,279,1.0922691822052,bird,bird,15,0279_lp_s05_15_bird_10_n01601694_288.png
subject-05,1,280,0.966048002243042,bird,bird,1,0280_lp_s05_1_bird_10_n01796340_861.png
subject-05,1,281,0.788387060165405,elephant,elephant,1,0281_lp_s05_1_elephant_10_n02504458_8290.png
subject-05,1,282,1.21912908554077,dog,bear,15,0282_lp_s05_15_bear_10_n02133161_2597.png
subject-05,1,283,0.940942049026489,clock,knife,1,0283_lp_s05_1_knife_10_n03041632_16826.png
subject-05,1,284,0.947497129440308,chair,chair,0,0284_lp_s05_0_chair_10_n04429376_10113.png
subject-05,1,285,1.50029110908508,cat,chair,0,0285_lp_s05_0_chair_10_n04099969_16350.png
subject-05,1,286,1.01429891586304,dog,dog,7,0286_lp_s05_7_dog_10_n02096294_10556.png
subject-05,1,287,0.990931987762451,oven,keyboard,40,0287_lp_s05_40_keyboard_10_n03085013_22960.png
subject-05,1,288,1.01303815841675,cat,knife,15,0288_lp_s05_15_knife_10_n03041632_48071.png
subject-05,1,289,0.889341115951538,truck,truck,5,0289_lp_s05_5_truck_10_n04467665_50721.png
subject-05,1,290,0.833285808563232,clock,clock,0,0290_lp_s05_0_clock_10_n03196217_5217.png
subject-05,1,291,0.795475959777832,dog,cat,10,0291_lp_s05_10_cat_10_n02123394_2693.png
subject-05,1,292,1.24175906181335,cat,bear,5,0292_lp_s05_5_bear_10_n02134084_20677.png
subject-05,1,293,0.856189012527466,boat,car,10,0293_lp_s05_10_car_10_n02814533_40291.png
subject-05,1,294,0.908550977706909,keyboard,oven,40,0294_lp_s05_40_oven_10_n04111531_741.png
subject-05,1,295,1.29052996635437,boat,keyboard,10,0295_lp_s05_10_keyboard_10_n03085013_23810.png
subject-05,1,296,1.09093499183655,airplane,airplane,1,0296_lp_s05_1_airplane_10_n02690373_1167.png
subject-05,1,297,0.691305875778198,clock,clock,1,0297_lp_s05_1_clock_10_n03196217_289.png
subject-05,1,298,0.727370977401733,bicycle,bicycle,1,0298_lp_s05_1_bicycle_10_n02835271_3256.png
subject-05,1,299,0.750043153762817,car,truck,40,0299_lp_s05_40_truck_10_n03417042_5301.png
subject-05,1,300,0.901943922042847,car,boat,7,0300_lp_s05_7_boat_10_n04273569_7012.png
subject-05,1,301,1.04643893241882,car,bicycle,40,0301_lp_s05_40_bicycle_10_n02835271_6804.png
subject-05,1,302,1.19283294677734,airplane,car,40,0302_lp_s05_40_car_10_n02814533_59447.png
subject-05,1,303,0.867228984832764,dog,dog,5,0303_lp_s05_5_dog_10_n02112018_6965.png
subject-05,1,304,1.08347797393799,chair,dog,0,0304_lp_s05_0_dog_10_n02106382_9556.png
subject-05,1,305,0.867936849594116,boat,bird,40,0305_lp_s05_40_bird_10_n02011460_3203.png
subject-05,1,306,0.720628023147583,boat,bear,15,0306_lp_s05_15_bear_10_n02134418_4384.png
subject-05,1,307,1.08912086486816,clock,clock,0,0307_lp_s05_0_clock_10_n03196217_7431.png
subject-05,1,308,0.741217136383057,airplane,airplane,3,0308_lp_s05_3_airplane_10_n02690373_10207.png
subject-05,1,309,0.895678043365479,bear,boat,15,0309_lp_s05_15_boat_10_n04273569_6161.png
subject-05,1,310,0.94818902015686,car,oven,1,0310_lp_s05_1_oven_10_n04111531_695.png
subject-05,1,311,0.640920162200928,keyboard,keyboard,5,0311_lp_s05_5_keyboard_10_n03085013_3607.png
subject-05,1,312,0.80079197883606,clock,oven,40,0312_lp_s05_40_oven_10_n04111531_1054.png
subject-05,1,313,0.931282043457031,car,car,7,0313_lp_s05_7_car_10_n04285008_6037.png
subject-05,1,314,0.691728115081787,bottle,bottle,7,0314_lp_s05_7_bottle_10_n02823428_7300.png
subject-05,1,315,0.790040969848633,bear,bear,7,0315_lp_s05_7_bear_10_n02134418_3224.png
subject-05,1,316,1.22021412849426,cat,bird,7,0316_lp_s05_7_bird_10_n01796340_11560.png
subject-05,1,317,0.680536985397339,keyboard,keyboard,5,0317_lp_s05_5_keyboard_10_n04505470_209.png
subject-05,1,318,1.15709209442139,chair,chair,7,0318_lp_s05_7_chair_10_n04429376_22004.png
subject-05,1,319,0.833732843399048,oven,bicycle,15,0319_lp_s05_15_bicycle_10_n03792782_5012.png
subject-05,1,320,0.870056867599487,car,truck,7,0320_lp_s05_7_truck_10_n03796401_978.png
subject-05,1,321,0.900816917419434,bird,bottle,5,0321_lp_s05_5_bottle_10_n04560804_1860.png
subject-05,1,322,0.731724977493286,car,clock,40,0322_lp_s05_40_clock_10_n02708093_3763.png
subject-05,1,323,0.614044904708862,boat,boat,1,0323_lp_s05_1_boat_10_n03662601_7114.png
subject-05,1,324,0.866150140762329,oven,dog,40,0324_lp_s05_40_dog_10_n02097658_2539.png
subject-05,1,325,0.604541063308716,cat,cat,40,0325_lp_s05_40_cat_10_n02124075_12637.png
subject-05,1,326,1.17308688163757,truck,bear,40,0326_lp_s05_40_bear_10_n02134418_5328.png
subject-05,1,327,0.654672861099243,cat,cat,7,0327_lp_s05_7_cat_10_n02123394_1953.png
subject-05,1,328,0.600551128387451,bicycle,bicycle,1,0328_lp_s05_1_bicycle_10_n02835271_15717.png
subject-05,1,329,0.629254102706909,cat,dog,40,0329_lp_s05_40_dog_10_n02111277_8680.png
subject-05,1,330,0.989684820175171,keyboard,airplane,5,0330_lp_s05_5_airplane_10_n02690373_1441.png
subject-05,1,331,1.08972907066345,airplane,bird,7,0331_lp_s05_7_bird_10_n02009912_15955.png
subject-05,1,332,1.38008093833923,bird,bird,3,0332_lp_s05_3_bird_10_n01843065_2043.png
subject-05,1,333,1.10882186889648,car,truck,40,0333_lp_s05_40_truck_10_n04467665_69877.png
subject-05,1,334,0.824751138687134,boat,elephant,10,0334_lp_s05_10_elephant_10_n02504458_2026.png
subject-05,1,335,0.877388954162598,dog,dog,3,0335_lp_s05_3_dog_10_n02108551_1680.png
subject-05,1,336,1.18331909179688,boat,boat,5,0336_lp_s05_5_boat_10_n04612504_14890.png
subject-05,1,337,0.643589019775391,boat,airplane,15,0337_lp_s05_15_airplane_10_n02690373_12984.png
subject-05,1,338,1.09598684310913,clock,clock,40,0338_lp_s05_40_clock_10_n04548280_9492.png
subject-05,1,339,0.818562984466553,elephant,elephant,1,0339_lp_s05_1_elephant_10_n02504013_22704.png
subject-05,1,340,0.733021974563599,cat,dog,5,0340_lp_s05_5_dog_10_n02091467_12642.png
subject-05,1,341,0.693543195724487,keyboard,clock,10,0341_lp_s05_10_clock_10_n03196217_4519.png
subject-05,1,342,0.929822206497192,cat,bear,10,0342_lp_s05_10_bear_10_n02133161_104.png
subject-05,1,343,0.62145209312439,boat,boat,3,0343_lp_s05_3_boat_10_n04273569_9452.png
subject-05,1,344,0.841758966445923,bear,cat,5,0344_lp_s05_5_cat_10_n02124075_10456.png
subject-05,1,345,0.725822925567627,truck,truck,1,0345_lp_s05_1_truck_10_n03796401_211.png
subject-05,1,346,1.03236198425293,oven,truck,40,0346_lp_s05_40_truck_10_n04467665_34228.png
subject-05,1,347,0.775588035583496,bird,knife,40,0347_lp_s05_40_knife_10_n03041632_36280.png
subject-05,1,348,0.835955142974854,boat,bottle,40,0348_lp_s05_40_bottle_10_n04557648_4420.png
subject-05,1,349,0.934547901153564,boat,airplane,10,0349_lp_s05_10_airplane_10_n02690373_6812.png
subject-05,1,350,0.815072059631348,car,car,1,0350_lp_s05_1_car_10_n03100240_10742.png
subject-05,1,351,0.637356996536255,cat,cat,3,0351_lp_s05_3_cat_10_n02123394_2450.png
subject-05,1,352,1.19779896736145,chair,chair,5,0352_lp_s05_5_chair_10_n02791124_6075.png
subject-05,1,353,0.981958866119385,clock,bottle,40,0353_lp_s05_40_bottle_10_n04560804_3303.png
subject-05,1,354,0.885982036590576,truck,truck,5,0354_lp_s05_5_truck_10_n04467665_17977.png
subject-05,1,355,0.902173042297363,boat,elephant,10,0355_lp_s05_10_elephant_10_n02504013_1436.png
subject-05,1,356,0.738210916519165,car,car,10,0356_lp_s05_10_car_10_n03100240_7120.png
subject-05,1,357,0.866446018218994,boat,boat,0,0357_lp_s05_0_boat_10_n03344393_3767.png
subject-05,1,358,0.842941999435425,bear,bear,15,0358_lp_s05_15_bear_10_n02133161_3984.png
subject-05,1,359,1.25478506088257,boat,knife,7,0359_lp_s05_7_knife_10_n03041632_4714.png
subject-05,1,360,0.717352151870728,bottle,chair,10,0360_lp_s05_10_chair_10_n04429376_24091.png
subject-05,1,361,0.685540914535522,car,car,5,0361_lp_s05_5_car_10_n03100240_7955.png
subject-05,1,362,0.621703863143921,bird,bird,5,0362_lp_s05_5_bird_10_n01798484_12617.png
subject-05,1,363,0.628093957901001,boat,bottle,15,0363_lp_s05_15_bottle_10_n03983396_2511.png
subject-05,1,364,0.734301090240479,airplane,airplane,5,0364_lp_s05_5_airplane_10_n02690373_8589.png
subject-05,1,365,0.818635940551758,bicycle,bicycle,7,0365_lp_s05_7_bicycle_10_n02835271_20149.png
subject-05,1,366,1.08535289764404,clock,bear,40,0366_lp_s05_40_bear_10_n02134084_1028.png
subject-05,1,367,0.747562885284424,airplane,airplane,1,0367_lp_s05_1_airplane_10_n02690373_12929.png
subject-05,1,368,0.804959058761597,car,bicycle,40,0368_lp_s05_40_bicycle_10_n03792782_6546.png
subject-05,1,369,0.927067995071411,boat,boat,0,0369_lp_s05_0_boat_10_n02951358_6569.png
subject-05,1,370,1.37149596214294,oven,chair,1,0370_lp_s05_1_chair_10_n02791124_3331.png
subject-05,1,371,1.19160294532776,keyboard,clock,3,0371_lp_s05_3_clock_10_n04548280_3716.png
subject-05,1,372,0.984117984771729,boat,bird,15,0372_lp_s05_15_bird_10_n02018795_4599.png
subject-05,1,373,1.1524031162262,keyboard,cat,5,0373_lp_s05_5_cat_10_n02123159_7198.png
subject-05,1,374,0.66380500793457,boat,boat,3,0374_lp_s05_3_boat_10_n03662601_34510.png
subject-05,1,375,0.762220144271851,bicycle,bicycle,3,0375_lp_s05_3_bicycle_10_n02835271_12123.png
subject-05,1,376,0.659337043762207,boat,boat,1,0376_lp_s05_1_boat_10_n03344393_1595.png
subject-05,1,377,0.787725925445557,bird,dog,7,0377_lp_s05_7_dog_10_n02086079_8072.png
subject-05,1,378,1.13948893547058,truck,truck,7,0378_lp_s05_7_truck_10_n03417042_5895.png
subject-05,1,379,0.824136018753052,boat,boat,3,0379_lp_s05_3_boat_10_n04273569_12991.png
subject-05,1,380,1.37444496154785,clock,cat,10,0380_lp_s05_10_cat_10_n02123597_7262.png
subject-05,1,381,0.86664891242981,bottle,bottle,3,0381_lp_s05_3_bottle_10_n02823428_6928.png
subject-05,1,382,1.50041198730469,bird,oven,7,0382_lp_s05_7_oven_10_n04111531_17923.png
subject-05,1,383,0.787459850311279,airplane,airplane,10,0383_lp_s05_10_airplane_10_n02690373_2579.png
subject-05,1,384,0.693732023239136,car,oven,10,0384_lp_s05_10_oven_10_n04111531_6415.png
subject-05,1,385,1.35403394699097,bird,knife,10,0385_lp_s05_10_knife_10_n03041632_19571.png
subject-05,1,386,1.47407793998718,keyboard,oven,3,0386_lp_s05_3_oven_10_n04111531_14913.png
subject-05,1,387,0.606567859649658,boat,cat,40,0387_lp_s05_40_cat_10_n02123394_6521.png
subject-05,1,388,0.77332615852356,cat,chair,10,0388_lp_s05_10_chair_10_n04429376_55898.png
subject-05,1,389,1.07994508743286,cat,dog,3,0389_lp_s05_3_dog_10_n02097047_1495.png
subject-05,1,390,0.940084218978882,car,car,15,0390_lp_s05_15_car_10_n03100240_24331.png
subject-05,1,391,0.591580867767334,bicycle,bicycle,5,0391_lp_s05_5_bicycle_10_n03792782_1513.png
subject-05,1,392,0.875892877578735,bottle,bottle,1,0392_lp_s05_1_bottle_10_n04591713_1952.png
subject-05,1,393,0.935843944549561,boat,oven,10,0393_lp_s05_10_oven_10_n04111531_3580.png
subject-05,1,394,0.810595989227295,oven,bicycle,5,0394_lp_s05_5_bicycle_10_n02835271_20959.png
subject-05,1,395,1.01684093475342,truck,car,7,0395_lp_s05_7_car_10_n02814533_52605.png
subject-05,1,396,1.17297196388245,elephant,elephant,0,0396_lp_s05_0_elephant_10_n02504458_5824.png
subject-05,1,397,0.749498128890991,clock,clock,7,0397_lp_s05_7_clock_10_n04548280_6115.png
subject-05,1,398,1.3616361618042,airplane,knife,15,0398_lp_s05_15_knife_10_n03041632_20576.png
subject-05,1,399,1.44355201721191,clock,bear,40,0399_lp_s05_40_bear_10_n02134418_2455.png
subject-05,1,400,0.889661073684692,boat,boat,5,0400_lp_s05_5_boat_10_n03344393_4543.png
subject-05,1,401,0.665712118148804,airplane,airplane,10,0401_lp_s05_10_airplane_10_n02690373_4946.png
subject-05,1,402,1.11820197105408,car,boat,40,0402_lp_s05_40_boat_10_n03344393_6139.png
subject-05,1,403,1.11710000038147,car,car,3,0403_lp_s05_3_car_10_n03100240_859.png
subject-05,1,404,0.960975170135498,cat,oven,7,0404_lp_s05_7_oven_10_n04111531_6975.png
subject-05,1,405,1.1076180934906,car,bicycle,10,0405_lp_s05_10_bicycle_10_n02835271_890.png
subject-05,1,406,1.28968214988708,keyboard,bear,10,0406_lp_s05_10_bear_10_n02133161_7996.png
subject-05,1,407,0.895747900009155,oven,truck,1,0407_lp_s05_1_truck_10_n03417042_19203.png
subject-05,1,408,0.633820056915283,clock,clock,3,0408_lp_s05_3_clock_10_n04548280_765.png
subject-05,1,409,1.16216897964478,airplane,airplane,0,0409_lp_s05_0_airplane_10_n02690373_7046.png
subject-05,1,410,0.646394968032837,car,car,1,0410_lp_s05_1_car_10_n04285008_10403.png
subject-05,1,411,1.15300893783569,dog,dog,0,0411_lp_s05_0_dog_10_n02093256_5680.png
subject-05,1,412,1.24354004859924,car,oven,10,0412_lp_s05_10_oven_10_n04111531_7329.png
subject-05,1,413,1.30944800376892,bird,dog,15,0413_lp_s05_15_dog_10_n02097474_16906.png
subject-05,1,414,1.1395218372345,car,clock,15,0414_lp_s05_15_clock_10_n02708093_3438.png
subject-05,1,415,1.10784482955933,keyboard,keyboard,3,0415_lp_s05_3_keyboard_10_n04505470_4473.png
subject-05,1,416,1.02219009399414,car,bird,15,0416_lp_s05_15_bird_10_n02033041_4180.png
subject-05,1,417,0.858964204788208,cat,cat,1,0417_lp_s05_1_cat_10_n02125311_48873.png
subject-05,1,418,1.0023992061615,boat,bear,7,0418_lp_s05_7_bear_10_n02132136_2304.png
subject-05,1,419,0.971156120300293,bird,car,40,0419_lp_s05_40_car_10_n03100240_8591.png
subject-05,1,420,0.663421869277954,boat,keyboard,10,0420_lp_s05_10_keyboard_10_n03085013_23562.png
subject-05,1,421,NaN,na,bird,1,0421_lp_s05_1_bird_10_n02011460_154.png
subject-05,1,422,1.08944606781006,keyboard,bicycle,10,0422_lp_s05_10_bicycle_10_n02835271_7051.png
subject-05,1,423,1.13376903533936,car,car,1,0423_lp_s05_1_car_10_n02814533_78492.png
subject-05,1,424,1.24822688102722,truck,knife,40,0424_lp_s05_40_knife_10_n03041632_52371.png
subject-05,1,425,1.30436682701111,cat,cat,1,0425_lp_s05_1_cat_10_n02123159_4828.png
subject-05,1,426,0.918735980987549,car,boat,10,0426_lp_s05_10_boat_10_n03344393_11386.png
subject-05,1,427,0.76291298866272,bird,bird,3,0427_lp_s05_3_bird_10_n01514859_5073.png
subject-05,1,428,1.07663083076477,bird,elephant,3,0428_lp_s05_3_elephant_10_n02504013_2536.png
subject-05,1,429,0.931383848190308,oven,clock,40,0429_lp_s05_40_clock_10_n02708093_1515.png
subject-05,1,430,0.951617956161499,bear,bear,5,0430_lp_s05_5_bear_10_n02134418_664.png
subject-05,1,431,0.797686100006104,bird,truck,10,0431_lp_s05_10_truck_10_n03417042_5886.png
subject-05,1,432,1.08844804763794,dog,elephant,1,0432_lp_s05_1_elephant_10_n02504013_2208.png
subject-05,1,433,0.916285991668701,car,clock,10,0433_lp_s05_10_clock_10_n03196217_2239.png
subject-05,1,434,1.43820285797119,bird,dog,40,0434_lp_s05_40_dog_10_n02098286_2726.png
subject-05,1,435,0.814861059188843,car,chair,7,0435_lp_s05_7_chair_10_n03376595_1994.png
subject-05,1,436,0.875493049621582,knife,knife,1,0436_lp_s05_1_knife_10_n03041632_47759.png
subject-05,1,437,0.743717908859253,cat,dog,10,0437_lp_s05_10_dog_10_n02106166_6171.png
subject-05,1,438,0.972173929214478,keyboard,keyboard,1,0438_lp_s05_1_keyboard_10_n04505470_3425.png
subject-05,1,439,0.856747150421143,car,airplane,40,0439_lp_s05_40_airplane_10_n02690373_3840.png
subject-05,1,440,0.95455002784729,cat,dog,7,0440_lp_s05_7_dog_10_n02113712_18435.png
subject-05,1,441,0.72277307510376,oven,bird,40,0441_lp_s05_40_bird_10_n01531178_21904.png
subject-05,1,442,1.15047001838684,bicycle,chair,3,0442_lp_s05_3_chair_10_n02791124_11405.png
subject-05,1,443,1.21067500114441,bottle,bottle,0,0443_lp_s05_0_bottle_10_n04557648_7303.png
subject-05,1,444,0.717288970947266,truck,truck,0,0444_lp_s05_0_truck_10_n03417042_10858.png
subject-05,1,445,1.01655101776123,car,car,0,0445_lp_s05_0_car_10_n03100240_17245.png
subject-05,1,446,1.21526288986206,car,car,3,0446_lp_s05_3_car_10_n02814533_66666.png
subject-05,1,447,1.09165906906128,bird,knife,3,0447_lp_s05_3_knife_10_n03041632_101810.png
subject-05,1,448,1.28118109703064,boat,bicycle,7,0448_lp_s05_7_bicycle_10_n03792782_4659.png
subject-05,1,449,0.97960901260376,chair,knife,5,0449_lp_s05_5_knife_10_n03041632_1201.png
subject-05,1,450,0.978477001190186,dog,dog,7,0450_lp_s05_7_dog_10_n02090721_4923.png
subject-05,1,451,0.91691780090332,car,car,15,0451_lp_s05_15_car_10_n04285008_3194.png
subject-05,1,452,1.24506306648254,elephant,airplane,15,0452_lp_s05_15_airplane_10_n02690373_5778.png
subject-05,1,453,1.02093505859375,bird,bird,1,0453_lp_s05_1_bird_10_n01530575_10078.png
subject-05,1,454,0.88964581489563,bird,airplane,15,0454_lp_s05_15_airplane_10_n02690373_12896.png
subject-05,1,455,0.72606897354126,clock,clock,3,0455_lp_s05_3_clock_10_n04548280_3864.png
subject-05,1,456,0.762083053588867,boat,clock,15,0456_lp_s05_15_clock_10_n04548280_5773.png
subject-05,1,457,NaN,na,elephant,3,0457_lp_s05_3_elephant_10_n02504458_6368.png
subject-05,1,458,0.852510929107666,bear,boat,15,0458_lp_s05_15_boat_10_n03344393_3862.png
subject-05,1,459,0.864842891693115,bottle,bottle,3,0459_lp_s05_3_bottle_10_n04591713_2938.png
subject-05,1,460,0.757488012313843,clock,clock,5,0460_lp_s05_5_clock_10_n03196217_5404.png
subject-05,1,461,0.940001010894775,oven,knife,7,0461_lp_s05_7_knife_10_n03041632_31037.png
subject-05,1,462,0.684551000595093,keyboard,keyboard,1,0462_lp_s05_1_keyboard_10_n04505470_5561.png
subject-05,1,463,0.568334102630615,car,car,10,0463_lp_s05_10_car_10_n03100240_10001.png
subject-05,1,464,0.690654039382935,knife,knife,3,0464_lp_s05_3_knife_10_n03041632_33584.png
subject-05,1,465,0.749091863632202,elephant,elephant,3,0465_lp_s05_3_elephant_10_n02504013_466.png
subject-05,1,466,0.741955041885376,car,chair,15,0466_lp_s05_15_chair_10_n03376595_3574.png
subject-05,1,467,0.755810976028442,boat,bicycle,7,0467_lp_s05_7_bicycle_10_n02835271_274.png
subject-05,1,468,0.954521894454956,bird,knife,40,0468_lp_s05_40_knife_10_n03041632_379.png
subject-05,1,469,0.912524938583374,bear,dog,7,0469_lp_s05_7_dog_10_n02106550_7289.png
subject-05,1,470,0.664630174636841,boat,bicycle,10,0470_lp_s05_10_bicycle_10_n03792782_12258.png
subject-05,1,471,0.878697872161865,cat,dog,10,0471_lp_s05_10_dog_10_n02093428_17018.png
subject-05,1,472,1.38564109802246,bird,oven,0,0472_lp_s05_0_oven_10_n04111531_9297.png
subject-05,1,473,0.661988019943237,keyboard,keyboard,1,0473_lp_s05_1_keyboard_10_n04505470_4973.png
subject-05,1,474,0.974061012268066,car,car,7,0474_lp_s05_7_car_10_n04285008_874.png
subject-05,1,475,1.256511926651,oven,oven,1,0475_lp_s05_1_oven_10_n04111531_891.png
subject-05,1,476,0.819221019744873,car,car,1,0476_lp_s05_1_car_10_n02814533_32835.png
subject-05,1,477,1.03056311607361,oven,oven,1,0477_lp_s05_1_oven_10_n04111531_9548.png
subject-05,1,478,0.523075103759766,cat,cat,5,0478_lp_s05_5_cat_10_n02124075_1818.png
subject-05,1,479,1.05157494544983,bear,dog,1,0479_lp_s05_1_dog_10_n02099267_5627.png
subject-05,1,480,1.16584181785583,clock,bicycle,15,0480_lp_s05_15_bicycle_10_n02835271_12597.png
subject-05,1,481,0.766173839569092,cat,boat,40,0481_lp_s05_40_boat_10_n04273569_8114.png
subject-05,1,482,0.942799091339111,car,airplane,40,0482_lp_s05_40_airplane_10_n02690373_10397.png
subject-05,1,483,1.27913188934326,boat,bird,5,0483_lp_s05_5_bird_10_n02017213_14345.png
subject-05,1,484,0.833675146102905,oven,oven,1,0484_lp_s05_1_oven_10_n04111531_14611.png
subject-05,1,485,0.653491020202637,elephant,elephant,5,0485_lp_s05_5_elephant_10_n02504013_677.png
subject-05,1,486,0.683938980102539,airplane,airplane,7,0486_lp_s05_7_airplane_10_n02690373_8406.png
subject-05,1,487,0.589668989181519,bird,elephant,40,0487_lp_s05_40_elephant_10_n02504013_7883.png
subject-05,1,488,0.825650930404663,cat,bicycle,40,0488_lp_s05_40_bicycle_10_n02835271_16850.png
subject-05,1,489,0.954307079315186,bottle,bottle,0,0489_lp_s05_0_bottle_10_n04557648_5518.png
subject-05,1,490,1.1224160194397,bird,airplane,15,0490_lp_s05_15_airplane_10_n02690373_2408.png
subject-05,1,491,1.0212721824646,car,bicycle,40,0491_lp_s05_40_bicycle_10_n02835271_12120.png
subject-05,1,492,1.16578006744385,boat,oven,5,0492_lp_s05_5_oven_10_n04111531_5570.png
subject-05,1,493,0.82555103302002,boat,boat,3,0493_lp_s05_3_boat_10_n02951358_39137.png
subject-05,1,494,0.6701500415802,clock,clock,1,0494_lp_s05_1_clock_10_n04548280_7135.png
subject-05,1,495,0.622328042984009,knife,knife,5,0495_lp_s05_5_knife_10_n03041632_81004.png
subject-05,1,496,1.28893303871155,airplane,bear,10,0496_lp_s05_10_bear_10_n02134418_4297.png
subject-05,1,497,1.27845907211304,oven,bicycle,7,0497_lp_s05_7_bicycle_10_n02835271_13094.png
subject-05,1,498,1.12599611282349,boat,bird,10,0498_lp_s05_10_bird_10_n01796340_5902.png
subject-05,1,499,1.25432395935059,car,clock,40,0499_lp_s05_40_clock_10_n02708093_41.png
subject-05,1,500,1.01465582847595,oven,bicycle,15,0500_lp_s05_15_bicycle_10_n02835271_3810.png
subject-05,1,501,0.896600961685181,bear,bear,1,0501_lp_s05_1_bear_10_n02134084_14281.png
subject-05,1,502,0.878874063491821,bird,car,15,0502_lp_s05_15_car_10_n02814533_43742.png
subject-05,1,503,1.08488297462463,chair,truck,3,0503_lp_s05_3_truck_10_n03796401_6737.png
subject-05,1,504,0.853348016738892,elephant,elephant,3,0504_lp_s05_3_elephant_10_n02504458_1347.png
subject-05,1,505,0.683777093887329,dog,dog,1,0505_lp_s05_1_dog_10_n02085936_19275.png
subject-05,1,506,0.711853981018066,boat,boat,10,0506_lp_s05_10_boat_10_n04612504_8636.png
subject-05,1,507,0.764194011688232,dog,dog,1,0507_lp_s05_1_dog_10_n02102318_23365.png
subject-05,1,508,0.707825899124146,cat,cat,0,0508_lp_s05_0_cat_10_n02124075_1647.png
subject-05,1,509,0.782857894897461,boat,clock,7,0509_lp_s05_7_clock_10_n04548280_6122.png
subject-05,1,510,1.03472208976746,cat,cat,3,0510_lp_s05_3_cat_10_n02123394_245.png
subject-05,1,511,0.93319296836853,boat,airplane,7,0511_lp_s05_7_airplane_10_n02690373_8846.png
subject-05,1,512,1.10750603675842,car,clock,10,0512_lp_s05_10_clock_10_n03196217_1.png
subject-05,1,513,0.821707963943481,car,knife,10,0513_lp_s05_10_knife_10_n03041632_1661.png
subject-05,1,514,0.752294063568115,boat,bear,10,0514_lp_s05_10_bear_10_n02132136_5030.png
subject-05,1,515,0.928628921508789,bird,bicycle,7,0515_lp_s05_7_bicycle_10_n03792782_3578.png
subject-05,1,516,0.769906997680664,boat,oven,15,0516_lp_s05_15_oven_10_n04111531_9962.png
subject-05,1,517,1.32296395301819,chair,oven,10,0517_lp_s05_10_oven_10_n04111531_9041.png
subject-05,1,518,0.798413038253784,airplane,airplane,3,0518_lp_s05_3_airplane_10_n02690373_2042.png
subject-05,1,519,0.90519905090332,chair,chair,1,0519_lp_s05_1_chair_10_n02791124_5314.png
subject-05,1,520,0.795730113983154,car,car,5,0520_lp_s05_5_car_10_n02814533_13770.png
subject-05,1,521,0.647934198379517,bicycle,bicycle,0,0521_lp_s05_0_bicycle_10_n02835271_3815.png
subject-05,1,522,0.913858890533447,boat,truck,15,0522_lp_s05_15_truck_10_n03417042_6420.png
subject-05,1,523,0.659987926483154,car,truck,7,0523_lp_s05_7_truck_10_n03417042_27988.png
subject-05,1,524,1.02615284919739,boat,bottle,10,0524_lp_s05_10_bottle_10_n04557648_94.png
subject-05,1,525,0.770809888839722,oven,oven,0,0525_lp_s05_0_oven_10_n04111531_11221.png
subject-05,1,526,0.709841012954712,boat,boat,5,0526_lp_s05_5_boat_10_n03662601_19120.png
subject-05,1,527,0.767657995223999,dog,bear,3,0527_lp_s05_3_bear_10_n02134418_6224.png
subject-05,1,528,0.981754064559937,knife,keyboard,10,0528_lp_s05_10_keyboard_10_n03085013_24149.png
subject-05,1,529,0.910283088684082,boat,boat,7,0529_lp_s05_7_boat_10_n03662601_24713.png
subject-05,1,530,0.770788908004761,knife,knife,3,0530_lp_s05_3_knife_10_n03041632_14132.png
subject-05,1,531,0.777470827102661,bear,bear,3,0531_lp_s05_3_bear_10_n02134084_8574.png
subject-05,1,532,0.653993129730225,chair,chair,1,0532_lp_s05_1_chair_10_n04099969_4374.png
subject-05,1,533,0.858438968658447,car,bird,15,0533_lp_s05_15_bird_10_n02018795_4460.png
subject-05,1,534,0.910693883895874,dog,dog,0,0534_lp_s05_0_dog_10_n02086079_9110.png
subject-05,1,535,0.89322304725647,cat,elephant,5,0535_lp_s05_5_elephant_10_n02504013_354.png
subject-05,1,536,0.869588136672974,bird,bicycle,10,0536_lp_s05_10_bicycle_10_n02835271_12006.png
subject-05,1,537,0.738120079040527,bird,bird,0,0537_lp_s05_0_bird_10_n02018795_18078.png
subject-05,1,538,0.719856977462769,clock,truck,15,0538_lp_s05_15_truck_10_n03417042_7049.png
subject-05,1,539,1.44628715515137,bear,boat,10,0539_lp_s05_10_boat_10_n04612504_12864.png
subject-05,1,540,1.19273686408997,dog,elephant,15,0540_lp_s05_15_elephant_10_n02504013_2193.png
subject-05,1,541,0.983138084411621,airplane,bird,10,0541_lp_s05_10_bird_10_n02051845_5414.png
subject-05,1,542,0.697511196136475,knife,knife,3,0542_lp_s05_3_knife_10_n03041632_44238.png
subject-05,1,543,1.2564480304718,car,boat,5,0543_lp_s05_5_boat_10_n03662601_16526.png
subject-05,1,544,0.786569118499756,keyboard,oven,15,0544_lp_s05_15_oven_10_n04111531_9982.png
subject-05,1,545,0.899184942245483,clock,truck,40,0545_lp_s05_40_truck_10_n04467665_19574.png
subject-05,1,546,1.19751405715942,chair,chair,5,0546_lp_s05_5_chair_10_n02791124_57.png
subject-05,1,547,1.38020515441895,bird,elephant,3,0547_lp_s05_3_elephant_10_n02504013_1103.png
subject-05,1,548,1.00185394287109,car,airplane,40,0548_lp_s05_40_airplane_10_n02690373_20122.png
subject-05,1,549,1.392333984375,bear,clock,7,0549_lp_s05_7_clock_10_n02708093_3745.png
subject-05,1,550,1.21246004104614,boat,cat,40,0550_lp_s05_40_cat_10_n02123159_572.png
subject-05,1,551,0.788318872451782,dog,bear,3,0551_lp_s05_3_bear_10_n02134418_2231.png
subject-05,1,552,0.82476806640625,truck,truck,3,0552_lp_s05_3_truck_10_n04467665_9589.png
subject-05,1,553,0.777578115463257,cat,cat,1,0553_lp_s05_1_cat_10_n02123045_17807.png
subject-05,1,554,0.602557897567749,keyboard,keyboard,7,0554_lp_s05_7_keyboard_10_n03085013_24363.png
subject-05,1,555,0.909225940704346,car,cat,40,0555_lp_s05_40_cat_10_n02123045_8739.png
subject-05,1,556,0.779069185256958,bird,bird,5,0556_lp_s05_5_bird_10_n02037110_1289.png
subject-05,1,557,0.909334182739258,oven,cat,15,0557_lp_s05_15_cat_10_n02123597_4800.png
subject-05,1,558,0.699588060379028,bicycle,bicycle,1,0558_lp_s05_1_bicycle_10_n03792782_6649.png
subject-05,1,559,0.950107097625732,keyboard,oven,3,0559_lp_s05_3_oven_10_n04111531_5290.png
subject-05,1,560,1.31045317649841,keyboard,keyboard,10,0560_lp_s05_10_keyboard_10_n03085013_21602.png
subject-05,1,561,1.3169538974762,cat,truck,10,0561_lp_s05_10_truck_10_n03417042_816.png
subject-05,1,562,0.8748779296875,car,car,1,0562_lp_s05_1_car_10_n04285008_10223.png
subject-05,1,563,0.78062891960144,boat,dog,5,0563_lp_s05_5_dog_10_n02091831_10559.png
subject-05,1,564,0.679110050201416,airplane,airplane,0,0564_lp_s05_0_airplane_10_n02690373_10012.png
subject-05,1,565,0.793845891952515,cat,bear,15,0565_lp_s05_15_bear_10_n02133161_1222.png
subject-05,1,566,0.746306896209717,dog,dog,7,0566_lp_s05_7_dog_10_n02101556_560.png
subject-05,1,567,0.558418035507202,boat,boat,1,0567_lp_s05_1_boat_10_n02951358_618.png
subject-05,1,568,0.693985939025879,car,bear,15,0568_lp_s05_15_bear_10_n02134418_932.png
subject-05,1,569,0.654278039932251,oven,bicycle,40,0569_lp_s05_40_bicycle_10_n02835271_19834.png
subject-05,1,570,0.736523866653442,bottle,bottle,40,0570_lp_s05_40_bottle_10_n04560804_11601.png
subject-05,1,571,0.881067991256714,bird,airplane,40,0571_lp_s05_40_airplane_10_n02690373_2700.png
subject-05,1,572,1.50025296211243,chair,cat,5,0572_lp_s05_5_cat_10_n02124075_11383.png
subject-05,1,573,NaN,na,dog,0,0573_lp_s05_0_dog_10_n02091032_9093.png
subject-05,1,574,NaN,na,truck,0,0574_lp_s05_0_truck_10_n04467665_80465.png
subject-05,1,575,0.779417037963867,cat,cat,1,0575_lp_s05_1_cat_10_n02124075_8712.png
subject-05,1,576,1.14580798149109,keyboard,clock,7,0576_lp_s05_7_clock_10_n03196217_7026.png
subject-05,1,577,0.852078199386597,bird,car,40,0577_lp_s05_40_car_10_n03100240_10175.png
subject-05,1,578,0.804064035415649,car,car,15,0578_lp_s05_15_car_10_n03100240_2971.png
subject-05,1,579,0.84844183921814,cat,cat,3,0579_lp_s05_3_cat_10_n02125311_73963.png
subject-05,1,580,1.00116801261902,dog,bicycle,7,0580_lp_s05_7_bicycle_10_n03792782_15758.png
subject-05,1,581,0.777337074279785,car,chair,15,0581_lp_s05_15_chair_10_n04099969_2574.png
subject-05,1,582,0.851438045501709,knife,knife,5,0582_lp_s05_5_knife_10_n03041632_40652.png
subject-05,1,583,0.741878032684326,boat,boat,1,0583_lp_s05_1_boat_10_n02951358_2524.png
subject-05,1,584,1.03210186958313,bird,truck,15,0584_lp_s05_15_truck_10_n04467665_1410.png
subject-05,1,585,0.775346994400024,cat,bottle,40,0585_lp_s05_40_bottle_10_n02823428_10541.png
subject-05,1,586,0.649570941925049,airplane,airplane,0,0586_lp_s05_0_airplane_10_n02690373_9441.png
subject-05,1,587,0.76214599609375,car,car,40,0587_lp_s05_40_car_10_n02814533_22093.png
subject-05,1,588,0.760260820388794,bottle,bottle,7,0588_lp_s05_7_bottle_10_n03983396_15016.png
subject-05,1,589,0.758539199829102,airplane,bird,7,0589_lp_s05_7_bird_10_n01531178_26977.png
subject-05,1,590,0.688714027404785,cat,dog,5,0590_lp_s05_5_dog_10_n02112018_14506.png
subject-05,1,591,0.692920923233032,boat,boat,15,0591_lp_s05_15_boat_10_n02951358_7238.png
subject-05,1,592,0.631274938583374,cat,cat,5,0592_lp_s05_5_cat_10_n02123394_2789.png
subject-05,1,593,1.31934905052185,cat,oven,10,0593_lp_s05_10_oven_10_n04111531_3955.png
subject-05,1,594,0.679597854614258,keyboard,keyboard,3,0594_lp_s05_3_keyboard_10_n03085013_3257.png
subject-05,1,595,0.854047060012817,clock,dog,40,0595_lp_s05_40_dog_10_n02110063_3722.png
subject-05,1,596,0.813861131668091,elephant,elephant,1,0596_lp_s05_1_elephant_10_n02504013_1533.png
subject-05,1,597,0.674274921417236,dog,dog,0,0597_lp_s05_0_dog_10_n02111129_4259.png
subject-05,1,598,0.902891159057617,bird,bird,1,0598_lp_s05_1_bird_10_n01531178_531.png
subject-05,1,599,0.976906061172485,boat,truck,15,0599_lp_s05_15_truck_10_n03796401_10070.png
subject-05,1,600,1.08269500732422,cat,bear,10,0600_lp_s05_10_bear_10_n02132136_6607.png
subject-05,1,601,1.14089608192444,cat,cat,3,0601_lp_s05_3_cat_10_n02123394_870.png
subject-05,1,602,1.32522296905518,boat,bicycle,10,0602_lp_s05_10_bicycle_10_n03792782_1062.png
subject-05,1,603,0.828947067260742,bird,bird,3,0603_lp_s05_3_bird_10_n01795545_15691.png
subject-05,1,604,0.913064002990723,car,oven,15,0604_lp_s05_15_oven_10_n04111531_14280.png
subject-05,1,605,0.633248090744019,cat,cat,0,0605_lp_s05_0_cat_10_n02123597_7006.png
subject-05,1,606,0.747212886810303,dog,bottle,7,0606_lp_s05_7_bottle_10_n02823428_13280.png
subject-05,1,607,NaN,na,bear,5,0607_lp_s05_5_bear_10_n02134084_16757.png
subject-05,1,608,0.87357497215271,keyboard,oven,10,0608_lp_s05_10_oven_10_n04111531_10622.png
subject-05,1,609,1.02407121658325,boat,chair,15,0609_lp_s05_15_chair_10_n03376595_17747.png
subject-05,1,610,0.776655912399292,truck,truck,0,0610_lp_s05_0_truck_10_n04467665_70894.png
subject-05,1,611,0.812827110290527,chair,bird,5,0611_lp_s05_5_bird_10_n01560419_7498.png
subject-05,1,612,0.848139047622681,elephant,elephant,5,0612_lp_s05_5_elephant_10_n02504013_3847.png
subject-05,1,613,1.19039797782898,clock,clock,1,0613_lp_s05_1_clock_10_n04548280_43.png
subject-05,1,614,1.05726289749146,bicycle,bicycle,0,0614_lp_s05_0_bicycle_10_n03792782_7975.png
subject-05,1,615,0.985826969146729,knife,bottle,3,0615_lp_s05_3_bottle_10_n03983396_3945.png
subject-05,1,616,0.860167026519775,boat,bottle,10,0616_lp_s05_10_bottle_10_n04557648_5826.png
subject-05,1,617,0.690027952194214,bird,elephant,15,0617_lp_s05_15_elephant_10_n02504458_11.png
subject-05,1,618,0.832454204559326,car,airplane,40,0618_lp_s05_40_airplane_10_n02690373_10309.png
subject-05,1,619,0.60836386680603,elephant,elephant,0,0619_lp_s05_0_elephant_10_n02504013_1244.png
subject-05,1,620,0.829060077667236,keyboard,elephant,40,0620_lp_s05_40_elephant_10_n02504458_4716.png
subject-05,1,621,1.31929397583008,bottle,keyboard,10,0621_lp_s05_10_keyboard_10_n03085013_21289.png
subject-05,1,622,0.763025045394897,knife,knife,0,0622_lp_s05_0_knife_10_n03041632_32004.png
subject-05,1,623,0.715573072433472,bird,bottle,3,0623_lp_s05_3_bottle_10_n04557648_1727.png
subject-05,1,624,0.920186042785645,keyboard,keyboard,3,0624_lp_s05_3_keyboard_10_n03085013_20983.png
subject-05,1,625,0.634274959564209,airplane,airplane,0,0625_lp_s05_0_airplane_10_n02690373_2874.png
subject-05,1,626,1.25402498245239,oven,oven,1,0626_lp_s05_1_oven_10_n04111531_1847.png
subject-05,1,627,0.936247825622559,truck,truck,5,0627_lp_s05_5_truck_10_n03417042_6981.png
subject-05,1,628,0.658661127090454,car,car,3,0628_lp_s05_3_car_10_n03100240_5257.png
subject-05,1,629,0.732815027236938,boat,boat,0,0629_lp_s05_0_boat_10_n03344393_4674.png
subject-05,1,630,0.809279918670654,cat,knife,40,0630_lp_s05_40_knife_10_n03041632_40508.png
subject-05,1,631,NaN,na,clock,15,0631_lp_s05_15_clock_10_n03196217_3039.png
subject-05,1,632,0.63494610786438,oven,oven,3,0632_lp_s05_3_oven_10_n04111531_3126.png
subject-05,1,633,0.725104093551636,chair,chair,3,0633_lp_s05_3_chair_10_n04099969_23293.png
subject-05,1,634,1.20528101921082,oven,oven,0,0634_lp_s05_0_oven_10_n04111531_1128.png
subject-05,1,635,0.643656969070435,boat,bird,7,0635_lp_s05_7_bird_10_n02018207_7145.png
subject-05,1,636,1.15569686889648,cat,elephant,15,0636_lp_s05_15_elephant_10_n02504458_7171.png
subject-05,1,637,0.954653024673462,car,car,10,0637_lp_s05_10_car_10_n02814533_68668.png
subject-05,1,638,0.987233877182007,dog,dog,1,0638_lp_s05_1_dog_10_n02093428_18792.png
subject-05,1,639,1.26111006736755,elephant,truck,10,0639_lp_s05_10_truck_10_n04467665_30209.png
subject-05,1,640,0.629201889038086,keyboard,keyboard,1,0640_lp_s05_1_keyboard_10_n03085013_21161.png
subject-05,1,641,1.21329808235168,car,truck,10,0641_lp_s05_10_truck_10_n04467665_31818.png
subject-05,1,642,0.811466932296753,bear,bear,1,0642_lp_s05_1_bear_10_n02132136_9684.png
subject-05,1,643,0.631866931915283,cat,cat,7,0643_lp_s05_7_cat_10_n02125311_30452.png
subject-05,1,644,0.600182056427002,keyboard,clock,7,0644_lp_s05_7_clock_10_n03196217_3862.png
subject-05,1,645,0.490160942077637,boat,cat,40,0645_lp_s05_40_cat_10_n02124075_18062.png
subject-05,1,646,0.796500205993652,oven,chair,5,0646_lp_s05_5_chair_10_n04099969_10966.png
subject-05,1,647,0.570863008499146,bicycle,bicycle,5,0647_lp_s05_5_bicycle_10_n03792782_43204.png
subject-05,1,648,0.869235992431641,boat,keyboard,7,0648_lp_s05_7_keyboard_10_n03085013_22605.png
subject-05,1,649,0.975128889083862,elephant,elephant,10,0649_lp_s05_10_elephant_10_n02504458_12714.png
subject-05,1,650,0.735260963439941,keyboard,keyboard,7,0650_lp_s05_7_keyboard_10_n04505470_4617.png
subject-05,1,651,0.909849882125854,bicycle,bicycle,1,0651_lp_s05_1_bicycle_10_n03792782_15932.png
subject-05,1,652,0.675750970840454,cat,chair,40,0652_lp_s05_40_chair_10_n04099969_24378.png
subject-05,1,653,0.711855888366699,elephant,oven,5,0653_lp_s05_5_oven_10_n04111531_6622.png
subject-05,1,654,1.21052098274231,bear,truck,10,0654_lp_s05_10_truck_10_n03417042_12096.png
subject-05,1,655,0.624368906021118,clock,clock,0,0655_lp_s05_0_clock_10_n04548280_3392.png
subject-05,1,656,0.636422872543335,dog,dog,7,0656_lp_s05_7_dog_10_n02110185_11807.png
subject-05,1,657,1.11837601661682,cat,truck,15,0657_lp_s05_15_truck_10_n03417042_5510.png
subject-05,1,658,0.632911920547485,dog,dog,1,0658_lp_s05_1_dog_10_n02096437_715.png
subject-05,1,659,0.690784931182861,keyboard,boat,40,0659_lp_s05_40_boat_10_n04612504_1224.png
subject-05,1,660,1.1432318687439,airplane,bottle,15,0660_lp_s05_15_bottle_10_n04560804_13927.png
subject-05,1,661,0.803462982177734,cat,elephant,15,0661_lp_s05_15_elephant_10_n02504013_5904.png
subject-05,1,662,0.993651151657104,oven,knife,7,0662_lp_s05_7_knife_10_n03041632_31363.png
subject-05,1,663,0.529827117919922,keyboard,keyboard,3,0663_lp_s05_3_keyboard_10_n04505470_4366.png
subject-05,1,664,0.682386875152588,cat,cat,0,0664_lp_s05_0_cat_10_n02123159_3524.png
subject-05,1,665,0.902765989303589,bird,bird,7,0665_lp_s05_7_bird_10_n01824575_999.png
subject-05,1,666,1.3148980140686,airplane,clock,40,0666_lp_s05_40_clock_10_n02708093_2943.png
subject-05,1,667,0.599392890930176,chair,chair,3,0667_lp_s05_3_chair_10_n02791124_4893.png
subject-05,1,668,0.57532000541687,boat,boat,3,0668_lp_s05_3_boat_10_n03344393_6103.png
subject-05,1,669,0.741786956787109,airplane,airplane,5,0669_lp_s05_5_airplane_10_n02690373_2496.png
subject-05,1,670,1.22431302070618,bicycle,bicycle,3,0670_lp_s05_3_bicycle_10_n03792782_2628.png
subject-05,1,671,0.638439893722534,clock,clock,1,0671_lp_s05_1_clock_10_n04548280_8552.png
subject-05,1,672,0.77486515045166,truck,truck,3,0672_lp_s05_3_truck_10_n03417042_7077.png
subject-05,1,673,0.727480888366699,car,bird,40,0673_lp_s05_40_bird_10_n01514859_9986.png
subject-05,1,674,NaN,na,knife,10,0674_lp_s05_10_knife_10_n03041632_21818.png
subject-05,1,675,1.46865797042847,bird,bird,0,0675_lp_s05_0_bird_10_n01537544_1322.png
subject-05,1,676,0.607030868530273,car,car,3,0676_lp_s05_3_car_10_n04285008_8296.png
subject-05,1,677,0.942416191101074,keyboard,car,7,0677_lp_s05_7_car_10_n03100240_1262.png
subject-05,1,678,0.456730842590332,clock,clock,3,0678_lp_s05_3_clock_10_n04548280_5297.png
subject-05,1,679,0.755302906036377,boat,chair,40,0679_lp_s05_40_chair_10_n03376595_874.png
subject-05,1,680,1.30576491355896,cat,cat,7,0680_lp_s05_7_cat_10_n02125311_5309.png
subject-05,1,681,0.682552099227905,oven,oven,0,0681_lp_s05_0_oven_10_n04111531_7064.png
subject-05,1,682,0.848617076873779,truck,truck,5,0682_lp_s05_5_truck_10_n04467665_45963.png
subject-05,1,683,NaN,na,bottle,15,0683_lp_s05_15_bottle_10_n04557648_8574.png
subject-05,1,684,1.02930998802185,bird,bird,1,0684_lp_s05_1_bird_10_n01534433_166.png
subject-05,1,685,0.675961017608643,dog,dog,15,0685_lp_s05_15_dog_10_n02108000_5519.png
subject-05,1,686,1.21856498718262,car,truck,7,0686_lp_s05_7_truck_10_n03417042_5362.png
subject-05,1,687,0.995057821273804,keyboard,keyboard,5,0687_lp_s05_5_keyboard_10_n04505470_4173.png
subject-05,1,688,0.531836032867432,cat,cat,5,0688_lp_s05_5_cat_10_n02123045_8943.png
subject-05,1,689,0.814213037490845,airplane,airplane,0,0689_lp_s05_0_airplane_10_n02690373_10114.png
subject-05,1,690,0.758373975753784,cat,cat,1,0690_lp_s05_1_cat_10_n02123597_1601.png
subject-05,1,691,0.823827981948853,cat,cat,0,0691_lp_s05_0_cat_10_n02123159_4223.png
subject-05,1,692,1.32227993011475,bird,bicycle,7,0692_lp_s05_7_bicycle_10_n03792782_44390.png
subject-05,1,693,0.674511194229126,keyboard,clock,3,0693_lp_s05_3_clock_10_n03196217_1618.png
subject-05,1,694,0.65691614151001,airplane,airplane,3,0694_lp_s05_3_airplane_10_n02690373_5328.png
subject-05,1,695,1.21736788749695,car,bottle,7,0695_lp_s05_7_bottle_10_n04557648_152.png
subject-05,1,696,1.00565695762634,keyboard,keyboard,0,0696_lp_s05_0_keyboard_10_n03085013_1944.png
subject-05,1,697,0.752218008041382,boat,boat,7,0697_lp_s05_7_boat_10_n03344393_8474.png
subject-05,1,698,0.872321844100952,bicycle,bicycle,0,0698_lp_s05_0_bicycle_10_n03792782_29509.png
subject-05,1,699,1.40772700309753,boat,bicycle,3,0699_lp_s05_3_bicycle_10_n03792782_11461.png
subject-05,1,700,1.04407000541687,car,clock,15,0700_lp_s05_15_clock_10_n04548280_4839.png
subject-05,1,701,0.996063947677612,elephant,elephant,0,0701_lp_s05_0_elephant_10_n02504458_209.png
subject-05,1,702,1.21622800827026,oven,cat,15,0702_lp_s05_15_cat_10_n02123045_8277.png
subject-05,1,703,0.638630867004395,bear,elephant,7,0703_lp_s05_7_elephant_10_n02504458_4553.png
subject-05,1,704,0.713150978088379,dog,dog,7,0704_lp_s05_7_dog_10_n02106166_7075.png
subject-05,1,705,1.04921913146973,bird,bottle,15,0705_lp_s05_15_bottle_10_n03983396_2496.png
subject-05,1,706,1.03947901725769,chair,car,15,0706_lp_s05_15_car_10_n03100240_14485.png
subject-05,1,707,1.06774616241455,keyboard,bottle,1,0707_lp_s05_1_bottle_10_n04579145_9.png
subject-05,1,708,0.806049108505249,car,keyboard,40,0708_lp_s05_40_keyboard_10_n03085013_25181.png
subject-05,1,709,1.25077986717224,oven,bear,10,0709_lp_s05_10_bear_10_n02133161_16198.png
subject-05,1,710,0.825127124786377,car,car,10,0710_lp_s05_10_car_10_n04285008_9923.png
subject-05,1,711,0.855657815933228,knife,knife,3,0711_lp_s05_3_knife_10_n03041632_7495.png
subject-05,1,712,0.960134983062744,oven,keyboard,10,0712_lp_s05_10_keyboard_10_n04505470_4983.png
subject-05,1,713,0.882314920425415,bird,bird,10,0713_lp_s05_10_bird_10_n01531178_3917.png
subject-05,1,714,0.588608026504517,boat,boat,1,0714_lp_s05_1_boat_10_n04273569_3465.png
subject-05,1,715,1.00129199028015,bird,knife,5,0715_lp_s05_5_knife_10_n03041632_101673.png
subject-05,1,716,0.915364980697632,keyboard,keyboard,0,0716_lp_s05_0_keyboard_10_n03085013_23691.png
subject-05,1,717,1.04375314712524,elephant,elephant,5,0717_lp_s05_5_elephant_10_n02504013_6469.png
subject-05,1,718,0.580271005630493,boat,boat,3,0718_lp_s05_3_boat_10_n04273569_3301.png
subject-05,1,719,0.756571054458618,airplane,boat,7,0719_lp_s05_7_boat_10_n02951358_9406.png
subject-05,1,720,0.906908988952637,bird,bird,3,0720_lp_s05_3_bird_10_n02018795_15214.png
subject-05,1,721,1.28917407989502,keyboard,chair,15,0721_lp_s05_15_chair_10_n04099969_451.png
subject-05,1,722,NaN,na,cat,3,0722_lp_s05_3_cat_10_n02123159_2048.png
subject-05,1,723,0.878272771835327,car,bird,40,0723_lp_s05_40_bird_10_n01824575_1204.png
subject-05,1,724,0.716704130172729,car,airplane,3,0724_lp_s05_3_airplane_10_n02690373_5204.png
subject-05,1,725,1.21633911132812,cat,dog,7,0725_lp_s05_7_dog_10_n02087046_2477.png
subject-05,1,726,0.782495975494385,airplane,airplane,1,0726_lp_s05_1_airplane_10_n02690373_1491.png
subject-05,1,727,1.02674698829651,keyboard,keyboard,0,0727_lp_s05_0_keyboard_10_n04505470_4152.png
subject-05,1,728,1.08455300331116,cat,dog,15,0728_lp_s05_15_dog_10_n02093991_7561.png
subject-05,1,729,0.790986061096191,oven,clock,5,0729_lp_s05_5_clock_10_n02708093_3623.png
subject-05,1,730,0.681525945663452,clock,chair,0,0730_lp_s05_0_chair_10_n04429376_805.png
subject-05,1,731,0.871587038040161,car,keyboard,15,0731_lp_s05_15_keyboard_10_n03085013_21645.png
subject-05,1,732,1.00021815299988,cat,cat,0,0732_lp_s05_0_cat_10_n02123597_9230.png
subject-05,1,733,0.938770055770874,dog,dog,10,0733_lp_s05_10_dog_10_n02108000_1397.png
subject-05,1,734,0.95127010345459,bird,keyboard,40,0734_lp_s05_40_keyboard_10_n03085013_22438.png
subject-05,1,735,0.927832126617432,car,oven,10,0735_lp_s05_10_oven_10_n04111531_20407.png
subject-05,1,736,0.772389888763428,cat,cat,10,0736_lp_s05_10_cat_10_n02123159_7785.png
subject-05,1,737,1.06855607032776,airplane,airplane,5,0737_lp_s05_5_airplane_10_n02690373_8175.png
subject-05,1,738,0.921087026596069,dog,dog,3,0738_lp_s05_3_dog_10_n02093428_2519.png
subject-05,1,739,0.751682043075562,bird,bird,5,0739_lp_s05_5_bird_10_n01829413_4945.png
subject-05,1,740,0.879993915557861,car,oven,3,0740_lp_s05_3_oven_10_n04111531_687.png
subject-05,1,741,NaN,na,truck,40,0741_lp_s05_40_truck_10_n03796401_23547.png
subject-05,1,742,0.546382904052734,boat,boat,1,0742_lp_s05_1_boat_10_n04273569_17255.png
subject-05,1,743,0.720924139022827,car,car,5,0743_lp_s05_5_car_10_n02814533_28756.png
subject-05,1,744,1.13355779647827,bird,clock,15,0744_lp_s05_15_clock_10_n03196217_585.png
subject-05,1,745,0.993828058242798,cat,dog,1,0745_lp_s05_1_dog_10_n02095570_2773.png
subject-05,1,746,0.900240898132324,car,bear,10,0746_lp_s05_10_bear_10_n02134084_883.png
subject-05,1,747,1.05869603157043,dog,dog,1,0747_lp_s05_1_dog_10_n02094258_5871.png
subject-05,1,748,1.43237900733948,boat,clock,15,0748_lp_s05_15_clock_10_n04548280_5011.png
subject-05,1,749,0.708724021911621,dog,dog,0,0749_lp_s05_0_dog_10_n02106382_2063.png
subject-05,1,750,0.775086879730225,boat,airplane,15,0750_lp_s05_15_airplane_10_n02690373_3736.png
subject-05,1,751,0.58948802947998,dog,dog,3,0751_lp_s05_3_dog_10_n02094258_4900.png
subject-05,1,752,0.658314943313599,cat,cat,7,0752_lp_s05_7_cat_10_n02124075_9298.png
subject-05,1,753,0.762554883956909,car,bear,15,0753_lp_s05_15_bear_10_n02134418_1084.png
subject-05,1,754,0.622771978378296,keyboard,keyboard,7,0754_lp_s05_7_keyboard_10_n04505470_3531.png
subject-05,1,755,1.02710103988647,oven,knife,3,0755_lp_s05_3_knife_10_n03041632_48151.png
subject-05,1,756,0.703683137893677,keyboard,keyboard,5,0756_lp_s05_5_keyboard_10_n03085013_5622.png
subject-05,1,757,0.909738063812256,truck,truck,7,0757_lp_s05_7_truck_10_n03796401_28465.png
subject-05,1,758,0.78955602645874,bird,chair,15,0758_lp_s05_15_chair_10_n03376595_5304.png
subject-05,1,759,0.712456941604614,car,car,7,0759_lp_s05_7_car_10_n04285008_11688.png
subject-05,1,760,0.686378955841064,cat,boat,15,0760_lp_s05_15_boat_10_n03662601_2631.png
subject-05,1,761,1.06110501289368,truck,clock,7,0761_lp_s05_7_clock_10_n02708093_2012.png
subject-05,1,762,0.653470039367676,bottle,bottle,3,0762_lp_s05_3_bottle_10_n04557648_11484.png
subject-05,1,763,0.95163106918335,clock,chair,3,0763_lp_s05_3_chair_10_n02791124_15778.png
subject-05,1,764,0.856134176254272,bird,bird,15,0764_lp_s05_15_bird_10_n01843383_4786.png
subject-05,1,765,0.786230087280273,car,bear,40,0765_lp_s05_40_bear_10_n02134084_825.png
subject-05,1,766,0.51465916633606,cat,bird,10,0766_lp_s05_10_bird_10_n01818515_7947.png
subject-05,1,767,0.751080989837646,oven,boat,10,0767_lp_s05_10_boat_10_n03344393_2882.png
subject-05,1,768,1.09576988220215,bird,bird,5,0768_lp_s05_5_bird_10_n02007558_5217.png
subject-05,1,769,0.718214988708496,elephant,elephant,1,0769_lp_s05_1_elephant_10_n02504013_10304.png
subject-05,1,770,0.790326833724976,car,boat,40,0770_lp_s05_40_boat_10_n03344393_2724.png
subject-05,1,771,0.690957069396973,dog,dog,5,0771_lp_s05_5_dog_10_n02112350_6518.png
subject-05,1,772,1.33330988883972,boat,bear,0,0772_lp_s05_0_bear_10_n02134418_1749.png
subject-05,1,773,0.947988033294678,bird,knife,7,0773_lp_s05_7_knife_10_n03041632_92637.png
subject-05,1,774,1.10594010353088,clock,truck,40,0774_lp_s05_40_truck_10_n03417042_14567.png
subject-05,1,775,0.736492156982422,elephant,elephant,3,0775_lp_s05_3_elephant_10_n02504458_5444.png
subject-05,1,776,0.911003828048706,clock,clock,0,0776_lp_s05_0_clock_10_n03196217_4342.png
subject-05,1,777,1.10955095291138,elephant,bottle,10,0777_lp_s05_10_bottle_10_n04560804_7644.png
subject-05,1,778,0.853850126266479,bottle,bottle,0,0778_lp_s05_0_bottle_10_n03937543_1364.png
subject-05,1,779,1.04428791999817,chair,bottle,5,0779_lp_s05_5_bottle_10_n03983396_5982.png
subject-05,1,780,1.32451701164246,dog,bear,0,0780_lp_s05_0_bear_10_n02134418_2574.png
subject-05,1,781,1.02517485618591,cat,bicycle,5,0781_lp_s05_5_bicycle_10_n03792782_5036.png
subject-05,1,782,0.737170934677124,cat,cat,5,0782_lp_s05_5_cat_10_n02124075_14241.png
subject-05,1,783,0.989471197128296,boat,truck,5,0783_lp_s05_5_truck_10_n04467665_70480.png
subject-05,1,784,0.647410869598389,oven,dog,15,0784_lp_s05_15_dog_10_n02105162_1276.png
subject-05,1,785,0.961905956268311,cat,cat,0,0785_lp_s05_0_cat_10_n02125311_20146.png
subject-05,1,786,0.760020971298218,truck,truck,0,0786_lp_s05_0_truck_10_n03796401_8765.png
subject-05,1,787,0.751314878463745,car,bottle,15,0787_lp_s05_15_bottle_10_n04557648_14901.png
subject-05,1,788,1.27929902076721,bicycle,dog,40,0788_lp_s05_40_dog_10_n02110958_1811.png
subject-05,1,789,0.655864953994751,bottle,bottle,0,0789_lp_s05_0_bottle_10_n04591713_3771.png
subject-05,1,790,1.09860181808472,chair,boat,15,0790_lp_s05_15_boat_10_n02951358_12489.png
subject-05,1,791,0.780877113342285,airplane,airplane,3,0791_lp_s05_3_airplane_10_n02690373_6803.png
subject-05,1,792,0.665578126907349,car,car,3,0792_lp_s05_3_car_10_n02814533_79846.png
subject-05,1,793,1.18637204170227,knife,knife,0,0793_lp_s05_0_knife_10_n03041632_33255.png
subject-05,1,794,0.930608034133911,boat,boat,15,0794_lp_s05_15_boat_10_n04273569_21360.png
subject-05,1,795,0.774857044219971,dog,dog,5,0795_lp_s05_5_dog_10_n02101556_10458.png
subject-05,1,796,0.773184061050415,boat,boat,0,0796_lp_s05_0_boat_10_n03344393_9231.png
subject-05,1,797,0.779397010803223,oven,chair,40,0797_lp_s05_40_chair_10_n02791124_1729.png
subject-05,1,798,0.695795059204102,oven,oven,0,0798_lp_s05_0_oven_10_n04111531_681.png
subject-05,1,799,0.580661058425903,cat,bottle,40,0799_lp_s05_40_bottle_10_n03983396_19546.png
subject-05,1,800,0.854803085327148,boat,bicycle,10,0800_lp_s05_10_bicycle_10_n02835271_270.png
subject-05,1,801,0.853977918624878,car,oven,1,0801_lp_s05_1_oven_10_n04111531_6903.png
subject-05,1,802,0.866359949111938,bird,bird,1,0802_lp_s05_1_bird_10_n01622779_3548.png
subject-05,1,803,0.950911998748779,car,truck,5,0803_lp_s05_5_truck_10_n04467665_70584.png
subject-05,1,804,0.97863507270813,cat,elephant,7,0804_lp_s05_7_elephant_10_n02504013_2149.png
subject-05,1,805,0.806596040725708,bird,chair,7,0805_lp_s05_7_chair_10_n04429376_21668.png
subject-05,1,806,1.1590850353241,elephant,elephant,7,0806_lp_s05_7_elephant_10_n02504458_2957.png
subject-05,1,807,0.865960836410522,car,knife,5,0807_lp_s05_5_knife_10_n03041632_9635.png
subject-05,1,808,1.40798187255859,truck,chair,3,0808_lp_s05_3_chair_10_n03376595_3010.png
subject-05,1,809,0.676261901855469,cat,car,40,0809_lp_s05_40_car_10_n02814533_14438.png
subject-05,1,810,0.652853965759277,keyboard,keyboard,10,0810_lp_s05_10_keyboard_10_n04505470_4371.png
subject-05,1,811,1.01939105987549,elephant,elephant,5,0811_lp_s05_5_elephant_10_n02504458_5264.png
subject-05,1,812,0.625869035720825,clock,clock,5,0812_lp_s05_5_clock_10_n04548280_2299.png
subject-05,1,813,0.684500217437744,car,bear,5,0813_lp_s05_5_bear_10_n02134418_517.png
subject-05,1,814,0.644317150115967,keyboard,keyboard,1,0814_lp_s05_1_keyboard_10_n03085013_19412.png
subject-05,1,815,1.25684595108032,clock,clock,15,0815_lp_s05_15_clock_10_n04548280_2451.png
subject-05,1,816,0.917189836502075,bird,bird,1,0816_lp_s05_1_bird_10_n02013706_1734.png
subject-05,1,817,1.01553297042847,car,bird,0,0817_lp_s05_0_bird_10_n01592084_9625.png
subject-05,1,818,1.05736589431763,cat,cat,7,0818_lp_s05_7_cat_10_n02123045_7698.png
subject-05,1,819,0.549490928649902,clock,clock,0,0819_lp_s05_0_clock_10_n04548280_2045.png
subject-05,1,820,0.840008020401001,elephant,elephant,10,0820_lp_s05_10_elephant_10_n02504458_237.png
subject-05,1,821,1.47427296638489,airplane,chair,10,0821_lp_s05_10_chair_10_n02791124_5401.png
subject-05,1,822,0.818833112716675,cat,cat,0,0822_lp_s05_0_cat_10_n02123394_2169.png
subject-05,1,823,0.825493812561035,car,bottle,15,0823_lp_s05_15_bottle_10_n03937543_3304.png
subject-05,1,824,0.823827981948853,bottle,bottle,40,0824_lp_s05_40_bottle_10_n03983396_5913.png
subject-05,1,825,1.12818908691406,oven,oven,15,0825_lp_s05_15_oven_10_n04111531_6851.png
subject-05,1,826,1.04279708862305,boat,boat,15,0826_lp_s05_15_boat_10_n04273569_3813.png
subject-05,1,827,1.10929703712463,bicycle,bicycle,3,0827_lp_s05_3_bicycle_10_n03792782_15627.png
subject-05,1,828,0.923273086547852,car,elephant,10,0828_lp_s05_10_elephant_10_n02504458_2417.png
subject-05,1,829,1.00606107711792,boat,truck,15,0829_lp_s05_15_truck_10_n03417042_19978.png
subject-05,1,830,0.682462930679321,clock,clock,1,0830_lp_s05_1_clock_10_n02708093_3577.png
subject-05,1,831,0.794757843017578,bird,cat,15,0831_lp_s05_15_cat_10_n02123597_2275.png
subject-05,1,832,0.823206901550293,bottle,bottle,40,0832_lp_s05_40_bottle_10_n04557648_1293.png
subject-05,1,833,0.737889051437378,elephant,elephant,3,0833_lp_s05_3_elephant_10_n02504013_6671.png
subject-05,1,834,0.706169128417969,car,car,7,0834_lp_s05_7_car_10_n02814533_21949.png
subject-05,1,835,0.848381042480469,boat,bicycle,10,0835_lp_s05_10_bicycle_10_n02835271_7866.png
subject-05,1,836,0.977098941802979,truck,truck,3,0836_lp_s05_3_truck_10_n03417042_5125.png
subject-05,1,837,0.745847940444946,car,dog,40,0837_lp_s05_40_dog_10_n02090721_481.png
subject-05,1,838,1.15789008140564,bird,dog,15,0838_lp_s05_15_dog_10_n02107908_3160.png
subject-05,1,839,0.826536893844604,elephant,elephant,1,0839_lp_s05_1_elephant_10_n02504458_5949.png
subject-05,1,840,0.747267007827759,truck,cat,40,0840_lp_s05_40_cat_10_n02123394_3339.png
subject-05,1,841,0.715636014938354,oven,chair,40,0841_lp_s05_40_chair_10_n04429376_14804.png
subject-05,1,842,1.12757897377014,cat,oven,10,0842_lp_s05_10_oven_10_n04111531_2872.png
subject-05,1,843,0.834007978439331,car,chair,7,0843_lp_s05_7_chair_10_n02791124_7581.png
subject-05,1,844,0.916234970092773,bottle,bottle,3,0844_lp_s05_3_bottle_10_n03983396_4007.png
subject-05,1,845,0.853068113327026,bird,bird,0,0845_lp_s05_0_bird_10_n02009229_14963.png
subject-05,1,846,1.05918502807617,car,oven,5,0846_lp_s05_5_oven_10_n04111531_7469.png
subject-05,1,847,1.06556487083435,cat,cat,1,0847_lp_s05_1_cat_10_n02123394_5669.png
subject-05,1,848,1.06180500984192,elephant,bicycle,7,0848_lp_s05_7_bicycle_10_n03792782_12411.png
subject-05,1,849,0.615981101989746,keyboard,keyboard,3,0849_lp_s05_3_keyboard_10_n03085013_4160.png
subject-05,1,850,0.744861125946045,car,knife,10,0850_lp_s05_10_knife_10_n03041632_15299.png
subject-05,1,851,1.08715391159058,boat,boat,5,0851_lp_s05_5_boat_10_n04273569_3611.png
subject-05,1,852,0.787456035614014,bird,oven,15,0852_lp_s05_15_oven_10_n04111531_17072.png
subject-05,1,853,0.730026960372925,chair,chair,10,0853_lp_s05_10_chair_10_n04099969_18991.png
subject-05,1,854,1.01487898826599,dog,bottle,5,0854_lp_s05_5_bottle_10_n02823428_6171.png
subject-05,1,855,0.819104909896851,bird,cat,40,0855_lp_s05_40_cat_10_n02125311_9605.png
subject-05,1,856,0.909399032592773,car,bicycle,5,0856_lp_s05_5_bicycle_10_n03792782_5672.png
subject-05,1,857,0.761935949325562,cat,elephant,40,0857_lp_s05_40_elephant_10_n02504013_410.png
subject-05,1,858,0.730607032775879,bicycle,bicycle,1,0858_lp_s05_1_bicycle_10_n03792782_9699.png
subject-05,1,859,0.866883993148804,boat,boat,1,0859_lp_s05_1_boat_10_n03344393_231.png
subject-05,1,860,0.819419860839844,car,knife,40,0860_lp_s05_40_knife_10_n03041632_4808.png
subject-05,1,861,1.14778900146484,bird,chair,10,0861_lp_s05_10_chair_10_n04099969_2654.png
subject-05,1,862,1.02249598503113,dog,knife,7,0862_lp_s05_7_knife_10_n03041632_5302.png
subject-05,1,863,0.774555921554565,airplane,airplane,5,0863_lp_s05_5_airplane_10_n02690373_1351.png
subject-05,1,864,0.941133975982666,car,chair,40,0864_lp_s05_40_chair_10_n02791124_3631.png
subject-05,1,865,0.963484048843384,bird,elephant,15,0865_lp_s05_15_elephant_10_n02504458_1652.png
subject-05,1,866,0.753687143325806,bicycle,bicycle,3,0866_lp_s05_3_bicycle_10_n02835271_7326.png
subject-05,1,867,0.727496862411499,cat,elephant,10,0867_lp_s05_10_elephant_10_n02504013_13223.png
subject-05,1,868,0.810432910919189,car,bottle,3,0868_lp_s05_3_bottle_10_n03983396_100.png
subject-05,1,869,0.862766027450562,bird,bottle,10,0869_lp_s05_10_bottle_10_n03983396_7576.png
subject-05,1,870,1.1071150302887,dog,knife,10,0870_lp_s05_10_knife_10_n03041632_27929.png
subject-05,1,871,0.973564147949219,car,bear,5,0871_lp_s05_5_bear_10_n02134084_23000.png
subject-05,1,872,1.14873290061951,bird,bottle,0,0872_lp_s05_0_bottle_10_n03937543_5424.png
subject-05,1,873,0.91643500328064,car,car,7,0873_lp_s05_7_car_10_n02814533_80187.png
subject-05,1,874,1.14528179168701,knife,knife,5,0874_lp_s05_5_knife_10_n03041632_13645.png
subject-05,1,875,0.759614944458008,bird,cat,15,0875_lp_s05_15_cat_10_n02125311_12445.png
subject-05,1,876,1.10231494903564,car,dog,3,0876_lp_s05_3_dog_10_n02110185_6680.png
subject-05,1,877,0.864464044570923,cat,bird,7,0877_lp_s05_7_bird_10_n01622779_10157.png
subject-05,1,878,1.05220508575439,cat,bear,0,0878_lp_s05_0_bear_10_n02134418_2553.png
subject-05,1,879,0.690571784973145,airplane,airplane,1,0879_lp_s05_1_airplane_10_n02690373_1295.png
subject-05,1,880,0.972946166992188,bicycle,bicycle,3,0880_lp_s05_3_bicycle_10_n02835271_6873.png
subject-05,1,881,1.38552308082581,car,bird,3,0881_lp_s05_3_bird_10_n01582220_565.png
subject-05,1,882,0.854221105575562,cat,cat,5,0882_lp_s05_5_cat_10_n02125311_5464.png
subject-05,1,883,1.02857398986816,boat,keyboard,7,0883_lp_s05_7_keyboard_10_n03085013_22813.png
subject-05,1,884,1.20311498641968,chair,clock,5,0884_lp_s05_5_clock_10_n04548280_399.png
subject-05,1,885,0.571408987045288,bicycle,bicycle,7,0885_lp_s05_7_bicycle_10_n03792782_2035.png
subject-05,1,886,1.09190821647644,knife,knife,0,0886_lp_s05_0_knife_10_n03041632_42526.png
subject-05,1,887,0.798469066619873,oven,elephant,40,0887_lp_s05_40_elephant_10_n02504458_9922.png
subject-05,1,888,0.904803991317749,airplane,bicycle,5,0888_lp_s05_5_bicycle_10_n02835271_21216.png
subject-05,1,889,0.595399141311646,boat,boat,0,0889_lp_s05_0_boat_10_n03344393_2924.png
subject-05,1,890,0.685791015625,car,bird,10,0890_lp_s05_10_bird_10_n01534433_4964.png
subject-05,1,891,0.830336093902588,cat,bird,15,0891_lp_s05_15_bird_10_n02013706_4526.png
subject-05,1,892,0.942873954772949,truck,boat,7,0892_lp_s05_7_boat_10_n02951358_29352.png
subject-05,1,893,0.79542088508606,clock,dog,15,0893_lp_s05_15_dog_10_n02091134_6410.png
subject-05,1,894,0.747403860092163,car,car,3,0894_lp_s05_3_car_10_n03100240_1471.png
subject-05,1,895,0.79167914390564,bird,bear,15,0895_lp_s05_15_bear_10_n02134084_4715.png
subject-05,1,896,1.15007519721985,knife,knife,1,0896_lp_s05_1_knife_10_n03041632_99799.png
subject-05,1,897,1.22446799278259,airplane,keyboard,40,0897_lp_s05_40_keyboard_10_n03085013_24612.png
subject-05,1,898,1.50000095367432,bear,bear,1,0898_lp_s05_1_bear_10_n02134084_34722.png
subject-05,1,899,0.87559700012207,airplane,airplane,7,0899_lp_s05_7_airplane_10_n02690373_7496.png
subject-05,1,900,0.681875944137573,boat,airplane,15,0900_lp_s05_15_airplane_10_n02690373_9060.png
subject-05,1,901,1.22662401199341,elephant,boat,7,0901_lp_s05_7_boat_10_n03344393_5103.png
subject-05,1,902,1.00910401344299,car,bicycle,15,0902_lp_s05_15_bicycle_10_n02835271_2960.png
subject-05,1,903,0.884961128234863,chair,chair,3,0903_lp_s05_3_chair_10_n04429376_31962.png
subject-05,1,904,0.858780145645142,truck,truck,3,0904_lp_s05_3_truck_10_n03796401_23014.png
subject-05,1,905,NaN,na,cat,40,0905_lp_s05_40_cat_10_n02123045_7845.png
subject-05,1,906,0.731929063796997,car,car,3,0906_lp_s05_3_car_10_n03100240_947.png
subject-05,1,907,0.814325094223022,truck,truck,3,0907_lp_s05_3_truck_10_n04467665_12557.png
subject-05,1,908,0.850750923156738,truck,truck,5,0908_lp_s05_5_truck_10_n03417042_6033.png
subject-05,1,909,0.779335975646973,chair,chair,1,0909_lp_s05_1_chair_10_n03376595_10318.png
subject-05,1,910,0.84703803062439,car,chair,40,0910_lp_s05_40_chair_10_n04429376_17336.png
subject-05,1,911,1.22979378700256,bear,bear,7,0911_lp_s05_7_bear_10_n02134418_3396.png
subject-05,1,912,0.820024013519287,keyboard,oven,15,0912_lp_s05_15_oven_10_n04111531_2207.png
subject-05,1,913,0.756418228149414,cat,cat,7,0913_lp_s05_7_cat_10_n02123597_1580.png
subject-05,1,914,0.630398035049438,clock,clock,0,0914_lp_s05_0_clock_10_n02708093_4597.png
subject-05,1,915,1.30467391014099,boat,bird,5,0915_lp_s05_5_bird_10_n02056570_10293.png
subject-05,1,916,1.3791389465332,cat,cat,15,0916_lp_s05_15_cat_10_n02123394_3700.png
subject-05,1,917,1.02329611778259,chair,chair,1,0917_lp_s05_1_chair_10_n04099969_5746.png
subject-05,1,918,0.87592601776123,keyboard,oven,10,0918_lp_s05_10_oven_10_n04111531_4959.png
subject-05,1,919,0.928414106369019,boat,airplane,10,0919_lp_s05_10_airplane_10_n02690373_9659.png
subject-05,1,920,1.25651693344116,boat,boat,0,0920_lp_s05_0_boat_10_n02951358_22867.png
subject-05,1,921,1.40700602531433,car,clock,15,0921_lp_s05_15_clock_10_n04548280_530.png
subject-05,1,922,1.14322304725647,bird,dog,10,0922_lp_s05_10_dog_10_n02105056_4201.png
subject-05,1,923,0.819808959960938,keyboard,keyboard,0,0923_lp_s05_0_keyboard_10_n04505470_2792.png
subject-05,1,924,0.945719003677368,elephant,bird,10,0924_lp_s05_10_bird_10_n01817953_8291.png
subject-05,1,925,0.76761794090271,boat,oven,3,0925_lp_s05_3_oven_10_n04111531_19274.png
subject-05,1,926,0.649978160858154,chair,chair,7,0926_lp_s05_7_chair_10_n04429376_10158.png
subject-05,1,927,0.832298994064331,car,knife,15,0927_lp_s05_15_knife_10_n03041632_3504.png
subject-05,1,928,0.873954057693481,boat,elephant,7,0928_lp_s05_7_elephant_10_n02504458_7968.png
subject-05,1,929,0.788255929946899,knife,knife,0,0929_lp_s05_0_knife_10_n03041632_44269.png
subject-05,1,930,0.97629714012146,bear,bird,10,0930_lp_s05_10_bird_10_n01622779_1759.png
subject-05,1,931,0.866414070129395,bicycle,clock,40,0931_lp_s05_40_clock_10_n03196217_8254.png
subject-05,1,932,1.50015616416931,oven,keyboard,0,0932_lp_s05_0_keyboard_10_n04505470_2698.png
subject-05,1,933,0.67107892036438,car,elephant,15,0933_lp_s05_15_elephant_10_n02504013_5165.png
subject-05,1,934,0.63156795501709,keyboard,boat,15,0934_lp_s05_15_boat_10_n04273569_12319.png
subject-05,1,935,0.84433388710022,boat,airplane,3,0935_lp_s05_3_airplane_10_n02690373_919.png
subject-05,1,936,1.50000214576721,truck,oven,15,0936_lp_s05_15_oven_10_n04111531_283.png
subject-05,1,937,0.664650917053223,oven,oven,0,0937_lp_s05_0_oven_10_n04111531_1830.png
subject-05,1,938,1.09883809089661,cat,bird,10,0938_lp_s05_10_bird_10_n02006656_8889.png
subject-05,1,939,1.20907306671143,dog,bear,0,0939_lp_s05_0_bear_10_n02132136_608.png
subject-05,1,940,1.00756287574768,knife,knife,0,0940_lp_s05_0_knife_10_n03041632_6446.png
subject-05,1,941,0.844090938568115,car,knife,15,0941_lp_s05_15_knife_10_n03041632_86118.png
subject-05,1,942,0.642735958099365,oven,knife,7,0942_lp_s05_7_knife_10_n03041632_39883.png
subject-05,1,943,0.954622030258179,clock,elephant,15,0943_lp_s05_15_elephant_10_n02504458_7994.png
subject-05,1,944,0.615219116210938,keyboard,keyboard,5,0944_lp_s05_5_keyboard_10_n04505470_5038.png
subject-05,1,945,0.627264022827148,airplane,airplane,7,0945_lp_s05_7_airplane_10_n02690373_1381.png
subject-05,1,946,0.687775850296021,bottle,bottle,5,0946_lp_s05_5_bottle_10_n02823428_1245.png
subject-05,1,947,0.954058885574341,dog,bird,7,0947_lp_s05_7_bird_10_n01531178_6241.png
subject-05,1,948,0.966131210327148,boat,boat,40,0948_lp_s05_40_boat_10_n03344393_7870.png
subject-05,1,949,1.45675611495972,airplane,car,10,0949_lp_s05_10_car_10_n04285008_2924.png
subject-05,1,950,1.44511413574219,car,clock,1,0950_lp_s05_1_clock_10_n02708093_2020.png
subject-05,1,951,0.975906848907471,chair,clock,10,0951_lp_s05_10_clock_10_n04548280_3614.png
subject-05,1,952,0.781680822372437,dog,dog,3,0952_lp_s05_3_dog_10_n02109047_5679.png
subject-05,1,953,0.718544006347656,car,car,0,0953_lp_s05_0_car_10_n04285008_14423.png
subject-05,1,954,0.830604076385498,airplane,airplane,0,0954_lp_s05_0_airplane_10_n02690373_4893.png
subject-05,1,955,0.920976877212524,dog,dog,1,0955_lp_s05_1_dog_10_n02107574_6107.png
subject-05,1,956,0.987438201904297,cat,truck,10,0956_lp_s05_10_truck_10_n03417042_1262.png
subject-05,1,957,1.04006314277649,bird,knife,7,0957_lp_s05_7_knife_10_n03041632_6708.png
subject-05,1,958,1.3442280292511,car,bicycle,0,0958_lp_s05_0_bicycle_10_n02835271_9260.png
subject-05,1,959,1.05431699752808,oven,clock,5,0959_lp_s05_5_clock_10_n02708093_2949.png
subject-05,1,960,0.967095136642456,bottle,bottle,1,0960_lp_s05_1_bottle_10_n04591713_3062.png
subject-05,1,961,1.11575508117676,keyboard,keyboard,5,0961_lp_s05_5_keyboard_10_n03085013_19512.png
subject-05,1,962,0.721901893615723,oven,oven,1,0962_lp_s05_1_oven_10_n04111531_547.png
subject-05,1,963,0.613147020339966,bird,bird,0,0963_lp_s05_0_bird_10_n02017213_1149.png
subject-05,1,964,1.41945600509644,chair,elephant,10,0964_lp_s05_10_elephant_10_n02504458_6132.png
subject-05,1,965,NaN,na,knife,1,0965_lp_s05_1_knife_10_n03041632_41077.png
subject-05,1,966,0.6838059425354,truck,truck,1,0966_lp_s05_1_truck_10_n03417042_7869.png
subject-05,1,967,0.866272926330566,keyboard,keyboard,5,0967_lp_s05_5_keyboard_10_n03085013_4157.png
subject-05,1,968,0.932538986206055,chair,chair,1,0968_lp_s05_1_chair_10_n02791124_4432.png
subject-05,1,969,0.82525110244751,truck,truck,7,0969_lp_s05_7_truck_10_n03417042_3084.png
subject-05,1,970,0.937675952911377,cat,dog,5,0970_lp_s05_5_dog_10_n02094258_1681.png
subject-05,1,971,0.944055080413818,car,car,5,0971_lp_s05_5_car_10_n03100240_1140.png
subject-05,1,972,1.06509208679199,bottle,clock,0,0972_lp_s05_0_clock_10_n04548280_2570.png
subject-05,1,973,0.870589971542358,knife,knife,7,0973_lp_s05_7_knife_10_n03041632_8468.png
subject-05,1,974,0.584801912307739,keyboard,keyboard,7,0974_lp_s05_7_keyboard_10_n04505470_4844.png
subject-05,1,975,1.09751391410828,boat,boat,1,0975_lp_s05_1_boat_10_n02951358_13454.png
subject-05,1,976,1.06566405296326,knife,knife,7,0976_lp_s05_7_knife_10_n03041632_21425.png
subject-05,1,977,0.545016050338745,bottle,bottle,1,0977_lp_s05_1_bottle_10_n04557648_841.png
subject-05,1,978,1.28953289985657,knife,knife,3,0978_lp_s05_3_knife_10_n03041632_8528.png
subject-05,1,979,1.11755514144897,cat,cat,15,0979_lp_s05_15_cat_10_n02123159_2663.png
subject-05,1,980,0.924104928970337,oven,bird,0,0980_lp_s05_0_bird_10_n01833805_6528.png
subject-05,1,981,0.846619129180908,bicycle,bicycle,1,0981_lp_s05_1_bicycle_10_n02835271_2871.png
subject-05,1,982,0.94295597076416,car,bottle,7,0982_lp_s05_7_bottle_10_n02823428_8149.png
subject-05,1,983,0.693948030471802,car,car,5,0983_lp_s05_5_car_10_n02814533_8757.png
subject-05,1,984,1.12805700302124,boat,boat,10,0984_lp_s05_10_boat_10_n03662601_35244.png
subject-05,1,985,0.612113952636719,boat,boat,5,0985_lp_s05_5_boat_10_n03344393_4573.png
subject-05,1,986,0.986454010009766,keyboard,keyboard,1,0986_lp_s05_1_keyboard_10_n03085013_23109.png
subject-05,1,987,0.800986051559448,bird,knife,15,0987_lp_s05_15_knife_10_n03041632_18959.png
subject-05,1,988,0.729779958724976,bird,bird,1,0988_lp_s05_1_bird_10_n01616318_3933.png
subject-05,1,989,0.636085987091064,clock,clock,1,0989_lp_s05_1_clock_10_n03196217_7533.png
subject-05,1,990,0.769826173782349,cat,clock,40,0990_lp_s05_40_clock_10_n02708093_3743.png
subject-05,1,991,0.746159076690674,boat,airplane,1,0991_lp_s05_1_airplane_10_n02690373_19286.png
subject-05,1,992,0.706693887710571,car,car,7,0992_lp_s05_7_car_10_n03100240_8206.png
subject-05,1,993,0.865169048309326,cat,cat,3,0993_lp_s05_3_cat_10_n02124075_12648.png
subject-05,1,994,0.831441164016724,bear,bear,0,0994_lp_s05_0_bear_10_n02134084_12341.png
subject-05,1,995,0.976109981536865,oven,bird,40,0995_lp_s05_40_bird_10_n01582220_7300.png
subject-05,1,996,0.720824003219604,car,bear,40,0996_lp_s05_40_bear_10_n02134418_3284.png
subject-05,1,997,1.01863789558411,clock,clock,3,0997_lp_s05_3_clock_10_n03196217_5992.png
subject-05,1,998,0.847356796264648,keyboard,keyboard,5,0998_lp_s05_5_keyboard_10_n03085013_23316.png
subject-05,1,999,0.545145988464355,cat,cat,0,0999_lp_s05_0_cat_10_n02123159_6131.png
subject-05,1,1000,0.811628103256226,bear,elephant,10,1000_lp_s05_10_elephant_10_n02504013_5678.png
subject-05,1,1001,1.0781409740448,car,bicycle,40,1001_lp_s05_40_bicycle_10_n02835271_10814.png
subject-05,1,1002,0.884723901748657,bear,bear,1,1002_lp_s05_1_bear_10_n02132136_29772.png
subject-05,1,1003,0.82368803024292,bird,bird,3,1003_lp_s05_3_bird_10_n02018207_15218.png
subject-05,1,1004,1.02045607566833,chair,chair,15,1004_lp_s05_15_chair_10_n04099969_34538.png
subject-05,1,1005,0.989073038101196,bird,clock,5,1005_lp_s05_5_clock_10_n02708093_462.png
subject-05,1,1006,1.17947888374329,bottle,knife,1,1006_lp_s05_1_knife_10_n03041632_17100.png
subject-05,1,1007,0.923379898071289,chair,chair,7,1007_lp_s05_7_chair_10_n03376595_12960.png
subject-05,1,1008,0.52195405960083,car,bicycle,10,1008_lp_s05_10_bicycle_10_n03792782_922.png
subject-05,1,1009,NaN,na,elephant,7,1009_lp_s05_7_elephant_10_n02504013_4150.png
subject-05,1,1010,0.900650024414062,bird,clock,40,1010_lp_s05_40_clock_10_n03196217_5610.png
subject-05,1,1011,0.791555881500244,elephant,elephant,40,1011_lp_s05_40_elephant_10_n02504458_9957.png
subject-05,1,1012,0.651371955871582,truck,truck,1,1012_lp_s05_1_truck_10_n04467665_54349.png
subject-05,1,1013,0.825730085372925,chair,oven,7,1013_lp_s05_7_oven_10_n04111531_9613.png
subject-05,1,1014,1.15844917297363,airplane,bottle,1,1014_lp_s05_1_bottle_10_n03937543_2357.png
subject-05,1,1015,0.940603017807007,bottle,oven,7,1015_lp_s05_7_oven_10_n04111531_22784.png
subject-05,1,1016,0.779019832611084,boat,boat,15,1016_lp_s05_15_boat_10_n03344393_2599.png
subject-05,1,1017,0.98365592956543,bear,bear,3,1017_lp_s05_3_bear_10_n02132136_22701.png
subject-05,1,1018,0.744079113006592,cat,dog,10,1018_lp_s05_10_dog_10_n02106550_11216.png
subject-05,1,1019,1.0343918800354,chair,bear,40,1019_lp_s05_40_bear_10_n02134418_5527.png
subject-05,1,1020,0.85425591468811,car,oven,40,1020_lp_s05_40_oven_10_n04111531_2937.png
subject-05,1,1021,0.798304080963135,boat,clock,15,1021_lp_s05_15_clock_10_n04548280_5519.png
subject-05,1,1022,0.940495014190674,dog,chair,10,1022_lp_s05_10_chair_10_n04099969_1231.png
subject-05,1,1023,0.816835880279541,keyboard,car,15,1023_lp_s05_15_car_10_n04285008_3445.png
subject-05,1,1024,0.899528026580811,bird,oven,5,1024_lp_s05_5_oven_10_n04111531_21973.png
subject-05,1,1025,0.821865081787109,oven,oven,1,1025_lp_s05_1_oven_10_n04111531_6934.png
subject-05,1,1026,0.818479061126709,bird,elephant,10,1026_lp_s05_10_elephant_10_n02504458_8197.png
subject-05,1,1027,0.848333120346069,car,oven,7,1027_lp_s05_7_oven_10_n04111531_5965.png
subject-05,1,1028,0.722891092300415,chair,chair,3,1028_lp_s05_3_chair_10_n04429376_9312.png
subject-05,1,1029,0.667304039001465,oven,bird,3,1029_lp_s05_3_bird_10_n01824575_910.png
subject-05,1,1030,1.02543902397156,airplane,airplane,1,1030_lp_s05_1_airplane_10_n02690373_9071.png
subject-05,1,1031,1.44608902931213,bear,bear,5,1031_lp_s05_5_bear_10_n02134084_5856.png
subject-05,1,1032,1.40620803833008,airplane,airplane,10,1032_lp_s05_10_airplane_10_n02690373_6455.png
subject-05,1,1033,0.744982957839966,cat,bicycle,10,1033_lp_s05_10_bicycle_10_n02835271_7628.png
subject-05,1,1034,0.974617004394531,keyboard,keyboard,3,1034_lp_s05_3_keyboard_10_n04505470_183.png
subject-05,1,1035,1.20310187339783,bear,bear,7,1035_lp_s05_7_bear_10_n02132136_8312.png
subject-05,1,1036,1.27955913543701,knife,oven,5,1036_lp_s05_5_oven_10_n04111531_6474.png
subject-05,1,1037,0.661803960800171,oven,oven,0,1037_lp_s05_0_oven_10_n04111531_8531.png
subject-05,1,1038,0.738158941268921,bird,elephant,0,1038_lp_s05_0_elephant_10_n02504013_572.png
subject-05,1,1039,0.70456600189209,cat,knife,10,1039_lp_s05_10_knife_10_n03041632_32377.png
subject-05,1,1040,1.33310008049011,bear,bear,7,1040_lp_s05_7_bear_10_n02132136_965.png
subject-05,1,1041,0.717412948608398,oven,car,10,1041_lp_s05_10_car_10_n03100240_977.png
subject-05,1,1042,0.876039981842041,bird,bird,1,1042_lp_s05_1_bird_10_n01833805_3007.png
subject-05,1,1043,0.920413017272949,boat,truck,10,1043_lp_s05_10_truck_10_n04467665_72022.png
subject-05,1,1044,1.16471791267395,airplane,bottle,40,1044_lp_s05_40_bottle_10_n04557648_3727.png
subject-05,1,1045,1.50034403800964,bear,dog,15,1045_lp_s05_15_dog_10_n02101388_7568.png
subject-05,1,1046,0.821438074111938,knife,knife,10,1046_lp_s05_10_knife_10_n03041632_29580.png
subject-05,1,1047,0.803793907165527,car,chair,40,1047_lp_s05_40_chair_10_n04429376_18627.png
subject-05,1,1048,0.764487028121948,bird,bird,40,1048_lp_s05_40_bird_10_n01817953_10010.png
subject-05,1,1049,0.762898206710815,oven,cat,10,1049_lp_s05_10_cat_10_n02123159_6971.png
subject-05,1,1050,1.20760607719421,bear,cat,10,1050_lp_s05_10_cat_10_n02123597_14171.png
subject-05,1,1051,1.34161400794983,boat,bear,0,1051_lp_s05_0_bear_10_n02134084_15968.png
subject-05,1,1052,0.725490093231201,bicycle,bicycle,3,1052_lp_s05_3_bicycle_10_n03792782_5639.png
subject-05,1,1053,1.26805806159973,bear,boat,10,1053_lp_s05_10_boat_10_n04273569_103.png
subject-05,1,1054,0.778197050094604,clock,knife,40,1054_lp_s05_40_knife_10_n03041632_25512.png
subject-05,1,1055,0.860580205917358,car,truck,15,1055_lp_s05_15_truck_10_n04467665_66535.png
subject-05,1,1056,0.881205081939697,bird,truck,40,1056_lp_s05_40_truck_10_n04467665_197.png
subject-05,1,1057,0.581362962722778,clock,clock,0,1057_lp_s05_0_clock_10_n02708093_2815.png
subject-05,1,1058,0.710493803024292,cat,bicycle,15,1058_lp_s05_15_bicycle_10_n03792782_5317.png
subject-05,1,1059,0.830302000045776,oven,clock,7,1059_lp_s05_7_clock_10_n04548280_1325.png
subject-05,1,1060,0.782611846923828,oven,knife,3,1060_lp_s05_3_knife_10_n03041632_11773.png
subject-05,1,1061,1.17112898826599,keyboard,keyboard,7,1061_lp_s05_7_keyboard_10_n04505470_10581.png
subject-05,1,1062,0.93205714225769,bird,elephant,3,1062_lp_s05_3_elephant_10_n02504013_3519.png
subject-05,1,1063,0.684749126434326,car,bicycle,3,1063_lp_s05_3_bicycle_10_n02835271_1221.png
subject-05,1,1064,1.45907497406006,bird,airplane,7,1064_lp_s05_7_airplane_10_n02690373_10727.png
subject-05,1,1065,1.41928911209106,truck,oven,40,1065_lp_s05_40_oven_10_n04111531_4963.png
subject-05,1,1066,0.679252147674561,bottle,keyboard,1,1066_lp_s05_1_keyboard_10_n03085013_19775.png
subject-05,1,1067,0.724035978317261,clock,bear,40,1067_lp_s05_40_bear_10_n02133161_14154.png
subject-05,1,1068,0.806277990341187,boat,airplane,7,1068_lp_s05_7_airplane_10_n02690373_3561.png
subject-05,1,1069,0.750415086746216,bear,bear,10,1069_lp_s05_10_bear_10_n02134418_1347.png
subject-05,1,1070,0.671236991882324,clock,clock,5,1070_lp_s05_5_clock_10_n02708093_2178.png
subject-05,1,1071,0.847576856613159,clock,clock,0,1071_lp_s05_0_clock_10_n04548280_7885.png
subject-05,1,1072,1.34336113929749,truck,truck,0,1072_lp_s05_0_truck_10_n04467665_2535.png
subject-05,1,1073,0.871683120727539,clock,clock,3,1073_lp_s05_3_clock_10_n02708093_6414.png
subject-05,1,1074,0.777432918548584,bird,cat,15,1074_lp_s05_15_cat_10_n02123159_6976.png
subject-05,1,1075,1.17593598365784,car,truck,15,1075_lp_s05_15_truck_10_n04467665_14719.png
subject-05,1,1076,1.42568206787109,airplane,airplane,7,1076_lp_s05_7_airplane_10_n02690373_1450.png
subject-05,1,1077,NaN,na,keyboard,40,1077_lp_s05_40_keyboard_10_n04505470_4873.png
subject-05,1,1078,0.84682297706604,airplane,airplane,3,1078_lp_s05_3_airplane_10_n02690373_3984.png
subject-05,1,1079,0.767312049865723,car,bear,7,1079_lp_s05_7_bear_10_n02132136_19488.png
subject-05,1,1080,1.13372802734375,airplane,clock,15,1080_lp_s05_15_clock_10_n03196217_5463.png
subject-05,1,1081,0.880270957946777,dog,bicycle,40,1081_lp_s05_40_bicycle_10_n02835271_7639.png
subject-05,1,1082,0.946847915649414,car,keyboard,15,1082_lp_s05_15_keyboard_10_n03085013_29318.png
subject-05,1,1083,0.907310009002686,cat,dog,40,1083_lp_s05_40_dog_10_n02106550_11160.png
subject-05,1,1084,0.827916860580444,bird,bear,7,1084_lp_s05_7_bear_10_n02134418_5690.png
subject-05,1,1085,0.956301927566528,chair,chair,0,1085_lp_s05_0_chair_10_n04099969_2707.png
subject-05,1,1086,0.808290004730225,car,airplane,7,1086_lp_s05_7_airplane_10_n02690373_1434.png
subject-05,1,1087,0.744906902313232,bird,elephant,15,1087_lp_s05_15_elephant_10_n02504458_143.png
subject-05,1,1088,1.27308893203735,oven,chair,0,1088_lp_s05_0_chair_10_n04099969_2374.png
subject-05,1,1089,0.649559020996094,dog,dog,0,1089_lp_s05_0_dog_10_n02102040_1286.png
subject-05,1,1090,0.724545955657959,oven,oven,7,1090_lp_s05_7_oven_10_n04111531_9915.png
subject-05,1,1091,1.11458683013916,clock,oven,40,1091_lp_s05_40_oven_10_n04111531_22749.png
subject-05,1,1092,0.591307878494263,cat,car,15,1092_lp_s05_15_car_10_n03100240_1711.png
subject-05,1,1093,1.02748012542725,car,oven,1,1093_lp_s05_1_oven_10_n04111531_8344.png
subject-05,1,1094,1.10967683792114,bottle,bird,40,1094_lp_s05_40_bird_10_n01843383_2908.png
subject-05,1,1095,1.0382661819458,airplane,airplane,1,1095_lp_s05_1_airplane_10_n02690373_7647.png
subject-05,1,1096,1.12858319282532,truck,chair,40,1096_lp_s05_40_chair_10_n03376595_4985.png
subject-05,1,1097,0.813314914703369,car,car,1,1097_lp_s05_1_car_10_n03100240_23219.png
