subj,session,trial,rt,object_response,category,condition,imagename
subject-04,1,1,0.696016073226929,bear,bear,10,0001_lp_s04_10_bear_10_n02134418_9196.png
subject-04,1,2,0.92668890953064,dog,dog,3,0002_lp_s04_3_dog_10_n02113712_8788.png
subject-04,1,3,0.680751085281372,car,car,5,0003_lp_s04_5_car_10_n04285008_3241.png
subject-04,1,4,0.703027009963989,bear,dog,0,0004_lp_s04_0_dog_10_n02089867_5661.png
subject-04,1,5,0.981009960174561,oven,cat,5,0005_lp_s04_5_cat_10_n02125311_9693.png
subject-04,1,6,1.39505386352539,bicycle,bicycle,0,0006_lp_s04_0_bicycle_10_n03792782_15248.png
subject-04,1,7,1.157546043396,keyboard,dog,10,0007_lp_s04_10_dog_10_n02091831_2863.png
subject-04,1,8,1.03318810462952,clock,clock,40,0008_lp_s04_40_clock_10_n04548280_2687.png
subject-04,1,9,0.987823963165283,boat,bicycle,15,0009_lp_s04_15_bicycle_10_n02835271_8109.png
subject-04,1,10,0.809750080108643,boat,airplane,7,0010_lp_s04_7_airplane_10_n02690373_4851.png
subject-04,1,11,1.15613603591919,oven,bird,1,0011_lp_s04_1_bird_10_n01843383_2534.png
subject-04,1,12,0.878693103790283,bird,bird,1,0012_lp_s04_1_bird_10_n02018795_2598.png
subject-04,1,13,0.971185207366943,car,truck,15,0013_lp_s04_15_truck_10_n03796401_7371.png
subject-04,1,14,0.641727924346924,keyboard,keyboard,0,0014_lp_s04_0_keyboard_10_n04505470_6814.png
subject-04,1,15,0.918148994445801,cat,car,7,0015_lp_s04_7_car_10_n03100240_4167.png
subject-04,1,16,0.742629051208496,bicycle,bicycle,1,0016_lp_s04_1_bicycle_10_n02835271_5607.png
subject-04,1,17,0.979148864746094,airplane,boat,7,0017_lp_s04_7_boat_10_n04612504_8284.png
subject-04,1,18,1.50012397766113,dog,bicycle,7,0018_lp_s04_7_bicycle_10_n03792782_1099.png
subject-04,1,19,1.00899791717529,bicycle,bicycle,0,0019_lp_s04_0_bicycle_10_n03792782_6804.png
subject-04,1,20,NaN,na,boat,10,0020_lp_s04_10_boat_10_n03344393_796.png
subject-04,1,21,0.90950608253479,boat,keyboard,10,0021_lp_s04_10_keyboard_10_n03085013_18685.png
subject-04,1,22,1.24019002914429,elephant,elephant,10,0022_lp_s04_10_elephant_10_n02504013_3314.png
subject-04,1,23,0.718691110610962,keyboard,oven,10,0023_lp_s04_10_oven_10_n04111531_523.png
subject-04,1,24,1.278892993927,bicycle,bottle,10,0024_lp_s04_10_bottle_10_n04591713_2043.png
subject-04,1,25,0.765765905380249,cat,cat,0,0025_lp_s04_0_cat_10_n02124075_14229.png
subject-04,1,26,1.41018915176392,car,clock,15,0026_lp_s04_15_clock_10_n03196217_1234.png
subject-04,1,27,0.933948040008545,boat,boat,10,0027_lp_s04_10_boat_10_n04273569_4543.png
subject-04,1,28,1.01055192947388,cat,cat,10,0028_lp_s04_10_cat_10_n02124075_14101.png
subject-04,1,29,0.83461594581604,elephant,elephant,7,0029_lp_s04_7_elephant_10_n02504458_11270.png
subject-04,1,30,1.0112361907959,airplane,chair,40,0030_lp_s04_40_chair_10_n04099969_38700.png
subject-04,1,31,1.19546580314636,bear,car,15,0031_lp_s04_15_car_10_n02814533_44083.png
subject-04,1,32,0.841794967651367,bear,bear,10,0032_lp_s04_10_bear_10_n02133161_10136.png
subject-04,1,33,0.950026035308838,bottle,knife,0,0033_lp_s04_0_knife_10_n03041632_10796.png
subject-04,1,34,0.980024099349976,oven,elephant,40,0034_lp_s04_40_elephant_10_n02504458_7506.png
subject-04,1,35,0.855978012084961,boat,boat,5,0035_lp_s04_5_boat_10_n03344393_1396.png
subject-04,1,36,1.01045989990234,elephant,elephant,0,0036_lp_s04_0_elephant_10_n02504458_666.png
subject-04,1,37,NaN,na,bird,7,0037_lp_s04_7_bird_10_n01860187_26534.png
subject-04,1,38,0.857069969177246,airplane,airplane,0,0038_lp_s04_0_airplane_10_n02690373_5917.png
subject-04,1,39,1.00297999382019,bicycle,dog,15,0039_lp_s04_15_dog_10_n02110958_7950.png
subject-04,1,40,0.763669967651367,keyboard,cat,40,0040_lp_s04_40_cat_10_n02123045_1524.png
subject-04,1,41,0.839303970336914,keyboard,keyboard,15,0041_lp_s04_15_keyboard_10_n04505470_704.png
subject-04,1,42,0.685424089431763,keyboard,chair,10,0042_lp_s04_10_chair_10_n02791124_2212.png
subject-04,1,43,1.01610898971558,truck,knife,7,0043_lp_s04_7_knife_10_n03041632_16826.png
subject-04,1,44,0.662719011306763,keyboard,keyboard,0,0044_lp_s04_0_keyboard_10_n04505470_9663.png
subject-04,1,45,0.679090023040771,oven,bicycle,7,0045_lp_s04_7_bicycle_10_n02835271_927.png
subject-04,1,46,0.909654855728149,clock,clock,1,0046_lp_s04_1_clock_10_n04548280_21545.png
subject-04,1,47,0.763951063156128,car,bird,15,0047_lp_s04_15_bird_10_n01833805_6194.png
subject-04,1,48,0.748311042785645,keyboard,oven,15,0048_lp_s04_15_oven_10_n04111531_7329.png
subject-04,1,49,0.702746868133545,airplane,bear,40,0049_lp_s04_40_bear_10_n02133161_10702.png
subject-04,1,50,0.816977977752686,bear,bear,3,0050_lp_s04_3_bear_10_n02132136_22840.png
subject-04,1,51,1.20934200286865,keyboard,oven,5,0051_lp_s04_5_oven_10_n04111531_15052.png
subject-04,1,52,1.16378402709961,bottle,clock,5,0052_lp_s04_5_clock_10_n02708093_7929.png
subject-04,1,53,1.0643789768219,cat,dog,7,0053_lp_s04_7_dog_10_n02111500_8382.png
subject-04,1,54,0.940655946731567,airplane,dog,1,0054_lp_s04_1_dog_10_n02088364_4534.png
subject-04,1,55,0.926930904388428,dog,dog,1,0055_lp_s04_1_dog_10_n02107574_1491.png
subject-04,1,56,1.50022506713867,oven,bird,5,0056_lp_s04_5_bird_10_n01797886_13537.png
subject-04,1,57,1.21770811080933,keyboard,dog,40,0057_lp_s04_40_dog_10_n02113023_4972.png
subject-04,1,58,0.887923955917358,bear,bird,7,0058_lp_s04_7_bird_10_n02033041_953.png
subject-04,1,59,0.91841983795166,boat,airplane,15,0059_lp_s04_15_airplane_10_n02690373_7279.png
subject-04,1,60,1.20287203788757,boat,dog,10,0060_lp_s04_10_dog_10_n02108551_4209.png
subject-04,1,61,0.93343710899353,cat,cat,7,0061_lp_s04_7_cat_10_n02125311_21786.png
subject-04,1,62,1.27165699005127,elephant,chair,3,0062_lp_s04_3_chair_10_n04429376_7089.png
subject-04,1,63,0.896031856536865,oven,oven,0,0063_lp_s04_0_oven_10_n04111531_7189.png
subject-04,1,64,0.848297834396362,oven,dog,15,0064_lp_s04_15_dog_10_n02105641_1622.png
subject-04,1,65,1.01851081848145,bottle,bicycle,1,0065_lp_s04_1_bicycle_10_n03792782_12023.png
subject-04,1,66,0.826982975006104,chair,keyboard,7,0066_lp_s04_7_keyboard_10_n04505470_5013.png
subject-04,1,67,0.81163501739502,clock,chair,5,0067_lp_s04_5_chair_10_n02791124_11346.png
subject-04,1,68,0.758263826370239,boat,airplane,7,0068_lp_s04_7_airplane_10_n02690373_5786.png
subject-04,1,69,0.617141008377075,bear,bear,0,0069_lp_s04_0_bear_10_n02132136_10200.png
subject-04,1,70,0.839518070220947,keyboard,truck,40,0070_lp_s04_40_truck_10_n04467665_32937.png
subject-04,1,71,0.953819036483765,airplane,airplane,1,0071_lp_s04_1_airplane_10_n02690373_5961.png
subject-04,1,72,0.82401180267334,elephant,elephant,0,0072_lp_s04_0_elephant_10_n02504458_6027.png
subject-04,1,73,0.838558197021484,keyboard,keyboard,3,0073_lp_s04_3_keyboard_10_n03085013_2625.png
subject-04,1,74,0.862951993942261,airplane,bicycle,10,0074_lp_s04_10_bicycle_10_n02835271_7526.png
subject-04,1,75,0.677347183227539,clock,clock,0,0075_lp_s04_0_clock_10_n04548280_1630.png
subject-04,1,76,0.648109912872314,bear,bear,3,0076_lp_s04_3_bear_10_n02132136_7647.png
subject-04,1,77,1.04649591445923,cat,bear,15,0077_lp_s04_15_bear_10_n02133161_4429.png
subject-04,1,78,1.17117691040039,dog,dog,7,0078_lp_s04_7_dog_10_n02113023_4250.png
subject-04,1,79,0.939368963241577,oven,truck,10,0079_lp_s04_10_truck_10_n03417042_10796.png
subject-04,1,80,0.847621202468872,car,car,1,0080_lp_s04_1_car_10_n02814533_55715.png
subject-04,1,81,0.831845045089722,airplane,knife,15,0081_lp_s04_15_knife_10_n03041632_20595.png
subject-04,1,82,0.970452070236206,dog,dog,10,0082_lp_s04_10_dog_10_n02099712_9186.png
subject-04,1,83,1.05496501922607,boat,chair,40,0083_lp_s04_40_chair_10_n03376595_3111.png
subject-04,1,84,1.02345609664917,cat,bear,10,0084_lp_s04_10_bear_10_n02133161_8835.png
subject-04,1,85,0.923967838287354,chair,oven,10,0085_lp_s04_10_oven_10_n04111531_689.png
subject-04,1,86,0.724168062210083,oven,oven,5,0086_lp_s04_5_oven_10_n04111531_5756.png
subject-04,1,87,0.900695085525513,keyboard,keyboard,1,0087_lp_s04_1_keyboard_10_n03085013_2500.png
subject-04,1,88,0.809122085571289,bottle,knife,3,0088_lp_s04_3_knife_10_n03041632_22214.png
subject-04,1,89,1.24731683731079,airplane,airplane,1,0089_lp_s04_1_airplane_10_n02690373_1979.png
subject-04,1,90,0.785873174667358,car,car,0,0090_lp_s04_0_car_10_n02814533_56420.png
subject-04,1,91,NaN,na,knife,5,0091_lp_s04_5_knife_10_n03041632_29858.png
subject-04,1,92,0.830896854400635,clock,clock,7,0092_lp_s04_7_clock_10_n04548280_764.png
subject-04,1,93,1.12356114387512,knife,airplane,40,0093_lp_s04_40_airplane_10_n02690373_633.png
subject-04,1,94,0.809965133666992,oven,cat,40,0094_lp_s04_40_cat_10_n02123045_169.png
subject-04,1,95,0.848397016525269,boat,bear,15,0095_lp_s04_15_bear_10_n02132136_10428.png
subject-04,1,96,0.786931037902832,keyboard,boat,15,0096_lp_s04_15_boat_10_n03344393_11509.png
subject-04,1,97,0.887443065643311,car,bear,3,0097_lp_s04_3_bear_10_n02134084_167.png
subject-04,1,98,0.702100038528442,boat,bottle,7,0098_lp_s04_7_bottle_10_n03937543_6029.png
subject-04,1,99,0.810380935668945,bicycle,bicycle,0,0099_lp_s04_0_bicycle_10_n03792782_5209.png
subject-04,1,100,0.724935054779053,clock,clock,5,0100_lp_s04_5_clock_10_n04548280_983.png
subject-04,1,101,0.795429944992065,boat,dog,40,0101_lp_s04_40_dog_10_n02097130_8549.png
subject-04,1,102,0.701535940170288,bottle,bird,10,0102_lp_s04_10_bird_10_n01514859_4737.png
subject-04,1,103,0.572201013565063,oven,oven,40,0103_lp_s04_40_oven_10_n04111531_2575.png
subject-04,1,104,0.650691986083984,keyboard,cat,7,0104_lp_s04_7_cat_10_n02123394_1913.png
subject-04,1,105,0.743345975875854,airplane,dog,1,0105_lp_s04_1_dog_10_n02097298_11071.png
subject-04,1,106,0.728000164031982,oven,oven,3,0106_lp_s04_3_oven_10_n04111531_8553.png
subject-04,1,107,0.703732967376709,truck,truck,1,0107_lp_s04_1_truck_10_n04467665_58500.png
subject-04,1,108,0.858325004577637,car,car,7,0108_lp_s04_7_car_10_n03100240_16740.png
subject-04,1,109,0.856676816940308,bottle,knife,5,0109_lp_s04_5_knife_10_n03041632_29940.png
subject-04,1,110,0.659256935119629,elephant,elephant,1,0110_lp_s04_1_elephant_10_n02504013_2778.png
subject-04,1,111,0.765235900878906,keyboard,bear,15,0111_lp_s04_15_bear_10_n02134418_957.png
subject-04,1,112,0.728172063827515,dog,dog,5,0112_lp_s04_5_dog_10_n02095570_10189.png
subject-04,1,113,1.02290201187134,truck,truck,7,0113_lp_s04_7_truck_10_n03417042_20123.png
subject-04,1,114,0.731384038925171,boat,bottle,40,0114_lp_s04_40_bottle_10_n04557648_8805.png
subject-04,1,115,0.793750047683716,airplane,airplane,10,0115_lp_s04_10_airplane_10_n02690373_5160.png
subject-04,1,116,0.670135021209717,car,car,5,0116_lp_s04_5_car_10_n04285008_3440.png
subject-04,1,117,0.908825159072876,oven,truck,40,0117_lp_s04_40_truck_10_n03417042_7469.png
subject-04,1,118,0.892822980880737,car,car,7,0118_lp_s04_7_car_10_n02814533_44090.png
subject-04,1,119,1.13153910636902,car,car,3,0119_lp_s04_3_car_10_n03100240_3040.png
subject-04,1,120,0.709870100021362,cat,airplane,15,0120_lp_s04_15_airplane_10_n02690373_5010.png
subject-04,1,121,0.755892038345337,keyboard,boat,5,0121_lp_s04_5_boat_10_n03662601_8230.png
subject-04,1,122,0.616665840148926,chair,bicycle,15,0122_lp_s04_15_bicycle_10_n03792782_30229.png
subject-04,1,123,0.608510971069336,oven,bear,5,0123_lp_s04_5_bear_10_n02133161_463.png
subject-04,1,124,0.923249959945679,cat,bear,1,0124_lp_s04_1_bear_10_n02133161_1003.png
subject-04,1,125,0.655678033828735,bear,oven,7,0125_lp_s04_7_oven_10_n04111531_5727.png
subject-04,1,126,0.677942991256714,clock,car,15,0126_lp_s04_15_car_10_n02814533_7855.png
subject-04,1,127,0.732722997665405,truck,truck,3,0127_lp_s04_3_truck_10_n03796401_1196.png
subject-04,1,128,0.792883157730103,bottle,bottle,0,0128_lp_s04_0_bottle_10_n02823428_6050.png
subject-04,1,129,1.16350889205933,knife,keyboard,15,0129_lp_s04_15_keyboard_10_n04505470_4651.png
subject-04,1,130,0.956367969512939,bird,dog,10,0130_lp_s04_10_dog_10_n02101388_17219.png
subject-04,1,131,1.17101001739502,bottle,bottle,0,0131_lp_s04_0_bottle_10_n04560804_2642.png
subject-04,1,132,0.708995819091797,bottle,bottle,1,0132_lp_s04_1_bottle_10_n04557648_6294.png
subject-04,1,133,0.738389015197754,keyboard,cat,7,0133_lp_s04_7_cat_10_n02125311_26486.png
subject-04,1,134,0.798707008361816,airplane,boat,10,0134_lp_s04_10_boat_10_n02951358_12765.png
subject-04,1,135,0.682214021682739,bear,bottle,10,0135_lp_s04_10_bottle_10_n03937543_9255.png
subject-04,1,136,0.62092113494873,boat,bear,40,0136_lp_s04_40_bear_10_n02134418_2522.png
subject-04,1,137,0.637124061584473,clock,bear,40,0137_lp_s04_40_bear_10_n02133161_102.png
subject-04,1,138,0.997761011123657,bird,bird,0,0138_lp_s04_0_bird_10_n01537544_2994.png
subject-04,1,139,0.966276884078979,bottle,boat,0,0139_lp_s04_0_boat_10_n02951358_33118.png
subject-04,1,140,0.682776927947998,oven,elephant,40,0140_lp_s04_40_elephant_10_n02504013_494.png
subject-04,1,141,0.567080974578857,boat,truck,15,0141_lp_s04_15_truck_10_n04467665_493.png
subject-04,1,142,0.529532909393311,clock,car,40,0142_lp_s04_40_car_10_n03100240_8794.png
subject-04,1,143,0.60578989982605,cat,bicycle,7,0143_lp_s04_7_bicycle_10_n03792782_5672.png
subject-04,1,144,0.85032320022583,keyboard,airplane,7,0144_lp_s04_7_airplane_10_n02690373_3110.png
subject-04,1,145,0.920822858810425,clock,airplane,0,0145_lp_s04_0_airplane_10_n02690373_10455.png
subject-04,1,146,0.889630079269409,car,car,1,0146_lp_s04_1_car_10_n02814533_39478.png
subject-04,1,147,0.781754016876221,truck,oven,3,0147_lp_s04_3_oven_10_n04111531_5940.png
subject-04,1,148,0.735790967941284,bottle,bottle,3,0148_lp_s04_3_bottle_10_n03983396_24186.png
subject-04,1,149,0.798628091812134,chair,cat,7,0149_lp_s04_7_cat_10_n02123159_7555.png
subject-04,1,150,1.05896306037903,airplane,airplane,1,0150_lp_s04_1_airplane_10_n02690373_3753.png
subject-04,1,151,1.28906798362732,airplane,bird,7,0151_lp_s04_7_bird_10_n01820546_4190.png
subject-04,1,152,1.21124911308289,keyboard,keyboard,7,0152_lp_s04_7_keyboard_10_n03085013_19759.png
subject-04,1,153,1.08174395561218,keyboard,bear,1,0153_lp_s04_1_bear_10_n02132136_4913.png
subject-04,1,154,0.90435791015625,oven,elephant,15,0154_lp_s04_15_elephant_10_n02504013_6552.png
subject-04,1,155,0.858612060546875,dog,dog,5,0155_lp_s04_5_dog_10_n02107312_786.png
subject-04,1,156,1.07333302497864,bottle,knife,1,0156_lp_s04_1_knife_10_n03041632_28658.png
subject-04,1,157,0.873854875564575,boat,car,40,0157_lp_s04_40_car_10_n03100240_7836.png
subject-04,1,158,0.728370904922485,bottle,bottle,5,0158_lp_s04_5_bottle_10_n04591713_3908.png
subject-04,1,159,0.766700029373169,knife,knife,5,0159_lp_s04_5_knife_10_n03041632_29862.png
subject-04,1,160,0.766993999481201,airplane,knife,15,0160_lp_s04_15_knife_10_n03041632_7090.png
subject-04,1,161,0.915359020233154,bird,bird,0,0161_lp_s04_0_bird_10_n02009229_1154.png
subject-04,1,162,0.737818956375122,bicycle,bicycle,3,0162_lp_s04_3_bicycle_10_n02835271_21974.png
subject-04,1,163,0.876327991485596,clock,airplane,7,0163_lp_s04_7_airplane_10_n02690373_3859.png
subject-04,1,164,0.800757169723511,airplane,airplane,3,0164_lp_s04_3_airplane_10_n02690373_7300.png
subject-04,1,165,1.11543202400208,cat,chair,5,0165_lp_s04_5_chair_10_n04429376_20201.png
subject-04,1,166,0.783699989318848,truck,truck,5,0166_lp_s04_5_truck_10_n04467665_29513.png
subject-04,1,167,0.967828035354614,bottle,chair,15,0167_lp_s04_15_chair_10_n04429376_20716.png
subject-04,1,168,0.859968185424805,cat,bear,15,0168_lp_s04_15_bear_10_n02133161_400.png
subject-04,1,169,0.644281148910522,truck,truck,3,0169_lp_s04_3_truck_10_n03417042_7077.png
subject-04,1,170,0.67464017868042,bicycle,chair,3,0170_lp_s04_3_chair_10_n02791124_2856.png
subject-04,1,171,0.821099996566772,airplane,truck,10,0171_lp_s04_10_truck_10_n04467665_31221.png
subject-04,1,172,0.753726959228516,chair,chair,0,0172_lp_s04_0_chair_10_n02791124_5075.png
subject-04,1,173,0.822175025939941,keyboard,keyboard,3,0173_lp_s04_3_keyboard_10_n03085013_92.png
subject-04,1,174,0.782639026641846,boat,boat,5,0174_lp_s04_5_boat_10_n04273569_29426.png
subject-04,1,175,1.16109800338745,bicycle,cat,10,0175_lp_s04_10_cat_10_n02124075_9066.png
subject-04,1,176,0.867527961730957,clock,knife,5,0176_lp_s04_5_knife_10_n03041632_17859.png
subject-04,1,177,0.913711071014404,bicycle,dog,7,0177_lp_s04_7_dog_10_n02111500_4875.png
subject-04,1,178,0.982486963272095,bottle,boat,3,0178_lp_s04_3_boat_10_n02951358_10804.png
subject-04,1,179,0.761114120483398,oven,chair,15,0179_lp_s04_15_chair_10_n04429376_29357.png
subject-04,1,180,0.575106859207153,boat,boat,10,0180_lp_s04_10_boat_10_n04273569_9996.png
subject-04,1,181,0.843098878860474,dog,dog,0,0181_lp_s04_0_dog_10_n02087046_4090.png
subject-04,1,182,0.829657077789307,dog,bottle,40,0182_lp_s04_40_bottle_10_n04557648_3404.png
subject-04,1,183,1.04426002502441,bottle,elephant,10,0183_lp_s04_10_elephant_10_n02504013_3503.png
subject-04,1,184,0.78951621055603,bicycle,bicycle,1,0184_lp_s04_1_bicycle_10_n03792782_51860.png
subject-04,1,185,0.650199890136719,oven,knife,40,0185_lp_s04_40_knife_10_n03041632_9302.png
subject-04,1,186,0.566447973251343,oven,knife,10,0186_lp_s04_10_knife_10_n03041632_4714.png
subject-04,1,187,0.47509503364563,boat,oven,40,0187_lp_s04_40_oven_10_n04111531_1794.png
subject-04,1,188,0.673614025115967,keyboard,cat,7,0188_lp_s04_7_cat_10_n02125311_46330.png
subject-04,1,189,0.703473806381226,airplane,bottle,3,0189_lp_s04_3_bottle_10_n04557648_26155.png
subject-04,1,190,0.803879976272583,bear,bear,0,0190_lp_s04_0_bear_10_n02134084_23365.png
subject-04,1,191,0.950203895568848,cat,bear,10,0191_lp_s04_10_bear_10_n02132136_1405.png
subject-04,1,192,0.820653915405273,bicycle,bicycle,0,0192_lp_s04_0_bicycle_10_n02835271_8034.png
subject-04,1,193,1.00279903411865,oven,airplane,40,0193_lp_s04_40_airplane_10_n02690373_4895.png
subject-04,1,194,1.18084287643433,airplane,knife,0,0194_lp_s04_0_knife_10_n03041632_15099.png
subject-04,1,195,0.96288800239563,car,car,1,0195_lp_s04_1_car_10_n03100240_16727.png
subject-04,1,196,0.825356960296631,knife,knife,7,0196_lp_s04_7_knife_10_n03041632_44238.png
subject-04,1,197,0.909305095672607,elephant,dog,3,0197_lp_s04_3_dog_10_n02097047_2297.png
subject-04,1,198,0.677958965301514,oven,truck,7,0198_lp_s04_7_truck_10_n03417042_1492.png
subject-04,1,199,1.07857704162598,bottle,dog,10,0199_lp_s04_10_dog_10_n02113799_2073.png
subject-04,1,200,0.916671991348267,chair,chair,15,0200_lp_s04_15_chair_10_n04429376_22381.png
subject-04,1,201,0.738842964172363,keyboard,keyboard,0,0201_lp_s04_0_keyboard_10_n03085013_19439.png
subject-04,1,202,0.893715858459473,car,airplane,10,0202_lp_s04_10_airplane_10_n02690373_9743.png
subject-04,1,203,0.931957006454468,car,car,5,0203_lp_s04_5_car_10_n03100240_2042.png
subject-04,1,204,0.992274045944214,truck,truck,10,0204_lp_s04_10_truck_10_n04467665_37432.png
subject-04,1,205,1.00860214233398,cat,clock,7,0205_lp_s04_7_clock_10_n02708093_485.png
subject-04,1,206,0.917059898376465,cat,cat,1,0206_lp_s04_1_cat_10_n02123394_8250.png
subject-04,1,207,0.885574102401733,boat,dog,15,0207_lp_s04_15_dog_10_n02092002_15528.png
subject-04,1,208,0.986058950424194,elephant,elephant,3,0208_lp_s04_3_elephant_10_n02504458_1056.png
subject-04,1,209,1.19278383255005,bear,dog,1,0209_lp_s04_1_dog_10_n02104029_3430.png
subject-04,1,210,0.854974031448364,keyboard,keyboard,1,0210_lp_s04_1_keyboard_10_n04505470_186.png
subject-04,1,211,0.977458000183105,bicycle,bicycle,1,0211_lp_s04_1_bicycle_10_n03792782_54586.png
subject-04,1,212,1.04774904251099,elephant,elephant,1,0212_lp_s04_1_elephant_10_n02504458_2835.png
subject-04,1,213,0.946233987808228,cat,cat,3,0213_lp_s04_3_cat_10_n02123159_7112.png
subject-04,1,214,0.770462036132812,keyboard,keyboard,3,0214_lp_s04_3_keyboard_10_n04505470_4624.png
subject-04,1,215,0.722751140594482,keyboard,bicycle,7,0215_lp_s04_7_bicycle_10_n03792782_18947.png
subject-04,1,216,0.761302947998047,oven,cat,40,0216_lp_s04_40_cat_10_n02123159_5590.png
subject-04,1,217,1.49974799156189,bird,boat,15,0217_lp_s04_15_boat_10_n03344393_3796.png
subject-04,1,218,1.26258492469788,cat,keyboard,40,0218_lp_s04_40_keyboard_10_n04505470_6963.png
subject-04,1,219,1.1630380153656,dog,bear,7,0219_lp_s04_7_bear_10_n02132136_12198.png
subject-04,1,220,0.868860960006714,boat,boat,0,0220_lp_s04_0_boat_10_n03344393_231.png
subject-04,1,221,0.577019929885864,clock,clock,5,0221_lp_s04_5_clock_10_n04548280_1893.png
subject-04,1,222,1.21564602851868,keyboard,clock,5,0222_lp_s04_5_clock_10_n03196217_3735.png
subject-04,1,223,0.845917940139771,keyboard,elephant,10,0223_lp_s04_10_elephant_10_n02504013_3459.png
subject-04,1,224,0.630393028259277,car,bear,40,0224_lp_s04_40_bear_10_n02133161_280.png
subject-04,1,225,1.06872701644897,airplane,truck,15,0225_lp_s04_15_truck_10_n04467665_57697.png
subject-04,1,226,0.86908483505249,oven,chair,15,0226_lp_s04_15_chair_10_n02791124_6074.png
subject-04,1,227,0.753107070922852,cat,bottle,7,0227_lp_s04_7_bottle_10_n03937543_1946.png
subject-04,1,228,0.721732139587402,car,car,5,0228_lp_s04_5_car_10_n03100240_1748.png
subject-04,1,229,0.81413197517395,dog,dog,0,0229_lp_s04_0_dog_10_n02094114_2388.png
subject-04,1,230,0.728631019592285,cat,elephant,15,0230_lp_s04_15_elephant_10_n02504458_3292.png
subject-04,1,231,0.715074062347412,boat,boat,1,0231_lp_s04_1_boat_10_n04273569_17428.png
subject-04,1,232,0.691204071044922,elephant,elephant,0,0232_lp_s04_0_elephant_10_n02504013_8815.png
subject-04,1,233,0.829370975494385,keyboard,truck,40,0233_lp_s04_40_truck_10_n03796401_1055.png
subject-04,1,234,0.851892948150635,truck,truck,0,0234_lp_s04_0_truck_10_n03417042_2150.png
subject-04,1,235,0.641140937805176,airplane,airplane,5,0235_lp_s04_5_airplane_10_n02690373_5967.png
subject-04,1,236,0.733757019042969,keyboard,car,10,0236_lp_s04_10_car_10_n02814533_29925.png
subject-04,1,237,0.896111011505127,elephant,cat,0,0237_lp_s04_0_cat_10_n02123597_8799.png
subject-04,1,238,0.680438041687012,oven,elephant,10,0238_lp_s04_10_elephant_10_n02504458_26.png
subject-04,1,239,0.940955877304077,oven,chair,0,0239_lp_s04_0_chair_10_n02791124_10783.png
subject-04,1,240,0.825464010238647,chair,chair,5,0240_lp_s04_5_chair_10_n04099969_17930.png
subject-04,1,241,0.802088975906372,bottle,bottle,3,0241_lp_s04_3_bottle_10_n04591713_6367.png
subject-04,1,242,0.672083854675293,clock,clock,0,0242_lp_s04_0_clock_10_n04548280_13730.png
subject-04,1,243,0.710846185684204,oven,truck,40,0243_lp_s04_40_truck_10_n04467665_13552.png
subject-04,1,244,1.19523906707764,dog,dog,3,0244_lp_s04_3_dog_10_n02091244_6147.png
subject-04,1,245,0.947817087173462,truck,truck,1,0245_lp_s04_1_truck_10_n03417042_15903.png
subject-04,1,246,0.772938966751099,elephant,elephant,0,0246_lp_s04_0_elephant_10_n02504013_1844.png
subject-04,1,247,0.740786075592041,keyboard,dog,7,0247_lp_s04_7_dog_10_n02102480_5246.png
subject-04,1,248,0.795351028442383,boat,boat,0,0248_lp_s04_0_boat_10_n02951358_4196.png
subject-04,1,249,1.23986220359802,keyboard,keyboard,5,0249_lp_s04_5_keyboard_10_n03085013_6857.png
subject-04,1,250,1.32439494132996,bear,knife,15,0250_lp_s04_15_knife_10_n03041632_2630.png
subject-04,1,251,1.0792179107666,cat,dog,3,0251_lp_s04_3_dog_10_n02090622_1445.png
subject-04,1,252,1.33927011489868,dog,cat,1,0252_lp_s04_1_cat_10_n02124075_897.png
subject-04,1,253,1.03992104530334,cat,bear,5,0253_lp_s04_5_bear_10_n02134084_12136.png
subject-04,1,254,0.893991947174072,clock,clock,0,0254_lp_s04_0_clock_10_n04548280_2.png
subject-04,1,255,0.784420967102051,oven,bear,40,0255_lp_s04_40_bear_10_n02134418_989.png
subject-04,1,256,0.960604906082153,elephant,dog,5,0256_lp_s04_5_dog_10_n02106030_2431.png
subject-04,1,257,0.923580169677734,bear,bear,1,0257_lp_s04_1_bear_10_n02132136_4578.png
subject-04,1,258,0.715285062789917,keyboard,chair,40,0258_lp_s04_40_chair_10_n03376595_10700.png
subject-04,1,259,0.66789698600769,airplane,clock,5,0259_lp_s04_5_clock_10_n02708093_372.png
subject-04,1,260,1.20664691925049,bottle,bottle,1,0260_lp_s04_1_bottle_10_n04560804_7091.png
subject-04,1,261,0.652985811233521,oven,bottle,40,0261_lp_s04_40_bottle_10_n04591713_3603.png
subject-04,1,262,0.723272085189819,truck,truck,7,0262_lp_s04_7_truck_10_n03417042_3807.png
subject-04,1,263,1.16801190376282,chair,bicycle,5,0263_lp_s04_5_bicycle_10_n02835271_9135.png
subject-04,1,264,0.698230981826782,elephant,knife,7,0264_lp_s04_7_knife_10_n03041632_102828.png
subject-04,1,265,0.622449159622192,chair,chair,0,0265_lp_s04_0_chair_10_n03376595_3120.png
subject-04,1,266,0.8799729347229,clock,clock,7,0266_lp_s04_7_clock_10_n02708093_7169.png
subject-04,1,267,0.734589099884033,bear,bear,5,0267_lp_s04_5_bear_10_n02134084_6223.png
subject-04,1,268,0.79512095451355,cat,bird,3,0268_lp_s04_3_bird_10_n01829413_2264.png
subject-04,1,269,0.90347695350647,keyboard,truck,3,0269_lp_s04_3_truck_10_n04467665_60285.png
subject-04,1,270,0.665891885757446,oven,elephant,10,0270_lp_s04_10_elephant_10_n02504013_6065.png
subject-04,1,271,0.780581951141357,boat,cat,10,0271_lp_s04_10_cat_10_n02123597_7583.png
subject-04,1,272,0.810641050338745,bottle,bear,15,0272_lp_s04_15_bear_10_n02132136_5777.png
subject-04,1,273,0.811360836029053,cat,cat,3,0273_lp_s04_3_cat_10_n02124075_14094.png
subject-04,1,274,0.841370105743408,elephant,elephant,1,0274_lp_s04_1_elephant_10_n02504013_6703.png
subject-04,1,275,0.855714082717896,keyboard,bear,1,0275_lp_s04_1_bear_10_n02134418_4999.png
subject-04,1,276,0.740367889404297,keyboard,keyboard,7,0276_lp_s04_7_keyboard_10_n04505470_1096.png
subject-04,1,277,NaN,na,car,3,0277_lp_s04_3_car_10_n02814533_34080.png
subject-04,1,278,0.841416120529175,elephant,elephant,0,0278_lp_s04_0_elephant_10_n02504013_2340.png
subject-04,1,279,1.10184288024902,cat,cat,1,0279_lp_s04_1_cat_10_n02123159_6927.png
subject-04,1,280,0.94061803817749,car,cat,40,0280_lp_s04_40_cat_10_n02123045_5495.png
subject-04,1,281,0.817000150680542,boat,boat,3,0281_lp_s04_3_boat_10_n04273569_4613.png
subject-04,1,282,0.762824773788452,airplane,airplane,10,0282_lp_s04_10_airplane_10_n02690373_5177.png
subject-04,1,283,0.823476791381836,truck,truck,1,0283_lp_s04_1_truck_10_n03417042_22152.png
subject-04,1,284,1.17548084259033,elephant,knife,7,0284_lp_s04_7_knife_10_n03041632_24817.png
subject-04,1,285,1.09206080436707,dog,dog,7,0285_lp_s04_7_dog_10_n02097047_1705.png
subject-04,1,286,0.830660820007324,bear,bear,0,0286_lp_s04_0_bear_10_n02132136_24229.png
subject-04,1,287,1.08299493789673,elephant,knife,5,0287_lp_s04_5_knife_10_n03041632_44212.png
subject-04,1,288,1.09168195724487,oven,oven,0,0288_lp_s04_0_oven_10_n04111531_10974.png
subject-04,1,289,0.814860105514526,chair,chair,3,0289_lp_s04_3_chair_10_n03376595_5421.png
subject-04,1,290,0.877747058868408,boat,bottle,15,0290_lp_s04_15_bottle_10_n04560804_15713.png
subject-04,1,291,0.978636980056763,airplane,bird,7,0291_lp_s04_7_bird_10_n02009229_6692.png
subject-04,1,292,0.917488098144531,cat,clock,40,0292_lp_s04_40_clock_10_n03196217_653.png
subject-04,1,293,0.831403970718384,oven,oven,0,0293_lp_s04_0_oven_10_n04111531_688.png
subject-04,1,294,1.49996399879456,bottle,bottle,1,0294_lp_s04_1_bottle_10_n04560804_2830.png
subject-04,1,295,1.03836584091187,bear,bear,10,0295_lp_s04_10_bear_10_n02132136_26446.png
subject-04,1,296,1.17658114433289,chair,car,40,0296_lp_s04_40_car_10_n03100240_261.png
subject-04,1,297,1.12344908714294,truck,truck,3,0297_lp_s04_3_truck_10_n04467665_21379.png
subject-04,1,298,1.26979613304138,keyboard,knife,15,0298_lp_s04_15_knife_10_n03041632_120.png
subject-04,1,299,1.30028891563416,airplane,bottle,40,0299_lp_s04_40_bottle_10_n04591713_2569.png
subject-04,1,300,1.09837293624878,chair,knife,3,0300_lp_s04_3_knife_10_n03041632_105581.png
subject-04,1,301,0.960797071456909,boat,airplane,40,0301_lp_s04_40_airplane_10_n02690373_6655.png
subject-04,1,302,0.890843152999878,bicycle,airplane,10,0302_lp_s04_10_airplane_10_n02690373_6834.png
subject-04,1,303,0.937227010726929,keyboard,oven,1,0303_lp_s04_1_oven_10_n04111531_8181.png
subject-04,1,304,0.797627925872803,clock,clock,0,0304_lp_s04_0_clock_10_n04548280_5991.png
subject-04,1,305,0.828125,keyboard,keyboard,15,0305_lp_s04_15_keyboard_10_n04505470_7736.png
subject-04,1,306,0.742051124572754,boat,boat,15,0306_lp_s04_15_boat_10_n03662601_17483.png
subject-04,1,307,0.825885057449341,bear,bear,1,0307_lp_s04_1_bear_10_n02132136_24647.png
subject-04,1,308,0.83922290802002,cat,cat,3,0308_lp_s04_3_cat_10_n02123045_15494.png
subject-04,1,309,0.82353401184082,chair,chair,0,0309_lp_s04_0_chair_10_n04099969_17380.png
subject-04,1,310,1.50028491020203,keyboard,car,10,0310_lp_s04_10_car_10_n03100240_362.png
subject-04,1,311,1.12183499336243,bird,bird,3,0311_lp_s04_3_bird_10_n01795545_17618.png
subject-04,1,312,0.898536920547485,elephant,elephant,1,0312_lp_s04_1_elephant_10_n02504013_4159.png
subject-04,1,313,0.86107611656189,keyboard,clock,3,0313_lp_s04_3_clock_10_n03196217_7744.png
subject-04,1,314,1.46709394454956,boat,boat,3,0314_lp_s04_3_boat_10_n04273569_10899.png
subject-04,1,315,1.34917593002319,boat,elephant,3,0315_lp_s04_3_elephant_10_n02504458_8346.png
subject-04,1,316,1.40371489524841,bottle,knife,1,0316_lp_s04_1_knife_10_n03041632_7205.png
subject-04,1,317,1.18801999092102,airplane,airplane,15,0317_lp_s04_15_airplane_10_n02690373_4506.png
subject-04,1,318,1.29662704467773,cat,bird,3,0318_lp_s04_3_bird_10_n02028035_3643.png
subject-04,1,319,1.14901089668274,oven,boat,40,0319_lp_s04_40_boat_10_n02951358_7238.png
subject-04,1,320,0.970887899398804,elephant,elephant,7,0320_lp_s04_7_elephant_10_n02504013_5147.png
subject-04,1,321,0.746479988098145,oven,cat,3,0321_lp_s04_3_cat_10_n02123394_3591.png
subject-04,1,322,0.622647047042847,car,car,1,0322_lp_s04_1_car_10_n03100240_22499.png
subject-04,1,323,0.677135944366455,oven,keyboard,40,0323_lp_s04_40_keyboard_10_n04505470_4582.png
subject-04,1,324,0.769427061080933,truck,truck,1,0324_lp_s04_1_truck_10_n03417042_12588.png
subject-04,1,325,0.759736776351929,truck,truck,7,0325_lp_s04_7_truck_10_n03417042_27840.png
subject-04,1,326,0.706224918365479,oven,elephant,3,0326_lp_s04_3_elephant_10_n02504458_3105.png
subject-04,1,327,0.72077202796936,oven,oven,0,0327_lp_s04_0_oven_10_n04111531_1855.png
subject-04,1,328,1.0750880241394,boat,oven,40,0328_lp_s04_40_oven_10_n04111531_5828.png
subject-04,1,329,0.643895149230957,clock,keyboard,15,0329_lp_s04_15_keyboard_10_n04505470_3258.png
subject-04,1,330,0.806357860565186,bicycle,bicycle,3,0330_lp_s04_3_bicycle_10_n03792782_19083.png
subject-04,1,331,1.0427520275116,airplane,knife,7,0331_lp_s04_7_knife_10_n03041632_30573.png
subject-04,1,332,0.781260967254639,bear,bear,3,0332_lp_s04_3_bear_10_n02134418_647.png
subject-04,1,333,0.903317928314209,bird,bird,0,0333_lp_s04_0_bird_10_n02056570_8224.png
subject-04,1,334,1.50011301040649,oven,knife,40,0334_lp_s04_40_knife_10_n03041632_24060.png
subject-04,1,335,0.972193956375122,car,clock,3,0335_lp_s04_3_clock_10_n02708093_1002.png
subject-04,1,336,0.886543989181519,keyboard,keyboard,1,0336_lp_s04_1_keyboard_10_n04505470_5561.png
subject-04,1,337,0.938131093978882,dog,dog,1,0337_lp_s04_1_dog_10_n02108000_1808.png
subject-04,1,338,0.938508033752441,boat,boat,5,0338_lp_s04_5_boat_10_n03344393_1782.png
subject-04,1,339,0.976907968521118,cat,bear,15,0339_lp_s04_15_bear_10_n02134084_3868.png
subject-04,1,340,0.915510177612305,oven,airplane,40,0340_lp_s04_40_airplane_10_n02690373_5082.png
subject-04,1,341,0.945774078369141,keyboard,bear,40,0341_lp_s04_40_bear_10_n02133161_676.png
subject-04,1,342,0.860101938247681,bottle,bottle,1,0342_lp_s04_1_bottle_10_n04557648_8008.png
subject-04,1,343,0.928776025772095,keyboard,keyboard,7,0343_lp_s04_7_keyboard_10_n04505470_912.png
subject-04,1,344,NaN,na,dog,5,0344_lp_s04_5_dog_10_n02094258_4437.png
subject-04,1,345,1.31350898742676,oven,bicycle,5,0345_lp_s04_5_bicycle_10_n03792782_13617.png
subject-04,1,346,0.973822116851807,cat,boat,40,0346_lp_s04_40_boat_10_n04612504_5201.png
subject-04,1,347,0.658303022384644,bottle,bottle,1,0347_lp_s04_1_bottle_10_n04591713_1138.png
subject-04,1,348,0.718904972076416,dog,dog,3,0348_lp_s04_3_dog_10_n02086240_11778.png
subject-04,1,349,0.889401912689209,chair,chair,5,0349_lp_s04_5_chair_10_n04099969_15780.png
subject-04,1,350,0.757567882537842,clock,clock,1,0350_lp_s04_1_clock_10_n03196217_592.png
subject-04,1,351,1.10179805755615,keyboard,knife,1,0351_lp_s04_1_knife_10_n03041632_36247.png
subject-04,1,352,1.00201392173767,cat,cat,1,0352_lp_s04_1_cat_10_n02123394_6621.png
subject-04,1,353,0.808564186096191,boat,bird,3,0353_lp_s04_3_bird_10_n02007558_6914.png
subject-04,1,354,0.670999050140381,chair,chair,3,0354_lp_s04_3_chair_10_n04429376_30436.png
subject-04,1,355,0.807408809661865,dog,dog,5,0355_lp_s04_5_dog_10_n02085936_11482.png
subject-04,1,356,0.636609077453613,oven,bird,10,0356_lp_s04_10_bird_10_n01534433_16642.png
subject-04,1,357,0.680768013000488,clock,bicycle,3,0357_lp_s04_3_bicycle_10_n02835271_8340.png
subject-04,1,358,0.564795970916748,bear,dog,15,0358_lp_s04_15_dog_10_n02109525_21410.png
subject-04,1,359,1.19539022445679,airplane,airplane,7,0359_lp_s04_7_airplane_10_n02690373_1732.png
subject-04,1,360,0.964158058166504,cat,knife,10,0360_lp_s04_10_knife_10_n03041632_29343.png
subject-04,1,361,0.83250093460083,oven,clock,0,0361_lp_s04_0_clock_10_n04548280_2532.png
subject-04,1,362,0.625174999237061,clock,clock,0,0362_lp_s04_0_clock_10_n04548280_8357.png
subject-04,1,363,1.23959803581238,keyboard,bottle,40,0363_lp_s04_40_bottle_10_n04579145_558.png
subject-04,1,364,1.2678108215332,dog,dog,5,0364_lp_s04_5_dog_10_n02106662_10635.png
subject-04,1,365,0.892373085021973,bottle,bottle,0,0365_lp_s04_0_bottle_10_n04591713_6152.png
subject-04,1,366,0.884891986846924,dog,dog,0,0366_lp_s04_0_dog_10_n02099267_1488.png
subject-04,1,367,0.791635036468506,keyboard,chair,3,0367_lp_s04_3_chair_10_n02791124_2954.png
subject-04,1,368,0.621464967727661,oven,car,15,0368_lp_s04_15_car_10_n03100240_23581.png
subject-04,1,369,0.589732885360718,cat,cat,0,0369_lp_s04_0_cat_10_n02124075_11776.png
subject-04,1,370,0.682230949401855,cat,cat,3,0370_lp_s04_3_cat_10_n02125311_10230.png
subject-04,1,371,0.989009141921997,chair,bear,15,0371_lp_s04_15_bear_10_n02134084_8065.png
subject-04,1,372,1.50030303001404,bird,bird,0,0372_lp_s04_0_bird_10_n02027492_1291.png
subject-04,1,373,1.08716416358948,elephant,oven,7,0373_lp_s04_7_oven_10_n04111531_1305.png
subject-04,1,374,0.863516092300415,bicycle,boat,10,0374_lp_s04_10_boat_10_n03344393_1026.png
subject-04,1,375,0.693892002105713,airplane,bottle,15,0375_lp_s04_15_bottle_10_n04560804_7013.png
subject-04,1,376,0.862396955490112,knife,knife,0,0376_lp_s04_0_knife_10_n03041632_965.png
subject-04,1,377,0.85516619682312,chair,chair,0,0377_lp_s04_0_chair_10_n04099969_875.png
subject-04,1,378,0.869807958602905,chair,chair,0,0378_lp_s04_0_chair_10_n04099969_9745.png
subject-04,1,379,0.97798490524292,truck,truck,3,0379_lp_s04_3_truck_10_n04467665_24092.png
subject-04,1,380,0.906613111495972,keyboard,truck,3,0380_lp_s04_3_truck_10_n04467665_11516.png
subject-04,1,381,0.790945053100586,chair,truck,1,0381_lp_s04_1_truck_10_n03796401_7432.png
subject-04,1,382,0.891066074371338,airplane,boat,5,0382_lp_s04_5_boat_10_n03662601_4671.png
subject-04,1,383,0.943293809890747,clock,clock,3,0383_lp_s04_3_clock_10_n04548280_5013.png
subject-04,1,384,1.00348711013794,clock,oven,15,0384_lp_s04_15_oven_10_n04111531_5967.png
subject-04,1,385,1.23401379585266,keyboard,car,40,0385_lp_s04_40_car_10_n04285008_15191.png
subject-04,1,386,0.980422019958496,car,cat,10,0386_lp_s04_10_cat_10_n02123045_1596.png
subject-04,1,387,0.772835969924927,clock,clock,15,0387_lp_s04_15_clock_10_n02708093_1747.png
subject-04,1,388,0.655227899551392,clock,oven,40,0388_lp_s04_40_oven_10_n04111531_9210.png
subject-04,1,389,0.985467910766602,knife,knife,3,0389_lp_s04_3_knife_10_n03041632_7495.png
subject-04,1,390,1.03208208084106,bottle,bottle,10,0390_lp_s04_10_bottle_10_n03983396_4701.png
subject-04,1,391,1.1002299785614,car,cat,5,0391_lp_s04_5_cat_10_n02123159_7438.png
subject-04,1,392,0.868806123733521,keyboard,keyboard,7,0392_lp_s04_7_keyboard_10_n04505470_1137.png
subject-04,1,393,0.515482902526855,oven,cat,5,0393_lp_s04_5_cat_10_n02123394_1625.png
subject-04,1,394,0.83592700958252,car,car,5,0394_lp_s04_5_car_10_n02814533_38313.png
subject-04,1,395,0.728600978851318,bottle,bottle,5,0395_lp_s04_5_bottle_10_n04579145_1995.png
subject-04,1,396,0.566985845565796,bear,bicycle,15,0396_lp_s04_15_bicycle_10_n02835271_25718.png
subject-04,1,397,0.73491382598877,chair,boat,40,0397_lp_s04_40_boat_10_n03344393_10227.png
subject-04,1,398,0.64096999168396,keyboard,keyboard,40,0398_lp_s04_40_keyboard_10_n03085013_19317.png
subject-04,1,399,0.47170615196228,oven,clock,10,0399_lp_s04_10_clock_10_n03196217_5258.png
subject-04,1,400,0.601823091506958,elephant,bicycle,40,0400_lp_s04_40_bicycle_10_n02835271_445.png
subject-04,1,401,0.808335781097412,bear,bear,5,0401_lp_s04_5_bear_10_n02132136_20680.png
subject-04,1,402,1.10647797584534,airplane,elephant,40,0402_lp_s04_40_elephant_10_n02504458_6499.png
subject-04,1,403,0.74528694152832,cat,oven,40,0403_lp_s04_40_oven_10_n04111531_6629.png
subject-04,1,404,0.761244058609009,bottle,bicycle,15,0404_lp_s04_15_bicycle_10_n03792782_17110.png
subject-04,1,405,0.852046012878418,keyboard,boat,40,0405_lp_s04_40_boat_10_n04612504_7680.png
subject-04,1,406,0.958499908447266,keyboard,bird,40,0406_lp_s04_40_bird_10_n01560419_321.png
subject-04,1,407,0.650866031646729,oven,oven,0,0407_lp_s04_0_oven_10_n04111531_6474.png
subject-04,1,408,0.911254167556763,bicycle,bicycle,3,0408_lp_s04_3_bicycle_10_n02835271_20858.png
subject-04,1,409,0.726024150848389,clock,chair,10,0409_lp_s04_10_chair_10_n04099969_6911.png
subject-04,1,410,0.879861116409302,knife,knife,1,0410_lp_s04_1_knife_10_n03041632_38540.png
subject-04,1,411,0.9322190284729,chair,bird,15,0411_lp_s04_15_bird_10_n01560419_9740.png
subject-04,1,412,0.762778997421265,keyboard,oven,15,0412_lp_s04_15_oven_10_n04111531_21404.png
subject-04,1,413,0.706990003585815,airplane,bear,40,0413_lp_s04_40_bear_10_n02134084_572.png
subject-04,1,414,0.999626874923706,truck,truck,1,0414_lp_s04_1_truck_10_n03417042_11166.png
subject-04,1,415,0.998157024383545,cat,oven,40,0415_lp_s04_40_oven_10_n04111531_7862.png
subject-04,1,416,0.644826889038086,keyboard,keyboard,0,0416_lp_s04_0_keyboard_10_n03085013_22016.png
subject-04,1,417,0.591223001480103,keyboard,keyboard,7,0417_lp_s04_7_keyboard_10_n04505470_807.png
subject-04,1,418,0.673811197280884,clock,clock,0,0418_lp_s04_0_clock_10_n03196217_8719.png
subject-04,1,419,0.988214015960693,chair,knife,40,0419_lp_s04_40_knife_10_n03041632_25772.png
subject-04,1,420,1.47252798080444,cat,dog,5,0420_lp_s04_5_dog_10_n02097658_419.png
subject-04,1,421,1.1031379699707,boat,boat,5,0421_lp_s04_5_boat_10_n04612504_16600.png
subject-04,1,422,1.05498600006104,bicycle,bicycle,40,0422_lp_s04_40_bicycle_10_n03792782_7770.png
subject-04,1,423,NaN,na,knife,5,0423_lp_s04_5_knife_10_n03041632_29125.png
subject-04,1,424,0.815851926803589,bottle,elephant,40,0424_lp_s04_40_elephant_10_n02504458_5187.png
subject-04,1,425,0.737478017807007,elephant,elephant,1,0425_lp_s04_1_elephant_10_n02504458_6236.png
subject-04,1,426,0.865928173065186,knife,bottle,7,0426_lp_s04_7_bottle_10_n04560804_7904.png
subject-04,1,427,0.69029712677002,boat,boat,1,0427_lp_s04_1_boat_10_n04273569_22383.png
subject-04,1,428,0.812987089157104,keyboard,elephant,7,0428_lp_s04_7_elephant_10_n02504013_5859.png
subject-04,1,429,0.748942136764526,elephant,elephant,5,0429_lp_s04_5_elephant_10_n02504458_10515.png
subject-04,1,430,0.971472024917603,car,car,0,0430_lp_s04_0_car_10_n02814533_93487.png
subject-04,1,431,0.86377215385437,keyboard,chair,1,0431_lp_s04_1_chair_10_n02791124_634.png
subject-04,1,432,0.900048017501831,airplane,airplane,0,0432_lp_s04_0_airplane_10_n02690373_7200.png
subject-04,1,433,0.770267963409424,oven,bicycle,40,0433_lp_s04_40_bicycle_10_n02835271_13396.png
subject-04,1,434,0.830977201461792,knife,bicycle,40,0434_lp_s04_40_bicycle_10_n02835271_19875.png
subject-04,1,435,0.569257020950317,bicycle,car,10,0435_lp_s04_10_car_10_n02814533_3202.png
subject-04,1,436,0.997896909713745,elephant,oven,1,0436_lp_s04_1_oven_10_n04111531_10420.png
subject-04,1,437,0.630574941635132,bottle,clock,7,0437_lp_s04_7_clock_10_n02708093_7081.png
subject-04,1,438,0.712570905685425,bear,bicycle,10,0438_lp_s04_10_bicycle_10_n03792782_2327.png
subject-04,1,439,1.42726993560791,bear,bear,1,0439_lp_s04_1_bear_10_n02133161_1013.png
subject-04,1,440,1.1275999546051,elephant,bear,5,0440_lp_s04_5_bear_10_n02133161_3611.png
subject-04,1,441,0.695521831512451,oven,bicycle,7,0441_lp_s04_7_bicycle_10_n02835271_20903.png
subject-04,1,442,0.751232147216797,airplane,knife,5,0442_lp_s04_5_knife_10_n03041632_10000.png
subject-04,1,443,1.24147510528564,truck,truck,7,0443_lp_s04_7_truck_10_n03796401_26015.png
subject-04,1,444,1.20396709442139,keyboard,chair,10,0444_lp_s04_10_chair_10_n04429376_26032.png
subject-04,1,445,0.856705904006958,airplane,elephant,15,0445_lp_s04_15_elephant_10_n02504013_5934.png
subject-04,1,446,0.687171220779419,oven,dog,10,0446_lp_s04_10_dog_10_n02109525_5525.png
subject-04,1,447,0.649495840072632,chair,chair,0,0447_lp_s04_0_chair_10_n03376595_678.png
subject-04,1,448,0.672047138214111,oven,clock,10,0448_lp_s04_10_clock_10_n03196217_1499.png
subject-04,1,449,1.2166428565979,bear,truck,1,0449_lp_s04_1_truck_10_n03417042_3448.png
subject-04,1,450,1.03089809417725,oven,bottle,0,0450_lp_s04_0_bottle_10_n03937543_4607.png
subject-04,1,451,0.931442975997925,clock,bottle,7,0451_lp_s04_7_bottle_10_n04557648_18105.png
subject-04,1,452,0.707895994186401,bicycle,bicycle,5,0452_lp_s04_5_bicycle_10_n02835271_1338.png
subject-04,1,453,0.589340925216675,airplane,airplane,3,0453_lp_s04_3_airplane_10_n02690373_6328.png
subject-04,1,454,0.595530986785889,keyboard,truck,15,0454_lp_s04_15_truck_10_n03796401_23428.png
subject-04,1,455,0.655730962753296,oven,keyboard,10,0455_lp_s04_10_keyboard_10_n04505470_2114.png
subject-04,1,456,0.686249971389771,keyboard,keyboard,0,0456_lp_s04_0_keyboard_10_n04505470_3117.png
subject-04,1,457,0.700804948806763,oven,oven,0,0457_lp_s04_0_oven_10_n04111531_7625.png
subject-04,1,458,0.785502910614014,boat,boat,0,0458_lp_s04_0_boat_10_n03344393_4073.png
subject-04,1,459,1.06986713409424,clock,knife,10,0459_lp_s04_10_knife_10_n03041632_9406.png
subject-04,1,460,0.854220867156982,knife,knife,0,0460_lp_s04_0_knife_10_n03041632_3326.png
subject-04,1,461,0.744930028915405,oven,cat,10,0461_lp_s04_10_cat_10_n02124075_1426.png
subject-04,1,462,0.991560935974121,dog,cat,5,0462_lp_s04_5_cat_10_n02124075_7973.png
subject-04,1,463,0.905673027038574,cat,knife,40,0463_lp_s04_40_knife_10_n03041632_27134.png
subject-04,1,464,0.996627807617188,bird,cat,0,0464_lp_s04_0_cat_10_n02123045_6283.png
subject-04,1,465,1.07302379608154,bottle,bottle,5,0465_lp_s04_5_bottle_10_n04591713_7121.png
subject-04,1,466,0.640760898590088,elephant,dog,40,0466_lp_s04_40_dog_10_n02109047_7129.png
subject-04,1,467,0.971230030059814,elephant,elephant,5,0467_lp_s04_5_elephant_10_n02504458_33.png
subject-04,1,468,0.901453971862793,knife,bird,10,0468_lp_s04_10_bird_10_n02009912_34336.png
subject-04,1,469,0.762221097946167,boat,boat,10,0469_lp_s04_10_boat_10_n03344393_5669.png
subject-04,1,470,0.998722076416016,dog,dog,3,0470_lp_s04_3_dog_10_n02107312_3864.png
subject-04,1,471,1.01302099227905,chair,truck,10,0471_lp_s04_10_truck_10_n03796401_7643.png
subject-04,1,472,1.05948781967163,knife,truck,10,0472_lp_s04_10_truck_10_n03417042_28122.png
subject-04,1,473,0.920027017593384,bicycle,bicycle,3,0473_lp_s04_3_bicycle_10_n03792782_35183.png
subject-04,1,474,1.07457304000854,bottle,bottle,5,0474_lp_s04_5_bottle_10_n04560804_7638.png
subject-04,1,475,0.918463945388794,car,bird,15,0475_lp_s04_15_bird_10_n01532829_7288.png
subject-04,1,476,NaN,na,truck,15,0476_lp_s04_15_truck_10_n04467665_11487.png
subject-04,1,477,0.971319913864136,airplane,bottle,40,0477_lp_s04_40_bottle_10_n04560804_5445.png
subject-04,1,478,0.693971872329712,bicycle,bicycle,5,0478_lp_s04_5_bicycle_10_n02835271_5858.png
subject-04,1,479,0.946463108062744,bird,bird,5,0479_lp_s04_5_bird_10_n01819313_970.png
subject-04,1,480,1.0069260597229,car,car,7,0480_lp_s04_7_car_10_n02814533_21859.png
subject-04,1,481,0.964174032211304,airplane,airplane,3,0481_lp_s04_3_airplane_10_n02690373_6319.png
subject-04,1,482,0.740307092666626,chair,bicycle,10,0482_lp_s04_10_bicycle_10_n03792782_4708.png
subject-04,1,483,0.724281072616577,boat,bird,10,0483_lp_s04_10_bird_10_n02027492_19112.png
subject-04,1,484,0.630983114242554,car,elephant,15,0484_lp_s04_15_elephant_10_n02504458_4011.png
subject-04,1,485,0.607011079788208,cat,elephant,10,0485_lp_s04_10_elephant_10_n02504013_5811.png
subject-04,1,486,0.967124938964844,dog,dog,0,0486_lp_s04_0_dog_10_n02101388_363.png
subject-04,1,487,0.597565889358521,cat,bird,5,0487_lp_s04_5_bird_10_n01829413_5798.png
subject-04,1,488,0.628260135650635,keyboard,oven,7,0488_lp_s04_7_oven_10_n04111531_22291.png
subject-04,1,489,0.887184858322144,dog,dog,7,0489_lp_s04_7_dog_10_n02095570_3703.png
subject-04,1,490,0.555910110473633,cat,truck,40,0490_lp_s04_40_truck_10_n04467665_4263.png
subject-04,1,491,0.524571180343628,bear,truck,10,0491_lp_s04_10_truck_10_n03417042_3298.png
subject-04,1,492,0.700355052947998,keyboard,cat,40,0492_lp_s04_40_cat_10_n02123394_1900.png
subject-04,1,493,0.606996059417725,airplane,oven,40,0493_lp_s04_40_oven_10_n04111531_14325.png
subject-04,1,494,0.805627107620239,bear,oven,3,0494_lp_s04_3_oven_10_n04111531_2796.png
subject-04,1,495,0.865895986557007,bottle,bottle,0,0495_lp_s04_0_bottle_10_n03983396_2746.png
subject-04,1,496,0.734086990356445,chair,dog,40,0496_lp_s04_40_dog_10_n02085782_13755.png
subject-04,1,497,0.842980861663818,truck,bird,15,0497_lp_s04_15_bird_10_n01843065_5208.png
subject-04,1,498,1.07921195030212,elephant,elephant,7,0498_lp_s04_7_elephant_10_n02504013_5397.png
subject-04,1,499,0.67131495475769,airplane,cat,40,0499_lp_s04_40_cat_10_n02123597_914.png
subject-04,1,500,0.574670076370239,keyboard,clock,40,0500_lp_s04_40_clock_10_n04548280_9743.png
subject-04,1,501,0.689127922058105,bear,bicycle,7,0501_lp_s04_7_bicycle_10_n03792782_3928.png
subject-04,1,502,0.64371395111084,clock,chair,40,0502_lp_s04_40_chair_10_n04099969_16619.png
subject-04,1,503,0.650083065032959,keyboard,keyboard,40,0503_lp_s04_40_keyboard_10_n04505470_933.png
subject-04,1,504,0.564632892608643,airplane,bird,7,0504_lp_s04_7_bird_10_n01843383_5766.png
subject-04,1,505,0.562947988510132,car,car,40,0505_lp_s04_40_car_10_n02814533_72461.png
subject-04,1,506,0.753277063369751,elephant,dog,5,0506_lp_s04_5_dog_10_n02094258_4582.png
subject-04,1,507,0.700112104415894,airplane,knife,0,0507_lp_s04_0_knife_10_n03041632_3023.png
subject-04,1,508,0.744549036026001,keyboard,keyboard,7,0508_lp_s04_7_keyboard_10_n04505470_4587.png
subject-04,1,509,0.658953905105591,airplane,airplane,3,0509_lp_s04_3_airplane_10_n02690373_19134.png
subject-04,1,510,1.07344818115234,knife,bear,7,0510_lp_s04_7_bear_10_n02134084_2120.png
subject-04,1,511,0.841097116470337,elephant,elephant,0,0511_lp_s04_0_elephant_10_n02504458_3575.png
subject-04,1,512,0.709702014923096,elephant,elephant,0,0512_lp_s04_0_elephant_10_n02504458_7777.png
subject-04,1,513,0.707813024520874,bottle,bottle,1,0513_lp_s04_1_bottle_10_n02823428_9078.png
subject-04,1,514,0.706522941589355,keyboard,keyboard,5,0514_lp_s04_5_keyboard_10_n03085013_20523.png
subject-04,1,515,0.896284103393555,airplane,airplane,0,0515_lp_s04_0_airplane_10_n02690373_5845.png
subject-04,1,516,0.933079957962036,keyboard,keyboard,15,0516_lp_s04_15_keyboard_10_n03085013_26325.png
subject-04,1,517,0.841545820236206,keyboard,cat,3,0517_lp_s04_3_cat_10_n02123045_2302.png
subject-04,1,518,0.623872041702271,cat,elephant,7,0518_lp_s04_7_elephant_10_n02504458_2613.png
subject-04,1,519,1.16851305961609,cat,elephant,15,0519_lp_s04_15_elephant_10_n02504458_3032.png
subject-04,1,520,0.698966979980469,airplane,bicycle,15,0520_lp_s04_15_bicycle_10_n02835271_5873.png
subject-04,1,521,0.929213047027588,knife,knife,3,0521_lp_s04_3_knife_10_n03041632_5427.png
subject-04,1,522,0.673630952835083,oven,oven,7,0522_lp_s04_7_oven_10_n04111531_326.png
subject-04,1,523,0.634243011474609,oven,knife,10,0523_lp_s04_10_knife_10_n03041632_32350.png
subject-04,1,524,0.626788139343262,clock,clock,1,0524_lp_s04_1_clock_10_n02708093_2546.png
subject-04,1,525,0.611289024353027,oven,oven,10,0525_lp_s04_10_oven_10_n04111531_274.png
subject-04,1,526,0.539645910263062,bear,cat,7,0526_lp_s04_7_cat_10_n02123597_6560.png
subject-04,1,527,0.70789909362793,keyboard,cat,15,0527_lp_s04_15_cat_10_n02123045_10878.png
subject-04,1,528,0.546514987945557,car,truck,15,0528_lp_s04_15_truck_10_n03796401_14015.png
subject-04,1,529,0.568819046020508,oven,clock,40,0529_lp_s04_40_clock_10_n02708093_1094.png
subject-04,1,530,0.543217897415161,truck,boat,40,0530_lp_s04_40_boat_10_n03344393_5030.png
subject-04,1,531,0.927717924118042,keyboard,oven,3,0531_lp_s04_3_oven_10_n04111531_13422.png
subject-04,1,532,0.710489988327026,dog,dog,3,0532_lp_s04_3_dog_10_n02088238_6021.png
subject-04,1,533,NaN,na,boat,0,0533_lp_s04_0_boat_10_n03662601_5609.png
subject-04,1,534,1.02311110496521,boat,dog,15,0534_lp_s04_15_dog_10_n02093647_1243.png
subject-04,1,535,0.775620222091675,oven,knife,10,0535_lp_s04_10_knife_10_n03041632_104379.png
subject-04,1,536,0.537950038909912,chair,chair,1,0536_lp_s04_1_chair_10_n03376595_9900.png
subject-04,1,537,0.696264028549194,chair,chair,5,0537_lp_s04_5_chair_10_n03376595_4033.png
subject-04,1,538,0.85663104057312,keyboard,bear,40,0538_lp_s04_40_bear_10_n02134084_14908.png
subject-04,1,539,0.649187088012695,oven,cat,15,0539_lp_s04_15_cat_10_n02123045_8602.png
subject-04,1,540,0.825361967086792,bicycle,bottle,1,0540_lp_s04_1_bottle_10_n03983396_24004.png
subject-04,1,541,0.882827043533325,knife,knife,10,0541_lp_s04_10_knife_10_n03041632_12130.png
subject-04,1,542,0.681326866149902,airplane,chair,15,0542_lp_s04_15_chair_10_n04099969_6710.png
subject-04,1,543,0.841830015182495,cat,cat,0,0543_lp_s04_0_cat_10_n02125311_48243.png
subject-04,1,544,0.732058048248291,oven,clock,15,0544_lp_s04_15_clock_10_n04548280_13469.png
subject-04,1,545,0.792654991149902,keyboard,keyboard,3,0545_lp_s04_3_keyboard_10_n03085013_11968.png
subject-04,1,546,0.676703929901123,bicycle,bicycle,0,0546_lp_s04_0_bicycle_10_n03792782_19840.png
subject-04,1,547,0.935092926025391,bottle,chair,0,0547_lp_s04_0_chair_10_n04429376_23039.png
subject-04,1,548,0.840975999832153,boat,chair,40,0548_lp_s04_40_chair_10_n04429376_21865.png
subject-04,1,549,0.939415216445923,dog,bear,7,0549_lp_s04_7_bear_10_n02132136_6598.png
subject-04,1,550,0.870403051376343,bird,airplane,15,0550_lp_s04_15_airplane_10_n02690373_2584.png
subject-04,1,551,1.03819012641907,bottle,bottle,3,0551_lp_s04_3_bottle_10_n03937543_2252.png
subject-04,1,552,0.736264944076538,car,car,0,0552_lp_s04_0_car_10_n04285008_2411.png
subject-04,1,553,0.817265033721924,bear,bear,3,0553_lp_s04_3_bear_10_n02132136_9232.png
subject-04,1,554,0.799835920333862,keyboard,knife,1,0554_lp_s04_1_knife_10_n03041632_1884.png
subject-04,1,555,0.814334869384766,airplane,oven,15,0555_lp_s04_15_oven_10_n04111531_4904.png
subject-04,1,556,1.07474708557129,car,car,1,0556_lp_s04_1_car_10_n02814533_330.png
subject-04,1,557,1.01144289970398,airplane,clock,15,0557_lp_s04_15_clock_10_n03196217_946.png
subject-04,1,558,0.649747133255005,oven,dog,7,0558_lp_s04_7_dog_10_n02099601_10266.png
subject-04,1,559,0.656385898590088,clock,clock,3,0559_lp_s04_3_clock_10_n02708093_5758.png
subject-04,1,560,0.67879319190979,clock,clock,3,0560_lp_s04_3_clock_10_n02708093_6175.png
subject-04,1,561,0.761276960372925,chair,cat,5,0561_lp_s04_5_cat_10_n02123159_7828.png
subject-04,1,562,1.1378481388092,bottle,keyboard,5,0562_lp_s04_5_keyboard_10_n03085013_18781.png
subject-04,1,563,1.26605296134949,clock,clock,0,0563_lp_s04_0_clock_10_n02708093_7006.png
subject-04,1,564,0.971544027328491,cat,cat,0,0564_lp_s04_0_cat_10_n02125311_31442.png
subject-04,1,565,0.747989892959595,boat,knife,40,0565_lp_s04_40_knife_10_n03041632_21017.png
subject-04,1,566,0.684465885162354,keyboard,keyboard,1,0566_lp_s04_1_keyboard_10_n03085013_24026.png
subject-04,1,567,0.782364845275879,airplane,keyboard,15,0567_lp_s04_15_keyboard_10_n03085013_24102.png
subject-04,1,568,NaN,na,oven,5,0568_lp_s04_5_oven_10_n04111531_15416.png
subject-04,1,569,0.794615030288696,bicycle,bicycle,7,0569_lp_s04_7_bicycle_10_n03792782_26552.png
subject-04,1,570,0.885126113891602,bear,clock,7,0570_lp_s04_7_clock_10_n04548280_1032.png
subject-04,1,571,0.991175889968872,oven,oven,1,0571_lp_s04_1_oven_10_n04111531_6313.png
subject-04,1,572,0.873205900192261,airplane,airplane,5,0572_lp_s04_5_airplane_10_n02690373_6999.png
subject-04,1,573,0.895961999893188,dog,clock,7,0573_lp_s04_7_clock_10_n04548280_82.png
subject-04,1,574,1.22436499595642,keyboard,oven,7,0574_lp_s04_7_oven_10_n04111531_1818.png
subject-04,1,575,1.00051784515381,cat,bear,3,0575_lp_s04_3_bear_10_n02134418_5856.png
subject-04,1,576,0.868952989578247,boat,knife,15,0576_lp_s04_15_knife_10_n03041632_20707.png
subject-04,1,577,1.48158288002014,cat,bird,1,0577_lp_s04_1_bird_10_n02018207_6541.png
subject-04,1,578,1.46581196784973,oven,bear,15,0578_lp_s04_15_bear_10_n02134418_451.png
subject-04,1,579,1.08045291900635,bear,knife,7,0579_lp_s04_7_knife_10_n03041632_3079.png
subject-04,1,580,1.03817200660706,elephant,keyboard,10,0580_lp_s04_10_keyboard_10_n03085013_8085.png
subject-04,1,581,0.906399011611938,truck,dog,40,0581_lp_s04_40_dog_10_n02091134_4743.png
subject-04,1,582,0.836957931518555,truck,truck,0,0582_lp_s04_0_truck_10_n03417042_23149.png
subject-04,1,583,0.795099020004272,keyboard,keyboard,1,0583_lp_s04_1_keyboard_10_n03085013_23287.png
subject-04,1,584,0.809494972229004,airplane,truck,7,0584_lp_s04_7_truck_10_n03796401_6841.png
subject-04,1,585,0.625832796096802,oven,cat,15,0585_lp_s04_15_cat_10_n02123159_3440.png
subject-04,1,586,0.630105018615723,airplane,airplane,10,0586_lp_s04_10_airplane_10_n02690373_6114.png
subject-04,1,587,0.744771957397461,clock,keyboard,40,0587_lp_s04_40_keyboard_10_n03085013_20957.png
subject-04,1,588,0.775228023529053,elephant,elephant,1,0588_lp_s04_1_elephant_10_n02504458_6449.png
subject-04,1,589,0.789594173431396,chair,chair,1,0589_lp_s04_1_chair_10_n03376595_426.png
subject-04,1,590,1.22633719444275,cat,bottle,7,0590_lp_s04_7_bottle_10_n04557648_9535.png
subject-04,1,591,0.69481897354126,bicycle,bicycle,3,0591_lp_s04_3_bicycle_10_n02835271_9202.png
subject-04,1,592,0.809115886688232,airplane,airplane,5,0592_lp_s04_5_airplane_10_n02690373_303.png
subject-04,1,593,0.93771505355835,clock,bird,7,0593_lp_s04_7_bird_10_n02013706_5034.png
subject-04,1,594,0.898047924041748,elephant,bottle,15,0594_lp_s04_15_bottle_10_n04557648_772.png
subject-04,1,595,1.02051401138306,elephant,dog,15,0595_lp_s04_15_dog_10_n02101388_4558.png
subject-04,1,596,0.65715503692627,keyboard,oven,7,0596_lp_s04_7_oven_10_n04111531_2241.png
subject-04,1,597,0.955492973327637,keyboard,boat,3,0597_lp_s04_3_boat_10_n03344393_7942.png
subject-04,1,598,0.793875932693481,truck,oven,40,0598_lp_s04_40_oven_10_n04111531_2923.png
subject-04,1,599,0.676092147827148,oven,bird,40,0599_lp_s04_40_bird_10_n01819313_472.png
subject-04,1,600,0.636852025985718,keyboard,keyboard,0,0600_lp_s04_0_keyboard_10_n04505470_943.png
subject-04,1,601,0.889276027679443,elephant,elephant,3,0601_lp_s04_3_elephant_10_n02504458_5759.png
subject-04,1,602,1.01158499717712,knife,knife,5,0602_lp_s04_5_knife_10_n03041632_45622.png
subject-04,1,603,0.926340103149414,chair,chair,7,0603_lp_s04_7_chair_10_n04099969_22250.png
subject-04,1,604,1.03858590126038,bear,clock,1,0604_lp_s04_1_clock_10_n02708093_742.png
subject-04,1,605,0.815064907073975,airplane,airplane,15,0605_lp_s04_15_airplane_10_n02690373_9991.png
subject-04,1,606,0.629672050476074,clock,clock,1,0606_lp_s04_1_clock_10_n02708093_3177.png
subject-04,1,607,0.598276138305664,keyboard,airplane,7,0607_lp_s04_7_airplane_10_n02690373_10210.png
subject-04,1,608,0.980265855789185,airplane,airplane,10,0608_lp_s04_10_airplane_10_n02690373_9181.png
subject-04,1,609,0.778715848922729,car,truck,7,0609_lp_s04_7_truck_10_n04467665_51267.png
subject-04,1,610,0.709399938583374,elephant,bicycle,5,0610_lp_s04_5_bicycle_10_n03792782_185.png
subject-04,1,611,0.669750213623047,keyboard,cat,10,0611_lp_s04_10_cat_10_n02123159_6967.png
subject-04,1,612,0.928435802459717,dog,dog,0,0612_lp_s04_0_dog_10_n02100735_1544.png
subject-04,1,613,NaN,na,cat,15,0613_lp_s04_15_cat_10_n02124075_8171.png
subject-04,1,614,0.872775077819824,dog,bear,1,0614_lp_s04_1_bear_10_n02134084_593.png
subject-04,1,615,0.671602010726929,clock,dog,7,0615_lp_s04_7_dog_10_n02101006_2142.png
subject-04,1,616,0.662001132965088,bear,bird,15,0616_lp_s04_15_bird_10_n02017213_3072.png
subject-04,1,617,0.814188003540039,airplane,boat,7,0617_lp_s04_7_boat_10_n04612504_4440.png
subject-04,1,618,0.758325099945068,knife,knife,15,0618_lp_s04_15_knife_10_n03041632_28129.png
subject-04,1,619,0.943045139312744,clock,knife,3,0619_lp_s04_3_knife_10_n03041632_50423.png
subject-04,1,620,1.19352698326111,truck,truck,3,0620_lp_s04_3_truck_10_n04467665_21912.png
subject-04,1,621,1.33782601356506,knife,airplane,40,0621_lp_s04_40_airplane_10_n02690373_3000.png
subject-04,1,622,1.13055801391602,dog,dog,0,0622_lp_s04_0_dog_10_n02110806_18006.png
subject-04,1,623,0.982825994491577,oven,boat,40,0623_lp_s04_40_boat_10_n03344393_8044.png
subject-04,1,624,0.83526611328125,bear,elephant,3,0624_lp_s04_3_elephant_10_n02504458_6114.png
subject-04,1,625,1.07965993881226,bird,bird,5,0625_lp_s04_5_bird_10_n01530575_7365.png
subject-04,1,626,0.994061946868896,airplane,bottle,7,0626_lp_s04_7_bottle_10_n04591713_4664.png
subject-04,1,627,0.953939914703369,keyboard,bottle,5,0627_lp_s04_5_bottle_10_n04560804_5206.png
subject-04,1,628,0.744016885757446,oven,bicycle,10,0628_lp_s04_10_bicycle_10_n03792782_16149.png
subject-04,1,629,0.694094181060791,boat,boat,1,0629_lp_s04_1_boat_10_n04612504_6800.png
subject-04,1,630,1.07660007476807,knife,knife,7,0630_lp_s04_7_knife_10_n03041632_45636.png
subject-04,1,631,0.891052961349487,car,car,7,0631_lp_s04_7_car_10_n04285008_12138.png
subject-04,1,632,0.929526090621948,airplane,airplane,3,0632_lp_s04_3_airplane_10_n02690373_610.png
subject-04,1,633,0.888333082199097,airplane,clock,7,0633_lp_s04_7_clock_10_n02708093_623.png
subject-04,1,634,0.964680910110474,bear,knife,7,0634_lp_s04_7_knife_10_n03041632_21818.png
subject-04,1,635,0.976964950561523,keyboard,keyboard,5,0635_lp_s04_5_keyboard_10_n03085013_21241.png
subject-04,1,636,0.869683027267456,car,car,0,0636_lp_s04_0_car_10_n02814533_874.png
subject-04,1,637,0.852089166641235,bottle,keyboard,10,0637_lp_s04_10_keyboard_10_n03085013_6978.png
subject-04,1,638,0.866686105728149,chair,chair,1,0638_lp_s04_1_chair_10_n03376595_2289.png
subject-04,1,639,0.749054193496704,car,car,3,0639_lp_s04_3_car_10_n02814533_3890.png
subject-04,1,640,0.793591022491455,elephant,airplane,10,0640_lp_s04_10_airplane_10_n02690373_6380.png
subject-04,1,641,0.80454683303833,clock,bicycle,5,0641_lp_s04_5_bicycle_10_n03792782_14907.png
subject-04,1,642,0.694720029830933,bear,bear,3,0642_lp_s04_3_bear_10_n02134418_3793.png
subject-04,1,643,0.655436038970947,keyboard,keyboard,3,0643_lp_s04_3_keyboard_10_n03085013_3795.png
subject-04,1,644,0.631716012954712,keyboard,keyboard,1,0644_lp_s04_1_keyboard_10_n03085013_23354.png
subject-04,1,645,0.84444785118103,airplane,bear,7,0645_lp_s04_7_bear_10_n02132136_24633.png
subject-04,1,646,0.712764978408813,cat,clock,7,0646_lp_s04_7_clock_10_n02708093_3643.png
subject-04,1,647,0.687304973602295,bear,bear,5,0647_lp_s04_5_bear_10_n02134418_822.png
subject-04,1,648,0.817842960357666,oven,oven,1,0648_lp_s04_1_oven_10_n04111531_8603.png
subject-04,1,649,0.900129795074463,oven,oven,5,0649_lp_s04_5_oven_10_n04111531_2826.png
subject-04,1,650,0.682936906814575,keyboard,clock,10,0650_lp_s04_10_clock_10_n03196217_1024.png
subject-04,1,651,0.921550035476685,keyboard,car,10,0651_lp_s04_10_car_10_n02814533_15544.png
subject-04,1,652,1.06352210044861,cat,bird,0,0652_lp_s04_0_bird_10_n01537544_10239.png
subject-04,1,653,0.886003017425537,elephant,keyboard,7,0653_lp_s04_7_keyboard_10_n03085013_18843.png
subject-04,1,654,0.905993938446045,airplane,airplane,5,0654_lp_s04_5_airplane_10_n02690373_7600.png
subject-04,1,655,1.12055397033691,cat,cat,1,0655_lp_s04_1_cat_10_n02123159_5468.png
subject-04,1,656,1.02693295478821,bear,bear,0,0656_lp_s04_0_bear_10_n02134084_7315.png
subject-04,1,657,1.29387807846069,bird,bird,0,0657_lp_s04_0_bird_10_n01622779_9829.png
subject-04,1,658,1.13832116127014,car,knife,40,0658_lp_s04_40_knife_10_n03041632_40450.png
subject-04,1,659,0.998734951019287,bird,bird,1,0659_lp_s04_1_bird_10_n02056570_3631.png
subject-04,1,660,0.934741973876953,dog,dog,1,0660_lp_s04_1_dog_10_n02100583_28499.png
subject-04,1,661,1.1708550453186,truck,clock,15,0661_lp_s04_15_clock_10_n04548280_4181.png
subject-04,1,662,0.877572059631348,bear,bottle,40,0662_lp_s04_40_bottle_10_n04579145_4393.png
subject-04,1,663,1.0839569568634,keyboard,car,15,0663_lp_s04_15_car_10_n03100240_18873.png
subject-04,1,664,1.12053203582764,elephant,boat,15,0664_lp_s04_15_boat_10_n02951358_12373.png
subject-04,1,665,0.764968872070312,boat,boat,3,0665_lp_s04_3_boat_10_n03662601_32082.png
subject-04,1,666,1.08519101142883,cat,airplane,10,0666_lp_s04_10_airplane_10_n02690373_2509.png
subject-04,1,667,1.09173512458801,bird,bird,1,0667_lp_s04_1_bird_10_n02002556_5924.png
subject-04,1,668,0.721549987792969,boat,bicycle,15,0668_lp_s04_15_bicycle_10_n02835271_5861.png
subject-04,1,669,1.33427476882935,keyboard,keyboard,10,0669_lp_s04_10_keyboard_10_n04505470_4576.png
subject-04,1,670,0.847321033477783,bicycle,bicycle,0,0670_lp_s04_0_bicycle_10_n03792782_31116.png
subject-04,1,671,0.87597393989563,airplane,oven,5,0671_lp_s04_5_oven_10_n04111531_17507.png
subject-04,1,672,0.674149990081787,clock,clock,10,0672_lp_s04_10_clock_10_n04548280_2337.png
subject-04,1,673,0.864835977554321,chair,cat,5,0673_lp_s04_5_cat_10_n02123045_2076.png
subject-04,1,674,0.847187995910645,keyboard,oven,10,0674_lp_s04_10_oven_10_n04111531_12725.png
subject-04,1,675,0.807927846908569,bear,cat,7,0675_lp_s04_7_cat_10_n02123159_593.png
subject-04,1,676,0.98173189163208,dog,elephant,3,0676_lp_s04_3_elephant_10_n02504013_6897.png
subject-04,1,677,0.834088802337646,boat,truck,10,0677_lp_s04_10_truck_10_n03417042_7116.png
subject-04,1,678,0.840737104415894,bottle,bottle,7,0678_lp_s04_7_bottle_10_n04591713_1310.png
subject-04,1,679,0.654971837997437,bicycle,bicycle,7,0679_lp_s04_7_bicycle_10_n03792782_23597.png
subject-04,1,680,0.66963005065918,bear,bear,0,0680_lp_s04_0_bear_10_n02134418_5163.png
subject-04,1,681,0.873647212982178,clock,car,40,0681_lp_s04_40_car_10_n03100240_22615.png
subject-04,1,682,0.795724153518677,bicycle,bicycle,0,0682_lp_s04_0_bicycle_10_n02835271_19275.png
subject-04,1,683,1.34036612510681,chair,chair,10,0683_lp_s04_10_chair_10_n04099969_25664.png
subject-04,1,684,0.992666006088257,car,car,0,0684_lp_s04_0_car_10_n02814533_2161.png
subject-04,1,685,1.05351686477661,car,truck,10,0685_lp_s04_10_truck_10_n03417042_11595.png
subject-04,1,686,0.774003982543945,chair,clock,1,0686_lp_s04_1_clock_10_n02708093_214.png
subject-04,1,687,1.15536499023438,bottle,bottle,0,0687_lp_s04_0_bottle_10_n03937543_243.png
subject-04,1,688,0.886011123657227,airplane,elephant,15,0688_lp_s04_15_elephant_10_n02504013_1479.png
subject-04,1,689,0.838299989700317,truck,keyboard,40,0689_lp_s04_40_keyboard_10_n04505470_4627.png
subject-04,1,690,0.743957042694092,truck,truck,3,0690_lp_s04_3_truck_10_n04467665_62080.png
subject-04,1,691,0.839838981628418,car,bird,1,0691_lp_s04_1_bird_10_n02006656_3250.png
subject-04,1,692,0.992476940155029,dog,dog,5,0692_lp_s04_5_dog_10_n02109961_26647.png
subject-04,1,693,1.09874820709229,keyboard,truck,40,0693_lp_s04_40_truck_10_n03796401_29480.png
subject-04,1,694,1.089280128479,bear,elephant,15,0694_lp_s04_15_elephant_10_n02504013_7716.png
subject-04,1,695,1.18168783187866,keyboard,keyboard,10,0695_lp_s04_10_keyboard_10_n04505470_3132.png
subject-04,1,696,1.06425189971924,bottle,bottle,5,0696_lp_s04_5_bottle_10_n04591713_19169.png
subject-04,1,697,0.994641065597534,oven,truck,15,0697_lp_s04_15_truck_10_n03417042_18042.png
subject-04,1,698,0.763270139694214,boat,bottle,40,0698_lp_s04_40_bottle_10_n04579145_6578.png
subject-04,1,699,0.945710182189941,bicycle,bicycle,7,0699_lp_s04_7_bicycle_10_n03792782_21499.png
subject-04,1,700,1.2119300365448,airplane,airplane,0,0700_lp_s04_0_airplane_10_n02690373_1828.png
subject-04,1,701,1.19423699378967,car,chair,10,0701_lp_s04_10_chair_10_n04429376_21809.png
subject-04,1,702,1.06245803833008,boat,boat,7,0702_lp_s04_7_boat_10_n02951358_4451.png
subject-04,1,703,1.41475987434387,clock,clock,10,0703_lp_s04_10_clock_10_n04548280_1474.png
subject-04,1,704,1.25091409683228,keyboard,oven,1,0704_lp_s04_1_oven_10_n04111531_16583.png
subject-04,1,705,1.26550602912903,cat,chair,15,0705_lp_s04_15_chair_10_n03376595_9057.png
subject-04,1,706,1.50007605552673,clock,clock,5,0706_lp_s04_5_clock_10_n04548280_6704.png
subject-04,1,707,NaN,na,chair,15,0707_lp_s04_15_chair_10_n03376595_6634.png
subject-04,1,708,1.47637581825256,chair,bird,40,0708_lp_s04_40_bird_10_n02006656_9320.png
subject-04,1,709,1.26636981964111,chair,chair,1,0709_lp_s04_1_chair_10_n04099969_2502.png
subject-04,1,710,1.41022491455078,car,car,1,0710_lp_s04_1_car_10_n04285008_7446.png
subject-04,1,711,1.13890409469604,bird,oven,15,0711_lp_s04_15_oven_10_n04111531_17922.png
subject-04,1,712,1.12959098815918,airplane,boat,7,0712_lp_s04_7_boat_10_n04273569_18894.png
subject-04,1,713,1.2899169921875,chair,chair,3,0713_lp_s04_3_chair_10_n04429376_42324.png
subject-04,1,714,1.35819387435913,bicycle,bicycle,3,0714_lp_s04_3_bicycle_10_n03792782_5532.png
subject-04,1,715,1.43219614028931,chair,bicycle,10,0715_lp_s04_10_bicycle_10_n02835271_9097.png
subject-04,1,716,1.30070805549622,bird,bird,15,0716_lp_s04_15_bird_10_n01531178_20849.png
subject-04,1,717,1.1066370010376,dog,dog,1,0717_lp_s04_1_dog_10_n02100877_11388.png
subject-04,1,718,1.24137806892395,airplane,bird,40,0718_lp_s04_40_bird_10_n01818515_1741.png
subject-04,1,719,1.11172199249268,clock,bear,7,0719_lp_s04_7_bear_10_n02133161_6531.png
subject-04,1,720,0.885972023010254,boat,elephant,5,0720_lp_s04_5_elephant_10_n02504458_13409.png
subject-04,1,721,0.862313032150269,car,bottle,15,0721_lp_s04_15_bottle_10_n04557648_2180.png
subject-04,1,722,1.2989559173584,bottle,bicycle,15,0722_lp_s04_15_bicycle_10_n02835271_23888.png
subject-04,1,723,1.17202806472778,boat,boat,7,0723_lp_s04_7_boat_10_n04273569_1296.png
subject-04,1,724,1.20050096511841,truck,truck,5,0724_lp_s04_5_truck_10_n03417042_27085.png
subject-04,1,725,1.35325002670288,bottle,bottle,1,0725_lp_s04_1_bottle_10_n03983396_2593.png
subject-04,1,726,1.39779591560364,chair,oven,5,0726_lp_s04_5_oven_10_n04111531_21382.png
subject-04,1,727,1.50037002563477,dog,bottle,10,0727_lp_s04_10_bottle_10_n03983396_16212.png
subject-04,1,728,1.47852516174316,bear,bird,5,0728_lp_s04_5_bird_10_n02009229_2323.png
subject-04,1,729,1.46894598007202,clock,bicycle,40,0729_lp_s04_40_bicycle_10_n02835271_8399.png
subject-04,1,730,1.35942888259888,airplane,airplane,3,0730_lp_s04_3_airplane_10_n02690373_6663.png
subject-04,1,731,1.03633403778076,bottle,knife,5,0731_lp_s04_5_knife_10_n03041632_11475.png
subject-04,1,732,NaN,na,oven,0,0732_lp_s04_0_oven_10_n04111531_4951.png
subject-04,1,733,NaN,na,bottle,3,0733_lp_s04_3_bottle_10_n04557648_9844.png
subject-04,1,734,1.00218510627747,bicycle,bicycle,5,0734_lp_s04_5_bicycle_10_n02835271_2075.png
subject-04,1,735,0.848709106445312,knife,knife,0,0735_lp_s04_0_knife_10_n03041632_14774.png
subject-04,1,736,1.09092998504639,knife,dog,7,0736_lp_s04_7_dog_10_n02097298_9293.png
subject-04,1,737,1.30449891090393,chair,chair,1,0737_lp_s04_1_chair_10_n03376595_1044.png
subject-04,1,738,NaN,na,cat,7,0738_lp_s04_7_cat_10_n02125311_8522.png
subject-04,1,739,NaN,na,oven,40,0739_lp_s04_40_oven_10_n04111531_16007.png
subject-04,1,740,0.836939096450806,cat,dog,10,0740_lp_s04_10_dog_10_n02107312_4223.png
subject-04,1,741,0.735413789749146,bottle,bottle,0,0741_lp_s04_0_bottle_10_n02823428_6918.png
subject-04,1,742,0.80413293838501,chair,chair,7,0742_lp_s04_7_chair_10_n03376595_3459.png
subject-04,1,743,0.955856084823608,bear,bear,0,0743_lp_s04_0_bear_10_n02132136_7584.png
subject-04,1,744,1.10663104057312,clock,car,10,0744_lp_s04_10_car_10_n02814533_84296.png
subject-04,1,745,1.17458510398865,boat,cat,10,0745_lp_s04_10_cat_10_n02123159_2059.png
subject-04,1,746,1.50035405158997,dog,dog,10,0746_lp_s04_10_dog_10_n02106662_2150.png
subject-04,1,747,1.50026202201843,airplane,airplane,1,0747_lp_s04_1_airplane_10_n02690373_7496.png
subject-04,1,748,1.4375159740448,bear,elephant,5,0748_lp_s04_5_elephant_10_n02504013_10192.png
subject-04,1,749,NaN,na,bear,3,0749_lp_s04_3_bear_10_n02133161_2100.png
subject-04,1,750,1.39615607261658,airplane,airplane,15,0750_lp_s04_15_airplane_10_n02690373_2313.png
subject-04,1,751,0.940378904342651,bicycle,bicycle,7,0751_lp_s04_7_bicycle_10_n03792782_11481.png
subject-04,1,752,0.671056032180786,airplane,chair,5,0752_lp_s04_5_chair_10_n04429376_9121.png
subject-04,1,753,1.01561713218689,oven,oven,3,0753_lp_s04_3_oven_10_n04111531_13101.png
subject-04,1,754,0.799899101257324,keyboard,keyboard,0,0754_lp_s04_0_keyboard_10_n04505470_3717.png
subject-04,1,755,0.774680137634277,chair,keyboard,40,0755_lp_s04_40_keyboard_10_n04505470_3122.png
subject-04,1,756,0.656939029693604,keyboard,bottle,10,0756_lp_s04_10_bottle_10_n04591713_16442.png
subject-04,1,757,0.893182992935181,bicycle,bicycle,5,0757_lp_s04_5_bicycle_10_n02835271_1141.png
subject-04,1,758,0.661179065704346,keyboard,keyboard,3,0758_lp_s04_3_keyboard_10_n04505470_3935.png
subject-04,1,759,0.81353497505188,car,car,1,0759_lp_s04_1_car_10_n04285008_11704.png
subject-04,1,760,0.94989013671875,airplane,airplane,5,0760_lp_s04_5_airplane_10_n02690373_9137.png
subject-04,1,761,1.13250184059143,chair,oven,10,0761_lp_s04_10_oven_10_n04111531_16161.png
subject-04,1,762,1.24698400497437,bird,bear,7,0762_lp_s04_7_bear_10_n02133161_826.png
subject-04,1,763,NaN,na,bottle,10,0763_lp_s04_10_bottle_10_n03983396_22326.png
subject-04,1,764,1.29381203651428,bicycle,boat,3,0764_lp_s04_3_boat_10_n03344393_6234.png
subject-04,1,765,0.962480068206787,oven,cat,40,0765_lp_s04_40_cat_10_n02123045_2338.png
subject-04,1,766,0.828807830810547,boat,boat,0,0766_lp_s04_0_boat_10_n02951358_11819.png
subject-04,1,767,1.03559494018555,car,car,5,0767_lp_s04_5_car_10_n03100240_8885.png
subject-04,1,768,0.827796936035156,airplane,airplane,5,0768_lp_s04_5_airplane_10_n02690373_7276.png
subject-04,1,769,1.07827401161194,oven,oven,1,0769_lp_s04_1_oven_10_n04111531_2721.png
subject-04,1,770,0.984568119049072,oven,oven,5,0770_lp_s04_5_oven_10_n04111531_643.png
subject-04,1,771,1.48308396339417,dog,dog,15,0771_lp_s04_15_dog_10_n02107312_4906.png
subject-04,1,772,NaN,na,car,10,0772_lp_s04_10_car_10_n03100240_52.png
subject-04,1,773,1.49331498146057,bicycle,elephant,10,0773_lp_s04_10_elephant_10_n02504013_2755.png
subject-04,1,774,NaN,na,dog,40,0774_lp_s04_40_dog_10_n02109961_60331.png
subject-04,1,775,NaN,na,keyboard,1,0775_lp_s04_1_keyboard_10_n03085013_15779.png
subject-04,1,776,1.20468902587891,airplane,oven,15,0776_lp_s04_15_oven_10_n04111531_20875.png
subject-04,1,777,1.1812961101532,knife,knife,3,0777_lp_s04_3_knife_10_n03041632_15444.png
subject-04,1,778,1.32546782493591,boat,boat,1,0778_lp_s04_1_boat_10_n04273569_9576.png
subject-04,1,779,1.19208002090454,clock,boat,10,0779_lp_s04_10_boat_10_n04612504_1232.png
subject-04,1,780,NaN,na,truck,40,0780_lp_s04_40_truck_10_n04467665_71055.png
subject-04,1,781,NaN,na,bird,5,0781_lp_s04_5_bird_10_n01531178_2080.png
subject-04,1,782,NaN,na,cat,15,0782_lp_s04_15_cat_10_n02123394_4067.png
subject-04,1,783,0.928611993789673,oven,knife,10,0783_lp_s04_10_knife_10_n03041632_29580.png
subject-04,1,784,0.610582828521729,cat,boat,5,0784_lp_s04_5_boat_10_n03662601_1869.png
subject-04,1,785,0.778900861740112,airplane,airplane,1,0785_lp_s04_1_airplane_10_n02690373_7118.png
subject-04,1,786,0.837223052978516,knife,bird,40,0786_lp_s04_40_bird_10_n02009912_5805.png
subject-04,1,787,0.867774963378906,airplane,bear,10,0787_lp_s04_10_bear_10_n02133161_1990.png
subject-04,1,788,0.728415012359619,car,oven,10,0788_lp_s04_10_oven_10_n04111531_12929.png
subject-04,1,789,0.780755043029785,elephant,chair,3,0789_lp_s04_3_chair_10_n04429376_9165.png
subject-04,1,790,1.21753787994385,bottle,bottle,3,0790_lp_s04_3_bottle_10_n04579145_7417.png
subject-04,1,791,0.754024028778076,bear,elephant,40,0791_lp_s04_40_elephant_10_n02504458_13179.png
subject-04,1,792,0.706156015396118,clock,bear,5,0792_lp_s04_5_bear_10_n02132136_8059.png
subject-04,1,793,0.696645021438599,keyboard,chair,7,0793_lp_s04_7_chair_10_n03376595_13949.png
subject-04,1,794,0.832546949386597,oven,clock,3,0794_lp_s04_3_clock_10_n02708093_1557.png
subject-04,1,795,0.885109901428223,keyboard,car,7,0795_lp_s04_7_car_10_n02814533_83492.png
subject-04,1,796,1.10755014419556,chair,clock,15,0796_lp_s04_15_clock_10_n04548280_6603.png
subject-04,1,797,0.844137907028198,bear,bear,5,0797_lp_s04_5_bear_10_n02134084_18468.png
subject-04,1,798,1.11074090003967,boat,boat,3,0798_lp_s04_3_boat_10_n02951358_6378.png
subject-04,1,799,0.97899317741394,elephant,elephant,3,0799_lp_s04_3_elephant_10_n02504013_237.png
subject-04,1,800,NaN,na,airplane,40,0800_lp_s04_40_airplane_10_n02690373_2632.png
subject-04,1,801,0.754202127456665,clock,chair,40,0801_lp_s04_40_chair_10_n03376595_294.png
subject-04,1,802,0.628429889678955,keyboard,keyboard,3,0802_lp_s04_3_keyboard_10_n04505470_4711.png
subject-04,1,803,0.665056943893433,car,car,3,0803_lp_s04_3_car_10_n03100240_2640.png
subject-04,1,804,0.779288053512573,bear,bear,10,0804_lp_s04_10_bear_10_n02132136_8095.png
subject-04,1,805,0.655879974365234,keyboard,clock,7,0805_lp_s04_7_clock_10_n04548280_2765.png
subject-04,1,806,0.746639013290405,truck,truck,7,0806_lp_s04_7_truck_10_n04467665_22697.png
subject-04,1,807,0.890821933746338,cat,cat,5,0807_lp_s04_5_cat_10_n02124075_12369.png
subject-04,1,808,0.964882850646973,bottle,bottle,7,0808_lp_s04_7_bottle_10_n04560804_6576.png
subject-04,1,809,0.595670938491821,keyboard,airplane,15,0809_lp_s04_15_airplane_10_n02690373_6524.png
subject-04,1,810,0.815984010696411,elephant,bear,7,0810_lp_s04_7_bear_10_n02133161_4753.png
subject-04,1,811,0.792821884155273,bicycle,bird,5,0811_lp_s04_5_bird_10_n01817953_5000.png
subject-04,1,812,0.583030939102173,bird,chair,40,0812_lp_s04_40_chair_10_n03376595_11661.png
subject-04,1,813,0.719231128692627,elephant,elephant,0,0813_lp_s04_0_elephant_10_n02504013_6505.png
subject-04,1,814,0.779675006866455,airplane,cat,40,0814_lp_s04_40_cat_10_n02125311_13492.png
subject-04,1,815,0.907729148864746,bear,cat,0,0815_lp_s04_0_cat_10_n02125311_1630.png
subject-04,1,816,0.821761131286621,oven,chair,10,0816_lp_s04_10_chair_10_n04429376_10544.png
subject-04,1,817,0.818011999130249,airplane,airplane,1,0817_lp_s04_1_airplane_10_n02690373_13317.png
subject-04,1,818,1.15490412712097,keyboard,chair,1,0818_lp_s04_1_chair_10_n04429376_14803.png
subject-04,1,819,0.923052072525024,cat,cat,1,0819_lp_s04_1_cat_10_n02124075_4198.png
subject-04,1,820,0.69917893409729,keyboard,keyboard,0,0820_lp_s04_0_keyboard_10_n04505470_4487.png
subject-04,1,821,0.581557989120483,car,elephant,15,0821_lp_s04_15_elephant_10_n02504013_7070.png
subject-04,1,822,0.76415491104126,oven,boat,1,0822_lp_s04_1_boat_10_n03344393_6487.png
subject-04,1,823,0.878557920455933,airplane,bird,15,0823_lp_s04_15_bird_10_n02011460_3898.png
subject-04,1,824,0.868938207626343,cat,cat,3,0824_lp_s04_3_cat_10_n02124075_7760.png
subject-04,1,825,0.905307054519653,bird,bird,0,0825_lp_s04_0_bird_10_n02037110_5958.png
subject-04,1,826,0.933266878128052,chair,chair,5,0826_lp_s04_5_chair_10_n04099969_4374.png
subject-04,1,827,1.06925106048584,bottle,cat,0,0827_lp_s04_0_cat_10_n02125311_48442.png
subject-04,1,828,0.797981023788452,elephant,car,40,0828_lp_s04_40_car_10_n02814533_39597.png
subject-04,1,829,0.704538822174072,bicycle,cat,40,0829_lp_s04_40_cat_10_n02123394_5938.png
subject-04,1,830,1.1567690372467,airplane,cat,15,0830_lp_s04_15_cat_10_n02123394_3305.png
subject-04,1,831,0.717077970504761,oven,dog,15,0831_lp_s04_15_dog_10_n02108915_2570.png
subject-04,1,832,0.524914979934692,boat,bird,10,0832_lp_s04_10_bird_10_n02002556_17975.png
subject-04,1,833,0.731413841247559,clock,bird,40,0833_lp_s04_40_bird_10_n01592084_6169.png
subject-04,1,834,0.775490045547485,boat,boat,0,0834_lp_s04_0_boat_10_n02951358_30673.png
subject-04,1,835,1.13351893424988,airplane,oven,3,0835_lp_s04_3_oven_10_n04111531_11079.png
subject-04,1,836,0.810266971588135,keyboard,clock,40,0836_lp_s04_40_clock_10_n03196217_1590.png
subject-04,1,837,0.57012677192688,oven,elephant,7,0837_lp_s04_7_elephant_10_n02504013_3599.png
subject-04,1,838,0.698950052261353,bear,dog,7,0838_lp_s04_7_dog_10_n02098286_2582.png
subject-04,1,839,0.950824975967407,airplane,airplane,5,0839_lp_s04_5_airplane_10_n02690373_6231.png
subject-04,1,840,0.863748788833618,oven,bird,40,0840_lp_s04_40_bird_10_n02013706_7201.png
subject-04,1,841,1.29980397224426,boat,car,40,0841_lp_s04_40_car_10_n02814533_65623.png
subject-04,1,842,1.3981499671936,dog,dog,10,0842_lp_s04_10_dog_10_n02110806_4291.png
subject-04,1,843,1.14247512817383,elephant,bear,40,0843_lp_s04_40_bear_10_n02133161_13566.png
subject-04,1,844,1.31090807914734,oven,car,5,0844_lp_s04_5_car_10_n02814533_7728.png
subject-04,1,845,0.739041805267334,knife,knife,15,0845_lp_s04_15_knife_10_n03041632_52702.png
subject-04,1,846,0.723620176315308,car,car,15,0846_lp_s04_15_car_10_n04285008_8017.png
subject-04,1,847,0.781789064407349,boat,boat,0,0847_lp_s04_0_boat_10_n02951358_30512.png
subject-04,1,848,0.896620988845825,bird,bird,0,0848_lp_s04_0_bird_10_n02027492_417.png
subject-04,1,849,0.778321981430054,dog,bottle,15,0849_lp_s04_15_bottle_10_n04557648_266.png
subject-04,1,850,0.714566946029663,car,truck,0,0850_lp_s04_0_truck_10_n04467665_39107.png
subject-04,1,851,NaN,na,bear,15,0851_lp_s04_15_bear_10_n02133161_10441.png
subject-04,1,852,0.816581010818481,airplane,airplane,5,0852_lp_s04_5_airplane_10_n02690373_9241.png
subject-04,1,853,0.601006031036377,keyboard,clock,15,0853_lp_s04_15_clock_10_n03196217_8887.png
subject-04,1,854,0.699310064315796,clock,keyboard,10,0854_lp_s04_10_keyboard_10_n04505470_6051.png
subject-04,1,855,0.887439012527466,elephant,elephant,0,0855_lp_s04_0_elephant_10_n02504013_8956.png
subject-04,1,856,0.872251033782959,keyboard,clock,40,0856_lp_s04_40_clock_10_n04548280_5422.png
subject-04,1,857,0.638413190841675,car,car,3,0857_lp_s04_3_car_10_n02814533_15651.png
subject-04,1,858,1.5002269744873,knife,knife,5,0858_lp_s04_5_knife_10_n03041632_5640.png
subject-04,1,859,0.912943840026855,clock,clock,3,0859_lp_s04_3_clock_10_n04548280_5426.png
subject-04,1,860,0.787781000137329,truck,truck,10,0860_lp_s04_10_truck_10_n04467665_34452.png
subject-04,1,861,0.631907939910889,boat,boat,1,0861_lp_s04_1_boat_10_n02951358_11794.png
subject-04,1,862,0.863259792327881,boat,boat,5,0862_lp_s04_5_boat_10_n02951358_14721.png
subject-04,1,863,0.807606935501099,truck,truck,3,0863_lp_s04_3_truck_10_n03417042_13448.png
subject-04,1,864,0.712113857269287,car,airplane,40,0864_lp_s04_40_airplane_10_n02690373_6516.png
subject-04,1,865,1.50026297569275,oven,elephant,3,0865_lp_s04_3_elephant_10_n02504013_2205.png
subject-04,1,866,0.822282075881958,keyboard,knife,15,0866_lp_s04_15_knife_10_n03041632_20662.png
subject-04,1,867,0.73700213432312,clock,clock,10,0867_lp_s04_10_clock_10_n04548280_8037.png
subject-04,1,868,1.01960110664368,bird,bird,5,0868_lp_s04_5_bird_10_n01592084_5152.png
subject-04,1,869,0.763942003250122,bicycle,cat,15,0869_lp_s04_15_cat_10_n02124075_4425.png
subject-04,1,870,0.754429817199707,truck,truck,0,0870_lp_s04_0_truck_10_n04467665_8674.png
subject-04,1,871,0.706695795059204,airplane,clock,15,0871_lp_s04_15_clock_10_n04548280_8980.png
subject-04,1,872,0.666703939437866,bear,boat,3,0872_lp_s04_3_boat_10_n03662601_3062.png
subject-04,1,873,1.19529581069946,bird,bird,3,0873_lp_s04_3_bird_10_n01819313_5234.png
subject-04,1,874,0.986031055450439,bird,bottle,15,0874_lp_s04_15_bottle_10_n04591713_6268.png
subject-04,1,875,0.88441801071167,bottle,elephant,7,0875_lp_s04_7_elephant_10_n02504458_5839.png
subject-04,1,876,0.704861879348755,oven,bicycle,15,0876_lp_s04_15_bicycle_10_n03792782_1955.png
subject-04,1,877,0.627178907394409,keyboard,bear,7,0877_lp_s04_7_bear_10_n02133161_1427.png
subject-04,1,878,0.747570037841797,boat,elephant,7,0878_lp_s04_7_elephant_10_n02504458_3261.png
subject-04,1,879,0.723476886749268,bicycle,bicycle,0,0879_lp_s04_0_bicycle_10_n02835271_3448.png
subject-04,1,880,0.644077062606812,airplane,elephant,40,0880_lp_s04_40_elephant_10_n02504458_5399.png
subject-04,1,881,0.680791139602661,airplane,airplane,7,0881_lp_s04_7_airplane_10_n02690373_5597.png
subject-04,1,882,0.679057121276855,oven,chair,7,0882_lp_s04_7_chair_10_n02791124_96.png
subject-04,1,883,1.18315696716309,elephant,oven,0,0883_lp_s04_0_oven_10_n04111531_15710.png
subject-04,1,884,1.25782799720764,bird,bird,3,0884_lp_s04_3_bird_10_n02013706_6832.png
subject-04,1,885,0.825981140136719,knife,knife,0,0885_lp_s04_0_knife_10_n03041632_42162.png
subject-04,1,886,0.810779094696045,car,car,0,0886_lp_s04_0_car_10_n03100240_932.png
subject-04,1,887,0.760587930679321,bicycle,bicycle,0,0887_lp_s04_0_bicycle_10_n03792782_16034.png
subject-04,1,888,0.712612867355347,chair,boat,40,0888_lp_s04_40_boat_10_n04273569_15626.png
subject-04,1,889,0.640905857086182,oven,keyboard,15,0889_lp_s04_15_keyboard_10_n03085013_3119.png
subject-04,1,890,0.723413944244385,bear,oven,15,0890_lp_s04_15_oven_10_n04111531_101.png
subject-04,1,891,1.05997610092163,cat,bottle,1,0891_lp_s04_1_bottle_10_n03937543_3487.png
subject-04,1,892,0.928571939468384,airplane,airplane,3,0892_lp_s04_3_airplane_10_n02690373_2389.png
subject-04,1,893,1.07867789268494,bottle,boat,15,0893_lp_s04_15_boat_10_n03344393_1070.png
subject-04,1,894,0.938854932785034,knife,oven,15,0894_lp_s04_15_oven_10_n04111531_4467.png
subject-04,1,895,0.751204967498779,airplane,airplane,5,0895_lp_s04_5_airplane_10_n02690373_8858.png
subject-04,1,896,0.681864976882935,keyboard,elephant,40,0896_lp_s04_40_elephant_10_n02504013_382.png
subject-04,1,897,0.69450306892395,car,car,15,0897_lp_s04_15_car_10_n03100240_3398.png
subject-04,1,898,1.1230640411377,keyboard,chair,5,0898_lp_s04_5_chair_10_n04429376_2592.png
subject-04,1,899,1.05945205688477,bear,bear,15,0899_lp_s04_15_bear_10_n02132136_19728.png
subject-04,1,900,0.665360927581787,bicycle,clock,40,0900_lp_s04_40_clock_10_n02708093_1090.png
subject-04,1,901,1.11584186553955,truck,truck,0,0901_lp_s04_0_truck_10_n03417042_10520.png
subject-04,1,902,1.50016212463379,elephant,elephant,1,0902_lp_s04_1_elephant_10_n02504013_9566.png
subject-04,1,903,1.13492393493652,car,car,0,0903_lp_s04_0_car_10_n03100240_17730.png
subject-04,1,904,1.02481389045715,airplane,airplane,3,0904_lp_s04_3_airplane_10_n02690373_1434.png
subject-04,1,905,0.801412105560303,keyboard,bicycle,10,0905_lp_s04_10_bicycle_10_n02835271_11842.png
subject-04,1,906,0.983406066894531,bear,dog,3,0906_lp_s04_3_dog_10_n02096294_2089.png
subject-04,1,907,0.849921941757202,chair,knife,3,0907_lp_s04_3_knife_10_n03041632_34505.png
subject-04,1,908,0.818181991577148,elephant,oven,10,0908_lp_s04_10_oven_10_n04111531_3976.png
subject-04,1,909,0.88440990447998,truck,knife,15,0909_lp_s04_15_knife_10_n03041632_46185.png
subject-04,1,910,0.65022087097168,chair,bicycle,1,0910_lp_s04_1_bicycle_10_n02835271_7922.png
subject-04,1,911,0.78629207611084,chair,chair,7,0911_lp_s04_7_chair_10_n02791124_4121.png
subject-04,1,912,0.684406995773315,clock,bicycle,15,0912_lp_s04_15_bicycle_10_n03792782_12265.png
subject-04,1,913,0.582835912704468,boat,boat,10,0913_lp_s04_10_boat_10_n03662601_30584.png
subject-04,1,914,0.611163854598999,oven,cat,10,0914_lp_s04_10_cat_10_n02123045_6962.png
subject-04,1,915,0.647574901580811,bear,truck,40,0915_lp_s04_40_truck_10_n03796401_27147.png
subject-04,1,916,1.0222339630127,elephant,chair,10,0916_lp_s04_10_chair_10_n02791124_4969.png
subject-04,1,917,0.774056196212769,truck,cat,10,0917_lp_s04_10_cat_10_n02125311_44867.png
subject-04,1,918,0.648818969726562,boat,bird,7,0918_lp_s04_7_bird_10_n02025239_6223.png
subject-04,1,919,0.714688062667847,knife,knife,0,0919_lp_s04_0_knife_10_n03041632_18311.png
subject-04,1,920,1.06687998771667,keyboard,keyboard,1,0920_lp_s04_1_keyboard_10_n03085013_9156.png
subject-04,1,921,0.689343214035034,oven,boat,10,0921_lp_s04_10_boat_10_n03662601_2150.png
subject-04,1,922,0.847805023193359,bicycle,chair,3,0922_lp_s04_3_chair_10_n04429376_14624.png
subject-04,1,923,1.03864192962646,truck,truck,5,0923_lp_s04_5_truck_10_n03796401_4898.png
subject-04,1,924,0.921123027801514,car,car,3,0924_lp_s04_3_car_10_n04285008_13354.png
subject-04,1,925,0.827378988265991,elephant,dog,15,0925_lp_s04_15_dog_10_n02110063_416.png
subject-04,1,926,0.818130016326904,bear,bottle,10,0926_lp_s04_10_bottle_10_n03983396_8411.png
subject-04,1,927,0.747960090637207,bottle,bottle,3,0927_lp_s04_3_bottle_10_n03937543_1398.png
subject-04,1,928,0.600238800048828,oven,cat,15,0928_lp_s04_15_cat_10_n02123394_2870.png
subject-04,1,929,0.920819997787476,dog,dog,1,0929_lp_s04_1_dog_10_n02106550_12873.png
subject-04,1,930,0.749403953552246,keyboard,cat,5,0930_lp_s04_5_cat_10_n02123159_6091.png
subject-04,1,931,1.44600796699524,car,car,1,0931_lp_s04_1_car_10_n02814533_77957.png
subject-04,1,932,1.06802296638489,cat,dog,3,0932_lp_s04_3_dog_10_n02094433_4184.png
subject-04,1,933,0.736230134963989,chair,chair,0,0933_lp_s04_0_chair_10_n03376595_14658.png
subject-04,1,934,1.40884709358215,cat,dog,3,0934_lp_s04_3_dog_10_n02086079_13888.png
subject-04,1,935,0.869514942169189,chair,chair,7,0935_lp_s04_7_chair_10_n04099969_1625.png
subject-04,1,936,0.959944009780884,boat,boat,1,0936_lp_s04_1_boat_10_n02951358_1626.png
subject-04,1,937,1.00405192375183,cat,bird,3,0937_lp_s04_3_bird_10_n01855672_5575.png
subject-04,1,938,0.947941064834595,truck,truck,1,0938_lp_s04_1_truck_10_n04467665_2044.png
subject-04,1,939,1.4826672077179,airplane,airplane,7,0939_lp_s04_7_airplane_10_n02690373_283.png
subject-04,1,940,1.22918105125427,boat,boat,7,0940_lp_s04_7_boat_10_n02951358_15241.png
subject-04,1,941,0.765408039093018,bottle,bottle,5,0941_lp_s04_5_bottle_10_n04591713_3022.png
subject-04,1,942,0.923612833023071,knife,knife,0,0942_lp_s04_0_knife_10_n03041632_26053.png
subject-04,1,943,0.922273874282837,bicycle,bear,7,0943_lp_s04_7_bear_10_n02134084_5678.png
subject-04,1,944,0.728657960891724,bicycle,keyboard,1,0944_lp_s04_1_keyboard_10_n03085013_22217.png
subject-04,1,945,0.711123943328857,elephant,airplane,5,0945_lp_s04_5_airplane_10_n02690373_9346.png
subject-04,1,946,0.639440059661865,airplane,oven,40,0946_lp_s04_40_oven_10_n04111531_3345.png
subject-04,1,947,0.699490070343018,car,bear,3,0947_lp_s04_3_bear_10_n02134418_16.png
subject-04,1,948,0.651822090148926,clock,keyboard,10,0948_lp_s04_10_keyboard_10_n04505470_4611.png
subject-04,1,949,0.734009981155396,bear,truck,5,0949_lp_s04_5_truck_10_n03417042_19203.png
subject-04,1,950,0.634675025939941,bicycle,bottle,10,0950_lp_s04_10_bottle_10_n04560804_6740.png
subject-04,1,951,0.641334056854248,oven,bird,40,0951_lp_s04_40_bird_10_n01817953_1988.png
subject-04,1,952,0.793659925460815,airplane,boat,5,0952_lp_s04_5_boat_10_n03344393_8878.png
subject-04,1,953,0.913985013961792,dog,bear,10,0953_lp_s04_10_bear_10_n02133161_7939.png
subject-04,1,954,1.00418996810913,knife,knife,1,0954_lp_s04_1_knife_10_n03041632_20832.png
subject-04,1,955,1.08669900894165,bear,bear,1,0955_lp_s04_1_bear_10_n02133161_12042.png
subject-04,1,956,1.26912403106689,airplane,knife,3,0956_lp_s04_3_knife_10_n03041632_4044.png
subject-04,1,957,1.14344191551208,keyboard,clock,40,0957_lp_s04_40_clock_10_n04548280_5257.png
subject-04,1,958,0.841477155685425,boat,boat,7,0958_lp_s04_7_boat_10_n03344393_7614.png
subject-04,1,959,0.679876089096069,boat,clock,5,0959_lp_s04_5_clock_10_n04548280_1025.png
subject-04,1,960,0.754428863525391,keyboard,oven,3,0960_lp_s04_3_oven_10_n04111531_22138.png
subject-04,1,961,0.57702112197876,boat,bird,10,0961_lp_s04_10_bird_10_n02006656_15305.png
subject-04,1,962,0.645607948303223,airplane,airplane,0,0962_lp_s04_0_airplane_10_n02690373_2882.png
subject-04,1,963,0.89009690284729,bicycle,bird,5,0963_lp_s04_5_bird_10_n02051845_125.png
subject-04,1,964,NaN,na,car,0,0964_lp_s04_0_car_10_n03100240_973.png
subject-04,1,965,0.67096996307373,car,car,7,0965_lp_s04_7_car_10_n04285008_12501.png
subject-04,1,966,0.869482040405273,clock,clock,3,0966_lp_s04_3_clock_10_n02708093_3365.png
subject-04,1,967,0.806062936782837,boat,chair,3,0967_lp_s04_3_chair_10_n02791124_13072.png
subject-04,1,968,0.996150016784668,keyboard,keyboard,10,0968_lp_s04_10_keyboard_10_n03085013_20881.png
subject-04,1,969,0.81669807434082,keyboard,oven,10,0969_lp_s04_10_oven_10_n04111531_1989.png
subject-04,1,970,0.707107067108154,truck,truck,40,0970_lp_s04_40_truck_10_n04467665_9833.png
subject-04,1,971,0.651479005813599,clock,truck,5,0971_lp_s04_5_truck_10_n03796401_23774.png
subject-04,1,972,0.769695997238159,keyboard,keyboard,5,0972_lp_s04_5_keyboard_10_n03085013_19416.png
subject-04,1,973,0.744140863418579,bear,bear,1,0973_lp_s04_1_bear_10_n02132136_5688.png
subject-04,1,974,0.658792018890381,airplane,airplane,40,0974_lp_s04_40_airplane_10_n02690373_1547.png
subject-04,1,975,0.67936110496521,clock,cat,5,0975_lp_s04_5_cat_10_n02124075_5186.png
subject-04,1,976,1.4752779006958,cat,airplane,10,0976_lp_s04_10_airplane_10_n02690373_1800.png
subject-04,1,977,0.843734979629517,bicycle,bicycle,0,0977_lp_s04_0_bicycle_10_n03792782_1240.png
subject-04,1,978,0.704115152359009,oven,oven,1,0978_lp_s04_1_oven_10_n04111531_5351.png
subject-04,1,979,0.640781164169312,boat,elephant,10,0979_lp_s04_10_elephant_10_n02504458_4014.png
subject-04,1,980,0.990947008132935,car,car,10,0980_lp_s04_10_car_10_n02814533_10429.png
subject-04,1,981,0.789337873458862,cat,cat,0,0981_lp_s04_0_cat_10_n02125311_16079.png
subject-04,1,982,0.80374002456665,bird,elephant,15,0982_lp_s04_15_elephant_10_n02504458_5369.png
subject-04,1,983,0.664341926574707,keyboard,bird,15,0983_lp_s04_15_bird_10_n01824575_8219.png
subject-04,1,984,0.846632957458496,cat,cat,5,0984_lp_s04_5_cat_10_n02123159_6659.png
subject-04,1,985,0.805145978927612,keyboard,airplane,10,0985_lp_s04_10_airplane_10_n02690373_8641.png
subject-04,1,986,0.527853965759277,airplane,elephant,40,0986_lp_s04_40_elephant_10_n02504458_7472.png
subject-04,1,987,0.742254018783569,keyboard,dog,40,0987_lp_s04_40_dog_10_n02111500_837.png
subject-04,1,988,1.00818490982056,chair,chair,1,0988_lp_s04_1_chair_10_n02791124_3883.png
subject-04,1,989,0.912400007247925,elephant,elephant,3,0989_lp_s04_3_elephant_10_n02504458_3684.png
subject-04,1,990,1.15698099136353,car,car,5,0990_lp_s04_5_car_10_n04285008_16647.png
subject-04,1,991,0.679054975509644,airplane,keyboard,40,0991_lp_s04_40_keyboard_10_n03085013_25675.png
subject-04,1,992,0.961407899856567,bicycle,airplane,1,0992_lp_s04_1_airplane_10_n02690373_6807.png
subject-04,1,993,0.851991891860962,keyboard,boat,15,0993_lp_s04_15_boat_10_n04273569_31172.png
subject-04,1,994,0.650514125823975,clock,clock,0,0994_lp_s04_0_clock_10_n04548280_5889.png
subject-04,1,995,0.649027109146118,oven,keyboard,7,0995_lp_s04_7_keyboard_10_n03085013_18964.png
subject-04,1,996,0.753377914428711,clock,bird,7,0996_lp_s04_7_bird_10_n02002724_6873.png
subject-04,1,997,1.02195882797241,bird,bird,10,0997_lp_s04_10_bird_10_n01860187_876.png
subject-04,1,998,1.48011612892151,bear,bear,7,0998_lp_s04_7_bear_10_n02134418_3202.png
subject-04,1,999,1.17013907432556,oven,keyboard,0,0999_lp_s04_0_keyboard_10_n04505470_2158.png
subject-04,1,1000,1.27759003639221,bird,bird,15,1000_lp_s04_15_bird_10_n01829413_5801.png
subject-04,1,1001,1.04366517066956,bottle,bottle,15,1001_lp_s04_15_bottle_10_n03983396_261.png
subject-04,1,1002,1.14199113845825,bottle,bottle,5,1002_lp_s04_5_bottle_10_n04579145_264.png
subject-04,1,1003,0.778435945510864,car,bottle,15,1003_lp_s04_15_bottle_10_n04591713_6823.png
subject-04,1,1004,0.768683910369873,bear,clock,5,1004_lp_s04_5_clock_10_n04548280_3098.png
subject-04,1,1005,0.751258134841919,boat,oven,7,1005_lp_s04_7_oven_10_n04111531_6993.png
subject-04,1,1006,0.603510141372681,cat,dog,10,1006_lp_s04_10_dog_10_n02113799_4070.png
subject-04,1,1007,0.693564891815186,chair,chair,3,1007_lp_s04_3_chair_10_n03376595_3624.png
subject-04,1,1008,0.691984891891479,bear,bear,0,1008_lp_s04_0_bear_10_n02133161_1892.png
subject-04,1,1009,0.828315019607544,keyboard,clock,40,1009_lp_s04_40_clock_10_n02708093_2111.png
subject-04,1,1010,0.648775100708008,elephant,elephant,5,1010_lp_s04_5_elephant_10_n02504013_8418.png
subject-04,1,1011,0.914494037628174,bottle,bottle,3,1011_lp_s04_3_bottle_10_n02823428_7034.png
subject-04,1,1012,1.25633811950684,bicycle,bicycle,5,1012_lp_s04_5_bicycle_10_n03792782_8097.png
subject-04,1,1013,0.900938034057617,cat,elephant,10,1013_lp_s04_10_elephant_10_n02504458_8060.png
subject-04,1,1014,0.761685132980347,bear,bird,7,1014_lp_s04_7_bird_10_n02017213_2297.png
subject-04,1,1015,0.7220139503479,clock,clock,7,1015_lp_s04_7_clock_10_n04548280_10971.png
subject-04,1,1016,0.704057931900024,oven,oven,7,1016_lp_s04_7_oven_10_n04111531_2670.png
subject-04,1,1017,0.72451114654541,boat,clock,10,1017_lp_s04_10_clock_10_n02708093_2196.png
subject-04,1,1018,0.808828830718994,boat,clock,1,1018_lp_s04_1_clock_10_n04548280_23.png
subject-04,1,1019,0.675309896469116,keyboard,elephant,5,1019_lp_s04_5_elephant_10_n02504013_5501.png
subject-04,1,1020,0.947062969207764,bear,bear,10,1020_lp_s04_10_bear_10_n02134418_703.png
subject-04,1,1021,0.860804080963135,knife,truck,5,1021_lp_s04_5_truck_10_n04467665_45735.png
subject-04,1,1022,1.05153799057007,dog,bird,5,1022_lp_s04_5_bird_10_n01531178_4797.png
subject-04,1,1023,0.841509103775024,car,bear,40,1023_lp_s04_40_bear_10_n02132136_10301.png
subject-04,1,1024,0.731637001037598,elephant,elephant,5,1024_lp_s04_5_elephant_10_n02504458_6792.png
subject-04,1,1025,NaN,na,dog,0,1025_lp_s04_0_dog_10_n02113799_4929.png
subject-04,1,1026,0.873579025268555,airplane,airplane,15,1026_lp_s04_15_airplane_10_n02690373_11908.png
subject-04,1,1027,0.872085094451904,cat,cat,3,1027_lp_s04_3_cat_10_n02123597_10753.png
subject-04,1,1028,0.908735036849976,keyboard,knife,0,1028_lp_s04_0_knife_10_n03041632_85416.png
subject-04,1,1029,1.04529690742493,oven,cat,15,1029_lp_s04_15_cat_10_n02123159_4663.png
subject-04,1,1030,0.867269039154053,bear,chair,7,1030_lp_s04_7_chair_10_n04099969_39804.png
subject-04,1,1031,0.856009960174561,oven,oven,1,1031_lp_s04_1_oven_10_n04111531_27.png
subject-04,1,1032,0.656428098678589,bicycle,bird,40,1032_lp_s04_40_bird_10_n01532829_1096.png
subject-04,1,1033,0.622892141342163,keyboard,bottle,7,1033_lp_s04_7_bottle_10_n03937543_6356.png
subject-04,1,1034,0.913418054580688,car,airplane,3,1034_lp_s04_3_airplane_10_n02690373_4507.png
subject-04,1,1035,0.749475002288818,airplane,airplane,40,1035_lp_s04_40_airplane_10_n02690373_10506.png
subject-04,1,1036,NaN,na,elephant,1,1036_lp_s04_1_elephant_10_n02504013_5919.png
subject-04,1,1037,1.10675406455994,bird,bird,7,1037_lp_s04_7_bird_10_n01828970_26347.png
subject-04,1,1038,0.920974016189575,bear,boat,7,1038_lp_s04_7_boat_10_n03662601_9752.png
subject-04,1,1039,0.979478120803833,dog,dog,1,1039_lp_s04_1_dog_10_n02107683_3030.png
subject-04,1,1040,0.80203914642334,bear,bear,0,1040_lp_s04_0_bear_10_n02133161_16147.png
subject-04,1,1041,0.822365999221802,bear,bear,0,1041_lp_s04_0_bear_10_n02133161_9672.png
subject-04,1,1042,0.8507981300354,cat,elephant,40,1042_lp_s04_40_elephant_10_n02504458_5309.png
subject-04,1,1043,0.787478923797607,keyboard,truck,40,1043_lp_s04_40_truck_10_n03796401_106.png
subject-04,1,1044,0.685796976089478,knife,knife,7,1044_lp_s04_7_knife_10_n03041632_46112.png
subject-04,1,1045,0.663259029388428,knife,boat,10,1045_lp_s04_10_boat_10_n04612504_5442.png
subject-04,1,1046,0.661641120910645,keyboard,keyboard,0,1046_lp_s04_0_keyboard_10_n04505470_10026.png
subject-04,1,1047,0.728266954421997,clock,bottle,1,1047_lp_s04_1_bottle_10_n03937543_2350.png
subject-04,1,1048,0.642410039901733,airplane,airplane,0,1048_lp_s04_0_airplane_10_n02690373_9535.png
subject-04,1,1049,0.686850070953369,bear,chair,7,1049_lp_s04_7_chair_10_n03376595_2667.png
subject-04,1,1050,0.731120824813843,airplane,airplane,1,1050_lp_s04_1_airplane_10_n02690373_790.png
subject-04,1,1051,0.675644159317017,clock,bottle,10,1051_lp_s04_10_bottle_10_n04557648_11642.png
subject-04,1,1052,0.520210981369019,oven,elephant,15,1052_lp_s04_15_elephant_10_n02504458_7225.png
subject-04,1,1053,1.25494003295898,cat,dog,5,1053_lp_s04_5_dog_10_n02113799_6997.png
subject-04,1,1054,0.598675966262817,bear,knife,40,1054_lp_s04_40_knife_10_n03041632_39739.png
subject-04,1,1055,0.643395900726318,keyboard,keyboard,5,1055_lp_s04_5_keyboard_10_n03085013_24257.png
subject-04,1,1056,1.06363391876221,cat,cat,1,1056_lp_s04_1_cat_10_n02125311_6109.png
subject-04,1,1057,1.03774905204773,keyboard,oven,0,1057_lp_s04_0_oven_10_n04111531_1188.png
subject-04,1,1058,0.76049280166626,oven,truck,7,1058_lp_s04_7_truck_10_n03417042_1437.png
subject-04,1,1059,0.972745895385742,oven,oven,3,1059_lp_s04_3_oven_10_n04111531_4116.png
subject-04,1,1060,1.03315901756287,oven,car,10,1060_lp_s04_10_car_10_n02814533_10510.png
subject-04,1,1061,1.15342211723328,boat,airplane,7,1061_lp_s04_7_airplane_10_n02690373_2150.png
subject-04,1,1062,1.20624184608459,boat,boat,3,1062_lp_s04_3_boat_10_n02951358_15252.png
subject-04,1,1063,1.22624778747559,cat,clock,1,1063_lp_s04_1_clock_10_n02708093_1505.png
subject-04,1,1064,1.22498607635498,chair,knife,1,1064_lp_s04_1_knife_10_n03041632_751.png
subject-04,1,1065,0.862308979034424,bicycle,chair,10,1065_lp_s04_10_chair_10_n03376595_6524.png
subject-04,1,1066,0.882179975509644,airplane,oven,3,1066_lp_s04_3_oven_10_n04111531_22403.png
subject-04,1,1067,1.45650100708008,car,knife,3,1067_lp_s04_3_knife_10_n03041632_9256.png
subject-04,1,1068,1.22485089302063,airplane,airplane,3,1068_lp_s04_3_airplane_10_n02690373_1050.png
subject-04,1,1069,0.839448928833008,boat,elephant,7,1069_lp_s04_7_elephant_10_n02504458_6437.png
subject-04,1,1070,0.889496803283691,truck,car,10,1070_lp_s04_10_car_10_n02814533_72805.png
subject-04,1,1071,1.14177989959717,chair,keyboard,5,1071_lp_s04_5_keyboard_10_n03085013_12678.png
subject-04,1,1072,0.856307983398438,elephant,dog,40,1072_lp_s04_40_dog_10_n02097298_7875.png
subject-04,1,1073,1.26878094673157,bear,dog,40,1073_lp_s04_40_dog_10_n02113624_1669.png
subject-04,1,1074,1.26760983467102,boat,bird,1,1074_lp_s04_1_bird_10_n01855032_4613.png
subject-04,1,1075,0.873997211456299,bicycle,bicycle,1,1075_lp_s04_1_bicycle_10_n02835271_15918.png
subject-04,1,1076,0.748334884643555,bear,bear,10,1076_lp_s04_10_bear_10_n02134418_2145.png
subject-04,1,1077,0.630968809127808,airplane,airplane,0,1077_lp_s04_0_airplane_10_n02690373_2856.png
subject-04,1,1078,0.621306896209717,bicycle,bicycle,5,1078_lp_s04_5_bicycle_10_n03792782_26289.png
subject-04,1,1079,0.689892053604126,bear,bear,3,1079_lp_s04_3_bear_10_n02133161_29.png
subject-04,1,1080,0.810249805450439,airplane,knife,10,1080_lp_s04_10_knife_10_n03041632_24228.png
subject-04,1,1081,0.944131135940552,truck,truck,7,1081_lp_s04_7_truck_10_n03417042_6581.png
subject-04,1,1082,0.888408899307251,bottle,bottle,3,1082_lp_s04_3_bottle_10_n04557648_1607.png
subject-04,1,1083,0.811285018920898,bottle,bottle,7,1083_lp_s04_7_bottle_10_n02823428_6196.png
subject-04,1,1084,0.793594837188721,clock,clock,3,1084_lp_s04_3_clock_10_n03196217_4912.png
subject-04,1,1085,1.11380100250244,oven,oven,1,1085_lp_s04_1_oven_10_n04111531_18645.png
subject-04,1,1086,0.795967102050781,bird,bird,1,1086_lp_s04_1_bird_10_n01531178_22241.png
subject-04,1,1087,0.648797035217285,clock,clock,10,1087_lp_s04_10_clock_10_n02708093_4912.png
subject-04,1,1088,0.701196908950806,car,chair,40,1088_lp_s04_40_chair_10_n04099969_19736.png
