subj,session,trial,rt,object_response,category,condition,imagename
subject-01,1,1,0.88630199432373,boat,oven,40,0001_lp_s01_40_oven_10_n04111531_283.png
subject-01,1,2,0.801005840301514,oven,knife,40,0002_lp_s01_40_knife_10_n03041632_28201.png
subject-01,1,3,0.825425148010254,bicycle,bicycle,1,0003_lp_s01_1_bicycle_10_n02835271_17184.png
subject-01,1,4,1.11818695068359,oven,chair,0,0004_lp_s01_0_chair_10_n04429376_8237.png
subject-01,1,5,0.526857852935791,car,car,1,0005_lp_s01_1_car_10_n04285008_39.png
subject-01,1,6,0.604899883270264,truck,truck,1,0006_lp_s01_1_truck_10_n03417042_20591.png
subject-01,1,7,0.667595863342285,bottle,bottle,3,0007_lp_s01_3_bottle_10_n03983396_12728.png
subject-01,1,8,0.89827299118042,clock,truck,40,0008_lp_s01_40_truck_10_n04467665_66876.png
subject-01,1,9,0.752087831497192,bottle,keyboard,1,0009_lp_s01_1_keyboard_10_n03085013_5950.png
subject-01,1,10,0.776526927947998,boat,boat,3,0010_lp_s01_3_boat_10_n03662601_14478.png
subject-01,1,11,0.637251138687134,oven,oven,0,0011_lp_s01_0_oven_10_n04111531_7189.png
subject-01,1,12,1.05365014076233,airplane,elephant,15,0012_lp_s01_15_elephant_10_n02504013_9393.png
subject-01,1,13,0.646176099777222,clock,clock,5,0013_lp_s01_5_clock_10_n02708093_8051.png
subject-01,1,14,0.976606130599976,boat,bear,10,0014_lp_s01_10_bear_10_n02134084_24187.png
subject-01,1,15,0.879180908203125,bear,bear,3,0015_lp_s01_3_bear_10_n02132136_6441.png
subject-01,1,16,0.663812160491943,airplane,airplane,0,0016_lp_s01_0_airplane_10_n02690373_9401.png
subject-01,1,17,1.03982281684875,oven,chair,7,0017_lp_s01_7_chair_10_n04099969_12456.png
subject-01,1,18,0.747899770736694,keyboard,keyboard,0,0018_lp_s01_0_keyboard_10_n03085013_12164.png
subject-01,1,19,0.740579843521118,bear,bear,1,0019_lp_s01_1_bear_10_n02132136_1584.png
subject-01,1,20,0.894881010055542,keyboard,bottle,40,0020_lp_s01_40_bottle_10_n02823428_5227.png
subject-01,1,21,1.02753901481628,oven,keyboard,15,0021_lp_s01_15_keyboard_10_n04505470_313.png
subject-01,1,22,0.743933916091919,keyboard,keyboard,7,0022_lp_s01_7_keyboard_10_n03085013_1188.png
subject-01,1,23,1.02824592590332,keyboard,oven,7,0023_lp_s01_7_oven_10_n04111531_14208.png
subject-01,1,24,0.990683794021606,car,bear,15,0024_lp_s01_15_bear_10_n02134418_5777.png
subject-01,1,25,0.775518178939819,knife,knife,7,0025_lp_s01_7_knife_10_n03041632_2153.png
subject-01,1,26,1.24583101272583,knife,knife,1,0026_lp_s01_1_knife_10_n03041632_2468.png
subject-01,1,27,1.40058302879333,chair,elephant,15,0027_lp_s01_15_elephant_10_n02504013_5887.png
subject-01,1,28,0.692824125289917,car,car,3,0028_lp_s01_3_car_10_n02814533_3202.png
subject-01,1,29,0.909262895584106,keyboard,chair,7,0029_lp_s01_7_chair_10_n02791124_57.png
subject-01,1,30,0.679983854293823,car,car,0,0030_lp_s01_0_car_10_n02814533_4689.png
subject-01,1,31,0.73462986946106,elephant,elephant,3,0031_lp_s01_3_elephant_10_n02504013_9021.png
subject-01,1,32,1.00304698944092,keyboard,cat,15,0032_lp_s01_15_cat_10_n02124075_13747.png
subject-01,1,33,0.843199014663696,cat,chair,15,0033_lp_s01_15_chair_10_n04429376_24434.png
subject-01,1,34,1.39620900154114,oven,clock,5,0034_lp_s01_5_clock_10_n03196217_2530.png
subject-01,1,35,1.24449419975281,boat,airplane,10,0035_lp_s01_10_airplane_10_n02690373_7432.png
subject-01,1,36,1.09885120391846,airplane,oven,10,0036_lp_s01_10_oven_10_n04111531_13795.png
subject-01,1,37,0.921186208724976,oven,oven,0,0037_lp_s01_0_oven_10_n04111531_22388.png
subject-01,1,38,0.807789087295532,elephant,elephant,5,0038_lp_s01_5_elephant_10_n02504458_10013.png
subject-01,1,39,1.28439283370972,keyboard,knife,40,0039_lp_s01_40_knife_10_n03041632_8468.png
subject-01,1,40,0.909032106399536,boat,boat,15,0040_lp_s01_15_boat_10_n03662601_16825.png
subject-01,1,41,0.548106908798218,oven,oven,3,0041_lp_s01_3_oven_10_n04111531_4370.png
subject-01,1,42,0.747783899307251,airplane,airplane,1,0042_lp_s01_1_airplane_10_n02690373_4079.png
subject-01,1,43,0.764305830001831,airplane,airplane,3,0043_lp_s01_3_airplane_10_n02690373_5870.png
subject-01,1,44,1.21092891693115,oven,knife,40,0044_lp_s01_40_knife_10_n03041632_10136.png
subject-01,1,45,0.995121955871582,bottle,bottle,3,0045_lp_s01_3_bottle_10_n04560804_19001.png
subject-01,1,46,0.789898872375488,bicycle,bicycle,3,0046_lp_s01_3_bicycle_10_n03792782_72443.png
subject-01,1,47,0.673977851867676,bottle,bottle,3,0047_lp_s01_3_bottle_10_n04591713_7134.png
subject-01,1,48,0.636716842651367,bicycle,bird,5,0048_lp_s01_5_bird_10_n01824575_4941.png
subject-01,1,49,0.753170013427734,bear,bear,7,0049_lp_s01_7_bear_10_n02134418_5326.png
subject-01,1,50,1.02988290786743,airplane,bear,40,0050_lp_s01_40_bear_10_n02134084_12428.png
subject-01,1,51,0.730535984039307,keyboard,knife,7,0051_lp_s01_7_knife_10_n03041632_4708.png
subject-01,1,52,0.960738897323608,oven,bicycle,15,0052_lp_s01_15_bicycle_10_n02835271_8203.png
subject-01,1,53,0.531138181686401,clock,clock,5,0053_lp_s01_5_clock_10_n04548280_2421.png
subject-01,1,54,1.26187586784363,dog,dog,7,0054_lp_s01_7_dog_10_n02111277_50807.png
subject-01,1,55,1.19465494155884,bird,bird,0,0055_lp_s01_0_bird_10_n02009229_4838.png
subject-01,1,56,0.602833986282349,bottle,bottle,1,0056_lp_s01_1_bottle_10_n04560804_22426.png
subject-01,1,57,0.811227083206177,car,bird,10,0057_lp_s01_10_bird_10_n02006656_11017.png
subject-01,1,58,1.24965286254883,airplane,clock,40,0058_lp_s01_40_clock_10_n04548280_7662.png
subject-01,1,59,0.742499113082886,dog,dog,5,0059_lp_s01_5_dog_10_n02108915_5514.png
subject-01,1,60,0.93684196472168,dog,dog,0,0060_lp_s01_0_dog_10_n02109961_1223.png
subject-01,1,61,1.35195112228394,bottle,dog,40,0061_lp_s01_40_dog_10_n02097047_2426.png
subject-01,1,62,1.25155591964722,bear,dog,10,0062_lp_s01_10_dog_10_n02091032_9464.png
subject-01,1,63,1.2222318649292,airplane,bear,40,0063_lp_s01_40_bear_10_n02132136_7074.png
subject-01,1,64,0.814249038696289,bear,bear,1,0064_lp_s01_1_bear_10_n02133161_195.png
subject-01,1,65,0.785027027130127,cat,bear,3,0065_lp_s01_3_bear_10_n02134418_14961.png
subject-01,1,66,1.00148391723633,dog,dog,0,0066_lp_s01_0_dog_10_n02086910_9742.png
subject-01,1,67,0.809931993484497,keyboard,clock,40,0067_lp_s01_40_clock_10_n02708093_8276.png
subject-01,1,68,1.01043009757996,cat,cat,5,0068_lp_s01_5_cat_10_n02123045_1126.png
subject-01,1,69,0.694830894470215,keyboard,keyboard,0,0069_lp_s01_0_keyboard_10_n04505470_1105.png
subject-01,1,70,0.65754508972168,elephant,elephant,3,0070_lp_s01_3_elephant_10_n02504458_205.png
subject-01,1,71,0.52778697013855,oven,oven,0,0071_lp_s01_0_oven_10_n04111531_15052.png
subject-01,1,72,1.14271402359009,car,keyboard,15,0072_lp_s01_15_keyboard_10_n03085013_23731.png
subject-01,1,73,1.20500087738037,elephant,elephant,1,0073_lp_s01_1_elephant_10_n02504458_5766.png
subject-01,1,74,0.983689069747925,keyboard,keyboard,10,0074_lp_s01_10_keyboard_10_n03085013_14351.png
subject-01,1,75,0.591747045516968,bear,bear,0,0075_lp_s01_0_bear_10_n02134418_5581.png
subject-01,1,76,1.12229108810425,truck,truck,7,0076_lp_s01_7_truck_10_n03796401_7928.png
subject-01,1,77,0.938607931137085,airplane,knife,10,0077_lp_s01_10_knife_10_n03041632_95293.png
subject-01,1,78,0.868932008743286,keyboard,cat,40,0078_lp_s01_40_cat_10_n02124075_9066.png
subject-01,1,79,0.785414934158325,knife,knife,3,0079_lp_s01_3_knife_10_n03041632_47410.png
subject-01,1,80,0.755998134613037,airplane,airplane,5,0080_lp_s01_5_airplane_10_n02690373_6887.png
subject-01,1,81,0.880499124526978,airplane,airplane,1,0081_lp_s01_1_airplane_10_n02690373_11908.png
subject-01,1,82,0.887387990951538,truck,keyboard,5,0082_lp_s01_5_keyboard_10_n03085013_23319.png
subject-01,1,83,0.881592035293579,car,truck,40,0083_lp_s01_40_truck_10_n03796401_9.png
subject-01,1,84,1.02026391029358,cat,cat,1,0084_lp_s01_1_cat_10_n02123394_4299.png
subject-01,1,85,0.982525110244751,airplane,bird,15,0085_lp_s01_15_bird_10_n01843383_2843.png
subject-01,1,86,0.737359046936035,bear,bear,10,0086_lp_s01_10_bear_10_n02133161_396.png
subject-01,1,87,1.23802304267883,elephant,dog,10,0087_lp_s01_10_dog_10_n02101006_15350.png
subject-01,1,88,0.732792854309082,bird,bird,0,0088_lp_s01_0_bird_10_n02002556_15721.png
subject-01,1,89,0.70314884185791,chair,chair,5,0089_lp_s01_5_chair_10_n03376595_302.png
subject-01,1,90,1.09601712226868,boat,keyboard,10,0090_lp_s01_10_keyboard_10_n03085013_2432.png
subject-01,1,91,0.942636966705322,clock,keyboard,40,0091_lp_s01_40_keyboard_10_n04505470_4672.png
subject-01,1,92,0.61306095123291,keyboard,keyboard,1,0092_lp_s01_1_keyboard_10_n03085013_20303.png
subject-01,1,93,1.22713994979858,cat,truck,15,0093_lp_s01_15_truck_10_n04467665_3125.png
subject-01,1,94,0.589844942092896,clock,clock,7,0094_lp_s01_7_clock_10_n03196217_1272.png
subject-01,1,95,1.16812896728516,oven,truck,15,0095_lp_s01_15_truck_10_n03417042_1336.png
subject-01,1,96,1.0285120010376,car,cat,10,0096_lp_s01_10_cat_10_n02123394_1690.png
subject-01,1,97,1.24498796463013,car,elephant,15,0097_lp_s01_15_elephant_10_n02504013_5463.png
subject-01,1,98,0.637306928634644,keyboard,keyboard,3,0098_lp_s01_3_keyboard_10_n03085013_24578.png
subject-01,1,99,1.13811206817627,oven,keyboard,15,0099_lp_s01_15_keyboard_10_n03085013_7955.png
subject-01,1,100,NaN,na,cat,7,0100_lp_s01_7_cat_10_n02123045_9184.png
subject-01,1,101,1.12229108810425,bear,cat,7,0101_lp_s01_7_cat_10_n02123394_4232.png
subject-01,1,102,0.571039199829102,clock,clock,0,0102_lp_s01_0_clock_10_n03196217_2414.png
subject-01,1,103,0.555764198303223,boat,boat,7,0103_lp_s01_7_boat_10_n03662601_16925.png
subject-01,1,104,0.802165985107422,keyboard,keyboard,5,0104_lp_s01_5_keyboard_10_n04505470_4371.png
subject-01,1,105,0.688408136367798,oven,oven,3,0105_lp_s01_3_oven_10_n04111531_7329.png
subject-01,1,106,0.610809087753296,clock,clock,0,0106_lp_s01_0_clock_10_n02708093_2762.png
subject-01,1,107,0.803543090820312,clock,clock,7,0107_lp_s01_7_clock_10_n04548280_532.png
subject-01,1,108,0.712281942367554,clock,chair,7,0108_lp_s01_7_chair_10_n03376595_4190.png
subject-01,1,109,0.575147151947021,clock,keyboard,5,0109_lp_s01_5_keyboard_10_n03085013_2594.png
subject-01,1,110,0.607719898223877,bicycle,bicycle,3,0110_lp_s01_3_bicycle_10_n02835271_9202.png
subject-01,1,111,0.816118955612183,truck,truck,5,0111_lp_s01_5_truck_10_n04467665_31059.png
subject-01,1,112,1.37692713737488,cat,elephant,10,0112_lp_s01_10_elephant_10_n02504458_3648.png
subject-01,1,113,0.671538114547729,airplane,airplane,7,0113_lp_s01_7_airplane_10_n02690373_2293.png
subject-01,1,114,0.747834920883179,boat,boat,5,0114_lp_s01_5_boat_10_n02951358_33277.png
subject-01,1,115,0.910377979278564,car,bird,3,0115_lp_s01_3_bird_10_n01855032_8133.png
subject-01,1,116,0.756854057312012,bird,bird,1,0116_lp_s01_1_bird_10_n01843065_3596.png
subject-01,1,117,0.973657131195068,bear,bird,7,0117_lp_s01_7_bird_10_n01601694_10927.png
subject-01,1,118,0.695755958557129,chair,chair,1,0118_lp_s01_1_chair_10_n02791124_3883.png
subject-01,1,119,0.906697034835815,keyboard,oven,10,0119_lp_s01_10_oven_10_n04111531_4392.png
subject-01,1,120,0.815351963043213,car,cat,15,0120_lp_s01_15_cat_10_n02125311_24439.png
subject-01,1,121,1.12150692939758,airplane,chair,40,0121_lp_s01_40_chair_10_n04099969_8018.png
subject-01,1,122,0.892496109008789,boat,boat,7,0122_lp_s01_7_boat_10_n02951358_2685.png
subject-01,1,123,0.746935844421387,airplane,airplane,15,0123_lp_s01_15_airplane_10_n02690373_848.png
subject-01,1,124,1.38515520095825,bird,bottle,10,0124_lp_s01_10_bottle_10_n03983396_12670.png
subject-01,1,125,0.631535053253174,airplane,airplane,3,0125_lp_s01_3_airplane_10_n02690373_15392.png
subject-01,1,126,0.894250154495239,truck,cat,10,0126_lp_s01_10_cat_10_n02123394_1957.png
subject-01,1,127,0.564815044403076,bear,bear,1,0127_lp_s01_1_bear_10_n02134418_2231.png
subject-01,1,128,0.99514102935791,elephant,bear,40,0128_lp_s01_40_bear_10_n02133161_2120.png
subject-01,1,129,0.873725891113281,airplane,cat,40,0129_lp_s01_40_cat_10_n02123394_5111.png
subject-01,1,130,0.666492938995361,bottle,bottle,0,0130_lp_s01_0_bottle_10_n02823428_2918.png
subject-01,1,131,1.18101692199707,bird,bird,10,0131_lp_s01_10_bird_10_n01860187_27046.png
subject-01,1,132,0.751400947570801,bottle,bottle,1,0132_lp_s01_1_bottle_10_n04557648_12301.png
subject-01,1,133,0.605871915817261,boat,boat,1,0133_lp_s01_1_boat_10_n03344393_5030.png
subject-01,1,134,0.752480983734131,dog,dog,1,0134_lp_s01_1_dog_10_n02097047_2376.png
subject-01,1,135,0.822609901428223,truck,truck,10,0135_lp_s01_10_truck_10_n04467665_12177.png
subject-01,1,136,0.623117923736572,knife,knife,10,0136_lp_s01_10_knife_10_n03041632_55711.png
subject-01,1,137,0.685637950897217,keyboard,oven,10,0137_lp_s01_10_oven_10_n04111531_7619.png
subject-01,1,138,1.17827010154724,airplane,bicycle,7,0138_lp_s01_7_bicycle_10_n02835271_12608.png
subject-01,1,139,0.632829904556274,elephant,elephant,0,0139_lp_s01_0_elephant_10_n02504458_908.png
subject-01,1,140,0.671347141265869,bird,bird,5,0140_lp_s01_5_bird_10_n01530575_10367.png
subject-01,1,141,0.679691076278687,car,car,0,0141_lp_s01_0_car_10_n04285008_11290.png
subject-01,1,142,0.858345985412598,clock,bird,10,0142_lp_s01_10_bird_10_n02013706_10026.png
subject-01,1,143,0.988784074783325,oven,cat,40,0143_lp_s01_40_cat_10_n02124075_6638.png
subject-01,1,144,0.65903115272522,elephant,elephant,1,0144_lp_s01_1_elephant_10_n02504458_4868.png
subject-01,1,145,0.959781169891357,cat,cat,5,0145_lp_s01_5_cat_10_n02123394_4164.png
subject-01,1,146,0.952275991439819,keyboard,oven,15,0146_lp_s01_15_oven_10_n04111531_21963.png
subject-01,1,147,0.968625068664551,boat,bicycle,40,0147_lp_s01_40_bicycle_10_n02835271_14499.png
subject-01,1,148,0.790886878967285,knife,knife,3,0148_lp_s01_3_knife_10_n03041632_12949.png
subject-01,1,149,1.00755286216736,boat,car,40,0149_lp_s01_40_car_10_n02814533_51701.png
subject-01,1,150,0.929960966110229,bottle,chair,5,0150_lp_s01_5_chair_10_n02791124_3222.png
subject-01,1,151,0.63233208656311,oven,oven,15,0151_lp_s01_15_oven_10_n04111531_8793.png
subject-01,1,152,0.808614015579224,bear,bear,0,0152_lp_s01_0_bear_10_n02134418_3952.png
subject-01,1,153,0.691900968551636,chair,chair,3,0153_lp_s01_3_chair_10_n02791124_14040.png
subject-01,1,154,0.938586950302124,dog,dog,1,0154_lp_s01_1_dog_10_n02097298_6466.png
subject-01,1,155,1.15277910232544,bird,elephant,40,0155_lp_s01_40_elephant_10_n02504013_3634.png
subject-01,1,156,1.50006198883057,keyboard,bird,40,0156_lp_s01_40_bird_10_n01824575_822.png
subject-01,1,157,0.593735933303833,bear,bear,1,0157_lp_s01_1_bear_10_n02134418_14.png
subject-01,1,158,1.06229996681213,bicycle,elephant,7,0158_lp_s01_7_elephant_10_n02504013_8052.png
subject-01,1,159,0.970416069030762,bottle,bottle,10,0159_lp_s01_10_bottle_10_n03937543_1740.png
subject-01,1,160,0.825052976608276,bird,elephant,5,0160_lp_s01_5_elephant_10_n02504458_1636.png
subject-01,1,161,0.675212144851685,keyboard,keyboard,1,0161_lp_s01_1_keyboard_10_n03085013_21097.png
subject-01,1,162,0.599704027175903,keyboard,keyboard,5,0162_lp_s01_5_keyboard_10_n04505470_8364.png
subject-01,1,163,0.646146059036255,airplane,boat,10,0163_lp_s01_10_boat_10_n03662601_8067.png
subject-01,1,164,1.0145058631897,airplane,clock,40,0164_lp_s01_40_clock_10_n04548280_4143.png
subject-01,1,165,0.823261976242065,cat,bottle,15,0165_lp_s01_15_bottle_10_n03937543_5375.png
subject-01,1,166,0.709689855575562,boat,car,40,0166_lp_s01_40_car_10_n04285008_12868.png
subject-01,1,167,0.72416615486145,elephant,elephant,1,0167_lp_s01_1_elephant_10_n02504013_3739.png
subject-01,1,168,1.04901504516602,oven,bicycle,15,0168_lp_s01_15_bicycle_10_n03792782_13051.png
subject-01,1,169,0.84172797203064,keyboard,boat,10,0169_lp_s01_10_boat_10_n03662601_8554.png
subject-01,1,170,0.980139017105103,car,elephant,15,0170_lp_s01_15_elephant_10_n02504458_7472.png
subject-01,1,171,0.550862073898315,boat,boat,1,0171_lp_s01_1_boat_10_n03662601_11901.png
subject-01,1,172,0.712964057922363,bird,bird,0,0172_lp_s01_0_bird_10_n01860187_10562.png
subject-01,1,173,1.05178999900818,clock,oven,40,0173_lp_s01_40_oven_10_n04111531_5727.png
subject-01,1,174,1.27404403686523,oven,bear,40,0174_lp_s01_40_bear_10_n02134084_23165.png
subject-01,1,175,0.636956214904785,airplane,airplane,7,0175_lp_s01_7_airplane_10_n02690373_2564.png
subject-01,1,176,0.928952932357788,chair,chair,1,0176_lp_s01_1_chair_10_n02791124_66.png
subject-01,1,177,0.629773855209351,elephant,elephant,1,0177_lp_s01_1_elephant_10_n02504458_7634.png
subject-01,1,178,1.16016697883606,bottle,bottle,1,0178_lp_s01_1_bottle_10_n04557648_6373.png
subject-01,1,179,1.4985339641571,bear,dog,40,0179_lp_s01_40_dog_10_n02088364_3791.png
subject-01,1,180,1.06087779998779,bird,bird,3,0180_lp_s01_3_bird_10_n01797886_2711.png
subject-01,1,181,0.848092079162598,airplane,bird,15,0181_lp_s01_15_bird_10_n02002724_383.png
subject-01,1,182,0.594402074813843,clock,clock,1,0182_lp_s01_1_clock_10_n04548280_7951.png
subject-01,1,183,1.23916220664978,bear,elephant,10,0183_lp_s01_10_elephant_10_n02504458_4587.png
subject-01,1,184,0.855123043060303,elephant,elephant,0,0184_lp_s01_0_elephant_10_n02504013_3569.png
subject-01,1,185,0.802014827728271,knife,knife,15,0185_lp_s01_15_knife_10_n03041632_27848.png
subject-01,1,186,0.926459074020386,oven,chair,10,0186_lp_s01_10_chair_10_n04429376_6308.png
subject-01,1,187,0.689257860183716,chair,chair,3,0187_lp_s01_3_chair_10_n04429376_57621.png
subject-01,1,188,1.16558694839478,chair,chair,0,0188_lp_s01_0_chair_10_n04429376_24319.png
subject-01,1,189,0.966570854187012,keyboard,bird,7,0189_lp_s01_7_bird_10_n01829413_3550.png
subject-01,1,190,0.683114051818848,knife,knife,7,0190_lp_s01_7_knife_10_n03041632_46914.png
subject-01,1,191,1.22160887718201,car,oven,40,0191_lp_s01_40_oven_10_n04111531_8181.png
subject-01,1,192,0.744194984436035,truck,truck,1,0192_lp_s01_1_truck_10_n04467665_69447.png
subject-01,1,193,0.998798131942749,airplane,elephant,40,0193_lp_s01_40_elephant_10_n02504013_572.png
subject-01,1,194,0.783199071884155,elephant,elephant,0,0194_lp_s01_0_elephant_10_n02504458_10428.png
subject-01,1,195,1.21581196784973,airplane,airplane,3,0195_lp_s01_3_airplane_10_n02690373_10462.png
subject-01,1,196,1.39231300354004,dog,dog,1,0196_lp_s01_1_dog_10_n02091467_3403.png
subject-01,1,197,0.68481707572937,elephant,elephant,5,0197_lp_s01_5_elephant_10_n02504013_9396.png
subject-01,1,198,1.39373302459717,chair,knife,10,0198_lp_s01_10_knife_10_n03041632_17091.png
subject-01,1,199,0.955927848815918,elephant,elephant,3,0199_lp_s01_3_elephant_10_n02504458_6348.png
subject-01,1,200,1.32432889938354,boat,airplane,15,0200_lp_s01_15_airplane_10_n02690373_5496.png
subject-01,1,201,0.671187877655029,clock,clock,3,0201_lp_s01_3_clock_10_n02708093_6252.png
subject-01,1,202,0.763756036758423,airplane,bird,10,0202_lp_s01_10_bird_10_n02011460_17499.png
subject-01,1,203,1.14809107780457,bear,dog,40,0203_lp_s01_40_dog_10_n02100583_14082.png
subject-01,1,204,1.14816403388977,elephant,elephant,7,0204_lp_s01_7_elephant_10_n02504013_16929.png
subject-01,1,205,1.11640906333923,knife,knife,0,0205_lp_s01_0_knife_10_n03041632_101673.png
subject-01,1,206,1.24126601219177,cat,cat,1,0206_lp_s01_1_cat_10_n02124075_7579.png
subject-01,1,207,1.28786683082581,boat,boat,40,0207_lp_s01_40_boat_10_n03662601_8947.png
subject-01,1,208,1.42635488510132,keyboard,chair,40,0208_lp_s01_40_chair_10_n02791124_1935.png
subject-01,1,209,0.943027019500732,knife,boat,10,0209_lp_s01_10_boat_10_n03662601_12034.png
subject-01,1,210,1.50022196769714,bird,clock,10,0210_lp_s01_10_clock_10_n03196217_454.png
subject-01,1,211,1.12459897994995,keyboard,bottle,15,0211_lp_s01_15_bottle_10_n02823428_6627.png
subject-01,1,212,NaN,na,bear,7,0212_lp_s01_7_bear_10_n02134084_34902.png
subject-01,1,213,0.833501100540161,bear,bicycle,15,0213_lp_s01_15_bicycle_10_n03792782_5629.png
subject-01,1,214,0.955922842025757,knife,oven,1,0214_lp_s01_1_oven_10_n04111531_3072.png
subject-01,1,215,1.17230916023254,airplane,bicycle,10,0215_lp_s01_10_bicycle_10_n02835271_20445.png
subject-01,1,216,1.2184009552002,elephant,oven,5,0216_lp_s01_5_oven_10_n04111531_2930.png
subject-01,1,217,0.743118047714233,boat,airplane,10,0217_lp_s01_10_airplane_10_n02690373_1862.png
subject-01,1,218,0.903559923171997,airplane,airplane,40,0218_lp_s01_40_airplane_10_n02690373_6002.png
subject-01,1,219,1.32793307304382,truck,bird,40,0219_lp_s01_40_bird_10_n02006656_8975.png
subject-01,1,220,1.2128119468689,knife,bottle,7,0220_lp_s01_7_bottle_10_n02823428_2355.png
subject-01,1,221,0.827307939529419,dog,dog,0,0221_lp_s01_0_dog_10_n02101006_17876.png
subject-01,1,222,0.613755941390991,chair,chair,0,0222_lp_s01_0_chair_10_n04099969_8032.png
subject-01,1,223,1.45841407775879,keyboard,clock,5,0223_lp_s01_5_clock_10_n03196217_743.png
subject-01,1,224,0.714601039886475,oven,oven,3,0224_lp_s01_3_oven_10_n04111531_5204.png
subject-01,1,225,0.991148948669434,boat,boat,0,0225_lp_s01_0_boat_10_n03662601_1947.png
subject-01,1,226,0.605597972869873,chair,chair,5,0226_lp_s01_5_chair_10_n03376595_899.png
subject-01,1,227,0.830152988433838,bicycle,bicycle,5,0227_lp_s01_5_bicycle_10_n02835271_10814.png
subject-01,1,228,0.790398836135864,cat,cat,0,0228_lp_s01_0_cat_10_n02123045_4237.png
subject-01,1,229,0.599409103393555,boat,boat,0,0229_lp_s01_0_boat_10_n02951358_29756.png
subject-01,1,230,0.729674100875854,bicycle,bicycle,0,0230_lp_s01_0_bicycle_10_n03792782_3136.png
subject-01,1,231,0.970371961593628,car,oven,40,0231_lp_s01_40_oven_10_n04111531_15947.png
subject-01,1,232,0.900604963302612,dog,dog,7,0232_lp_s01_7_dog_10_n02097047_911.png
subject-01,1,233,1.50004720687866,chair,elephant,0,0233_lp_s01_0_elephant_10_n02504458_6835.png
subject-01,1,234,0.739873170852661,boat,boat,3,0234_lp_s01_3_boat_10_n04273569_1137.png
subject-01,1,235,0.540090084075928,clock,clock,0,0235_lp_s01_0_clock_10_n04548280_9294.png
subject-01,1,236,0.748511075973511,airplane,oven,15,0236_lp_s01_15_oven_10_n04111531_92.png
subject-01,1,237,0.947055101394653,dog,dog,15,0237_lp_s01_15_dog_10_n02107142_46045.png
subject-01,1,238,0.70148491859436,keyboard,keyboard,7,0238_lp_s01_7_keyboard_10_n03085013_18830.png
subject-01,1,239,NaN,na,bear,0,0239_lp_s01_0_bear_10_n02134084_7373.png
subject-01,1,240,0.656699895858765,cat,bicycle,15,0240_lp_s01_15_bicycle_10_n02835271_3535.png
subject-01,1,241,0.818918943405151,chair,bottle,3,0241_lp_s01_3_bottle_10_n02823428_7650.png
subject-01,1,242,1.37929606437683,airplane,airplane,40,0242_lp_s01_40_airplane_10_n02690373_3561.png
subject-01,1,243,1.1260449886322,bottle,knife,10,0243_lp_s01_10_knife_10_n03041632_3079.png
subject-01,1,244,0.650184869766235,airplane,airplane,7,0244_lp_s01_7_airplane_10_n02690373_5628.png
subject-01,1,245,0.765347003936768,clock,clock,3,0245_lp_s01_3_clock_10_n04548280_289.png
subject-01,1,246,0.589160919189453,bird,bird,1,0246_lp_s01_1_bird_10_n01820546_4609.png
subject-01,1,247,0.682141780853271,truck,truck,7,0247_lp_s01_7_truck_10_n03417042_2633.png
subject-01,1,248,0.858418941497803,dog,dog,0,0248_lp_s01_0_dog_10_n02097047_2800.png
subject-01,1,249,0.735101938247681,bear,keyboard,15,0249_lp_s01_15_keyboard_10_n03085013_22496.png
subject-01,1,250,0.735328912734985,bottle,bottle,0,0250_lp_s01_0_bottle_10_n02823428_2510.png
subject-01,1,251,0.652081966400146,keyboard,keyboard,0,0251_lp_s01_0_keyboard_10_n04505470_4044.png
subject-01,1,252,0.582177877426147,clock,clock,1,0252_lp_s01_1_clock_10_n03196217_8282.png
subject-01,1,253,0.690842866897583,bottle,bottle,0,0253_lp_s01_0_bottle_10_n02823428_40.png
subject-01,1,254,0.783361196517944,bear,bear,1,0254_lp_s01_1_bear_10_n02133161_11333.png
subject-01,1,255,0.875977039337158,truck,truck,0,0255_lp_s01_0_truck_10_n03796401_29952.png
subject-01,1,256,0.944504976272583,bottle,bottle,7,0256_lp_s01_7_bottle_10_n03983396_587.png
subject-01,1,257,0.799007892608643,elephant,elephant,1,0257_lp_s01_1_elephant_10_n02504013_1244.png
subject-01,1,258,1.14309406280518,boat,knife,15,0258_lp_s01_15_knife_10_n03041632_45264.png
subject-01,1,259,0.52971887588501,clock,clock,3,0259_lp_s01_3_clock_10_n04548280_5422.png
subject-01,1,260,0.606129884719849,elephant,elephant,5,0260_lp_s01_5_elephant_10_n02504458_3059.png
subject-01,1,261,0.676440000534058,knife,knife,7,0261_lp_s01_7_knife_10_n03041632_49513.png
subject-01,1,262,0.691087007522583,clock,clock,15,0262_lp_s01_15_clock_10_n04548280_22641.png
subject-01,1,263,1.15167903900146,keyboard,oven,3,0263_lp_s01_3_oven_10_n04111531_857.png
subject-01,1,264,0.730043888092041,keyboard,keyboard,5,0264_lp_s01_5_keyboard_10_n04505470_4742.png
subject-01,1,265,0.798712968826294,knife,knife,7,0265_lp_s01_7_knife_10_n03041632_25772.png
subject-01,1,266,0.790888071060181,boat,elephant,10,0266_lp_s01_10_elephant_10_n02504458_3209.png
subject-01,1,267,0.653672933578491,knife,knife,0,0267_lp_s01_0_knife_10_n03041632_32337.png
subject-01,1,268,0.799684047698975,bear,bear,5,0268_lp_s01_5_bear_10_n02133161_5616.png
subject-01,1,269,0.798478126525879,airplane,airplane,5,0269_lp_s01_5_airplane_10_n02690373_6992.png
subject-01,1,270,0.845065116882324,knife,knife,5,0270_lp_s01_5_knife_10_n03041632_12748.png
subject-01,1,271,0.675414800643921,dog,dog,0,0271_lp_s01_0_dog_10_n02100735_3595.png
subject-01,1,272,1.15217900276184,bear,bear,40,0272_lp_s01_40_bear_10_n02133161_2670.png
subject-01,1,273,1.0142822265625,oven,keyboard,15,0273_lp_s01_15_keyboard_10_n03085013_21397.png
subject-01,1,274,0.81468391418457,bird,bird,15,0274_lp_s01_15_bird_10_n01797886_904.png
subject-01,1,275,1.24517583847046,bottle,bicycle,10,0275_lp_s01_10_bicycle_10_n02835271_19565.png
subject-01,1,276,0.699667930603027,oven,oven,3,0276_lp_s01_3_oven_10_n04111531_8009.png
subject-01,1,277,0.945942163467407,boat,bear,10,0277_lp_s01_10_bear_10_n02134418_745.png
subject-01,1,278,0.877009868621826,airplane,dog,7,0278_lp_s01_7_dog_10_n02099849_3128.png
subject-01,1,279,0.660455226898193,car,truck,10,0279_lp_s01_10_truck_10_n03796401_28465.png
subject-01,1,280,0.70450496673584,cat,cat,0,0280_lp_s01_0_cat_10_n02123045_7482.png
subject-01,1,281,0.575086832046509,airplane,airplane,3,0281_lp_s01_3_airplane_10_n02690373_20074.png
subject-01,1,282,0.72763204574585,boat,oven,15,0282_lp_s01_15_oven_10_n04111531_5519.png
subject-01,1,283,0.806026935577393,airplane,boat,40,0283_lp_s01_40_boat_10_n04612504_7446.png
subject-01,1,284,0.674887895584106,airplane,airplane,0,0284_lp_s01_0_airplane_10_n02690373_3212.png
subject-01,1,285,0.896971940994263,boat,boat,0,0285_lp_s01_0_boat_10_n03344393_3452.png
subject-01,1,286,0.596989870071411,boat,boat,5,0286_lp_s01_5_boat_10_n04273569_22332.png
subject-01,1,287,0.735836029052734,knife,knife,1,0287_lp_s01_1_knife_10_n03041632_3101.png
subject-01,1,288,0.988088130950928,car,truck,7,0288_lp_s01_7_truck_10_n03796401_8212.png
subject-01,1,289,0.766649961471558,chair,chair,5,0289_lp_s01_5_chair_10_n03376595_11280.png
subject-01,1,290,0.789070844650269,elephant,elephant,3,0290_lp_s01_3_elephant_10_n02504458_2994.png
subject-01,1,291,1.50019001960754,boat,bicycle,10,0291_lp_s01_10_bicycle_10_n03792782_22620.png
subject-01,1,292,0.803791999816895,oven,oven,15,0292_lp_s01_15_oven_10_n04111531_5168.png
subject-01,1,293,0.582493782043457,truck,truck,3,0293_lp_s01_3_truck_10_n03796401_599.png
subject-01,1,294,1.15913200378418,knife,knife,7,0294_lp_s01_7_knife_10_n03041632_50423.png
subject-01,1,295,1.31932592391968,bicycle,truck,40,0295_lp_s01_40_truck_10_n03417042_21758.png
subject-01,1,296,0.789902925491333,keyboard,keyboard,7,0296_lp_s01_7_keyboard_10_n04505470_5150.png
subject-01,1,297,0.690325975418091,clock,clock,10,0297_lp_s01_10_clock_10_n03196217_2695.png
subject-01,1,298,0.774919033050537,cat,cat,5,0298_lp_s01_5_cat_10_n02123394_1627.png
subject-01,1,299,0.921792984008789,dog,bear,10,0299_lp_s01_10_bear_10_n02134418_1311.png
subject-01,1,300,0.719413042068481,car,car,0,0300_lp_s01_0_car_10_n04285008_11931.png
subject-01,1,301,0.806082963943481,car,car,1,0301_lp_s01_1_car_10_n04285008_9411.png
subject-01,1,302,1.50036382675171,boat,truck,40,0302_lp_s01_40_truck_10_n03417042_17616.png
subject-01,1,303,0.621028900146484,knife,knife,15,0303_lp_s01_15_knife_10_n03041632_1964.png
subject-01,1,304,0.621885061264038,boat,boat,7,0304_lp_s01_7_boat_10_n02951358_34783.png
subject-01,1,305,0.68190598487854,boat,boat,10,0305_lp_s01_10_boat_10_n03344393_4482.png
subject-01,1,306,0.836870908737183,bear,bear,10,0306_lp_s01_10_bear_10_n02134418_3793.png
subject-01,1,307,0.950921058654785,bicycle,bicycle,5,0307_lp_s01_5_bicycle_10_n02835271_13439.png
subject-01,1,308,1.14336800575256,bicycle,bird,15,0308_lp_s01_15_bird_10_n02056570_9572.png
subject-01,1,309,0.584044933319092,clock,clock,0,0309_lp_s01_0_clock_10_n04548280_4391.png
subject-01,1,310,1.12061905860901,knife,knife,5,0310_lp_s01_5_knife_10_n03041632_29285.png
subject-01,1,311,0.583107948303223,boat,car,15,0311_lp_s01_15_car_10_n02814533_9785.png
subject-01,1,312,1.04520297050476,bicycle,bicycle,3,0312_lp_s01_3_bicycle_10_n02835271_22355.png
subject-01,1,313,0.56812596321106,boat,boat,15,0313_lp_s01_15_boat_10_n04273569_103.png
subject-01,1,314,0.592581987380981,boat,boat,0,0314_lp_s01_0_boat_10_n02951358_512.png
subject-01,1,315,1.1227970123291,car,truck,1,0315_lp_s01_1_truck_10_n03417042_5371.png
subject-01,1,316,1.05285000801086,airplane,knife,40,0316_lp_s01_40_knife_10_n03041632_24950.png
subject-01,1,317,0.630169868469238,bicycle,bicycle,1,0317_lp_s01_1_bicycle_10_n03792782_104.png
subject-01,1,318,0.515864849090576,clock,clock,0,0318_lp_s01_0_clock_10_n03196217_484.png
subject-01,1,319,0.992611885070801,boat,dog,0,0319_lp_s01_0_dog_10_n02088094_3274.png
subject-01,1,320,1.06121301651001,elephant,elephant,0,0320_lp_s01_0_elephant_10_n02504013_1187.png
subject-01,1,321,0.693820953369141,boat,oven,40,0321_lp_s01_40_oven_10_n04111531_4795.png
subject-01,1,322,0.732562065124512,elephant,elephant,3,0322_lp_s01_3_elephant_10_n02504013_10330.png
subject-01,1,323,0.871110916137695,car,car,7,0323_lp_s01_7_car_10_n02814533_6593.png
subject-01,1,324,0.709909915924072,keyboard,keyboard,3,0324_lp_s01_3_keyboard_10_n04505470_3947.png
subject-01,1,325,0.755726099014282,car,car,15,0325_lp_s01_15_car_10_n02814533_36206.png
subject-01,1,326,0.886506080627441,airplane,chair,40,0326_lp_s01_40_chair_10_n04099969_20107.png
subject-01,1,327,0.816563844680786,truck,truck,1,0327_lp_s01_1_truck_10_n03417042_18554.png
subject-01,1,328,0.711765050888062,bicycle,bicycle,10,0328_lp_s01_10_bicycle_10_n03792782_42795.png
subject-01,1,329,1.00990009307861,keyboard,bottle,10,0329_lp_s01_10_bottle_10_n03937543_9524.png
subject-01,1,330,0.610527992248535,bicycle,bicycle,0,0330_lp_s01_0_bicycle_10_n02835271_12674.png
subject-01,1,331,0.994717121124268,bicycle,cat,5,0331_lp_s01_5_cat_10_n02124075_13187.png
subject-01,1,332,0.619160890579224,keyboard,keyboard,3,0332_lp_s01_3_keyboard_10_n03085013_21030.png
subject-01,1,333,0.696014881134033,oven,oven,1,0333_lp_s01_1_oven_10_n04111531_10313.png
subject-01,1,334,0.880241870880127,bottle,bottle,3,0334_lp_s01_3_bottle_10_n04591713_3683.png
subject-01,1,335,0.935207843780518,boat,boat,5,0335_lp_s01_5_boat_10_n04612504_15944.png
subject-01,1,336,0.581689119338989,airplane,airplane,1,0336_lp_s01_1_airplane_10_n02690373_5773.png
subject-01,1,337,0.728502035140991,airplane,airplane,0,0337_lp_s01_0_airplane_10_n02690373_1310.png
subject-01,1,338,1.12080788612366,clock,clock,5,0338_lp_s01_5_clock_10_n04548280_4557.png
subject-01,1,339,1.48955607414246,bird,car,40,0339_lp_s01_40_car_10_n03100240_13842.png
subject-01,1,340,0.966088056564331,dog,elephant,10,0340_lp_s01_10_elephant_10_n02504013_3425.png
subject-01,1,341,0.536993980407715,boat,boat,5,0341_lp_s01_5_boat_10_n04273569_22274.png
subject-01,1,342,0.70727014541626,truck,truck,3,0342_lp_s01_3_truck_10_n04467665_19645.png
subject-01,1,343,0.753583908081055,knife,knife,0,0343_lp_s01_0_knife_10_n03041632_32048.png
subject-01,1,344,0.843988180160522,airplane,truck,5,0344_lp_s01_5_truck_10_n04467665_69582.png
subject-01,1,345,0.806834936141968,bicycle,dog,10,0345_lp_s01_10_dog_10_n02088364_2119.png
subject-01,1,346,0.631560087203979,boat,oven,40,0346_lp_s01_40_oven_10_n04111531_17781.png
subject-01,1,347,0.662191867828369,airplane,cat,10,0347_lp_s01_10_cat_10_n02123597_3828.png
subject-01,1,348,0.730463027954102,elephant,elephant,3,0348_lp_s01_3_elephant_10_n02504013_1777.png
subject-01,1,349,0.901732921600342,cat,cat,0,0349_lp_s01_0_cat_10_n02123597_2370.png
subject-01,1,350,0.924029111862183,boat,bear,3,0350_lp_s01_3_bear_10_n02134084_20142.png
subject-01,1,351,0.716649055480957,elephant,elephant,5,0351_lp_s01_5_elephant_10_n02504013_4424.png
subject-01,1,352,0.740983009338379,airplane,knife,10,0352_lp_s01_10_knife_10_n03041632_11969.png
subject-01,1,353,0.638813018798828,clock,clock,5,0353_lp_s01_5_clock_10_n02708093_2307.png
subject-01,1,354,1.34731006622314,bicycle,elephant,40,0354_lp_s01_40_elephant_10_n02504458_5875.png
subject-01,1,355,0.994459867477417,dog,bear,5,0355_lp_s01_5_bear_10_n02133161_1490.png
subject-01,1,356,0.646372079849243,boat,elephant,10,0356_lp_s01_10_elephant_10_n02504458_6107.png
subject-01,1,357,1.26321816444397,oven,keyboard,40,0357_lp_s01_40_keyboard_10_n03085013_19547.png
subject-01,1,358,1.50035095214844,cat,bird,7,0358_lp_s01_7_bird_10_n01622779_1370.png
subject-01,1,359,NaN,na,bicycle,15,0359_lp_s01_15_bicycle_10_n03792782_18294.png
subject-01,1,360,0.838680982589722,bird,elephant,40,0360_lp_s01_40_elephant_10_n02504013_19419.png
subject-01,1,361,0.679326057434082,elephant,elephant,0,0361_lp_s01_0_elephant_10_n02504013_10990.png
subject-01,1,362,0.615350961685181,bicycle,bicycle,1,0362_lp_s01_1_bicycle_10_n03792782_51466.png
subject-01,1,363,0.60851001739502,bottle,bottle,0,0363_lp_s01_0_bottle_10_n02823428_2422.png
subject-01,1,364,0.854671955108643,bird,bird,10,0364_lp_s01_10_bird_10_n01532829_14545.png
subject-01,1,365,0.776834964752197,truck,truck,5,0365_lp_s01_5_truck_10_n04467665_34253.png
subject-01,1,366,0.831444025039673,boat,keyboard,10,0366_lp_s01_10_keyboard_10_n04505470_4587.png
subject-01,1,367,0.694036960601807,airplane,bicycle,40,0367_lp_s01_40_bicycle_10_n02835271_9690.png
subject-01,1,368,0.962866067886353,oven,bottle,3,0368_lp_s01_3_bottle_10_n03937543_11101.png
subject-01,1,369,0.892786979675293,chair,truck,10,0369_lp_s01_10_truck_10_n03417042_1437.png
subject-01,1,370,0.655037879943848,cat,cat,1,0370_lp_s01_1_cat_10_n02125311_3174.png
subject-01,1,371,0.97726583480835,bird,dog,10,0371_lp_s01_10_dog_10_n02102040_6068.png
subject-01,1,372,0.832047939300537,bird,bird,5,0372_lp_s01_5_bird_10_n02011460_19314.png
subject-01,1,373,0.608978986740112,car,car,5,0373_lp_s01_5_car_10_n04285008_434.png
subject-01,1,374,0.77105188369751,boat,bear,5,0374_lp_s01_5_bear_10_n02132136_24311.png
subject-01,1,375,0.917909860610962,truck,truck,5,0375_lp_s01_5_truck_10_n04467665_44714.png
subject-01,1,376,0.840040922164917,keyboard,knife,7,0376_lp_s01_7_knife_10_n03041632_992.png
subject-01,1,377,0.71706485748291,elephant,elephant,0,0377_lp_s01_0_elephant_10_n02504458_7506.png
subject-01,1,378,0.903005123138428,elephant,bicycle,40,0378_lp_s01_40_bicycle_10_n03792782_3410.png
subject-01,1,379,0.601875066757202,bottle,bottle,1,0379_lp_s01_1_bottle_10_n04591713_360.png
subject-01,1,380,1.04017186164856,bear,bird,3,0380_lp_s01_3_bird_10_n01616318_6874.png
subject-01,1,381,0.648709774017334,airplane,airplane,0,0381_lp_s01_0_airplane_10_n02690373_1051.png
subject-01,1,382,0.541370153427124,oven,oven,5,0382_lp_s01_5_oven_10_n04111531_20953.png
subject-01,1,383,0.75783109664917,boat,boat,10,0383_lp_s01_10_boat_10_n04273569_19699.png
subject-01,1,384,0.642110109329224,car,car,5,0384_lp_s01_5_car_10_n03100240_7385.png
subject-01,1,385,0.857275009155273,boat,boat,10,0385_lp_s01_10_boat_10_n03344393_5343.png
subject-01,1,386,0.803112983703613,truck,truck,0,0386_lp_s01_0_truck_10_n04467665_17101.png
subject-01,1,387,0.81958794593811,boat,airplane,10,0387_lp_s01_10_airplane_10_n02690373_8543.png
subject-01,1,388,0.52820897102356,boat,boat,5,0388_lp_s01_5_boat_10_n03344393_5916.png
subject-01,1,389,0.650845050811768,knife,knife,1,0389_lp_s01_1_knife_10_n03041632_40887.png
subject-01,1,390,0.719018936157227,bottle,bottle,0,0390_lp_s01_0_bottle_10_n02823428_14536.png
subject-01,1,391,1.21138596534729,clock,knife,40,0391_lp_s01_40_knife_10_n03041632_31932.png
subject-01,1,392,0.920221090316772,elephant,elephant,7,0392_lp_s01_7_elephant_10_n02504013_7774.png
subject-01,1,393,0.658803939819336,boat,boat,3,0393_lp_s01_3_boat_10_n03662601_1427.png
subject-01,1,394,1.00301504135132,bottle,bottle,5,0394_lp_s01_5_bottle_10_n02823428_5451.png
subject-01,1,395,1.01174306869507,airplane,bird,15,0395_lp_s01_15_bird_10_n01530575_10601.png
subject-01,1,396,0.950090885162354,airplane,bicycle,15,0396_lp_s01_15_bicycle_10_n02835271_317.png
subject-01,1,397,1.12664890289307,bird,clock,40,0397_lp_s01_40_clock_10_n03196217_634.png
subject-01,1,398,0.689054012298584,cat,clock,15,0398_lp_s01_15_clock_10_n03196217_82.png
subject-01,1,399,0.643687009811401,bottle,bottle,3,0399_lp_s01_3_bottle_10_n04591713_5364.png
subject-01,1,400,0.896318912506104,dog,dog,3,0400_lp_s01_3_dog_10_n02104365_3580.png
subject-01,1,401,0.542906045913696,airplane,airplane,10,0401_lp_s01_10_airplane_10_n02690373_18468.png
subject-01,1,402,0.926858186721802,car,car,3,0402_lp_s01_3_car_10_n02814533_36174.png
subject-01,1,403,0.857892990112305,truck,truck,3,0403_lp_s01_3_truck_10_n03417042_5508.png
subject-01,1,404,1.1341769695282,boat,keyboard,40,0404_lp_s01_40_keyboard_10_n03085013_23793.png
subject-01,1,405,0.680518865585327,elephant,elephant,3,0405_lp_s01_3_elephant_10_n02504013_1813.png
subject-01,1,406,0.756678819656372,bottle,bottle,1,0406_lp_s01_1_bottle_10_n04591713_4764.png
subject-01,1,407,1.36533308029175,chair,bird,7,0407_lp_s01_7_bird_10_n02018795_500.png
subject-01,1,408,0.579723834991455,bicycle,bicycle,1,0408_lp_s01_1_bicycle_10_n02835271_14235.png
subject-01,1,409,0.942198038101196,airplane,car,15,0409_lp_s01_15_car_10_n04285008_2781.png
subject-01,1,410,1.20299196243286,cat,airplane,15,0410_lp_s01_15_airplane_10_n02690373_17262.png
subject-01,1,411,1.27156186103821,elephant,bear,40,0411_lp_s01_40_bear_10_n02133161_444.png
subject-01,1,412,0.996453046798706,chair,clock,1,0412_lp_s01_1_clock_10_n04548280_2809.png
subject-01,1,413,0.84306812286377,oven,oven,1,0413_lp_s01_1_oven_10_n04111531_9289.png
subject-01,1,414,1.44966602325439,knife,oven,7,0414_lp_s01_7_oven_10_n04111531_21068.png
subject-01,1,415,0.844230890274048,dog,dog,1,0415_lp_s01_1_dog_10_n02102480_7293.png
subject-01,1,416,0.934396028518677,chair,chair,0,0416_lp_s01_0_chair_10_n04099969_16161.png
subject-01,1,417,0.902664184570312,bear,boat,15,0417_lp_s01_15_boat_10_n02951358_13352.png
subject-01,1,418,1.1409478187561,clock,cat,7,0418_lp_s01_7_cat_10_n02123159_6954.png
subject-01,1,419,0.803765058517456,elephant,elephant,1,0419_lp_s01_1_elephant_10_n02504458_900.png
subject-01,1,420,1.05054807662964,boat,truck,15,0420_lp_s01_15_truck_10_n03796401_10519.png
subject-01,1,421,0.980924844741821,airplane,bicycle,15,0421_lp_s01_15_bicycle_10_n02835271_21707.png
subject-01,1,422,0.833170890808105,bear,bear,3,0422_lp_s01_3_bear_10_n02134084_4818.png
subject-01,1,423,1.11755514144897,car,bottle,10,0423_lp_s01_10_bottle_10_n04557648_7601.png
subject-01,1,424,1.19623398780823,knife,knife,10,0424_lp_s01_10_knife_10_n03041632_29920.png
subject-01,1,425,0.697098016738892,bicycle,bicycle,3,0425_lp_s01_3_bicycle_10_n03792782_12421.png
subject-01,1,426,0.887612104415894,clock,chair,15,0426_lp_s01_15_chair_10_n02791124_634.png
subject-01,1,427,0.487748861312866,clock,clock,1,0427_lp_s01_1_clock_10_n04548280_5320.png
subject-01,1,428,0.750092029571533,car,cat,15,0428_lp_s01_15_cat_10_n02123159_6281.png
subject-01,1,429,0.610883951187134,cat,bear,7,0429_lp_s01_7_bear_10_n02134418_258.png
subject-01,1,430,0.803318977355957,truck,cat,40,0430_lp_s01_40_cat_10_n02123159_3724.png
subject-01,1,431,NaN,na,clock,10,0431_lp_s01_10_clock_10_n03196217_8526.png
subject-01,1,432,0.596051931381226,keyboard,keyboard,3,0432_lp_s01_3_keyboard_10_n04505470_5091.png
subject-01,1,433,0.686824083328247,keyboard,keyboard,3,0433_lp_s01_3_keyboard_10_n04505470_4621.png
subject-01,1,434,0.671427011489868,keyboard,keyboard,3,0434_lp_s01_3_keyboard_10_n03085013_20515.png
subject-01,1,435,1.3256049156189,clock,truck,15,0435_lp_s01_15_truck_10_n04467665_68463.png
subject-01,1,436,0.918847799301147,cat,bottle,15,0436_lp_s01_15_bottle_10_n04557648_12559.png
subject-01,1,437,0.971163034439087,truck,car,7,0437_lp_s01_7_car_10_n03100240_1406.png
subject-01,1,438,0.657922983169556,car,car,3,0438_lp_s01_3_car_10_n03100240_16466.png
subject-01,1,439,0.788002014160156,keyboard,keyboard,1,0439_lp_s01_1_keyboard_10_n04505470_5112.png
subject-01,1,440,NaN,na,cat,40,0440_lp_s01_40_cat_10_n02123045_2029.png
subject-01,1,441,0.754812955856323,oven,oven,3,0441_lp_s01_3_oven_10_n04111531_12725.png
subject-01,1,442,0.695402860641479,oven,oven,0,0442_lp_s01_0_oven_10_n04111531_2189.png
subject-01,1,443,0.91812801361084,car,truck,7,0443_lp_s01_7_truck_10_n04467665_9521.png
subject-01,1,444,0.770504951477051,keyboard,clock,5,0444_lp_s01_5_clock_10_n04548280_1097.png
subject-01,1,445,0.770851135253906,bicycle,bicycle,7,0445_lp_s01_7_bicycle_10_n03792782_30229.png
subject-01,1,446,1.14783120155334,truck,truck,0,0446_lp_s01_0_truck_10_n04467665_71305.png
subject-01,1,447,0.878329038619995,airplane,airplane,10,0447_lp_s01_10_airplane_10_n02690373_2580.png
subject-01,1,448,0.665498971939087,bird,bird,0,0448_lp_s01_0_bird_10_n01833805_5839.png
subject-01,1,449,0.649926900863647,car,car,7,0449_lp_s01_7_car_10_n04285008_1674.png
subject-01,1,450,0.710134029388428,boat,keyboard,10,0450_lp_s01_10_keyboard_10_n03085013_4374.png
subject-01,1,451,NaN,na,bicycle,5,0451_lp_s01_5_bicycle_10_n03792782_15.png
subject-01,1,452,0.832849979400635,bird,elephant,10,0452_lp_s01_10_elephant_10_n02504013_7923.png
subject-01,1,453,0.755874872207642,truck,truck,0,0453_lp_s01_0_truck_10_n03417042_4557.png
subject-01,1,454,0.726059198379517,clock,clock,10,0454_lp_s01_10_clock_10_n02708093_6572.png
subject-01,1,455,0.678758859634399,car,car,3,0455_lp_s01_3_car_10_n02814533_44079.png
subject-01,1,456,0.603437900543213,truck,truck,0,0456_lp_s01_0_truck_10_n03417042_22918.png
subject-01,1,457,0.73940896987915,keyboard,keyboard,7,0457_lp_s01_7_keyboard_10_n03085013_21534.png
subject-01,1,458,0.709851026535034,cat,car,15,0458_lp_s01_15_car_10_n03100240_5383.png
subject-01,1,459,0.594346046447754,bear,bear,3,0459_lp_s01_3_bear_10_n02133161_1480.png
subject-01,1,460,0.562838077545166,keyboard,oven,7,0460_lp_s01_7_oven_10_n04111531_5218.png
subject-01,1,461,1.16338801383972,bear,elephant,5,0461_lp_s01_5_elephant_10_n02504013_1088.png
subject-01,1,462,0.709566116333008,keyboard,chair,10,0462_lp_s01_10_chair_10_n02791124_6281.png
subject-01,1,463,0.608416795730591,cat,cat,1,0463_lp_s01_1_cat_10_n02124075_8884.png
subject-01,1,464,1.29645013809204,bear,bear,1,0464_lp_s01_1_bear_10_n02132136_22604.png
subject-01,1,465,0.740122079849243,bicycle,bicycle,1,0465_lp_s01_1_bicycle_10_n02835271_20920.png
subject-01,1,466,0.802833080291748,elephant,elephant,7,0466_lp_s01_7_elephant_10_n02504013_7674.png
subject-01,1,467,0.9947509765625,clock,cat,40,0467_lp_s01_40_cat_10_n02123597_6542.png
subject-01,1,468,0.925840854644775,airplane,boat,7,0468_lp_s01_7_boat_10_n03344393_4234.png
subject-01,1,469,1.09411191940308,airplane,bird,7,0469_lp_s01_7_bird_10_n02018207_1606.png
subject-01,1,470,0.909028053283691,bird,cat,15,0470_lp_s01_15_cat_10_n02123394_5909.png
subject-01,1,471,0.847067832946777,dog,dog,7,0471_lp_s01_7_dog_10_n02110806_23139.png
subject-01,1,472,0.847397089004517,cat,bear,15,0472_lp_s01_15_bear_10_n02134084_4923.png
subject-01,1,473,0.662369012832642,boat,boat,1,0473_lp_s01_1_boat_10_n04273569_1201.png
subject-01,1,474,0.762781143188477,car,oven,40,0474_lp_s01_40_oven_10_n04111531_13625.png
subject-01,1,475,0.777018070220947,dog,dog,1,0475_lp_s01_1_dog_10_n02111500_2905.png
subject-01,1,476,0.655990839004517,airplane,airplane,1,0476_lp_s01_1_airplane_10_n02690373_7944.png
subject-01,1,477,1.17808508872986,boat,boat,1,0477_lp_s01_1_boat_10_n03344393_4616.png
subject-01,1,478,1.27689909934998,car,chair,10,0478_lp_s01_10_chair_10_n04099969_3623.png
subject-01,1,479,1.48528814315796,bicycle,bottle,15,0479_lp_s01_15_bottle_10_n03937543_5678.png
subject-01,1,480,1.0698709487915,truck,knife,15,0480_lp_s01_15_knife_10_n03041632_52848.png
subject-01,1,481,0.839901924133301,dog,cat,10,0481_lp_s01_10_cat_10_n02123597_19450.png
subject-01,1,482,1.04046297073364,knife,knife,3,0482_lp_s01_3_knife_10_n03041632_13108.png
subject-01,1,483,0.848994970321655,car,bear,40,0483_lp_s01_40_bear_10_n02132136_5815.png
subject-01,1,484,0.979375123977661,truck,truck,7,0484_lp_s01_7_truck_10_n03796401_7527.png
subject-01,1,485,0.858678817749023,car,clock,15,0485_lp_s01_15_clock_10_n04548280_8892.png
subject-01,1,486,0.713164091110229,car,car,5,0486_lp_s01_5_car_10_n03100240_2075.png
subject-01,1,487,0.697906970977783,chair,chair,3,0487_lp_s01_3_chair_10_n04099969_5584.png
subject-01,1,488,0.758232116699219,keyboard,bear,40,0488_lp_s01_40_bear_10_n02132136_14346.png
subject-01,1,489,0.520905017852783,airplane,airplane,0,0489_lp_s01_0_airplane_10_n02690373_10114.png
subject-01,1,490,0.97337818145752,chair,bottle,5,0490_lp_s01_5_bottle_10_n04560804_12411.png
subject-01,1,491,0.676137924194336,boat,bear,5,0491_lp_s01_5_bear_10_n02134084_13175.png
subject-01,1,492,0.820698022842407,bear,bear,15,0492_lp_s01_15_bear_10_n02134084_19849.png
subject-01,1,493,0.875353097915649,oven,keyboard,3,0493_lp_s01_3_keyboard_10_n03085013_8136.png
subject-01,1,494,0.859986066818237,knife,knife,3,0494_lp_s01_3_knife_10_n03041632_9256.png
subject-01,1,495,1.22232103347778,bear,bicycle,5,0495_lp_s01_5_bicycle_10_n03792782_22760.png
subject-01,1,496,1.09091806411743,boat,car,15,0496_lp_s01_15_car_10_n03100240_2996.png
subject-01,1,497,0.769286155700684,keyboard,keyboard,5,0497_lp_s01_5_keyboard_10_n04505470_4878.png
subject-01,1,498,0.599754810333252,airplane,airplane,1,0498_lp_s01_1_airplane_10_n02690373_349.png
subject-01,1,499,1.05159902572632,cat,boat,3,0499_lp_s01_3_boat_10_n02951358_406.png
subject-01,1,500,0.944058895111084,bear,bottle,15,0500_lp_s01_15_bottle_10_n04557648_634.png
subject-01,1,501,1.42252206802368,oven,boat,7,0501_lp_s01_7_boat_10_n02951358_4551.png
subject-01,1,502,0.844990015029907,dog,dog,1,0502_lp_s01_1_dog_10_n02113624_8023.png
subject-01,1,503,0.653292179107666,airplane,airplane,3,0503_lp_s01_3_airplane_10_n02690373_5056.png
subject-01,1,504,0.545811176300049,boat,elephant,1,0504_lp_s01_1_elephant_10_n02504458_5671.png
subject-01,1,505,0.590508937835693,cat,cat,10,0505_lp_s01_10_cat_10_n02123045_1754.png
subject-01,1,506,0.515066862106323,cat,cat,0,0506_lp_s01_0_cat_10_n02123597_680.png
subject-01,1,507,0.477506875991821,clock,clock,7,0507_lp_s01_7_clock_10_n03196217_4309.png
subject-01,1,508,0.591530084609985,boat,oven,5,0508_lp_s01_5_oven_10_n04111531_12942.png
subject-01,1,509,0.668317079544067,bird,bird,1,0509_lp_s01_1_bird_10_n01530575_10332.png
subject-01,1,510,0.744519948959351,bird,dog,10,0510_lp_s01_10_dog_10_n02112018_11708.png
subject-01,1,511,0.737124919891357,knife,knife,1,0511_lp_s01_1_knife_10_n03041632_24798.png
subject-01,1,512,0.845211982727051,keyboard,oven,10,0512_lp_s01_10_oven_10_n04111531_538.png
subject-01,1,513,0.614568948745728,bicycle,bicycle,0,0513_lp_s01_0_bicycle_10_n03792782_13281.png
subject-01,1,514,0.944560050964355,bicycle,elephant,7,0514_lp_s01_7_elephant_10_n02504458_1336.png
subject-01,1,515,0.891207933425903,cat,chair,40,0515_lp_s01_40_chair_10_n02791124_2972.png
subject-01,1,516,0.745481967926025,oven,bird,15,0516_lp_s01_15_bird_10_n01582220_17430.png
subject-01,1,517,0.853946924209595,oven,oven,5,0517_lp_s01_5_oven_10_n04111531_4155.png
subject-01,1,518,0.546356201171875,bicycle,bicycle,1,0518_lp_s01_1_bicycle_10_n02835271_19019.png
subject-01,1,519,0.677138090133667,car,car,1,0519_lp_s01_1_car_10_n03100240_595.png
subject-01,1,520,0.783609867095947,elephant,elephant,1,0520_lp_s01_1_elephant_10_n02504458_3985.png
subject-01,1,521,0.722315073013306,elephant,elephant,10,0521_lp_s01_10_elephant_10_n02504458_5197.png
subject-01,1,522,1.0465669631958,bear,truck,15,0522_lp_s01_15_truck_10_n03417042_10229.png
subject-01,1,523,0.723274946212769,clock,clock,15,0523_lp_s01_15_clock_10_n04548280_254.png
subject-01,1,524,0.739252090454102,car,knife,40,0524_lp_s01_40_knife_10_n03041632_28658.png
subject-01,1,525,0.64020299911499,airplane,chair,40,0525_lp_s01_40_chair_10_n04099969_20684.png
subject-01,1,526,0.678521156311035,bottle,bottle,1,0526_lp_s01_1_bottle_10_n03937543_4723.png
subject-01,1,527,0.685352087020874,bottle,bottle,0,0527_lp_s01_0_bottle_10_n04591713_6235.png
subject-01,1,528,0.855442047119141,bear,dog,7,0528_lp_s01_7_dog_10_n02092339_2636.png
subject-01,1,529,0.564385175704956,cat,cat,7,0529_lp_s01_7_cat_10_n02125311_53412.png
subject-01,1,530,0.594507217407227,keyboard,car,40,0530_lp_s01_40_car_10_n02814533_7984.png
subject-01,1,531,0.709060907363892,cat,cat,3,0531_lp_s01_3_cat_10_n02125311_6283.png
subject-01,1,532,0.870903015136719,bear,bicycle,10,0532_lp_s01_10_bicycle_10_n02835271_8597.png
subject-01,1,533,0.769636154174805,knife,oven,1,0533_lp_s01_1_oven_10_n04111531_9427.png
subject-01,1,534,0.686243772506714,elephant,elephant,5,0534_lp_s01_5_elephant_10_n02504013_2974.png
subject-01,1,535,1.02475595474243,bear,bear,7,0535_lp_s01_7_bear_10_n02134418_826.png
subject-01,1,536,0.609023094177246,knife,knife,0,0536_lp_s01_0_knife_10_n03041632_42156.png
subject-01,1,537,0.625637054443359,bear,bear,1,0537_lp_s01_1_bear_10_n02133161_1356.png
subject-01,1,538,0.977972984313965,cat,elephant,15,0538_lp_s01_15_elephant_10_n02504458_7477.png
subject-01,1,539,0.878766059875488,clock,bottle,5,0539_lp_s01_5_bottle_10_n04557648_9493.png
subject-01,1,540,0.946835994720459,car,car,3,0540_lp_s01_3_car_10_n03100240_13707.png
subject-01,1,541,0.625753879547119,oven,airplane,40,0541_lp_s01_40_airplane_10_n02690373_1279.png
subject-01,1,542,0.733948945999146,bottle,oven,5,0542_lp_s01_5_oven_10_n04111531_15682.png
subject-01,1,543,0.810786008834839,bear,dog,15,0543_lp_s01_15_dog_10_n02090721_583.png
subject-01,1,544,0.724847078323364,airplane,clock,40,0544_lp_s01_40_clock_10_n03196217_3903.png
subject-01,1,545,0.703780174255371,keyboard,truck,40,0545_lp_s01_40_truck_10_n04467665_62626.png
subject-01,1,546,0.764073848724365,bottle,knife,5,0546_lp_s01_5_knife_10_n03041632_1661.png
subject-01,1,547,0.748353958129883,truck,truck,3,0547_lp_s01_3_truck_10_n03417042_6272.png
subject-01,1,548,0.740940093994141,car,car,1,0548_lp_s01_1_car_10_n02814533_42547.png
subject-01,1,549,1.07160806655884,keyboard,keyboard,7,0549_lp_s01_7_keyboard_10_n03085013_22942.png
subject-01,1,550,0.86559796333313,airplane,bird,7,0550_lp_s01_7_bird_10_n02018795_5770.png
subject-01,1,551,0.50441312789917,clock,clock,3,0551_lp_s01_3_clock_10_n02708093_1747.png
subject-01,1,552,0.702826976776123,chair,chair,0,0552_lp_s01_0_chair_10_n04429376_7888.png
subject-01,1,553,0.611171007156372,airplane,airplane,1,0553_lp_s01_1_airplane_10_n02690373_5010.png
subject-01,1,554,0.649433135986328,airplane,airplane,0,0554_lp_s01_0_airplane_10_n02690373_1386.png
subject-01,1,555,0.612187147140503,bear,dog,5,0555_lp_s01_5_dog_10_n02102040_1660.png
subject-01,1,556,0.720568895339966,cat,bear,10,0556_lp_s01_10_bear_10_n02133161_9863.png
subject-01,1,557,0.60485315322876,airplane,boat,10,0557_lp_s01_10_boat_10_n04273569_10716.png
subject-01,1,558,0.727611064910889,bottle,truck,1,0558_lp_s01_1_truck_10_n03796401_2866.png
subject-01,1,559,0.474045991897583,clock,clock,0,0559_lp_s01_0_clock_10_n03196217_6160.png
subject-01,1,560,0.620697021484375,keyboard,keyboard,0,0560_lp_s01_0_keyboard_10_n03085013_14237.png
subject-01,1,561,0.590826034545898,clock,clock,10,0561_lp_s01_10_clock_10_n02708093_6730.png
subject-01,1,562,0.897532224655151,airplane,boat,7,0562_lp_s01_7_boat_10_n03344393_3921.png
subject-01,1,563,0.705846071243286,bottle,bottle,5,0563_lp_s01_5_bottle_10_n04591713_3495.png
subject-01,1,564,0.72867488861084,airplane,car,7,0564_lp_s01_7_car_10_n04285008_8666.png
subject-01,1,565,0.890707969665527,bear,bird,5,0565_lp_s01_5_bird_10_n02025239_7919.png
subject-01,1,566,0.775741100311279,truck,truck,5,0566_lp_s01_5_truck_10_n03417042_4665.png
subject-01,1,567,0.914154052734375,elephant,bottle,7,0567_lp_s01_7_bottle_10_n04591713_6923.png
subject-01,1,568,0.744652986526489,car,boat,40,0568_lp_s01_40_boat_10_n02951358_16196.png
subject-01,1,569,0.675044059753418,keyboard,keyboard,1,0569_lp_s01_1_keyboard_10_n03085013_20914.png
subject-01,1,570,0.92910099029541,clock,bird,10,0570_lp_s01_10_bird_10_n01616318_2290.png
subject-01,1,571,0.843757152557373,airplane,keyboard,10,0571_lp_s01_10_keyboard_10_n03085013_7285.png
subject-01,1,572,0.898396015167236,car,boat,40,0572_lp_s01_40_boat_10_n03662601_33625.png
subject-01,1,573,0.922767877578735,bird,bird,15,0573_lp_s01_15_bird_10_n01531178_5130.png
subject-01,1,574,0.769366025924683,oven,dog,40,0574_lp_s01_40_dog_10_n02105056_12631.png
subject-01,1,575,1.04558610916138,bird,clock,7,0575_lp_s01_7_clock_10_n03196217_10578.png
subject-01,1,576,0.646267890930176,knife,knife,7,0576_lp_s01_7_knife_10_n03041632_2058.png
subject-01,1,577,0.562604904174805,bear,bear,3,0577_lp_s01_3_bear_10_n02133161_8614.png
subject-01,1,578,0.730961084365845,bird,dog,7,0578_lp_s01_7_dog_10_n02091467_13440.png
subject-01,1,579,0.640058994293213,car,car,0,0579_lp_s01_0_car_10_n03100240_1696.png
subject-01,1,580,0.792412996292114,airplane,truck,10,0580_lp_s01_10_truck_10_n03796401_180.png
subject-01,1,581,0.532570123672485,oven,bicycle,40,0581_lp_s01_40_bicycle_10_n03792782_29276.png
subject-01,1,582,0.571058034896851,clock,chair,10,0582_lp_s01_10_chair_10_n03376595_9176.png
subject-01,1,583,0.733734846115112,car,truck,3,0583_lp_s01_3_truck_10_n03796401_24833.png
subject-01,1,584,0.964262008666992,bicycle,bicycle,5,0584_lp_s01_5_bicycle_10_n02835271_10556.png
subject-01,1,585,0.84033203125,keyboard,bottle,7,0585_lp_s01_7_bottle_10_n03937543_3358.png
subject-01,1,586,0.694824934005737,boat,cat,10,0586_lp_s01_10_cat_10_n02123159_3226.png
subject-01,1,587,0.717195987701416,truck,cat,40,0587_lp_s01_40_cat_10_n02123159_5872.png
subject-01,1,588,0.55800986289978,keyboard,keyboard,0,0588_lp_s01_0_keyboard_10_n03085013_23018.png
subject-01,1,589,0.65603494644165,bear,bear,7,0589_lp_s01_7_bear_10_n02134418_4696.png
subject-01,1,590,0.68021297454834,car,car,1,0590_lp_s01_1_car_10_n02814533_43868.png
subject-01,1,591,0.710932970046997,cat,dog,5,0591_lp_s01_5_dog_10_n02111129_6495.png
subject-01,1,592,0.641365051269531,elephant,elephant,3,0592_lp_s01_3_elephant_10_n02504013_3418.png
subject-01,1,593,0.904139041900635,clock,dog,15,0593_lp_s01_15_dog_10_n02091244_10926.png
subject-01,1,594,0.70468807220459,oven,knife,10,0594_lp_s01_10_knife_10_n03041632_93026.png
subject-01,1,595,0.658867120742798,chair,chair,3,0595_lp_s01_3_chair_10_n03376595_5112.png
subject-01,1,596,1.13543009757996,cat,cat,1,0596_lp_s01_1_cat_10_n02123045_5820.png
subject-01,1,597,0.652018070220947,car,car,3,0597_lp_s01_3_car_10_n03100240_8987.png
subject-01,1,598,0.474313974380493,boat,boat,5,0598_lp_s01_5_boat_10_n03344393_3881.png
subject-01,1,599,0.658704996109009,keyboard,oven,5,0599_lp_s01_5_oven_10_n04111531_585.png
subject-01,1,600,0.649986028671265,oven,elephant,7,0600_lp_s01_7_elephant_10_n02504013_24811.png
subject-01,1,601,0.910321950912476,bear,bear,3,0601_lp_s01_3_bear_10_n02132136_15407.png
subject-01,1,602,0.550936937332153,boat,boat,1,0602_lp_s01_1_boat_10_n03344393_4001.png
subject-01,1,603,0.635504007339478,keyboard,keyboard,7,0603_lp_s01_7_keyboard_10_n04505470_1120.png
subject-01,1,604,0.566126108169556,bear,bear,1,0604_lp_s01_1_bear_10_n02133161_2100.png
subject-01,1,605,0.8122398853302,knife,knife,3,0605_lp_s01_3_knife_10_n03041632_7495.png
subject-01,1,606,0.745113134384155,dog,dog,7,0606_lp_s01_7_dog_10_n02088238_3078.png
subject-01,1,607,0.78365683555603,dog,bicycle,15,0607_lp_s01_15_bicycle_10_n03792782_54350.png
subject-01,1,608,0.843919038772583,elephant,knife,15,0608_lp_s01_15_knife_10_n03041632_24326.png
subject-01,1,609,1.36066913604736,boat,airplane,10,0609_lp_s01_10_airplane_10_n02690373_10657.png
subject-01,1,610,0.582987070083618,cat,cat,5,0610_lp_s01_5_cat_10_n02123597_5887.png
subject-01,1,611,0.775322914123535,bird,cat,3,0611_lp_s01_3_cat_10_n02124075_7692.png
subject-01,1,612,0.583842039108276,boat,boat,3,0612_lp_s01_3_boat_10_n03344393_8265.png
subject-01,1,613,0.784018993377686,knife,knife,3,0613_lp_s01_3_knife_10_n03041632_13130.png
subject-01,1,614,0.646950006484985,boat,boat,1,0614_lp_s01_1_boat_10_n04612504_26238.png
subject-01,1,615,1.15322303771973,knife,knife,10,0615_lp_s01_10_knife_10_n03041632_6309.png
subject-01,1,616,0.915892124176025,cat,elephant,15,0616_lp_s01_15_elephant_10_n02504458_6050.png
subject-01,1,617,0.978254795074463,clock,airplane,40,0617_lp_s01_40_airplane_10_n02690373_2656.png
subject-01,1,618,0.61677098274231,bottle,bottle,3,0618_lp_s01_3_bottle_10_n02823428_4658.png
subject-01,1,619,0.947072982788086,boat,chair,10,0619_lp_s01_10_chair_10_n04429376_2450.png
subject-01,1,620,0.793751955032349,car,knife,10,0620_lp_s01_10_knife_10_n03041632_20707.png
subject-01,1,621,0.593785047531128,bird,bicycle,40,0621_lp_s01_40_bicycle_10_n03792782_1868.png
subject-01,1,622,0.702454805374146,airplane,chair,15,0622_lp_s01_15_chair_10_n03376595_3462.png
subject-01,1,623,0.748940944671631,bear,bear,5,0623_lp_s01_5_bear_10_n02134084_6606.png
subject-01,1,624,0.571791172027588,cat,bird,15,0624_lp_s01_15_bird_10_n01819313_6340.png
subject-01,1,625,0.855889797210693,bear,chair,10,0625_lp_s01_10_chair_10_n03376595_1798.png
subject-01,1,626,0.610455989837646,bicycle,bicycle,10,0626_lp_s01_10_bicycle_10_n02835271_22623.png
subject-01,1,627,0.903295040130615,boat,boat,5,0627_lp_s01_5_boat_10_n03344393_9575.png
subject-01,1,628,0.879588842391968,airplane,bird,40,0628_lp_s01_40_bird_10_n02006656_10568.png
subject-01,1,629,0.834385871887207,bicycle,elephant,7,0629_lp_s01_7_elephant_10_n02504458_716.png
subject-01,1,630,0.818699836730957,boat,boat,15,0630_lp_s01_15_boat_10_n04612504_19111.png
subject-01,1,631,0.995364904403687,elephant,bird,40,0631_lp_s01_40_bird_10_n01514859_11682.png
subject-01,1,632,0.719650030136108,bicycle,bicycle,7,0632_lp_s01_7_bicycle_10_n02835271_2900.png
subject-01,1,633,0.895995140075684,bear,cat,1,0633_lp_s01_1_cat_10_n02123597_7592.png
subject-01,1,634,0.558595895767212,cat,dog,3,0634_lp_s01_3_dog_10_n02108915_3652.png
subject-01,1,635,1.12731289863586,airplane,bottle,10,0635_lp_s01_10_bottle_10_n04591713_10065.png
subject-01,1,636,0.68980884552002,chair,chair,7,0636_lp_s01_7_chair_10_n03376595_3181.png
subject-01,1,637,0.620365142822266,bird,bird,5,0637_lp_s01_5_bird_10_n02009229_3118.png
subject-01,1,638,0.696413993835449,chair,chair,0,0638_lp_s01_0_chair_10_n04099969_2038.png
subject-01,1,639,0.720912933349609,chair,chair,7,0639_lp_s01_7_chair_10_n04429376_14967.png
subject-01,1,640,0.535229206085205,elephant,elephant,0,0640_lp_s01_0_elephant_10_n02504458_5482.png
subject-01,1,641,0.75725793838501,boat,chair,40,0641_lp_s01_40_chair_10_n04099969_10401.png
subject-01,1,642,NaN,na,boat,3,0642_lp_s01_3_boat_10_n03662601_25023.png
subject-01,1,643,1.04786396026611,chair,chair,1,0643_lp_s01_1_chair_10_n03376595_6942.png
subject-01,1,644,0.642412185668945,car,car,7,0644_lp_s01_7_car_10_n04285008_13094.png
subject-01,1,645,1.04115295410156,oven,truck,7,0645_lp_s01_7_truck_10_n03796401_4119.png
subject-01,1,646,0.595988988876343,chair,bicycle,5,0646_lp_s01_5_bicycle_10_n02835271_24207.png
subject-01,1,647,0.758287906646729,airplane,bicycle,40,0647_lp_s01_40_bicycle_10_n02835271_2580.png
subject-01,1,648,0.567344903945923,cat,oven,7,0648_lp_s01_7_oven_10_n04111531_9702.png
subject-01,1,649,0.481611013412476,oven,keyboard,40,0649_lp_s01_40_keyboard_10_n03085013_22960.png
subject-01,1,650,0.62035083770752,bear,cat,40,0650_lp_s01_40_cat_10_n02124075_12815.png
subject-01,1,651,1.11306715011597,truck,truck,3,0651_lp_s01_3_truck_10_n03796401_23774.png
subject-01,1,652,1.02126288414001,clock,clock,1,0652_lp_s01_1_clock_10_n02708093_2806.png
subject-01,1,653,0.591603994369507,cat,bird,7,0653_lp_s01_7_bird_10_n01820546_1222.png
subject-01,1,654,0.576611042022705,car,boat,40,0654_lp_s01_40_boat_10_n04273569_5811.png
subject-01,1,655,0.509099960327148,airplane,keyboard,40,0655_lp_s01_40_keyboard_10_n04505470_1338.png
subject-01,1,656,0.947649002075195,keyboard,cat,10,0656_lp_s01_10_cat_10_n02123159_8396.png
subject-01,1,657,0.702429056167603,truck,truck,3,0657_lp_s01_3_truck_10_n03417042_7469.png
subject-01,1,658,0.795373916625977,boat,bottle,5,0658_lp_s01_5_bottle_10_n03983396_8164.png
subject-01,1,659,0.755235910415649,bird,bird,1,0659_lp_s01_1_bird_10_n02002556_5977.png
subject-01,1,660,0.609978914260864,airplane,airplane,3,0660_lp_s01_3_airplane_10_n02690373_7200.png
subject-01,1,661,0.886343002319336,clock,chair,7,0661_lp_s01_7_chair_10_n03376595_11572.png
subject-01,1,662,0.678985118865967,bicycle,bicycle,3,0662_lp_s01_3_bicycle_10_n02835271_3246.png
subject-01,1,663,0.895405054092407,bicycle,bicycle,10,0663_lp_s01_10_bicycle_10_n03792782_16290.png
subject-01,1,664,0.655761957168579,cat,elephant,15,0664_lp_s01_15_elephant_10_n02504013_22813.png
subject-01,1,665,0.588076114654541,oven,boat,40,0665_lp_s01_40_boat_10_n03344393_2599.png
subject-01,1,666,0.664503812789917,clock,clock,5,0666_lp_s01_5_clock_10_n02708093_1794.png
subject-01,1,667,0.657520055770874,elephant,elephant,3,0667_lp_s01_3_elephant_10_n02504458_10336.png
subject-01,1,668,0.719847917556763,airplane,airplane,3,0668_lp_s01_3_airplane_10_n02690373_8650.png
subject-01,1,669,0.450304985046387,boat,boat,1,0669_lp_s01_1_boat_10_n03662601_1319.png
subject-01,1,670,0.712805032730103,oven,dog,5,0670_lp_s01_5_dog_10_n02110185_7886.png
subject-01,1,671,0.597455024719238,airplane,airplane,40,0671_lp_s01_40_airplane_10_n02690373_19134.png
subject-01,1,672,0.627802133560181,boat,boat,15,0672_lp_s01_15_boat_10_n04612504_13309.png
subject-01,1,673,0.890205144882202,clock,car,3,0673_lp_s01_3_car_10_n04285008_3410.png
subject-01,1,674,0.905129909515381,truck,chair,40,0674_lp_s01_40_chair_10_n03376595_6071.png
subject-01,1,675,0.637088775634766,airplane,airplane,3,0675_lp_s01_3_airplane_10_n02690373_3993.png
subject-01,1,676,0.689306020736694,keyboard,keyboard,0,0676_lp_s01_0_keyboard_10_n04505470_4599.png
subject-01,1,677,0.660161972045898,bicycle,bicycle,3,0677_lp_s01_3_bicycle_10_n02835271_18205.png
subject-01,1,678,0.952572107315063,keyboard,keyboard,10,0678_lp_s01_10_keyboard_10_n04505470_3132.png
subject-01,1,679,0.821493864059448,car,cat,7,0679_lp_s01_7_cat_10_n02123597_14094.png
subject-01,1,680,0.505462169647217,oven,dog,15,0680_lp_s01_15_dog_10_n02098286_2582.png
subject-01,1,681,0.576312065124512,clock,chair,15,0681_lp_s01_15_chair_10_n02791124_3857.png
subject-01,1,682,0.598387002944946,boat,boat,7,0682_lp_s01_7_boat_10_n03662601_6042.png
subject-01,1,683,0.71528697013855,bicycle,bicycle,10,0683_lp_s01_10_bicycle_10_n03792782_62398.png
subject-01,1,684,0.69936203956604,bear,airplane,40,0684_lp_s01_40_airplane_10_n02690373_2525.png
subject-01,1,685,0.554056167602539,cat,cat,3,0685_lp_s01_3_cat_10_n02123045_20366.png
subject-01,1,686,0.762521982192993,car,car,1,0686_lp_s01_1_car_10_n04285008_6154.png
subject-01,1,687,0.731360912322998,keyboard,bear,40,0687_lp_s01_40_bear_10_n02132136_25168.png
subject-01,1,688,0.639513969421387,elephant,elephant,5,0688_lp_s01_5_elephant_10_n02504458_66.png
subject-01,1,689,0.794003009796143,clock,clock,3,0689_lp_s01_3_clock_10_n03196217_8325.png
subject-01,1,690,0.794471025466919,bird,oven,10,0690_lp_s01_10_oven_10_n04111531_11634.png
subject-01,1,691,0.879220008850098,truck,truck,1,0691_lp_s01_1_truck_10_n03417042_9480.png
subject-01,1,692,0.88716197013855,car,truck,10,0692_lp_s01_10_truck_10_n03796401_16425.png
subject-01,1,693,0.64202618598938,bird,bird,1,0693_lp_s01_1_bird_10_n02051845_1935.png
subject-01,1,694,0.772395133972168,airplane,dog,40,0694_lp_s01_40_dog_10_n02113712_4014.png
subject-01,1,695,1.02687692642212,car,oven,15,0695_lp_s01_15_oven_10_n04111531_6508.png
subject-01,1,696,0.703825950622559,oven,oven,40,0696_lp_s01_40_oven_10_n04111531_21366.png
subject-01,1,697,0.658046960830688,knife,knife,0,0697_lp_s01_0_knife_10_n03041632_8528.png
subject-01,1,698,0.758510112762451,elephant,elephant,7,0698_lp_s01_7_elephant_10_n02504458_1848.png
subject-01,1,699,0.650979995727539,cat,cat,1,0699_lp_s01_1_cat_10_n02123045_12206.png
subject-01,1,700,0.827353000640869,truck,car,40,0700_lp_s01_40_car_10_n03100240_5018.png
subject-01,1,701,0.850032806396484,airplane,airplane,5,0701_lp_s01_5_airplane_10_n02690373_9423.png
subject-01,1,702,0.904571056365967,boat,elephant,10,0702_lp_s01_10_elephant_10_n02504013_3197.png
subject-01,1,703,1.07478523254395,car,bear,7,0703_lp_s01_7_bear_10_n02134418_860.png
subject-01,1,704,1.32738304138184,clock,oven,10,0704_lp_s01_10_oven_10_n04111531_11279.png
subject-01,1,705,0.598106861114502,bear,bear,0,0705_lp_s01_0_bear_10_n02134084_7790.png
subject-01,1,706,0.928529024124146,truck,truck,7,0706_lp_s01_7_truck_10_n03417042_19905.png
subject-01,1,707,0.953125953674316,oven,airplane,15,0707_lp_s01_15_airplane_10_n02690373_9427.png
subject-01,1,708,0.537607908248901,cat,cat,5,0708_lp_s01_5_cat_10_n02125311_22884.png
subject-01,1,709,0.892199039459229,airplane,clock,40,0709_lp_s01_40_clock_10_n02708093_32.png
subject-01,1,710,0.760684967041016,keyboard,oven,5,0710_lp_s01_5_oven_10_n04111531_9548.png
subject-01,1,711,0.844786882400513,airplane,airplane,7,0711_lp_s01_7_airplane_10_n02690373_8789.png
subject-01,1,712,0.791497945785522,bicycle,chair,15,0712_lp_s01_15_chair_10_n04429376_7123.png
subject-01,1,713,0.562519073486328,bear,truck,5,0713_lp_s01_5_truck_10_n04467665_30023.png
subject-01,1,714,0.824990034103394,truck,truck,3,0714_lp_s01_3_truck_10_n04467665_16069.png
subject-01,1,715,0.685580015182495,bottle,bottle,15,0715_lp_s01_15_bottle_10_n02823428_8114.png
subject-01,1,716,0.662132978439331,car,car,5,0716_lp_s01_5_car_10_n03100240_3083.png
subject-01,1,717,0.824567079544067,keyboard,chair,7,0717_lp_s01_7_chair_10_n04099969_3984.png
subject-01,1,718,1.31702494621277,dog,dog,1,0718_lp_s01_1_dog_10_n02086646_2810.png
subject-01,1,719,1.07961416244507,clock,clock,10,0719_lp_s01_10_clock_10_n02708093_135.png
subject-01,1,720,0.633831024169922,cat,cat,0,0720_lp_s01_0_cat_10_n02125311_21169.png
subject-01,1,721,0.778866767883301,dog,dog,3,0721_lp_s01_3_dog_10_n02111500_7233.png
subject-01,1,722,0.878648996353149,car,car,10,0722_lp_s01_10_car_10_n04285008_12182.png
subject-01,1,723,0.541309118270874,clock,clock,7,0723_lp_s01_7_clock_10_n04548280_4069.png
subject-01,1,724,0.988071918487549,airplane,cat,15,0724_lp_s01_15_cat_10_n02123597_11940.png
subject-01,1,725,0.696342945098877,airplane,airplane,0,0725_lp_s01_0_airplane_10_n02690373_20690.png
subject-01,1,726,0.865010976791382,bear,dog,7,0726_lp_s01_7_dog_10_n02106662_2384.png
subject-01,1,727,0.819376945495605,car,keyboard,40,0727_lp_s01_40_keyboard_10_n03085013_19317.png
subject-01,1,728,0.795979022979736,bicycle,bicycle,5,0728_lp_s01_5_bicycle_10_n03792782_5578.png
subject-01,1,729,0.680760860443115,bottle,bottle,1,0729_lp_s01_1_bottle_10_n04591713_4232.png
subject-01,1,730,0.704642057418823,car,car,1,0730_lp_s01_1_car_10_n03100240_1535.png
subject-01,1,731,0.835347890853882,bird,bird,0,0731_lp_s01_0_bird_10_n02018795_5662.png
subject-01,1,732,0.86555290222168,oven,oven,1,0732_lp_s01_1_oven_10_n04111531_15629.png
subject-01,1,733,0.749874114990234,dog,dog,3,0733_lp_s01_3_dog_10_n02098105_1217.png
subject-01,1,734,0.974391937255859,bicycle,bottle,7,0734_lp_s01_7_bottle_10_n04560804_2002.png
subject-01,1,735,0.85097599029541,bottle,cat,7,0735_lp_s01_7_cat_10_n02123045_20512.png
subject-01,1,736,0.828016042709351,oven,cat,5,0736_lp_s01_5_cat_10_n02123159_3729.png
subject-01,1,737,0.781903028488159,airplane,car,40,0737_lp_s01_40_car_10_n04285008_11748.png
subject-01,1,738,1.01230812072754,dog,dog,0,0738_lp_s01_0_dog_10_n02108422_1164.png
subject-01,1,739,1.15882086753845,bear,bear,10,0739_lp_s01_10_bear_10_n02132136_21799.png
subject-01,1,740,0.637131929397583,clock,clock,0,0740_lp_s01_0_clock_10_n04548280_2169.png
subject-01,1,741,0.767290115356445,dog,dog,3,0741_lp_s01_3_dog_10_n02088364_4980.png
subject-01,1,742,0.928116083145142,keyboard,keyboard,40,0742_lp_s01_40_keyboard_10_n04505470_4492.png
subject-01,1,743,1.04436588287354,oven,oven,3,0743_lp_s01_3_oven_10_n04111531_5171.png
subject-01,1,744,1.09716701507568,car,truck,7,0744_lp_s01_7_truck_10_n03417042_16856.png
subject-01,1,745,0.545577049255371,keyboard,keyboard,7,0745_lp_s01_7_keyboard_10_n04505470_4501.png
subject-01,1,746,0.797698974609375,elephant,elephant,5,0746_lp_s01_5_elephant_10_n02504013_22704.png
subject-01,1,747,0.7224440574646,boat,truck,5,0747_lp_s01_5_truck_10_n04467665_79452.png
subject-01,1,748,0.615081787109375,oven,oven,1,0748_lp_s01_1_oven_10_n04111531_7667.png
subject-01,1,749,1.30448985099792,knife,knife,1,0749_lp_s01_1_knife_10_n03041632_45338.png
subject-01,1,750,0.736629009246826,keyboard,keyboard,7,0750_lp_s01_7_keyboard_10_n03085013_6828.png
subject-01,1,751,0.959232807159424,keyboard,clock,15,0751_lp_s01_15_clock_10_n02708093_2867.png
subject-01,1,752,1.07583808898926,truck,truck,1,0752_lp_s01_1_truck_10_n03417042_12235.png
subject-01,1,753,0.622107982635498,bird,bird,0,0753_lp_s01_0_bird_10_n02017213_1163.png
subject-01,1,754,1.06087493896484,car,cat,40,0754_lp_s01_40_cat_10_n02124075_12325.png
subject-01,1,755,0.805142879486084,chair,chair,0,0755_lp_s01_0_chair_10_n03376595_6107.png
subject-01,1,756,1.0455801486969,bird,cat,5,0756_lp_s01_5_cat_10_n02123597_13835.png
subject-01,1,757,0.75250506401062,cat,cat,3,0757_lp_s01_3_cat_10_n02123045_5371.png
subject-01,1,758,0.860640048980713,airplane,truck,15,0758_lp_s01_15_truck_10_n03417042_8121.png
subject-01,1,759,0.92337703704834,truck,truck,15,0759_lp_s01_15_truck_10_n03417042_3592.png
subject-01,1,760,0.999612092971802,clock,clock,0,0760_lp_s01_0_clock_10_n03196217_6163.png
subject-01,1,761,1.09226393699646,keyboard,bottle,40,0761_lp_s01_40_bottle_10_n03937543_1391.png
subject-01,1,762,0.971215963363647,car,oven,7,0762_lp_s01_7_oven_10_n04111531_13862.png
subject-01,1,763,0.523154020309448,airplane,airplane,7,0763_lp_s01_7_airplane_10_n02690373_4839.png
subject-01,1,764,0.602122068405151,dog,dog,1,0764_lp_s01_1_dog_10_n02093754_5037.png
subject-01,1,765,0.916377067565918,oven,cat,15,0765_lp_s01_15_cat_10_n02123159_7629.png
subject-01,1,766,0.824694871902466,bear,bear,10,0766_lp_s01_10_bear_10_n02133161_5106.png
subject-01,1,767,0.940984964370728,airplane,bear,40,0767_lp_s01_40_bear_10_n02133161_20090.png
subject-01,1,768,0.717544078826904,cat,cat,3,0768_lp_s01_3_cat_10_n02124075_8693.png
subject-01,1,769,0.888263940811157,bear,bear,0,0769_lp_s01_0_bear_10_n02133161_5681.png
subject-01,1,770,1.01917886734009,bird,bird,3,0770_lp_s01_3_bird_10_n01820546_5444.png
subject-01,1,771,0.535305023193359,bird,bird,3,0771_lp_s01_3_bird_10_n01829413_8792.png
subject-01,1,772,1.10370516777039,cat,truck,7,0772_lp_s01_7_truck_10_n03417042_17545.png
subject-01,1,773,0.620169878005981,car,car,0,0773_lp_s01_0_car_10_n03100240_9625.png
subject-01,1,774,0.851013898849487,bicycle,chair,15,0774_lp_s01_15_chair_10_n02791124_3160.png
subject-01,1,775,0.651401042938232,oven,bottle,10,0775_lp_s01_10_bottle_10_n04591713_4876.png
subject-01,1,776,0.806084871292114,car,truck,10,0776_lp_s01_10_truck_10_n04467665_69202.png
subject-01,1,777,0.944201946258545,dog,dog,15,0777_lp_s01_15_dog_10_n02108422_932.png
subject-01,1,778,1.35906910896301,keyboard,truck,10,0778_lp_s01_10_truck_10_n04467665_7975.png
subject-01,1,779,1.12135601043701,elephant,bottle,40,0779_lp_s01_40_bottle_10_n04557648_2002.png
subject-01,1,780,0.667503118515015,car,car,1,0780_lp_s01_1_car_10_n02814533_48541.png
subject-01,1,781,0.592021942138672,keyboard,keyboard,0,0781_lp_s01_0_keyboard_10_n03085013_10984.png
subject-01,1,782,0.908642053604126,bird,bird,7,0782_lp_s01_7_bird_10_n02009912_11907.png
subject-01,1,783,0.492783069610596,clock,clock,7,0783_lp_s01_7_clock_10_n04548280_219.png
subject-01,1,784,1.49349617958069,elephant,bear,7,0784_lp_s01_7_bear_10_n02132136_4888.png
subject-01,1,785,0.853953838348389,bird,bear,15,0785_lp_s01_15_bear_10_n02133161_156.png
subject-01,1,786,1.30890297889709,clock,bicycle,7,0786_lp_s01_7_bicycle_10_n03792782_1747.png
subject-01,1,787,1.07865595817566,bicycle,dog,40,0787_lp_s01_40_dog_10_n02108915_11208.png
subject-01,1,788,0.947715044021606,bear,elephant,40,0788_lp_s01_40_elephant_10_n02504013_7635.png
subject-01,1,789,0.909667015075684,knife,bicycle,40,0789_lp_s01_40_bicycle_10_n03792782_17666.png
subject-01,1,790,0.810499906539917,elephant,elephant,1,0790_lp_s01_1_elephant_10_n02504458_11345.png
subject-01,1,791,0.870816946029663,boat,boat,0,0791_lp_s01_0_boat_10_n02951358_31986.png
subject-01,1,792,0.587522029876709,clock,clock,1,0792_lp_s01_1_clock_10_n04548280_5525.png
subject-01,1,793,0.903990030288696,car,car,3,0793_lp_s01_3_car_10_n02814533_35386.png
subject-01,1,794,1.25042390823364,boat,bicycle,10,0794_lp_s01_10_bicycle_10_n02835271_13862.png
subject-01,1,795,NaN,na,bottle,10,0795_lp_s01_10_bottle_10_n02823428_4983.png
subject-01,1,796,0.819314002990723,bicycle,bicycle,3,0796_lp_s01_3_bicycle_10_n02835271_2594.png
subject-01,1,797,0.727674961090088,keyboard,bear,15,0797_lp_s01_15_bear_10_n02134084_8601.png
subject-01,1,798,0.888046979904175,keyboard,keyboard,5,0798_lp_s01_5_keyboard_10_n03085013_18785.png
subject-01,1,799,0.82845401763916,cat,keyboard,3,0799_lp_s01_3_keyboard_10_n03085013_18841.png
subject-01,1,800,1.4054069519043,car,car,3,0800_lp_s01_3_car_10_n03100240_7836.png
subject-01,1,801,0.918532848358154,car,car,5,0801_lp_s01_5_car_10_n04285008_7428.png
subject-01,1,802,0.650915145874023,bear,bear,0,0802_lp_s01_0_bear_10_n02132136_2846.png
subject-01,1,803,0.610971927642822,chair,chair,1,0803_lp_s01_1_chair_10_n03376595_8012.png
subject-01,1,804,0.695883989334106,car,car,10,0804_lp_s01_10_car_10_n02814533_13802.png
subject-01,1,805,1.18013000488281,knife,oven,7,0805_lp_s01_7_oven_10_n04111531_8603.png
subject-01,1,806,1.45652794837952,keyboard,keyboard,7,0806_lp_s01_7_keyboard_10_n04505470_4458.png
subject-01,1,807,0.965496063232422,boat,airplane,40,0807_lp_s01_40_airplane_10_n02690373_4671.png
subject-01,1,808,0.771715879440308,clock,boat,15,0808_lp_s01_15_boat_10_n02951358_29341.png
subject-01,1,809,0.804122924804688,bear,bear,10,0809_lp_s01_10_bear_10_n02134084_27899.png
subject-01,1,810,0.780786037445068,knife,knife,5,0810_lp_s01_5_knife_10_n03041632_25022.png
subject-01,1,811,0.981122970581055,cat,cat,0,0811_lp_s01_0_cat_10_n02124075_10310.png
subject-01,1,812,0.803550958633423,airplane,clock,40,0812_lp_s01_40_clock_10_n02708093_7810.png
subject-01,1,813,0.858592987060547,oven,clock,15,0813_lp_s01_15_clock_10_n02708093_274.png
subject-01,1,814,0.564604997634888,boat,boat,0,0814_lp_s01_0_boat_10_n02951358_15479.png
subject-01,1,815,0.673822164535522,cat,cat,5,0815_lp_s01_5_cat_10_n02123045_11034.png
subject-01,1,816,0.74933385848999,clock,clock,1,0816_lp_s01_1_clock_10_n04548280_821.png
subject-01,1,817,0.864093065261841,clock,bottle,40,0817_lp_s01_40_bottle_10_n04560804_9457.png
subject-01,1,818,1.30249714851379,dog,dog,3,0818_lp_s01_3_dog_10_n02113023_12640.png
subject-01,1,819,0.641485214233398,boat,bird,5,0819_lp_s01_5_bird_10_n01582220_9023.png
subject-01,1,820,0.871639013290405,boat,airplane,15,0820_lp_s01_15_airplane_10_n02690373_2521.png
subject-01,1,821,0.787971019744873,airplane,keyboard,15,0821_lp_s01_15_keyboard_10_n04505470_1479.png
subject-01,1,822,0.742483139038086,boat,boat,3,0822_lp_s01_3_boat_10_n02951358_33722.png
subject-01,1,823,0.933505058288574,dog,dog,3,0823_lp_s01_3_dog_10_n02091134_3075.png
subject-01,1,824,0.779429912567139,bird,oven,15,0824_lp_s01_15_oven_10_n04111531_11530.png
subject-01,1,825,0.742459058761597,truck,truck,0,0825_lp_s01_0_truck_10_n03417042_24100.png
subject-01,1,826,0.672439098358154,airplane,airplane,1,0826_lp_s01_1_airplane_10_n02690373_3988.png
subject-01,1,827,0.795101165771484,boat,elephant,40,0827_lp_s01_40_elephant_10_n02504013_7143.png
subject-01,1,828,0.879756927490234,airplane,dog,40,0828_lp_s01_40_dog_10_n02106662_56458.png
subject-01,1,829,1.18808388710022,bear,chair,10,0829_lp_s01_10_chair_10_n02791124_6865.png
subject-01,1,830,0.718470096588135,car,car,10,0830_lp_s01_10_car_10_n03100240_15531.png
subject-01,1,831,0.519108057022095,cat,cat,7,0831_lp_s01_7_cat_10_n02123597_3842.png
subject-01,1,832,0.719423055648804,clock,clock,5,0832_lp_s01_5_clock_10_n04548280_3563.png
subject-01,1,833,0.987772941589355,bird,oven,10,0833_lp_s01_10_oven_10_n04111531_24096.png
subject-01,1,834,0.674633026123047,car,car,10,0834_lp_s01_10_car_10_n03100240_6029.png
subject-01,1,835,0.826968193054199,cat,cat,5,0835_lp_s01_5_cat_10_n02125311_39208.png
subject-01,1,836,0.719506978988647,keyboard,keyboard,1,0836_lp_s01_1_keyboard_10_n04505470_532.png
subject-01,1,837,0.874091863632202,truck,truck,0,0837_lp_s01_0_truck_10_n04467665_19131.png
subject-01,1,838,1.16647505760193,clock,knife,5,0838_lp_s01_5_knife_10_n03041632_21723.png
subject-01,1,839,0.866966009140015,bicycle,knife,10,0839_lp_s01_10_knife_10_n03041632_24384.png
subject-01,1,840,0.781728982925415,car,car,7,0840_lp_s01_7_car_10_n02814533_44503.png
subject-01,1,841,0.812075138092041,dog,dog,0,0841_lp_s01_0_dog_10_n02107312_3673.png
subject-01,1,842,0.758235931396484,dog,dog,0,0842_lp_s01_0_dog_10_n02094258_4979.png
subject-01,1,843,0.897164106369019,elephant,knife,15,0843_lp_s01_15_knife_10_n03041632_28443.png
subject-01,1,844,1.08166408538818,bear,bear,3,0844_lp_s01_3_bear_10_n02134084_17875.png
subject-01,1,845,0.827501058578491,elephant,bird,1,0845_lp_s01_1_bird_10_n01860187_348.png
subject-01,1,846,0.519948959350586,boat,boat,1,0846_lp_s01_1_boat_10_n02951358_2445.png
subject-01,1,847,0.896647930145264,bicycle,bicycle,1,0847_lp_s01_1_bicycle_10_n03792782_46807.png
subject-01,1,848,0.873094081878662,clock,clock,0,0848_lp_s01_0_clock_10_n02708093_22.png
subject-01,1,849,1.14346289634705,boat,bear,5,0849_lp_s01_5_bear_10_n02132136_1152.png
subject-01,1,850,1.02784204483032,bird,bird,3,0850_lp_s01_3_bird_10_n01560419_1470.png
subject-01,1,851,0.766585111618042,airplane,airplane,0,0851_lp_s01_0_airplane_10_n02690373_181.png
subject-01,1,852,0.921161890029907,airplane,cat,40,0852_lp_s01_40_cat_10_n02123159_4348.png
subject-01,1,853,0.867539882659912,knife,knife,3,0853_lp_s01_3_knife_10_n03041632_10000.png
subject-01,1,854,1.3279390335083,bicycle,bicycle,7,0854_lp_s01_7_bicycle_10_n03792782_6149.png
subject-01,1,855,1.15868306159973,car,car,15,0855_lp_s01_15_car_10_n04285008_11714.png
subject-01,1,856,1.04506397247314,elephant,bicycle,40,0856_lp_s01_40_bicycle_10_n03792782_11851.png
subject-01,1,857,1.1135630607605,bottle,bottle,5,0857_lp_s01_5_bottle_10_n03937543_339.png
subject-01,1,858,1.50032496452332,oven,oven,1,0858_lp_s01_1_oven_10_n04111531_22445.png
subject-01,1,859,1.07447695732117,car,car,7,0859_lp_s01_7_car_10_n02814533_28783.png
subject-01,1,860,0.628981113433838,boat,bottle,40,0860_lp_s01_40_bottle_10_n04591713_5204.png
subject-01,1,861,0.737981081008911,keyboard,truck,40,0861_lp_s01_40_truck_10_n04467665_67527.png
subject-01,1,862,0.800376176834106,bird,bird,1,0862_lp_s01_1_bird_10_n01601694_3230.png
subject-01,1,863,0.769243001937866,boat,car,10,0863_lp_s01_10_car_10_n03100240_8670.png
subject-01,1,864,0.853790044784546,airplane,bottle,40,0864_lp_s01_40_bottle_10_n04560804_3392.png
subject-01,1,865,0.878258943557739,truck,chair,1,0865_lp_s01_1_chair_10_n02791124_2540.png
subject-01,1,866,0.954610824584961,car,truck,15,0866_lp_s01_15_truck_10_n04467665_39317.png
subject-01,1,867,0.801697969436646,oven,bear,15,0867_lp_s01_15_bear_10_n02132136_786.png
subject-01,1,868,0.884660959243774,cat,car,40,0868_lp_s01_40_car_10_n04285008_3185.png
subject-01,1,869,0.983514785766602,boat,chair,10,0869_lp_s01_10_chair_10_n04429376_24716.png
subject-01,1,870,0.929948091506958,car,bear,15,0870_lp_s01_15_bear_10_n02134418_1978.png
subject-01,1,871,0.922019004821777,oven,elephant,40,0871_lp_s01_40_elephant_10_n02504013_3857.png
subject-01,1,872,0.760627031326294,chair,chair,3,0872_lp_s01_3_chair_10_n04099969_12546.png
subject-01,1,873,0.723006963729858,boat,car,15,0873_lp_s01_15_car_10_n03100240_22499.png
subject-01,1,874,1.01566195487976,truck,truck,5,0874_lp_s01_5_truck_10_n03796401_4878.png
subject-01,1,875,0.884395837783813,airplane,airplane,7,0875_lp_s01_7_airplane_10_n02690373_5146.png
subject-01,1,876,1.33885312080383,oven,bird,10,0876_lp_s01_10_bird_10_n02037110_554.png
subject-01,1,877,0.53902006149292,clock,clock,7,0877_lp_s01_7_clock_10_n02708093_7020.png
subject-01,1,878,0.67749285697937,knife,knife,5,0878_lp_s01_5_knife_10_n03041632_5162.png
subject-01,1,879,1.20791292190552,chair,chair,0,0879_lp_s01_0_chair_10_n03376595_13927.png
subject-01,1,880,0.762844800949097,chair,keyboard,5,0880_lp_s01_5_keyboard_10_n04505470_9331.png
subject-01,1,881,0.584809064865112,bicycle,bicycle,0,0881_lp_s01_0_bicycle_10_n02835271_14966.png
subject-01,1,882,0.715589046478271,truck,truck,1,0882_lp_s01_1_truck_10_n04467665_50932.png
subject-01,1,883,0.631879091262817,car,car,0,0883_lp_s01_0_car_10_n03100240_8327.png
subject-01,1,884,0.638590097427368,truck,truck,0,0884_lp_s01_0_truck_10_n04467665_18621.png
subject-01,1,885,0.546883821487427,boat,boat,7,0885_lp_s01_7_boat_10_n04612504_12444.png
subject-01,1,886,0.623607873916626,chair,chair,1,0886_lp_s01_1_chair_10_n02791124_241.png
subject-01,1,887,0.801819801330566,elephant,elephant,0,0887_lp_s01_0_elephant_10_n02504013_24486.png
subject-01,1,888,0.602449893951416,clock,clock,1,0888_lp_s01_1_clock_10_n04548280_9700.png
subject-01,1,889,0.794632196426392,airplane,airplane,5,0889_lp_s01_5_airplane_10_n02690373_2981.png
subject-01,1,890,1.03354001045227,car,dog,15,0890_lp_s01_15_dog_10_n02107312_5733.png
subject-01,1,891,0.725697994232178,oven,oven,0,0891_lp_s01_0_oven_10_n04111531_21173.png
subject-01,1,892,0.731980085372925,chair,chair,5,0892_lp_s01_5_chair_10_n03376595_9692.png
subject-01,1,893,0.886231899261475,elephant,elephant,7,0893_lp_s01_7_elephant_10_n02504458_4838.png
subject-01,1,894,0.616963148117065,bird,bird,10,0894_lp_s01_10_bird_10_n02002556_5829.png
subject-01,1,895,0.717627048492432,oven,oven,7,0895_lp_s01_7_oven_10_n04111531_2987.png
subject-01,1,896,0.656173944473267,bear,keyboard,15,0896_lp_s01_15_keyboard_10_n03085013_24416.png
subject-01,1,897,0.948304176330566,airplane,airplane,5,0897_lp_s01_5_airplane_10_n02690373_633.png
subject-01,1,898,0.740770101547241,airplane,knife,15,0898_lp_s01_15_knife_10_n03041632_40530.png
subject-01,1,899,0.603274822235107,boat,boat,5,0899_lp_s01_5_boat_10_n03662601_2743.png
subject-01,1,900,0.611974954605103,chair,chair,3,0900_lp_s01_3_chair_10_n04429376_18863.png
subject-01,1,901,0.788439989089966,bottle,bottle,5,0901_lp_s01_5_bottle_10_n02823428_4694.png
subject-01,1,902,0.572951793670654,boat,boat,10,0902_lp_s01_10_boat_10_n03344393_7826.png
subject-01,1,903,0.927165985107422,bottle,bottle,10,0903_lp_s01_10_bottle_10_n02823428_6766.png
subject-01,1,904,0.858180999755859,cat,cat,3,0904_lp_s01_3_cat_10_n02123045_1596.png
subject-01,1,905,0.996536016464233,dog,bear,0,0905_lp_s01_0_bear_10_n02134418_2719.png
subject-01,1,906,0.888806104660034,airplane,airplane,15,0906_lp_s01_15_airplane_10_n02690373_19329.png
subject-01,1,907,0.73525595664978,chair,chair,7,0907_lp_s01_7_chair_10_n02791124_6276.png
subject-01,1,908,0.681664943695068,bottle,bottle,7,0908_lp_s01_7_bottle_10_n04591713_6971.png
subject-01,1,909,0.803883075714111,boat,chair,15,0909_lp_s01_15_chair_10_n04099969_3312.png
subject-01,1,910,0.704345941543579,airplane,airplane,7,0910_lp_s01_7_airplane_10_n02690373_10131.png
subject-01,1,911,0.873025894165039,airplane,oven,10,0911_lp_s01_10_oven_10_n04111531_8537.png
subject-01,1,912,0.765705108642578,bear,bear,10,0912_lp_s01_10_bear_10_n02132136_10468.png
subject-01,1,913,0.789702177047729,cat,cat,1,0913_lp_s01_1_cat_10_n02124075_7663.png
subject-01,1,914,0.858304023742676,bicycle,bicycle,0,0914_lp_s01_0_bicycle_10_n03792782_8287.png
subject-01,1,915,0.851053953170776,chair,chair,15,0915_lp_s01_15_chair_10_n03376595_4464.png
subject-01,1,916,0.989274024963379,dog,dog,0,0916_lp_s01_0_dog_10_n02100583_10960.png
subject-01,1,917,1.06610798835754,airplane,chair,7,0917_lp_s01_7_chair_10_n03376595_3499.png
subject-01,1,918,0.926564931869507,bird,bear,3,0918_lp_s01_3_bear_10_n02133161_10141.png
subject-01,1,919,1.11297202110291,clock,bottle,0,0919_lp_s01_0_bottle_10_n04591713_2680.png
subject-01,1,920,0.773289918899536,car,car,5,0920_lp_s01_5_car_10_n04285008_2880.png
subject-01,1,921,0.849687814712524,boat,boat,7,0921_lp_s01_7_boat_10_n02951358_30909.png
subject-01,1,922,1.3881618976593,boat,boat,3,0922_lp_s01_3_boat_10_n03344393_5091.png
subject-01,1,923,0.93458104133606,cat,cat,10,0923_lp_s01_10_cat_10_n02123394_3144.png
subject-01,1,924,0.819029092788696,airplane,airplane,1,0924_lp_s01_1_airplane_10_n02690373_9328.png
subject-01,1,925,1.05783796310425,clock,clock,3,0925_lp_s01_3_clock_10_n02708093_4912.png
subject-01,1,926,0.812659978866577,bear,bear,0,0926_lp_s01_0_bear_10_n02133161_2135.png
subject-01,1,927,0.772646903991699,clock,clock,7,0927_lp_s01_7_clock_10_n02708093_6890.png
subject-01,1,928,1.19497084617615,car,boat,40,0928_lp_s01_40_boat_10_n03662601_35800.png
subject-01,1,929,1.15768504142761,boat,bicycle,15,0929_lp_s01_15_bicycle_10_n02835271_6122.png
subject-01,1,930,1.01019883155823,knife,dog,3,0930_lp_s01_3_dog_10_n02092002_12007.png
subject-01,1,931,0.65056300163269,truck,truck,5,0931_lp_s01_5_truck_10_n03796401_2656.png
subject-01,1,932,0.649144887924194,knife,knife,1,0932_lp_s01_1_knife_10_n03041632_2644.png
subject-01,1,933,0.627465963363647,bear,bear,1,0933_lp_s01_1_bear_10_n02134418_3383.png
subject-01,1,934,0.633769035339355,airplane,boat,5,0934_lp_s01_5_boat_10_n02951358_12432.png
subject-01,1,935,0.67243504524231,bottle,bottle,0,0935_lp_s01_0_bottle_10_n04557648_376.png
subject-01,1,936,0.818939924240112,bird,bicycle,7,0936_lp_s01_7_bicycle_10_n03792782_5416.png
subject-01,1,937,1.2715802192688,car,car,7,0937_lp_s01_7_car_10_n04285008_13156.png
subject-01,1,938,0.850049018859863,chair,chair,3,0938_lp_s01_3_chair_10_n04099969_18463.png
subject-01,1,939,1.15676188468933,bear,dog,10,0939_lp_s01_10_dog_10_n02088094_9379.png
subject-01,1,940,0.935230016708374,dog,bird,15,0940_lp_s01_15_bird_10_n02028035_33583.png
subject-01,1,941,0.903377056121826,knife,knife,0,0941_lp_s01_0_knife_10_n03041632_11741.png
subject-01,1,942,0.525990009307861,boat,boat,1,0942_lp_s01_1_boat_10_n02951358_34917.png
subject-01,1,943,0.695905923843384,keyboard,elephant,40,0943_lp_s01_40_elephant_10_n02504013_4044.png
subject-01,1,944,1.11055111885071,bicycle,bicycle,3,0944_lp_s01_3_bicycle_10_n03792782_9280.png
subject-01,1,945,0.771190881729126,airplane,airplane,1,0945_lp_s01_1_airplane_10_n02690373_5266.png
subject-01,1,946,0.763622999191284,bicycle,bicycle,7,0946_lp_s01_7_bicycle_10_n02835271_769.png
subject-01,1,947,0.839585065841675,chair,chair,5,0947_lp_s01_5_chair_10_n02791124_3731.png
subject-01,1,948,0.783285140991211,truck,truck,1,0948_lp_s01_1_truck_10_n03417042_5768.png
subject-01,1,949,0.884207963943481,airplane,airplane,5,0949_lp_s01_5_airplane_10_n02690373_5184.png
subject-01,1,950,0.784478187561035,chair,keyboard,15,0950_lp_s01_15_keyboard_10_n04505470_4732.png
subject-01,1,951,0.815080881118774,car,car,0,0951_lp_s01_0_car_10_n03100240_11428.png
subject-01,1,952,1.27527594566345,cat,knife,3,0952_lp_s01_3_knife_10_n03041632_80829.png
subject-01,1,953,0.753886938095093,bottle,clock,15,0953_lp_s01_15_clock_10_n04548280_8998.png
subject-01,1,954,1.00638389587402,keyboard,elephant,40,0954_lp_s01_40_elephant_10_n02504458_2419.png
subject-01,1,955,0.682965040206909,airplane,bicycle,7,0955_lp_s01_7_bicycle_10_n02835271_7426.png
subject-01,1,956,0.953622102737427,bird,car,40,0956_lp_s01_40_car_10_n03100240_2042.png
subject-01,1,957,0.630259037017822,truck,truck,3,0957_lp_s01_3_truck_10_n03796401_3250.png
subject-01,1,958,0.940855979919434,elephant,bicycle,40,0958_lp_s01_40_bicycle_10_n03792782_43328.png
subject-01,1,959,0.595079898834229,bicycle,bicycle,3,0959_lp_s01_3_bicycle_10_n02835271_9440.png
subject-01,1,960,0.758127927780151,bicycle,bicycle,0,0960_lp_s01_0_bicycle_10_n03792782_6546.png
subject-01,1,961,0.745328903198242,keyboard,keyboard,3,0961_lp_s01_3_keyboard_10_n04505470_3615.png
subject-01,1,962,0.746049880981445,car,bear,5,0962_lp_s01_5_bear_10_n02132136_9815.png
subject-01,1,963,0.654521942138672,bottle,bottle,7,0963_lp_s01_7_bottle_10_n03983396_6011.png
subject-01,1,964,1.03902411460876,elephant,elephant,1,0964_lp_s01_1_elephant_10_n02504458_1626.png
subject-01,1,965,0.669408082962036,clock,clock,7,0965_lp_s01_7_clock_10_n02708093_3751.png
subject-01,1,966,0.748069047927856,car,car,5,0966_lp_s01_5_car_10_n03100240_16907.png
subject-01,1,967,0.648713111877441,car,car,5,0967_lp_s01_5_car_10_n02814533_82372.png
subject-01,1,968,1.03327107429504,airplane,bicycle,10,0968_lp_s01_10_bicycle_10_n03792782_7108.png
subject-01,1,969,0.733489990234375,bicycle,bicycle,0,0969_lp_s01_0_bicycle_10_n02835271_11929.png
subject-01,1,970,0.672603130340576,bottle,bottle,0,0970_lp_s01_0_bottle_10_n03983396_16224.png
subject-01,1,971,0.956486940383911,bottle,clock,10,0971_lp_s01_10_clock_10_n03196217_9160.png
subject-01,1,972,0.771145105361938,car,knife,15,0972_lp_s01_15_knife_10_n03041632_1884.png
subject-01,1,973,0.687627077102661,oven,oven,0,0973_lp_s01_0_oven_10_n04111531_136.png
subject-01,1,974,0.825922966003418,dog,dog,10,0974_lp_s01_10_dog_10_n02085782_7651.png
subject-01,1,975,0.780184984207153,keyboard,keyboard,10,0975_lp_s01_10_keyboard_10_n03085013_7573.png
subject-01,1,976,0.649055957794189,oven,oven,1,0976_lp_s01_1_oven_10_n04111531_2715.png
subject-01,1,977,0.565340042114258,clock,clock,3,0977_lp_s01_3_clock_10_n04548280_5765.png
subject-01,1,978,0.711611032485962,knife,knife,1,0978_lp_s01_1_knife_10_n03041632_81943.png
subject-01,1,979,0.680328130722046,car,car,40,0979_lp_s01_40_car_10_n04285008_14573.png
subject-01,1,980,0.680773973464966,bear,bottle,15,0980_lp_s01_15_bottle_10_n03937543_5512.png
subject-01,1,981,0.971366167068481,cat,dog,15,0981_lp_s01_15_dog_10_n02107312_1538.png
subject-01,1,982,0.863598108291626,oven,chair,5,0982_lp_s01_5_chair_10_n04429376_45302.png
subject-01,1,983,0.764279842376709,airplane,airplane,10,0983_lp_s01_10_airplane_10_n02690373_5427.png
subject-01,1,984,1.36485195159912,chair,dog,15,0984_lp_s01_15_dog_10_n02093859_3707.png
subject-01,1,985,0.911176919937134,boat,boat,7,0985_lp_s01_7_boat_10_n03662601_12308.png
subject-01,1,986,1.06604218482971,car,car,3,0986_lp_s01_3_car_10_n03100240_2495.png
subject-01,1,987,1.36417508125305,dog,bear,5,0987_lp_s01_5_bear_10_n02132136_9965.png
subject-01,1,988,1.0105288028717,elephant,elephant,7,0988_lp_s01_7_elephant_10_n02504013_7001.png
subject-01,1,989,0.649054050445557,boat,boat,0,0989_lp_s01_0_boat_10_n03344393_3349.png
subject-01,1,990,1.38416910171509,boat,boat,15,0990_lp_s01_15_boat_10_n04612504_2805.png
subject-01,1,991,0.754261016845703,car,car,1,0991_lp_s01_1_car_10_n02814533_83577.png
subject-01,1,992,0.839043140411377,car,car,7,0992_lp_s01_7_car_10_n02814533_3594.png
subject-01,1,993,0.947293996810913,airplane,keyboard,40,0993_lp_s01_40_keyboard_10_n03085013_21955.png
subject-01,1,994,0.564159870147705,cat,cat,0,0994_lp_s01_0_cat_10_n02123597_10952.png
subject-01,1,995,0.862397909164429,chair,chair,5,0995_lp_s01_5_chair_10_n03376595_12326.png
subject-01,1,996,0.756859064102173,airplane,airplane,3,0996_lp_s01_3_airplane_10_n02690373_939.png
subject-01,1,997,1.15534901618958,boat,truck,7,0997_lp_s01_7_truck_10_n03417042_28773.png
subject-01,1,998,0.80992603302002,bear,bear,0,0998_lp_s01_0_bear_10_n02132136_7586.png
subject-01,1,999,0.840058088302612,airplane,boat,15,0999_lp_s01_15_boat_10_n04273569_3095.png
subject-01,1,1000,0.825133800506592,clock,oven,10,1000_lp_s01_10_oven_10_n04111531_12830.png
subject-01,1,1001,1.29222011566162,car,airplane,15,1001_lp_s01_15_airplane_10_n02690373_5845.png
subject-01,1,1002,1.10121512413025,bird,bird,10,1002_lp_s01_10_bird_10_n02028035_17238.png
subject-01,1,1003,1.45304298400879,bird,cat,0,1003_lp_s01_0_cat_10_n02125311_35785.png
subject-01,1,1004,0.794022083282471,oven,oven,0,1004_lp_s01_0_oven_10_n04111531_10420.png
subject-01,1,1005,0.793874979019165,clock,clock,15,1005_lp_s01_15_clock_10_n03196217_3140.png
subject-01,1,1006,0.770649194717407,cat,elephant,3,1006_lp_s01_3_elephant_10_n02504013_1502.png
subject-01,1,1007,1.23087000846863,keyboard,keyboard,1,1007_lp_s01_1_keyboard_10_n03085013_9066.png
subject-01,1,1008,NaN,na,bottle,10,1008_lp_s01_10_bottle_10_n02823428_5135.png
subject-01,1,1009,0.769974946975708,airplane,airplane,1,1009_lp_s01_1_airplane_10_n02690373_2724.png
subject-01,1,1010,0.940438032150269,bird,bird,5,1010_lp_s01_5_bird_10_n01819313_3505.png
subject-01,1,1011,0.985118865966797,keyboard,keyboard,3,1011_lp_s01_3_keyboard_10_n04505470_4432.png
subject-01,1,1012,NaN,na,clock,40,1012_lp_s01_40_clock_10_n04548280_2942.png
subject-01,1,1013,1.03114104270935,car,car,0,1013_lp_s01_0_car_10_n02814533_27571.png
subject-01,1,1014,1.1920108795166,clock,clock,3,1014_lp_s01_3_clock_10_n03196217_3086.png
subject-01,1,1015,0.85405707359314,bird,bird,0,1015_lp_s01_0_bird_10_n02011460_3892.png
subject-01,1,1016,0.869101047515869,oven,cat,15,1016_lp_s01_15_cat_10_n02123045_20570.png
subject-01,1,1017,0.715471029281616,car,car,0,1017_lp_s01_0_car_10_n04285008_3961.png
subject-01,1,1018,1.06202006340027,cat,boat,40,1018_lp_s01_40_boat_10_n02951358_1461.png
subject-01,1,1019,0.716216087341309,bird,bird,0,1019_lp_s01_0_bird_10_n01855672_15005.png
subject-01,1,1020,1.21734809875488,cat,chair,3,1020_lp_s01_3_chair_10_n03376595_12583.png
subject-01,1,1021,0.77717399597168,clock,chair,40,1021_lp_s01_40_chair_10_n03376595_1740.png
subject-01,1,1022,1.18608403205872,cat,dog,40,1022_lp_s01_40_dog_10_n02105162_2662.png
subject-01,1,1023,0.854450941085815,oven,oven,0,1023_lp_s01_0_oven_10_n04111531_1612.png
subject-01,1,1024,NaN,na,elephant,40,1024_lp_s01_40_elephant_10_n02504458_5169.png
subject-01,1,1025,NaN,na,oven,40,1025_lp_s01_40_oven_10_n04111531_20823.png
subject-01,1,1026,0.726014852523804,bear,bear,1,1026_lp_s01_1_bear_10_n02132136_4271.png
subject-01,1,1027,0.678348064422607,truck,truck,1,1027_lp_s01_1_truck_10_n03417042_820.png
subject-01,1,1028,1.11101102828979,dog,cat,3,1028_lp_s01_3_cat_10_n02123394_4789.png
subject-01,1,1029,0.778836965560913,bird,bird,3,1029_lp_s01_3_bird_10_n01582220_4078.png
subject-01,1,1030,1.23129796981812,airplane,airplane,5,1030_lp_s01_5_airplane_10_n02690373_9086.png
subject-01,1,1031,0.894451141357422,dog,knife,5,1031_lp_s01_5_knife_10_n03041632_20433.png
subject-01,1,1032,0.84135890007019,bear,bear,3,1032_lp_s01_3_bear_10_n02134084_21577.png
subject-01,1,1033,0.679522037506104,boat,boat,3,1033_lp_s01_3_boat_10_n03662601_17665.png
subject-01,1,1034,0.795562028884888,boat,airplane,40,1034_lp_s01_40_airplane_10_n02690373_5961.png
subject-01,1,1035,0.618213891983032,bottle,bottle,3,1035_lp_s01_3_bottle_10_n04591713_5019.png
subject-01,1,1036,0.994214057922363,keyboard,knife,40,1036_lp_s01_40_knife_10_n03041632_49363.png
subject-01,1,1037,0.526647090911865,boat,boat,0,1037_lp_s01_0_boat_10_n04273569_12318.png
subject-01,1,1038,0.787292003631592,bottle,dog,5,1038_lp_s01_5_dog_10_n02113023_8535.png
subject-01,1,1039,0.9099440574646,elephant,elephant,0,1039_lp_s01_0_elephant_10_n02504458_1933.png
subject-01,1,1040,0.626851081848145,bird,bird,3,1040_lp_s01_3_bird_10_n01855672_3491.png
subject-01,1,1041,0.827183961868286,car,car,15,1041_lp_s01_15_car_10_n02814533_58708.png
subject-01,1,1042,0.833667039871216,bear,bear,5,1042_lp_s01_5_bear_10_n02134084_20723.png
subject-01,1,1043,0.955632925033569,truck,truck,3,1043_lp_s01_3_truck_10_n03417042_20133.png
subject-01,1,1044,1.02673292160034,car,car,7,1044_lp_s01_7_car_10_n03100240_1216.png
subject-01,1,1045,0.918718814849854,oven,oven,1,1045_lp_s01_1_oven_10_n04111531_10640.png
subject-01,1,1046,0.833477020263672,keyboard,keyboard,40,1046_lp_s01_40_keyboard_10_n03085013_21507.png
subject-01,1,1047,0.687419891357422,oven,clock,7,1047_lp_s01_7_clock_10_n03196217_3006.png
subject-01,1,1048,0.988440990447998,dog,dog,3,1048_lp_s01_3_dog_10_n02112018_6635.png
subject-01,1,1049,0.964585065841675,airplane,airplane,15,1049_lp_s01_15_airplane_10_n02690373_7239.png
subject-01,1,1050,0.595118999481201,car,car,10,1050_lp_s01_10_car_10_n02814533_32924.png
subject-01,1,1051,0.673639059066772,chair,chair,3,1051_lp_s01_3_chair_10_n04429376_15078.png
subject-01,1,1052,0.933788061141968,elephant,bird,15,1052_lp_s01_15_bird_10_n01819313_5131.png
subject-01,1,1053,1.0262930393219,keyboard,knife,3,1053_lp_s01_3_knife_10_n03041632_19866.png
subject-01,1,1054,0.81894588470459,bottle,keyboard,40,1054_lp_s01_40_keyboard_10_n03085013_25809.png
subject-01,1,1055,0.719480991363525,bicycle,bicycle,7,1055_lp_s01_7_bicycle_10_n03792782_9692.png
subject-01,1,1056,0.6578049659729,knife,knife,5,1056_lp_s01_5_knife_10_n03041632_4879.png
subject-01,1,1057,0.742663145065308,airplane,airplane,7,1057_lp_s01_7_airplane_10_n02690373_7370.png
subject-01,1,1058,0.565483093261719,dog,dog,1,1058_lp_s01_1_dog_10_n02113023_5237.png
subject-01,1,1059,0.719340085983276,bicycle,bicycle,0,1059_lp_s01_0_bicycle_10_n03792782_9512.png
subject-01,1,1060,0.771945953369141,elephant,elephant,5,1060_lp_s01_5_elephant_10_n02504458_5797.png
subject-01,1,1061,0.942633152008057,bird,bottle,15,1061_lp_s01_15_bottle_10_n04591713_2952.png
subject-01,1,1062,0.695129871368408,chair,chair,1,1062_lp_s01_1_chair_10_n04429376_19354.png
subject-01,1,1063,0.827769041061401,oven,keyboard,10,1063_lp_s01_10_keyboard_10_n03085013_5542.png
subject-01,1,1064,0.550215005874634,boat,boat,0,1064_lp_s01_0_boat_10_n03344393_8599.png
subject-01,1,1065,0.634491920471191,bird,bird,1,1065_lp_s01_1_bird_10_n02002724_18548.png
subject-01,1,1066,1.11888980865479,cat,cat,3,1066_lp_s01_3_cat_10_n02125311_37322.png
subject-01,1,1067,0.995176076889038,keyboard,car,5,1067_lp_s01_5_car_10_n02814533_9634.png
subject-01,1,1068,1.01787805557251,car,knife,15,1068_lp_s01_15_knife_10_n03041632_289.png
subject-01,1,1069,0.956032037734985,boat,chair,5,1069_lp_s01_5_chair_10_n04429376_5789.png
subject-01,1,1070,0.834917068481445,keyboard,keyboard,10,1070_lp_s01_10_keyboard_10_n04505470_9570.png
subject-01,1,1071,0.697195053100586,keyboard,keyboard,7,1071_lp_s01_7_keyboard_10_n04505470_578.png
subject-01,1,1072,0.973912000656128,airplane,bird,40,1072_lp_s01_40_bird_10_n01614925_13283.png
subject-01,1,1073,0.712438106536865,bird,bird,5,1073_lp_s01_5_bird_10_n01819313_5504.png
subject-01,1,1074,0.618925094604492,chair,chair,1,1074_lp_s01_1_chair_10_n02791124_15383.png
subject-01,1,1075,0.834895133972168,boat,airplane,15,1075_lp_s01_15_airplane_10_n02690373_6336.png
subject-01,1,1076,0.644170999526978,chair,oven,3,1076_lp_s01_3_oven_10_n04111531_10216.png
subject-01,1,1077,1.31208109855652,clock,clock,40,1077_lp_s01_40_clock_10_n04548280_9801.png
subject-01,1,1078,1.20479083061218,cat,cat,10,1078_lp_s01_10_cat_10_n02123045_5747.png
subject-01,1,1079,0.858977079391479,keyboard,bird,5,1079_lp_s01_5_bird_10_n02025239_10733.png
subject-01,1,1080,1.10340189933777,airplane,truck,40,1080_lp_s01_40_truck_10_n03417042_20650.png
subject-01,1,1081,0.535374879837036,clock,clock,3,1081_lp_s01_3_clock_10_n04548280_4225.png
subject-01,1,1082,0.696362972259521,bear,knife,40,1082_lp_s01_40_knife_10_n03041632_23678.png
subject-01,1,1083,0.466736793518066,cat,cat,7,1083_lp_s01_7_cat_10_n02123597_14267.png
subject-01,1,1084,0.580965995788574,boat,boat,1,1084_lp_s01_1_boat_10_n03344393_5417.png
subject-01,1,1085,0.84370493888855,car,bicycle,3,1085_lp_s01_3_bicycle_10_n03792782_210.png
subject-01,1,1086,0.782641172409058,boat,boat,15,1086_lp_s01_15_boat_10_n04612504_26151.png
