subj,session,trial,rt,object_response,category,condition,imagename
subject-06,1,1,0.801274061203003,dog,dog,0,0001_lp_s06_0_dog_10_n02110627_31454.png
subject-06,1,2,1.10986685752869,cat,knife,3,0002_lp_s06_3_knife_10_n03041632_86554.png
subject-06,1,3,0.932234048843384,chair,oven,10,0003_lp_s06_10_oven_10_n04111531_1562.png
subject-06,1,4,1.42433214187622,dog,cat,40,0004_lp_s06_40_cat_10_n02123159_351.png
subject-06,1,5,0.578762054443359,oven,oven,5,0005_lp_s06_5_oven_10_n04111531_5991.png
subject-06,1,6,0.671296119689941,airplane,boat,15,0006_lp_s06_15_boat_10_n03662601_17403.png
subject-06,1,7,0.877571821212769,airplane,car,15,0007_lp_s06_15_car_10_n04285008_10825.png
subject-06,1,8,0.810058832168579,bird,bird,1,0008_lp_s06_1_bird_10_n01829413_6962.png
subject-06,1,9,0.46441912651062,boat,boat,0,0009_lp_s06_0_boat_10_n03344393_806.png
subject-06,1,10,0.61099910736084,chair,chair,0,0010_lp_s06_0_chair_10_n03376595_12326.png
subject-06,1,11,0.571214914321899,airplane,airplane,1,0011_lp_s06_1_airplane_10_n02690373_4429.png
subject-06,1,12,1.22383594512939,chair,bird,15,0012_lp_s06_15_bird_10_n01560419_3399.png
subject-06,1,13,0.70189094543457,bear,elephant,7,0013_lp_s06_7_elephant_10_n02504013_5021.png
subject-06,1,14,0.8941969871521,boat,boat,40,0014_lp_s06_40_boat_10_n03344393_6337.png
subject-06,1,15,0.586709976196289,chair,chair,0,0015_lp_s06_0_chair_10_n02791124_3871.png
subject-06,1,16,1.20072889328003,oven,bottle,3,0016_lp_s06_3_bottle_10_n04560804_15664.png
subject-06,1,17,0.739269971847534,cat,bird,40,0017_lp_s06_40_bird_10_n01558993_18630.png
subject-06,1,18,0.785501956939697,bird,bird,10,0018_lp_s06_10_bird_10_n02009229_2620.png
subject-06,1,19,0.661936044692993,cat,elephant,7,0019_lp_s06_7_elephant_10_n02504013_2432.png
subject-06,1,20,0.822345018386841,bear,dog,5,0020_lp_s06_5_dog_10_n02094114_7047.png
subject-06,1,21,0.746715068817139,keyboard,keyboard,1,0021_lp_s06_1_keyboard_10_n03085013_22714.png
subject-06,1,22,0.931195974349976,bear,bird,10,0022_lp_s06_10_bird_10_n01614925_4785.png
subject-06,1,23,0.745652914047241,bear,bear,1,0023_lp_s06_1_bear_10_n02134084_4716.png
subject-06,1,24,0.745972156524658,airplane,airplane,0,0024_lp_s06_0_airplane_10_n02690373_6836.png
subject-06,1,25,1.37616801261902,dog,bicycle,5,0025_lp_s06_5_bicycle_10_n03792782_7650.png
subject-06,1,26,0.606655836105347,airplane,airplane,5,0026_lp_s06_5_airplane_10_n02690373_17011.png
subject-06,1,27,0.966938972473145,dog,dog,10,0027_lp_s06_10_dog_10_n02110806_3175.png
subject-06,1,28,0.804872035980225,cat,bicycle,15,0028_lp_s06_15_bicycle_10_n02835271_8105.png
subject-06,1,29,0.64359188079834,bird,bird,5,0029_lp_s06_5_bird_10_n02033041_3344.png
subject-06,1,30,0.659734964370728,dog,dog,1,0030_lp_s06_1_dog_10_n02097298_5881.png
subject-06,1,31,0.720300912857056,bear,bear,5,0031_lp_s06_5_bear_10_n02133161_11637.png
subject-06,1,32,1.09886908531189,airplane,boat,5,0032_lp_s06_5_boat_10_n03344393_4380.png
subject-06,1,33,1.03749895095825,bird,dog,40,0033_lp_s06_40_dog_10_n02091032_1493.png
subject-06,1,34,0.744020938873291,bottle,bottle,7,0034_lp_s06_7_bottle_10_n03983396_1311.png
subject-06,1,35,0.798424005508423,keyboard,keyboard,10,0035_lp_s06_10_keyboard_10_n03085013_7520.png
subject-06,1,36,0.898636102676392,bottle,bottle,15,0036_lp_s06_15_bottle_10_n03983396_1758.png
subject-06,1,37,0.837145090103149,bird,oven,5,0037_lp_s06_5_oven_10_n04111531_2447.png
subject-06,1,38,0.889450073242188,bottle,bottle,15,0038_lp_s06_15_bottle_10_n04560804_315.png
subject-06,1,39,1.19104409217834,bird,bird,15,0039_lp_s06_15_bird_10_n01614925_20610.png
subject-06,1,40,0.707541942596436,dog,dog,3,0040_lp_s06_3_dog_10_n02099601_3916.png
subject-06,1,41,0.975084066390991,bicycle,bicycle,1,0041_lp_s06_1_bicycle_10_n03792782_5901.png
subject-06,1,42,0.783678770065308,bear,bear,3,0042_lp_s06_3_bear_10_n02134084_7334.png
subject-06,1,43,0.706483125686646,bottle,bear,40,0043_lp_s06_40_bear_10_n02134418_258.png
subject-06,1,44,0.660744905471802,cat,bear,7,0044_lp_s06_7_bear_10_n02133161_7157.png
subject-06,1,45,0.49913501739502,bear,bear,1,0045_lp_s06_1_bear_10_n02134084_21074.png
subject-06,1,46,0.737771987915039,truck,truck,0,0046_lp_s06_0_truck_10_n04467665_59160.png
subject-06,1,47,1.16035509109497,bird,bottle,40,0047_lp_s06_40_bottle_10_n02823428_6108.png
subject-06,1,48,0.57466197013855,cat,bicycle,40,0048_lp_s06_40_bicycle_10_n03792782_17110.png
subject-06,1,49,0.967260122299194,dog,bicycle,40,0049_lp_s06_40_bicycle_10_n03792782_6194.png
subject-06,1,50,0.705400943756104,bear,bear,5,0050_lp_s06_5_bear_10_n02132136_2248.png
subject-06,1,51,1.11196613311768,bottle,keyboard,40,0051_lp_s06_40_keyboard_10_n03085013_29576.png
subject-06,1,52,1.12827682495117,bear,oven,10,0052_lp_s06_10_oven_10_n04111531_1992.png
subject-06,1,53,0.728379011154175,cat,bicycle,15,0053_lp_s06_15_bicycle_10_n03792782_10490.png
subject-06,1,54,1.08082985877991,keyboard,keyboard,10,0054_lp_s06_10_keyboard_10_n03085013_20195.png
subject-06,1,55,0.865454912185669,airplane,airplane,15,0055_lp_s06_15_airplane_10_n02690373_2607.png
subject-06,1,56,0.874197959899902,dog,dog,3,0056_lp_s06_3_dog_10_n02099429_5750.png
subject-06,1,57,1.22633409500122,bottle,oven,1,0057_lp_s06_1_oven_10_n04111531_92.png
subject-06,1,58,0.49710488319397,chair,chair,5,0058_lp_s06_5_chair_10_n03376595_3793.png
subject-06,1,59,0.719686985015869,bear,car,5,0059_lp_s06_5_car_10_n03100240_1446.png
subject-06,1,60,0.849984169006348,bird,bird,40,0060_lp_s06_40_bird_10_n01855032_6175.png
subject-06,1,61,1.32627892494202,elephant,elephant,7,0061_lp_s06_7_elephant_10_n02504013_3719.png
subject-06,1,62,0.518494129180908,airplane,airplane,5,0062_lp_s06_5_airplane_10_n02690373_1663.png
subject-06,1,63,1.0710129737854,boat,elephant,40,0063_lp_s06_40_elephant_10_n02504458_1254.png
subject-06,1,64,0.84127402305603,boat,boat,3,0064_lp_s06_3_boat_10_n03344393_8101.png
subject-06,1,65,0.809732913970947,knife,knife,5,0065_lp_s06_5_knife_10_n03041632_21560.png
subject-06,1,66,0.848383903503418,oven,oven,5,0066_lp_s06_5_oven_10_n04111531_6704.png
subject-06,1,67,1.09468603134155,bear,bear,7,0067_lp_s06_7_bear_10_n02133161_4347.png
subject-06,1,68,1.40875387191772,knife,truck,7,0068_lp_s06_7_truck_10_n03417042_7547.png
subject-06,1,69,0.501106023788452,clock,clock,0,0069_lp_s06_0_clock_10_n03196217_6357.png
subject-06,1,70,0.877592802047729,bottle,bottle,7,0070_lp_s06_7_bottle_10_n04579145_5963.png
subject-06,1,71,0.708187818527222,bird,bird,5,0071_lp_s06_5_bird_10_n01855672_10619.png
subject-06,1,72,0.630164861679077,bear,bear,7,0072_lp_s06_7_bear_10_n02133161_1733.png
subject-06,1,73,1.01462197303772,bird,knife,10,0073_lp_s06_10_knife_10_n03041632_55953.png
subject-06,1,74,0.845330953598022,oven,car,5,0074_lp_s06_5_car_10_n02814533_47960.png
subject-06,1,75,0.799420118331909,bear,boat,10,0075_lp_s06_10_boat_10_n03662601_4967.png
subject-06,1,76,0.813935995101929,oven,oven,1,0076_lp_s06_1_oven_10_n04111531_8681.png
subject-06,1,77,0.790083885192871,bird,boat,7,0077_lp_s06_7_boat_10_n03344393_7846.png
subject-06,1,78,0.544429063796997,clock,clock,3,0078_lp_s06_3_clock_10_n04548280_5889.png
subject-06,1,79,0.966848850250244,oven,bicycle,10,0079_lp_s06_10_bicycle_10_n03792782_53111.png
subject-06,1,80,0.637763023376465,car,car,1,0080_lp_s06_1_car_10_n04285008_11714.png
subject-06,1,81,0.944192886352539,bottle,elephant,40,0081_lp_s06_40_elephant_10_n02504458_12586.png
subject-06,1,82,0.682415008544922,car,car,3,0082_lp_s06_3_car_10_n04285008_11559.png
subject-06,1,83,0.636512994766235,bird,cat,15,0083_lp_s06_15_cat_10_n02123045_8819.png
subject-06,1,84,0.988760948181152,keyboard,keyboard,10,0084_lp_s06_10_keyboard_10_n04505470_3905.png
subject-06,1,85,1.01127815246582,truck,truck,7,0085_lp_s06_7_truck_10_n03796401_6315.png
subject-06,1,86,0.697688817977905,bicycle,bicycle,3,0086_lp_s06_3_bicycle_10_n03792782_3834.png
subject-06,1,87,0.990592002868652,oven,bird,15,0087_lp_s06_15_bird_10_n01843065_6279.png
subject-06,1,88,0.958949089050293,bird,bicycle,10,0088_lp_s06_10_bicycle_10_n02835271_8902.png
subject-06,1,89,0.583357810974121,car,car,7,0089_lp_s06_7_car_10_n03100240_9875.png
subject-06,1,90,0.60591197013855,airplane,airplane,3,0090_lp_s06_3_airplane_10_n02690373_5961.png
subject-06,1,91,0.774480104446411,cat,bear,40,0091_lp_s06_40_bear_10_n02132136_3143.png
subject-06,1,92,0.898970127105713,airplane,airplane,1,0092_lp_s06_1_airplane_10_n02690373_3139.png
subject-06,1,93,0.613075017929077,chair,oven,7,0093_lp_s06_7_oven_10_n04111531_3955.png
subject-06,1,94,1.12163305282593,bottle,cat,10,0094_lp_s06_10_cat_10_n02123045_377.png
subject-06,1,95,1.12010598182678,elephant,elephant,10,0095_lp_s06_10_elephant_10_n02504458_477.png
subject-06,1,96,0.890684843063354,elephant,elephant,7,0096_lp_s06_7_elephant_10_n02504458_7051.png
subject-06,1,97,0.883275032043457,bear,bear,0,0097_lp_s06_0_bear_10_n02133161_13908.png
subject-06,1,98,0.591593980789185,airplane,airplane,5,0098_lp_s06_5_airplane_10_n02690373_5967.png
subject-06,1,99,0.643905162811279,chair,chair,1,0099_lp_s06_1_chair_10_n02791124_6061.png
subject-06,1,100,1.39806199073792,airplane,knife,3,0100_lp_s06_3_knife_10_n03041632_2338.png
subject-06,1,101,0.490267992019653,clock,clock,5,0101_lp_s06_5_clock_10_n02708093_1684.png
subject-06,1,102,0.512494087219238,keyboard,keyboard,1,0102_lp_s06_1_keyboard_10_n03085013_23546.png
subject-06,1,103,0.651249885559082,elephant,elephant,0,0103_lp_s06_0_elephant_10_n02504458_2852.png
subject-06,1,104,0.843648910522461,chair,car,40,0104_lp_s06_40_car_10_n02814533_22677.png
subject-06,1,105,0.711605072021484,chair,bottle,5,0105_lp_s06_5_bottle_10_n04560804_14463.png
subject-06,1,106,0.641694068908691,boat,boat,1,0106_lp_s06_1_boat_10_n02951358_12969.png
subject-06,1,107,0.58139181137085,bird,bird,0,0107_lp_s06_0_bird_10_n01855032_8532.png
subject-06,1,108,0.827533006668091,bottle,airplane,40,0108_lp_s06_40_airplane_10_n02690373_734.png
subject-06,1,109,0.779687166213989,cat,cat,5,0109_lp_s06_5_cat_10_n02124075_2129.png
subject-06,1,110,0.549746036529541,cat,cat,1,0110_lp_s06_1_cat_10_n02124075_14132.png
subject-06,1,111,0.988492012023926,dog,oven,5,0111_lp_s06_5_oven_10_n04111531_7266.png
subject-06,1,112,0.618518114089966,cat,cat,10,0112_lp_s06_10_cat_10_n02123597_9648.png
subject-06,1,113,0.763145208358765,chair,chair,10,0113_lp_s06_10_chair_10_n03376595_10106.png
subject-06,1,114,0.749413013458252,elephant,elephant,10,0114_lp_s06_10_elephant_10_n02504458_3052.png
subject-06,1,115,0.901901960372925,chair,truck,15,0115_lp_s06_15_truck_10_n03796401_2539.png
subject-06,1,116,0.732277154922485,bottle,boat,15,0116_lp_s06_15_boat_10_n04612504_9825.png
subject-06,1,117,0.894917011260986,chair,knife,3,0117_lp_s06_3_knife_10_n03041632_3516.png
subject-06,1,118,0.725188970565796,knife,knife,1,0118_lp_s06_1_knife_10_n03041632_13645.png
subject-06,1,119,0.639334917068481,bicycle,bicycle,3,0119_lp_s06_3_bicycle_10_n02835271_2505.png
subject-06,1,120,0.845678091049194,airplane,airplane,10,0120_lp_s06_10_airplane_10_n02690373_1442.png
subject-06,1,121,0.875982999801636,bottle,oven,40,0121_lp_s06_40_oven_10_n04111531_4826.png
subject-06,1,122,1.05420899391174,oven,truck,10,0122_lp_s06_10_truck_10_n04467665_4647.png
subject-06,1,123,1.09107303619385,bear,chair,5,0123_lp_s06_5_chair_10_n03376595_270.png
subject-06,1,124,0.953504085540771,chair,bicycle,3,0124_lp_s06_3_bicycle_10_n02835271_11922.png
subject-06,1,125,0.807662963867188,bottle,cat,40,0125_lp_s06_40_cat_10_n02123597_4879.png
subject-06,1,126,0.675711870193481,oven,oven,0,0126_lp_s06_0_oven_10_n04111531_13906.png
subject-06,1,127,0.919283866882324,elephant,elephant,15,0127_lp_s06_15_elephant_10_n02504013_593.png
subject-06,1,128,0.835793018341064,chair,chair,1,0128_lp_s06_1_chair_10_n04099969_8993.png
subject-06,1,129,0.628073930740356,bottle,bottle,3,0129_lp_s06_3_bottle_10_n04560804_13832.png
subject-06,1,130,0.880876064300537,bird,knife,40,0130_lp_s06_40_knife_10_n03041632_1671.png
subject-06,1,131,0.611016988754272,bottle,bottle,3,0131_lp_s06_3_bottle_10_n03983396_877.png
subject-06,1,132,0.549046993255615,airplane,airplane,1,0132_lp_s06_1_airplane_10_n02690373_3641.png
subject-06,1,133,0.603314876556396,chair,dog,5,0133_lp_s06_5_dog_10_n02105162_2227.png
subject-06,1,134,0.771838188171387,bear,bear,0,0134_lp_s06_0_bear_10_n02132136_6434.png
subject-06,1,135,0.770155906677246,bird,clock,40,0135_lp_s06_40_clock_10_n02708093_274.png
subject-06,1,136,0.854247093200684,bear,elephant,15,0136_lp_s06_15_elephant_10_n02504013_8883.png
subject-06,1,137,0.692420959472656,bottle,oven,15,0137_lp_s06_15_oven_10_n04111531_6412.png
subject-06,1,138,0.806761026382446,airplane,bicycle,15,0138_lp_s06_15_bicycle_10_n03792782_18343.png
subject-06,1,139,0.775151014328003,bottle,elephant,40,0139_lp_s06_40_elephant_10_n02504458_4336.png
subject-06,1,140,0.505403995513916,clock,clock,0,0140_lp_s06_0_clock_10_n03196217_2447.png
subject-06,1,141,0.681246995925903,bottle,bottle,15,0141_lp_s06_15_bottle_10_n04560804_9332.png
subject-06,1,142,0.78780198097229,bird,dog,15,0142_lp_s06_15_dog_10_n02112350_8599.png
subject-06,1,143,0.688063859939575,bottle,chair,7,0143_lp_s06_7_chair_10_n04099969_3485.png
subject-06,1,144,1.09452700614929,truck,truck,1,0144_lp_s06_1_truck_10_n03796401_1764.png
subject-06,1,145,0.732955932617188,truck,truck,0,0145_lp_s06_0_truck_10_n04467665_3094.png
subject-06,1,146,1.46343302726746,truck,oven,7,0146_lp_s06_7_oven_10_n04111531_73.png
subject-06,1,147,1.20638203620911,car,boat,7,0147_lp_s06_7_boat_10_n02951358_14831.png
subject-06,1,148,1.21259784698486,car,oven,10,0148_lp_s06_10_oven_10_n04111531_9915.png
subject-06,1,149,1.05858087539673,bird,keyboard,40,0149_lp_s06_40_keyboard_10_n04505470_1568.png
subject-06,1,150,1.50031113624573,keyboard,keyboard,7,0150_lp_s06_7_keyboard_10_n04505470_4732.png
subject-06,1,151,1.14354515075684,elephant,elephant,10,0151_lp_s06_10_elephant_10_n02504013_218.png
subject-06,1,152,0.597944974899292,cat,cat,0,0152_lp_s06_0_cat_10_n02123045_10156.png
subject-06,1,153,0.717755794525146,bird,dog,5,0153_lp_s06_5_dog_10_n02092339_320.png
subject-06,1,154,1.11048293113708,oven,oven,3,0154_lp_s06_3_oven_10_n04111531_3099.png
subject-06,1,155,0.579099178314209,bird,bird,1,0155_lp_s06_1_bird_10_n02037110_11880.png
subject-06,1,156,0.471417188644409,car,car,3,0156_lp_s06_3_car_10_n02814533_43509.png
subject-06,1,157,0.601383924484253,airplane,airplane,10,0157_lp_s06_10_airplane_10_n02690373_9828.png
subject-06,1,158,NaN,na,airplane,7,0158_lp_s06_7_airplane_10_n02690373_6798.png
subject-06,1,159,0.832203149795532,cat,bear,15,0159_lp_s06_15_bear_10_n02134084_21179.png
subject-06,1,160,NaN,na,boat,1,0160_lp_s06_1_boat_10_n02951358_26300.png
subject-06,1,161,1.00500416755676,car,clock,10,0161_lp_s06_10_clock_10_n02708093_404.png
subject-06,1,162,0.919648885726929,car,car,0,0162_lp_s06_0_car_10_n03100240_9598.png
subject-06,1,163,0.704006910324097,cat,oven,40,0163_lp_s06_40_oven_10_n04111531_2826.png
subject-06,1,164,NaN,na,knife,10,0164_lp_s06_10_knife_10_n03041632_34769.png
subject-06,1,165,0.79495096206665,airplane,airplane,3,0165_lp_s06_3_airplane_10_n02690373_2758.png
subject-06,1,166,0.771170139312744,bottle,bicycle,15,0166_lp_s06_15_bicycle_10_n02835271_3027.png
subject-06,1,167,0.647372007369995,keyboard,keyboard,0,0167_lp_s06_0_keyboard_10_n04505470_1453.png
subject-06,1,168,0.556035041809082,bear,bear,3,0168_lp_s06_3_bear_10_n02134418_3435.png
subject-06,1,169,0.870172023773193,bottle,chair,3,0169_lp_s06_3_chair_10_n04429376_14171.png
subject-06,1,170,0.914299011230469,airplane,airplane,15,0170_lp_s06_15_airplane_10_n02690373_4873.png
subject-06,1,171,0.576485872268677,airplane,airplane,3,0171_lp_s06_3_airplane_10_n02690373_8350.png
subject-06,1,172,0.628786087036133,car,car,3,0172_lp_s06_3_car_10_n03100240_8599.png
subject-06,1,173,0.981514930725098,airplane,truck,3,0173_lp_s06_3_truck_10_n03796401_22395.png
subject-06,1,174,0.711893081665039,elephant,elephant,1,0174_lp_s06_1_elephant_10_n02504458_4329.png
subject-06,1,175,0.812270879745483,chair,chair,0,0175_lp_s06_0_chair_10_n02791124_886.png
subject-06,1,176,0.840588092803955,bottle,bird,40,0176_lp_s06_40_bird_10_n01601694_11624.png
subject-06,1,177,0.664961099624634,bear,bear,3,0177_lp_s06_3_bear_10_n02134418_3224.png
subject-06,1,178,1.24761009216309,bird,bird,0,0178_lp_s06_0_bird_10_n02006656_11522.png
subject-06,1,179,0.682451963424683,clock,clock,7,0179_lp_s06_7_clock_10_n04548280_1112.png
subject-06,1,180,0.982539892196655,knife,knife,7,0180_lp_s06_7_knife_10_n03041632_32774.png
subject-06,1,181,0.504224061965942,boat,boat,3,0181_lp_s06_3_boat_10_n03344393_1822.png
subject-06,1,182,0.788712978363037,cat,oven,40,0182_lp_s06_40_oven_10_n04111531_17922.png
subject-06,1,183,0.649360179901123,keyboard,keyboard,5,0183_lp_s06_5_keyboard_10_n03085013_18623.png
subject-06,1,184,0.593926906585693,boat,boat,5,0184_lp_s06_5_boat_10_n04273569_4830.png
subject-06,1,185,0.932320117950439,keyboard,keyboard,3,0185_lp_s06_3_keyboard_10_n03085013_743.png
subject-06,1,186,0.708789110183716,airplane,airplane,15,0186_lp_s06_15_airplane_10_n02690373_5729.png
subject-06,1,187,0.792857885360718,airplane,bottle,10,0187_lp_s06_10_bottle_10_n04591713_8914.png
subject-06,1,188,0.947535037994385,knife,knife,1,0188_lp_s06_1_knife_10_n03041632_2386.png
subject-06,1,189,0.684094190597534,elephant,elephant,1,0189_lp_s06_1_elephant_10_n02504458_6163.png
subject-06,1,190,0.762380838394165,chair,chair,7,0190_lp_s06_7_chair_10_n03376595_1051.png
subject-06,1,191,0.798973798751831,oven,oven,0,0191_lp_s06_0_oven_10_n04111531_4549.png
subject-06,1,192,0.512975931167603,keyboard,keyboard,7,0192_lp_s06_7_keyboard_10_n03085013_20267.png
subject-06,1,193,0.759720087051392,bottle,clock,40,0193_lp_s06_40_clock_10_n02708093_4286.png
subject-06,1,194,0.760345935821533,truck,truck,5,0194_lp_s06_5_truck_10_n03796401_1777.png
subject-06,1,195,1.13409209251404,oven,knife,0,0195_lp_s06_0_knife_10_n03041632_54603.png
subject-06,1,196,0.642336845397949,clock,clock,1,0196_lp_s06_1_clock_10_n02708093_7929.png
subject-06,1,197,0.648683071136475,bicycle,bicycle,5,0197_lp_s06_5_bicycle_10_n02835271_3810.png
subject-06,1,198,0.747241973876953,car,car,0,0198_lp_s06_0_car_10_n04285008_6271.png
subject-06,1,199,0.931182861328125,bear,truck,7,0199_lp_s06_7_truck_10_n03796401_29408.png
subject-06,1,200,0.645977973937988,cat,truck,40,0200_lp_s06_40_truck_10_n03417042_6734.png
subject-06,1,201,1.06236481666565,bicycle,oven,5,0201_lp_s06_5_oven_10_n04111531_22886.png
subject-06,1,202,0.759803056716919,truck,truck,3,0202_lp_s06_3_truck_10_n04467665_87287.png
subject-06,1,203,0.682133913040161,keyboard,keyboard,10,0203_lp_s06_10_keyboard_10_n04505470_8469.png
subject-06,1,204,0.65881609916687,cat,bottle,40,0204_lp_s06_40_bottle_10_n04579145_3686.png
subject-06,1,205,0.950639963150024,bird,bottle,40,0205_lp_s06_40_bottle_10_n04557648_10424.png
subject-06,1,206,0.795315027236938,elephant,elephant,5,0206_lp_s06_5_elephant_10_n02504458_4647.png
subject-06,1,207,0.879748821258545,car,car,10,0207_lp_s06_10_car_10_n03100240_12456.png
subject-06,1,208,0.826533079147339,bear,bear,5,0208_lp_s06_5_bear_10_n02133161_1250.png
subject-06,1,209,0.578871965408325,boat,boat,0,0209_lp_s06_0_boat_10_n03344393_14313.png
subject-06,1,210,0.625209093093872,oven,oven,3,0210_lp_s06_3_oven_10_n04111531_4407.png
subject-06,1,211,0.793308973312378,elephant,elephant,0,0211_lp_s06_0_elephant_10_n02504458_12074.png
subject-06,1,212,0.691940069198608,chair,clock,10,0212_lp_s06_10_clock_10_n02708093_228.png
subject-06,1,213,0.93056321144104,chair,truck,15,0213_lp_s06_15_truck_10_n04467665_45796.png
subject-06,1,214,0.554863929748535,bicycle,bicycle,0,0214_lp_s06_0_bicycle_10_n03792782_8087.png
subject-06,1,215,0.82935094833374,oven,cat,15,0215_lp_s06_15_cat_10_n02123159_619.png
subject-06,1,216,0.963211059570312,elephant,elephant,7,0216_lp_s06_7_elephant_10_n02504458_8288.png
subject-06,1,217,0.40959906578064,boat,boat,3,0217_lp_s06_3_boat_10_n04612504_1803.png
subject-06,1,218,0.875997066497803,bear,truck,5,0218_lp_s06_5_truck_10_n04467665_17183.png
subject-06,1,219,0.583508014678955,airplane,airplane,5,0219_lp_s06_5_airplane_10_n02690373_3775.png
subject-06,1,220,0.522057056427002,airplane,airplane,5,0220_lp_s06_5_airplane_10_n02690373_5415.png
subject-06,1,221,0.557432174682617,keyboard,keyboard,1,0221_lp_s06_1_keyboard_10_n03085013_1812.png
subject-06,1,222,1.19813299179077,bear,chair,5,0222_lp_s06_5_chair_10_n03376595_2694.png
subject-06,1,223,1.04441404342651,elephant,bear,15,0223_lp_s06_15_bear_10_n02134084_189.png
subject-06,1,224,0.928792953491211,keyboard,keyboard,15,0224_lp_s06_15_keyboard_10_n03085013_26573.png
subject-06,1,225,1.2589910030365,cat,bear,15,0225_lp_s06_15_bear_10_n02132136_5453.png
subject-06,1,226,0.764710187911987,car,truck,0,0226_lp_s06_0_truck_10_n04467665_4422.png
subject-06,1,227,0.887463808059692,cat,cat,40,0227_lp_s06_40_cat_10_n02123045_15434.png
subject-06,1,228,0.900691032409668,bicycle,elephant,10,0228_lp_s06_10_elephant_10_n02504013_2686.png
subject-06,1,229,0.538938045501709,bicycle,bicycle,3,0229_lp_s06_3_bicycle_10_n03792782_31608.png
subject-06,1,230,0.791645050048828,oven,dog,7,0230_lp_s06_7_dog_10_n02099849_1285.png
subject-06,1,231,0.953954219818115,cat,bear,40,0231_lp_s06_40_bear_10_n02134418_4895.png
subject-06,1,232,1.19817495346069,cat,bicycle,40,0232_lp_s06_40_bicycle_10_n02835271_672.png
subject-06,1,233,0.523000955581665,clock,clock,0,0233_lp_s06_0_clock_10_n02708093_2740.png
subject-06,1,234,0.829568147659302,dog,dog,1,0234_lp_s06_1_dog_10_n02091635_12288.png
subject-06,1,235,0.813819885253906,elephant,elephant,0,0235_lp_s06_0_elephant_10_n02504458_4838.png
subject-06,1,236,0.598376035690308,elephant,elephant,0,0236_lp_s06_0_elephant_10_n02504458_8823.png
subject-06,1,237,0.742635011672974,elephant,bear,15,0237_lp_s06_15_bear_10_n02133161_2029.png
subject-06,1,238,0.418308019638062,clock,clock,1,0238_lp_s06_1_clock_10_n04548280_5237.png
subject-06,1,239,0.924723863601685,car,car,10,0239_lp_s06_10_car_10_n04285008_11990.png
subject-06,1,240,0.722399950027466,cat,cat,1,0240_lp_s06_1_cat_10_n02125311_9005.png
subject-06,1,241,0.768378973007202,bottle,boat,40,0241_lp_s06_40_boat_10_n03344393_9459.png
subject-06,1,242,0.69074010848999,bear,boat,10,0242_lp_s06_10_boat_10_n03662601_35294.png
subject-06,1,243,1.05907392501831,keyboard,keyboard,15,0243_lp_s06_15_keyboard_10_n03085013_23018.png
subject-06,1,244,0.643523931503296,chair,chair,5,0244_lp_s06_5_chair_10_n04099969_18953.png
subject-06,1,245,0.67143988609314,chair,chair,0,0245_lp_s06_0_chair_10_n04429376_19459.png
subject-06,1,246,1.13968801498413,oven,cat,10,0246_lp_s06_10_cat_10_n02123045_13192.png
subject-06,1,247,0.993756055831909,keyboard,bicycle,15,0247_lp_s06_15_bicycle_10_n03792782_5030.png
subject-06,1,248,0.800010919570923,keyboard,car,15,0248_lp_s06_15_car_10_n04285008_1754.png
subject-06,1,249,0.722732067108154,keyboard,oven,5,0249_lp_s06_5_oven_10_n04111531_14876.png
subject-06,1,250,0.853366136550903,keyboard,car,10,0250_lp_s06_10_car_10_n04285008_476.png
subject-06,1,251,0.691293001174927,car,car,3,0251_lp_s06_3_car_10_n02814533_10062.png
subject-06,1,252,0.675709009170532,cat,boat,40,0252_lp_s06_40_boat_10_n03344393_6454.png
subject-06,1,253,0.89790415763855,oven,oven,7,0253_lp_s06_7_oven_10_n04111531_1830.png
subject-06,1,254,0.858502864837646,cat,bottle,40,0254_lp_s06_40_bottle_10_n03937543_11658.png
subject-06,1,255,0.867071866989136,cat,clock,15,0255_lp_s06_15_clock_10_n04548280_5273.png
subject-06,1,256,0.657408952713013,oven,oven,3,0256_lp_s06_3_oven_10_n04111531_21011.png
subject-06,1,257,0.611311912536621,boat,boat,3,0257_lp_s06_3_boat_10_n03662601_14094.png
subject-06,1,258,0.779752969741821,elephant,elephant,3,0258_lp_s06_3_elephant_10_n02504013_20780.png
subject-06,1,259,0.940250873565674,chair,chair,7,0259_lp_s06_7_chair_10_n03376595_9079.png
subject-06,1,260,0.876219987869263,elephant,dog,15,0260_lp_s06_15_dog_10_n02104365_9082.png
subject-06,1,261,0.668881177902222,keyboard,keyboard,5,0261_lp_s06_5_keyboard_10_n03085013_21277.png
subject-06,1,262,0.637218952178955,oven,bottle,7,0262_lp_s06_7_bottle_10_n03983396_1473.png
subject-06,1,263,0.875366926193237,oven,bicycle,15,0263_lp_s06_15_bicycle_10_n02835271_5001.png
subject-06,1,264,0.781765937805176,elephant,elephant,0,0264_lp_s06_0_elephant_10_n02504013_16802.png
subject-06,1,265,0.582014083862305,keyboard,keyboard,7,0265_lp_s06_7_keyboard_10_n03085013_5884.png
subject-06,1,266,0.620605945587158,airplane,bear,5,0266_lp_s06_5_bear_10_n02134084_781.png
subject-06,1,267,0.811118841171265,boat,dog,40,0267_lp_s06_40_dog_10_n02099267_19564.png
subject-06,1,268,0.58169412612915,cat,knife,40,0268_lp_s06_40_knife_10_n03041632_17859.png
subject-06,1,269,0.633810997009277,bear,oven,15,0269_lp_s06_15_oven_10_n04111531_12788.png
subject-06,1,270,1.09412002563477,boat,oven,15,0270_lp_s06_15_oven_10_n04111531_9548.png
subject-06,1,271,1.09458518028259,clock,bottle,10,0271_lp_s06_10_bottle_10_n04560804_2936.png
subject-06,1,272,0.716504096984863,bicycle,bicycle,0,0272_lp_s06_0_bicycle_10_n03792782_90.png
subject-06,1,273,0.90720796585083,cat,chair,40,0273_lp_s06_40_chair_10_n02791124_1456.png
subject-06,1,274,0.769795179367065,bird,bird,5,0274_lp_s06_5_bird_10_n01592084_5342.png
subject-06,1,275,1.11396098136902,cat,dog,40,0275_lp_s06_40_dog_10_n02097298_7860.png
subject-06,1,276,0.581981897354126,car,car,3,0276_lp_s06_3_car_10_n02814533_3121.png
subject-06,1,277,0.490434169769287,keyboard,keyboard,3,0277_lp_s06_3_keyboard_10_n04505470_9996.png
subject-06,1,278,1.30305004119873,bird,bird,1,0278_lp_s06_1_bird_10_n01820546_111.png
subject-06,1,279,0.787106037139893,airplane,airplane,10,0279_lp_s06_10_airplane_10_n02690373_7614.png
subject-06,1,280,0.733449935913086,boat,bicycle,40,0280_lp_s06_40_bicycle_10_n03792782_5333.png
subject-06,1,281,0.764136075973511,cat,dog,40,0281_lp_s06_40_dog_10_n02086240_11038.png
subject-06,1,282,1.02454996109009,clock,clock,5,0282_lp_s06_5_clock_10_n03196217_3780.png
subject-06,1,283,0.717422008514404,bottle,bottle,0,0283_lp_s06_0_bottle_10_n03983396_11059.png
subject-06,1,284,0.601398944854736,bear,bear,0,0284_lp_s06_0_bear_10_n02133161_1715.png
subject-06,1,285,0.753983974456787,boat,bicycle,40,0285_lp_s06_40_bicycle_10_n03792782_12257.png
subject-06,1,286,0.768397092819214,bear,truck,10,0286_lp_s06_10_truck_10_n03796401_7432.png
subject-06,1,287,1.16646885871887,cat,keyboard,15,0287_lp_s06_15_keyboard_10_n04505470_4706.png
subject-06,1,288,1.21042895317078,bear,cat,15,0288_lp_s06_15_cat_10_n02124075_14738.png
subject-06,1,289,0.802600145339966,car,car,1,0289_lp_s06_1_car_10_n04285008_3961.png
subject-06,1,290,0.984608888626099,clock,clock,3,0290_lp_s06_3_clock_10_n04548280_7781.png
subject-06,1,291,0.777360916137695,airplane,airplane,0,0291_lp_s06_0_airplane_10_n02690373_1611.png
subject-06,1,292,0.593863010406494,bear,bear,15,0292_lp_s06_15_bear_10_n02134084_1028.png
subject-06,1,293,0.729848146438599,bear,knife,7,0293_lp_s06_7_knife_10_n03041632_1607.png
subject-06,1,294,0.614221096038818,cat,cat,5,0294_lp_s06_5_cat_10_n02123394_50.png
subject-06,1,295,0.804409980773926,oven,clock,5,0295_lp_s06_5_clock_10_n03196217_2291.png
subject-06,1,296,0.902948141098022,bear,elephant,15,0296_lp_s06_15_elephant_10_n02504013_9433.png
subject-06,1,297,0.957682132720947,bird,oven,15,0297_lp_s06_15_oven_10_n04111531_12103.png
subject-06,1,298,0.733129978179932,cat,bear,40,0298_lp_s06_40_bear_10_n02133161_313.png
subject-06,1,299,1.49906897544861,knife,knife,0,0299_lp_s06_0_knife_10_n03041632_29125.png
subject-06,1,300,0.707091808319092,bear,bear,5,0300_lp_s06_5_bear_10_n02133161_13718.png
subject-06,1,301,1.50005006790161,cat,cat,15,0301_lp_s06_15_cat_10_n02123045_1826.png
subject-06,1,302,0.66582202911377,bear,bear,15,0302_lp_s06_15_bear_10_n02132136_6763.png
subject-06,1,303,1.05045413970947,cat,bird,7,0303_lp_s06_7_bird_10_n01537544_7842.png
subject-06,1,304,0.732750177383423,bear,bird,15,0304_lp_s06_15_bird_10_n02025239_3303.png
subject-06,1,305,0.595133066177368,airplane,airplane,5,0305_lp_s06_5_airplane_10_n02690373_3956.png
subject-06,1,306,1.29110598564148,truck,truck,5,0306_lp_s06_5_truck_10_n04467665_37261.png
subject-06,1,307,0.529432058334351,bicycle,bicycle,0,0307_lp_s06_0_bicycle_10_n02835271_3250.png
subject-06,1,308,0.905646085739136,airplane,airplane,15,0308_lp_s06_15_airplane_10_n02690373_9531.png
subject-06,1,309,0.56560492515564,oven,dog,3,0309_lp_s06_3_dog_10_n02105641_9035.png
subject-06,1,310,0.672000885009766,keyboard,keyboard,5,0310_lp_s06_5_keyboard_10_n03085013_31250.png
subject-06,1,311,0.724411010742188,bear,bicycle,10,0311_lp_s06_10_bicycle_10_n02835271_9362.png
subject-06,1,312,1.02070212364197,bird,truck,15,0312_lp_s06_15_truck_10_n04467665_12962.png
subject-06,1,313,0.794879913330078,dog,dog,1,0313_lp_s06_1_dog_10_n02091134_16794.png
subject-06,1,314,0.809154987335205,keyboard,keyboard,1,0314_lp_s06_1_keyboard_10_n04505470_7388.png
subject-06,1,315,0.585402965545654,bicycle,bicycle,7,0315_lp_s06_7_bicycle_10_n03792782_51156.png
subject-06,1,316,0.683424949645996,cat,truck,40,0316_lp_s06_40_truck_10_n03417042_1031.png
subject-06,1,317,0.659512042999268,bird,bird,5,0317_lp_s06_5_bird_10_n02017213_1508.png
subject-06,1,318,0.736045837402344,elephant,elephant,7,0318_lp_s06_7_elephant_10_n02504013_1492.png
subject-06,1,319,0.942657947540283,cat,chair,40,0319_lp_s06_40_chair_10_n04429376_29357.png
subject-06,1,320,0.849117994308472,dog,knife,10,0320_lp_s06_10_knife_10_n03041632_39739.png
subject-06,1,321,0.802790880203247,bear,cat,7,0321_lp_s06_7_cat_10_n02123159_4879.png
subject-06,1,322,0.663100957870483,cat,cat,0,0322_lp_s06_0_cat_10_n02123045_12766.png
subject-06,1,323,0.809900999069214,bottle,cat,15,0323_lp_s06_15_cat_10_n02125311_2522.png
subject-06,1,324,0.921994924545288,chair,dog,5,0324_lp_s06_5_dog_10_n02097047_975.png
subject-06,1,325,0.581963062286377,cat,airplane,40,0325_lp_s06_40_airplane_10_n02690373_5632.png
subject-06,1,326,0.774403095245361,car,car,5,0326_lp_s06_5_car_10_n04285008_7776.png
subject-06,1,327,1.01097893714905,car,bicycle,15,0327_lp_s06_15_bicycle_10_n02835271_1580.png
subject-06,1,328,0.61934494972229,dog,dog,1,0328_lp_s06_1_dog_10_n02096051_9135.png
subject-06,1,329,0.655282020568848,car,knife,10,0329_lp_s06_10_knife_10_n03041632_1556.png
subject-06,1,330,1.23150396347046,oven,keyboard,10,0330_lp_s06_10_keyboard_10_n04505470_709.png
subject-06,1,331,1.05405402183533,chair,chair,3,0331_lp_s06_3_chair_10_n04099969_6944.png
subject-06,1,332,0.644047975540161,oven,oven,5,0332_lp_s06_5_oven_10_n04111531_10974.png
subject-06,1,333,0.92815089225769,airplane,elephant,10,0333_lp_s06_10_elephant_10_n02504458_6079.png
subject-06,1,334,0.750399112701416,oven,car,10,0334_lp_s06_10_car_10_n04285008_7208.png
subject-06,1,335,0.832590818405151,bird,bird,1,0335_lp_s06_1_bird_10_n02051845_43962.png
subject-06,1,336,0.593019962310791,bear,bear,7,0336_lp_s06_7_bear_10_n02134418_1570.png
subject-06,1,337,0.577101945877075,boat,boat,10,0337_lp_s06_10_boat_10_n03344393_3048.png
subject-06,1,338,0.550920009613037,bird,bird,15,0338_lp_s06_15_bird_10_n02033041_14299.png
subject-06,1,339,0.713527202606201,airplane,airplane,7,0339_lp_s06_7_airplane_10_n02690373_3400.png
subject-06,1,340,1.13399791717529,cat,dog,7,0340_lp_s06_7_dog_10_n02105641_10150.png
subject-06,1,341,0.600100994110107,airplane,airplane,0,0341_lp_s06_0_airplane_10_n02690373_10769.png
subject-06,1,342,0.974742889404297,oven,elephant,15,0342_lp_s06_15_elephant_10_n02504013_4386.png
subject-06,1,343,0.880651950836182,dog,dog,1,0343_lp_s06_1_dog_10_n02112350_10223.png
subject-06,1,344,1.01121807098389,chair,chair,1,0344_lp_s06_1_chair_10_n04429376_13106.png
subject-06,1,345,0.66369104385376,bottle,bottle,0,0345_lp_s06_0_bottle_10_n04591713_13696.png
subject-06,1,346,0.785473108291626,cat,cat,40,0346_lp_s06_40_cat_10_n02123159_6534.png
subject-06,1,347,0.959702014923096,truck,truck,1,0347_lp_s06_1_truck_10_n03417042_10331.png
subject-06,1,348,0.690136909484863,cat,bear,40,0348_lp_s06_40_bear_10_n02134084_41588.png
subject-06,1,349,0.92634391784668,cat,keyboard,40,0349_lp_s06_40_keyboard_10_n03085013_1695.png
subject-06,1,350,0.832419157028198,elephant,elephant,0,0350_lp_s06_0_elephant_10_n02504013_6187.png
subject-06,1,351,0.846950054168701,cat,cat,0,0351_lp_s06_0_cat_10_n02124075_13532.png
subject-06,1,352,0.909090042114258,cat,bird,10,0352_lp_s06_10_bird_10_n02006656_6247.png
subject-06,1,353,0.547828197479248,chair,oven,3,0353_lp_s06_3_oven_10_n04111531_9910.png
subject-06,1,354,0.654366016387939,bicycle,bicycle,3,0354_lp_s06_3_bicycle_10_n03792782_66159.png
subject-06,1,355,1.0068359375,chair,chair,7,0355_lp_s06_7_chair_10_n03376595_9559.png
subject-06,1,356,1.18106698989868,cat,boat,15,0356_lp_s06_15_boat_10_n03344393_399.png
subject-06,1,357,0.497498989105225,car,car,0,0357_lp_s06_0_car_10_n02814533_87142.png
subject-06,1,358,0.665392875671387,cat,dog,1,0358_lp_s06_1_dog_10_n02093647_2313.png
subject-06,1,359,0.588083028793335,keyboard,keyboard,0,0359_lp_s06_0_keyboard_10_n04505470_5726.png
subject-06,1,360,0.708192110061646,chair,chair,3,0360_lp_s06_3_chair_10_n04429376_19354.png
subject-06,1,361,0.650693893432617,airplane,airplane,10,0361_lp_s06_10_airplane_10_n02690373_12505.png
subject-06,1,362,0.749114036560059,knife,knife,0,0362_lp_s06_0_knife_10_n03041632_32197.png
subject-06,1,363,0.879300832748413,cat,elephant,15,0363_lp_s06_15_elephant_10_n02504458_1626.png
subject-06,1,364,0.693542003631592,boat,boat,0,0364_lp_s06_0_boat_10_n03662601_34713.png
subject-06,1,365,1.09214687347412,bird,clock,10,0365_lp_s06_10_clock_10_n04548280_1194.png
subject-06,1,366,0.974106073379517,boat,boat,7,0366_lp_s06_7_boat_10_n02951358_10666.png
subject-06,1,367,1.10443782806396,keyboard,chair,10,0367_lp_s06_10_chair_10_n02791124_15459.png
subject-06,1,368,0.688860893249512,bicycle,bicycle,0,0368_lp_s06_0_bicycle_10_n02835271_3704.png
subject-06,1,369,0.749348163604736,bottle,bottle,0,0369_lp_s06_0_bottle_10_n04591713_2668.png
subject-06,1,370,1.1533670425415,bottle,bottle,0,0370_lp_s06_0_bottle_10_n04560804_30662.png
subject-06,1,371,0.653715133666992,bicycle,bicycle,5,0371_lp_s06_5_bicycle_10_n02835271_9049.png
subject-06,1,372,1.11386299133301,bear,keyboard,15,0372_lp_s06_15_keyboard_10_n03085013_11110.png
subject-06,1,373,0.690778017044067,cat,dog,40,0373_lp_s06_40_dog_10_n02091467_3285.png
subject-06,1,374,0.817909002304077,knife,knife,3,0374_lp_s06_3_knife_10_n03041632_10136.png
subject-06,1,375,0.908440113067627,bicycle,bicycle,7,0375_lp_s06_7_bicycle_10_n02835271_7866.png
subject-06,1,376,0.831084966659546,chair,chair,0,0376_lp_s06_0_chair_10_n02791124_9606.png
subject-06,1,377,1.50017499923706,clock,clock,5,0377_lp_s06_5_clock_10_n02708093_725.png
subject-06,1,378,0.530088901519775,cat,boat,40,0378_lp_s06_40_boat_10_n03344393_5636.png
subject-06,1,379,0.490129947662354,clock,clock,3,0379_lp_s06_3_clock_10_n02708093_1246.png
subject-06,1,380,0.758846998214722,bicycle,elephant,3,0380_lp_s06_3_elephant_10_n02504458_8141.png
subject-06,1,381,0.647649049758911,cat,knife,40,0381_lp_s06_40_knife_10_n03041632_42841.png
subject-06,1,382,0.646077871322632,airplane,airplane,3,0382_lp_s06_3_airplane_10_n02690373_2605.png
subject-06,1,383,0.621998071670532,chair,chair,0,0383_lp_s06_0_chair_10_n02791124_2123.png
subject-06,1,384,0.73625111579895,cat,dog,15,0384_lp_s06_15_dog_10_n02106550_9501.png
subject-06,1,385,0.517904996871948,boat,boat,0,0385_lp_s06_0_boat_10_n02951358_15309.png
subject-06,1,386,1.17842102050781,dog,dog,7,0386_lp_s06_7_dog_10_n02107312_2089.png
subject-06,1,387,0.638645172119141,bottle,bottle,1,0387_lp_s06_1_bottle_10_n04557648_5168.png
subject-06,1,388,0.915010929107666,bear,bear,3,0388_lp_s06_3_bear_10_n02133161_4938.png
subject-06,1,389,0.542909145355225,bear,bear,3,0389_lp_s06_3_bear_10_n02133161_5828.png
subject-06,1,390,0.765445947647095,chair,bottle,10,0390_lp_s06_10_bottle_10_n04560804_23293.png
subject-06,1,391,0.741300106048584,elephant,elephant,0,0391_lp_s06_0_elephant_10_n02504013_1602.png
subject-06,1,392,0.947820901870728,cat,dog,7,0392_lp_s06_7_dog_10_n02097130_848.png
subject-06,1,393,1.02919006347656,dog,dog,15,0393_lp_s06_15_dog_10_n02097474_7329.png
subject-06,1,394,0.581711053848267,chair,keyboard,10,0394_lp_s06_10_keyboard_10_n03085013_21678.png
subject-06,1,395,0.782356023788452,bear,bear,10,0395_lp_s06_10_bear_10_n02134418_1063.png
subject-06,1,396,0.8563392162323,bear,bear,0,0396_lp_s06_0_bear_10_n02134418_2572.png
subject-06,1,397,0.794514179229736,bird,bird,1,0397_lp_s06_1_bird_10_n01860187_2084.png
subject-06,1,398,0.968756198883057,bottle,bottle,0,0398_lp_s06_0_bottle_10_n02823428_11063.png
subject-06,1,399,0.590914011001587,chair,chair,7,0399_lp_s06_7_chair_10_n02791124_392.png
subject-06,1,400,0.859427928924561,cat,chair,40,0400_lp_s06_40_chair_10_n02791124_4549.png
subject-06,1,401,1.1137330532074,bear,elephant,3,0401_lp_s06_3_elephant_10_n02504458_3183.png
subject-06,1,402,0.490352869033813,boat,boat,0,0402_lp_s06_0_boat_10_n04612504_8520.png
subject-06,1,403,0.688946008682251,bicycle,bicycle,5,0403_lp_s06_5_bicycle_10_n03792782_11609.png
subject-06,1,404,0.925709009170532,bear,bear,1,0404_lp_s06_1_bear_10_n02134084_7841.png
subject-06,1,405,0.709824085235596,boat,boat,3,0405_lp_s06_3_boat_10_n03662601_22413.png
subject-06,1,406,0.794296026229858,elephant,elephant,15,0406_lp_s06_15_elephant_10_n02504013_2342.png
subject-06,1,407,0.768686056137085,cat,elephant,40,0407_lp_s06_40_elephant_10_n02504458_798.png
subject-06,1,408,1.02896094322205,cat,dog,15,0408_lp_s06_15_dog_10_n02100735_12736.png
subject-06,1,409,0.491550207138062,cat,knife,40,0409_lp_s06_40_knife_10_n03041632_206.png
subject-06,1,410,1.09104990959167,bicycle,elephant,10,0410_lp_s06_10_elephant_10_n02504013_15852.png
subject-06,1,411,1.31314301490784,bicycle,bird,7,0411_lp_s06_7_bird_10_n02017213_3646.png
subject-06,1,412,0.811528921127319,elephant,elephant,7,0412_lp_s06_7_elephant_10_n02504458_7013.png
subject-06,1,413,0.565285921096802,oven,oven,0,0413_lp_s06_0_oven_10_n04111531_2156.png
subject-06,1,414,0.786017894744873,bottle,bottle,3,0414_lp_s06_3_bottle_10_n02823428_3049.png
subject-06,1,415,0.716248989105225,airplane,airplane,5,0415_lp_s06_5_airplane_10_n02690373_19916.png
subject-06,1,416,0.952224969863892,bicycle,bird,15,0416_lp_s06_15_bird_10_n01534433_4886.png
subject-06,1,417,0.828588008880615,airplane,airplane,7,0417_lp_s06_7_airplane_10_n02690373_6755.png
subject-06,1,418,0.628904819488525,chair,chair,5,0418_lp_s06_5_chair_10_n04099969_5674.png
subject-06,1,419,0.727124929428101,car,car,1,0419_lp_s06_1_car_10_n03100240_17108.png
subject-06,1,420,1.15538311004639,car,truck,7,0420_lp_s06_7_truck_10_n03417042_10957.png
subject-06,1,421,0.970314979553223,bear,elephant,5,0421_lp_s06_5_elephant_10_n02504013_8834.png
subject-06,1,422,0.654668092727661,airplane,airplane,1,0422_lp_s06_1_airplane_10_n02690373_10938.png
subject-06,1,423,0.999040126800537,chair,chair,3,0423_lp_s06_3_chair_10_n02791124_2651.png
subject-06,1,424,0.929374217987061,chair,chair,7,0424_lp_s06_7_chair_10_n03376595_11352.png
subject-06,1,425,0.613954067230225,airplane,airplane,1,0425_lp_s06_1_airplane_10_n02690373_2867.png
subject-06,1,426,0.790611982345581,elephant,elephant,3,0426_lp_s06_3_elephant_10_n02504013_698.png
subject-06,1,427,0.750920057296753,chair,chair,3,0427_lp_s06_3_chair_10_n04099969_10699.png
subject-06,1,428,0.627403974533081,cat,cat,1,0428_lp_s06_1_cat_10_n02123394_5563.png
subject-06,1,429,0.94008994102478,bird,bird,0,0429_lp_s06_0_bird_10_n01616318_4909.png
subject-06,1,430,0.724288940429688,clock,clock,10,0430_lp_s06_10_clock_10_n02708093_1794.png
subject-06,1,431,0.760204076766968,elephant,elephant,3,0431_lp_s06_3_elephant_10_n02504013_1185.png
subject-06,1,432,0.906655073165894,oven,truck,15,0432_lp_s06_15_truck_10_n04467665_1015.png
subject-06,1,433,1.47304391860962,dog,dog,3,0433_lp_s06_3_dog_10_n02108915_10948.png
subject-06,1,434,0.687083005905151,truck,truck,0,0434_lp_s06_0_truck_10_n03796401_4119.png
subject-06,1,435,0.923192977905273,bird,bear,7,0435_lp_s06_7_bear_10_n02134418_1072.png
subject-06,1,436,1.09944915771484,bottle,bear,3,0436_lp_s06_3_bear_10_n02132136_686.png
subject-06,1,437,1.41174602508545,cat,dog,15,0437_lp_s06_15_dog_10_n02099849_6732.png
subject-06,1,438,0.457638025283813,boat,boat,1,0438_lp_s06_1_boat_10_n02951358_8840.png
subject-06,1,439,0.888015985488892,bird,bird,15,0439_lp_s06_15_bird_10_n02017213_15274.png
subject-06,1,440,1.50006604194641,oven,airplane,3,0440_lp_s06_3_airplane_10_n02690373_9963.png
subject-06,1,441,0.533253908157349,bicycle,bicycle,1,0441_lp_s06_1_bicycle_10_n03792782_17538.png
subject-06,1,442,0.517595767974854,oven,oven,5,0442_lp_s06_5_oven_10_n04111531_4370.png
subject-06,1,443,0.662339925765991,cat,oven,40,0443_lp_s06_40_oven_10_n04111531_5126.png
subject-06,1,444,0.944801092147827,dog,cat,1,0444_lp_s06_1_cat_10_n02123597_134.png
subject-06,1,445,0.775151014328003,airplane,airplane,3,0445_lp_s06_3_airplane_10_n02690373_4704.png
subject-06,1,446,0.851578950881958,airplane,airplane,0,0446_lp_s06_0_airplane_10_n02690373_1819.png
subject-06,1,447,0.674075126647949,keyboard,keyboard,1,0447_lp_s06_1_keyboard_10_n04505470_725.png
subject-06,1,448,0.734852075576782,dog,dog,0,0448_lp_s06_0_dog_10_n02088238_12702.png
subject-06,1,449,0.825384855270386,cat,dog,15,0449_lp_s06_15_dog_10_n02107574_1494.png
subject-06,1,450,1.21562504768372,car,knife,3,0450_lp_s06_3_knife_10_n03041632_24798.png
subject-06,1,451,0.970263004302979,car,truck,5,0451_lp_s06_5_truck_10_n03417042_15908.png
subject-06,1,452,0.844787120819092,bird,bird,3,0452_lp_s06_3_bird_10_n02007558_10025.png
subject-06,1,453,1.06709504127502,bird,airplane,15,0453_lp_s06_15_airplane_10_n02690373_7651.png
subject-06,1,454,0.713583946228027,airplane,airplane,5,0454_lp_s06_5_airplane_10_n02690373_4282.png
subject-06,1,455,1.13367915153503,airplane,bird,7,0455_lp_s06_7_bird_10_n01534433_622.png
subject-06,1,456,0.609984874725342,cat,dog,40,0456_lp_s06_40_dog_10_n02107574_2142.png
subject-06,1,457,0.708248138427734,cat,cat,15,0457_lp_s06_15_cat_10_n02124075_9066.png
subject-06,1,458,0.822988986968994,bicycle,bicycle,3,0458_lp_s06_3_bicycle_10_n03792782_11625.png
subject-06,1,459,0.867384910583496,bicycle,chair,15,0459_lp_s06_15_chair_10_n04099969_24224.png
subject-06,1,460,0.61390495300293,cat,car,40,0460_lp_s06_40_car_10_n03100240_23165.png
subject-06,1,461,1.32620310783386,elephant,elephant,1,0461_lp_s06_1_elephant_10_n02504458_852.png
subject-06,1,462,0.726363897323608,elephant,elephant,1,0462_lp_s06_1_elephant_10_n02504013_7163.png
subject-06,1,463,0.640689134597778,bicycle,bicycle,1,0463_lp_s06_1_bicycle_10_n03792782_39982.png
subject-06,1,464,0.669019937515259,boat,boat,3,0464_lp_s06_3_boat_10_n02951358_4443.png
subject-06,1,465,0.853564977645874,elephant,elephant,15,0465_lp_s06_15_elephant_10_n02504013_9618.png
subject-06,1,466,0.844093084335327,bird,bird,3,0466_lp_s06_3_bird_10_n02002556_20980.png
subject-06,1,467,0.557965040206909,oven,oven,5,0467_lp_s06_5_oven_10_n04111531_6080.png
subject-06,1,468,0.648015975952148,clock,clock,7,0468_lp_s06_7_clock_10_n04548280_4225.png
subject-06,1,469,0.746748924255371,bird,truck,40,0469_lp_s06_40_truck_10_n03796401_13445.png
subject-06,1,470,1.08494806289673,chair,bottle,15,0470_lp_s06_15_bottle_10_n04591713_5906.png
subject-06,1,471,0.537664890289307,cat,truck,40,0471_lp_s06_40_truck_10_n04467665_116.png
subject-06,1,472,0.798264980316162,bottle,bottle,1,0472_lp_s06_1_bottle_10_n03937543_4782.png
subject-06,1,473,0.750478029251099,chair,truck,3,0473_lp_s06_3_truck_10_n03417042_7111.png
subject-06,1,474,0.857223033905029,chair,chair,1,0474_lp_s06_1_chair_10_n03376595_3678.png
subject-06,1,475,0.579245805740356,cat,car,40,0475_lp_s06_40_car_10_n02814533_63202.png
subject-06,1,476,0.963840007781982,bottle,cat,15,0476_lp_s06_15_cat_10_n02123159_7958.png
subject-06,1,477,0.632436990737915,clock,clock,3,0477_lp_s06_3_clock_10_n03196217_1962.png
subject-06,1,478,1.11477899551392,clock,keyboard,5,0478_lp_s06_5_keyboard_10_n03085013_16459.png
subject-06,1,479,1.03710508346558,bottle,cat,3,0479_lp_s06_3_cat_10_n02125311_15864.png
subject-06,1,480,0.527552843093872,bottle,bottle,3,0480_lp_s06_3_bottle_10_n03937543_9489.png
subject-06,1,481,0.658082008361816,chair,chair,1,0481_lp_s06_1_chair_10_n04429376_11638.png
subject-06,1,482,0.764825820922852,keyboard,keyboard,3,0482_lp_s06_3_keyboard_10_n03085013_28150.png
subject-06,1,483,0.854797124862671,bicycle,bicycle,10,0483_lp_s06_10_bicycle_10_n02835271_9191.png
subject-06,1,484,0.96078085899353,chair,keyboard,7,0484_lp_s06_7_keyboard_10_n03085013_20220.png
subject-06,1,485,0.57525110244751,car,car,1,0485_lp_s06_1_car_10_n02814533_31964.png
subject-06,1,486,0.751861810684204,knife,knife,0,0486_lp_s06_0_knife_10_n03041632_30602.png
subject-06,1,487,0.666324853897095,elephant,elephant,5,0487_lp_s06_5_elephant_10_n02504458_14537.png
subject-06,1,488,0.772855997085571,boat,boat,0,0488_lp_s06_0_boat_10_n03662601_1968.png
subject-06,1,489,1.03328704833984,oven,knife,10,0489_lp_s06_10_knife_10_n03041632_932.png
subject-06,1,490,0.97786808013916,truck,truck,5,0490_lp_s06_5_truck_10_n03417042_10533.png
subject-06,1,491,1.04358100891113,truck,truck,3,0491_lp_s06_3_truck_10_n03417042_153.png
subject-06,1,492,0.965703964233398,keyboard,keyboard,1,0492_lp_s06_1_keyboard_10_n04505470_2102.png
subject-06,1,493,0.658302068710327,truck,car,1,0493_lp_s06_1_car_10_n02814533_94562.png
subject-06,1,494,0.986751079559326,car,dog,5,0494_lp_s06_5_dog_10_n02106550_12046.png
subject-06,1,495,0.900871992111206,elephant,elephant,7,0495_lp_s06_7_elephant_10_n02504458_2685.png
subject-06,1,496,0.929449081420898,bicycle,dog,10,0496_lp_s06_10_dog_10_n02090622_5632.png
subject-06,1,497,0.705515146255493,oven,chair,15,0497_lp_s06_15_chair_10_n03376595_3062.png
subject-06,1,498,1.1264979839325,truck,chair,5,0498_lp_s06_5_chair_10_n04429376_27005.png
subject-06,1,499,1.04073405265808,bicycle,chair,15,0499_lp_s06_15_chair_10_n04099969_38787.png
subject-06,1,500,1.19868803024292,bicycle,truck,3,0500_lp_s06_3_truck_10_n04467665_51949.png
subject-06,1,501,0.929373025894165,chair,clock,10,0501_lp_s06_10_clock_10_n04548280_15157.png
subject-06,1,502,0.873592853546143,keyboard,keyboard,0,0502_lp_s06_0_keyboard_10_n04505470_6080.png
subject-06,1,503,1.18810296058655,oven,knife,15,0503_lp_s06_15_knife_10_n03041632_24113.png
subject-06,1,504,0.664777040481567,car,car,1,0504_lp_s06_1_car_10_n04285008_3884.png
subject-06,1,505,0.517030954360962,bear,bear,0,0505_lp_s06_0_bear_10_n02134084_42216.png
subject-06,1,506,0.739799022674561,chair,knife,10,0506_lp_s06_10_knife_10_n03041632_20770.png
subject-06,1,507,0.992354869842529,clock,oven,1,0507_lp_s06_1_oven_10_n04111531_22386.png
subject-06,1,508,0.606571197509766,knife,knife,1,0508_lp_s06_1_knife_10_n03041632_86251.png
subject-06,1,509,1.00500106811523,chair,knife,3,0509_lp_s06_3_knife_10_n03041632_91582.png
subject-06,1,510,0.933428049087524,chair,knife,7,0510_lp_s06_7_knife_10_n03041632_362.png
subject-06,1,511,0.801923990249634,chair,cat,5,0511_lp_s06_5_cat_10_n02125311_27578.png
subject-06,1,512,0.929996013641357,knife,knife,0,0512_lp_s06_0_knife_10_n03041632_43634.png
subject-06,1,513,0.744369983673096,clock,clock,1,0513_lp_s06_1_clock_10_n02708093_3352.png
subject-06,1,514,NaN,na,truck,0,0514_lp_s06_0_truck_10_n03417042_3479.png
subject-06,1,515,0.881027936935425,car,bear,10,0515_lp_s06_10_bear_10_n02132136_5143.png
subject-06,1,516,0.801244974136353,bicycle,bicycle,0,0516_lp_s06_0_bicycle_10_n03792782_556.png
subject-06,1,517,0.777337074279785,airplane,airplane,3,0517_lp_s06_3_airplane_10_n02690373_1167.png
subject-06,1,518,0.73901104927063,bear,oven,15,0518_lp_s06_15_oven_10_n04111531_11794.png
subject-06,1,519,0.53740382194519,clock,clock,3,0519_lp_s06_3_clock_10_n04548280_3323.png
subject-06,1,520,0.959956884384155,bear,boat,10,0520_lp_s06_10_boat_10_n04273569_3611.png
subject-06,1,521,0.704347133636475,cat,chair,40,0521_lp_s06_40_chair_10_n02791124_16831.png
subject-06,1,522,0.794745922088623,bicycle,truck,5,0522_lp_s06_5_truck_10_n04467665_2240.png
subject-06,1,523,0.841417074203491,chair,chair,3,0523_lp_s06_3_chair_10_n04429376_13191.png
subject-06,1,524,0.647682905197144,cat,cat,3,0524_lp_s06_3_cat_10_n02123597_7047.png
subject-06,1,525,1.12193012237549,cat,knife,15,0525_lp_s06_15_knife_10_n03041632_32208.png
subject-06,1,526,0.882619142532349,keyboard,bottle,0,0526_lp_s06_0_bottle_10_n04591713_2549.png
subject-06,1,527,0.736829042434692,bear,bird,10,0527_lp_s06_10_bird_10_n01601694_10351.png
subject-06,1,528,0.919702053070068,car,car,3,0528_lp_s06_3_car_10_n04285008_7.png
subject-06,1,529,0.74757981300354,cat,bicycle,40,0529_lp_s06_40_bicycle_10_n03792782_49720.png
subject-06,1,530,0.824054956436157,elephant,elephant,1,0530_lp_s06_1_elephant_10_n02504458_6107.png
subject-06,1,531,1.17672109603882,bottle,dog,15,0531_lp_s06_15_dog_10_n02089867_5477.png
subject-06,1,532,0.674931049346924,bear,bear,1,0532_lp_s06_1_bear_10_n02134418_2367.png
subject-06,1,533,0.797069787979126,bottle,elephant,15,0533_lp_s06_15_elephant_10_n02504013_470.png
subject-06,1,534,0.755444049835205,elephant,boat,7,0534_lp_s06_7_boat_10_n03662601_8631.png
subject-06,1,535,NaN,na,elephant,40,0535_lp_s06_40_elephant_10_n02504013_6501.png
subject-06,1,536,1.09254384040833,keyboard,oven,3,0536_lp_s06_3_oven_10_n04111531_6568.png
subject-06,1,537,1.13659000396729,elephant,elephant,3,0537_lp_s06_3_elephant_10_n02504458_2613.png
subject-06,1,538,0.592146873474121,airplane,airplane,7,0538_lp_s06_7_airplane_10_n02690373_8754.png
subject-06,1,539,0.842010021209717,car,knife,7,0539_lp_s06_7_knife_10_n03041632_5820.png
subject-06,1,540,0.964205980300903,chair,bottle,7,0540_lp_s06_7_bottle_10_n02823428_4234.png
subject-06,1,541,0.746469020843506,airplane,knife,15,0541_lp_s06_15_knife_10_n03041632_23803.png
subject-06,1,542,1.0944390296936,airplane,truck,5,0542_lp_s06_5_truck_10_n04467665_80098.png
subject-06,1,543,0.60868501663208,boat,boat,7,0543_lp_s06_7_boat_10_n04612504_6724.png
subject-06,1,544,0.798812866210938,keyboard,oven,15,0544_lp_s06_15_oven_10_n04111531_7449.png
subject-06,1,545,1.27327609062195,oven,oven,1,0545_lp_s06_1_oven_10_n04111531_7728.png
subject-06,1,546,0.696108102798462,chair,chair,3,0546_lp_s06_3_chair_10_n02791124_10701.png
subject-06,1,547,1.03240323066711,car,car,1,0547_lp_s06_1_car_10_n02814533_22847.png
subject-06,1,548,0.770705938339233,bicycle,bicycle,3,0548_lp_s06_3_bicycle_10_n03792782_24042.png
subject-06,1,549,0.966726064682007,bottle,bottle,0,0549_lp_s06_0_bottle_10_n04560804_26299.png
subject-06,1,550,1.44302892684937,bottle,knife,1,0550_lp_s06_1_knife_10_n03041632_11773.png
subject-06,1,551,0.957773208618164,bottle,bottle,5,0551_lp_s06_5_bottle_10_n04557648_5362.png
subject-06,1,552,0.994083881378174,bird,bear,40,0552_lp_s06_40_bear_10_n02132136_15168.png
subject-06,1,553,0.824851989746094,truck,truck,7,0553_lp_s06_7_truck_10_n03417042_8367.png
subject-06,1,554,0.607379913330078,bottle,bottle,1,0554_lp_s06_1_bottle_10_n02823428_5419.png
subject-06,1,555,0.621331930160522,clock,clock,5,0555_lp_s06_5_clock_10_n04548280_7087.png
subject-06,1,556,0.965600967407227,bicycle,chair,10,0556_lp_s06_10_chair_10_n04099969_41668.png
subject-06,1,557,0.856052160263062,airplane,car,5,0557_lp_s06_5_car_10_n02814533_7728.png
subject-06,1,558,1.12460398674011,cat,airplane,10,0558_lp_s06_10_airplane_10_n02690373_852.png
subject-06,1,559,0.646929979324341,bicycle,bicycle,1,0559_lp_s06_1_bicycle_10_n02835271_2491.png
subject-06,1,560,1.19140100479126,truck,truck,1,0560_lp_s06_1_truck_10_n04467665_27782.png
subject-06,1,561,1.1198902130127,bird,knife,7,0561_lp_s06_7_knife_10_n03041632_2630.png
subject-06,1,562,1.40202689170837,truck,truck,5,0562_lp_s06_5_truck_10_n03796401_17377.png
subject-06,1,563,0.524590015411377,airplane,airplane,7,0563_lp_s06_7_airplane_10_n02690373_790.png
subject-06,1,564,1.14711999893188,truck,oven,7,0564_lp_s06_7_oven_10_n04111531_1549.png
subject-06,1,565,0.991522073745728,car,oven,10,0565_lp_s06_10_oven_10_n04111531_5093.png
subject-06,1,566,1.13614392280579,airplane,boat,1,0566_lp_s06_1_boat_10_n04273569_21139.png
subject-06,1,567,0.736663818359375,bottle,bottle,3,0567_lp_s06_3_bottle_10_n03937543_225.png
subject-06,1,568,0.642806053161621,bicycle,bicycle,1,0568_lp_s06_1_bicycle_10_n03792782_9094.png
subject-06,1,569,1.00869822502136,dog,cat,7,0569_lp_s06_7_cat_10_n02125311_44284.png
subject-06,1,570,1.09927988052368,bicycle,elephant,10,0570_lp_s06_10_elephant_10_n02504458_3205.png
subject-06,1,571,1.398029088974,dog,dog,3,0571_lp_s06_3_dog_10_n02097298_11113.png
subject-06,1,572,1.3660831451416,bicycle,bicycle,5,0572_lp_s06_5_bicycle_10_n03792782_1472.png
subject-06,1,573,0.758357048034668,cat,chair,15,0573_lp_s06_15_chair_10_n04099969_14475.png
subject-06,1,574,0.756831884384155,truck,truck,0,0574_lp_s06_0_truck_10_n03796401_8037.png
subject-06,1,575,0.654782056808472,bicycle,bicycle,0,0575_lp_s06_0_bicycle_10_n03792782_6735.png
subject-06,1,576,0.923076152801514,cat,dog,5,0576_lp_s06_5_dog_10_n02099849_2405.png
subject-06,1,577,0.821929931640625,cat,truck,40,0577_lp_s06_40_truck_10_n04467665_78038.png
subject-06,1,578,1.26626205444336,knife,dog,5,0578_lp_s06_5_dog_10_n02109961_3810.png
subject-06,1,579,0.82676887512207,bear,truck,15,0579_lp_s06_15_truck_10_n04467665_63534.png
subject-06,1,580,0.541387796401978,boat,boat,0,0580_lp_s06_0_boat_10_n03662601_10923.png
subject-06,1,581,0.760742902755737,bicycle,cat,5,0581_lp_s06_5_cat_10_n02124075_11965.png
subject-06,1,582,0.742799043655396,bird,bird,0,0582_lp_s06_0_bird_10_n01530575_390.png
subject-06,1,583,0.743214845657349,bottle,bottle,3,0583_lp_s06_3_bottle_10_n03983396_4583.png
subject-06,1,584,0.625195026397705,cat,cat,0,0584_lp_s06_0_cat_10_n02123394_4125.png
subject-06,1,585,0.831532001495361,truck,truck,1,0585_lp_s06_1_truck_10_n03417042_27486.png
subject-06,1,586,0.989486932754517,bear,bear,10,0586_lp_s06_10_bear_10_n02134418_1041.png
subject-06,1,587,0.870506048202515,cat,cat,7,0587_lp_s06_7_cat_10_n02125311_22780.png
subject-06,1,588,0.709326028823853,bear,bicycle,15,0588_lp_s06_15_bicycle_10_n03792782_8143.png
subject-06,1,589,0.577693939208984,truck,truck,0,0589_lp_s06_0_truck_10_n03417042_16166.png
subject-06,1,590,0.868067979812622,truck,truck,7,0590_lp_s06_7_truck_10_n03417042_2822.png
subject-06,1,591,1.0585560798645,knife,knife,5,0591_lp_s06_5_knife_10_n03041632_7173.png
subject-06,1,592,0.688595056533813,bicycle,bottle,7,0592_lp_s06_7_bottle_10_n03937543_3306.png
subject-06,1,593,0.770876884460449,bear,bear,1,0593_lp_s06_1_bear_10_n02134084_17218.png
subject-06,1,594,0.609556913375854,bird,bird,0,0594_lp_s06_0_bird_10_n01824575_3827.png
subject-06,1,595,0.921952962875366,cat,airplane,40,0595_lp_s06_40_airplane_10_n02690373_7748.png
subject-06,1,596,0.790395021438599,bird,chair,40,0596_lp_s06_40_chair_10_n04429376_4135.png
subject-06,1,597,0.750946044921875,cat,keyboard,40,0597_lp_s06_40_keyboard_10_n04505470_313.png
subject-06,1,598,0.702569961547852,bicycle,bicycle,3,0598_lp_s06_3_bicycle_10_n02835271_91.png
subject-06,1,599,1.26457691192627,cat,elephant,40,0599_lp_s06_40_elephant_10_n02504458_3985.png
subject-06,1,600,1.12228584289551,bear,keyboard,15,0600_lp_s06_15_keyboard_10_n03085013_24506.png
subject-06,1,601,0.506773948669434,cat,cat,7,0601_lp_s06_7_cat_10_n02123159_1008.png
subject-06,1,602,1.09141492843628,car,car,0,0602_lp_s06_0_car_10_n03100240_7206.png
subject-06,1,603,0.782043933868408,truck,bicycle,3,0603_lp_s06_3_bicycle_10_n02835271_26339.png
subject-06,1,604,0.842428207397461,bear,bird,7,0604_lp_s06_7_bird_10_n01820546_7546.png
subject-06,1,605,0.964969158172607,bottle,chair,7,0605_lp_s06_7_chair_10_n04099969_37437.png
subject-06,1,606,0.771340847015381,bicycle,knife,5,0606_lp_s06_5_knife_10_n03041632_90407.png
subject-06,1,607,0.807762861251831,cat,airplane,40,0607_lp_s06_40_airplane_10_n02690373_4788.png
subject-06,1,608,0.570363998413086,clock,clock,0,0608_lp_s06_0_clock_10_n04548280_4383.png
subject-06,1,609,1.2283821105957,truck,truck,1,0609_lp_s06_1_truck_10_n04467665_2559.png
subject-06,1,610,1.37288999557495,oven,cat,7,0610_lp_s06_7_cat_10_n02123045_12188.png
subject-06,1,611,0.940985918045044,airplane,airplane,0,0611_lp_s06_0_airplane_10_n02690373_9720.png
subject-06,1,612,1.1017849445343,oven,bear,1,0612_lp_s06_1_bear_10_n02134418_845.png
subject-06,1,613,0.86991810798645,bicycle,elephant,5,0613_lp_s06_5_elephant_10_n02504013_2859.png
subject-06,1,614,1.0524799823761,dog,dog,0,0614_lp_s06_0_dog_10_n02093256_4314.png
subject-06,1,615,0.652883052825928,bird,bird,3,0615_lp_s06_3_bird_10_n01795545_1515.png
subject-06,1,616,0.951551914215088,airplane,airplane,15,0616_lp_s06_15_airplane_10_n02690373_3294.png
subject-06,1,617,0.680253982543945,dog,dog,3,0617_lp_s06_3_dog_10_n02099601_29405.png
subject-06,1,618,NaN,na,car,15,0618_lp_s06_15_car_10_n03100240_15156.png
subject-06,1,619,0.975914001464844,bear,bottle,15,0619_lp_s06_15_bottle_10_n04591713_3376.png
subject-06,1,620,0.774425029754639,bottle,bottle,5,0620_lp_s06_5_bottle_10_n02823428_1527.png
subject-06,1,621,1.20267605781555,dog,dog,1,0621_lp_s06_1_dog_10_n02105855_2964.png
subject-06,1,622,0.749254941940308,keyboard,oven,10,0622_lp_s06_10_oven_10_n04111531_10555.png
subject-06,1,623,0.799223899841309,oven,cat,5,0623_lp_s06_5_cat_10_n02123597_2167.png
subject-06,1,624,0.621303081512451,keyboard,keyboard,0,0624_lp_s06_0_keyboard_10_n04505470_4479.png
subject-06,1,625,0.827771186828613,dog,dog,0,0625_lp_s06_0_dog_10_n02101388_2773.png
subject-06,1,626,0.764104843139648,knife,knife,0,0626_lp_s06_0_knife_10_n03041632_20194.png
subject-06,1,627,1.17808294296265,bicycle,clock,15,0627_lp_s06_15_clock_10_n03196217_2271.png
subject-06,1,628,0.860810995101929,elephant,elephant,1,0628_lp_s06_1_elephant_10_n02504013_9153.png
subject-06,1,629,1.04523396492004,bear,oven,15,0629_lp_s06_15_oven_10_n04111531_6933.png
subject-06,1,630,1.14919805526733,truck,truck,7,0630_lp_s06_7_truck_10_n03417042_4238.png
subject-06,1,631,1.04973483085632,cat,boat,15,0631_lp_s06_15_boat_10_n04273569_883.png
subject-06,1,632,0.886162042617798,dog,dog,10,0632_lp_s06_10_dog_10_n02109961_34581.png
subject-06,1,633,0.906008958816528,keyboard,oven,10,0633_lp_s06_10_oven_10_n04111531_82.png
subject-06,1,634,0.704284191131592,dog,bear,7,0634_lp_s06_7_bear_10_n02132136_3937.png
subject-06,1,635,0.542241096496582,bottle,bottle,1,0635_lp_s06_1_bottle_10_n04557648_6315.png
subject-06,1,636,0.799436092376709,truck,truck,5,0636_lp_s06_5_truck_10_n03417042_13151.png
subject-06,1,637,0.605359077453613,clock,clock,1,0637_lp_s06_1_clock_10_n03196217_7401.png
subject-06,1,638,0.609752178192139,oven,oven,1,0638_lp_s06_1_oven_10_n04111531_1794.png
subject-06,1,639,0.870189905166626,elephant,elephant,1,0639_lp_s06_1_elephant_10_n02504013_3905.png
subject-06,1,640,1.09832096099854,cat,knife,5,0640_lp_s06_5_knife_10_n03041632_87380.png
subject-06,1,641,0.798149824142456,cat,chair,40,0641_lp_s06_40_chair_10_n02791124_3420.png
subject-06,1,642,0.598767042160034,bottle,bottle,3,0642_lp_s06_3_bottle_10_n03983396_7568.png
subject-06,1,643,0.759344100952148,bird,bird,3,0643_lp_s06_3_bird_10_n02002556_5015.png
subject-06,1,644,0.511648178100586,boat,boat,1,0644_lp_s06_1_boat_10_n02951358_12462.png
subject-06,1,645,0.602020978927612,boat,boat,5,0645_lp_s06_5_boat_10_n02951358_30458.png
subject-06,1,646,0.776563882827759,bicycle,bicycle,7,0646_lp_s06_7_bicycle_10_n02835271_19676.png
subject-06,1,647,0.868534088134766,clock,clock,3,0647_lp_s06_3_clock_10_n04548280_8447.png
subject-06,1,648,0.59703803062439,chair,chair,3,0648_lp_s06_3_chair_10_n02791124_5513.png
subject-06,1,649,1.08749008178711,truck,truck,3,0649_lp_s06_3_truck_10_n03417042_18169.png
subject-06,1,650,0.994109153747559,dog,dog,5,0650_lp_s06_5_dog_10_n02099849_8741.png
subject-06,1,651,0.870738983154297,bottle,bottle,0,0651_lp_s06_0_bottle_10_n04591713_5398.png
subject-06,1,652,0.77700400352478,bird,boat,40,0652_lp_s06_40_boat_10_n03344393_95.png
subject-06,1,653,0.699095964431763,boat,boat,3,0653_lp_s06_3_boat_10_n03344393_3725.png
subject-06,1,654,0.711741924285889,boat,boat,15,0654_lp_s06_15_boat_10_n03344393_8894.png
subject-06,1,655,0.747891902923584,knife,knife,5,0655_lp_s06_5_knife_10_n03041632_18995.png
subject-06,1,656,0.815865993499756,bird,bird,1,0656_lp_s06_1_bird_10_n02017213_2356.png
subject-06,1,657,1.09067702293396,car,chair,15,0657_lp_s06_15_chair_10_n02791124_11404.png
subject-06,1,658,0.98317289352417,truck,truck,3,0658_lp_s06_3_truck_10_n03417042_1126.png
subject-06,1,659,0.705692052841187,bicycle,bicycle,0,0659_lp_s06_0_bicycle_10_n02835271_7900.png
subject-06,1,660,0.825501918792725,knife,knife,7,0660_lp_s06_7_knife_10_n03041632_104379.png
subject-06,1,661,0.770230054855347,cat,bicycle,10,0661_lp_s06_10_bicycle_10_n03792782_4545.png
subject-06,1,662,0.800705909729004,cat,bear,15,0662_lp_s06_15_bear_10_n02132136_11107.png
subject-06,1,663,0.637038946151733,boat,boat,10,0663_lp_s06_10_boat_10_n02951358_14816.png
subject-06,1,664,1.06518697738647,bear,clock,40,0664_lp_s06_40_clock_10_n02708093_1209.png
subject-06,1,665,0.941771984100342,bottle,bottle,10,0665_lp_s06_10_bottle_10_n02823428_1078.png
subject-06,1,666,1.08581185340881,dog,bear,7,0666_lp_s06_7_bear_10_n02134084_2865.png
subject-06,1,667,0.906184911727905,dog,dog,0,0667_lp_s06_0_dog_10_n02112018_761.png
subject-06,1,668,1.29641199111938,truck,boat,7,0668_lp_s06_7_boat_10_n03344393_8579.png
subject-06,1,669,0.872940063476562,boat,airplane,40,0669_lp_s06_40_airplane_10_n02690373_8274.png
subject-06,1,670,0.847237825393677,oven,oven,5,0670_lp_s06_5_oven_10_n04111531_11669.png
subject-06,1,671,0.861481904983521,clock,clock,7,0671_lp_s06_7_clock_10_n02708093_3301.png
subject-06,1,672,0.883784055709839,bicycle,bird,7,0672_lp_s06_7_bird_10_n01532829_2792.png
subject-06,1,673,0.74619197845459,keyboard,keyboard,7,0673_lp_s06_7_keyboard_10_n03085013_20861.png
subject-06,1,674,1.24397301673889,boat,truck,40,0674_lp_s06_40_truck_10_n03796401_8944.png
subject-06,1,675,0.666881799697876,car,car,0,0675_lp_s06_0_car_10_n03100240_10384.png
subject-06,1,676,1.40882706642151,car,boat,5,0676_lp_s06_5_boat_10_n03344393_2785.png
subject-06,1,677,0.747521162033081,boat,oven,40,0677_lp_s06_40_oven_10_n04111531_15267.png
subject-06,1,678,0.823811054229736,airplane,bottle,10,0678_lp_s06_10_bottle_10_n03937543_10212.png
subject-06,1,679,1.28982496261597,keyboard,keyboard,3,0679_lp_s06_3_keyboard_10_n04505470_4780.png
subject-06,1,680,1.08858299255371,bear,bear,10,0680_lp_s06_10_bear_10_n02134418_257.png
subject-06,1,681,0.956644058227539,boat,car,40,0681_lp_s06_40_car_10_n04285008_15181.png
subject-06,1,682,0.817337036132812,bicycle,bicycle,5,0682_lp_s06_5_bicycle_10_n02835271_8618.png
subject-06,1,683,1.10509181022644,chair,bear,15,0683_lp_s06_15_bear_10_n02132136_8525.png
subject-06,1,684,0.997994899749756,truck,truck,10,0684_lp_s06_10_truck_10_n03796401_4073.png
subject-06,1,685,0.534090995788574,clock,clock,1,0685_lp_s06_1_clock_10_n03196217_4361.png
subject-06,1,686,0.718641996383667,bicycle,bicycle,1,0686_lp_s06_1_bicycle_10_n03792782_19040.png
subject-06,1,687,1.10685896873474,airplane,airplane,1,0687_lp_s06_1_airplane_10_n02690373_4495.png
subject-06,1,688,0.799431085586548,keyboard,keyboard,1,0688_lp_s06_1_keyboard_10_n03085013_11359.png
subject-06,1,689,0.859915018081665,bicycle,bicycle,1,0689_lp_s06_1_bicycle_10_n03792782_13083.png
subject-06,1,690,0.942377090454102,airplane,airplane,15,0690_lp_s06_15_airplane_10_n02690373_6853.png
subject-06,1,691,1.2404990196228,oven,oven,3,0691_lp_s06_3_oven_10_n04111531_11848.png
subject-06,1,692,0.785208940505981,oven,oven,15,0692_lp_s06_15_oven_10_n04111531_6298.png
subject-06,1,693,0.823605060577393,elephant,elephant,1,0693_lp_s06_1_elephant_10_n02504013_354.png
subject-06,1,694,0.951755046844482,cat,bird,1,0694_lp_s06_1_bird_10_n02009912_7003.png
subject-06,1,695,0.942167043685913,bear,elephant,15,0695_lp_s06_15_elephant_10_n02504013_22813.png
subject-06,1,696,0.618892908096313,bicycle,bicycle,5,0696_lp_s06_5_bicycle_10_n03792782_19739.png
subject-06,1,697,0.733343124389648,bird,bird,1,0697_lp_s06_1_bird_10_n01820546_2747.png
subject-06,1,698,1.50041317939758,bear,truck,15,0698_lp_s06_15_truck_10_n04467665_8012.png
subject-06,1,699,0.998013973236084,knife,knife,0,0699_lp_s06_0_knife_10_n03041632_26989.png
subject-06,1,700,0.866836071014404,dog,bottle,10,0700_lp_s06_10_bottle_10_n04579145_5289.png
subject-06,1,701,1.01931285858154,dog,truck,7,0701_lp_s06_7_truck_10_n03417042_26939.png
subject-06,1,702,0.847208976745605,cat,clock,40,0702_lp_s06_40_clock_10_n03196217_359.png
subject-06,1,703,0.931988000869751,airplane,airplane,15,0703_lp_s06_15_airplane_10_n02690373_3050.png
subject-06,1,704,0.690048933029175,bird,bird,0,0704_lp_s06_0_bird_10_n02017213_14607.png
subject-06,1,705,0.834306001663208,bear,bear,0,0705_lp_s06_0_bear_10_n02134084_2623.png
subject-06,1,706,1.1329939365387,cat,knife,40,0706_lp_s06_40_knife_10_n03041632_23678.png
subject-06,1,707,0.9096360206604,bird,knife,40,0707_lp_s06_40_knife_10_n03041632_24100.png
subject-06,1,708,1.04609394073486,bird,bottle,7,0708_lp_s06_7_bottle_10_n04560804_11426.png
subject-06,1,709,1.02035284042358,bear,bear,10,0709_lp_s06_10_bear_10_n02134084_22791.png
subject-06,1,710,0.812431812286377,knife,knife,7,0710_lp_s06_7_knife_10_n03041632_34676.png
subject-06,1,711,0.740979909896851,bear,bicycle,40,0711_lp_s06_40_bicycle_10_n02835271_12453.png
subject-06,1,712,0.823235988616943,boat,boat,3,0712_lp_s06_3_boat_10_n03344393_8613.png
subject-06,1,713,1.22985911369324,bear,bird,15,0713_lp_s06_15_bird_10_n01818515_3245.png
subject-06,1,714,0.874355792999268,car,keyboard,10,0714_lp_s06_10_keyboard_10_n04505470_158.png
subject-06,1,715,1.00259804725647,knife,clock,15,0715_lp_s06_15_clock_10_n02708093_3624.png
subject-06,1,716,1.47909092903137,bear,car,40,0716_lp_s06_40_car_10_n02814533_45480.png
subject-06,1,717,0.593706846237183,clock,clock,7,0717_lp_s06_7_clock_10_n04548280_15867.png
subject-06,1,718,0.800099849700928,oven,oven,0,0718_lp_s06_0_oven_10_n04111531_10446.png
subject-06,1,719,1.212886095047,dog,dog,3,0719_lp_s06_3_dog_10_n02093256_949.png
subject-06,1,720,0.772915124893188,chair,chair,0,0720_lp_s06_0_chair_10_n03376595_89.png
subject-06,1,721,1.1413950920105,truck,bicycle,1,0721_lp_s06_1_bicycle_10_n02835271_9055.png
subject-06,1,722,0.847977876663208,keyboard,keyboard,3,0722_lp_s06_3_keyboard_10_n03085013_12323.png
subject-06,1,723,0.65405797958374,airplane,airplane,10,0723_lp_s06_10_airplane_10_n02690373_3377.png
subject-06,1,724,0.86636209487915,oven,car,5,0724_lp_s06_5_car_10_n03100240_10524.png
subject-06,1,725,0.69703197479248,boat,boat,5,0725_lp_s06_5_boat_10_n04273569_12756.png
subject-06,1,726,0.833452939987183,cat,clock,40,0726_lp_s06_40_clock_10_n02708093_7015.png
subject-06,1,727,1.02986884117126,boat,keyboard,7,0727_lp_s06_7_keyboard_10_n03085013_1824.png
subject-06,1,728,0.89805006980896,knife,dog,10,0728_lp_s06_10_dog_10_n02094114_7336.png
subject-06,1,729,1.05017590522766,dog,bear,5,0729_lp_s06_5_bear_10_n02133161_7068.png
subject-06,1,730,0.848550081253052,knife,knife,3,0730_lp_s06_3_knife_10_n03041632_7448.png
subject-06,1,731,0.692687034606934,bottle,bottle,1,0731_lp_s06_1_bottle_10_n04591713_3305.png
subject-06,1,732,0.653203010559082,cat,cat,40,0732_lp_s06_40_cat_10_n02123045_10603.png
subject-06,1,733,0.673782110214233,boat,oven,15,0733_lp_s06_15_oven_10_n04111531_9429.png
subject-06,1,734,0.8959059715271,bicycle,bicycle,0,0734_lp_s06_0_bicycle_10_n03792782_7039.png
subject-06,1,735,0.748318910598755,boat,cat,10,0735_lp_s06_10_cat_10_n02124075_646.png
subject-06,1,736,0.708885908126831,keyboard,oven,7,0736_lp_s06_7_oven_10_n04111531_22563.png
subject-06,1,737,0.983267068862915,car,car,0,0737_lp_s06_0_car_10_n03100240_14189.png
subject-06,1,738,1.30403208732605,bottle,bottle,1,0738_lp_s06_1_bottle_10_n04591713_2701.png
subject-06,1,739,0.980321884155273,cat,cat,40,0739_lp_s06_40_cat_10_n02123159_8251.png
subject-06,1,740,0.670280933380127,cat,bird,40,0740_lp_s06_40_bird_10_n01616318_3335.png
subject-06,1,741,0.844706058502197,bird,knife,10,0741_lp_s06_10_knife_10_n03041632_18748.png
subject-06,1,742,0.545363903045654,clock,clock,5,0742_lp_s06_5_clock_10_n04548280_4907.png
subject-06,1,743,1.15788412094116,clock,clock,15,0743_lp_s06_15_clock_10_n04548280_5166.png
subject-06,1,744,0.556286096572876,clock,clock,7,0744_lp_s06_7_clock_10_n03196217_3035.png
subject-06,1,745,0.916692018508911,bird,bird,3,0745_lp_s06_3_bird_10_n01824575_4719.png
subject-06,1,746,0.744823932647705,cat,cat,10,0746_lp_s06_10_cat_10_n02124075_788.png
subject-06,1,747,0.835560083389282,cat,knife,40,0747_lp_s06_40_knife_10_n03041632_3717.png
subject-06,1,748,0.911565065383911,cat,truck,40,0748_lp_s06_40_truck_10_n04467665_69545.png
subject-06,1,749,0.948199033737183,elephant,elephant,1,0749_lp_s06_1_elephant_10_n02504458_7866.png
subject-06,1,750,1.20650100708008,bear,dog,15,0750_lp_s06_15_dog_10_n02097047_6912.png
subject-06,1,751,0.913050174713135,car,bird,40,0751_lp_s06_40_bird_10_n01829413_17272.png
subject-06,1,752,1.4191517829895,cat,chair,40,0752_lp_s06_40_chair_10_n02791124_16127.png
subject-06,1,753,0.801662921905518,dog,dog,0,0753_lp_s06_0_dog_10_n02086646_6395.png
subject-06,1,754,1.13015604019165,knife,knife,10,0754_lp_s06_10_knife_10_n03041632_56172.png
subject-06,1,755,0.76093602180481,chair,chair,5,0755_lp_s06_5_chair_10_n04099969_12707.png
subject-06,1,756,0.97330117225647,keyboard,keyboard,7,0756_lp_s06_7_keyboard_10_n03085013_21867.png
subject-06,1,757,0.879674911499023,cat,keyboard,40,0757_lp_s06_40_keyboard_10_n04505470_5112.png
subject-06,1,758,0.856302976608276,keyboard,boat,7,0758_lp_s06_7_boat_10_n03662601_2061.png
subject-06,1,759,0.571599006652832,cat,boat,40,0759_lp_s06_40_boat_10_n03344393_8545.png
subject-06,1,760,0.747985124588013,car,car,0,0760_lp_s06_0_car_10_n02814533_6217.png
subject-06,1,761,1.19809007644653,keyboard,clock,1,0761_lp_s06_1_clock_10_n03196217_8020.png
subject-06,1,762,0.574357986450195,bird,bird,0,0762_lp_s06_0_bird_10_n01829413_5884.png
subject-06,1,763,0.873192071914673,oven,bear,10,0763_lp_s06_10_bear_10_n02134084_17296.png
subject-06,1,764,0.985327005386353,keyboard,keyboard,0,0764_lp_s06_0_keyboard_10_n03085013_21068.png
subject-06,1,765,0.805198907852173,bicycle,bear,10,0765_lp_s06_10_bear_10_n02132136_477.png
subject-06,1,766,0.781353950500488,knife,knife,10,0766_lp_s06_10_knife_10_n03041632_44238.png
subject-06,1,767,0.755858898162842,bottle,bottle,0,0767_lp_s06_0_bottle_10_n04560804_828.png
subject-06,1,768,0.992280960083008,boat,keyboard,10,0768_lp_s06_10_keyboard_10_n03085013_2808.png
subject-06,1,769,0.921036005020142,bottle,bottle,40,0769_lp_s06_40_bottle_10_n04591713_5558.png
subject-06,1,770,0.773252010345459,cat,cat,10,0770_lp_s06_10_cat_10_n02123159_1723.png
subject-06,1,771,0.687608003616333,boat,truck,10,0771_lp_s06_10_truck_10_n03796401_6774.png
subject-06,1,772,0.985918998718262,cat,boat,15,0772_lp_s06_15_boat_10_n02951358_9993.png
subject-06,1,773,0.654382944107056,clock,clock,1,0773_lp_s06_1_clock_10_n02708093_3664.png
subject-06,1,774,1.0045599937439,knife,knife,1,0774_lp_s06_1_knife_10_n03041632_31483.png
subject-06,1,775,0.764961957931519,bicycle,bicycle,7,0775_lp_s06_7_bicycle_10_n02835271_5477.png
subject-06,1,776,0.525483846664429,boat,boat,1,0776_lp_s06_1_boat_10_n04273569_13290.png
subject-06,1,777,0.785519123077393,airplane,airplane,15,0777_lp_s06_15_airplane_10_n02690373_9849.png
subject-06,1,778,1.21154093742371,oven,oven,0,0778_lp_s06_0_oven_10_n04111531_25647.png
subject-06,1,779,0.792312860488892,clock,clock,7,0779_lp_s06_7_clock_10_n04548280_2313.png
subject-06,1,780,0.544204950332642,chair,chair,1,0780_lp_s06_1_chair_10_n03376595_5876.png
subject-06,1,781,1.47301506996155,clock,clock,0,0781_lp_s06_0_clock_10_n03196217_1510.png
subject-06,1,782,0.571115970611572,cat,cat,1,0782_lp_s06_1_cat_10_n02123045_2029.png
subject-06,1,783,0.869375944137573,car,car,3,0783_lp_s06_3_car_10_n04285008_4769.png
subject-06,1,784,1.06004405021667,bicycle,clock,15,0784_lp_s06_15_clock_10_n03196217_2895.png
subject-06,1,785,1.19654011726379,knife,knife,1,0785_lp_s06_1_knife_10_n03041632_43436.png
subject-06,1,786,0.689016103744507,airplane,boat,10,0786_lp_s06_10_boat_10_n03344393_2525.png
subject-06,1,787,0.687180995941162,oven,oven,0,0787_lp_s06_0_oven_10_n04111531_627.png
subject-06,1,788,0.815823078155518,bird,bird,3,0788_lp_s06_3_bird_10_n01592084_7794.png
subject-06,1,789,0.875931024551392,chair,chair,3,0789_lp_s06_3_chair_10_n03376595_10889.png
subject-06,1,790,0.882522106170654,bear,chair,10,0790_lp_s06_10_chair_10_n02791124_4977.png
subject-06,1,791,1.17875790596008,knife,keyboard,0,0791_lp_s06_0_keyboard_10_n03085013_25875.png
subject-06,1,792,0.939490079879761,cat,cat,3,0792_lp_s06_3_cat_10_n02123597_4550.png
subject-06,1,793,1.02956485748291,cat,cat,3,0793_lp_s06_3_cat_10_n02123597_11421.png
subject-06,1,794,0.659330129623413,bicycle,bicycle,1,0794_lp_s06_1_bicycle_10_n03792782_7721.png
subject-06,1,795,0.993760108947754,cat,bird,40,0795_lp_s06_40_bird_10_n01818515_489.png
subject-06,1,796,1.06222200393677,bird,clock,40,0796_lp_s06_40_clock_10_n04548280_9196.png
subject-06,1,797,1.10698294639587,car,car,5,0797_lp_s06_5_car_10_n02814533_35745.png
subject-06,1,798,0.837199926376343,car,car,5,0798_lp_s06_5_car_10_n02814533_85659.png
subject-06,1,799,1.42014598846436,elephant,elephant,7,0799_lp_s06_7_elephant_10_n02504458_5337.png
subject-06,1,800,1.22664999961853,bicycle,bottle,7,0800_lp_s06_7_bottle_10_n03983396_1321.png
subject-06,1,801,1.08116698265076,oven,oven,0,0801_lp_s06_0_oven_10_n04111531_4250.png
subject-06,1,802,0.741456985473633,bear,bear,0,0802_lp_s06_0_bear_10_n02134084_6223.png
subject-06,1,803,0.947947025299072,bear,bird,7,0803_lp_s06_7_bird_10_n01622779_1671.png
subject-06,1,804,0.768061876296997,knife,knife,0,0804_lp_s06_0_knife_10_n03041632_9759.png
subject-06,1,805,0.636597871780396,cat,truck,40,0805_lp_s06_40_truck_10_n04467665_70995.png
subject-06,1,806,0.688944101333618,elephant,elephant,3,0806_lp_s06_3_elephant_10_n02504458_4010.png
subject-06,1,807,0.709064960479736,clock,clock,3,0807_lp_s06_3_clock_10_n02708093_1677.png
subject-06,1,808,0.877653837203979,elephant,elephant,5,0808_lp_s06_5_elephant_10_n02504458_8755.png
subject-06,1,809,1.00638294219971,bear,truck,10,0809_lp_s06_10_truck_10_n03796401_2866.png
subject-06,1,810,0.626004934310913,cat,cat,0,0810_lp_s06_0_cat_10_n02124075_11670.png
subject-06,1,811,1.03776788711548,car,car,7,0811_lp_s06_7_car_10_n02814533_39823.png
subject-06,1,812,0.85186505317688,cat,cat,3,0812_lp_s06_3_cat_10_n02123394_6335.png
subject-06,1,813,0.536102056503296,cat,cat,40,0813_lp_s06_40_cat_10_n02124075_4413.png
subject-06,1,814,1.42481994628906,chair,knife,5,0814_lp_s06_5_knife_10_n03041632_10999.png
subject-06,1,815,0.83941912651062,cat,cat,15,0815_lp_s06_15_cat_10_n02123597_13164.png
subject-06,1,816,0.607558965682983,boat,boat,10,0816_lp_s06_10_boat_10_n03344393_10327.png
subject-06,1,817,0.736135005950928,boat,bird,10,0817_lp_s06_10_bird_10_n02056570_10028.png
subject-06,1,818,0.666532039642334,elephant,elephant,3,0818_lp_s06_3_elephant_10_n02504013_19006.png
subject-06,1,819,0.82529616355896,cat,cat,1,0819_lp_s06_1_cat_10_n02125311_26779.png
subject-06,1,820,0.831511974334717,knife,knife,7,0820_lp_s06_7_knife_10_n03041632_38540.png
subject-06,1,821,0.814389944076538,cat,boat,10,0821_lp_s06_10_boat_10_n02951358_4968.png
subject-06,1,822,0.720697164535522,chair,chair,0,0822_lp_s06_0_chair_10_n03376595_6419.png
subject-06,1,823,0.881119966506958,cat,airplane,40,0823_lp_s06_40_airplane_10_n02690373_6602.png
subject-06,1,824,1.21741700172424,bird,bird,3,0824_lp_s06_3_bird_10_n01829413_14665.png
subject-06,1,825,0.639772891998291,cat,car,40,0825_lp_s06_40_car_10_n04285008_8451.png
subject-06,1,826,0.860291004180908,bear,bear,3,0826_lp_s06_3_bear_10_n02133161_1959.png
subject-06,1,827,1.08072996139526,knife,oven,10,0827_lp_s06_10_oven_10_n04111531_5328.png
subject-06,1,828,1.27348589897156,dog,dog,10,0828_lp_s06_10_dog_10_n02109047_8607.png
subject-06,1,829,0.695739030838013,knife,knife,7,0829_lp_s06_7_knife_10_n03041632_39840.png
subject-06,1,830,0.794106960296631,bottle,bear,40,0830_lp_s06_40_bear_10_n02134084_6869.png
subject-06,1,831,0.822735071182251,dog,cat,7,0831_lp_s06_7_cat_10_n02123045_1662.png
subject-06,1,832,0.558251142501831,bottle,bottle,1,0832_lp_s06_1_bottle_10_n04560804_2693.png
subject-06,1,833,0.894361972808838,truck,truck,0,0833_lp_s06_0_truck_10_n03417042_14809.png
subject-06,1,834,0.985006809234619,cat,car,40,0834_lp_s06_40_car_10_n04285008_662.png
subject-06,1,835,0.704946041107178,clock,clock,0,0835_lp_s06_0_clock_10_n04548280_6430.png
subject-06,1,836,0.565603017807007,bird,bird,1,0836_lp_s06_1_bird_10_n01855672_8032.png
subject-06,1,837,1.04815006256104,bird,dog,5,0837_lp_s06_5_dog_10_n02110806_20944.png
subject-06,1,838,1.07666683197021,bottle,bottle,40,0838_lp_s06_40_bottle_10_n04557648_3845.png
subject-06,1,839,0.823030948638916,bottle,bottle,3,0839_lp_s06_3_bottle_10_n04557648_4176.png
subject-06,1,840,0.821503162384033,bottle,clock,5,0840_lp_s06_5_clock_10_n04548280_8296.png
subject-06,1,841,0.678853034973145,bird,bird,1,0841_lp_s06_1_bird_10_n01558993_7366.png
subject-06,1,842,0.977090835571289,bear,bicycle,7,0842_lp_s06_7_bicycle_10_n03792782_7426.png
subject-06,1,843,0.6890709400177,clock,bottle,7,0843_lp_s06_7_bottle_10_n03983396_7999.png
subject-06,1,844,0.887532949447632,cat,cat,5,0844_lp_s06_5_cat_10_n02123597_7081.png
subject-06,1,845,0.885982990264893,elephant,elephant,5,0845_lp_s06_5_elephant_10_n02504458_8526.png
subject-06,1,846,1.2745680809021,car,car,10,0846_lp_s06_10_car_10_n02814533_211.png
subject-06,1,847,0.596851110458374,cat,bicycle,40,0847_lp_s06_40_bicycle_10_n02835271_10822.png
subject-06,1,848,1.07894515991211,knife,knife,1,0848_lp_s06_1_knife_10_n03041632_7064.png
subject-06,1,849,0.561144113540649,cat,bird,40,0849_lp_s06_40_bird_10_n01537544_12377.png
subject-06,1,850,0.929518938064575,keyboard,keyboard,5,0850_lp_s06_5_keyboard_10_n04505470_4624.png
subject-06,1,851,1.14240598678589,bottle,chair,15,0851_lp_s06_15_chair_10_n04099969_38476.png
subject-06,1,852,0.602751016616821,airplane,airplane,10,0852_lp_s06_10_airplane_10_n02690373_5779.png
subject-06,1,853,0.65518593788147,cat,oven,40,0853_lp_s06_40_oven_10_n04111531_10749.png
subject-06,1,854,0.837549924850464,cat,cat,0,0854_lp_s06_0_cat_10_n02124075_8133.png
subject-06,1,855,0.914021015167236,bear,oven,7,0855_lp_s06_7_oven_10_n04111531_5204.png
subject-06,1,856,0.772024869918823,bottle,bottle,1,0856_lp_s06_1_bottle_10_n03983396_13300.png
subject-06,1,857,0.746170997619629,cat,cat,10,0857_lp_s06_10_cat_10_n02123045_5093.png
subject-06,1,858,1.33639693260193,oven,knife,1,0858_lp_s06_1_knife_10_n03041632_14293.png
subject-06,1,859,0.764371871948242,bird,bird,0,0859_lp_s06_0_bird_10_n01796340_6328.png
subject-06,1,860,0.786950826644897,cat,airplane,40,0860_lp_s06_40_airplane_10_n02690373_3712.png
subject-06,1,861,0.747931957244873,bottle,knife,15,0861_lp_s06_15_knife_10_n03041632_7832.png
subject-06,1,862,0.806400060653687,bottle,elephant,40,0862_lp_s06_40_elephant_10_n02504458_8296.png
subject-06,1,863,1.26682496070862,airplane,airplane,1,0863_lp_s06_1_airplane_10_n02690373_3640.png
subject-06,1,864,0.665362119674683,cat,cat,3,0864_lp_s06_3_cat_10_n02125311_36957.png
subject-06,1,865,1.1400580406189,bicycle,bicycle,7,0865_lp_s06_7_bicycle_10_n03792782_1802.png
subject-06,1,866,0.93855619430542,bicycle,cat,3,0866_lp_s06_3_cat_10_n02124075_12567.png
subject-06,1,867,1.24258708953857,bear,bear,0,0867_lp_s06_0_bear_10_n02134418_2502.png
subject-06,1,868,0.651284217834473,clock,clock,7,0868_lp_s06_7_clock_10_n04548280_8454.png
subject-06,1,869,1.05583906173706,bird,bear,7,0869_lp_s06_7_bear_10_n02133161_2044.png
subject-06,1,870,1.36793112754822,chair,knife,7,0870_lp_s06_7_knife_10_n03041632_10140.png
subject-06,1,871,0.944406986236572,bottle,bottle,1,0871_lp_s06_1_bottle_10_n03937543_2999.png
subject-06,1,872,1.13998413085938,bird,boat,5,0872_lp_s06_5_boat_10_n02951358_1123.png
subject-06,1,873,1.02434706687927,boat,truck,10,0873_lp_s06_10_truck_10_n03417042_6903.png
subject-06,1,874,0.868793964385986,airplane,airplane,7,0874_lp_s06_7_airplane_10_n02690373_5789.png
subject-06,1,875,0.935548067092896,dog,dog,1,0875_lp_s06_1_dog_10_n02088632_8794.png
subject-06,1,876,1.39377999305725,chair,bicycle,7,0876_lp_s06_7_bicycle_10_n02835271_12981.png
subject-06,1,877,1.13833594322205,airplane,dog,15,0877_lp_s06_15_dog_10_n02093256_32770.png
subject-06,1,878,0.690877914428711,boat,boat,0,0878_lp_s06_0_boat_10_n02951358_5809.png
subject-06,1,879,1.14298820495605,bicycle,bicycle,10,0879_lp_s06_10_bicycle_10_n03792782_16433.png
subject-06,1,880,1.16321301460266,airplane,car,15,0880_lp_s06_15_car_10_n02814533_82879.png
subject-06,1,881,NaN,na,oven,7,0881_lp_s06_7_oven_10_n04111531_22413.png
subject-06,1,882,0.544242143630981,boat,boat,1,0882_lp_s06_1_boat_10_n03662601_2439.png
subject-06,1,883,0.78044319152832,bear,dog,10,0883_lp_s06_10_dog_10_n02113712_6618.png
subject-06,1,884,1.00923085212708,chair,cat,15,0884_lp_s06_15_cat_10_n02125311_4322.png
subject-06,1,885,0.99957013130188,cat,dog,7,0885_lp_s06_7_dog_10_n02110627_17377.png
subject-06,1,886,0.821203947067261,bottle,chair,15,0886_lp_s06_15_chair_10_n04099969_10516.png
subject-06,1,887,0.957477807998657,keyboard,car,10,0887_lp_s06_10_car_10_n04285008_5617.png
subject-06,1,888,1.05365800857544,bird,chair,5,0888_lp_s06_5_chair_10_n03376595_407.png
subject-06,1,889,0.905900001525879,airplane,airplane,7,0889_lp_s06_7_airplane_10_n02690373_9300.png
subject-06,1,890,0.820530891418457,cat,cat,1,0890_lp_s06_1_cat_10_n02123159_7035.png
subject-06,1,891,0.510615110397339,cat,cat,1,0891_lp_s06_1_cat_10_n02124075_11089.png
subject-06,1,892,1.21114015579224,car,car,7,0892_lp_s06_7_car_10_n02814533_23648.png
subject-06,1,893,1.00942087173462,airplane,airplane,7,0893_lp_s06_7_airplane_10_n02690373_1797.png
subject-06,1,894,0.953688144683838,cat,cat,7,0894_lp_s06_7_cat_10_n02123597_11529.png
subject-06,1,895,0.711471796035767,airplane,boat,10,0895_lp_s06_10_boat_10_n04273569_2886.png
subject-06,1,896,0.886089086532593,car,car,1,0896_lp_s06_1_car_10_n03100240_595.png
subject-06,1,897,0.808263063430786,car,car,7,0897_lp_s06_7_car_10_n02814533_32118.png
subject-06,1,898,0.790912866592407,bicycle,bicycle,0,0898_lp_s06_0_bicycle_10_n03792782_32622.png
subject-06,1,899,0.935020923614502,clock,clock,0,0899_lp_s06_0_clock_10_n03196217_3903.png
subject-06,1,900,1.06320285797119,airplane,knife,5,0900_lp_s06_5_knife_10_n03041632_29037.png
subject-06,1,901,0.961817026138306,clock,bottle,5,0901_lp_s06_5_bottle_10_n04560804_13184.png
subject-06,1,902,0.652137041091919,cat,dog,10,0902_lp_s06_10_dog_10_n02113023_11847.png
subject-06,1,903,1.08282589912415,cat,boat,40,0903_lp_s06_40_boat_10_n02951358_8446.png
subject-06,1,904,1.50039100646973,cat,bottle,40,0904_lp_s06_40_bottle_10_n04579145_3425.png
subject-06,1,905,1.10179495811462,cat,knife,15,0905_lp_s06_15_knife_10_n03041632_8540.png
subject-06,1,906,0.616116046905518,cat,oven,40,0906_lp_s06_40_oven_10_n04111531_12408.png
subject-06,1,907,1.20678186416626,dog,dog,1,0907_lp_s06_1_dog_10_n02091134_3046.png
subject-06,1,908,1.24101400375366,dog,dog,3,0908_lp_s06_3_dog_10_n02104029_2065.png
subject-06,1,909,0.963267087936401,dog,clock,10,0909_lp_s06_10_clock_10_n04548280_2788.png
subject-06,1,910,0.869452953338623,dog,bottle,10,0910_lp_s06_10_bottle_10_n02823428_3475.png
subject-06,1,911,1.14400291442871,bicycle,bicycle,5,0911_lp_s06_5_bicycle_10_n03792782_1513.png
subject-06,1,912,NaN,na,bottle,15,0912_lp_s06_15_bottle_10_n02823428_4215.png
subject-06,1,913,0.686965942382812,bear,truck,10,0913_lp_s06_10_truck_10_n03417042_6347.png
subject-06,1,914,0.617552995681763,bear,bear,0,0914_lp_s06_0_bear_10_n02132136_6388.png
subject-06,1,915,1.021812915802,airplane,airplane,3,0915_lp_s06_3_airplane_10_n02690373_9673.png
subject-06,1,916,NaN,na,clock,0,0916_lp_s06_0_clock_10_n04548280_2778.png
subject-06,1,917,0.580692052841187,cat,bear,10,0917_lp_s06_10_bear_10_n02134418_16.png
subject-06,1,918,0.79272985458374,chair,chair,7,0918_lp_s06_7_chair_10_n03376595_4346.png
subject-06,1,919,1.20542097091675,chair,clock,10,0919_lp_s06_10_clock_10_n02708093_7080.png
subject-06,1,920,0.935559034347534,bottle,bottle,5,0920_lp_s06_5_bottle_10_n04560804_28922.png
subject-06,1,921,1.34018087387085,chair,boat,15,0921_lp_s06_15_boat_10_n03662601_4734.png
subject-06,1,922,0.924868822097778,oven,oven,7,0922_lp_s06_7_oven_10_n04111531_3973.png
subject-06,1,923,0.931390047073364,bear,bear,1,0923_lp_s06_1_bear_10_n02133161_4375.png
subject-06,1,924,1.17375493049622,airplane,airplane,0,0924_lp_s06_0_airplane_10_n02690373_3054.png
subject-06,1,925,1.15032505989075,bird,chair,10,0925_lp_s06_10_chair_10_n03376595_17747.png
subject-06,1,926,1.07035398483276,keyboard,keyboard,5,0926_lp_s06_5_keyboard_10_n03085013_23277.png
subject-06,1,927,1.07643795013428,oven,oven,1,0927_lp_s06_1_oven_10_n04111531_10339.png
subject-06,1,928,1.11319494247437,cat,oven,3,0928_lp_s06_3_oven_10_n04111531_21366.png
subject-06,1,929,1.21767401695251,bird,bear,15,0929_lp_s06_15_bear_10_n02134418_4999.png
subject-06,1,930,1.02412509918213,bear,bear,5,0930_lp_s06_5_bear_10_n02134084_7670.png
subject-06,1,931,0.990056037902832,bottle,bottle,15,0931_lp_s06_15_bottle_10_n04591713_4641.png
subject-06,1,932,0.598669052124023,oven,cat,5,0932_lp_s06_5_cat_10_n02123159_4106.png
subject-06,1,933,0.856911897659302,bicycle,bicycle,0,0933_lp_s06_0_bicycle_10_n02835271_8573.png
subject-06,1,934,0.768928050994873,bear,bear,10,0934_lp_s06_10_bear_10_n02134418_3442.png
subject-06,1,935,1.05158495903015,cat,bear,1,0935_lp_s06_1_bear_10_n02134418_3115.png
subject-06,1,936,0.720091819763184,cat,clock,40,0936_lp_s06_40_clock_10_n03196217_1762.png
subject-06,1,937,1.46433401107788,cat,keyboard,40,0937_lp_s06_40_keyboard_10_n03085013_7285.png
subject-06,1,938,0.708743095397949,bear,bear,7,0938_lp_s06_7_bear_10_n02132136_3224.png
subject-06,1,939,0.760887861251831,cat,cat,0,0939_lp_s06_0_cat_10_n02123159_6702.png
subject-06,1,940,1.35742998123169,bear,oven,10,0940_lp_s06_10_oven_10_n04111531_4.png
subject-06,1,941,NaN,na,bicycle,10,0941_lp_s06_10_bicycle_10_n02835271_13649.png
subject-06,1,942,1.29211497306824,airplane,airplane,0,0942_lp_s06_0_airplane_10_n02690373_2042.png
subject-06,1,943,0.576611042022705,bicycle,bicycle,3,0943_lp_s06_3_bicycle_10_n02835271_6953.png
subject-06,1,944,0.7430419921875,bear,bird,10,0944_lp_s06_10_bird_10_n02007558_7317.png
subject-06,1,945,0.774829864501953,dog,dog,0,0945_lp_s06_0_dog_10_n02102040_6513.png
subject-06,1,946,0.856980085372925,bear,bird,7,0946_lp_s06_7_bird_10_n01601694_8491.png
subject-06,1,947,0.535398006439209,bear,bear,5,0947_lp_s06_5_bear_10_n02132136_12138.png
subject-06,1,948,0.595592975616455,cat,cat,3,0948_lp_s06_3_cat_10_n02123045_9309.png
subject-06,1,949,1.09212303161621,bottle,bottle,10,0949_lp_s06_10_bottle_10_n03983396_22326.png
subject-06,1,950,0.590651988983154,clock,clock,15,0950_lp_s06_15_clock_10_n02708093_3636.png
subject-06,1,951,0.843102931976318,car,car,1,0951_lp_s06_1_car_10_n04285008_3950.png
subject-06,1,952,1.24828886985779,dog,knife,10,0952_lp_s06_10_knife_10_n03041632_43975.png
subject-06,1,953,0.615884780883789,bottle,boat,40,0953_lp_s06_40_boat_10_n04612504_12857.png
subject-06,1,954,0.690291881561279,airplane,airplane,5,0954_lp_s06_5_airplane_10_n02690373_1950.png
subject-06,1,955,0.718583106994629,car,car,7,0955_lp_s06_7_car_10_n02814533_3594.png
subject-06,1,956,0.723203182220459,oven,oven,1,0956_lp_s06_1_oven_10_n04111531_21822.png
subject-06,1,957,0.636340141296387,boat,boat,5,0957_lp_s06_5_boat_10_n04273569_9493.png
subject-06,1,958,0.587160110473633,clock,clock,5,0958_lp_s06_5_clock_10_n04548280_1947.png
subject-06,1,959,1.04757499694824,bear,chair,40,0959_lp_s06_40_chair_10_n04429376_3193.png
subject-06,1,960,0.905452013015747,keyboard,keyboard,3,0960_lp_s06_3_keyboard_10_n03085013_20398.png
subject-06,1,961,0.866050958633423,cat,boat,40,0961_lp_s06_40_boat_10_n03344393_2552.png
subject-06,1,962,0.404371976852417,cat,airplane,40,0962_lp_s06_40_airplane_10_n02690373_20350.png
subject-06,1,963,1.12447786331177,car,boat,1,0963_lp_s06_1_boat_10_n03344393_5664.png
subject-06,1,964,0.64498496055603,truck,truck,1,0964_lp_s06_1_truck_10_n04467665_18665.png
subject-06,1,965,0.689271926879883,keyboard,boat,15,0965_lp_s06_15_boat_10_n04273569_7963.png
subject-06,1,966,0.757698059082031,bird,bird,15,0966_lp_s06_15_bird_10_n01530575_1728.png
subject-06,1,967,0.402138948440552,car,car,3,0967_lp_s06_3_car_10_n03100240_207.png
subject-06,1,968,0.730379104614258,keyboard,clock,3,0968_lp_s06_3_clock_10_n04548280_8552.png
subject-06,1,969,0.482410907745361,chair,chair,10,0969_lp_s06_10_chair_10_n04099969_11943.png
subject-06,1,970,0.448235034942627,car,car,5,0970_lp_s06_5_car_10_n03100240_2319.png
subject-06,1,971,0.692074060440063,car,oven,10,0971_lp_s06_10_oven_10_n04111531_1229.png
subject-06,1,972,0.674688100814819,knife,knife,1,0972_lp_s06_1_knife_10_n03041632_56217.png
subject-06,1,973,0.603026151657104,clock,clock,0,0973_lp_s06_0_clock_10_n03196217_3352.png
subject-06,1,974,0.747804164886475,keyboard,truck,15,0974_lp_s06_15_truck_10_n03417042_7764.png
subject-06,1,975,0.668031930923462,cat,clock,40,0975_lp_s06_40_clock_10_n04548280_23221.png
subject-06,1,976,0.696138143539429,bird,bird,15,0976_lp_s06_15_bird_10_n01582220_1571.png
subject-06,1,977,1.01662707328796,dog,knife,15,0977_lp_s06_15_knife_10_n03041632_4279.png
subject-06,1,978,0.571400165557861,cat,bear,40,0978_lp_s06_40_bear_10_n02133161_4914.png
subject-06,1,979,0.737720012664795,boat,truck,15,0979_lp_s06_15_truck_10_n04467665_2204.png
subject-06,1,980,0.536370992660522,airplane,airplane,1,0980_lp_s06_1_airplane_10_n02690373_10181.png
subject-06,1,981,0.618543863296509,elephant,elephant,7,0981_lp_s06_7_elephant_10_n02504013_7001.png
subject-06,1,982,0.655039072036743,dog,cat,7,0982_lp_s06_7_cat_10_n02123045_12632.png
subject-06,1,983,0.461401224136353,keyboard,keyboard,0,0983_lp_s06_0_keyboard_10_n04505470_5171.png
subject-06,1,984,0.814013004302979,bear,dog,10,0984_lp_s06_10_dog_10_n02099712_2671.png
subject-06,1,985,0.650604963302612,clock,clock,3,0985_lp_s06_3_clock_10_n03196217_5877.png
subject-06,1,986,0.632848024368286,elephant,elephant,3,0986_lp_s06_3_elephant_10_n02504013_5910.png
subject-06,1,987,0.631623029708862,car,car,3,0987_lp_s06_3_car_10_n03100240_6243.png
subject-06,1,988,0.69185209274292,bear,truck,15,0988_lp_s06_15_truck_10_n03417042_9693.png
subject-06,1,989,0.928315877914429,oven,clock,15,0989_lp_s06_15_clock_10_n04548280_4069.png
subject-06,1,990,0.940571069717407,cat,truck,40,0990_lp_s06_40_truck_10_n03417042_7849.png
subject-06,1,991,0.606565952301025,cat,keyboard,15,0991_lp_s06_15_keyboard_10_n03085013_19842.png
subject-06,1,992,0.550894021987915,boat,boat,5,0992_lp_s06_5_boat_10_n03662601_19771.png
subject-06,1,993,0.71932315826416,oven,clock,40,0993_lp_s06_40_clock_10_n02708093_7251.png
subject-06,1,994,0.501527786254883,boat,knife,5,0994_lp_s06_5_knife_10_n03041632_29886.png
subject-06,1,995,0.729816913604736,boat,boat,7,0995_lp_s06_7_boat_10_n02951358_4156.png
subject-06,1,996,0.596338987350464,cat,keyboard,40,0996_lp_s06_40_keyboard_10_n03085013_2064.png
subject-06,1,997,0.53225302696228,cat,oven,15,0997_lp_s06_15_oven_10_n04111531_274.png
subject-06,1,998,1.10089206695557,keyboard,keyboard,5,0998_lp_s06_5_keyboard_10_n04505470_5126.png
subject-06,1,999,0.952842950820923,bird,bird,5,0999_lp_s06_5_bird_10_n01824575_5573.png
subject-06,1,1000,0.743534088134766,truck,truck,1,1000_lp_s06_1_truck_10_n04467665_561.png
subject-06,1,1001,1.30188608169556,car,bottle,5,1001_lp_s06_5_bottle_10_n04560804_16219.png
subject-06,1,1002,0.746357917785645,airplane,airplane,3,1002_lp_s06_3_airplane_10_n02690373_2632.png
subject-06,1,1003,0.530796051025391,car,car,0,1003_lp_s06_0_car_10_n02814533_18129.png
subject-06,1,1004,0.63536810874939,clock,clock,0,1004_lp_s06_0_clock_10_n04548280_5299.png
subject-06,1,1005,0.725909948348999,cat,clock,40,1005_lp_s06_40_clock_10_n02708093_2742.png
subject-06,1,1006,0.915938854217529,car,cat,5,1006_lp_s06_5_cat_10_n02123597_1708.png
subject-06,1,1007,0.768671989440918,keyboard,keyboard,7,1007_lp_s06_7_keyboard_10_n03085013_4489.png
subject-06,1,1008,0.613162994384766,airplane,airplane,1,1008_lp_s06_1_airplane_10_n02690373_19646.png
subject-06,1,1009,0.603510856628418,oven,clock,10,1009_lp_s06_10_clock_10_n02708093_3171.png
subject-06,1,1010,0.96155309677124,bear,bird,5,1010_lp_s06_5_bird_10_n02013706_1456.png
subject-06,1,1011,0.722076892852783,cat,oven,40,1011_lp_s06_40_oven_10_n04111531_3905.png
subject-06,1,1012,0.851030826568604,bottle,bear,7,1012_lp_s06_7_bear_10_n02134418_3073.png
subject-06,1,1013,1.19517397880554,knife,knife,0,1013_lp_s06_0_knife_10_n03041632_1661.png
subject-06,1,1014,0.839436054229736,chair,knife,5,1014_lp_s06_5_knife_10_n03041632_102887.png
subject-06,1,1015,0.608035087585449,bear,bear,3,1015_lp_s06_3_bear_10_n02134418_3142.png
subject-06,1,1016,0.505942106246948,boat,boat,3,1016_lp_s06_3_boat_10_n03662601_16943.png
subject-06,1,1017,0.510066986083984,keyboard,keyboard,0,1017_lp_s06_0_keyboard_10_n04505470_5153.png
subject-06,1,1018,1.50031113624573,bicycle,knife,3,1018_lp_s06_3_knife_10_n03041632_80829.png
subject-06,1,1019,0.837096929550171,boat,bottle,5,1019_lp_s06_5_bottle_10_n03937543_4586.png
subject-06,1,1020,0.410993099212646,boat,boat,3,1020_lp_s06_3_boat_10_n03662601_14049.png
subject-06,1,1021,0.815131902694702,keyboard,keyboard,1,1021_lp_s06_1_keyboard_10_n04505470_2130.png
subject-06,1,1022,0.61292290687561,chair,chair,5,1022_lp_s06_5_chair_10_n02791124_5684.png
subject-06,1,1023,1.05701899528503,dog,cat,10,1023_lp_s06_10_cat_10_n02125311_6746.png
subject-06,1,1024,1.21547317504883,keyboard,oven,7,1024_lp_s06_7_oven_10_n04111531_22138.png
subject-06,1,1025,0.684166193008423,truck,truck,1,1025_lp_s06_1_truck_10_n04467665_13898.png
subject-06,1,1026,0.652574062347412,keyboard,knife,15,1026_lp_s06_15_knife_10_n03041632_28443.png
subject-06,1,1027,1.02699112892151,keyboard,bottle,40,1027_lp_s06_40_bottle_10_n04591713_1834.png
subject-06,1,1028,0.763587951660156,car,car,10,1028_lp_s06_10_car_10_n02814533_65256.png
subject-06,1,1029,0.646219968795776,bottle,bottle,0,1029_lp_s06_0_bottle_10_n04560804_14584.png
subject-06,1,1030,0.860429048538208,cat,cat,40,1030_lp_s06_40_cat_10_n02123159_1189.png
subject-06,1,1031,0.75639009475708,clock,clock,10,1031_lp_s06_10_clock_10_n04548280_4302.png
subject-06,1,1032,0.754553079605103,clock,clock,1,1032_lp_s06_1_clock_10_n04548280_2747.png
subject-06,1,1033,0.468814134597778,clock,clock,1,1033_lp_s06_1_clock_10_n04548280_1810.png
subject-06,1,1034,0.643008947372437,chair,chair,7,1034_lp_s06_7_chair_10_n04429376_4675.png
subject-06,1,1035,1.07165288925171,cat,cat,10,1035_lp_s06_10_cat_10_n02123159_1968.png
subject-06,1,1036,0.748357057571411,truck,truck,3,1036_lp_s06_3_truck_10_n04467665_829.png
subject-06,1,1037,0.730190992355347,car,car,10,1037_lp_s06_10_car_10_n02814533_24801.png
subject-06,1,1038,0.636800050735474,car,car,5,1038_lp_s06_5_car_10_n04285008_1478.png
subject-06,1,1039,0.603368997573853,elephant,elephant,5,1039_lp_s06_5_elephant_10_n02504458_395.png
subject-06,1,1040,0.793689012527466,bird,dog,7,1040_lp_s06_7_dog_10_n02102040_1222.png
subject-06,1,1041,0.884268999099731,car,oven,3,1041_lp_s06_3_oven_10_n04111531_6955.png
subject-06,1,1042,0.806560039520264,elephant,elephant,0,1042_lp_s06_0_elephant_10_n02504013_6476.png
subject-06,1,1043,0.626453161239624,knife,knife,15,1043_lp_s06_15_knife_10_n03041632_17067.png
subject-06,1,1044,0.600955009460449,car,car,1,1044_lp_s06_1_car_10_n03100240_3395.png
subject-06,1,1045,0.753273010253906,bicycle,bicycle,7,1045_lp_s06_7_bicycle_10_n02835271_13756.png
subject-06,1,1046,0.811337947845459,knife,clock,15,1046_lp_s06_15_clock_10_n04548280_5843.png
subject-06,1,1047,0.633384943008423,bicycle,bird,5,1047_lp_s06_5_bird_10_n01819313_8704.png
subject-06,1,1048,0.785650968551636,bicycle,bottle,15,1048_lp_s06_15_bottle_10_n04557648_606.png
subject-06,1,1049,0.782234191894531,bear,bear,1,1049_lp_s06_1_bear_10_n02132136_3196.png
subject-06,1,1050,0.620232105255127,cat,elephant,40,1050_lp_s06_40_elephant_10_n02504013_13384.png
subject-06,1,1051,0.924823045730591,bicycle,airplane,5,1051_lp_s06_5_airplane_10_n02690373_10188.png
subject-06,1,1052,0.607160091400146,car,car,5,1052_lp_s06_5_car_10_n03100240_8884.png
subject-06,1,1053,0.583708047866821,cat,car,40,1053_lp_s06_40_car_10_n02814533_19620.png
subject-06,1,1054,0.774316787719727,cat,chair,10,1054_lp_s06_10_chair_10_n02791124_665.png
subject-06,1,1055,0.488960981369019,clock,clock,3,1055_lp_s06_3_clock_10_n04548280_3318.png
subject-06,1,1056,0.471130847930908,oven,oven,1,1056_lp_s06_1_oven_10_n04111531_14279.png
subject-06,1,1057,1.18335103988647,bird,bottle,40,1057_lp_s06_40_bottle_10_n03937543_751.png
subject-06,1,1058,0.535815000534058,airplane,airplane,7,1058_lp_s06_7_airplane_10_n02690373_9170.png
subject-06,1,1059,0.625921964645386,airplane,boat,7,1059_lp_s06_7_boat_10_n02951358_9550.png
subject-06,1,1060,0.886611938476562,truck,truck,1,1060_lp_s06_1_truck_10_n03417042_3351.png
subject-06,1,1061,0.890890121459961,elephant,elephant,5,1061_lp_s06_5_elephant_10_n02504458_3491.png
subject-06,1,1062,0.705119848251343,bicycle,bird,7,1062_lp_s06_7_bird_10_n01592084_5278.png
subject-06,1,1063,0.687520980834961,keyboard,keyboard,7,1063_lp_s06_7_keyboard_10_n03085013_4941.png
subject-06,1,1064,1.39877200126648,keyboard,car,15,1064_lp_s06_15_car_10_n02814533_8121.png
subject-06,1,1065,0.727476119995117,bird,bicycle,15,1065_lp_s06_15_bicycle_10_n03792782_7048.png
subject-06,1,1066,0.987942934036255,bear,chair,15,1066_lp_s06_15_chair_10_n04429376_9212.png
subject-06,1,1067,0.661946058273315,bear,cat,5,1067_lp_s06_5_cat_10_n02123045_2902.png
subject-06,1,1068,1.4146101474762,bird,bird,5,1068_lp_s06_5_bird_10_n01819313_1234.png
subject-06,1,1069,0.858819007873535,car,truck,3,1069_lp_s06_3_truck_10_n03417042_7376.png
subject-06,1,1070,1.11721920967102,bird,dog,10,1070_lp_s06_10_dog_10_n02098286_5591.png
subject-06,1,1071,0.593770027160645,cat,boat,40,1071_lp_s06_40_boat_10_n03662601_10183.png
subject-06,1,1072,0.522226095199585,car,car,7,1072_lp_s06_7_car_10_n04285008_3393.png
subject-06,1,1073,1.05868291854858,airplane,airplane,10,1073_lp_s06_10_airplane_10_n02690373_9535.png
subject-06,1,1074,0.664738893508911,bicycle,bicycle,7,1074_lp_s06_7_bicycle_10_n02835271_25268.png
subject-06,1,1075,0.613409042358398,bear,bear,5,1075_lp_s06_5_bear_10_n02132136_2771.png
subject-06,1,1076,0.933662891387939,bear,dog,7,1076_lp_s06_7_dog_10_n02095570_1176.png
subject-06,1,1077,0.864109039306641,car,car,7,1077_lp_s06_7_car_10_n04285008_9393.png
subject-06,1,1078,0.998497009277344,boat,boat,1,1078_lp_s06_1_boat_10_n03662601_35089.png
subject-06,1,1079,0.874955892562866,cat,dog,40,1079_lp_s06_40_dog_10_n02106030_4515.png
subject-06,1,1080,0.511444091796875,cat,dog,40,1080_lp_s06_40_dog_10_n02107683_6781.png
subject-06,1,1081,0.539703845977783,airplane,airplane,10,1081_lp_s06_10_airplane_10_n02690373_18693.png
subject-06,1,1082,0.52920389175415,clock,clock,7,1082_lp_s06_7_clock_10_n03196217_6185.png
subject-06,1,1083,0.810683012008667,keyboard,clock,15,1083_lp_s06_15_clock_10_n04548280_7808.png
subject-06,1,1084,0.769186973571777,chair,bottle,10,1084_lp_s06_10_bottle_10_n04591713_1692.png
subject-06,1,1085,0.827510118484497,bird,bird,0,1085_lp_s06_0_bird_10_n01829413_5599.png
subject-06,1,1086,0.758188009262085,elephant,elephant,0,1086_lp_s06_0_elephant_10_n02504458_5523.png
subject-06,1,1087,0.749109983444214,dog,dog,0,1087_lp_s06_0_dog_10_n02111500_9336.png
subject-06,1,1088,0.915160894393921,elephant,bicycle,15,1088_lp_s06_15_bicycle_10_n03792782_1989.png
subject-06,1,1089,0.805317163467407,bird,bird,7,1089_lp_s06_7_bird_10_n01860187_790.png
