subj,session,trial,rt,object_response,category,condition,imagename
subject-03,1,1,1.08315110206604,clock,bird,40,0001_lp_s03_40_bird_10_n01601694_4214.png
subject-03,1,2,1.02044200897217,cat,boat,15,0002_lp_s03_15_boat_10_n03344393_6588.png
subject-03,1,3,0.939671039581299,boat,boat,1,0003_lp_s03_1_boat_10_n04273569_15190.png
subject-03,1,4,1.15618300437927,bottle,clock,7,0004_lp_s03_7_clock_10_n03196217_2307.png
subject-03,1,5,1.27858710289001,bird,bird,5,0005_lp_s03_5_bird_10_n01855032_15091.png
subject-03,1,6,0.824084997177124,oven,oven,5,0006_lp_s03_5_oven_10_n04111531_550.png
subject-03,1,7,0.932065010070801,bird,car,15,0007_lp_s03_15_car_10_n03100240_6479.png
subject-03,1,8,0.992316007614136,bicycle,bicycle,0,0008_lp_s03_0_bicycle_10_n02835271_8857.png
subject-03,1,9,1.16267395019531,oven,oven,3,0009_lp_s03_3_oven_10_n04111531_7821.png
subject-03,1,10,1.14707589149475,keyboard,bird,40,0010_lp_s03_40_bird_10_n01818515_44057.png
subject-03,1,11,1.1156919002533,chair,chair,5,0011_lp_s03_5_chair_10_n03376595_6973.png
subject-03,1,12,0.810183048248291,bicycle,bicycle,5,0012_lp_s03_5_bicycle_10_n03792782_16728.png
subject-03,1,13,1.40768909454346,bird,bird,15,0013_lp_s03_15_bird_10_n01843065_2596.png
subject-03,1,14,1.20036602020264,car,truck,3,0014_lp_s03_3_truck_10_n03417042_29083.png
subject-03,1,15,0.921978950500488,bottle,clock,7,0015_lp_s03_7_clock_10_n04548280_10476.png
subject-03,1,16,1.19193196296692,clock,dog,40,0016_lp_s03_40_dog_10_n02091831_8775.png
subject-03,1,17,1.06825518608093,bicycle,bicycle,3,0017_lp_s03_3_bicycle_10_n03792782_23334.png
subject-03,1,18,1.38217902183533,oven,boat,5,0018_lp_s03_5_boat_10_n04273569_12425.png
subject-03,1,19,1.28258585929871,chair,bird,40,0019_lp_s03_40_bird_10_n02025239_7258.png
subject-03,1,20,1.25110101699829,keyboard,boat,10,0020_lp_s03_10_boat_10_n02951358_3252.png
subject-03,1,21,1.21379113197327,bird,boat,15,0021_lp_s03_15_boat_10_n03344393_1558.png
subject-03,1,22,NaN,na,oven,5,0022_lp_s03_5_oven_10_n04111531_9424.png
subject-03,1,23,0.898094177246094,elephant,elephant,3,0023_lp_s03_3_elephant_10_n02504013_7351.png
subject-03,1,24,0.973992109298706,oven,elephant,40,0024_lp_s03_40_elephant_10_n02504458_3329.png
subject-03,1,25,1.14197206497192,oven,truck,40,0025_lp_s03_40_truck_10_n03796401_7380.png
subject-03,1,26,0.766083955764771,keyboard,keyboard,10,0026_lp_s03_10_keyboard_10_n04505470_440.png
subject-03,1,27,1.25835204124451,elephant,elephant,10,0027_lp_s03_10_elephant_10_n02504013_1824.png
subject-03,1,28,1.5000159740448,bird,bear,7,0028_lp_s03_7_bear_10_n02134084_21170.png
subject-03,1,29,1.46550607681274,airplane,airplane,0,0029_lp_s03_0_airplane_10_n02690373_8815.png
subject-03,1,30,1.38209795951843,airplane,airplane,3,0030_lp_s03_3_airplane_10_n02690373_5992.png
subject-03,1,31,1.00388884544373,cat,boat,40,0031_lp_s03_40_boat_10_n03344393_5103.png
subject-03,1,32,1.21790599822998,bear,bear,15,0032_lp_s03_15_bear_10_n02133161_4262.png
subject-03,1,33,1.46395301818848,bird,car,40,0033_lp_s03_40_car_10_n02814533_4856.png
subject-03,1,34,1.03221797943115,airplane,airplane,15,0034_lp_s03_15_airplane_10_n02690373_5729.png
subject-03,1,35,1.37084007263184,dog,elephant,5,0035_lp_s03_5_elephant_10_n02504458_10829.png
subject-03,1,36,0.957165956497192,chair,chair,1,0036_lp_s03_1_chair_10_n03376595_11839.png
subject-03,1,37,1.37992000579834,clock,chair,40,0037_lp_s03_40_chair_10_n04099969_51324.png
subject-03,1,38,1.15631604194641,truck,truck,1,0038_lp_s03_1_truck_10_n03796401_2988.png
subject-03,1,39,1.31857204437256,elephant,truck,3,0039_lp_s03_3_truck_10_n03796401_3376.png
subject-03,1,40,1.40840196609497,chair,bicycle,3,0040_lp_s03_3_bicycle_10_n02835271_949.png
subject-03,1,41,1.07899808883667,cat,dog,10,0041_lp_s03_10_dog_10_n02105251_1844.png
subject-03,1,42,0.830663919448853,clock,knife,40,0042_lp_s03_40_knife_10_n03041632_22190.png
subject-03,1,43,0.85318398475647,boat,boat,1,0043_lp_s03_1_boat_10_n03662601_4343.png
subject-03,1,44,NaN,na,oven,10,0044_lp_s03_10_oven_10_n04111531_9123.png
subject-03,1,45,1.14621996879578,bottle,bottle,1,0045_lp_s03_1_bottle_10_n04557648_2744.png
subject-03,1,46,0.968484878540039,airplane,airplane,0,0046_lp_s03_0_airplane_10_n02690373_10231.png
subject-03,1,47,1.19801902770996,oven,boat,10,0047_lp_s03_10_boat_10_n04273569_12917.png
subject-03,1,48,1.10686087608337,bottle,bear,5,0048_lp_s03_5_bear_10_n02133161_3544.png
subject-03,1,49,1.35892415046692,dog,bird,5,0049_lp_s03_5_bird_10_n01820546_6752.png
subject-03,1,50,1.38940596580505,cat,bird,1,0050_lp_s03_1_bird_10_n01833805_8820.png
subject-03,1,51,1.07328701019287,oven,car,7,0051_lp_s03_7_car_10_n03100240_14436.png
subject-03,1,52,0.949334144592285,airplane,airplane,7,0052_lp_s03_7_airplane_10_n02690373_5382.png
subject-03,1,53,1.19138503074646,boat,airplane,3,0053_lp_s03_3_airplane_10_n02690373_8704.png
subject-03,1,54,1.07527613639832,airplane,airplane,0,0054_lp_s03_0_airplane_10_n02690373_5003.png
subject-03,1,55,1.14341306686401,oven,knife,10,0055_lp_s03_10_knife_10_n03041632_29827.png
subject-03,1,56,1.44999885559082,bird,elephant,5,0056_lp_s03_5_elephant_10_n02504458_817.png
subject-03,1,57,0.888638019561768,airplane,airplane,7,0057_lp_s03_7_airplane_10_n02690373_7573.png
subject-03,1,58,1.21071290969849,cat,bicycle,15,0058_lp_s03_15_bicycle_10_n03792782_50446.png
subject-03,1,59,1.50038719177246,bottle,bird,40,0059_lp_s03_40_bird_10_n02056570_9055.png
subject-03,1,60,1.03357291221619,keyboard,keyboard,1,0060_lp_s03_1_keyboard_10_n03085013_24296.png
subject-03,1,61,1.14773392677307,cat,bird,15,0061_lp_s03_15_bird_10_n01532829_2534.png
subject-03,1,62,1.21813416481018,bird,bear,40,0062_lp_s03_40_bear_10_n02133161_1339.png
subject-03,1,63,0.994632959365845,truck,truck,1,0063_lp_s03_1_truck_10_n03417042_4790.png
subject-03,1,64,1.37656617164612,bear,truck,15,0064_lp_s03_15_truck_10_n03417042_11602.png
subject-03,1,65,1.08546304702759,bear,bear,0,0065_lp_s03_0_bear_10_n02133161_3111.png
subject-03,1,66,1.14578986167908,bird,truck,10,0066_lp_s03_10_truck_10_n03417042_10038.png
subject-03,1,67,1.362459897995,dog,dog,5,0067_lp_s03_5_dog_10_n02096437_8330.png
subject-03,1,68,0.992486953735352,bicycle,bicycle,1,0068_lp_s03_1_bicycle_10_n03792782_7438.png
subject-03,1,69,1.28283596038818,cat,bird,10,0069_lp_s03_10_bird_10_n01828970_2671.png
subject-03,1,70,0.685050010681152,clock,clock,10,0070_lp_s03_10_clock_10_n04548280_3708.png
subject-03,1,71,1.49999904632568,bird,knife,7,0071_lp_s03_7_knife_10_n03041632_3079.png
subject-03,1,72,0.935742139816284,keyboard,keyboard,0,0072_lp_s03_0_keyboard_10_n03085013_7792.png
subject-03,1,73,0.856198072433472,cat,dog,0,0073_lp_s03_0_dog_10_n02105855_13663.png
subject-03,1,74,1.1705060005188,chair,chair,5,0074_lp_s03_5_chair_10_n02791124_3109.png
subject-03,1,75,1.48485612869263,oven,airplane,15,0075_lp_s03_15_airplane_10_n02690373_629.png
subject-03,1,76,0.769222974777222,cat,cat,10,0076_lp_s03_10_cat_10_n02125311_18383.png
subject-03,1,77,1.15297508239746,oven,cat,40,0077_lp_s03_40_cat_10_n02125311_20134.png
subject-03,1,78,1.08325004577637,bird,bird,1,0078_lp_s03_1_bird_10_n02009912_6461.png
subject-03,1,79,0.789264917373657,airplane,airplane,0,0079_lp_s03_0_airplane_10_n02690373_1094.png
subject-03,1,80,1.0199830532074,cat,dog,0,0080_lp_s03_0_dog_10_n02106030_14406.png
subject-03,1,81,1.0962290763855,boat,boat,0,0081_lp_s03_0_boat_10_n02951358_29724.png
subject-03,1,82,1.06470489501953,knife,knife,7,0082_lp_s03_7_knife_10_n03041632_42472.png
subject-03,1,83,1.35688185691833,airplane,bear,10,0083_lp_s03_10_bear_10_n02134418_4605.png
subject-03,1,84,1.35776996612549,cat,truck,15,0084_lp_s03_15_truck_10_n03796401_4899.png
subject-03,1,85,1.500244140625,bird,cat,10,0085_lp_s03_10_cat_10_n02123597_165.png
subject-03,1,86,1.28659892082214,elephant,chair,15,0086_lp_s03_15_chair_10_n04429376_4391.png
subject-03,1,87,1.03268694877625,oven,elephant,7,0087_lp_s03_7_elephant_10_n02504013_815.png
subject-03,1,88,0.854899883270264,cat,bicycle,15,0088_lp_s03_15_bicycle_10_n02835271_6736.png
subject-03,1,89,1.49350094795227,bird,car,15,0089_lp_s03_15_car_10_n04285008_1112.png
subject-03,1,90,1.20207285881042,bird,cat,15,0090_lp_s03_15_cat_10_n02125311_21076.png
subject-03,1,91,0.724068880081177,bicycle,bicycle,3,0091_lp_s03_3_bicycle_10_n02835271_20907.png
subject-03,1,92,1.48478102684021,dog,bicycle,15,0092_lp_s03_15_bicycle_10_n02835271_1345.png
subject-03,1,93,NaN,na,bottle,15,0093_lp_s03_15_bottle_10_n04560804_1846.png
subject-03,1,94,1.17515182495117,car,car,5,0094_lp_s03_5_car_10_n03100240_1216.png
subject-03,1,95,0.905849933624268,bottle,bottle,1,0095_lp_s03_1_bottle_10_n04579145_7667.png
subject-03,1,96,1.05235910415649,car,car,0,0096_lp_s03_0_car_10_n02814533_5663.png
subject-03,1,97,1.41249179840088,bird,bear,3,0097_lp_s03_3_bear_10_n02132136_7318.png
subject-03,1,98,0.966931819915771,keyboard,keyboard,7,0098_lp_s03_7_keyboard_10_n03085013_14810.png
subject-03,1,99,1.03748297691345,cat,airplane,5,0099_lp_s03_5_airplane_10_n02690373_2109.png
subject-03,1,100,0.959665060043335,boat,car,15,0100_lp_s03_15_car_10_n03100240_484.png
subject-03,1,101,1.28233599662781,boat,boat,7,0101_lp_s03_7_boat_10_n04273569_23957.png
subject-03,1,102,1.12678098678589,bird,knife,15,0102_lp_s03_15_knife_10_n03041632_17091.png
subject-03,1,103,1.33519005775452,boat,bird,1,0103_lp_s03_1_bird_10_n01616318_18850.png
subject-03,1,104,1.4413800239563,bird,bottle,7,0104_lp_s03_7_bottle_10_n04560804_10728.png
subject-03,1,105,1.43951988220215,clock,knife,3,0105_lp_s03_3_knife_10_n03041632_45338.png
subject-03,1,106,1.3779890537262,bird,bird,5,0106_lp_s03_5_bird_10_n02009229_925.png
subject-03,1,107,NaN,na,bicycle,15,0107_lp_s03_15_bicycle_10_n03792782_32806.png
subject-03,1,108,1.18471622467041,car,dog,0,0108_lp_s03_0_dog_10_n02092339_7697.png
subject-03,1,109,1.30745816230774,dog,dog,10,0109_lp_s03_10_dog_10_n02093859_4389.png
subject-03,1,110,0.999393939971924,keyboard,keyboard,1,0110_lp_s03_1_keyboard_10_n03085013_8714.png
subject-03,1,111,1.06765699386597,oven,car,10,0111_lp_s03_10_car_10_n03100240_976.png
subject-03,1,112,NaN,na,dog,3,0112_lp_s03_3_dog_10_n02106550_10993.png
subject-03,1,113,1.32035899162292,cat,chair,15,0113_lp_s03_15_chair_10_n04099969_4205.png
subject-03,1,114,0.866355180740356,bird,boat,40,0114_lp_s03_40_boat_10_n03344393_6607.png
subject-03,1,115,0.956550121307373,car,car,7,0115_lp_s03_7_car_10_n03100240_920.png
subject-03,1,116,0.918874025344849,boat,bird,15,0116_lp_s03_15_bird_10_n01514859_10534.png
subject-03,1,117,1.28766202926636,clock,chair,3,0117_lp_s03_3_chair_10_n04429376_48087.png
subject-03,1,118,0.787800073623657,cat,cat,0,0118_lp_s03_0_cat_10_n02124075_8381.png
subject-03,1,119,0.994075059890747,car,car,1,0119_lp_s03_1_car_10_n02814533_18068.png
subject-03,1,120,1.50023198127747,elephant,chair,7,0120_lp_s03_7_chair_10_n04429376_11956.png
subject-03,1,121,NaN,na,dog,40,0121_lp_s03_40_dog_10_n02089973_4881.png
subject-03,1,122,0.885586977005005,cat,cat,7,0122_lp_s03_7_cat_10_n02123045_11459.png
subject-03,1,123,1.03797698020935,elephant,elephant,1,0123_lp_s03_1_elephant_10_n02504458_758.png
subject-03,1,124,1.17575693130493,airplane,knife,10,0124_lp_s03_10_knife_10_n03041632_40530.png
subject-03,1,125,1.25855898857117,cat,knife,5,0125_lp_s03_5_knife_10_n03041632_91582.png
subject-03,1,126,1.02062797546387,bird,cat,7,0126_lp_s03_7_cat_10_n02125311_22713.png
subject-03,1,127,1.24845409393311,cat,airplane,40,0127_lp_s03_40_airplane_10_n02690373_4175.png
subject-03,1,128,1.43260407447815,car,oven,7,0128_lp_s03_7_oven_10_n04111531_22327.png
subject-03,1,129,0.784703969955444,bicycle,bicycle,3,0129_lp_s03_3_bicycle_10_n02835271_14383.png
subject-03,1,130,1.50003886222839,airplane,airplane,3,0130_lp_s03_3_airplane_10_n02690373_2203.png
subject-03,1,131,1.01336312294006,keyboard,keyboard,0,0131_lp_s03_0_keyboard_10_n04505470_550.png
subject-03,1,132,1.09006404876709,cat,cat,5,0132_lp_s03_5_cat_10_n02125311_7991.png
subject-03,1,133,0.973943948745728,cat,chair,10,0133_lp_s03_10_chair_10_n04099969_18463.png
subject-03,1,134,0.944581031799316,bird,truck,10,0134_lp_s03_10_truck_10_n04467665_30581.png
subject-03,1,135,1.33992719650269,car,bird,7,0135_lp_s03_7_bird_10_n01558993_13294.png
subject-03,1,136,1.19381308555603,airplane,chair,5,0136_lp_s03_5_chair_10_n03376595_6652.png
subject-03,1,137,1.07588505744934,cat,bird,10,0137_lp_s03_10_bird_10_n01558993_6059.png
subject-03,1,138,1.29833197593689,cat,bicycle,10,0138_lp_s03_10_bicycle_10_n03792782_14907.png
subject-03,1,139,1.50044298171997,dog,oven,3,0139_lp_s03_3_oven_10_n04111531_12408.png
subject-03,1,140,1.50022387504578,boat,boat,10,0140_lp_s03_10_boat_10_n04273569_13227.png
subject-03,1,141,NaN,na,bird,1,0141_lp_s03_1_bird_10_n02006656_18341.png
subject-03,1,142,0.986285924911499,cat,dog,10,0142_lp_s03_10_dog_10_n02111277_9800.png
subject-03,1,143,0.940568923950195,cat,oven,0,0143_lp_s03_0_oven_10_n04111531_4662.png
subject-03,1,144,1.17699193954468,bird,elephant,7,0144_lp_s03_7_elephant_10_n02504458_13293.png
subject-03,1,145,0.953113079071045,boat,bird,3,0145_lp_s03_3_bird_10_n02006656_1910.png
subject-03,1,146,1.01565384864807,cat,oven,10,0146_lp_s03_10_oven_10_n04111531_9178.png
subject-03,1,147,1.13013792037964,bear,elephant,10,0147_lp_s03_10_elephant_10_n02504013_524.png
subject-03,1,148,1.21233201026917,bird,bird,7,0148_lp_s03_7_bird_10_n01795545_6791.png
subject-03,1,149,0.942875862121582,cat,keyboard,40,0149_lp_s03_40_keyboard_10_n04505470_5022.png
subject-03,1,150,1.01108908653259,bottle,bottle,1,0150_lp_s03_1_bottle_10_n02823428_12322.png
subject-03,1,151,1.21155905723572,dog,oven,5,0151_lp_s03_5_oven_10_n04111531_13797.png
subject-03,1,152,1.26322889328003,bird,bird,1,0152_lp_s03_1_bird_10_n02028035_4712.png
subject-03,1,153,1.21578407287598,cat,cat,10,0153_lp_s03_10_cat_10_n02125311_12587.png
subject-03,1,154,0.991806983947754,airplane,airplane,1,0154_lp_s03_1_airplane_10_n02690373_13078.png
subject-03,1,155,1.24440884590149,keyboard,oven,3,0155_lp_s03_3_oven_10_n04111531_9831.png
subject-03,1,156,1.04488205909729,bottle,cat,40,0156_lp_s03_40_cat_10_n02124075_13685.png
subject-03,1,157,1.50031805038452,boat,boat,1,0157_lp_s03_1_boat_10_n02951358_11567.png
subject-03,1,158,1.26614379882812,bird,truck,40,0158_lp_s03_40_truck_10_n03417042_18699.png
subject-03,1,159,0.996647834777832,keyboard,keyboard,7,0159_lp_s03_7_keyboard_10_n03085013_7520.png
subject-03,1,160,1.0487859249115,cat,bird,15,0160_lp_s03_15_bird_10_n02007558_5995.png
subject-03,1,161,1.01163196563721,bird,boat,7,0161_lp_s03_7_boat_10_n04273569_16739.png
subject-03,1,162,0.612246036529541,bicycle,bicycle,3,0162_lp_s03_3_bicycle_10_n03792782_1955.png
subject-03,1,163,1.02596116065979,cat,knife,40,0163_lp_s03_40_knife_10_n03041632_28710.png
subject-03,1,164,0.748596906661987,car,car,3,0164_lp_s03_3_car_10_n03100240_15820.png
subject-03,1,165,0.970818996429443,bottle,bottle,40,0165_lp_s03_40_bottle_10_n03983396_3690.png
subject-03,1,166,0.871297836303711,oven,oven,10,0166_lp_s03_10_oven_10_n04111531_5212.png
subject-03,1,167,0.839867830276489,clock,clock,1,0167_lp_s03_1_clock_10_n03196217_1275.png
subject-03,1,168,1.03824186325073,cat,cat,15,0168_lp_s03_15_cat_10_n02123597_8005.png
subject-03,1,169,0.983867168426514,airplane,airplane,3,0169_lp_s03_3_airplane_10_n02690373_5016.png
subject-03,1,170,0.628431081771851,cat,cat,10,0170_lp_s03_10_cat_10_n02125311_17101.png
subject-03,1,171,1.39672899246216,bird,truck,15,0171_lp_s03_15_truck_10_n03417042_4613.png
subject-03,1,172,0.897327899932861,airplane,oven,10,0172_lp_s03_10_oven_10_n04111531_9982.png
subject-03,1,173,0.941530227661133,cat,bear,15,0173_lp_s03_15_bear_10_n02132136_8358.png
subject-03,1,174,0.942004203796387,chair,knife,5,0174_lp_s03_5_knife_10_n03041632_13742.png
subject-03,1,175,0.780681848526001,clock,clock,0,0175_lp_s03_0_clock_10_n04548280_2111.png
subject-03,1,176,0.832681894302368,cat,chair,40,0176_lp_s03_40_chair_10_n04429376_26032.png
subject-03,1,177,1.06943893432617,clock,clock,3,0177_lp_s03_3_clock_10_n04548280_1327.png
subject-03,1,178,1.50041007995605,bird,bear,15,0178_lp_s03_15_bear_10_n02132136_2198.png
subject-03,1,179,0.952379941940308,car,car,1,0179_lp_s03_1_car_10_n03100240_6201.png
subject-03,1,180,0.981747150421143,cat,cat,7,0180_lp_s03_7_cat_10_n02125311_54644.png
subject-03,1,181,0.850342035293579,bottle,bottle,0,0181_lp_s03_0_bottle_10_n04560804_8076.png
subject-03,1,182,1.28568196296692,clock,bird,40,0182_lp_s03_40_bird_10_n02037110_7973.png
subject-03,1,183,0.99190092086792,oven,keyboard,5,0183_lp_s03_5_keyboard_10_n03085013_2064.png
subject-03,1,184,1.306147813797,boat,chair,1,0184_lp_s03_1_chair_10_n03376595_1652.png
subject-03,1,185,0.97455096244812,boat,boat,0,0185_lp_s03_0_boat_10_n04273569_5786.png
subject-03,1,186,1.23739910125732,elephant,dog,7,0186_lp_s03_7_dog_10_n02093256_11789.png
subject-03,1,187,1.3817720413208,chair,chair,0,0187_lp_s03_0_chair_10_n04099969_10903.png
subject-03,1,188,1.22839117050171,oven,car,40,0188_lp_s03_40_car_10_n03100240_1711.png
subject-03,1,189,1.31841611862183,bird,bird,10,0189_lp_s03_10_bird_10_n02056570_6576.png
subject-03,1,190,0.672631025314331,clock,clock,3,0190_lp_s03_3_clock_10_n03196217_7467.png
subject-03,1,191,1.14697694778442,oven,clock,5,0191_lp_s03_5_clock_10_n03196217_8217.png
subject-03,1,192,1.33956003189087,bottle,clock,5,0192_lp_s03_5_clock_10_n02708093_6624.png
subject-03,1,193,1.33786678314209,dog,dog,0,0193_lp_s03_0_dog_10_n02100583_4320.png
subject-03,1,194,1.04618883132935,bird,bicycle,7,0194_lp_s03_7_bicycle_10_n03792782_6030.png
subject-03,1,195,0.774198055267334,clock,clock,3,0195_lp_s03_3_clock_10_n04548280_24096.png
subject-03,1,196,1.01794695854187,cat,keyboard,40,0196_lp_s03_40_keyboard_10_n03085013_14079.png
subject-03,1,197,0.864122867584229,airplane,car,10,0197_lp_s03_10_car_10_n02814533_5110.png
subject-03,1,198,1.13864398002625,elephant,dog,15,0198_lp_s03_15_dog_10_n02113799_196.png
subject-03,1,199,1.14648985862732,elephant,elephant,5,0199_lp_s03_5_elephant_10_n02504458_3599.png
subject-03,1,200,1.09524488449097,chair,bottle,5,0200_lp_s03_5_bottle_10_n02823428_6418.png
subject-03,1,201,0.710023164749146,boat,boat,5,0201_lp_s03_5_boat_10_n02951358_10498.png
subject-03,1,202,1.1566801071167,car,car,0,0202_lp_s03_0_car_10_n03100240_379.png
subject-03,1,203,1.02434802055359,airplane,bottle,10,0203_lp_s03_10_bottle_10_n03937543_5334.png
subject-03,1,204,0.960936069488525,oven,truck,40,0204_lp_s03_40_truck_10_n03796401_2927.png
subject-03,1,205,0.951169013977051,cat,bicycle,40,0205_lp_s03_40_bicycle_10_n02835271_9362.png
subject-03,1,206,1.41159319877625,dog,dog,7,0206_lp_s03_7_dog_10_n02091032_1717.png
subject-03,1,207,0.980136156082153,bird,bear,15,0207_lp_s03_15_bear_10_n02134084_674.png
subject-03,1,208,0.788552045822144,cat,cat,0,0208_lp_s03_0_cat_10_n02123159_7828.png
subject-03,1,209,0.733300924301147,cat,bear,3,0209_lp_s03_3_bear_10_n02134084_41588.png
subject-03,1,210,0.723886013031006,cat,boat,7,0210_lp_s03_7_boat_10_n02951358_6065.png
subject-03,1,211,0.678356885910034,bicycle,bicycle,0,0211_lp_s03_0_bicycle_10_n02835271_1338.png
subject-03,1,212,0.922690153121948,bottle,bottle,5,0212_lp_s03_5_bottle_10_n02823428_3900.png
subject-03,1,213,0.952932834625244,cat,cat,3,0213_lp_s03_3_cat_10_n02123045_7290.png
subject-03,1,214,0.910905838012695,chair,chair,5,0214_lp_s03_5_chair_10_n04429376_2693.png
subject-03,1,215,1.09550189971924,airplane,airplane,7,0215_lp_s03_7_airplane_10_n02690373_6147.png
subject-03,1,216,0.979849100112915,keyboard,keyboard,7,0216_lp_s03_7_keyboard_10_n03085013_18909.png
subject-03,1,217,0.948500871658325,cat,bird,3,0217_lp_s03_3_bird_10_n02009912_1919.png
subject-03,1,218,1.13805818557739,bottle,cat,40,0218_lp_s03_40_cat_10_n02123045_5228.png
subject-03,1,219,0.852381944656372,keyboard,keyboard,10,0219_lp_s03_10_keyboard_10_n03085013_21282.png
subject-03,1,220,1.09567594528198,bird,chair,5,0220_lp_s03_5_chair_10_n04099969_39368.png
subject-03,1,221,1.04778480529785,bird,elephant,1,0221_lp_s03_1_elephant_10_n02504458_2900.png
subject-03,1,222,0.938007116317749,bottle,bottle,3,0222_lp_s03_3_bottle_10_n04591713_7158.png
subject-03,1,223,1.48827695846558,bird,cat,3,0223_lp_s03_3_cat_10_n02123597_4773.png
subject-03,1,224,1.38831996917725,bird,chair,5,0224_lp_s03_5_chair_10_n02791124_5635.png
subject-03,1,225,1.16291093826294,bird,elephant,10,0225_lp_s03_10_elephant_10_n02504458_3985.png
subject-03,1,226,0.825214147567749,cat,cat,7,0226_lp_s03_7_cat_10_n02123159_4353.png
subject-03,1,227,0.83161997795105,airplane,airplane,7,0227_lp_s03_7_airplane_10_n02690373_2521.png
subject-03,1,228,0.900360107421875,truck,truck,3,0228_lp_s03_3_truck_10_n04467665_45202.png
subject-03,1,229,1.20666313171387,clock,knife,7,0229_lp_s03_7_knife_10_n03041632_30602.png
subject-03,1,230,1.37332010269165,dog,bear,5,0230_lp_s03_5_bear_10_n02134418_22359.png
subject-03,1,231,1.38732504844666,cat,car,1,0231_lp_s03_1_car_10_n03100240_2108.png
subject-03,1,232,1.16400003433228,bird,knife,3,0232_lp_s03_3_knife_10_n03041632_737.png
subject-03,1,233,0.772182941436768,cat,car,15,0233_lp_s03_15_car_10_n03100240_22217.png
subject-03,1,234,1.21465802192688,bird,bird,3,0234_lp_s03_3_bird_10_n02025239_18358.png
subject-03,1,235,0.637018918991089,cat,dog,5,0235_lp_s03_5_dog_10_n02091831_13507.png
subject-03,1,236,0.729062080383301,bicycle,bicycle,1,0236_lp_s03_1_bicycle_10_n02835271_5825.png
subject-03,1,237,1.03544211387634,bird,bird,3,0237_lp_s03_3_bird_10_n01560419_5202.png
subject-03,1,238,0.679795026779175,cat,oven,15,0238_lp_s03_15_oven_10_n04111531_17995.png
subject-03,1,239,0.863791942596436,airplane,airplane,5,0239_lp_s03_5_airplane_10_n02690373_5427.png
subject-03,1,240,1.16248798370361,bird,dog,10,0240_lp_s03_10_dog_10_n02105855_3032.png
subject-03,1,241,0.668864965438843,bottle,bottle,0,0241_lp_s03_0_bottle_10_n02823428_1148.png
subject-03,1,242,0.991358995437622,knife,knife,3,0242_lp_s03_3_knife_10_n03041632_7448.png
subject-03,1,243,1.25200009346008,elephant,chair,15,0243_lp_s03_15_chair_10_n02791124_1888.png
subject-03,1,244,1.07204008102417,bear,bear,3,0244_lp_s03_3_bear_10_n02134084_14926.png
subject-03,1,245,1.02422308921814,bird,bird,3,0245_lp_s03_3_bird_10_n02027492_14963.png
subject-03,1,246,0.922648906707764,cat,bottle,40,0246_lp_s03_40_bottle_10_n04591713_5882.png
subject-03,1,247,0.922396898269653,dog,dog,7,0247_lp_s03_7_dog_10_n02092339_3174.png
subject-03,1,248,0.820903062820435,oven,elephant,1,0248_lp_s03_1_elephant_10_n02504013_7064.png
subject-03,1,249,1.50028586387634,airplane,elephant,40,0249_lp_s03_40_elephant_10_n02504013_543.png
subject-03,1,250,1.50003790855408,knife,knife,5,0250_lp_s03_5_knife_10_n03041632_1607.png
subject-03,1,251,0.893337965011597,cat,dog,15,0251_lp_s03_15_dog_10_n02091244_10543.png
subject-03,1,252,1.25174880027771,bird,knife,40,0252_lp_s03_40_knife_10_n03041632_41493.png
subject-03,1,253,1.26626801490784,dog,bear,3,0253_lp_s03_3_bear_10_n02132136_31284.png
subject-03,1,254,NaN,na,elephant,40,0254_lp_s03_40_elephant_10_n02504458_1092.png
subject-03,1,255,1.24901604652405,cat,bottle,3,0255_lp_s03_3_bottle_10_n04579145_1859.png
subject-03,1,256,1.42257809638977,clock,bear,40,0256_lp_s03_40_bear_10_n02134084_883.png
subject-03,1,257,NaN,na,bird,40,0257_lp_s03_40_bird_10_n01828970_4551.png
subject-03,1,258,NaN,na,bear,7,0258_lp_s03_7_bear_10_n02134084_41497.png
subject-03,1,259,1.29499197006226,cat,elephant,15,0259_lp_s03_15_elephant_10_n02504013_8905.png
subject-03,1,260,0.987622976303101,elephant,elephant,15,0260_lp_s03_15_elephant_10_n02504013_8237.png
subject-03,1,261,1.23197293281555,truck,truck,0,0261_lp_s03_0_truck_10_n03417042_17817.png
subject-03,1,262,NaN,na,bear,1,0262_lp_s03_1_bear_10_n02132136_24002.png
subject-03,1,263,0.891247034072876,cat,bear,3,0263_lp_s03_3_bear_10_n02133161_12315.png
subject-03,1,264,0.707595109939575,clock,clock,3,0264_lp_s03_3_clock_10_n04548280_6068.png
subject-03,1,265,1.44986915588379,airplane,airplane,40,0265_lp_s03_40_airplane_10_n02690373_945.png
subject-03,1,266,0.950088024139404,dog,dog,3,0266_lp_s03_3_dog_10_n02105641_4154.png
subject-03,1,267,0.900500059127808,clock,clock,7,0267_lp_s03_7_clock_10_n03196217_8261.png
subject-03,1,268,1.13883900642395,cat,oven,15,0268_lp_s03_15_oven_10_n04111531_2133.png
subject-03,1,269,0.891513109207153,bird,bird,1,0269_lp_s03_1_bird_10_n01818515_5024.png
subject-03,1,270,1.09005212783813,bottle,dog,10,0270_lp_s03_10_dog_10_n02099849_1607.png
subject-03,1,271,1.38929796218872,dog,cat,3,0271_lp_s03_3_cat_10_n02123394_2285.png
subject-03,1,272,1.4577488899231,airplane,elephant,10,0272_lp_s03_10_elephant_10_n02504013_2668.png
subject-03,1,273,1.11246681213379,bottle,bottle,0,0273_lp_s03_0_bottle_10_n04591713_2362.png
subject-03,1,274,0.902716875076294,chair,chair,1,0274_lp_s03_1_chair_10_n03376595_3449.png
subject-03,1,275,1.00075387954712,cat,cat,15,0275_lp_s03_15_cat_10_n02123045_5466.png
subject-03,1,276,1.2988338470459,boat,bear,10,0276_lp_s03_10_bear_10_n02133161_4493.png
subject-03,1,277,1.30484509468079,oven,oven,7,0277_lp_s03_7_oven_10_n04111531_3805.png
subject-03,1,278,0.827357769012451,cat,cat,1,0278_lp_s03_1_cat_10_n02125311_36651.png
subject-03,1,279,0.931834936141968,oven,bottle,15,0279_lp_s03_15_bottle_10_n02823428_4483.png
subject-03,1,280,1.28453803062439,bird,dog,15,0280_lp_s03_15_dog_10_n02097298_8829.png
subject-03,1,281,1.49088191986084,keyboard,keyboard,3,0281_lp_s03_3_keyboard_10_n04505470_10705.png
subject-03,1,282,1.50006103515625,clock,boat,40,0282_lp_s03_40_boat_10_n02951358_11189.png
subject-03,1,283,1.00309109687805,bottle,cat,40,0283_lp_s03_40_cat_10_n02123394_7093.png
subject-03,1,284,1.47100305557251,bird,car,7,0284_lp_s03_7_car_10_n02814533_29484.png
subject-03,1,285,1.42358112335205,clock,car,40,0285_lp_s03_40_car_10_n04285008_4338.png
subject-03,1,286,1.40613603591919,bird,bird,7,0286_lp_s03_7_bird_10_n02056570_217.png
subject-03,1,287,0.790112018585205,bottle,airplane,40,0287_lp_s03_40_airplane_10_n02690373_10518.png
subject-03,1,288,1.1178560256958,chair,oven,5,0288_lp_s03_5_oven_10_n04111531_22445.png
subject-03,1,289,0.89468789100647,cat,bear,10,0289_lp_s03_10_bear_10_n02134084_1144.png
subject-03,1,290,1.20660495758057,car,car,1,0290_lp_s03_1_car_10_n02814533_89472.png
subject-03,1,291,1.41869401931763,bird,bottle,40,0291_lp_s03_40_bottle_10_n04560804_783.png
subject-03,1,292,1.03508806228638,car,car,3,0292_lp_s03_3_car_10_n03100240_16435.png
subject-03,1,293,0.955097913742065,bird,elephant,10,0293_lp_s03_10_elephant_10_n02504013_1081.png
subject-03,1,294,1.28345894813538,cat,knife,7,0294_lp_s03_7_knife_10_n03041632_25772.png
subject-03,1,295,0.897646188735962,knife,knife,10,0295_lp_s03_10_knife_10_n03041632_56217.png
subject-03,1,296,1.23419404029846,bottle,boat,10,0296_lp_s03_10_boat_10_n04612504_4979.png
subject-03,1,297,0.642351150512695,clock,clock,3,0297_lp_s03_3_clock_10_n04548280_4042.png
subject-03,1,298,1.0929160118103,elephant,elephant,0,0298_lp_s03_0_elephant_10_n02504013_18792.png
subject-03,1,299,0.947180986404419,bird,bear,10,0299_lp_s03_10_bear_10_n02134084_1871.png
subject-03,1,300,0.774919033050537,cat,knife,40,0300_lp_s03_40_knife_10_n03041632_62810.png
subject-03,1,301,1.21664309501648,cat,elephant,40,0301_lp_s03_40_elephant_10_n02504458_10515.png
subject-03,1,302,0.785272836685181,bird,bottle,10,0302_lp_s03_10_bottle_10_n04591713_1908.png
subject-03,1,303,1.03767895698547,dog,oven,5,0303_lp_s03_5_oven_10_n04111531_2024.png
subject-03,1,304,1.16842913627625,car,car,3,0304_lp_s03_3_car_10_n02814533_74394.png
subject-03,1,305,0.682737827301025,cat,cat,1,0305_lp_s03_1_cat_10_n02124075_10896.png
subject-03,1,306,1.15714192390442,car,truck,5,0306_lp_s03_5_truck_10_n04467665_24709.png
subject-03,1,307,1.06373906135559,bird,boat,40,0307_lp_s03_40_boat_10_n02951358_4628.png
subject-03,1,308,1.10807108879089,dog,dog,15,0308_lp_s03_15_dog_10_n02113023_3591.png
subject-03,1,309,0.914427995681763,elephant,elephant,3,0309_lp_s03_3_elephant_10_n02504458_4737.png
subject-03,1,310,1.02087712287903,dog,bicycle,10,0310_lp_s03_10_bicycle_10_n03792782_8110.png
subject-03,1,311,0.797334909439087,elephant,elephant,7,0311_lp_s03_7_elephant_10_n02504458_9420.png
subject-03,1,312,1.50041794776917,car,car,5,0312_lp_s03_5_car_10_n02814533_12348.png
subject-03,1,313,1.43258118629456,car,boat,7,0313_lp_s03_7_boat_10_n03344393_8762.png
subject-03,1,314,0.732666015625,cat,cat,3,0314_lp_s03_3_cat_10_n02123394_2330.png
subject-03,1,315,1.10721683502197,elephant,elephant,0,0315_lp_s03_0_elephant_10_n02504013_24810.png
subject-03,1,316,1.50029397010803,bear,bear,0,0316_lp_s03_0_bear_10_n02132136_22545.png
subject-03,1,317,0.882133960723877,bird,car,7,0317_lp_s03_7_car_10_n02814533_84606.png
subject-03,1,318,1.28793406486511,bottle,bicycle,40,0318_lp_s03_40_bicycle_10_n03792782_4516.png
subject-03,1,319,1.08641815185547,boat,boat,3,0319_lp_s03_3_boat_10_n03662601_2052.png
subject-03,1,320,0.992922782897949,elephant,elephant,0,0320_lp_s03_0_elephant_10_n02504013_6862.png
subject-03,1,321,0.98518705368042,boat,oven,1,0321_lp_s03_1_oven_10_n04111531_19274.png
subject-03,1,322,0.691550016403198,cat,cat,1,0322_lp_s03_1_cat_10_n02123159_2612.png
subject-03,1,323,1.07381010055542,bird,dog,5,0323_lp_s03_5_dog_10_n02094258_2914.png
subject-03,1,324,1.19645214080811,dog,dog,5,0324_lp_s03_5_dog_10_n02094433_1476.png
subject-03,1,325,0.911050081253052,knife,knife,10,0325_lp_s03_10_knife_10_n03041632_45326.png
subject-03,1,326,0.825670003890991,cat,bicycle,7,0326_lp_s03_7_bicycle_10_n03792782_13608.png
subject-03,1,327,1.10785102844238,car,car,0,0327_lp_s03_0_car_10_n03100240_11542.png
subject-03,1,328,0.692584991455078,oven,oven,3,0328_lp_s03_3_oven_10_n04111531_326.png
subject-03,1,329,1.02906918525696,car,car,1,0329_lp_s03_1_car_10_n03100240_6507.png
subject-03,1,330,1.08930611610413,cat,cat,15,0330_lp_s03_15_cat_10_n02124075_10750.png
subject-03,1,331,1.12592387199402,bird,bird,5,0331_lp_s03_5_bird_10_n02006656_30849.png
subject-03,1,332,0.98039698600769,dog,oven,5,0332_lp_s03_5_oven_10_n04111531_3098.png
subject-03,1,333,0.823860883712769,keyboard,keyboard,3,0333_lp_s03_3_keyboard_10_n03085013_24166.png
subject-03,1,334,0.944202899932861,cat,bear,0,0334_lp_s03_0_bear_10_n02133161_12745.png
subject-03,1,335,1.18849992752075,elephant,elephant,3,0335_lp_s03_3_elephant_10_n02504013_12615.png
subject-03,1,336,0.878623008728027,bottle,bottle,5,0336_lp_s03_5_bottle_10_n03937543_4727.png
subject-03,1,337,0.939417839050293,chair,chair,5,0337_lp_s03_5_chair_10_n03376595_6986.png
subject-03,1,338,0.945160865783691,clock,bottle,40,0338_lp_s03_40_bottle_10_n03983396_20430.png
subject-03,1,339,0.951457977294922,cat,bear,10,0339_lp_s03_10_bear_10_n02134418_962.png
subject-03,1,340,1.21998500823975,bird,chair,15,0340_lp_s03_15_chair_10_n04099969_35740.png
subject-03,1,341,NaN,na,bird,3,0341_lp_s03_3_bird_10_n01614925_5757.png
subject-03,1,342,1.2088930606842,bird,bird,5,0342_lp_s03_5_bird_10_n01558993_7147.png
subject-03,1,343,1.09930300712585,clock,cat,40,0343_lp_s03_40_cat_10_n02125311_37753.png
subject-03,1,344,0.753340005874634,cat,bear,40,0344_lp_s03_40_bear_10_n02134084_16176.png
subject-03,1,345,0.943732023239136,cat,bottle,5,0345_lp_s03_5_bottle_10_n04557648_2631.png
subject-03,1,346,1.03382611274719,elephant,truck,10,0346_lp_s03_10_truck_10_n03417042_8297.png
subject-03,1,347,1.09460306167603,elephant,elephant,0,0347_lp_s03_0_elephant_10_n02504013_5235.png
subject-03,1,348,1.14697813987732,cat,elephant,5,0348_lp_s03_5_elephant_10_n02504013_4531.png
subject-03,1,349,0.845479011535645,boat,bird,10,0349_lp_s03_10_bird_10_n02033041_6909.png
subject-03,1,350,1.0273699760437,clock,airplane,40,0350_lp_s03_40_airplane_10_n02690373_10112.png
subject-03,1,351,1.14746403694153,oven,keyboard,15,0351_lp_s03_15_keyboard_10_n04505470_169.png
subject-03,1,352,0.977898836135864,oven,chair,40,0352_lp_s03_40_chair_10_n04099969_15882.png
subject-03,1,353,1.23041009902954,knife,oven,1,0353_lp_s03_1_oven_10_n04111531_92.png
subject-03,1,354,1.45090413093567,truck,car,15,0354_lp_s03_15_car_10_n03100240_3336.png
subject-03,1,355,1.11064505577087,clock,bear,40,0355_lp_s03_40_bear_10_n02132136_18918.png
subject-03,1,356,0.940836191177368,oven,bear,15,0356_lp_s03_15_bear_10_n02132136_4512.png
subject-03,1,357,NaN,na,dog,3,0357_lp_s03_3_dog_10_n02113624_4395.png
subject-03,1,358,1.19747304916382,dog,bear,3,0358_lp_s03_3_bear_10_n02134084_19601.png
subject-03,1,359,1.3883228302002,cat,dog,1,0359_lp_s03_1_dog_10_n02086079_14914.png
subject-03,1,360,1.20213484764099,elephant,bear,7,0360_lp_s03_7_bear_10_n02134418_1725.png
subject-03,1,361,0.89717698097229,elephant,bear,5,0361_lp_s03_5_bear_10_n02133161_500.png
subject-03,1,362,1.40320706367493,car,airplane,3,0362_lp_s03_3_airplane_10_n02690373_3263.png
subject-03,1,363,0.717751026153564,airplane,airplane,0,0363_lp_s03_0_airplane_10_n02690373_19107.png
subject-03,1,364,1.25405979156494,bird,bird,3,0364_lp_s03_3_bird_10_n02007558_5444.png
subject-03,1,365,1.33673596382141,chair,chair,0,0365_lp_s03_0_chair_10_n02791124_1437.png
subject-03,1,366,1.31910800933838,airplane,oven,15,0366_lp_s03_15_oven_10_n04111531_1992.png
subject-03,1,367,NaN,na,boat,1,0367_lp_s03_1_boat_10_n03344393_9235.png
subject-03,1,368,1.36208295822144,bottle,bottle,1,0368_lp_s03_1_bottle_10_n04557648_8622.png
subject-03,1,369,0.962890863418579,oven,knife,1,0369_lp_s03_1_knife_10_n03041632_35116.png
subject-03,1,370,1.1670708656311,dog,dog,7,0370_lp_s03_7_dog_10_n02090379_5912.png
subject-03,1,371,1.05166006088257,clock,clock,10,0371_lp_s03_10_clock_10_n02708093_275.png
subject-03,1,372,1.14204883575439,clock,clock,3,0372_lp_s03_3_clock_10_n02708093_1665.png
subject-03,1,373,0.756649971008301,keyboard,keyboard,5,0373_lp_s03_5_keyboard_10_n03085013_22033.png
subject-03,1,374,0.977241039276123,airplane,airplane,10,0374_lp_s03_10_airplane_10_n02690373_4793.png
subject-03,1,375,1.15379309654236,keyboard,keyboard,0,0375_lp_s03_0_keyboard_10_n03085013_20898.png
subject-03,1,376,1.13598203659058,clock,clock,0,0376_lp_s03_0_clock_10_n03196217_3558.png
subject-03,1,377,1.25633811950684,airplane,airplane,1,0377_lp_s03_1_airplane_10_n02690373_19733.png
subject-03,1,378,0.802046060562134,clock,elephant,40,0378_lp_s03_40_elephant_10_n02504013_7883.png
subject-03,1,379,0.738335132598877,oven,chair,1,0379_lp_s03_1_chair_10_n04099969_3984.png
subject-03,1,380,1.11304211616516,car,car,10,0380_lp_s03_10_car_10_n04285008_11698.png
subject-03,1,381,0.982613086700439,clock,bear,5,0381_lp_s03_5_bear_10_n02134418_979.png
subject-03,1,382,0.837107181549072,keyboard,keyboard,15,0382_lp_s03_15_keyboard_10_n04505470_4828.png
subject-03,1,383,0.857602119445801,oven,oven,10,0383_lp_s03_10_oven_10_n04111531_5473.png
subject-03,1,384,0.917343139648438,clock,bottle,40,0384_lp_s03_40_bottle_10_n03983396_11342.png
subject-03,1,385,1.07546186447144,oven,boat,7,0385_lp_s03_7_boat_10_n04612504_29359.png
subject-03,1,386,0.943366050720215,clock,oven,40,0386_lp_s03_40_oven_10_n04111531_16251.png
subject-03,1,387,1.16394400596619,bicycle,bicycle,0,0387_lp_s03_0_bicycle_10_n03792782_13769.png
subject-03,1,388,1.15321397781372,cat,elephant,40,0388_lp_s03_40_elephant_10_n02504458_5235.png
subject-03,1,389,0.821696043014526,elephant,elephant,1,0389_lp_s03_1_elephant_10_n02504458_585.png
subject-03,1,390,1.33380007743835,keyboard,chair,15,0390_lp_s03_15_chair_10_n04099969_905.png
subject-03,1,391,0.900254011154175,bicycle,bicycle,0,0391_lp_s03_0_bicycle_10_n03792782_13077.png
subject-03,1,392,1.26576900482178,keyboard,keyboard,7,0392_lp_s03_7_keyboard_10_n03085013_21973.png
subject-03,1,393,1.3561680316925,chair,knife,1,0393_lp_s03_1_knife_10_n03041632_91967.png
subject-03,1,394,0.894251108169556,oven,oven,0,0394_lp_s03_0_oven_10_n04111531_114.png
subject-03,1,395,1.07699108123779,dog,cat,5,0395_lp_s03_5_cat_10_n02123394_8708.png
subject-03,1,396,0.91271710395813,boat,boat,15,0396_lp_s03_15_boat_10_n03344393_661.png
subject-03,1,397,0.973232984542847,keyboard,bottle,7,0397_lp_s03_7_bottle_10_n04557648_6780.png
subject-03,1,398,1.25514507293701,boat,boat,15,0398_lp_s03_15_boat_10_n03344393_1026.png
subject-03,1,399,1.42142295837402,dog,dog,7,0399_lp_s03_7_dog_10_n02090379_1870.png
subject-03,1,400,1.19791102409363,airplane,chair,15,0400_lp_s03_15_chair_10_n04099969_24309.png
subject-03,1,401,1.37242102622986,car,boat,3,0401_lp_s03_3_boat_10_n04273569_13540.png
subject-03,1,402,1.10850501060486,cat,bottle,15,0402_lp_s03_15_bottle_10_n04560804_2040.png
subject-03,1,403,NaN,na,clock,40,0403_lp_s03_40_clock_10_n03196217_775.png
subject-03,1,404,1.05901908874512,cat,bottle,15,0404_lp_s03_15_bottle_10_n04560804_12596.png
subject-03,1,405,0.849422931671143,cat,cat,1,0405_lp_s03_1_cat_10_n02123394_6881.png
subject-03,1,406,0.885662078857422,cat,keyboard,1,0406_lp_s03_1_keyboard_10_n04505470_3107.png
subject-03,1,407,0.854264974594116,clock,airplane,40,0407_lp_s03_40_airplane_10_n02690373_787.png
subject-03,1,408,0.982699871063232,bottle,boat,10,0408_lp_s03_10_boat_10_n04273569_12081.png
subject-03,1,409,1.27266407012939,boat,bottle,40,0409_lp_s03_40_bottle_10_n04579145_3257.png
subject-03,1,410,1.50104784965515,bottle,bottle,15,0410_lp_s03_15_bottle_10_n04591713_665.png
subject-03,1,411,0.915131092071533,cat,cat,3,0411_lp_s03_3_cat_10_n02124075_18178.png
subject-03,1,412,1.39738583564758,bird,clock,15,0412_lp_s03_15_clock_10_n03196217_1746.png
subject-03,1,413,1.04198789596558,cat,elephant,7,0413_lp_s03_7_elephant_10_n02504458_5149.png
subject-03,1,414,0.885699033737183,oven,keyboard,40,0414_lp_s03_40_keyboard_10_n03085013_5884.png
subject-03,1,415,0.984746932983398,car,car,5,0415_lp_s03_5_car_10_n04285008_793.png
subject-03,1,416,0.836683034896851,clock,clock,5,0416_lp_s03_5_clock_10_n04548280_5426.png
subject-03,1,417,1.16506886482239,dog,dog,7,0417_lp_s03_7_dog_10_n02106166_17110.png
subject-03,1,418,0.925825119018555,airplane,airplane,5,0418_lp_s03_5_airplane_10_n02690373_7591.png
subject-03,1,419,1.25433588027954,bird,bird,40,0419_lp_s03_40_bird_10_n01843383_9885.png
subject-03,1,420,1.29889392852783,dog,elephant,15,0420_lp_s03_15_elephant_10_n02504458_325.png
subject-03,1,421,0.951269149780273,bottle,bottle,3,0421_lp_s03_3_bottle_10_n04557648_5468.png
subject-03,1,422,1.33370590209961,dog,dog,1,0422_lp_s03_1_dog_10_n02111500_6948.png
subject-03,1,423,1.28013801574707,clock,clock,3,0423_lp_s03_3_clock_10_n04548280_23221.png
subject-03,1,424,0.800686836242676,oven,oven,0,0424_lp_s03_0_oven_10_n04111531_19576.png
subject-03,1,425,1.17455410957336,keyboard,car,0,0425_lp_s03_0_car_10_n03100240_16571.png
subject-03,1,426,1.41916513442993,cat,bottle,15,0426_lp_s03_15_bottle_10_n02823428_4358.png
subject-03,1,427,1.34720897674561,bird,elephant,40,0427_lp_s03_40_elephant_10_n02504458_1024.png
subject-03,1,428,1.34590005874634,boat,bear,1,0428_lp_s03_1_bear_10_n02133161_8679.png
subject-03,1,429,1.02235412597656,bottle,knife,3,0429_lp_s03_3_knife_10_n03041632_7680.png
subject-03,1,430,1.48097705841064,bird,oven,3,0430_lp_s03_3_oven_10_n04111531_5015.png
subject-03,1,431,1.49999713897705,cat,truck,1,0431_lp_s03_1_truck_10_n04467665_13231.png
subject-03,1,432,1.50043678283691,bird,truck,10,0432_lp_s03_10_truck_10_n03417042_27354.png
subject-03,1,433,1.50014090538025,clock,bottle,40,0433_lp_s03_40_bottle_10_n03983396_23739.png
subject-03,1,434,1.42574405670166,chair,keyboard,1,0434_lp_s03_1_keyboard_10_n03085013_16724.png
subject-03,1,435,1.50037789344788,cat,car,40,0435_lp_s03_40_car_10_n03100240_6264.png
subject-03,1,436,0.791882038116455,clock,clock,7,0436_lp_s03_7_clock_10_n02708093_7169.png
subject-03,1,437,1.14474487304688,oven,chair,1,0437_lp_s03_1_chair_10_n02791124_4549.png
subject-03,1,438,1.50017690658569,bird,car,40,0438_lp_s03_40_car_10_n03100240_9625.png
subject-03,1,439,0.816947937011719,bottle,bottle,1,0439_lp_s03_1_bottle_10_n02823428_8786.png
subject-03,1,440,1.1610860824585,clock,clock,40,0440_lp_s03_40_clock_10_n02708093_3114.png
subject-03,1,441,1.28198480606079,truck,truck,7,0441_lp_s03_7_truck_10_n03796401_4878.png
subject-03,1,442,1.08827590942383,bird,bird,5,0442_lp_s03_5_bird_10_n01537544_13248.png
subject-03,1,443,0.832677125930786,truck,truck,1,0443_lp_s03_1_truck_10_n04467665_59509.png
subject-03,1,444,1.02311587333679,dog,bird,15,0444_lp_s03_15_bird_10_n02018207_439.png
subject-03,1,445,1.39164280891418,airplane,airplane,5,0445_lp_s03_5_airplane_10_n02690373_1363.png
subject-03,1,446,0.936105012893677,keyboard,oven,3,0446_lp_s03_3_oven_10_n04111531_2086.png
subject-03,1,447,1.10503220558167,bird,cat,10,0447_lp_s03_10_cat_10_n02124075_13407.png
subject-03,1,448,1.29519200325012,clock,boat,15,0448_lp_s03_15_boat_10_n03662601_2120.png
subject-03,1,449,0.855613946914673,bottle,bottle,0,0449_lp_s03_0_bottle_10_n04591713_16805.png
subject-03,1,450,1.4354100227356,car,airplane,10,0450_lp_s03_10_airplane_10_n02690373_8274.png
subject-03,1,451,0.925862789154053,bottle,bottle,5,0451_lp_s03_5_bottle_10_n03983396_20058.png
subject-03,1,452,1.29177021980286,airplane,airplane,3,0452_lp_s03_3_airplane_10_n02690373_2874.png
subject-03,1,453,1.06005096435547,cat,boat,5,0453_lp_s03_5_boat_10_n02951358_6465.png
subject-03,1,454,NaN,na,bottle,10,0454_lp_s03_10_bottle_10_n04591713_6855.png
subject-03,1,455,1.13283085823059,chair,boat,40,0455_lp_s03_40_boat_10_n02951358_29557.png
subject-03,1,456,1.0094428062439,clock,keyboard,40,0456_lp_s03_40_keyboard_10_n04505470_8018.png
subject-03,1,457,1.39152598381042,airplane,truck,15,0457_lp_s03_15_truck_10_n04467665_1745.png
subject-03,1,458,1.50016593933105,bottle,chair,15,0458_lp_s03_15_chair_10_n02791124_1997.png
subject-03,1,459,1.04273891448975,elephant,elephant,0,0459_lp_s03_0_elephant_10_n02504458_4962.png
subject-03,1,460,NaN,na,cat,1,0460_lp_s03_1_cat_10_n02123045_7482.png
subject-03,1,461,1.26783204078674,bottle,dog,40,0461_lp_s03_40_dog_10_n02102318_11966.png
subject-03,1,462,1.42053699493408,chair,chair,7,0462_lp_s03_7_chair_10_n03376595_2401.png
subject-03,1,463,1.12445616722107,cat,airplane,40,0463_lp_s03_40_airplane_10_n02690373_1823.png
subject-03,1,464,1.50019478797913,cat,bear,7,0464_lp_s03_7_bear_10_n02134418_6233.png
subject-03,1,465,1.38914799690247,dog,bear,15,0465_lp_s03_15_bear_10_n02133161_3642.png
subject-03,1,466,1.41932511329651,cat,keyboard,10,0466_lp_s03_10_keyboard_10_n04505470_9952.png
subject-03,1,467,0.895487070083618,keyboard,keyboard,7,0467_lp_s03_7_keyboard_10_n03085013_20801.png
subject-03,1,468,1.29158616065979,dog,knife,15,0468_lp_s03_15_knife_10_n03041632_4494.png
subject-03,1,469,1.50041699409485,bird,airplane,10,0469_lp_s03_10_airplane_10_n02690373_19407.png
subject-03,1,470,0.904551982879639,cat,cat,0,0470_lp_s03_0_cat_10_n02124075_11142.png
subject-03,1,471,0.849235057830811,boat,boat,1,0471_lp_s03_1_boat_10_n04273569_18898.png
subject-03,1,472,1.3776490688324,bird,cat,5,0472_lp_s03_5_cat_10_n02125311_41798.png
subject-03,1,473,0.838186025619507,cat,oven,7,0473_lp_s03_7_oven_10_n04111531_5802.png
subject-03,1,474,1.50008487701416,keyboard,oven,0,0474_lp_s03_0_oven_10_n04111531_15317.png
subject-03,1,475,1.40275907516479,chair,chair,10,0475_lp_s03_10_chair_10_n02791124_9918.png
subject-03,1,476,1.50029397010803,cat,bird,7,0476_lp_s03_7_bird_10_n02028035_23400.png
subject-03,1,477,1.08539295196533,bird,bird,7,0477_lp_s03_7_bird_10_n02025239_12171.png
subject-03,1,478,1.04380393028259,cat,bicycle,7,0478_lp_s03_7_bicycle_10_n02835271_1221.png
subject-03,1,479,1.23064994812012,cat,bicycle,0,0479_lp_s03_0_bicycle_10_n02835271_20052.png
subject-03,1,480,1.29948902130127,truck,car,5,0480_lp_s03_5_car_10_n02814533_40773.png
subject-03,1,481,0.863281965255737,bottle,bottle,0,0481_lp_s03_0_bottle_10_n03983396_7696.png
subject-03,1,482,1.23808193206787,dog,dog,1,0482_lp_s03_1_dog_10_n02109525_10545.png
subject-03,1,483,0.730134010314941,airplane,airplane,0,0483_lp_s03_0_airplane_10_n02690373_2070.png
subject-03,1,484,1.48875594139099,bear,bear,1,0484_lp_s03_1_bear_10_n02134084_4715.png
subject-03,1,485,NaN,na,airplane,1,0485_lp_s03_1_airplane_10_n02690373_9175.png
subject-03,1,486,0.955834150314331,oven,keyboard,3,0486_lp_s03_3_keyboard_10_n03085013_23916.png
subject-03,1,487,1.47635912895203,truck,chair,3,0487_lp_s03_3_chair_10_n04429376_19616.png
subject-03,1,488,1.09693002700806,cat,dog,7,0488_lp_s03_7_dog_10_n02097209_2546.png
subject-03,1,489,1.50017285346985,chair,knife,7,0489_lp_s03_7_knife_10_n03041632_55711.png
subject-03,1,490,1.35288405418396,clock,oven,1,0490_lp_s03_1_oven_10_n04111531_5792.png
subject-03,1,491,1.19944787025452,bird,chair,3,0491_lp_s03_3_chair_10_n02791124_4679.png
subject-03,1,492,1.22759389877319,cat,knife,5,0492_lp_s03_5_knife_10_n03041632_2338.png
subject-03,1,493,0.68006706237793,clock,clock,5,0493_lp_s03_5_clock_10_n04548280_7661.png
subject-03,1,494,0.924421072006226,oven,oven,1,0494_lp_s03_1_oven_10_n04111531_9613.png
subject-03,1,495,1.02909994125366,bottle,bottle,3,0495_lp_s03_3_bottle_10_n02823428_2774.png
subject-03,1,496,1.41081714630127,oven,truck,5,0496_lp_s03_5_truck_10_n03417042_1716.png
subject-03,1,497,0.879525184631348,airplane,airplane,10,0497_lp_s03_10_airplane_10_n02690373_2078.png
subject-03,1,498,1.50014615058899,bicycle,bicycle,0,0498_lp_s03_0_bicycle_10_n03792782_20771.png
subject-03,1,499,1.35248708724976,oven,cat,1,0499_lp_s03_1_cat_10_n02124075_9706.png
subject-03,1,500,0.880390167236328,car,car,7,0500_lp_s03_7_car_10_n04285008_7749.png
subject-03,1,501,0.840713024139404,cat,bicycle,3,0501_lp_s03_3_bicycle_10_n03792782_22057.png
subject-03,1,502,1.19319295883179,bird,knife,5,0502_lp_s03_5_knife_10_n03041632_7380.png
subject-03,1,503,1.20547294616699,elephant,elephant,0,0503_lp_s03_0_elephant_10_n02504458_11216.png
subject-03,1,504,1.2821159362793,bicycle,bicycle,3,0504_lp_s03_3_bicycle_10_n03792782_50972.png
subject-03,1,505,1.23989105224609,cat,bottle,7,0505_lp_s03_7_bottle_10_n04591713_5430.png
subject-03,1,506,1.04669404029846,elephant,elephant,7,0506_lp_s03_7_elephant_10_n02504013_8980.png
subject-03,1,507,0.90695595741272,bottle,bottle,0,0507_lp_s03_0_bottle_10_n04591713_717.png
subject-03,1,508,1.47313594818115,dog,dog,3,0508_lp_s03_3_dog_10_n02107908_4926.png
subject-03,1,509,1.50012111663818,boat,boat,0,0509_lp_s03_0_boat_10_n03344393_8382.png
subject-03,1,510,1.462247133255,cat,bicycle,7,0510_lp_s03_7_bicycle_10_n03792782_41213.png
subject-03,1,511,0.993060111999512,truck,truck,5,0511_lp_s03_5_truck_10_n03796401_2893.png
subject-03,1,512,1.28336691856384,boat,truck,40,0512_lp_s03_40_truck_10_n03796401_407.png
subject-03,1,513,1.10586190223694,clock,clock,1,0513_lp_s03_1_clock_10_n02708093_201.png
subject-03,1,514,1.15598917007446,car,car,10,0514_lp_s03_10_car_10_n03100240_11623.png
subject-03,1,515,1.25448203086853,cat,dog,15,0515_lp_s03_15_dog_10_n02086910_4326.png
subject-03,1,516,1.00656890869141,chair,chair,0,0516_lp_s03_0_chair_10_n04099969_17727.png
subject-03,1,517,1.09705996513367,cat,oven,5,0517_lp_s03_5_oven_10_n04111531_190.png
subject-03,1,518,1.10956788063049,oven,chair,1,0518_lp_s03_1_chair_10_n04099969_11352.png
subject-03,1,519,0.816045045852661,keyboard,keyboard,3,0519_lp_s03_3_keyboard_10_n04505470_3335.png
subject-03,1,520,0.890387058258057,clock,clock,5,0520_lp_s03_5_clock_10_n02708093_148.png
subject-03,1,521,0.718214988708496,boat,boat,1,0521_lp_s03_1_boat_10_n04273569_1120.png
subject-03,1,522,0.724735021591187,bicycle,bicycle,0,0522_lp_s03_0_bicycle_10_n03792782_2035.png
subject-03,1,523,1.5,clock,chair,40,0523_lp_s03_40_chair_10_n03376595_5396.png
subject-03,1,524,1.15130400657654,cat,bird,15,0524_lp_s03_15_bird_10_n02006656_1301.png
subject-03,1,525,1.27955102920532,cat,dog,15,0525_lp_s03_15_dog_10_n02110185_7349.png
subject-03,1,526,1.50035691261292,oven,chair,3,0526_lp_s03_3_chair_10_n04429376_17705.png
subject-03,1,527,1.22848415374756,cat,elephant,15,0527_lp_s03_15_elephant_10_n02504013_9393.png
subject-03,1,528,0.896633148193359,boat,bottle,40,0528_lp_s03_40_bottle_10_n02823428_6776.png
subject-03,1,529,1.50037097930908,oven,airplane,15,0529_lp_s03_15_airplane_10_n02690373_9802.png
subject-03,1,530,1.08291888237,oven,chair,5,0530_lp_s03_5_chair_10_n03376595_2393.png
subject-03,1,531,0.751205921173096,clock,keyboard,5,0531_lp_s03_5_keyboard_10_n03085013_20302.png
subject-03,1,532,1.1715099811554,boat,dog,1,0532_lp_s03_1_dog_10_n02107142_56011.png
subject-03,1,533,1.24574398994446,clock,bear,7,0533_lp_s03_7_bear_10_n02134418_1652.png
subject-03,1,534,1.14405703544617,bird,boat,5,0534_lp_s03_5_boat_10_n03344393_10013.png
subject-03,1,535,1.05032396316528,clock,clock,15,0535_lp_s03_15_clock_10_n03196217_7313.png
subject-03,1,536,1.2546010017395,bird,cat,5,0536_lp_s03_5_cat_10_n02123597_9846.png
subject-03,1,537,0.8072829246521,clock,clock,10,0537_lp_s03_10_clock_10_n02708093_8390.png
subject-03,1,538,1.08987712860107,cat,clock,7,0538_lp_s03_7_clock_10_n02708093_7081.png
subject-03,1,539,0.965374946594238,chair,chair,40,0539_lp_s03_40_chair_10_n03376595_635.png
subject-03,1,540,0.87762713432312,keyboard,keyboard,3,0540_lp_s03_3_keyboard_10_n04505470_4651.png
subject-03,1,541,1.25219392776489,cat,boat,10,0541_lp_s03_10_boat_10_n02951358_32429.png
subject-03,1,542,1.25029516220093,airplane,cat,0,0542_lp_s03_0_cat_10_n02124075_2843.png
subject-03,1,543,NaN,na,truck,40,0543_lp_s03_40_truck_10_n04467665_22569.png
subject-03,1,544,1.27703213691711,bottle,bottle,0,0544_lp_s03_0_bottle_10_n04560804_1844.png
subject-03,1,545,1.12702703475952,bird,keyboard,10,0545_lp_s03_10_keyboard_10_n04505470_9469.png
subject-03,1,546,1.07937288284302,cat,clock,10,0546_lp_s03_10_clock_10_n02708093_2949.png
subject-03,1,547,1.11520004272461,truck,truck,1,0547_lp_s03_1_truck_10_n03796401_19487.png
subject-03,1,548,1.41982102394104,car,car,7,0548_lp_s03_7_car_10_n03100240_310.png
subject-03,1,549,1.40992617607117,dog,elephant,10,0549_lp_s03_10_elephant_10_n02504013_644.png
subject-03,1,550,NaN,na,oven,10,0550_lp_s03_10_oven_10_n04111531_8081.png
subject-03,1,551,1.29865407943726,elephant,elephant,1,0551_lp_s03_1_elephant_10_n02504458_611.png
subject-03,1,552,1.02717804908752,oven,oven,10,0552_lp_s03_10_oven_10_n04111531_12830.png
subject-03,1,553,1.29283118247986,chair,bird,40,0553_lp_s03_40_bird_10_n02028035_10024.png
subject-03,1,554,1.25927901268005,oven,knife,15,0554_lp_s03_15_knife_10_n03041632_31849.png
subject-03,1,555,1.34162211418152,knife,knife,1,0555_lp_s03_1_knife_10_n03041632_34676.png
subject-03,1,556,1.4082498550415,cat,chair,15,0556_lp_s03_15_chair_10_n03376595_3508.png
subject-03,1,557,1.44481492042542,car,boat,10,0557_lp_s03_10_boat_10_n04273569_13670.png
subject-03,1,558,NaN,na,boat,1,0558_lp_s03_1_boat_10_n03662601_8144.png
subject-03,1,559,0.779042959213257,boat,boat,0,0559_lp_s03_0_boat_10_n03662601_6013.png
subject-03,1,560,0.923797845840454,cat,cat,7,0560_lp_s03_7_cat_10_n02123597_2549.png
subject-03,1,561,1.50004911422729,cat,bird,10,0561_lp_s03_10_bird_10_n02018795_2659.png
subject-03,1,562,1.30402278900146,boat,car,15,0562_lp_s03_15_car_10_n02814533_12044.png
subject-03,1,563,0.902579069137573,airplane,airplane,3,0563_lp_s03_3_airplane_10_n02690373_8872.png
subject-03,1,564,1.03864789009094,bird,bird,7,0564_lp_s03_7_bird_10_n02056570_8237.png
subject-03,1,565,NaN,na,bird,0,0565_lp_s03_0_bird_10_n01843383_1215.png
subject-03,1,566,0.987365007400513,cat,boat,5,0566_lp_s03_5_boat_10_n03344393_8140.png
subject-03,1,567,1.49998998641968,bird,bicycle,5,0567_lp_s03_5_bicycle_10_n03792782_5864.png
subject-03,1,568,NaN,na,elephant,15,0568_lp_s03_15_elephant_10_n02504013_10330.png
subject-03,1,569,1.1891770362854,cat,bicycle,1,0569_lp_s03_1_bicycle_10_n03792782_3427.png
subject-03,1,570,1.04145383834839,truck,truck,7,0570_lp_s03_7_truck_10_n03796401_1971.png
subject-03,1,571,1.27810907363892,boat,airplane,5,0571_lp_s03_5_airplane_10_n02690373_10188.png
subject-03,1,572,1.25214290618896,boat,knife,15,0572_lp_s03_15_knife_10_n03041632_11969.png
subject-03,1,573,1.23441195487976,clock,truck,0,0573_lp_s03_0_truck_10_n04467665_23732.png
subject-03,1,574,NaN,na,knife,3,0574_lp_s03_3_knife_10_n03041632_30958.png
subject-03,1,575,0.871211051940918,bottle,clock,7,0575_lp_s03_7_clock_10_n03196217_2009.png
subject-03,1,576,0.783659934997559,cat,truck,10,0576_lp_s03_10_truck_10_n03796401_22744.png
subject-03,1,577,1.17409086227417,bird,bird,15,0577_lp_s03_15_bird_10_n02013706_1643.png
subject-03,1,578,1.27813601493835,airplane,bird,1,0578_lp_s03_1_bird_10_n02002556_18482.png
subject-03,1,579,1.2005181312561,truck,dog,7,0579_lp_s03_7_dog_10_n02106382_5330.png
subject-03,1,580,0.990641832351685,bicycle,bicycle,5,0580_lp_s03_5_bicycle_10_n03792782_53662.png
subject-03,1,581,1.14336514472961,airplane,bottle,10,0581_lp_s03_10_bottle_10_n03937543_6232.png
subject-03,1,582,0.847733974456787,cat,dog,15,0582_lp_s03_15_dog_10_n02104365_792.png
subject-03,1,583,0.978121995925903,airplane,airplane,7,0583_lp_s03_7_airplane_10_n02690373_8382.png
subject-03,1,584,1.3367919921875,bear,clock,15,0584_lp_s03_15_clock_10_n04548280_2751.png
subject-03,1,585,1.11915898323059,bird,cat,3,0585_lp_s03_3_cat_10_n02123045_6412.png
subject-03,1,586,1.37168312072754,cat,oven,1,0586_lp_s03_1_oven_10_n04111531_13801.png
subject-03,1,587,0.915800094604492,bird,knife,10,0587_lp_s03_10_knife_10_n03041632_14801.png
subject-03,1,588,0.735591888427734,bottle,clock,40,0588_lp_s03_40_clock_10_n03196217_9160.png
subject-03,1,589,0.726097822189331,cat,elephant,10,0589_lp_s03_10_elephant_10_n02504013_9862.png
subject-03,1,590,1.43074202537537,oven,truck,5,0590_lp_s03_5_truck_10_n03417042_10517.png
subject-03,1,591,0.691266059875488,cat,bear,7,0591_lp_s03_7_bear_10_n02134084_11594.png
subject-03,1,592,0.951648950576782,bird,bird,0,0592_lp_s03_0_bird_10_n01828970_5392.png
subject-03,1,593,0.956412076950073,bottle,bottle,15,0593_lp_s03_15_bottle_10_n04579145_4532.png
subject-03,1,594,1.46051907539368,truck,truck,5,0594_lp_s03_5_truck_10_n04467665_5674.png
subject-03,1,595,1.07521605491638,clock,chair,40,0595_lp_s03_40_chair_10_n04099969_20075.png
subject-03,1,596,0.797701120376587,cat,keyboard,40,0596_lp_s03_40_keyboard_10_n04505470_1052.png
subject-03,1,597,1.28015804290771,boat,chair,1,0597_lp_s03_1_chair_10_n02791124_3432.png
subject-03,1,598,1.03042602539062,bear,elephant,1,0598_lp_s03_1_elephant_10_n02504013_5533.png
subject-03,1,599,0.97443413734436,bird,bird,0,0599_lp_s03_0_bird_10_n01592084_8447.png
subject-03,1,600,1.50009107589722,elephant,airplane,15,0600_lp_s03_15_airplane_10_n02690373_10397.png
subject-03,1,601,1.18479609489441,oven,clock,5,0601_lp_s03_5_clock_10_n03196217_6178.png
subject-03,1,602,1.50016808509827,bird,boat,1,0602_lp_s03_1_boat_10_n04273569_11057.png
subject-03,1,603,1.14191579818726,cat,bird,7,0603_lp_s03_7_bird_10_n01532829_37668.png
subject-03,1,604,1.03209018707275,boat,boat,15,0604_lp_s03_15_boat_10_n03344393_12629.png
subject-03,1,605,1.24414992332458,truck,truck,3,0605_lp_s03_3_truck_10_n04467665_30208.png
subject-03,1,606,1.25065183639526,cat,clock,1,0606_lp_s03_1_clock_10_n03196217_3358.png
subject-03,1,607,1.48701810836792,bird,truck,40,0607_lp_s03_40_truck_10_n03417042_4574.png
subject-03,1,608,NaN,na,car,15,0608_lp_s03_15_car_10_n02814533_31567.png
subject-03,1,609,1.29025793075562,bicycle,bicycle,0,0609_lp_s03_0_bicycle_10_n02835271_176.png
subject-03,1,610,0.934613943099976,bird,bear,5,0610_lp_s03_5_bear_10_n02132136_19995.png
subject-03,1,611,1.11722087860107,cat,keyboard,15,0611_lp_s03_15_keyboard_10_n04505470_4131.png
subject-03,1,612,0.78571891784668,boat,boat,0,0612_lp_s03_0_boat_10_n04273569_34117.png
subject-03,1,613,0.959908008575439,keyboard,keyboard,0,0613_lp_s03_0_keyboard_10_n03085013_20460.png
subject-03,1,614,NaN,na,bottle,7,0614_lp_s03_7_bottle_10_n04557648_7349.png
subject-03,1,615,1.16232895851135,truck,truck,0,0615_lp_s03_0_truck_10_n04467665_13143.png
subject-03,1,616,1.29092597961426,car,car,1,0616_lp_s03_1_car_10_n03100240_17202.png
subject-03,1,617,1.01887607574463,car,car,3,0617_lp_s03_3_car_10_n03100240_5776.png
subject-03,1,618,0.801161050796509,boat,boat,3,0618_lp_s03_3_boat_10_n03344393_2537.png
subject-03,1,619,1.20544409751892,airplane,airplane,3,0619_lp_s03_3_airplane_10_n02690373_2952.png
subject-03,1,620,NaN,na,dog,40,0620_lp_s03_40_dog_10_n02097047_2871.png
subject-03,1,621,0.953619956970215,cat,elephant,15,0621_lp_s03_15_elephant_10_n02504013_21215.png
subject-03,1,622,1.05179595947266,oven,oven,7,0622_lp_s03_7_oven_10_n04111531_11405.png
subject-03,1,623,0.965749979019165,clock,knife,40,0623_lp_s03_40_knife_10_n03041632_30196.png
subject-03,1,624,1.16197490692139,bottle,truck,40,0624_lp_s03_40_truck_10_n04467665_63788.png
subject-03,1,625,1.04443693161011,bottle,bottle,15,0625_lp_s03_15_bottle_10_n02823428_10635.png
subject-03,1,626,0.873006105422974,bird,bird,3,0626_lp_s03_3_bird_10_n01818515_10847.png
subject-03,1,627,1.28505420684814,clock,dog,40,0627_lp_s03_40_dog_10_n02094258_4016.png
subject-03,1,628,1.08361315727234,bear,bear,7,0628_lp_s03_7_bear_10_n02132136_15168.png
subject-03,1,629,1.2254421710968,boat,oven,5,0629_lp_s03_5_oven_10_n04111531_1305.png
subject-03,1,630,NaN,na,chair,3,0630_lp_s03_3_chair_10_n03376595_10690.png
subject-03,1,631,1.02685379981995,boat,airplane,0,0631_lp_s03_0_airplane_10_n02690373_1213.png
subject-03,1,632,1.06916904449463,oven,dog,5,0632_lp_s03_5_dog_10_n02108000_5830.png
subject-03,1,633,1.08393788337708,clock,chair,10,0633_lp_s03_10_chair_10_n03376595_15926.png
subject-03,1,634,1.44216990470886,boat,boat,0,0634_lp_s03_0_boat_10_n04612504_1657.png
subject-03,1,635,1.50019407272339,bear,bear,1,0635_lp_s03_1_bear_10_n02134084_19803.png
subject-03,1,636,1.50003600120544,cat,clock,10,0636_lp_s03_10_clock_10_n02708093_782.png
subject-03,1,637,1.2320830821991,clock,boat,40,0637_lp_s03_40_boat_10_n02951358_167.png
subject-03,1,638,1.43855404853821,elephant,elephant,7,0638_lp_s03_7_elephant_10_n02504013_2755.png
subject-03,1,639,1.08344793319702,cat,oven,5,0639_lp_s03_5_oven_10_n04111531_22916.png
subject-03,1,640,1.14979076385498,bird,chair,10,0640_lp_s03_10_chair_10_n02791124_5812.png
subject-03,1,641,1.21978402137756,chair,bicycle,1,0641_lp_s03_1_bicycle_10_n03792782_7764.png
subject-03,1,642,1.25595092773438,car,clock,0,0642_lp_s03_0_clock_10_n02708093_353.png
subject-03,1,643,1.3899290561676,bird,bear,40,0643_lp_s03_40_bear_10_n02132136_24204.png
subject-03,1,644,1.02868986129761,car,car,0,0644_lp_s03_0_car_10_n04285008_6773.png
subject-03,1,645,1.14885592460632,oven,airplane,10,0645_lp_s03_10_airplane_10_n02690373_8444.png
subject-03,1,646,0.98464298248291,car,car,1,0646_lp_s03_1_car_10_n04285008_6454.png
subject-03,1,647,1.42727613449097,cat,clock,10,0647_lp_s03_10_clock_10_n02708093_3368.png
subject-03,1,648,1.0799458026886,cat,bottle,10,0648_lp_s03_10_bottle_10_n02823428_11498.png
subject-03,1,649,0.999935865402222,clock,clock,40,0649_lp_s03_40_clock_10_n04548280_1105.png
subject-03,1,650,NaN,na,keyboard,40,0650_lp_s03_40_keyboard_10_n03085013_21444.png
subject-03,1,651,1.5002429485321,airplane,airplane,1,0651_lp_s03_1_airplane_10_n02690373_2217.png
subject-03,1,652,NaN,na,bear,15,0652_lp_s03_15_bear_10_n02132136_6768.png
subject-03,1,653,0.836449146270752,oven,elephant,7,0653_lp_s03_7_elephant_10_n02504013_5503.png
subject-03,1,654,0.97287392616272,cat,elephant,5,0654_lp_s03_5_elephant_10_n02504458_5816.png
subject-03,1,655,1.50030589103699,cat,dog,40,0655_lp_s03_40_dog_10_n02108422_3556.png
subject-03,1,656,1.09960079193115,bird,knife,10,0656_lp_s03_10_knife_10_n03041632_9635.png
subject-03,1,657,1.00606203079224,oven,chair,7,0657_lp_s03_7_chair_10_n03376595_7010.png
subject-03,1,658,1.03161215782166,oven,chair,0,0658_lp_s03_0_chair_10_n04429376_10544.png
subject-03,1,659,0.792268037796021,cat,knife,10,0659_lp_s03_10_knife_10_n03041632_54603.png
subject-03,1,660,1.17417788505554,clock,bicycle,40,0660_lp_s03_40_bicycle_10_n03792782_42615.png
subject-03,1,661,0.880469083786011,clock,clock,15,0661_lp_s03_15_clock_10_n04548280_2988.png
subject-03,1,662,1.18456292152405,cat,oven,7,0662_lp_s03_7_oven_10_n04111531_689.png
subject-03,1,663,1.02092885971069,bird,boat,5,0663_lp_s03_5_boat_10_n03662601_11882.png
subject-03,1,664,0.887475967407227,bottle,bottle,0,0664_lp_s03_0_bottle_10_n04560804_13832.png
subject-03,1,665,1.06985712051392,oven,keyboard,15,0665_lp_s03_15_keyboard_10_n04505470_1186.png
subject-03,1,666,1.32216501235962,bear,bottle,15,0666_lp_s03_15_bottle_10_n02823428_4849.png
subject-03,1,667,1.22071385383606,cat,oven,7,0667_lp_s03_7_oven_10_n04111531_3955.png
subject-03,1,668,0.917134046554565,oven,keyboard,15,0668_lp_s03_15_keyboard_10_n04505470_858.png
subject-03,1,669,NaN,na,bird,1,0669_lp_s03_1_bird_10_n02009229_5887.png
subject-03,1,670,1.08977794647217,boat,bicycle,10,0670_lp_s03_10_bicycle_10_n02835271_1733.png
subject-03,1,671,1.32609891891479,bear,elephant,5,0671_lp_s03_5_elephant_10_n02504458_9876.png
subject-03,1,672,0.954135894775391,truck,truck,5,0672_lp_s03_5_truck_10_n04467665_2044.png
subject-03,1,673,0.936154842376709,cat,cat,0,0673_lp_s03_0_cat_10_n02123394_5846.png
subject-03,1,674,0.850672960281372,cat,bicycle,40,0674_lp_s03_40_bicycle_10_n03792782_1240.png
subject-03,1,675,1.31540894508362,cat,bear,10,0675_lp_s03_10_bear_10_n02132136_3732.png
subject-03,1,676,1.29781603813171,car,car,3,0676_lp_s03_3_car_10_n03100240_7961.png
subject-03,1,677,0.958209991455078,cat,oven,15,0677_lp_s03_15_oven_10_n04111531_11848.png
subject-03,1,678,1.42897796630859,airplane,airplane,1,0678_lp_s03_1_airplane_10_n02690373_379.png
subject-03,1,679,0.951195955276489,bird,bicycle,40,0679_lp_s03_40_bicycle_10_n03792782_565.png
subject-03,1,680,NaN,na,cat,0,0680_lp_s03_0_cat_10_n02123597_4863.png
subject-03,1,681,0.893980026245117,cat,cat,15,0681_lp_s03_15_cat_10_n02123159_2329.png
subject-03,1,682,1.02813506126404,truck,truck,5,0682_lp_s03_5_truck_10_n03417042_26816.png
subject-03,1,683,1.14277505874634,bear,cat,15,0683_lp_s03_15_cat_10_n02124075_16814.png
subject-03,1,684,0.917129039764404,chair,bottle,1,0684_lp_s03_1_bottle_10_n02823428_4159.png
subject-03,1,685,1.085618019104,bear,bear,1,0685_lp_s03_1_bear_10_n02133161_6593.png
subject-03,1,686,0.835969924926758,truck,clock,7,0686_lp_s03_7_clock_10_n03196217_1047.png
subject-03,1,687,NaN,na,keyboard,1,0687_lp_s03_1_keyboard_10_n03085013_3815.png
subject-03,1,688,1.19240689277649,bird,bird,0,0688_lp_s03_0_bird_10_n02006656_1588.png
subject-03,1,689,1.11266899108887,bird,bear,0,0689_lp_s03_0_bear_10_n02132136_4262.png
subject-03,1,690,0.978970050811768,keyboard,keyboard,10,0690_lp_s03_10_keyboard_10_n03085013_24460.png
subject-03,1,691,1.50011610984802,cat,airplane,3,0691_lp_s03_3_airplane_10_n02690373_13283.png
subject-03,1,692,1.07600903511047,cat,oven,1,0692_lp_s03_1_oven_10_n04111531_8603.png
subject-03,1,693,1.07447504997253,airplane,airplane,1,0693_lp_s03_1_airplane_10_n02690373_2941.png
subject-03,1,694,0.970357894897461,clock,car,40,0694_lp_s03_40_car_10_n02814533_41391.png
subject-03,1,695,NaN,na,boat,3,0695_lp_s03_3_boat_10_n03344393_2487.png
subject-03,1,696,1.09660983085632,cat,oven,0,0696_lp_s03_0_oven_10_n04111531_14804.png
subject-03,1,697,1.04693007469177,boat,boat,0,0697_lp_s03_0_boat_10_n04612504_4082.png
subject-03,1,698,1.49615693092346,cat,dog,3,0698_lp_s03_3_dog_10_n02087394_21556.png
subject-03,1,699,0.672735929489136,keyboard,keyboard,5,0699_lp_s03_5_keyboard_10_n03085013_22960.png
subject-03,1,700,1.37494802474976,airplane,truck,10,0700_lp_s03_10_truck_10_n04467665_23061.png
subject-03,1,701,1.50041198730469,cat,oven,3,0701_lp_s03_3_oven_10_n04111531_5643.png
subject-03,1,702,0.993733882904053,cat,truck,10,0702_lp_s03_10_truck_10_n03417042_8654.png
subject-03,1,703,1.00002098083496,bird,truck,10,0703_lp_s03_10_truck_10_n03417042_3140.png
subject-03,1,704,1.41222310066223,keyboard,keyboard,3,0704_lp_s03_3_keyboard_10_n03085013_15249.png
subject-03,1,705,1.22679996490479,knife,knife,0,0705_lp_s03_0_knife_10_n03041632_23736.png
subject-03,1,706,1.05980396270752,chair,chair,0,0706_lp_s03_0_chair_10_n04099969_24275.png
subject-03,1,707,0.879953145980835,airplane,airplane,10,0707_lp_s03_10_airplane_10_n02690373_6468.png
subject-03,1,708,1.16814804077148,elephant,bear,3,0708_lp_s03_3_bear_10_n02134418_510.png
subject-03,1,709,1.33689904212952,bicycle,boat,7,0709_lp_s03_7_boat_10_n04612504_34550.png
subject-03,1,710,1.31909489631653,elephant,elephant,3,0710_lp_s03_3_elephant_10_n02504013_11708.png
subject-03,1,711,1.32349300384521,airplane,knife,15,0711_lp_s03_15_knife_10_n03041632_48151.png
subject-03,1,712,0.751113891601562,bottle,bird,0,0712_lp_s03_0_bird_10_n02056570_9628.png
subject-03,1,713,1.00348687171936,bottle,bottle,3,0713_lp_s03_3_bottle_10_n02823428_9898.png
subject-03,1,714,0.891834020614624,knife,knife,0,0714_lp_s03_0_knife_10_n03041632_44269.png
subject-03,1,715,0.944192886352539,truck,truck,5,0715_lp_s03_5_truck_10_n03417042_8374.png
subject-03,1,716,0.894320011138916,cat,cat,40,0716_lp_s03_40_cat_10_n02123597_4460.png
subject-03,1,717,0.900134086608887,bottle,boat,40,0717_lp_s03_40_boat_10_n02951358_7478.png
subject-03,1,718,0.874545097351074,knife,knife,0,0718_lp_s03_0_knife_10_n03041632_52040.png
subject-03,1,719,0.924926042556763,cat,knife,10,0719_lp_s03_10_knife_10_n03041632_29343.png
subject-03,1,720,0.839273929595947,elephant,elephant,7,0720_lp_s03_7_elephant_10_n02504458_6248.png
subject-03,1,721,1.41192507743835,bottle,knife,40,0721_lp_s03_40_knife_10_n03041632_49513.png
subject-03,1,722,1.40818309783936,oven,elephant,15,0722_lp_s03_15_elephant_10_n02504013_2997.png
subject-03,1,723,1.50035500526428,cat,oven,40,0723_lp_s03_40_oven_10_n04111531_986.png
subject-03,1,724,1.18871998786926,bird,oven,15,0724_lp_s03_15_oven_10_n04111531_10306.png
subject-03,1,725,1.45489907264709,elephant,cat,1,0725_lp_s03_1_cat_10_n02125311_26295.png
subject-03,1,726,1.50013113021851,truck,dog,1,0726_lp_s03_1_dog_10_n02107683_2814.png
subject-03,1,727,0.7273268699646,truck,truck,1,0727_lp_s03_1_truck_10_n04467665_21912.png
subject-03,1,728,0.909542798995972,cat,bicycle,7,0728_lp_s03_7_bicycle_10_n02835271_15918.png
subject-03,1,729,1.36556100845337,clock,clock,40,0729_lp_s03_40_clock_10_n03196217_993.png
subject-03,1,730,1.50016713142395,bird,knife,7,0730_lp_s03_7_knife_10_n03041632_15099.png
subject-03,1,731,1.07641005516052,cat,truck,15,0731_lp_s03_15_truck_10_n03417042_10965.png
subject-03,1,732,1.04476809501648,keyboard,keyboard,3,0732_lp_s03_3_keyboard_10_n03085013_5738.png
subject-03,1,733,0.903126001358032,clock,dog,40,0733_lp_s03_40_dog_10_n02088238_11204.png
subject-03,1,734,NaN,na,oven,1,0734_lp_s03_1_oven_10_n04111531_12929.png
subject-03,1,735,1.50003099441528,chair,knife,3,0735_lp_s03_3_knife_10_n03041632_8468.png
subject-03,1,736,1.09603118896484,bird,bird,1,0736_lp_s03_1_bird_10_n02011460_491.png
subject-03,1,737,1.26837086677551,bear,bear,5,0737_lp_s03_5_bear_10_n02134084_13177.png
subject-03,1,738,1.1286940574646,chair,knife,5,0738_lp_s03_5_knife_10_n03041632_35764.png
subject-03,1,739,1.39211797714233,clock,keyboard,40,0739_lp_s03_40_keyboard_10_n04505470_10744.png
subject-03,1,740,NaN,na,clock,0,0740_lp_s03_0_clock_10_n03196217_727.png
subject-03,1,741,1.50041198730469,bird,cat,7,0741_lp_s03_7_cat_10_n02123045_3069.png
subject-03,1,742,1.20943808555603,cat,oven,10,0742_lp_s03_10_oven_10_n04111531_8344.png
subject-03,1,743,NaN,na,airplane,7,0743_lp_s03_7_airplane_10_n02690373_5214.png
subject-03,1,744,0.820549011230469,keyboard,keyboard,5,0744_lp_s03_5_keyboard_10_n03085013_19343.png
subject-03,1,745,1.07290101051331,clock,clock,1,0745_lp_s03_1_clock_10_n02708093_6148.png
subject-03,1,746,NaN,na,cat,0,0746_lp_s03_0_cat_10_n02123159_6005.png
subject-03,1,747,NaN,na,knife,1,0747_lp_s03_1_knife_10_n03041632_36789.png
subject-03,1,748,1.39236402511597,clock,airplane,40,0748_lp_s03_40_airplane_10_n02690373_427.png
subject-03,1,749,1.40485882759094,cat,dog,0,0749_lp_s03_0_dog_10_n02102973_5758.png
subject-03,1,750,0.870411157608032,chair,chair,0,0750_lp_s03_0_chair_10_n03376595_6135.png
subject-03,1,751,1.11267399787903,bird,boat,40,0751_lp_s03_40_boat_10_n02951358_1878.png
subject-03,1,752,0.781116008758545,clock,clock,1,0752_lp_s03_1_clock_10_n03196217_5916.png
subject-03,1,753,1.20151305198669,bird,bicycle,15,0753_lp_s03_15_bicycle_10_n02835271_6680.png
subject-03,1,754,0.921607971191406,cat,bicycle,10,0754_lp_s03_10_bicycle_10_n02835271_20542.png
subject-03,1,755,0.741504907608032,boat,boat,5,0755_lp_s03_5_boat_10_n04273569_4727.png
subject-03,1,756,1.50024318695068,dog,cat,10,0756_lp_s03_10_cat_10_n02123597_12953.png
subject-03,1,757,0.95026707649231,keyboard,keyboard,1,0757_lp_s03_1_keyboard_10_n04505470_5153.png
subject-03,1,758,1.34029412269592,cat,chair,40,0758_lp_s03_40_chair_10_n03376595_16213.png
subject-03,1,759,1.26640892028809,oven,dog,1,0759_lp_s03_1_dog_10_n02105251_454.png
subject-03,1,760,0.902634143829346,airplane,bird,3,0760_lp_s03_3_bird_10_n02056570_9169.png
subject-03,1,761,1.45242810249329,bird,truck,40,0761_lp_s03_40_truck_10_n03417042_3216.png
subject-03,1,762,1.3725278377533,boat,keyboard,40,0762_lp_s03_40_keyboard_10_n03085013_7588.png
subject-03,1,763,1.04037499427795,oven,keyboard,3,0763_lp_s03_3_keyboard_10_n03085013_1695.png
subject-03,1,764,1.27516078948975,bird,bird,7,0764_lp_s03_7_bird_10_n02018795_12923.png
subject-03,1,765,0.767750978469849,cat,knife,1,0765_lp_s03_1_knife_10_n03041632_4279.png
subject-03,1,766,0.8800208568573,bird,dog,5,0766_lp_s03_5_dog_10_n02106550_669.png
subject-03,1,767,1.02276420593262,dog,bicycle,15,0767_lp_s03_15_bicycle_10_n03792782_2263.png
subject-03,1,768,1.02887487411499,car,car,5,0768_lp_s03_5_car_10_n03100240_11977.png
subject-03,1,769,1.05734515190125,bottle,bottle,5,0769_lp_s03_5_bottle_10_n04557648_413.png
subject-03,1,770,1.50001001358032,bird,cat,5,0770_lp_s03_5_cat_10_n02123159_7967.png
subject-03,1,771,1.50025701522827,bicycle,bear,0,0771_lp_s03_0_bear_10_n02132136_6947.png
subject-03,1,772,1.2328188419342,clock,clock,1,0772_lp_s03_1_clock_10_n02708093_3691.png
subject-03,1,773,1.42307782173157,cat,airplane,15,0773_lp_s03_15_airplane_10_n02690373_6104.png
subject-03,1,774,1.50025796890259,oven,bicycle,10,0774_lp_s03_10_bicycle_10_n03792782_13508.png
subject-03,1,775,1.45584893226624,boat,boat,1,0775_lp_s03_1_boat_10_n03344393_5917.png
subject-03,1,776,0.986423969268799,car,car,5,0776_lp_s03_5_car_10_n02814533_49890.png
subject-03,1,777,1.35800909996033,bird,truck,40,0777_lp_s03_40_truck_10_n03417042_803.png
subject-03,1,778,1.46691489219666,cat,truck,15,0778_lp_s03_15_truck_10_n03417042_4966.png
subject-03,1,779,1.50002908706665,clock,elephant,3,0779_lp_s03_3_elephant_10_n02504013_11156.png
subject-03,1,780,1.50030112266541,knife,knife,40,0780_lp_s03_40_knife_10_n03041632_25022.png
subject-03,1,781,1.22926712036133,cat,bicycle,5,0781_lp_s03_5_bicycle_10_n02835271_12264.png
subject-03,1,782,1.4094250202179,bird,bear,15,0782_lp_s03_15_bear_10_n02134084_17288.png
subject-03,1,783,1.21329498291016,cat,bottle,40,0783_lp_s03_40_bottle_10_n03937543_3105.png
subject-03,1,784,1.31175589561462,cat,elephant,3,0784_lp_s03_3_elephant_10_n02504013_11144.png
subject-03,1,785,1.39424395561218,knife,chair,0,0785_lp_s03_0_chair_10_n02791124_9216.png
subject-03,1,786,1.13070392608643,cat,cat,5,0786_lp_s03_5_cat_10_n02123159_5637.png
subject-03,1,787,1.15884113311768,boat,clock,15,0787_lp_s03_15_clock_10_n04548280_7159.png
subject-03,1,788,1.00342297554016,car,car,3,0788_lp_s03_3_car_10_n03100240_2742.png
subject-03,1,789,0.953629016876221,elephant,elephant,0,0789_lp_s03_0_elephant_10_n02504458_7098.png
subject-03,1,790,1.38198304176331,cat,dog,3,0790_lp_s03_3_dog_10_n02113799_18593.png
subject-03,1,791,0.86401891708374,bear,bear,1,0791_lp_s03_1_bear_10_n02134418_195.png
subject-03,1,792,1.25267100334167,cat,oven,15,0792_lp_s03_15_oven_10_n04111531_9611.png
subject-03,1,793,1.50032997131348,dog,elephant,10,0793_lp_s03_10_elephant_10_n02504458_12175.png
subject-03,1,794,1.34674119949341,truck,truck,0,0794_lp_s03_0_truck_10_n04467665_69447.png
subject-03,1,795,NaN,na,elephant,1,0795_lp_s03_1_elephant_10_n02504013_24680.png
subject-03,1,796,1.15181493759155,bicycle,cat,3,0796_lp_s03_3_cat_10_n02123045_324.png
subject-03,1,797,0.818375825881958,bicycle,bicycle,1,0797_lp_s03_1_bicycle_10_n03792782_22908.png
subject-03,1,798,1.22282004356384,airplane,cat,10,0798_lp_s03_10_cat_10_n02123394_1980.png
subject-03,1,799,1.03707313537598,car,car,0,0799_lp_s03_0_car_10_n03100240_2203.png
subject-03,1,800,1.15378904342651,knife,knife,0,0800_lp_s03_0_knife_10_n03041632_9406.png
subject-03,1,801,1.40062689781189,bird,clock,5,0801_lp_s03_5_clock_10_n04548280_3128.png
subject-03,1,802,0.981858015060425,oven,oven,0,0802_lp_s03_0_oven_10_n04111531_11470.png
subject-03,1,803,1.50031995773315,bird,chair,7,0803_lp_s03_7_chair_10_n03376595_2387.png
subject-03,1,804,1.30672407150269,bird,elephant,7,0804_lp_s03_7_elephant_10_n02504458_5457.png
subject-03,1,805,0.883580923080444,bottle,bottle,0,0805_lp_s03_0_bottle_10_n03937543_668.png
subject-03,1,806,1.30189895629883,knife,knife,0,0806_lp_s03_0_knife_10_n03041632_24461.png
subject-03,1,807,1.26178002357483,knife,knife,0,0807_lp_s03_0_knife_10_n03041632_4714.png
subject-03,1,808,0.997919797897339,clock,clock,0,0808_lp_s03_0_clock_10_n02708093_556.png
subject-03,1,809,0.842695951461792,cat,cat,15,0809_lp_s03_15_cat_10_n02125311_46330.png
subject-03,1,810,1.43097019195557,car,car,1,0810_lp_s03_1_car_10_n02814533_86307.png
subject-03,1,811,0.753408908843994,bottle,bottle,7,0811_lp_s03_7_bottle_10_n03937543_1252.png
subject-03,1,812,0.841495990753174,cat,knife,10,0812_lp_s03_10_knife_10_n03041632_32785.png
subject-03,1,813,1.14571285247803,truck,truck,5,0813_lp_s03_5_truck_10_n04467665_30935.png
subject-03,1,814,0.622247934341431,clock,clock,7,0814_lp_s03_7_clock_10_n04548280_9752.png
subject-03,1,815,0.826696157455444,clock,clock,1,0815_lp_s03_1_clock_10_n04548280_22842.png
subject-03,1,816,1.18481802940369,bird,car,40,0816_lp_s03_40_car_10_n04285008_1701.png
subject-03,1,817,1.36714100837708,cat,bear,0,0817_lp_s03_0_bear_10_n02132136_2985.png
subject-03,1,818,0.903928995132446,cat,cat,5,0818_lp_s03_5_cat_10_n02125311_13023.png
subject-03,1,819,1.41619205474854,bird,cat,15,0819_lp_s03_15_cat_10_n02123394_1122.png
subject-03,1,820,0.806887865066528,cat,cat,10,0820_lp_s03_10_cat_10_n02125311_19535.png
subject-03,1,821,1.5001540184021,knife,knife,3,0821_lp_s03_3_knife_10_n03041632_4214.png
subject-03,1,822,1.17746305465698,keyboard,keyboard,5,0822_lp_s03_5_keyboard_10_n04505470_4832.png
subject-03,1,823,1.43597388267517,cat,bear,3,0823_lp_s03_3_bear_10_n02134418_5526.png
subject-03,1,824,NaN,na,bicycle,40,0824_lp_s03_40_bicycle_10_n03792782_2793.png
subject-03,1,825,1.17853403091431,bird,elephant,10,0825_lp_s03_10_elephant_10_n02504458_4432.png
subject-03,1,826,1.21281003952026,cat,bird,10,0826_lp_s03_10_bird_10_n01829413_5505.png
subject-03,1,827,1.27306294441223,airplane,airplane,1,0827_lp_s03_1_airplane_10_n02690373_10938.png
subject-03,1,828,1.05548000335693,clock,clock,5,0828_lp_s03_5_clock_10_n04548280_2490.png
subject-03,1,829,1.40545511245728,boat,airplane,15,0829_lp_s03_15_airplane_10_n02690373_8350.png
subject-03,1,830,1.44728183746338,clock,knife,40,0830_lp_s03_40_knife_10_n03041632_31932.png
subject-03,1,831,1.08356809616089,dog,dog,7,0831_lp_s03_7_dog_10_n02102177_5703.png
subject-03,1,832,1.27159214019775,bottle,bottle,7,0832_lp_s03_7_bottle_10_n02823428_901.png
subject-03,1,833,1.06169199943542,bird,elephant,15,0833_lp_s03_15_elephant_10_n02504013_4995.png
subject-03,1,834,1.29616498947144,airplane,car,7,0834_lp_s03_7_car_10_n04285008_7249.png
subject-03,1,835,1.16223502159119,knife,knife,15,0835_lp_s03_15_knife_10_n03041632_27575.png
subject-03,1,836,1.33685398101807,bird,clock,15,0836_lp_s03_15_clock_10_n03196217_5300.png
subject-03,1,837,1.20371794700623,elephant,elephant,5,0837_lp_s03_5_elephant_10_n02504458_8060.png
subject-03,1,838,0.978148937225342,cat,boat,10,0838_lp_s03_10_boat_10_n03662601_23478.png
subject-03,1,839,1.1599600315094,oven,chair,3,0839_lp_s03_3_chair_10_n04429376_16272.png
subject-03,1,840,1.01279592514038,cat,bicycle,10,0840_lp_s03_10_bicycle_10_n02835271_4379.png
subject-03,1,841,0.940728902816772,boat,bear,40,0841_lp_s03_40_bear_10_n02132136_2978.png
subject-03,1,842,1.02906918525696,bird,bird,7,0842_lp_s03_7_bird_10_n02002556_3380.png
subject-03,1,843,0.924863815307617,oven,clock,10,0843_lp_s03_10_clock_10_n03196217_11054.png
subject-03,1,844,1.22371792793274,chair,bicycle,5,0844_lp_s03_5_bicycle_10_n02835271_4307.png
subject-03,1,845,0.8681800365448,bottle,bottle,7,0845_lp_s03_7_bottle_10_n04557648_9539.png
subject-03,1,846,1.21063804626465,airplane,airplane,5,0846_lp_s03_5_airplane_10_n02690373_6720.png
subject-03,1,847,1.25210404396057,cat,cat,10,0847_lp_s03_10_cat_10_n02123045_2825.png
subject-03,1,848,1.25871801376343,dog,dog,10,0848_lp_s03_10_dog_10_n02101556_9862.png
subject-03,1,849,0.879162073135376,car,car,3,0849_lp_s03_3_car_10_n03100240_7836.png
subject-03,1,850,0.891442060470581,keyboard,keyboard,0,0850_lp_s03_0_keyboard_10_n03085013_2300.png
subject-03,1,851,1.11142110824585,car,car,10,0851_lp_s03_10_car_10_n04285008_10703.png
subject-03,1,852,0.94731616973877,clock,clock,40,0852_lp_s03_40_clock_10_n04548280_3161.png
subject-03,1,853,0.9755539894104,car,car,5,0853_lp_s03_5_car_10_n03100240_5842.png
subject-03,1,854,NaN,na,dog,0,0854_lp_s03_0_dog_10_n02093256_12851.png
subject-03,1,855,1.11378383636475,boat,car,40,0855_lp_s03_40_car_10_n04285008_1305.png
subject-03,1,856,0.644436836242676,clock,clock,10,0856_lp_s03_10_clock_10_n04548280_1878.png
subject-03,1,857,NaN,na,bicycle,40,0857_lp_s03_40_bicycle_10_n03792782_24085.png
subject-03,1,858,1.13687086105347,bird,truck,7,0858_lp_s03_7_truck_10_n04467665_30457.png
subject-03,1,859,1.3654088973999,oven,bottle,10,0859_lp_s03_10_bottle_10_n03983396_7576.png
subject-03,1,860,0.885890007019043,keyboard,keyboard,7,0860_lp_s03_7_keyboard_10_n03085013_6928.png
subject-03,1,861,1.13849902153015,bird,boat,7,0861_lp_s03_7_boat_10_n02951358_30773.png
subject-03,1,862,0.934899091720581,car,car,0,0862_lp_s03_0_car_10_n02814533_45315.png
subject-03,1,863,1.14720010757446,cat,bottle,7,0863_lp_s03_7_bottle_10_n03937543_1951.png
subject-03,1,864,1.39714288711548,bird,car,40,0864_lp_s03_40_car_10_n04285008_7166.png
subject-03,1,865,NaN,na,chair,7,0865_lp_s03_7_chair_10_n04429376_70.png
subject-03,1,866,1.12396597862244,truck,truck,0,0866_lp_s03_0_truck_10_n03796401_14490.png
subject-03,1,867,1.24383902549744,car,car,7,0867_lp_s03_7_car_10_n03100240_15228.png
subject-03,1,868,0.926104068756104,cat,dog,3,0868_lp_s03_3_dog_10_n02091244_9626.png
subject-03,1,869,0.778174161911011,clock,clock,1,0869_lp_s03_1_clock_10_n04548280_1438.png
subject-03,1,870,1.21248197555542,chair,knife,1,0870_lp_s03_1_knife_10_n03041632_99875.png
subject-03,1,871,NaN,na,boat,3,0871_lp_s03_3_boat_10_n04273569_3430.png
subject-03,1,872,1.2832190990448,truck,oven,7,0872_lp_s03_7_oven_10_n04111531_5290.png
subject-03,1,873,1.5001220703125,car,car,0,0873_lp_s03_0_car_10_n04285008_11616.png
subject-03,1,874,NaN,na,truck,10,0874_lp_s03_10_truck_10_n03417042_5895.png
subject-03,1,875,NaN,na,cat,15,0875_lp_s03_15_cat_10_n02124075_4797.png
subject-03,1,876,0.959212064743042,cat,elephant,15,0876_lp_s03_15_elephant_10_n02504013_8758.png
subject-03,1,877,0.748627901077271,clock,bear,40,0877_lp_s03_40_bear_10_n02134084_7219.png
subject-03,1,878,0.891298055648804,cat,car,15,0878_lp_s03_15_car_10_n03100240_5796.png
subject-03,1,879,1.13606190681458,dog,dog,10,0879_lp_s03_10_dog_10_n02096437_6855.png
subject-03,1,880,1.24811387062073,elephant,elephant,1,0880_lp_s03_1_elephant_10_n02504458_2957.png
subject-03,1,881,1.50006890296936,clock,car,40,0881_lp_s03_40_car_10_n03100240_4870.png
subject-03,1,882,1.01852107048035,cat,bicycle,7,0882_lp_s03_7_bicycle_10_n03792782_23912.png
subject-03,1,883,1.46110391616821,keyboard,bottle,3,0883_lp_s03_3_bottle_10_n03937543_7894.png
subject-03,1,884,1.40516686439514,knife,knife,3,0884_lp_s03_3_knife_10_n03041632_38433.png
subject-03,1,885,1.50036907196045,cat,cat,5,0885_lp_s03_5_cat_10_n02123394_8165.png
subject-03,1,886,0.9535071849823,clock,clock,40,0886_lp_s03_40_clock_10_n04548280_1112.png
subject-03,1,887,1.50016903877258,bird,car,15,0887_lp_s03_15_car_10_n02814533_6212.png
subject-03,1,888,1.03212380409241,keyboard,keyboard,5,0888_lp_s03_5_keyboard_10_n03085013_4717.png
subject-03,1,889,1.31413078308105,cat,oven,5,0889_lp_s03_5_oven_10_n04111531_14568.png
subject-03,1,890,1.36428904533386,oven,boat,3,0890_lp_s03_3_boat_10_n04273569_4418.png
subject-03,1,891,0.762809991836548,keyboard,keyboard,0,0891_lp_s03_0_keyboard_10_n04505470_2737.png
subject-03,1,892,1.0210599899292,airplane,airplane,5,0892_lp_s03_5_airplane_10_n02690373_1418.png
subject-03,1,893,1.37158894538879,bicycle,bicycle,1,0893_lp_s03_1_bicycle_10_n03792782_43768.png
subject-03,1,894,NaN,na,bear,15,0894_lp_s03_15_bear_10_n02133161_2184.png
subject-03,1,895,1.08968210220337,elephant,elephant,0,0895_lp_s03_0_elephant_10_n02504458_1705.png
subject-03,1,896,1.11617493629456,elephant,elephant,3,0896_lp_s03_3_elephant_10_n02504458_6917.png
subject-03,1,897,1.45240616798401,bear,bear,5,0897_lp_s03_5_bear_10_n02132136_6529.png
subject-03,1,898,1.21930003166199,elephant,elephant,3,0898_lp_s03_3_elephant_10_n02504013_4565.png
subject-03,1,899,1.26305294036865,boat,cat,40,0899_lp_s03_40_cat_10_n02125311_25080.png
subject-03,1,900,1.4754650592804,bear,boat,15,0900_lp_s03_15_boat_10_n02951358_2524.png
subject-03,1,901,1.25764799118042,car,car,5,0901_lp_s03_5_car_10_n03100240_15894.png
subject-03,1,902,0.647711992263794,clock,clock,0,0902_lp_s03_0_clock_10_n04548280_1997.png
subject-03,1,903,0.938266038894653,cat,boat,0,0903_lp_s03_0_boat_10_n03344393_7843.png
subject-03,1,904,1.28866505622864,cat,keyboard,7,0904_lp_s03_7_keyboard_10_n03085013_26573.png
subject-03,1,905,0.679159879684448,airplane,airplane,10,0905_lp_s03_10_airplane_10_n02690373_10510.png
subject-03,1,906,1.32966303825378,cat,chair,40,0906_lp_s03_40_chair_10_n04099969_17193.png
subject-03,1,907,0.782323837280273,bottle,bottle,0,0907_lp_s03_0_bottle_10_n03983396_4295.png
subject-03,1,908,1.28657102584839,bird,bottle,15,0908_lp_s03_15_bottle_10_n04560804_2436.png
subject-03,1,909,1.36114192008972,airplane,keyboard,5,0909_lp_s03_5_keyboard_10_n03085013_18891.png
subject-03,1,910,0.873281002044678,cat,bear,0,0910_lp_s03_0_bear_10_n02133161_2767.png
subject-03,1,911,0.763274908065796,oven,oven,7,0911_lp_s03_7_oven_10_n04111531_4549.png
subject-03,1,912,0.6838059425354,airplane,airplane,10,0912_lp_s03_10_airplane_10_n02690373_6697.png
subject-03,1,913,0.904126167297363,cat,bicycle,0,0913_lp_s03_0_bicycle_10_n03792782_32341.png
subject-03,1,914,0.832620143890381,oven,bear,40,0914_lp_s03_40_bear_10_n02132136_896.png
subject-03,1,915,0.891074180603027,bird,bird,10,0915_lp_s03_10_bird_10_n01560419_2308.png
subject-03,1,916,0.819126129150391,cat,keyboard,10,0916_lp_s03_10_keyboard_10_n04505470_7686.png
subject-03,1,917,1.00172710418701,airplane,airplane,0,0917_lp_s03_0_airplane_10_n02690373_8858.png
subject-03,1,918,1.28926491737366,oven,bicycle,1,0918_lp_s03_1_bicycle_10_n02835271_2815.png
subject-03,1,919,0.901257038116455,cat,chair,15,0919_lp_s03_15_chair_10_n03376595_5160.png
subject-03,1,920,0.746134042739868,cat,dog,1,0920_lp_s03_1_dog_10_n02092002_563.png
subject-03,1,921,0.80457878112793,cat,cat,7,0921_lp_s03_7_cat_10_n02124075_1123.png
subject-03,1,922,1.18690395355225,boat,bear,40,0922_lp_s03_40_bear_10_n02134084_871.png
subject-03,1,923,NaN,na,chair,40,0923_lp_s03_40_chair_10_n04099969_5688.png
subject-03,1,924,1.17417287826538,bird,chair,7,0924_lp_s03_7_chair_10_n04099969_739.png
subject-03,1,925,0.81035590171814,cat,cat,0,0925_lp_s03_0_cat_10_n02123394_5731.png
subject-03,1,926,0.855093002319336,oven,bird,7,0926_lp_s03_7_bird_10_n01534433_5054.png
subject-03,1,927,1.0592041015625,bear,bear,5,0927_lp_s03_5_bear_10_n02134084_7670.png
subject-03,1,928,0.811296939849854,keyboard,keyboard,7,0928_lp_s03_7_keyboard_10_n03085013_20363.png
subject-03,1,929,0.827761888504028,clock,bottle,40,0929_lp_s03_40_bottle_10_n03937543_718.png
subject-03,1,930,1.2023389339447,clock,chair,40,0930_lp_s03_40_chair_10_n03376595_15330.png
subject-03,1,931,0.738487005233765,bottle,bottle,1,0931_lp_s03_1_bottle_10_n04560804_23609.png
subject-03,1,932,1.212886095047,bird,elephant,1,0932_lp_s03_1_elephant_10_n02504458_4809.png
subject-03,1,933,1.03369498252869,cat,bird,0,0933_lp_s03_0_bird_10_n01616318_5053.png
subject-03,1,934,1.40021991729736,airplane,airplane,15,0934_lp_s03_15_airplane_10_n02690373_3561.png
subject-03,1,935,1.50017690658569,car,keyboard,10,0935_lp_s03_10_keyboard_10_n04505470_2583.png
subject-03,1,936,0.878698825836182,cat,dog,5,0936_lp_s03_5_dog_10_n02089867_1230.png
subject-03,1,937,0.985450029373169,bird,dog,3,0937_lp_s03_3_dog_10_n02102318_8456.png
subject-03,1,938,0.889976978302002,cat,boat,5,0938_lp_s03_5_boat_10_n03344393_7706.png
subject-03,1,939,0.750160932540894,oven,bicycle,7,0939_lp_s03_7_bicycle_10_n02835271_14862.png
subject-03,1,940,1.11458492279053,airplane,truck,7,0940_lp_s03_7_truck_10_n03417042_17684.png
subject-03,1,941,1.50025010108948,boat,boat,3,0941_lp_s03_3_boat_10_n03662601_25781.png
subject-03,1,942,0.749366044998169,bird,bicycle,5,0942_lp_s03_5_bicycle_10_n02835271_1016.png
subject-03,1,943,0.916032075881958,cat,bird,15,0943_lp_s03_15_bird_10_n01560419_2529.png
subject-03,1,944,0.876296997070312,oven,boat,5,0944_lp_s03_5_boat_10_n02951358_12312.png
subject-03,1,945,1.12698984146118,bottle,chair,10,0945_lp_s03_10_chair_10_n04099969_14155.png
subject-03,1,946,0.92528510093689,oven,truck,7,0946_lp_s03_7_truck_10_n03796401_21290.png
subject-03,1,947,1.23777008056641,cat,cat,5,0947_lp_s03_5_cat_10_n02123394_5470.png
subject-03,1,948,NaN,na,truck,1,0948_lp_s03_1_truck_10_n03796401_26801.png
subject-03,1,949,1.10869407653809,cat,bear,7,0949_lp_s03_7_bear_10_n02134084_1503.png
subject-03,1,950,1.50030207633972,boat,chair,7,0950_lp_s03_7_chair_10_n03376595_3499.png
subject-03,1,951,1.46295404434204,bird,knife,7,0951_lp_s03_7_knife_10_n03041632_19571.png
subject-03,1,952,1.5003719329834,cat,cat,40,0952_lp_s03_40_cat_10_n02123045_3819.png
subject-03,1,953,1.42739605903625,bird,bird,0,0953_lp_s03_0_bird_10_n02051845_1656.png
subject-03,1,954,1.26154112815857,bird,bird,5,0954_lp_s03_5_bird_10_n01582220_2072.png
subject-03,1,955,0.967988967895508,car,car,3,0955_lp_s03_3_car_10_n02814533_72252.png
subject-03,1,956,1.08047008514404,cat,dog,0,0956_lp_s03_0_dog_10_n02111277_23207.png
subject-03,1,957,1.11678314208984,bird,bicycle,10,0957_lp_s03_10_bicycle_10_n03792782_6149.png
subject-03,1,958,0.961189031600952,oven,clock,1,0958_lp_s03_1_clock_10_n04548280_2273.png
subject-03,1,959,1.11145806312561,car,car,10,0959_lp_s03_10_car_10_n04285008_16117.png
subject-03,1,960,1.11576294898987,clock,clock,3,0960_lp_s03_3_clock_10_n02708093_3544.png
subject-03,1,961,1.29173994064331,truck,truck,0,0961_lp_s03_0_truck_10_n04467665_11487.png
subject-03,1,962,1.1123628616333,cat,chair,1,0962_lp_s03_1_chair_10_n02791124_1325.png
subject-03,1,963,0.756415128707886,bird,dog,3,0963_lp_s03_3_dog_10_n02108551_9074.png
subject-03,1,964,NaN,na,boat,0,0964_lp_s03_0_boat_10_n03344393_4763.png
subject-03,1,965,NaN,na,bottle,10,0965_lp_s03_10_bottle_10_n04579145_4031.png
subject-03,1,966,0.741963863372803,keyboard,keyboard,5,0966_lp_s03_5_keyboard_10_n03085013_1704.png
subject-03,1,967,0.792126893997192,cat,bicycle,15,0967_lp_s03_15_bicycle_10_n02835271_150.png
subject-03,1,968,0.858642101287842,bird,bird,5,0968_lp_s03_5_bird_10_n01560419_6207.png
subject-03,1,969,0.756891012191772,cat,cat,10,0969_lp_s03_10_cat_10_n02123045_10511.png
subject-03,1,970,1.329106092453,airplane,truck,1,0970_lp_s03_1_truck_10_n03417042_1906.png
subject-03,1,971,1.22757601737976,oven,keyboard,7,0971_lp_s03_7_keyboard_10_n04505470_4654.png
subject-03,1,972,1.38228487968445,bird,bicycle,7,0972_lp_s03_7_bicycle_10_n03792782_1747.png
subject-03,1,973,0.819097995758057,cat,cat,0,0973_lp_s03_0_cat_10_n02124075_7925.png
subject-03,1,974,0.938657999038696,clock,airplane,40,0974_lp_s03_40_airplane_10_n02690373_8446.png
subject-03,1,975,1.21842408180237,clock,boat,40,0975_lp_s03_40_boat_10_n03662601_37441.png
subject-03,1,976,1.1227970123291,bicycle,bicycle,0,0976_lp_s03_0_bicycle_10_n02835271_6309.png
subject-03,1,977,NaN,na,keyboard,0,0977_lp_s03_0_keyboard_10_n04505470_1040.png
subject-03,1,978,1.43916702270508,bicycle,bicycle,3,0978_lp_s03_3_bicycle_10_n02835271_2406.png
subject-03,1,979,1.09189701080322,keyboard,keyboard,15,0979_lp_s03_15_keyboard_10_n03085013_22949.png
subject-03,1,980,1.44977498054504,bird,clock,15,0980_lp_s03_15_clock_10_n03196217_9432.png
subject-03,1,981,1.30855798721313,boat,airplane,7,0981_lp_s03_7_airplane_10_n02690373_2342.png
subject-03,1,982,1.14478492736816,bird,oven,3,0982_lp_s03_3_oven_10_n04111531_1847.png
subject-03,1,983,0.948737144470215,oven,keyboard,0,0983_lp_s03_0_keyboard_10_n04505470_7421.png
subject-03,1,984,0.617039918899536,cat,bottle,10,0984_lp_s03_10_bottle_10_n04591713_5112.png
subject-03,1,985,0.767829179763794,airplane,airplane,0,0985_lp_s03_0_airplane_10_n02690373_4704.png
subject-03,1,986,0.972461938858032,dog,dog,0,0986_lp_s03_0_dog_10_n02106166_1867.png
subject-03,1,987,0.686977863311768,airplane,airplane,1,0987_lp_s03_1_airplane_10_n02690373_8417.png
subject-03,1,988,0.813142061233521,boat,boat,7,0988_lp_s03_7_boat_10_n03662601_13159.png
subject-03,1,989,1.2575900554657,oven,bottle,10,0989_lp_s03_10_bottle_10_n04560804_28761.png
subject-03,1,990,1.26227807998657,clock,clock,3,0990_lp_s03_3_clock_10_n04548280_4839.png
subject-03,1,991,0.882776975631714,knife,knife,0,0991_lp_s03_0_knife_10_n03041632_11816.png
subject-03,1,992,1.50028276443481,bicycle,knife,0,0992_lp_s03_0_knife_10_n03041632_18748.png
subject-03,1,993,1.19361901283264,truck,truck,3,0993_lp_s03_3_truck_10_n04467665_3193.png
subject-03,1,994,1.18169689178467,bird,chair,3,0994_lp_s03_3_chair_10_n03376595_4366.png
subject-03,1,995,0.734205961227417,cat,bird,10,0995_lp_s03_10_bird_10_n02009229_1035.png
subject-03,1,996,0.831017971038818,bird,chair,3,0996_lp_s03_3_chair_10_n04429376_1058.png
subject-03,1,997,1.05116701126099,cat,chair,1,0997_lp_s03_1_chair_10_n04099969_8640.png
subject-03,1,998,0.741789817810059,oven,bicycle,3,0998_lp_s03_3_bicycle_10_n02835271_6923.png
subject-03,1,999,0.815141916275024,clock,oven,40,0999_lp_s03_40_oven_10_n04111531_4012.png
subject-03,1,1000,0.989753007888794,keyboard,keyboard,1,1000_lp_s03_1_keyboard_10_n04505470_1516.png
subject-03,1,1001,1.26236796379089,truck,truck,1,1001_lp_s03_1_truck_10_n04467665_8536.png
subject-03,1,1002,0.94486403465271,elephant,elephant,0,1002_lp_s03_0_elephant_10_n02504013_1515.png
subject-03,1,1003,1.11923503875732,car,car,0,1003_lp_s03_0_car_10_n03100240_735.png
subject-03,1,1004,1.50004386901855,truck,truck,3,1004_lp_s03_3_truck_10_n03417042_21495.png
subject-03,1,1005,1.2363269329071,oven,keyboard,15,1005_lp_s03_15_keyboard_10_n03085013_12678.png
subject-03,1,1006,NaN,na,dog,10,1006_lp_s03_10_dog_10_n02092339_6138.png
subject-03,1,1007,1.06306004524231,cat,knife,5,1007_lp_s03_5_knife_10_n03041632_24100.png
subject-03,1,1008,1.14349889755249,bird,bear,15,1008_lp_s03_15_bear_10_n02132136_6628.png
subject-03,1,1009,1.28773999214172,bird,cat,3,1009_lp_s03_3_cat_10_n02125311_58775.png
subject-03,1,1010,NaN,na,bicycle,1,1010_lp_s03_1_bicycle_10_n02835271_1261.png
subject-03,1,1011,0.982578992843628,bottle,boat,15,1011_lp_s03_15_boat_10_n04612504_4963.png
subject-03,1,1012,1.14894104003906,elephant,elephant,1,1012_lp_s03_1_elephant_10_n02504458_2539.png
subject-03,1,1013,0.839516878128052,clock,clock,40,1013_lp_s03_40_clock_10_n04548280_6865.png
subject-03,1,1014,1.20594882965088,keyboard,clock,1,1014_lp_s03_1_clock_10_n03196217_8604.png
subject-03,1,1015,0.904684066772461,cat,cat,7,1015_lp_s03_7_cat_10_n02124075_6144.png
subject-03,1,1016,0.847023963928223,cat,cat,7,1016_lp_s03_7_cat_10_n02123045_10651.png
subject-03,1,1017,NaN,na,keyboard,40,1017_lp_s03_40_keyboard_10_n04505470_5099.png
subject-03,1,1018,0.657253980636597,airplane,airplane,5,1018_lp_s03_5_airplane_10_n02690373_7624.png
subject-03,1,1019,0.639944076538086,cat,dog,10,1019_lp_s03_10_dog_10_n02113023_2361.png
subject-03,1,1020,0.752410888671875,oven,cat,1,1020_lp_s03_1_cat_10_n02123159_7239.png
subject-03,1,1021,1.31883502006531,cat,knife,15,1021_lp_s03_15_knife_10_n03041632_28658.png
subject-03,1,1022,1.08510804176331,cat,bottle,7,1022_lp_s03_7_bottle_10_n04560804_8159.png
subject-03,1,1023,1.50039720535278,bottle,cat,40,1023_lp_s03_40_cat_10_n02123394_2789.png
subject-03,1,1024,1.23425602912903,clock,dog,7,1024_lp_s03_7_dog_10_n02108422_1879.png
subject-03,1,1025,0.870688199996948,clock,clock,0,1025_lp_s03_0_clock_10_n03196217_8401.png
subject-03,1,1026,1.04491806030273,bird,elephant,10,1026_lp_s03_10_elephant_10_n02504013_6710.png
subject-03,1,1027,1.11124300956726,bird,bird,0,1027_lp_s03_0_bird_10_n01560419_8402.png
subject-03,1,1028,1.18550300598145,chair,chair,0,1028_lp_s03_0_chair_10_n04099969_6266.png
subject-03,1,1029,1.48217105865479,truck,truck,7,1029_lp_s03_7_truck_10_n03796401_8117.png
subject-03,1,1030,1.2108359336853,cat,cat,5,1030_lp_s03_5_cat_10_n02123159_117.png
subject-03,1,1031,1.01473593711853,clock,bear,40,1031_lp_s03_40_bear_10_n02134418_3855.png
subject-03,1,1032,1.20529794692993,bird,knife,5,1032_lp_s03_5_knife_10_n03041632_21859.png
subject-03,1,1033,1.15534806251526,cat,chair,7,1033_lp_s03_7_chair_10_n04099969_6309.png
subject-03,1,1034,0.991590023040771,elephant,knife,0,1034_lp_s03_0_knife_10_n03041632_11326.png
subject-03,1,1035,0.990325927734375,cat,clock,7,1035_lp_s03_7_clock_10_n02708093_3638.png
subject-03,1,1036,0.994448184967041,bird,bear,10,1036_lp_s03_10_bear_10_n02133161_2118.png
subject-03,1,1037,1.15277194976807,truck,truck,7,1037_lp_s03_7_truck_10_n04467665_5510.png
subject-03,1,1038,1.18900799751282,car,chair,10,1038_lp_s03_10_chair_10_n03376595_10700.png
subject-03,1,1039,1.05542898178101,airplane,airplane,10,1039_lp_s03_10_airplane_10_n02690373_2605.png
subject-03,1,1040,0.975771188735962,clock,cat,40,1040_lp_s03_40_cat_10_n02123394_3100.png
subject-03,1,1041,1.3483099937439,bottle,clock,40,1041_lp_s03_40_clock_10_n03196217_5206.png
subject-03,1,1042,1.15489315986633,bird,chair,10,1042_lp_s03_10_chair_10_n02791124_12832.png
subject-03,1,1043,1.12947416305542,airplane,bear,7,1043_lp_s03_7_bear_10_n02133161_5274.png
subject-03,1,1044,1.31785082817078,cat,bottle,10,1044_lp_s03_10_bottle_10_n04560804_15585.png
subject-03,1,1045,1.3924241065979,cat,bear,5,1045_lp_s03_5_bear_10_n02134084_27899.png
subject-03,1,1046,1.24479198455811,bird,bicycle,5,1046_lp_s03_5_bicycle_10_n03792782_10929.png
subject-03,1,1047,1.09508395195007,oven,bottle,3,1047_lp_s03_3_bottle_10_n03983396_10089.png
subject-03,1,1048,1.03936100006104,clock,bicycle,7,1048_lp_s03_7_bicycle_10_n03792782_33636.png
subject-03,1,1049,1.32733988761902,knife,keyboard,15,1049_lp_s03_15_keyboard_10_n03085013_15081.png
subject-03,1,1050,1.31544899940491,bird,bicycle,15,1050_lp_s03_15_bicycle_10_n02835271_23145.png
subject-03,1,1051,1.50037884712219,oven,oven,1,1051_lp_s03_1_oven_10_n04111531_13502.png
subject-03,1,1052,0.79610800743103,clock,dog,40,1052_lp_s03_40_dog_10_n02088364_5107.png
subject-03,1,1053,0.770524978637695,keyboard,keyboard,1,1053_lp_s03_1_keyboard_10_n03085013_3318.png
subject-03,1,1054,1.50032591819763,bird,elephant,3,1054_lp_s03_3_elephant_10_n02504458_6861.png
subject-03,1,1055,0.949401140213013,knife,knife,7,1055_lp_s03_7_knife_10_n03041632_79317.png
subject-03,1,1056,1.43184900283813,bird,keyboard,40,1056_lp_s03_40_keyboard_10_n04505470_4951.png
subject-03,1,1057,0.821928977966309,clock,airplane,40,1057_lp_s03_40_airplane_10_n02690373_9170.png
subject-03,1,1058,0.956310987472534,cat,boat,3,1058_lp_s03_3_boat_10_n03662601_17229.png
subject-03,1,1059,1.40675687789917,airplane,airplane,5,1059_lp_s03_5_airplane_10_n02690373_6845.png
subject-03,1,1060,1.45091390609741,clock,oven,40,1060_lp_s03_40_oven_10_n04111531_6204.png
subject-03,1,1061,NaN,na,airplane,10,1061_lp_s03_10_airplane_10_n02690373_2095.png
subject-03,1,1062,NaN,na,bear,0,1062_lp_s03_0_bear_10_n02134084_14754.png
subject-03,1,1063,0.795868158340454,keyboard,keyboard,3,1063_lp_s03_3_keyboard_10_n04505470_4780.png
subject-03,1,1064,0.786381006240845,car,car,0,1064_lp_s03_0_car_10_n02814533_7283.png
subject-03,1,1065,1.01495289802551,bird,car,10,1065_lp_s03_10_car_10_n02814533_31964.png
subject-03,1,1066,0.873415946960449,airplane,airplane,1,1066_lp_s03_1_airplane_10_n02690373_4434.png
subject-03,1,1067,0.993288993835449,clock,bird,40,1067_lp_s03_40_bird_10_n01616318_1973.png
subject-03,1,1068,1.12143993377686,dog,bear,1,1068_lp_s03_1_bear_10_n02134418_9463.png
subject-03,1,1069,0.930606842041016,clock,clock,5,1069_lp_s03_5_clock_10_n04548280_21343.png
subject-03,1,1070,0.958928823471069,cat,dog,15,1070_lp_s03_15_dog_10_n02097658_6671.png
subject-03,1,1071,0.857329130172729,knife,knife,7,1071_lp_s03_7_knife_10_n03041632_4879.png
subject-03,1,1072,1.18323278427124,bicycle,bicycle,3,1072_lp_s03_3_bicycle_10_n02835271_15930.png
subject-03,1,1073,1.34185099601746,truck,truck,1,1073_lp_s03_1_truck_10_n03417042_15553.png
subject-03,1,1074,1.04041695594788,airplane,boat,7,1074_lp_s03_7_boat_10_n04273569_12348.png
subject-03,1,1075,1.16834306716919,keyboard,keyboard,10,1075_lp_s03_10_keyboard_10_n04505470_4582.png
subject-03,1,1076,1.50016188621521,bird,bicycle,15,1076_lp_s03_15_bicycle_10_n03792782_3435.png
subject-03,1,1077,0.87152099609375,boat,boat,0,1077_lp_s03_0_boat_10_n02951358_29495.png
subject-03,1,1078,1.22166085243225,airplane,knife,15,1078_lp_s03_15_knife_10_n03041632_12651.png
subject-03,1,1079,1.06621599197388,airplane,airplane,3,1079_lp_s03_3_airplane_10_n02690373_9441.png
subject-03,1,1080,0.986383199691772,chair,chair,1,1080_lp_s03_1_chair_10_n04429376_7050.png
subject-03,1,1081,1.04491114616394,clock,clock,0,1081_lp_s03_0_clock_10_n04548280_2942.png
subject-03,1,1082,1.38761496543884,bird,dog,5,1082_lp_s03_5_dog_10_n02107312_1474.png
subject-03,1,1083,1.14000582695007,bear,bear,7,1083_lp_s03_7_bear_10_n02134084_14202.png
subject-03,1,1084,0.93038010597229,bear,truck,15,1084_lp_s03_15_truck_10_n03417042_6193.png
subject-03,1,1085,1.15133905410767,dog,keyboard,10,1085_lp_s03_10_keyboard_10_n03085013_24154.png
subject-03,1,1086,1.40142798423767,cat,car,5,1086_lp_s03_5_car_10_n04285008_11714.png
subject-03,1,1087,1.50000596046448,bird,chair,15,1087_lp_s03_15_chair_10_n02791124_4182.png
subject-03,1,1088,1.32609796524048,oven,bird,5,1088_lp_s03_5_bird_10_n01855032_6739.png
subject-03,1,1089,0.991122007369995,bottle,bottle,3,1089_lp_s03_3_bottle_10_n04560804_29191.png
subject-03,1,1090,0.965352058410645,bicycle,bicycle,7,1090_lp_s03_7_bicycle_10_n03792782_16433.png
subject-03,1,1091,NaN,na,clock,0,1091_lp_s03_0_clock_10_n04548280_4670.png
subject-03,1,1092,1.12216901779175,car,car,10,1092_lp_s03_10_car_10_n03100240_18639.png
subject-03,1,1093,1.21857905387878,bird,oven,7,1093_lp_s03_7_oven_10_n04111531_5077.png
subject-03,1,1094,1.50032901763916,dog,elephant,7,1094_lp_s03_7_elephant_10_n02504013_1201.png
subject-03,1,1095,0.767158985137939,airplane,airplane,7,1095_lp_s03_7_airplane_10_n02690373_306.png
subject-03,1,1096,0.72578501701355,oven,oven,10,1096_lp_s03_10_oven_10_n04111531_9342.png
subject-03,1,1097,1.22986698150635,bird,airplane,15,1097_lp_s03_15_airplane_10_n02690373_6465.png
subject-03,1,1098,NaN,na,bird,40,1098_lp_s03_40_bird_10_n01531178_19988.png
subject-03,1,1099,1.04580783843994,airplane,truck,15,1099_lp_s03_15_truck_10_n04467665_5116.png
subject-03,1,1100,NaN,na,dog,1,1100_lp_s03_1_dog_10_n02094114_1491.png
subject-03,1,1101,0.94826602935791,oven,knife,15,1101_lp_s03_15_knife_10_n03041632_20697.png
subject-03,1,1102,1.29065895080566,cat,bottle,5,1102_lp_s03_5_bottle_10_n02823428_6524.png
subject-03,1,1103,1.47887992858887,bear,bear,10,1103_lp_s03_10_bear_10_n02134418_12415.png
subject-03,1,1104,1.47730302810669,dog,bear,0,1104_lp_s03_0_bear_10_n02134418_278.png
subject-03,1,1105,NaN,na,bird,10,1105_lp_s03_10_bird_10_n01582220_9018.png
subject-03,1,1106,NaN,na,bird,15,1106_lp_s03_15_bird_10_n02018795_1695.png
