subj,session,trial,rt,object_response,category,condition,imagename
subject-02,1,1,0.827678918838501,car,bird,40,0001_lp_s02_40_bird_10_n02002724_2598.png
subject-02,1,2,0.854970932006836,chair,boat,15,0002_lp_s02_15_boat_10_n03344393_6999.png
subject-02,1,3,0.670644998550415,boat,boat,1,0003_lp_s02_1_boat_10_n03344393_318.png
subject-02,1,4,0.7548668384552,clock,clock,7,0004_lp_s02_7_clock_10_n04548280_7639.png
subject-02,1,5,0.69176197052002,bird,bird,5,0005_lp_s02_5_bird_10_n02025239_11176.png
subject-02,1,6,0.924993991851807,cat,oven,5,0006_lp_s02_5_oven_10_n04111531_13797.png
subject-02,1,7,1.14705491065979,airplane,car,15,0007_lp_s02_15_car_10_n03100240_18745.png
subject-02,1,8,0.677069902420044,bicycle,bicycle,0,0008_lp_s02_0_bicycle_10_n03792782_4251.png
subject-02,1,9,0.722803115844727,oven,oven,3,0009_lp_s02_3_oven_10_n04111531_6172.png
subject-02,1,10,0.828758001327515,knife,bird,40,0010_lp_s02_40_bird_10_n01582220_5092.png
subject-02,1,11,0.654422044754028,chair,chair,5,0011_lp_s02_5_chair_10_n04099969_141.png
subject-02,1,12,0.775773048400879,car,bicycle,5,0012_lp_s02_5_bicycle_10_n02835271_10947.png
subject-02,1,13,0.873827934265137,chair,bird,15,0013_lp_s02_15_bird_10_n02051845_555.png
subject-02,1,14,0.795949935913086,truck,truck,3,0014_lp_s02_3_truck_10_n03417042_8518.png
subject-02,1,15,0.825145959854126,keyboard,clock,7,0015_lp_s02_7_clock_10_n03196217_5888.png
subject-02,1,16,0.965044021606445,cat,dog,40,0016_lp_s02_40_dog_10_n02110627_17528.png
subject-02,1,17,0.703033924102783,bicycle,bicycle,3,0017_lp_s02_3_bicycle_10_n02835271_2406.png
subject-02,1,18,1.06517386436462,airplane,boat,5,0018_lp_s02_5_boat_10_n04273569_13187.png
subject-02,1,19,1.30113577842712,elephant,bird,40,0019_lp_s02_40_bird_10_n01592084_2306.png
subject-02,1,20,1.09402108192444,airplane,boat,10,0020_lp_s02_10_boat_10_n03662601_20110.png
subject-02,1,21,0.885907888412476,car,boat,15,0021_lp_s02_15_boat_10_n02951358_11283.png
subject-02,1,22,1.0855598449707,oven,oven,5,0022_lp_s02_5_oven_10_n04111531_22445.png
subject-02,1,23,0.678191900253296,elephant,elephant,3,0023_lp_s02_3_elephant_10_n02504458_7565.png
subject-02,1,24,0.661865949630737,boat,elephant,40,0024_lp_s02_40_elephant_10_n02504458_2738.png
subject-02,1,25,0.759191036224365,cat,truck,40,0025_lp_s02_40_truck_10_n04467665_30588.png
subject-02,1,26,0.635519027709961,keyboard,keyboard,10,0026_lp_s02_10_keyboard_10_n04505470_4776.png
subject-02,1,27,0.682651996612549,elephant,elephant,10,0027_lp_s02_10_elephant_10_n02504458_1652.png
subject-02,1,28,0.774348974227905,bear,bear,7,0028_lp_s02_7_bear_10_n02133161_5098.png
subject-02,1,29,0.72121000289917,airplane,airplane,0,0029_lp_s02_0_airplane_10_n02690373_19666.png
subject-02,1,30,0.713701009750366,airplane,airplane,3,0030_lp_s02_3_airplane_10_n02690373_4128.png
subject-02,1,31,0.897385120391846,clock,boat,40,0031_lp_s02_40_boat_10_n02951358_11022.png
subject-02,1,32,0.88133716583252,bear,bear,15,0032_lp_s02_15_bear_10_n02133161_1159.png
subject-02,1,33,0.736311197280884,bottle,car,40,0033_lp_s02_40_car_10_n04285008_1114.png
subject-02,1,34,0.980465888977051,boat,airplane,15,0034_lp_s02_15_airplane_10_n02690373_4979.png
subject-02,1,35,0.889286994934082,dog,elephant,5,0035_lp_s02_5_elephant_10_n02504458_5849.png
subject-02,1,36,0.556058168411255,chair,chair,1,0036_lp_s02_1_chair_10_n03376595_7154.png
subject-02,1,37,0.515915155410767,bird,chair,40,0037_lp_s02_40_chair_10_n04429376_19175.png
subject-02,1,38,0.562986850738525,truck,truck,1,0038_lp_s02_1_truck_10_n04467665_5951.png
subject-02,1,39,0.893255949020386,car,truck,3,0039_lp_s02_3_truck_10_n03417042_13223.png
subject-02,1,40,0.631595134735107,bicycle,bicycle,3,0040_lp_s02_3_bicycle_10_n03792782_27375.png
subject-02,1,41,0.639687061309814,cat,dog,10,0041_lp_s02_10_dog_10_n02112018_4910.png
subject-02,1,42,0.653918981552124,airplane,knife,40,0042_lp_s02_40_knife_10_n03041632_14883.png
subject-02,1,43,0.569775104522705,boat,boat,1,0043_lp_s02_1_boat_10_n03344393_2052.png
subject-02,1,44,0.570264101028442,oven,oven,10,0044_lp_s02_10_oven_10_n04111531_1778.png
subject-02,1,45,0.776906967163086,bottle,bottle,1,0045_lp_s02_1_bottle_10_n04560804_4145.png
subject-02,1,46,0.639113903045654,airplane,airplane,0,0046_lp_s02_0_airplane_10_n02690373_2823.png
subject-02,1,47,0.893778085708618,boat,boat,10,0047_lp_s02_10_boat_10_n04273569_15674.png
subject-02,1,48,0.770092010498047,bear,bear,5,0048_lp_s02_5_bear_10_n02133161_15299.png
subject-02,1,49,0.846728801727295,bird,bird,5,0049_lp_s02_5_bird_10_n01531178_19175.png
subject-02,1,50,0.708663940429688,bird,bird,1,0050_lp_s02_1_bird_10_n01820546_27.png
subject-02,1,51,0.560797929763794,car,car,7,0051_lp_s02_7_car_10_n04285008_14334.png
subject-02,1,52,0.624114036560059,airplane,airplane,7,0052_lp_s02_7_airplane_10_n02690373_4860.png
subject-02,1,53,0.724337816238403,airplane,airplane,3,0053_lp_s02_3_airplane_10_n02690373_9848.png
subject-02,1,54,0.850941896438599,airplane,airplane,0,0054_lp_s02_0_airplane_10_n02690373_4440.png
subject-02,1,55,0.805804967880249,keyboard,knife,10,0055_lp_s02_10_knife_10_n03041632_77022.png
subject-02,1,56,0.538925886154175,elephant,elephant,5,0056_lp_s02_5_elephant_10_n02504013_6376.png
subject-02,1,57,0.553576946258545,airplane,airplane,7,0057_lp_s02_7_airplane_10_n02690373_3728.png
subject-02,1,58,1.00009489059448,dog,bicycle,15,0058_lp_s02_15_bicycle_10_n02835271_7638.png
subject-02,1,59,0.600939035415649,car,bird,40,0059_lp_s02_40_bird_10_n01818515_9624.png
subject-02,1,60,0.546612024307251,keyboard,keyboard,1,0060_lp_s02_1_keyboard_10_n03085013_8579.png
subject-02,1,61,0.74519681930542,cat,bird,15,0061_lp_s02_15_bird_10_n02009229_6068.png
subject-02,1,62,0.806849956512451,truck,bear,40,0062_lp_s02_40_bear_10_n02134418_9485.png
subject-02,1,63,1.49711799621582,truck,truck,1,0063_lp_s02_1_truck_10_n03417042_4647.png
subject-02,1,64,0.86726713180542,boat,truck,15,0064_lp_s02_15_truck_10_n03417042_15078.png
subject-02,1,65,0.688923835754395,bear,bear,0,0065_lp_s02_0_bear_10_n02133161_1585.png
subject-02,1,66,0.764661073684692,truck,truck,10,0066_lp_s02_10_truck_10_n03417042_9240.png
subject-02,1,67,0.765010118484497,cat,dog,5,0067_lp_s02_5_dog_10_n02112018_2141.png
subject-02,1,68,0.57408595085144,bicycle,bicycle,1,0068_lp_s02_1_bicycle_10_n02835271_21636.png
subject-02,1,69,0.634917020797729,bird,bird,10,0069_lp_s02_10_bird_10_n01531178_4779.png
subject-02,1,70,0.719748973846436,chair,clock,10,0070_lp_s02_10_clock_10_n02708093_870.png
subject-02,1,71,0.682109832763672,knife,knife,7,0071_lp_s02_7_knife_10_n03041632_26405.png
subject-02,1,72,0.458422899246216,keyboard,keyboard,0,0072_lp_s02_0_keyboard_10_n03085013_22839.png
subject-02,1,73,0.704601049423218,dog,dog,0,0073_lp_s02_0_dog_10_n02109525_13410.png
subject-02,1,74,0.54444694519043,chair,chair,5,0074_lp_s02_5_chair_10_n04099969_5088.png
subject-02,1,75,0.774799823760986,car,airplane,15,0075_lp_s02_15_airplane_10_n02690373_971.png
subject-02,1,76,0.759636878967285,dog,cat,10,0076_lp_s02_10_cat_10_n02125311_16840.png
subject-02,1,77,0.889081954956055,bird,cat,40,0077_lp_s02_40_cat_10_n02124075_8093.png
subject-02,1,78,0.649796009063721,bird,bird,1,0078_lp_s02_1_bird_10_n01860187_1229.png
subject-02,1,79,0.604897975921631,airplane,airplane,0,0079_lp_s02_0_airplane_10_n02690373_1986.png
subject-02,1,80,0.591297149658203,dog,dog,0,0080_lp_s02_0_dog_10_n02093256_12981.png
subject-02,1,81,0.630052089691162,boat,boat,0,0081_lp_s02_0_boat_10_n03344393_7526.png
subject-02,1,82,0.790740013122559,knife,knife,7,0082_lp_s02_7_knife_10_n03041632_30602.png
subject-02,1,83,0.737868070602417,bird,bear,10,0083_lp_s02_10_bear_10_n02134418_835.png
subject-02,1,84,0.516134977340698,cat,truck,15,0084_lp_s02_15_truck_10_n03417042_23566.png
subject-02,1,85,0.830381870269775,car,cat,10,0085_lp_s02_10_cat_10_n02124075_2903.png
subject-02,1,86,0.768824100494385,oven,chair,15,0086_lp_s02_15_chair_10_n02791124_2610.png
subject-02,1,87,0.62286901473999,chair,elephant,7,0087_lp_s02_7_elephant_10_n02504013_6048.png
subject-02,1,88,0.9774329662323,keyboard,bicycle,15,0088_lp_s02_15_bicycle_10_n02835271_12957.png
subject-02,1,89,1.10037183761597,boat,car,15,0089_lp_s02_15_car_10_n02814533_8306.png
subject-02,1,90,0.953428030014038,dog,cat,15,0090_lp_s02_15_cat_10_n02123159_11443.png
subject-02,1,91,0.508507013320923,bicycle,bicycle,3,0091_lp_s02_3_bicycle_10_n02835271_5678.png
subject-02,1,92,0.692627191543579,boat,bicycle,15,0092_lp_s02_15_bicycle_10_n02835271_9623.png
subject-02,1,93,0.509755849838257,cat,bottle,15,0093_lp_s02_15_bottle_10_n04557648_11729.png
subject-02,1,94,0.578823089599609,bicycle,car,5,0094_lp_s02_5_car_10_n03100240_11614.png
subject-02,1,95,0.602488040924072,bottle,bottle,1,0095_lp_s02_1_bottle_10_n03983396_9794.png
subject-02,1,96,0.55720591545105,car,car,0,0096_lp_s02_0_car_10_n02814533_49142.png
subject-02,1,97,0.664345979690552,dog,bear,3,0097_lp_s02_3_bear_10_n02134418_4670.png
subject-02,1,98,0.710196018218994,chair,keyboard,7,0098_lp_s02_7_keyboard_10_n03085013_23596.png
subject-02,1,99,0.565176963806152,airplane,airplane,5,0099_lp_s02_5_airplane_10_n02690373_9404.png
subject-02,1,100,0.689789056777954,boat,car,15,0100_lp_s02_15_car_10_n02814533_36330.png
subject-02,1,101,0.749295949935913,boat,boat,7,0101_lp_s02_7_boat_10_n03344393_5532.png
subject-02,1,102,0.755805969238281,dog,knife,15,0102_lp_s02_15_knife_10_n03041632_43975.png
subject-02,1,103,0.834773063659668,bird,bird,1,0103_lp_s02_1_bird_10_n01795545_1191.png
subject-02,1,104,0.688944101333618,dog,bottle,7,0104_lp_s02_7_bottle_10_n04557648_9282.png
subject-02,1,105,0.764777183532715,knife,knife,3,0105_lp_s02_3_knife_10_n03041632_126.png
subject-02,1,106,0.750001907348633,oven,bird,5,0106_lp_s02_5_bird_10_n02027492_7353.png
subject-02,1,107,0.637449026107788,car,bicycle,15,0107_lp_s02_15_bicycle_10_n03792782_67167.png
subject-02,1,108,0.960386037826538,dog,dog,0,0108_lp_s02_0_dog_10_n02102973_6609.png
subject-02,1,109,1.11478900909424,chair,dog,10,0109_lp_s02_10_dog_10_n02098286_390.png
subject-02,1,110,0.914641857147217,keyboard,keyboard,1,0110_lp_s02_1_keyboard_10_n03085013_5812.png
subject-02,1,111,1.04526114463806,bird,car,10,0111_lp_s02_10_car_10_n02814533_39792.png
subject-02,1,112,0.616029977798462,dog,dog,3,0112_lp_s02_3_dog_10_n02105056_2948.png
subject-02,1,113,0.692771196365356,car,chair,15,0113_lp_s02_15_chair_10_n02791124_4977.png
subject-02,1,114,0.96853494644165,airplane,boat,40,0114_lp_s02_40_boat_10_n03662601_34922.png
subject-02,1,115,0.621951103210449,car,car,7,0115_lp_s02_7_car_10_n03100240_17768.png
subject-02,1,116,0.890968084335327,cat,bird,15,0116_lp_s02_15_bird_10_n01818515_7665.png
subject-02,1,117,0.681485176086426,chair,chair,3,0117_lp_s02_3_chair_10_n02791124_1770.png
subject-02,1,118,0.519479990005493,cat,cat,0,0118_lp_s02_0_cat_10_n02123597_6721.png
subject-02,1,119,0.511730909347534,car,car,1,0119_lp_s02_1_car_10_n02814533_6626.png
subject-02,1,120,0.625785827636719,chair,chair,7,0120_lp_s02_7_chair_10_n04099969_43109.png
subject-02,1,121,0.789206027984619,bear,dog,40,0121_lp_s02_40_dog_10_n02087394_7495.png
subject-02,1,122,0.721749067306519,bear,cat,7,0122_lp_s02_7_cat_10_n02124075_9659.png
subject-02,1,123,0.568830013275146,elephant,elephant,1,0123_lp_s02_1_elephant_10_n02504458_1715.png
subject-02,1,124,0.760717868804932,knife,knife,10,0124_lp_s02_10_knife_10_n03041632_40450.png
subject-02,1,125,0.699580907821655,knife,knife,5,0125_lp_s02_5_knife_10_n03041632_35764.png
subject-02,1,126,0.892010927200317,bear,cat,7,0126_lp_s02_7_cat_10_n02123159_5947.png
subject-02,1,127,0.713943004608154,bottle,airplane,40,0127_lp_s02_40_airplane_10_n02690373_18845.png
subject-02,1,128,1.24520111083984,car,oven,7,0128_lp_s02_7_oven_10_n04111531_6415.png
subject-02,1,129,0.860485076904297,bicycle,bicycle,3,0129_lp_s02_3_bicycle_10_n02835271_22061.png
subject-02,1,130,0.720496892929077,airplane,airplane,3,0130_lp_s02_3_airplane_10_n02690373_19646.png
subject-02,1,131,0.661196947097778,keyboard,keyboard,0,0131_lp_s02_0_keyboard_10_n03085013_23445.png
subject-02,1,132,0.676001071929932,dog,cat,5,0132_lp_s02_5_cat_10_n02123159_2644.png
subject-02,1,133,0.592842102050781,chair,chair,10,0133_lp_s02_10_chair_10_n02791124_4938.png
subject-02,1,134,0.555472850799561,airplane,truck,10,0134_lp_s02_10_truck_10_n03417042_7013.png
subject-02,1,135,0.577446937561035,bird,bird,7,0135_lp_s02_7_bird_10_n01795545_8614.png
subject-02,1,136,0.56104302406311,chair,chair,5,0136_lp_s02_5_chair_10_n02791124_6390.png
subject-02,1,137,0.807662963867188,bottle,bird,10,0137_lp_s02_10_bird_10_n02007558_9933.png
subject-02,1,138,0.5681312084198,bear,bicycle,10,0138_lp_s02_10_bicycle_10_n03792782_19985.png
subject-02,1,139,0.498063087463379,oven,oven,3,0139_lp_s02_3_oven_10_n04111531_15582.png
subject-02,1,140,0.728585004806519,airplane,boat,10,0140_lp_s02_10_boat_10_n03344393_7352.png
subject-02,1,141,0.520765781402588,chair,bird,1,0141_lp_s02_1_bird_10_n01843383_9016.png
subject-02,1,142,0.675212860107422,dog,dog,10,0142_lp_s02_10_dog_10_n02102040_43.png
subject-02,1,143,0.605064868927002,oven,oven,0,0143_lp_s02_0_oven_10_n04111531_18592.png
subject-02,1,144,0.805914163589478,elephant,elephant,7,0144_lp_s02_7_elephant_10_n02504458_3197.png
subject-02,1,145,0.614933013916016,bird,bird,3,0145_lp_s02_3_bird_10_n01537544_9132.png
subject-02,1,146,0.845087051391602,oven,oven,10,0146_lp_s02_10_oven_10_n04111531_4809.png
subject-02,1,147,0.799892902374268,cat,elephant,10,0147_lp_s02_10_elephant_10_n02504458_365.png
subject-02,1,148,0.993313074111938,airplane,bird,7,0148_lp_s02_7_bird_10_n02002556_17013.png
subject-02,1,149,0.708600044250488,truck,keyboard,40,0149_lp_s02_40_keyboard_10_n04505470_4807.png
subject-02,1,150,0.847130060195923,bottle,bottle,1,0150_lp_s02_1_bottle_10_n03937543_2681.png
subject-02,1,151,0.932117938995361,oven,oven,5,0151_lp_s02_5_oven_10_n04111531_21232.png
subject-02,1,152,0.554115056991577,bird,bird,1,0152_lp_s02_1_bird_10_n01514859_3103.png
subject-02,1,153,0.97624683380127,dog,cat,10,0153_lp_s02_10_cat_10_n02123394_3166.png
subject-02,1,154,0.714590072631836,airplane,airplane,1,0154_lp_s02_1_airplane_10_n02690373_2217.png
subject-02,1,155,0.699303150177002,oven,oven,3,0155_lp_s02_3_oven_10_n04111531_12589.png
subject-02,1,156,0.6198890209198,clock,cat,40,0156_lp_s02_40_cat_10_n02123045_4842.png
subject-02,1,157,0.773941040039062,boat,boat,1,0157_lp_s02_1_boat_10_n03344393_8799.png
subject-02,1,158,0.887884140014648,clock,truck,40,0158_lp_s02_40_truck_10_n03417042_12906.png
subject-02,1,159,0.711965799331665,keyboard,keyboard,7,0159_lp_s02_7_keyboard_10_n04505470_4723.png
subject-02,1,160,1.09702205657959,dog,bird,15,0160_lp_s02_15_bird_10_n02002556_4116.png
subject-02,1,161,0.611483097076416,boat,boat,7,0161_lp_s02_7_boat_10_n03344393_10246.png
subject-02,1,162,0.743059873580933,bicycle,bicycle,3,0162_lp_s02_3_bicycle_10_n03792782_4382.png
subject-02,1,163,0.613052129745483,clock,knife,40,0163_lp_s02_40_knife_10_n03041632_13478.png
subject-02,1,164,0.659678936004639,car,car,3,0164_lp_s02_3_car_10_n03100240_6626.png
subject-02,1,165,0.911115884780884,oven,bottle,40,0165_lp_s02_40_bottle_10_n04560804_283.png
subject-02,1,166,0.657596826553345,cat,oven,10,0166_lp_s02_10_oven_10_n04111531_14435.png
subject-02,1,167,0.695403099060059,clock,clock,1,0167_lp_s02_1_clock_10_n04548280_2283.png
subject-02,1,168,1.47816801071167,bear,cat,15,0168_lp_s02_15_cat_10_n02124075_10750.png
subject-02,1,169,0.886365175247192,airplane,airplane,3,0169_lp_s02_3_airplane_10_n02690373_8631.png
subject-02,1,170,0.641005992889404,cat,cat,10,0170_lp_s02_10_cat_10_n02123159_3265.png
subject-02,1,171,0.779443979263306,knife,truck,15,0171_lp_s02_15_truck_10_n04467665_45016.png
subject-02,1,172,0.872087001800537,chair,oven,10,0172_lp_s02_10_oven_10_n04111531_2797.png
subject-02,1,173,0.748033046722412,bear,bear,15,0173_lp_s02_15_bear_10_n02133161_9142.png
subject-02,1,174,0.717873096466064,knife,knife,5,0174_lp_s02_5_knife_10_n03041632_55083.png
subject-02,1,175,0.619664907455444,clock,clock,0,0175_lp_s02_0_clock_10_n03196217_2201.png
subject-02,1,176,0.803502082824707,keyboard,chair,40,0176_lp_s02_40_chair_10_n03376595_19406.png
subject-02,1,177,0.796028137207031,bottle,clock,3,0177_lp_s02_3_clock_10_n04548280_4995.png
subject-02,1,178,0.797367811203003,bird,bear,15,0178_lp_s02_15_bear_10_n02133161_12354.png
subject-02,1,179,0.480630874633789,car,car,1,0179_lp_s02_1_car_10_n03100240_362.png
subject-02,1,180,0.518944978713989,cat,cat,7,0180_lp_s02_7_cat_10_n02123045_5775.png
subject-02,1,181,0.633766889572144,bottle,bottle,0,0181_lp_s02_0_bottle_10_n04557648_2501.png
subject-02,1,182,0.650496006011963,chair,bird,40,0182_lp_s02_40_bird_10_n01514859_12308.png
subject-02,1,183,0.75642204284668,oven,keyboard,5,0183_lp_s02_5_keyboard_10_n04505470_1978.png
subject-02,1,184,0.60227108001709,chair,chair,1,0184_lp_s02_1_chair_10_n04099969_763.png
subject-02,1,185,0.749192953109741,boat,boat,0,0185_lp_s02_0_boat_10_n02951358_23544.png
subject-02,1,186,0.7203049659729,dog,dog,7,0186_lp_s02_7_dog_10_n02108422_836.png
subject-02,1,187,0.596191883087158,chair,chair,0,0187_lp_s02_0_chair_10_n04099969_3382.png
subject-02,1,188,0.634187936782837,bird,car,40,0188_lp_s02_40_car_10_n04285008_1573.png
subject-02,1,189,0.725322961807251,car,bird,10,0189_lp_s02_10_bird_10_n02002556_10558.png
subject-02,1,190,0.63428783416748,clock,clock,3,0190_lp_s02_3_clock_10_n02708093_3218.png
subject-02,1,191,0.481054067611694,clock,clock,5,0191_lp_s02_5_clock_10_n03196217_1258.png
subject-02,1,192,1.50030422210693,car,clock,5,0192_lp_s02_5_clock_10_n04548280_6388.png
subject-02,1,193,0.636108875274658,dog,dog,0,0193_lp_s02_0_dog_10_n02094114_4507.png
subject-02,1,194,1.27482891082764,bear,bicycle,7,0194_lp_s02_7_bicycle_10_n02835271_2393.png
subject-02,1,195,0.513485908508301,clock,clock,3,0195_lp_s02_3_clock_10_n04548280_2989.png
subject-02,1,196,0.702588081359863,truck,keyboard,40,0196_lp_s02_40_keyboard_10_n04505470_650.png
subject-02,1,197,0.627766847610474,knife,car,10,0197_lp_s02_10_car_10_n03100240_18019.png
subject-02,1,198,0.858620882034302,cat,dog,15,0198_lp_s02_15_dog_10_n02097298_6519.png
subject-02,1,199,0.789066076278687,car,elephant,5,0199_lp_s02_5_elephant_10_n02504458_3762.png
subject-02,1,200,0.636355876922607,bottle,bottle,5,0200_lp_s02_5_bottle_10_n04591713_4982.png
subject-02,1,201,0.59884786605835,boat,boat,5,0201_lp_s02_5_boat_10_n04612504_1145.png
subject-02,1,202,0.421456098556519,car,car,0,0202_lp_s02_0_car_10_n04285008_2395.png
subject-02,1,203,0.567778825759888,bottle,bottle,10,0203_lp_s02_10_bottle_10_n03983396_4321.png
subject-02,1,204,1.01501107215881,elephant,truck,40,0204_lp_s02_40_truck_10_n04467665_32776.png
subject-02,1,205,0.804404973983765,airplane,bicycle,40,0205_lp_s02_40_bicycle_10_n03792782_9174.png
subject-02,1,206,0.642124891281128,dog,dog,7,0206_lp_s02_7_dog_10_n02110958_7947.png
subject-02,1,207,0.92683482170105,bear,bear,15,0207_lp_s02_15_bear_10_n02134418_5132.png
subject-02,1,208,0.650918006896973,keyboard,cat,0,0208_lp_s02_0_cat_10_n02123045_463.png
subject-02,1,209,0.851952075958252,oven,bear,3,0209_lp_s02_3_bear_10_n02134084_15739.png
subject-02,1,210,0.795742988586426,bear,boat,7,0210_lp_s02_7_boat_10_n02951358_34760.png
subject-02,1,211,0.567160844802856,bicycle,bicycle,0,0211_lp_s02_0_bicycle_10_n03792782_8287.png
subject-02,1,212,0.743979930877686,bottle,bottle,5,0212_lp_s02_5_bottle_10_n04579145_2190.png
subject-02,1,213,0.674278974533081,cat,cat,3,0213_lp_s02_3_cat_10_n02123045_377.png
subject-02,1,214,0.790474891662598,chair,chair,5,0214_lp_s02_5_chair_10_n02791124_15756.png
subject-02,1,215,0.604941129684448,airplane,airplane,7,0215_lp_s02_7_airplane_10_n02690373_4586.png
subject-02,1,216,0.643317937850952,boat,keyboard,7,0216_lp_s02_7_keyboard_10_n04505470_6327.png
subject-02,1,217,0.514250993728638,bird,bird,3,0217_lp_s02_3_bird_10_n02009912_20078.png
subject-02,1,218,0.512996196746826,car,cat,40,0218_lp_s02_40_cat_10_n02123394_3318.png
subject-02,1,219,0.75927996635437,keyboard,keyboard,10,0219_lp_s02_10_keyboard_10_n03085013_19380.png
subject-02,1,220,0.860093832015991,chair,chair,5,0220_lp_s02_5_chair_10_n03376595_5421.png
subject-02,1,221,0.720458030700684,elephant,elephant,1,0221_lp_s02_1_elephant_10_n02504458_743.png
subject-02,1,222,0.791604042053223,bottle,bottle,3,0222_lp_s02_3_bottle_10_n03983396_2114.png
subject-02,1,223,0.797799825668335,cat,cat,3,0223_lp_s02_3_cat_10_n02125311_23812.png
subject-02,1,224,0.760205984115601,chair,chair,5,0224_lp_s02_5_chair_10_n02791124_3671.png
subject-02,1,225,0.819823026657104,airplane,elephant,10,0225_lp_s02_10_elephant_10_n02504458_337.png
subject-02,1,226,0.774286985397339,cat,cat,7,0226_lp_s02_7_cat_10_n02123159_259.png
subject-02,1,227,0.834403991699219,airplane,airplane,7,0227_lp_s02_7_airplane_10_n02690373_8560.png
subject-02,1,228,0.818167924880981,truck,truck,3,0228_lp_s02_3_truck_10_n04467665_79143.png
subject-02,1,229,0.702896118164062,knife,knife,7,0229_lp_s02_7_knife_10_n03041632_48071.png
subject-02,1,230,0.75476598739624,bear,bear,5,0230_lp_s02_5_bear_10_n02134418_363.png
subject-02,1,231,0.647922992706299,car,car,1,0231_lp_s02_1_car_10_n03100240_7568.png
subject-02,1,232,0.915532827377319,knife,knife,3,0232_lp_s02_3_knife_10_n03041632_3159.png
subject-02,1,233,0.932980060577393,dog,car,15,0233_lp_s02_15_car_10_n03100240_7257.png
subject-02,1,234,0.633217096328735,bird,bird,3,0234_lp_s02_3_bird_10_n02056570_3406.png
subject-02,1,235,0.633989095687866,dog,dog,5,0235_lp_s02_5_dog_10_n02100236_9744.png
subject-02,1,236,0.672921180725098,bicycle,bicycle,1,0236_lp_s02_1_bicycle_10_n02835271_1222.png
subject-02,1,237,0.594922065734863,bird,bird,3,0237_lp_s02_3_bird_10_n02006656_6934.png
subject-02,1,238,1.05535793304443,chair,oven,15,0238_lp_s02_15_oven_10_n04111531_9910.png
subject-02,1,239,0.484423160552979,airplane,airplane,5,0239_lp_s02_5_airplane_10_n02690373_9266.png
subject-02,1,240,0.493046998977661,bear,dog,10,0240_lp_s02_10_dog_10_n02101556_840.png
subject-02,1,241,0.623155117034912,bottle,bottle,0,0241_lp_s02_0_bottle_10_n04557648_33.png
subject-02,1,242,0.686177968978882,knife,knife,3,0242_lp_s02_3_knife_10_n03041632_8468.png
subject-02,1,243,0.747107982635498,keyboard,chair,15,0243_lp_s02_15_chair_10_n03376595_13734.png
subject-02,1,244,0.501308917999268,bear,bear,3,0244_lp_s02_3_bear_10_n02132136_27682.png
subject-02,1,245,0.553178071975708,bird,bird,3,0245_lp_s02_3_bird_10_n01601694_14004.png
subject-02,1,246,0.369990110397339,clock,bottle,40,0246_lp_s02_40_bottle_10_n04560804_15744.png
subject-02,1,247,0.839087963104248,bird,dog,7,0247_lp_s02_7_dog_10_n02111500_5346.png
subject-02,1,248,0.768895864486694,elephant,elephant,1,0248_lp_s02_1_elephant_10_n02504013_2020.png
subject-02,1,249,0.790117979049683,elephant,elephant,40,0249_lp_s02_40_elephant_10_n02504013_7474.png
subject-02,1,250,0.683204889297485,knife,knife,5,0250_lp_s02_5_knife_10_n03041632_22570.png
subject-02,1,251,0.767885208129883,bear,dog,15,0251_lp_s02_15_dog_10_n02105056_15122.png
subject-02,1,252,0.62332010269165,truck,knife,40,0252_lp_s02_40_knife_10_n03041632_18532.png
subject-02,1,253,0.537036180496216,truck,bear,3,0253_lp_s02_3_bear_10_n02134084_13014.png
subject-02,1,254,0.935365200042725,bottle,elephant,40,0254_lp_s02_40_elephant_10_n02504458_4725.png
subject-02,1,255,0.613024950027466,bottle,bottle,3,0255_lp_s02_3_bottle_10_n03983396_2150.png
subject-02,1,256,0.611402034759521,car,bear,40,0256_lp_s02_40_bear_10_n02134084_4923.png
subject-02,1,257,0.612159013748169,car,bird,40,0257_lp_s02_40_bird_10_n02056570_9720.png
subject-02,1,258,1.0107159614563,bottle,bear,7,0258_lp_s02_7_bear_10_n02134084_12797.png
subject-02,1,259,0.802564859390259,dog,elephant,15,0259_lp_s02_15_elephant_10_n02504458_2317.png
subject-02,1,260,0.527137994766235,bird,elephant,15,0260_lp_s02_15_elephant_10_n02504458_2031.png
subject-02,1,261,0.733626127243042,truck,truck,0,0261_lp_s02_0_truck_10_n03417042_4605.png
subject-02,1,262,0.709830045700073,bird,bear,1,0262_lp_s02_1_bear_10_n02132136_11159.png
subject-02,1,263,0.924797058105469,elephant,bear,3,0263_lp_s02_3_bear_10_n02132136_6634.png
subject-02,1,264,0.662544965744019,clock,clock,3,0264_lp_s02_3_clock_10_n04548280_2169.png
subject-02,1,265,0.63883900642395,boat,airplane,40,0265_lp_s02_40_airplane_10_n02690373_1891.png
subject-02,1,266,0.655885934829712,dog,dog,3,0266_lp_s02_3_dog_10_n02097130_1739.png
subject-02,1,267,0.668575048446655,clock,clock,7,0267_lp_s02_7_clock_10_n03196217_3780.png
subject-02,1,268,0.899027824401855,cat,oven,15,0268_lp_s02_15_oven_10_n04111531_8462.png
subject-02,1,269,1.05963802337646,bird,bird,1,0269_lp_s02_1_bird_10_n01829413_1606.png
subject-02,1,270,0.668347835540771,car,dog,10,0270_lp_s02_10_dog_10_n02088632_5645.png
subject-02,1,271,0.506994009017944,cat,cat,3,0271_lp_s02_3_cat_10_n02123394_4585.png
subject-02,1,272,1.0217170715332,bird,elephant,10,0272_lp_s02_10_elephant_10_n02504013_5014.png
subject-02,1,273,0.635568857192993,bottle,bottle,0,0273_lp_s02_0_bottle_10_n03937543_4657.png
subject-02,1,274,0.591068029403687,bottle,chair,1,0274_lp_s02_1_chair_10_n02791124_6843.png
subject-02,1,275,0.651072025299072,cat,cat,15,0275_lp_s02_15_cat_10_n02123597_6355.png
subject-02,1,276,0.583537101745605,bear,bear,10,0276_lp_s02_10_bear_10_n02134418_2871.png
subject-02,1,277,0.597846031188965,chair,oven,7,0277_lp_s02_7_oven_10_n04111531_16270.png
subject-02,1,278,0.522540092468262,cat,cat,1,0278_lp_s02_1_cat_10_n02125311_23860.png
subject-02,1,279,0.7375168800354,dog,bottle,15,0279_lp_s02_15_bottle_10_n04560804_22024.png
subject-02,1,280,0.526246070861816,airplane,dog,15,0280_lp_s02_15_dog_10_n02100735_10276.png
subject-02,1,281,0.440719127655029,keyboard,keyboard,3,0281_lp_s02_3_keyboard_10_n03085013_3733.png
subject-02,1,282,1.09519410133362,bottle,boat,40,0282_lp_s02_40_boat_10_n04612504_10721.png
subject-02,1,283,0.601094961166382,clock,cat,40,0283_lp_s02_40_cat_10_n02123159_7947.png
subject-02,1,284,0.409120082855225,oven,car,7,0284_lp_s02_7_car_10_n03100240_9343.png
subject-02,1,285,0.623065233230591,keyboard,car,40,0285_lp_s02_40_car_10_n04285008_407.png
subject-02,1,286,1.1835629940033,bottle,bird,7,0286_lp_s02_7_bird_10_n01531178_15439.png
subject-02,1,287,0.943019151687622,clock,airplane,40,0287_lp_s02_40_airplane_10_n02690373_3059.png
subject-02,1,288,0.751568078994751,oven,oven,5,0288_lp_s02_5_oven_10_n04111531_5351.png
subject-02,1,289,0.774017810821533,dog,bear,10,0289_lp_s02_10_bear_10_n02134418_71.png
subject-02,1,290,0.436514139175415,car,car,1,0290_lp_s02_1_car_10_n03100240_5542.png
subject-02,1,291,0.504841089248657,boat,bottle,40,0291_lp_s02_40_bottle_10_n03983396_10711.png
subject-02,1,292,0.48895788192749,car,car,3,0292_lp_s02_3_car_10_n02814533_71838.png
subject-02,1,293,0.835491895675659,chair,elephant,10,0293_lp_s02_10_elephant_10_n02504458_6510.png
subject-02,1,294,0.782119989395142,dog,knife,7,0294_lp_s02_7_knife_10_n03041632_14224.png
subject-02,1,295,0.504257202148438,boat,knife,10,0295_lp_s02_10_knife_10_n03041632_11797.png
subject-02,1,296,0.572370767593384,car,boat,10,0296_lp_s02_10_boat_10_n03662601_10528.png
subject-02,1,297,0.681762933731079,bottle,clock,3,0297_lp_s02_3_clock_10_n04548280_3156.png
subject-02,1,298,0.56618595123291,elephant,elephant,0,0298_lp_s02_0_elephant_10_n02504458_8936.png
subject-02,1,299,0.726567029953003,bear,bear,10,0299_lp_s02_10_bear_10_n02133161_5637.png
subject-02,1,300,0.918941020965576,clock,knife,40,0300_lp_s02_40_knife_10_n03041632_47703.png
subject-02,1,301,0.662617921829224,bicycle,elephant,40,0301_lp_s02_40_elephant_10_n02504458_7839.png
subject-02,1,302,0.547411918640137,keyboard,bottle,10,0302_lp_s02_10_bottle_10_n04591713_3534.png
subject-02,1,303,0.894302129745483,chair,oven,5,0303_lp_s02_5_oven_10_n04111531_15087.png
subject-02,1,304,0.686251878738403,car,car,3,0304_lp_s02_3_car_10_n02814533_94371.png
subject-02,1,305,0.524772882461548,cat,cat,1,0305_lp_s02_1_cat_10_n02123045_1417.png
subject-02,1,306,0.701427936553955,truck,truck,5,0306_lp_s02_5_truck_10_n03796401_9627.png
subject-02,1,307,0.626691818237305,car,boat,40,0307_lp_s02_40_boat_10_n04273569_2698.png
subject-02,1,308,0.656790018081665,dog,dog,15,0308_lp_s02_15_dog_10_n02098286_5787.png
subject-02,1,309,0.971111059188843,cat,elephant,3,0309_lp_s02_3_elephant_10_n02504013_4218.png
subject-02,1,310,1.06957578659058,oven,bicycle,10,0310_lp_s02_10_bicycle_10_n03792782_14258.png
subject-02,1,311,0.661961078643799,dog,elephant,7,0311_lp_s02_7_elephant_10_n02504013_2640.png
subject-02,1,312,0.54052209854126,car,car,5,0312_lp_s02_5_car_10_n02814533_10135.png
subject-02,1,313,0.755440950393677,elephant,boat,7,0313_lp_s02_7_boat_10_n03662601_1895.png
subject-02,1,314,0.753304004669189,cat,cat,3,0314_lp_s02_3_cat_10_n02123394_768.png
subject-02,1,315,0.791587829589844,elephant,elephant,0,0315_lp_s02_0_elephant_10_n02504013_10361.png
subject-02,1,316,0.705755949020386,bear,bear,0,0316_lp_s02_0_bear_10_n02134084_18800.png
subject-02,1,317,0.684674978256226,car,car,7,0317_lp_s02_7_car_10_n02814533_7232.png
subject-02,1,318,0.460683822631836,car,bicycle,40,0318_lp_s02_40_bicycle_10_n03792782_13464.png
subject-02,1,319,0.567018985748291,boat,boat,3,0319_lp_s02_3_boat_10_n03662601_6865.png
subject-02,1,320,0.680881977081299,elephant,elephant,0,0320_lp_s02_0_elephant_10_n02504458_6664.png
subject-02,1,321,0.652792930603027,oven,oven,1,0321_lp_s02_1_oven_10_n04111531_8144.png
subject-02,1,322,0.437103033065796,cat,cat,1,0322_lp_s02_1_cat_10_n02123045_4272.png
subject-02,1,323,0.667707920074463,dog,dog,5,0323_lp_s02_5_dog_10_n02106550_5752.png
subject-02,1,324,0.554408073425293,dog,dog,5,0324_lp_s02_5_dog_10_n02106662_32228.png
subject-02,1,325,0.661099910736084,bird,knife,10,0325_lp_s02_10_knife_10_n03041632_23667.png
subject-02,1,326,1.0458779335022,car,bicycle,7,0326_lp_s02_7_bicycle_10_n03792782_4826.png
subject-02,1,327,0.64330005645752,car,car,0,0327_lp_s02_0_car_10_n03100240_1520.png
subject-02,1,328,0.889992952346802,keyboard,oven,3,0328_lp_s02_3_oven_10_n04111531_18223.png
subject-02,1,329,0.545272827148438,car,car,1,0329_lp_s02_1_car_10_n03100240_12874.png
subject-02,1,330,0.675919055938721,dog,cat,15,0330_lp_s02_15_cat_10_n02123045_1484.png
subject-02,1,331,0.852303981781006,bird,bird,5,0331_lp_s02_5_bird_10_n02009229_4534.png
subject-02,1,332,0.650314092636108,boat,oven,5,0332_lp_s02_5_oven_10_n04111531_22923.png
subject-02,1,333,0.551295042037964,keyboard,keyboard,3,0333_lp_s02_3_keyboard_10_n03085013_21064.png
subject-02,1,334,0.605860233306885,bear,bear,0,0334_lp_s02_0_bear_10_n02132136_25399.png
subject-02,1,335,0.612411022186279,elephant,elephant,3,0335_lp_s02_3_elephant_10_n02504458_11693.png
subject-02,1,336,1.34267210960388,car,bottle,5,0336_lp_s02_5_bottle_10_n04591713_5553.png
subject-02,1,337,1.04916191101074,truck,chair,5,0337_lp_s02_5_chair_10_n04429376_29424.png
subject-02,1,338,1.00098896026611,airplane,bottle,40,0338_lp_s02_40_bottle_10_n04591713_4832.png
subject-02,1,339,0.701025009155273,bear,bear,10,0339_lp_s02_10_bear_10_n02133161_18720.png
subject-02,1,340,0.978149890899658,dog,chair,15,0340_lp_s02_15_chair_10_n04099969_36200.png
subject-02,1,341,1.00886511802673,cat,bird,3,0341_lp_s02_3_bird_10_n01558993_7187.png
subject-02,1,342,0.670903921127319,bird,bird,5,0342_lp_s02_5_bird_10_n02028035_25050.png
subject-02,1,343,0.936661958694458,elephant,cat,40,0343_lp_s02_40_cat_10_n02124075_8955.png
subject-02,1,344,0.52808690071106,bottle,bear,40,0344_lp_s02_40_bear_10_n02134084_6313.png
subject-02,1,345,0.788379907608032,dog,bottle,5,0345_lp_s02_5_bottle_10_n04557648_9535.png
subject-02,1,346,1.2011878490448,knife,truck,10,0346_lp_s02_10_truck_10_n04467665_10169.png
subject-02,1,347,0.818005800247192,elephant,elephant,0,0347_lp_s02_0_elephant_10_n02504013_7799.png
subject-02,1,348,0.634612083435059,elephant,elephant,5,0348_lp_s02_5_elephant_10_n02504458_7805.png
subject-02,1,349,0.733417987823486,car,bird,10,0349_lp_s02_10_bird_10_n02051845_3660.png
subject-02,1,350,0.617244005203247,airplane,airplane,40,0350_lp_s02_40_airplane_10_n02690373_7908.png
subject-02,1,351,0.538642168045044,keyboard,keyboard,15,0351_lp_s02_15_keyboard_10_n04505470_4246.png
subject-02,1,352,0.453991174697876,boat,chair,40,0352_lp_s02_40_chair_10_n04429376_25760.png
subject-02,1,353,0.897225856781006,oven,oven,1,0353_lp_s02_1_oven_10_n04111531_12929.png
subject-02,1,354,0.651796102523804,airplane,car,15,0354_lp_s02_15_car_10_n02814533_11762.png
subject-02,1,355,0.544440984725952,boat,bear,40,0355_lp_s02_40_bear_10_n02134418_1311.png
subject-02,1,356,0.820623874664307,cat,bear,15,0356_lp_s02_15_bear_10_n02134418_1153.png
subject-02,1,357,0.621390104293823,dog,dog,3,0357_lp_s02_3_dog_10_n02113799_440.png
subject-02,1,358,0.727616786956787,dog,bear,3,0358_lp_s02_3_bear_10_n02134084_4490.png
subject-02,1,359,0.912126064300537,bear,dog,1,0359_lp_s02_1_dog_10_n02102973_4010.png
subject-02,1,360,0.588398933410645,bear,bear,7,0360_lp_s02_7_bear_10_n02132136_1665.png
subject-02,1,361,0.543312072753906,bear,bear,5,0361_lp_s02_5_bear_10_n02134418_5594.png
subject-02,1,362,0.674032926559448,airplane,airplane,3,0362_lp_s02_3_airplane_10_n02690373_4195.png
subject-02,1,363,0.604134082794189,airplane,airplane,0,0363_lp_s02_0_airplane_10_n02690373_7915.png
subject-02,1,364,0.518768072128296,bird,bird,3,0364_lp_s02_3_bird_10_n01534433_11255.png
subject-02,1,365,0.611649990081787,chair,chair,0,0365_lp_s02_0_chair_10_n04099969_1911.png
subject-02,1,366,0.658896207809448,oven,oven,15,0366_lp_s02_15_oven_10_n04111531_4444.png
subject-02,1,367,0.544077157974243,boat,boat,1,0367_lp_s02_1_boat_10_n04273569_2740.png
subject-02,1,368,0.490682125091553,bottle,bottle,1,0368_lp_s02_1_bottle_10_n04557648_10462.png
subject-02,1,369,0.690973997116089,knife,knife,1,0369_lp_s02_1_knife_10_n03041632_29684.png
subject-02,1,370,0.851850032806396,bird,dog,7,0370_lp_s02_7_dog_10_n02093754_4689.png
subject-02,1,371,0.780845165252686,car,clock,10,0371_lp_s02_10_clock_10_n04548280_7475.png
subject-02,1,372,0.795603036880493,car,clock,3,0372_lp_s02_3_clock_10_n02708093_3761.png
subject-02,1,373,0.634173154830933,keyboard,keyboard,5,0373_lp_s02_5_keyboard_10_n04505470_3675.png
subject-02,1,374,0.594321966171265,airplane,airplane,10,0374_lp_s02_10_airplane_10_n02690373_4788.png
subject-02,1,375,0.664815187454224,keyboard,keyboard,0,0375_lp_s02_0_keyboard_10_n04505470_7421.png
subject-02,1,376,0.6334068775177,clock,clock,0,0376_lp_s02_0_clock_10_n04548280_578.png
subject-02,1,377,0.571666955947876,airplane,airplane,1,0377_lp_s02_1_airplane_10_n02690373_1974.png
subject-02,1,378,0.769593000411987,boat,elephant,40,0378_lp_s02_40_elephant_10_n02504458_3205.png
subject-02,1,379,0.754579067230225,chair,chair,1,0379_lp_s02_1_chair_10_n03376595_5.png
subject-02,1,380,0.77751898765564,car,car,10,0380_lp_s02_10_car_10_n02814533_33631.png
subject-02,1,381,0.508443117141724,dog,bear,5,0381_lp_s02_5_bear_10_n02133161_14791.png
subject-02,1,382,0.500272989273071,keyboard,keyboard,15,0382_lp_s02_15_keyboard_10_n04505470_5132.png
subject-02,1,383,0.951946973800659,boat,oven,10,0383_lp_s02_10_oven_10_n04111531_2447.png
subject-02,1,384,0.72801399230957,bicycle,bottle,40,0384_lp_s02_40_bottle_10_n02823428_12471.png
subject-02,1,385,0.942057132720947,boat,boat,7,0385_lp_s02_7_boat_10_n03662601_1926.png
subject-02,1,386,0.681286096572876,bird,oven,40,0386_lp_s02_40_oven_10_n04111531_7096.png
subject-02,1,387,0.619661092758179,bicycle,bicycle,0,0387_lp_s02_0_bicycle_10_n02835271_12752.png
subject-02,1,388,0.479630947113037,oven,elephant,40,0388_lp_s02_40_elephant_10_n02504013_1284.png
subject-02,1,389,0.52596116065979,boat,elephant,1,0389_lp_s02_1_elephant_10_n02504458_5376.png
subject-02,1,390,0.556745052337646,bear,chair,15,0390_lp_s02_15_chair_10_n03376595_6865.png
subject-02,1,391,0.563349962234497,bicycle,bicycle,0,0391_lp_s02_0_bicycle_10_n03792782_5670.png
subject-02,1,392,0.516216993331909,keyboard,keyboard,7,0392_lp_s02_7_keyboard_10_n03085013_24963.png
subject-02,1,393,0.692450046539307,bottle,knife,1,0393_lp_s02_1_knife_10_n03041632_86118.png
subject-02,1,394,0.654903888702393,oven,oven,0,0394_lp_s02_0_oven_10_n04111531_6568.png
subject-02,1,395,0.769289016723633,cat,cat,5,0395_lp_s02_5_cat_10_n02123394_4383.png
subject-02,1,396,0.991271018981934,boat,boat,15,0396_lp_s02_15_boat_10_n04273569_26100.png
subject-02,1,397,0.952300071716309,bottle,bottle,7,0397_lp_s02_7_bottle_10_n03937543_1252.png
subject-02,1,398,0.845122098922729,oven,boat,15,0398_lp_s02_15_boat_10_n03344393_8143.png
subject-02,1,399,0.921032905578613,dog,dog,7,0399_lp_s02_7_dog_10_n02088094_1829.png
subject-02,1,400,0.835816860198975,bear,chair,15,0400_lp_s02_15_chair_10_n04099969_14998.png
subject-02,1,401,0.848676919937134,airplane,boat,3,0401_lp_s02_3_boat_10_n04273569_8114.png
subject-02,1,402,0.740687131881714,bird,bottle,15,0402_lp_s02_15_bottle_10_n04557648_1210.png
subject-02,1,403,0.713379859924316,clock,clock,40,0403_lp_s02_40_clock_10_n02708093_425.png
subject-02,1,404,0.751823902130127,keyboard,bottle,15,0404_lp_s02_15_bottle_10_n03937543_4678.png
subject-02,1,405,0.63683295249939,cat,cat,1,0405_lp_s02_1_cat_10_n02123045_10893.png
subject-02,1,406,0.735529899597168,keyboard,keyboard,1,0406_lp_s02_1_keyboard_10_n04505470_4262.png
subject-02,1,407,0.718848943710327,car,airplane,40,0407_lp_s02_40_airplane_10_n02690373_19131.png
subject-02,1,408,0.77114200592041,oven,boat,10,0408_lp_s02_10_boat_10_n03344393_4844.png
subject-02,1,409,1.04718399047852,cat,bottle,40,0409_lp_s02_40_bottle_10_n03983396_2692.png
subject-02,1,410,NaN,na,bottle,15,0410_lp_s02_15_bottle_10_n04560804_13059.png
subject-02,1,411,0.746721982955933,bird,cat,3,0411_lp_s02_3_cat_10_n02125311_19172.png
subject-02,1,412,0.908679962158203,clock,clock,15,0412_lp_s02_15_clock_10_n03196217_4844.png
subject-02,1,413,0.931022882461548,oven,elephant,7,0413_lp_s02_7_elephant_10_n02504458_57.png
subject-02,1,414,0.769617080688477,chair,keyboard,40,0414_lp_s02_40_keyboard_10_n04505470_4594.png
subject-02,1,415,0.72216796875,car,car,5,0415_lp_s02_5_car_10_n03100240_1263.png
subject-02,1,416,1.16032195091248,keyboard,clock,5,0416_lp_s02_5_clock_10_n03196217_3352.png
subject-02,1,417,1.0049409866333,airplane,dog,7,0417_lp_s02_7_dog_10_n02091831_910.png
subject-02,1,418,0.650835037231445,boat,airplane,5,0418_lp_s02_5_airplane_10_n02690373_3435.png
subject-02,1,419,0.457123994827271,chair,bird,40,0419_lp_s02_40_bird_10_n01817953_12356.png
subject-02,1,420,0.481283903121948,boat,elephant,15,0420_lp_s02_15_elephant_10_n02504013_812.png
subject-02,1,421,1.27707314491272,bottle,bottle,3,0421_lp_s02_3_bottle_10_n04591713_1768.png
subject-02,1,422,0.639928102493286,dog,dog,1,0422_lp_s02_1_dog_10_n02100877_2338.png
subject-02,1,423,0.638468980789185,keyboard,clock,3,0423_lp_s02_3_clock_10_n03196217_3292.png
subject-02,1,424,0.468384027481079,oven,oven,0,0424_lp_s02_0_oven_10_n04111531_10465.png
subject-02,1,425,0.660922050476074,car,car,0,0425_lp_s02_0_car_10_n02814533_40984.png
subject-02,1,426,0.599493026733398,bottle,bottle,15,0426_lp_s02_15_bottle_10_n02823428_3171.png
subject-02,1,427,0.710986852645874,clock,elephant,40,0427_lp_s02_40_elephant_10_n02504458_13354.png
subject-02,1,428,0.757771968841553,dog,bear,1,0428_lp_s02_1_bear_10_n02134418_2654.png
subject-02,1,429,0.733794212341309,knife,knife,3,0429_lp_s02_3_knife_10_n03041632_11887.png
subject-02,1,430,0.848381042480469,boat,oven,3,0430_lp_s02_3_oven_10_n04111531_5643.png
subject-02,1,431,0.56181788444519,truck,truck,1,0431_lp_s02_1_truck_10_n03417042_16664.png
subject-02,1,432,0.722209930419922,dog,truck,10,0432_lp_s02_10_truck_10_n04467665_3211.png
subject-02,1,433,0.674432039260864,cat,bottle,40,0433_lp_s02_40_bottle_10_n03983396_3737.png
subject-02,1,434,0.520514011383057,keyboard,keyboard,1,0434_lp_s02_1_keyboard_10_n03085013_7399.png
subject-02,1,435,0.851415157318115,airplane,car,40,0435_lp_s02_40_car_10_n03100240_7697.png
subject-02,1,436,0.581897974014282,clock,clock,7,0436_lp_s02_7_clock_10_n02708093_685.png
subject-02,1,437,0.826331853866577,chair,chair,1,0437_lp_s02_1_chair_10_n04099969_7664.png
subject-02,1,438,0.965034008026123,cat,car,40,0438_lp_s02_40_car_10_n03100240_13931.png
subject-02,1,439,0.624480962753296,bottle,bottle,1,0439_lp_s02_1_bottle_10_n02823428_3544.png
subject-02,1,440,0.677021980285645,elephant,clock,40,0440_lp_s02_40_clock_10_n04548280_8904.png
subject-02,1,441,0.799742937088013,truck,truck,7,0441_lp_s02_7_truck_10_n04467665_39107.png
subject-02,1,442,0.851716041564941,bird,bird,5,0442_lp_s02_5_bird_10_n01532829_19108.png
subject-02,1,443,0.965522050857544,truck,truck,1,0443_lp_s02_1_truck_10_n04467665_67853.png
subject-02,1,444,0.750053882598877,boat,bird,15,0444_lp_s02_15_bird_10_n02018795_99.png
subject-02,1,445,0.596561193466187,airplane,airplane,5,0445_lp_s02_5_airplane_10_n02690373_1912.png
subject-02,1,446,0.503684997558594,oven,oven,3,0446_lp_s02_3_oven_10_n04111531_7821.png
subject-02,1,447,0.74229097366333,dog,cat,10,0447_lp_s02_10_cat_10_n02123597_334.png
subject-02,1,448,0.815430879592896,car,boat,15,0448_lp_s02_15_boat_10_n04612504_16816.png
subject-02,1,449,0.616338968276978,bottle,bottle,0,0449_lp_s02_0_bottle_10_n04591713_7374.png
subject-02,1,450,1.01007509231567,bear,airplane,10,0450_lp_s02_10_airplane_10_n02690373_5778.png
subject-02,1,451,0.694452047348022,bottle,bottle,5,0451_lp_s02_5_bottle_10_n04591713_10469.png
subject-02,1,452,0.695083141326904,airplane,airplane,3,0452_lp_s02_3_airplane_10_n02690373_6380.png
subject-02,1,453,0.577922821044922,car,boat,5,0453_lp_s02_5_boat_10_n04273569_15997.png
subject-02,1,454,0.684209108352661,bottle,bottle,10,0454_lp_s02_10_bottle_10_n04557648_1722.png
subject-02,1,455,0.77648401260376,clock,boat,40,0455_lp_s02_40_boat_10_n03662601_8059.png
subject-02,1,456,0.436869859695435,clock,keyboard,40,0456_lp_s02_40_keyboard_10_n04505470_1328.png
subject-02,1,457,0.821890115737915,keyboard,truck,15,0457_lp_s02_15_truck_10_n03417042_4551.png
subject-02,1,458,0.814207792282104,bottle,chair,15,0458_lp_s02_15_chair_10_n04429376_4849.png
subject-02,1,459,0.790136098861694,elephant,elephant,0,0459_lp_s02_0_elephant_10_n02504458_4161.png
subject-02,1,460,0.609832048416138,cat,cat,1,0460_lp_s02_1_cat_10_n02124075_9919.png
subject-02,1,461,0.894760847091675,bear,dog,40,0461_lp_s02_40_dog_10_n02099601_5240.png
subject-02,1,462,0.763206005096436,oven,chair,7,0462_lp_s02_7_chair_10_n02791124_612.png
subject-02,1,463,0.76411509513855,dog,airplane,40,0463_lp_s02_40_airplane_10_n02690373_5790.png
subject-02,1,464,0.855916976928711,bird,bear,7,0464_lp_s02_7_bear_10_n02133161_132.png
subject-02,1,465,0.583815097808838,cat,bear,15,0465_lp_s02_15_bear_10_n02132136_152.png
subject-02,1,466,0.521595001220703,keyboard,keyboard,10,0466_lp_s02_10_keyboard_10_n04505470_3345.png
subject-02,1,467,0.498536825180054,keyboard,keyboard,7,0467_lp_s02_7_keyboard_10_n03085013_14844.png
subject-02,1,468,0.712698936462402,knife,knife,15,0468_lp_s02_15_knife_10_n03041632_3210.png
subject-02,1,469,0.949274063110352,airplane,airplane,10,0469_lp_s02_10_airplane_10_n02690373_6406.png
subject-02,1,470,0.487968921661377,cat,cat,0,0470_lp_s02_0_cat_10_n02124075_9490.png
subject-02,1,471,0.618623018264771,boat,boat,1,0471_lp_s02_1_boat_10_n03344393_11469.png
subject-02,1,472,0.441097974777222,cat,cat,5,0472_lp_s02_5_cat_10_n02123394_10767.png
subject-02,1,473,0.725461959838867,airplane,oven,7,0473_lp_s02_7_oven_10_n04111531_5570.png
subject-02,1,474,0.432237863540649,oven,oven,0,0474_lp_s02_0_oven_10_n04111531_16007.png
subject-02,1,475,0.700343132019043,bird,chair,10,0475_lp_s02_10_chair_10_n04429376_1137.png
subject-02,1,476,0.568549871444702,cat,bird,7,0476_lp_s02_7_bird_10_n01514859_4770.png
subject-02,1,477,1.04412198066711,bird,bird,7,0477_lp_s02_7_bird_10_n02013706_7852.png
subject-02,1,478,0.720741987228394,bicycle,bicycle,7,0478_lp_s02_7_bicycle_10_n02835271_17617.png
subject-02,1,479,0.643429040908813,bicycle,bicycle,0,0479_lp_s02_0_bicycle_10_n02835271_8529.png
subject-02,1,480,0.536646842956543,car,car,5,0480_lp_s02_5_car_10_n04285008_1803.png
subject-02,1,481,0.610125064849854,bottle,bottle,0,0481_lp_s02_0_bottle_10_n04560804_16214.png
subject-02,1,482,0.578336000442505,dog,dog,1,0482_lp_s02_1_dog_10_n02110063_10091.png
subject-02,1,483,0.471197128295898,airplane,airplane,0,0483_lp_s02_0_airplane_10_n02690373_6491.png
subject-02,1,484,0.715604066848755,bear,bear,1,0484_lp_s02_1_bear_10_n02132136_181.png
subject-02,1,485,0.692574977874756,airplane,airplane,1,0485_lp_s02_1_airplane_10_n02690373_3074.png
subject-02,1,486,0.509009122848511,keyboard,keyboard,3,0486_lp_s02_3_keyboard_10_n04505470_4565.png
subject-02,1,487,0.644221067428589,chair,chair,3,0487_lp_s02_3_chair_10_n04099969_28139.png
subject-02,1,488,0.597243070602417,dog,dog,7,0488_lp_s02_7_dog_10_n02101006_6593.png
subject-02,1,489,0.994242906570435,oven,knife,7,0489_lp_s02_7_knife_10_n03041632_46185.png
subject-02,1,490,0.509233951568604,oven,oven,1,0490_lp_s02_1_oven_10_n04111531_2458.png
subject-02,1,491,0.890691995620728,chair,chair,3,0491_lp_s02_3_chair_10_n02791124_2223.png
subject-02,1,492,1.20431590080261,boat,knife,5,0492_lp_s02_5_knife_10_n03041632_1607.png
subject-02,1,493,0.54219913482666,clock,clock,5,0493_lp_s02_5_clock_10_n02708093_496.png
subject-02,1,494,0.4498450756073,oven,oven,1,0494_lp_s02_1_oven_10_n04111531_1830.png
subject-02,1,495,0.517816781997681,bottle,bottle,3,0495_lp_s02_3_bottle_10_n04557648_2392.png
subject-02,1,496,0.640475034713745,truck,truck,5,0496_lp_s02_5_truck_10_n03417042_1211.png
subject-02,1,497,0.708279848098755,keyboard,airplane,10,0497_lp_s02_10_airplane_10_n02690373_4429.png
subject-02,1,498,0.814793825149536,bicycle,bicycle,0,0498_lp_s02_0_bicycle_10_n03792782_4233.png
subject-02,1,499,0.485119819641113,cat,cat,1,0499_lp_s02_1_cat_10_n02123394_1651.png
subject-02,1,500,0.521692037582397,car,car,7,0500_lp_s02_7_car_10_n02814533_1215.png
subject-02,1,501,0.619865894317627,bicycle,bicycle,3,0501_lp_s02_3_bicycle_10_n02835271_5199.png
subject-02,1,502,0.750536918640137,knife,knife,5,0502_lp_s02_5_knife_10_n03041632_38996.png
subject-02,1,503,0.865143060684204,elephant,elephant,0,0503_lp_s02_0_elephant_10_n02504013_6671.png
subject-02,1,504,0.673849821090698,bicycle,bicycle,3,0504_lp_s02_3_bicycle_10_n03792782_1933.png
subject-02,1,505,0.612574100494385,bottle,bottle,7,0505_lp_s02_7_bottle_10_n04579145_984.png
subject-02,1,506,0.74908185005188,bear,elephant,7,0506_lp_s02_7_elephant_10_n02504458_5619.png
subject-02,1,507,0.570796966552734,bottle,bottle,0,0507_lp_s02_0_bottle_10_n03983396_10230.png
subject-02,1,508,0.633939027786255,dog,dog,3,0508_lp_s02_3_dog_10_n02095570_10366.png
subject-02,1,509,0.493622064590454,boat,boat,0,0509_lp_s02_0_boat_10_n04612504_38516.png
subject-02,1,510,0.446871995925903,bicycle,bicycle,7,0510_lp_s02_7_bicycle_10_n03792782_2246.png
subject-02,1,511,0.62321400642395,truck,truck,5,0511_lp_s02_5_truck_10_n03417042_5257.png
subject-02,1,512,0.707678079605103,airplane,truck,40,0512_lp_s02_40_truck_10_n03417042_4095.png
subject-02,1,513,0.429886102676392,clock,clock,1,0513_lp_s02_1_clock_10_n04548280_3799.png
subject-02,1,514,0.807254076004028,car,car,10,0514_lp_s02_10_car_10_n04285008_10917.png
subject-02,1,515,0.788973093032837,dog,dog,15,0515_lp_s02_15_dog_10_n02113978_1323.png
subject-02,1,516,0.665378093719482,chair,chair,0,0516_lp_s02_0_chair_10_n02791124_5599.png
subject-02,1,517,0.519801139831543,oven,oven,5,0517_lp_s02_5_oven_10_n04111531_3555.png
subject-02,1,518,0.542469024658203,chair,chair,1,0518_lp_s02_1_chair_10_n03376595_1730.png
subject-02,1,519,0.472152948379517,keyboard,keyboard,3,0519_lp_s02_3_keyboard_10_n03085013_2483.png
subject-02,1,520,0.593285083770752,clock,clock,5,0520_lp_s02_5_clock_10_n03196217_5149.png
subject-02,1,521,0.461293935775757,boat,boat,1,0521_lp_s02_1_boat_10_n03662601_17617.png
subject-02,1,522,0.896818876266479,bicycle,bicycle,0,0522_lp_s02_0_bicycle_10_n03792782_12411.png
subject-02,1,523,0.70263409614563,cat,chair,40,0523_lp_s02_40_chair_10_n02791124_2369.png
subject-02,1,524,0.741728067398071,bear,bird,15,0524_lp_s02_15_bird_10_n01817953_9621.png
subject-02,1,525,0.725680112838745,dog,dog,15,0525_lp_s02_15_dog_10_n02087046_3560.png
subject-02,1,526,0.524074077606201,chair,chair,3,0526_lp_s02_3_chair_10_n03376595_8812.png
subject-02,1,527,NaN,na,elephant,15,0527_lp_s02_15_elephant_10_n02504013_1970.png
subject-02,1,528,0.828386068344116,keyboard,bottle,40,0528_lp_s02_40_bottle_10_n04591713_5560.png
subject-02,1,529,0.766950130462646,cat,airplane,15,0529_lp_s02_15_airplane_10_n02690373_10397.png
subject-02,1,530,0.55942702293396,chair,chair,5,0530_lp_s02_5_chair_10_n03376595_9800.png
subject-02,1,531,0.435819864273071,keyboard,keyboard,5,0531_lp_s02_5_keyboard_10_n04505470_4562.png
subject-02,1,532,0.63415002822876,dog,dog,1,0532_lp_s02_1_dog_10_n02106030_5158.png
subject-02,1,533,0.795400142669678,dog,bear,7,0533_lp_s02_7_bear_10_n02133161_311.png
subject-02,1,534,0.785035133361816,boat,boat,5,0534_lp_s02_5_boat_10_n02951358_20116.png
subject-02,1,535,0.707191944122314,bear,clock,15,0535_lp_s02_15_clock_10_n02708093_7963.png
subject-02,1,536,0.516077995300293,cat,cat,5,0536_lp_s02_5_cat_10_n02123159_4300.png
subject-02,1,537,0.685281038284302,chair,clock,10,0537_lp_s02_10_clock_10_n04548280_11412.png
subject-02,1,538,0.708206176757812,dog,clock,7,0538_lp_s02_7_clock_10_n02708093_8379.png
subject-02,1,539,0.837537050247192,knife,chair,40,0539_lp_s02_40_chair_10_n04099969_5612.png
subject-02,1,540,0.489737987518311,keyboard,keyboard,3,0540_lp_s02_3_keyboard_10_n04505470_2804.png
subject-02,1,541,0.6475830078125,boat,boat,10,0541_lp_s02_10_boat_10_n03344393_3024.png
subject-02,1,542,0.73981499671936,cat,cat,0,0542_lp_s02_0_cat_10_n02123597_13654.png
subject-02,1,543,0.65195107460022,keyboard,truck,40,0543_lp_s02_40_truck_10_n04467665_23867.png
subject-02,1,544,0.628483057022095,bottle,bottle,0,0544_lp_s02_0_bottle_10_n03937543_4423.png
subject-02,1,545,0.89728307723999,car,keyboard,10,0545_lp_s02_10_keyboard_10_n03085013_6862.png
subject-02,1,546,0.735054016113281,clock,clock,10,0546_lp_s02_10_clock_10_n04548280_5038.png
subject-02,1,547,0.879899978637695,truck,truck,1,0547_lp_s02_1_truck_10_n04467665_3580.png
subject-02,1,548,0.717988014221191,truck,car,7,0548_lp_s02_7_car_10_n03100240_8327.png
subject-02,1,549,0.57896900177002,bear,elephant,10,0549_lp_s02_10_elephant_10_n02504458_10432.png
subject-02,1,550,0.617503881454468,keyboard,oven,10,0550_lp_s02_10_oven_10_n04111531_2662.png
subject-02,1,551,0.639542102813721,elephant,elephant,1,0551_lp_s02_1_elephant_10_n02504458_5902.png
subject-02,1,552,0.814146995544434,cat,oven,10,0552_lp_s02_10_oven_10_n04111531_9322.png
subject-02,1,553,0.882577896118164,airplane,bird,40,0553_lp_s02_40_bird_10_n02013706_5899.png
subject-02,1,554,0.629516839981079,knife,knife,15,0554_lp_s02_15_knife_10_n03041632_38540.png
subject-02,1,555,0.765737056732178,knife,knife,1,0555_lp_s02_1_knife_10_n03041632_43625.png
subject-02,1,556,1.24202585220337,chair,chair,15,0556_lp_s02_15_chair_10_n04099969_5901.png
subject-02,1,557,0.963505029678345,bear,boat,10,0557_lp_s02_10_boat_10_n03662601_6549.png
subject-02,1,558,0.494366884231567,boat,boat,1,0558_lp_s02_1_boat_10_n03662601_7336.png
subject-02,1,559,0.508888959884644,boat,boat,0,0559_lp_s02_0_boat_10_n02951358_31956.png
subject-02,1,560,0.661412000656128,airplane,cat,7,0560_lp_s02_7_cat_10_n02125311_21904.png
subject-02,1,561,1.04586505889893,airplane,bird,10,0561_lp_s02_10_bird_10_n01616318_299.png
subject-02,1,562,1.13606286048889,car,car,15,0562_lp_s02_15_car_10_n03100240_52.png
subject-02,1,563,0.536818981170654,airplane,airplane,3,0563_lp_s02_3_airplane_10_n02690373_4134.png
subject-02,1,564,0.980865955352783,bird,bird,7,0564_lp_s02_7_bird_10_n01819313_3294.png
subject-02,1,565,0.53389310836792,bird,bird,0,0565_lp_s02_0_bird_10_n02017213_2434.png
subject-02,1,566,0.642724990844727,boat,boat,5,0566_lp_s02_5_boat_10_n03662601_2980.png
subject-02,1,567,1.39295315742493,bear,bicycle,5,0567_lp_s02_5_bicycle_10_n02835271_9931.png
subject-02,1,568,0.655369997024536,elephant,elephant,15,0568_lp_s02_15_elephant_10_n02504013_19006.png
subject-02,1,569,0.606553077697754,bicycle,bicycle,1,0569_lp_s02_1_bicycle_10_n02835271_7655.png
subject-02,1,570,0.605033159255981,truck,truck,7,0570_lp_s02_7_truck_10_n03417042_15592.png
subject-02,1,571,0.55197811126709,airplane,airplane,5,0571_lp_s02_5_airplane_10_n02690373_17130.png
subject-02,1,572,0.887732982635498,oven,knife,15,0572_lp_s02_15_knife_10_n03041632_17285.png
subject-02,1,573,0.764538049697876,truck,truck,0,0573_lp_s02_0_truck_10_n03417042_10957.png
subject-02,1,574,0.717381000518799,knife,knife,3,0574_lp_s02_3_knife_10_n03041632_11603.png
subject-02,1,575,0.44206690788269,clock,clock,7,0575_lp_s02_7_clock_10_n02708093_3173.png
subject-02,1,576,0.671087026596069,dog,truck,10,0576_lp_s02_10_truck_10_n04467665_30189.png
subject-02,1,577,0.769048929214478,airplane,bird,15,0577_lp_s02_15_bird_10_n01843065_3621.png
subject-02,1,578,0.50611400604248,bird,bird,1,0578_lp_s02_1_bird_10_n02037110_178.png
subject-02,1,579,0.56700611114502,dog,dog,7,0579_lp_s02_7_dog_10_n02092339_474.png
subject-02,1,580,0.681565999984741,bicycle,bicycle,5,0580_lp_s02_5_bicycle_10_n02835271_7129.png
subject-02,1,581,0.758029222488403,bottle,bottle,10,0581_lp_s02_10_bottle_10_n04591713_5345.png
subject-02,1,582,0.610700845718384,chair,dog,15,0582_lp_s02_15_dog_10_n02097298_11366.png
subject-02,1,583,0.434020042419434,oven,airplane,7,0583_lp_s02_7_airplane_10_n02690373_1441.png
subject-02,1,584,1.03840804100037,truck,clock,15,0584_lp_s02_15_clock_10_n03196217_2414.png
subject-02,1,585,0.560771942138672,cat,cat,3,0585_lp_s02_3_cat_10_n02123597_2275.png
subject-02,1,586,0.67499303817749,oven,oven,1,0586_lp_s02_1_oven_10_n04111531_4050.png
subject-02,1,587,0.873404979705811,bird,knife,10,0587_lp_s02_10_knife_10_n03041632_5727.png
subject-02,1,588,0.972172975540161,airplane,clock,40,0588_lp_s02_40_clock_10_n02708093_6570.png
subject-02,1,589,1.16040587425232,bear,elephant,10,0589_lp_s02_10_elephant_10_n02504013_6407.png
subject-02,1,590,0.837066888809204,truck,truck,5,0590_lp_s02_5_truck_10_n04467665_35560.png
subject-02,1,591,0.899991989135742,elephant,bear,7,0591_lp_s02_7_bear_10_n02132136_2815.png
subject-02,1,592,0.611577987670898,bird,bird,0,0592_lp_s02_0_bird_10_n01819313_4084.png
subject-02,1,593,0.603816986083984,dog,bottle,15,0593_lp_s02_15_bottle_10_n04557648_818.png
subject-02,1,594,0.794992923736572,car,truck,5,0594_lp_s02_5_truck_10_n03417042_5335.png
subject-02,1,595,1.30866599082947,knife,chair,40,0595_lp_s02_40_chair_10_n04099969_8360.png
subject-02,1,596,1.17114806175232,airplane,keyboard,40,0596_lp_s02_40_keyboard_10_n03085013_12492.png
subject-02,1,597,0.810332059860229,chair,chair,1,0597_lp_s02_1_chair_10_n03376595_7017.png
subject-02,1,598,1.06055402755737,elephant,elephant,1,0598_lp_s02_1_elephant_10_n02504458_1712.png
subject-02,1,599,0.622838973999023,bird,bird,0,0599_lp_s02_0_bird_10_n01843065_5600.png
subject-02,1,600,0.620387077331543,airplane,airplane,15,0600_lp_s02_15_airplane_10_n02690373_6872.png
subject-02,1,601,0.735503196716309,clock,clock,5,0601_lp_s02_5_clock_10_n04548280_5557.png
subject-02,1,602,0.625148057937622,boat,boat,1,0602_lp_s02_1_boat_10_n04612504_18954.png
subject-02,1,603,0.442375898361206,bird,bird,7,0603_lp_s02_7_bird_10_n02025239_265.png
subject-02,1,604,0.624160051345825,boat,boat,15,0604_lp_s02_15_boat_10_n03662601_9415.png
subject-02,1,605,0.716459035873413,truck,truck,3,0605_lp_s02_3_truck_10_n04467665_20923.png
subject-02,1,606,0.431201934814453,clock,clock,1,0606_lp_s02_1_clock_10_n03196217_8254.png
subject-02,1,607,0.66211986541748,bottle,truck,40,0607_lp_s02_40_truck_10_n04467665_77937.png
subject-02,1,608,0.654567003250122,car,car,15,0608_lp_s02_15_car_10_n03100240_14257.png
subject-02,1,609,0.682842969894409,bicycle,bicycle,0,0609_lp_s02_0_bicycle_10_n03792782_4512.png
subject-02,1,610,0.628878831863403,bear,bear,5,0610_lp_s02_5_bear_10_n02132136_34191.png
subject-02,1,611,0.719650030136108,knife,keyboard,15,0611_lp_s02_15_keyboard_10_n03085013_14503.png
subject-02,1,612,0.390433073043823,boat,boat,0,0612_lp_s02_0_boat_10_n03344393_9863.png
subject-02,1,613,0.651876926422119,keyboard,keyboard,0,0613_lp_s02_0_keyboard_10_n03085013_20861.png
subject-02,1,614,0.520483016967773,clock,bottle,7,0614_lp_s02_7_bottle_10_n03983396_13193.png
subject-02,1,615,1.16959810256958,truck,truck,0,0615_lp_s02_0_truck_10_n04467665_1187.png
subject-02,1,616,0.599895000457764,car,car,1,0616_lp_s02_1_car_10_n03100240_3189.png
subject-02,1,617,0.56822395324707,car,car,3,0617_lp_s02_3_car_10_n02814533_46403.png
subject-02,1,618,0.544697999954224,boat,boat,3,0618_lp_s02_3_boat_10_n03662601_8627.png
subject-02,1,619,0.743555068969727,knife,airplane,3,0619_lp_s02_3_airplane_10_n02690373_1019.png
subject-02,1,620,0.581405878067017,clock,dog,40,0620_lp_s02_40_dog_10_n02101006_7866.png
subject-02,1,621,0.734099864959717,dog,elephant,15,0621_lp_s02_15_elephant_10_n02504013_6461.png
subject-02,1,622,0.794945955276489,cat,oven,7,0622_lp_s02_7_oven_10_n04111531_6313.png
subject-02,1,623,0.947487115859985,clock,knife,40,0623_lp_s02_40_knife_10_n03041632_20832.png
subject-02,1,624,0.531745910644531,bird,truck,40,0624_lp_s02_40_truck_10_n03417042_518.png
subject-02,1,625,1.05962896347046,dog,bottle,15,0625_lp_s02_15_bottle_10_n04579145_2955.png
subject-02,1,626,0.530761003494263,bird,bird,3,0626_lp_s02_3_bird_10_n01820546_3307.png
subject-02,1,627,0.468789100646973,cat,dog,40,0627_lp_s02_40_dog_10_n02099267_2491.png
subject-02,1,628,0.897385835647583,bear,bear,7,0628_lp_s02_7_bear_10_n02134084_2190.png
subject-02,1,629,0.482174158096313,oven,oven,5,0629_lp_s02_5_oven_10_n04111531_605.png
subject-02,1,630,0.613185882568359,chair,chair,3,0630_lp_s02_3_chair_10_n02791124_4876.png
subject-02,1,631,0.593850135803223,airplane,airplane,0,0631_lp_s02_0_airplane_10_n02690373_15966.png
subject-02,1,632,0.771522045135498,dog,dog,5,0632_lp_s02_5_dog_10_n02086646_7285.png
subject-02,1,633,0.831945896148682,oven,chair,10,0633_lp_s02_10_chair_10_n02791124_2233.png
subject-02,1,634,0.608870983123779,boat,boat,0,0634_lp_s02_0_boat_10_n03662601_1787.png
subject-02,1,635,0.7481529712677,bear,bear,1,0635_lp_s02_1_bear_10_n02134084_5435.png
subject-02,1,636,0.816838979721069,chair,clock,10,0636_lp_s02_10_clock_10_n02708093_1400.png
subject-02,1,637,0.843680143356323,airplane,boat,40,0637_lp_s02_40_boat_10_n04612504_33904.png
subject-02,1,638,1.01271510124207,dog,elephant,7,0638_lp_s02_7_elephant_10_n02504013_4718.png
subject-02,1,639,0.629406929016113,cat,oven,5,0639_lp_s02_5_oven_10_n04111531_10102.png
subject-02,1,640,0.657891988754272,knife,chair,10,0640_lp_s02_10_chair_10_n03376595_406.png
subject-02,1,641,0.808549165725708,bicycle,bicycle,1,0641_lp_s02_1_bicycle_10_n02835271_9531.png
subject-02,1,642,0.439200162887573,clock,clock,0,0642_lp_s02_0_clock_10_n04548280_4249.png
subject-02,1,643,0.850934028625488,clock,bear,40,0643_lp_s02_40_bear_10_n02134418_7463.png
subject-02,1,644,0.957350969314575,car,car,0,0644_lp_s02_0_car_10_n03100240_16570.png
subject-02,1,645,0.534039974212646,boat,airplane,10,0645_lp_s02_10_airplane_10_n02690373_4486.png
subject-02,1,646,0.726677894592285,car,car,1,0646_lp_s02_1_car_10_n03100240_4294.png
subject-02,1,647,0.709347009658813,clock,clock,10,0647_lp_s02_10_clock_10_n03196217_818.png
subject-02,1,648,0.623584985733032,cat,bottle,10,0648_lp_s02_10_bottle_10_n02823428_3680.png
subject-02,1,649,0.637789011001587,airplane,clock,40,0649_lp_s02_40_clock_10_n02708093_6957.png
subject-02,1,650,0.814221858978271,elephant,keyboard,40,0650_lp_s02_40_keyboard_10_n03085013_2190.png
subject-02,1,651,0.419229984283447,airplane,airplane,1,0651_lp_s02_1_airplane_10_n02690373_303.png
subject-02,1,652,0.986611127853394,knife,bear,15,0652_lp_s02_15_bear_10_n02134084_3384.png
subject-02,1,653,0.762344121932983,elephant,elephant,7,0653_lp_s02_7_elephant_10_n02504013_783.png
subject-02,1,654,0.55494499206543,elephant,elephant,5,0654_lp_s02_5_elephant_10_n02504458_6903.png
subject-02,1,655,0.820736885070801,cat,dog,40,0655_lp_s02_40_dog_10_n02100583_22072.png
subject-02,1,656,0.642635107040405,car,knife,10,0656_lp_s02_10_knife_10_n03041632_6446.png
subject-02,1,657,0.811586141586304,airplane,chair,7,0657_lp_s02_7_chair_10_n03376595_410.png
subject-02,1,658,0.572221994400024,chair,chair,0,0658_lp_s02_0_chair_10_n04099969_7998.png
subject-02,1,659,0.770411014556885,oven,knife,10,0659_lp_s02_10_knife_10_n03041632_14801.png
subject-02,1,660,0.838413000106812,bird,bicycle,40,0660_lp_s02_40_bicycle_10_n02835271_8995.png
subject-02,1,661,0.890434980392456,cat,clock,15,0661_lp_s02_15_clock_10_n04548280_5273.png
subject-02,1,662,0.718258857727051,car,oven,7,0662_lp_s02_7_oven_10_n04111531_5093.png
subject-02,1,663,0.54060697555542,boat,boat,5,0663_lp_s02_5_boat_10_n04612504_14570.png
subject-02,1,664,0.563598871231079,bottle,bottle,0,0664_lp_s02_0_bottle_10_n03983396_9992.png
subject-02,1,665,0.669941186904907,keyboard,keyboard,15,0665_lp_s02_15_keyboard_10_n04505470_2705.png
subject-02,1,666,0.821887016296387,clock,bottle,15,0666_lp_s02_15_bottle_10_n04557648_1938.png
subject-02,1,667,0.576663970947266,keyboard,oven,7,0667_lp_s02_7_oven_10_n04111531_689.png
subject-02,1,668,0.851068019866943,oven,keyboard,15,0668_lp_s02_15_keyboard_10_n03085013_21491.png
subject-02,1,669,0.849960088729858,bear,bird,1,0669_lp_s02_1_bird_10_n02002724_3338.png
subject-02,1,670,0.604022979736328,cat,bicycle,10,0670_lp_s02_10_bicycle_10_n02835271_18222.png
subject-02,1,671,0.88595986366272,elephant,elephant,5,0671_lp_s02_5_elephant_10_n02504458_3057.png
subject-02,1,672,0.592046022415161,truck,truck,5,0672_lp_s02_5_truck_10_n03796401_2354.png
subject-02,1,673,0.698784112930298,cat,cat,0,0673_lp_s02_0_cat_10_n02123045_4280.png
subject-02,1,674,0.672713041305542,airplane,bicycle,40,0674_lp_s02_40_bicycle_10_n03792782_19288.png
subject-02,1,675,0.451628923416138,bear,bear,10,0675_lp_s02_10_bear_10_n02133161_4903.png
subject-02,1,676,0.50045108795166,car,car,3,0676_lp_s02_3_car_10_n04285008_2595.png
subject-02,1,677,0.690917015075684,oven,oven,15,0677_lp_s02_15_oven_10_n04111531_537.png
subject-02,1,678,0.469396829605103,airplane,airplane,1,0678_lp_s02_1_airplane_10_n02690373_2431.png
subject-02,1,679,0.843525886535645,boat,bicycle,40,0679_lp_s02_40_bicycle_10_n03792782_15875.png
subject-02,1,680,0.457533836364746,cat,cat,0,0680_lp_s02_0_cat_10_n02123597_50.png
subject-02,1,681,0.756475925445557,dog,cat,15,0681_lp_s02_15_cat_10_n02123597_9585.png
subject-02,1,682,0.724494934082031,truck,truck,5,0682_lp_s02_5_truck_10_n04467665_37526.png
subject-02,1,683,0.768065929412842,knife,cat,15,0683_lp_s02_15_cat_10_n02125311_45426.png
subject-02,1,684,0.737205982208252,bottle,bottle,1,0684_lp_s02_1_bottle_10_n04591713_5201.png
subject-02,1,685,0.490061044692993,bear,bear,1,0685_lp_s02_1_bear_10_n02134084_6505.png
subject-02,1,686,0.574227094650269,clock,clock,7,0686_lp_s02_7_clock_10_n04548280_4790.png
subject-02,1,687,0.526274919509888,keyboard,keyboard,1,0687_lp_s02_1_keyboard_10_n03085013_22820.png
subject-02,1,688,0.565470933914185,bird,bird,0,0688_lp_s02_0_bird_10_n01537544_3993.png
subject-02,1,689,0.500927925109863,bear,bear,0,0689_lp_s02_0_bear_10_n02133161_331.png
subject-02,1,690,0.515035152435303,keyboard,keyboard,10,0690_lp_s02_10_keyboard_10_n03085013_25800.png
subject-02,1,691,0.543406963348389,airplane,airplane,3,0691_lp_s02_3_airplane_10_n02690373_9718.png
subject-02,1,692,0.703803062438965,oven,oven,1,0692_lp_s02_1_oven_10_n04111531_9613.png
subject-02,1,693,0.496128082275391,airplane,airplane,1,0693_lp_s02_1_airplane_10_n02690373_1469.png
subject-02,1,694,0.631651163101196,car,car,40,0694_lp_s02_40_car_10_n03100240_9625.png
subject-02,1,695,0.6838059425354,boat,boat,3,0695_lp_s02_3_boat_10_n03662601_25781.png
subject-02,1,696,0.5989670753479,oven,oven,0,0696_lp_s02_0_oven_10_n04111531_7421.png
subject-02,1,697,0.605564117431641,boat,boat,0,0697_lp_s02_0_boat_10_n03344393_3259.png
subject-02,1,698,0.714004039764404,dog,dog,3,0698_lp_s02_3_dog_10_n02092339_7698.png
subject-02,1,699,0.851084232330322,keyboard,keyboard,5,0699_lp_s02_5_keyboard_10_n03085013_7971.png
subject-02,1,700,1.06606698036194,car,truck,10,0700_lp_s02_10_truck_10_n03417042_2778.png
subject-02,1,701,0.626938104629517,chair,oven,3,0701_lp_s02_3_oven_10_n04111531_14959.png
subject-02,1,702,0.719247102737427,truck,truck,10,0702_lp_s02_10_truck_10_n03417042_19277.png
subject-02,1,703,0.571591854095459,truck,truck,10,0703_lp_s02_10_truck_10_n03417042_108.png
subject-02,1,704,0.510194063186646,keyboard,keyboard,3,0704_lp_s02_3_keyboard_10_n03085013_32791.png
subject-02,1,705,0.930207014083862,airplane,knife,0,0705_lp_s02_0_knife_10_n03041632_30553.png
subject-02,1,706,0.62273097038269,chair,chair,0,0706_lp_s02_0_chair_10_n02791124_3103.png
subject-02,1,707,0.967894077301025,car,airplane,10,0707_lp_s02_10_airplane_10_n02690373_9335.png
subject-02,1,708,0.805754899978638,bear,bear,3,0708_lp_s02_3_bear_10_n02132136_3331.png
subject-02,1,709,0.866096019744873,truck,boat,7,0709_lp_s02_7_boat_10_n04612504_19912.png
subject-02,1,710,1.30307388305664,bird,elephant,3,0710_lp_s02_3_elephant_10_n02504458_3677.png
subject-02,1,711,0.863497972488403,knife,knife,15,0711_lp_s02_15_knife_10_n03041632_27575.png
subject-02,1,712,0.617798089981079,bird,bird,0,0712_lp_s02_0_bird_10_n02027492_16264.png
subject-02,1,713,0.95491099357605,oven,bottle,3,0713_lp_s02_3_bottle_10_n03983396_4834.png
subject-02,1,714,0.568854808807373,knife,knife,0,0714_lp_s02_0_knife_10_n03041632_47759.png
subject-02,1,715,0.569984912872314,truck,truck,5,0715_lp_s02_5_truck_10_n03417042_6419.png
subject-02,1,716,0.781147003173828,airplane,cat,40,0716_lp_s02_40_cat_10_n02125311_36622.png
subject-02,1,717,0.481782913208008,boat,boat,40,0717_lp_s02_40_boat_10_n04273569_3348.png
subject-02,1,718,0.840074062347412,knife,knife,0,0718_lp_s02_0_knife_10_n03041632_4806.png
subject-02,1,719,0.848551034927368,dog,knife,10,0719_lp_s02_10_knife_10_n03041632_33225.png
subject-02,1,720,0.900936126708984,cat,elephant,7,0720_lp_s02_7_elephant_10_n02504013_5788.png
subject-02,1,721,0.94561505317688,bird,knife,40,0721_lp_s02_40_knife_10_n03041632_41493.png
subject-02,1,722,0.938225030899048,car,elephant,15,0722_lp_s02_15_elephant_10_n02504458_7966.png
subject-02,1,723,0.7810959815979,oven,oven,40,0723_lp_s02_40_oven_10_n04111531_6810.png
subject-02,1,724,NaN,na,oven,15,0724_lp_s02_15_oven_10_n04111531_7329.png
subject-02,1,725,0.618331909179688,cat,cat,1,0725_lp_s02_1_cat_10_n02123394_1463.png
subject-02,1,726,0.649176120758057,dog,dog,1,0726_lp_s02_1_dog_10_n02090721_4906.png
subject-02,1,727,0.840168952941895,truck,truck,1,0727_lp_s02_1_truck_10_n03417042_15198.png
subject-02,1,728,0.832680940628052,car,bicycle,7,0728_lp_s02_7_bicycle_10_n03792782_19866.png
subject-02,1,729,0.521314859390259,oven,clock,40,0729_lp_s02_40_clock_10_n04548280_7243.png
subject-02,1,730,0.689704895019531,knife,knife,7,0730_lp_s02_7_knife_10_n03041632_4443.png
subject-02,1,731,0.603569984436035,cat,truck,15,0731_lp_s02_15_truck_10_n04467665_17283.png
subject-02,1,732,0.448424100875854,keyboard,keyboard,3,0732_lp_s02_3_keyboard_10_n03085013_23119.png
subject-02,1,733,0.684490919113159,clock,dog,40,0733_lp_s02_40_dog_10_n02104029_7767.png
subject-02,1,734,0.531769037246704,oven,oven,1,0734_lp_s02_1_oven_10_n04111531_1330.png
subject-02,1,735,0.616305112838745,knife,knife,3,0735_lp_s02_3_knife_10_n03041632_29862.png
subject-02,1,736,0.568524837493896,bear,bird,1,0736_lp_s02_1_bird_10_n01622779_8733.png
subject-02,1,737,0.52878212928772,dog,bear,5,0737_lp_s02_5_bear_10_n02132136_2029.png
subject-02,1,738,0.567389011383057,knife,knife,5,0738_lp_s02_5_knife_10_n03041632_46422.png
subject-02,1,739,0.495875120162964,car,keyboard,40,0739_lp_s02_40_keyboard_10_n03085013_23718.png
subject-02,1,740,0.672322034835815,clock,clock,0,0740_lp_s02_0_clock_10_n03196217_6237.png
subject-02,1,741,0.511408090591431,cat,cat,7,0741_lp_s02_7_cat_10_n02123159_3353.png
subject-02,1,742,0.579339981079102,keyboard,oven,10,0742_lp_s02_10_oven_10_n04111531_6454.png
subject-02,1,743,0.999212026596069,car,airplane,7,0743_lp_s02_7_airplane_10_n02690373_9300.png
subject-02,1,744,0.40020489692688,keyboard,keyboard,5,0744_lp_s02_5_keyboard_10_n04505470_10775.png
subject-02,1,745,0.544295072555542,clock,clock,1,0745_lp_s02_1_clock_10_n04548280_8225.png
subject-02,1,746,0.45801305770874,cat,cat,0,0746_lp_s02_0_cat_10_n02123159_4033.png
subject-02,1,747,0.710783958435059,knife,knife,1,0747_lp_s02_1_knife_10_n03041632_15431.png
subject-02,1,748,0.929718017578125,boat,airplane,40,0748_lp_s02_40_airplane_10_n02690373_9060.png
subject-02,1,749,0.814769983291626,cat,dog,0,0749_lp_s02_0_dog_10_n02097209_8427.png
subject-02,1,750,0.628696918487549,chair,chair,0,0750_lp_s02_0_chair_10_n04429376_92.png
subject-02,1,751,0.689071893692017,oven,boat,40,0751_lp_s02_40_boat_10_n03344393_5300.png
subject-02,1,752,0.503340005874634,clock,clock,1,0752_lp_s02_1_clock_10_n04548280_1219.png
subject-02,1,753,0.78772497177124,car,bicycle,15,0753_lp_s02_15_bicycle_10_n03792782_19362.png
subject-02,1,754,0.640796899795532,bicycle,bicycle,10,0754_lp_s02_10_bicycle_10_n03792782_551.png
subject-02,1,755,0.453731060028076,bicycle,boat,5,0755_lp_s02_5_boat_10_n02951358_18848.png
subject-02,1,756,0.669132947921753,airplane,cat,10,0756_lp_s02_10_cat_10_n02123394_525.png
subject-02,1,757,0.637444972991943,keyboard,keyboard,1,0757_lp_s02_1_keyboard_10_n03085013_7511.png
subject-02,1,758,0.498380899429321,boat,chair,40,0758_lp_s02_40_chair_10_n03376595_6873.png
subject-02,1,759,0.812272071838379,dog,dog,1,0759_lp_s02_1_dog_10_n02111129_4571.png
subject-02,1,760,0.694879055023193,bird,bird,3,0760_lp_s02_3_bird_10_n02056570_2126.png
subject-02,1,761,0.625810861587524,car,truck,40,0761_lp_s02_40_truck_10_n03417042_9327.png
subject-02,1,762,0.531596183776855,cat,keyboard,40,0762_lp_s02_40_keyboard_10_n04505470_8822.png
subject-02,1,763,0.638601064682007,keyboard,keyboard,3,0763_lp_s02_3_keyboard_10_n04505470_5275.png
subject-02,1,764,0.653358936309814,dog,bird,7,0764_lp_s02_7_bird_10_n02056570_10019.png
subject-02,1,765,0.651082992553711,knife,knife,1,0765_lp_s02_1_knife_10_n03041632_89912.png
subject-02,1,766,0.611515998840332,dog,dog,5,0766_lp_s02_5_dog_10_n02106662_20396.png
subject-02,1,767,0.909844875335693,bear,bicycle,15,0767_lp_s02_15_bicycle_10_n02835271_274.png
subject-02,1,768,0.517003059387207,car,car,5,0768_lp_s02_5_car_10_n04285008_4551.png
subject-02,1,769,0.577065944671631,bottle,bottle,5,0769_lp_s02_5_bottle_10_n04579145_1951.png
subject-02,1,770,0.914248943328857,bear,cat,5,0770_lp_s02_5_cat_10_n02123394_203.png
subject-02,1,771,0.714250087738037,bear,bear,0,0771_lp_s02_0_bear_10_n02134418_5317.png
subject-02,1,772,0.558757066726685,oven,clock,1,0772_lp_s02_1_clock_10_n04548280_2532.png
subject-02,1,773,0.519271850585938,boat,airplane,15,0773_lp_s02_15_airplane_10_n02690373_3588.png
subject-02,1,774,1.04141592979431,keyboard,bicycle,10,0774_lp_s02_10_bicycle_10_n03792782_9991.png
subject-02,1,775,0.831990957260132,chair,boat,1,0775_lp_s02_1_boat_10_n03344393_8528.png
subject-02,1,776,0.700216054916382,car,car,5,0776_lp_s02_5_car_10_n03100240_6404.png
subject-02,1,777,0.92260217666626,cat,truck,40,0777_lp_s02_40_truck_10_n04467665_41163.png
subject-02,1,778,0.867234945297241,car,truck,15,0778_lp_s02_15_truck_10_n03796401_28776.png
subject-02,1,779,0.664736032485962,elephant,elephant,3,0779_lp_s02_3_elephant_10_n02504013_1257.png
subject-02,1,780,0.917155981063843,airplane,knife,40,0780_lp_s02_40_knife_10_n03041632_42162.png
subject-02,1,781,0.702019214630127,bicycle,bicycle,5,0781_lp_s02_5_bicycle_10_n02835271_6978.png
subject-02,1,782,1.16295313835144,bear,bear,15,0782_lp_s02_15_bear_10_n02134418_5124.png
subject-02,1,783,0.793370962142944,bottle,bottle,40,0783_lp_s02_40_bottle_10_n04560804_2657.png
subject-02,1,784,0.694483995437622,elephant,elephant,3,0784_lp_s02_3_elephant_10_n02504013_2146.png
subject-02,1,785,0.630388975143433,chair,chair,0,0785_lp_s02_0_chair_10_n02791124_2262.png
subject-02,1,786,0.57701301574707,cat,cat,5,0786_lp_s02_5_cat_10_n02123159_2429.png
subject-02,1,787,0.613111972808838,clock,clock,15,0787_lp_s02_15_clock_10_n04548280_2988.png
subject-02,1,788,0.665806770324707,car,car,3,0788_lp_s02_3_car_10_n03100240_6450.png
subject-02,1,789,0.517868041992188,elephant,elephant,0,0789_lp_s02_0_elephant_10_n02504458_2835.png
subject-02,1,790,0.664151191711426,bicycle,dog,3,0790_lp_s02_3_dog_10_n02108000_6214.png
subject-02,1,791,0.701251983642578,bear,bear,1,0791_lp_s02_1_bear_10_n02134418_3886.png
subject-02,1,792,0.639778137207031,chair,oven,15,0792_lp_s02_15_oven_10_n04111531_2630.png
subject-02,1,793,0.916259050369263,bird,elephant,10,0793_lp_s02_10_elephant_10_n02504458_3897.png
subject-02,1,794,0.600358009338379,truck,truck,0,0794_lp_s02_0_truck_10_n04467665_41562.png
subject-02,1,795,0.574955940246582,elephant,elephant,1,0795_lp_s02_1_elephant_10_n02504458_13583.png
subject-02,1,796,0.475562810897827,cat,cat,3,0796_lp_s02_3_cat_10_n02123159_6416.png
subject-02,1,797,0.512148141860962,bicycle,bicycle,1,0797_lp_s02_1_bicycle_10_n03792782_12273.png
subject-02,1,798,0.656731843948364,dog,cat,10,0798_lp_s02_10_cat_10_n02124075_843.png
subject-02,1,799,0.502770900726318,car,car,0,0799_lp_s02_0_car_10_n04285008_7866.png
subject-02,1,800,0.77698802947998,oven,knife,0,0800_lp_s02_0_knife_10_n03041632_21034.png
subject-02,1,801,0.583461046218872,clock,clock,5,0801_lp_s02_5_clock_10_n04548280_5692.png
subject-02,1,802,0.521760940551758,oven,oven,0,0802_lp_s02_0_oven_10_n04111531_9962.png
subject-02,1,803,0.600778818130493,cat,chair,7,0803_lp_s02_7_chair_10_n03376595_2192.png
subject-02,1,804,0.46032190322876,elephant,elephant,7,0804_lp_s02_7_elephant_10_n02504458_8939.png
subject-02,1,805,0.491261959075928,bottle,bottle,0,0805_lp_s02_0_bottle_10_n03937543_6380.png
subject-02,1,806,0.849951982498169,knife,knife,0,0806_lp_s02_0_knife_10_n03041632_4260.png
subject-02,1,807,1.03432989120483,oven,knife,0,0807_lp_s02_0_knife_10_n03041632_24998.png
subject-02,1,808,0.448282957077026,clock,clock,0,0808_lp_s02_0_clock_10_n02708093_596.png
subject-02,1,809,0.609070062637329,dog,cat,15,0809_lp_s02_15_cat_10_n02123597_14722.png
subject-02,1,810,0.61552906036377,car,car,1,0810_lp_s02_1_car_10_n04285008_14423.png
subject-02,1,811,0.797904014587402,bird,bottle,7,0811_lp_s02_7_bottle_10_n04591713_2972.png
subject-02,1,812,0.62054705619812,knife,knife,10,0812_lp_s02_10_knife_10_n03041632_12707.png
subject-02,1,813,0.566865205764771,truck,truck,5,0813_lp_s02_5_truck_10_n03417042_3197.png
subject-02,1,814,0.65786600112915,oven,clock,7,0814_lp_s02_7_clock_10_n03196217_13380.png
subject-02,1,815,0.562888145446777,clock,clock,1,0815_lp_s02_1_clock_10_n03196217_13429.png
subject-02,1,816,0.560616970062256,car,car,40,0816_lp_s02_40_car_10_n03100240_5308.png
subject-02,1,817,0.708533048629761,bird,bear,0,0817_lp_s02_0_bear_10_n02132136_3959.png
subject-02,1,818,0.385023832321167,cat,cat,5,0818_lp_s02_5_cat_10_n02125311_1242.png
subject-02,1,819,0.915757894515991,bear,cat,15,0819_lp_s02_15_cat_10_n02124075_14197.png
subject-02,1,820,0.453227996826172,dog,cat,10,0820_lp_s02_10_cat_10_n02123597_11027.png
subject-02,1,821,0.768074035644531,chair,knife,3,0821_lp_s02_3_knife_10_n03041632_20595.png
subject-02,1,822,0.674355030059814,airplane,keyboard,5,0822_lp_s02_5_keyboard_10_n03085013_23485.png
subject-02,1,823,0.457303047180176,bear,bear,3,0823_lp_s02_3_bear_10_n02134084_2556.png
subject-02,1,824,0.472146987915039,clock,bicycle,40,0824_lp_s02_40_bicycle_10_n03792782_6977.png
subject-02,1,825,0.724853038787842,dog,elephant,10,0825_lp_s02_10_elephant_10_n02504458_2628.png
subject-02,1,826,0.509570121765137,cat,bird,10,0826_lp_s02_10_bird_10_n02007558_10955.png
subject-02,1,827,0.558722019195557,airplane,airplane,1,0827_lp_s02_1_airplane_10_n02690373_5007.png
subject-02,1,828,0.413635015487671,clock,clock,5,0828_lp_s02_5_clock_10_n02708093_4289.png
subject-02,1,829,0.771827936172485,airplane,airplane,15,0829_lp_s02_15_airplane_10_n02690373_5632.png
subject-02,1,830,0.701670169830322,car,knife,40,0830_lp_s02_40_knife_10_n03041632_46091.png
subject-02,1,831,0.762118816375732,dog,dog,7,0831_lp_s02_7_dog_10_n02102318_3096.png
subject-02,1,832,0.898007869720459,bottle,bottle,7,0832_lp_s02_7_bottle_10_n02823428_417.png
subject-02,1,833,0.675277948379517,chair,elephant,15,0833_lp_s02_15_elephant_10_n02504458_1282.png
subject-02,1,834,0.61974310874939,oven,car,7,0834_lp_s02_7_car_10_n03100240_3581.png
subject-02,1,835,0.747128009796143,dog,knife,15,0835_lp_s02_15_knife_10_n03041632_40283.png
subject-02,1,836,0.799176931381226,knife,clock,15,0836_lp_s02_15_clock_10_n03196217_884.png
subject-02,1,837,0.854140043258667,elephant,elephant,5,0837_lp_s02_5_elephant_10_n02504458_10086.png
subject-02,1,838,0.644857883453369,airplane,boat,10,0838_lp_s02_10_boat_10_n03662601_34152.png
subject-02,1,839,0.590664148330688,chair,chair,3,0839_lp_s02_3_chair_10_n02791124_1988.png
subject-02,1,840,0.635133028030396,keyboard,bicycle,10,0840_lp_s02_10_bicycle_10_n03792782_2598.png
subject-02,1,841,0.832739114761353,cat,bear,40,0841_lp_s02_40_bear_10_n02132136_14614.png
subject-02,1,842,0.847301006317139,bird,bird,7,0842_lp_s02_7_bird_10_n01622779_3855.png
subject-02,1,843,0.43757700920105,clock,clock,10,0843_lp_s02_10_clock_10_n04548280_5408.png
subject-02,1,844,0.535021066665649,bicycle,bicycle,5,0844_lp_s02_5_bicycle_10_n03792782_19840.png
subject-02,1,845,0.581654787063599,bottle,bottle,7,0845_lp_s02_7_bottle_10_n04579145_6348.png
subject-02,1,846,0.455934047698975,airplane,airplane,5,0846_lp_s02_5_airplane_10_n02690373_4727.png
subject-02,1,847,0.770747900009155,cat,cat,10,0847_lp_s02_10_cat_10_n02123159_298.png
subject-02,1,848,0.754909992218018,dog,dog,10,0848_lp_s02_10_dog_10_n02108551_113.png
subject-02,1,849,0.539055109024048,car,car,3,0849_lp_s02_3_car_10_n02814533_39933.png
subject-02,1,850,0.567247867584229,keyboard,keyboard,0,0850_lp_s02_0_keyboard_10_n03085013_19362.png
subject-02,1,851,0.489049911499023,car,car,10,0851_lp_s02_10_car_10_n02814533_89376.png
subject-02,1,852,0.90140700340271,boat,clock,40,0852_lp_s02_40_clock_10_n03196217_422.png
subject-02,1,853,0.708011865615845,car,car,5,0853_lp_s02_5_car_10_n04285008_3203.png
subject-02,1,854,0.667454957962036,dog,dog,0,0854_lp_s02_0_dog_10_n02100236_9096.png
subject-02,1,855,0.698734045028687,clock,car,40,0855_lp_s02_40_car_10_n03100240_7134.png
subject-02,1,856,0.572072982788086,chair,clock,10,0856_lp_s02_10_clock_10_n02708093_2949.png
subject-02,1,857,0.924586057662964,bird,bicycle,40,0857_lp_s02_40_bicycle_10_n03792782_15138.png
subject-02,1,858,0.730916023254395,oven,truck,7,0858_lp_s02_7_truck_10_n04467665_2422.png
subject-02,1,859,1.00742602348328,bird,bottle,10,0859_lp_s02_10_bottle_10_n02823428_2820.png
subject-02,1,860,0.568809986114502,keyboard,keyboard,7,0860_lp_s02_7_keyboard_10_n04505470_6487.png
subject-02,1,861,1.0122709274292,airplane,boat,7,0861_lp_s02_7_boat_10_n03662601_10341.png
subject-02,1,862,0.596770048141479,car,car,0,0862_lp_s02_0_car_10_n04285008_3911.png
subject-02,1,863,0.664642095565796,bottle,bottle,7,0863_lp_s02_7_bottle_10_n02823428_6166.png
subject-02,1,864,0.655574798583984,clock,car,40,0864_lp_s02_40_car_10_n04285008_3552.png
subject-02,1,865,0.770775079727173,oven,chair,7,0865_lp_s02_7_chair_10_n04429376_3940.png
subject-02,1,866,0.985026836395264,truck,truck,0,0866_lp_s02_0_truck_10_n03796401_2784.png
subject-02,1,867,0.653244018554688,car,car,7,0867_lp_s02_7_car_10_n02814533_5357.png
subject-02,1,868,0.489711999893188,cat,dog,3,0868_lp_s02_3_dog_10_n02097298_3851.png
subject-02,1,869,0.436619997024536,clock,clock,1,0869_lp_s02_1_clock_10_n04548280_3038.png
subject-02,1,870,0.52693510055542,oven,knife,1,0870_lp_s02_1_knife_10_n03041632_1407.png
subject-02,1,871,0.757778882980347,boat,boat,3,0871_lp_s02_3_boat_10_n02951358_2954.png
subject-02,1,872,0.433910131454468,oven,oven,7,0872_lp_s02_7_oven_10_n04111531_13520.png
subject-02,1,873,0.446609973907471,car,car,0,0873_lp_s02_0_car_10_n03100240_17245.png
subject-02,1,874,1.07739090919495,dog,truck,10,0874_lp_s02_10_truck_10_n04467665_70237.png
subject-02,1,875,0.745507955551147,dog,cat,15,0875_lp_s02_15_cat_10_n02123159_3548.png
subject-02,1,876,1.22777080535889,boat,elephant,15,0876_lp_s02_15_elephant_10_n02504458_4643.png
subject-02,1,877,1.25532412528992,truck,bear,40,0877_lp_s02_40_bear_10_n02134418_4693.png
subject-02,1,878,0.631930828094482,car,car,15,0878_lp_s02_15_car_10_n03100240_8002.png
subject-02,1,879,0.67078685760498,dog,dog,10,0879_lp_s02_10_dog_10_n02095570_11983.png
subject-02,1,880,0.736649036407471,elephant,elephant,1,0880_lp_s02_1_elephant_10_n02504013_978.png
subject-02,1,881,1.44296598434448,car,car,40,0881_lp_s02_40_car_10_n02814533_4533.png
subject-02,1,882,0.740801095962524,bicycle,bicycle,7,0882_lp_s02_7_bicycle_10_n03792782_22856.png
subject-02,1,883,0.455323934555054,bottle,bottle,3,0883_lp_s02_3_bottle_10_n04579145_1174.png
subject-02,1,884,0.740134000778198,knife,knife,3,0884_lp_s02_3_knife_10_n03041632_47234.png
subject-02,1,885,0.946996927261353,dog,cat,5,0885_lp_s02_5_cat_10_n02123597_30151.png
subject-02,1,886,0.838089942932129,truck,clock,40,0886_lp_s02_40_clock_10_n02708093_3550.png
subject-02,1,887,0.746294975280762,truck,car,15,0887_lp_s02_15_car_10_n04285008_1550.png
subject-02,1,888,0.437231063842773,keyboard,keyboard,5,0888_lp_s02_5_keyboard_10_n04505470_4704.png
subject-02,1,889,1.04932308197021,car,oven,5,0889_lp_s02_5_oven_10_n04111531_14934.png
subject-02,1,890,0.92586612701416,bottle,boat,3,0890_lp_s02_3_boat_10_n03662601_34881.png
subject-02,1,891,0.940114974975586,bicycle,keyboard,0,0891_lp_s02_0_keyboard_10_n04505470_4757.png
subject-02,1,892,0.662930011749268,car,airplane,5,0892_lp_s02_5_airplane_10_n02690373_13317.png
subject-02,1,893,0.922780990600586,bird,bicycle,1,0893_lp_s02_1_bicycle_10_n03792782_20720.png
subject-02,1,894,0.528156995773315,cat,bear,15,0894_lp_s02_15_bear_10_n02134418_4465.png
subject-02,1,895,0.65679407119751,elephant,elephant,0,0895_lp_s02_0_elephant_10_n02504458_7144.png
subject-02,1,896,0.579864978790283,elephant,elephant,3,0896_lp_s02_3_elephant_10_n02504458_7342.png
subject-02,1,897,0.691271066665649,bear,bear,5,0897_lp_s02_5_bear_10_n02134084_134.png
subject-02,1,898,0.614131927490234,elephant,elephant,3,0898_lp_s02_3_elephant_10_n02504458_8341.png
subject-02,1,899,0.813030958175659,cat,cat,40,0899_lp_s02_40_cat_10_n02123597_5059.png
subject-02,1,900,0.665287017822266,airplane,boat,15,0900_lp_s02_15_boat_10_n03662601_3800.png
subject-02,1,901,0.541578054428101,car,car,5,0901_lp_s02_5_car_10_n02814533_48348.png
subject-02,1,902,0.388445138931274,clock,clock,0,0902_lp_s02_0_clock_10_n02708093_3159.png
subject-02,1,903,0.5329749584198,boat,boat,0,0903_lp_s02_0_boat_10_n03662601_20834.png
subject-02,1,904,0.556204080581665,keyboard,keyboard,7,0904_lp_s02_7_keyboard_10_n03085013_24668.png
subject-02,1,905,0.837260007858276,airplane,airplane,10,0905_lp_s02_10_airplane_10_n02690373_1996.png
subject-02,1,906,1.43591499328613,dog,chair,40,0906_lp_s02_40_chair_10_n02791124_13720.png
subject-02,1,907,0.716891050338745,bottle,bottle,0,0907_lp_s02_0_bottle_10_n02823428_3951.png
subject-02,1,908,0.923377990722656,knife,bottle,15,0908_lp_s02_15_bottle_10_n03937543_3347.png
subject-02,1,909,0.423856973648071,keyboard,keyboard,5,0909_lp_s02_5_keyboard_10_n04505470_5346.png
subject-02,1,910,0.63624119758606,bear,bear,0,0910_lp_s02_0_bear_10_n02133161_3580.png
subject-02,1,911,0.405251026153564,oven,oven,7,0911_lp_s02_7_oven_10_n04111531_16670.png
subject-02,1,912,0.619287967681885,car,airplane,10,0912_lp_s02_10_airplane_10_n02690373_5797.png
subject-02,1,913,0.518205881118774,bicycle,bicycle,0,0913_lp_s02_0_bicycle_10_n03792782_7426.png
subject-02,1,914,0.511009931564331,clock,bear,40,0914_lp_s02_40_bear_10_n02134084_3894.png
subject-02,1,915,0.725069046020508,bird,bird,10,0915_lp_s02_10_bird_10_n01820546_3806.png
subject-02,1,916,0.447900056838989,keyboard,keyboard,10,0916_lp_s02_10_keyboard_10_n03085013_29396.png
subject-02,1,917,0.459122896194458,airplane,airplane,0,0917_lp_s02_0_airplane_10_n02690373_1087.png
subject-02,1,918,0.466355085372925,bicycle,bicycle,1,0918_lp_s02_1_bicycle_10_n03792782_10876.png
subject-02,1,919,0.994624853134155,cat,chair,15,0919_lp_s02_15_chair_10_n03376595_14143.png
subject-02,1,920,0.532663106918335,cat,dog,1,0920_lp_s02_1_dog_10_n02112350_8364.png
subject-02,1,921,0.563112020492554,bear,cat,7,0921_lp_s02_7_cat_10_n02123045_432.png
subject-02,1,922,0.491212129592896,clock,bear,40,0922_lp_s02_40_bear_10_n02132136_8540.png
subject-02,1,923,0.897630929946899,bird,chair,40,0923_lp_s02_40_chair_10_n02791124_1737.png
subject-02,1,924,0.679718971252441,chair,chair,7,0924_lp_s02_7_chair_10_n02791124_1430.png
subject-02,1,925,0.832854986190796,dog,cat,0,0925_lp_s02_0_cat_10_n02123597_8331.png
subject-02,1,926,0.879765033721924,bird,bird,7,0926_lp_s02_7_bird_10_n01843383_6599.png
subject-02,1,927,0.886691093444824,dog,bear,5,0927_lp_s02_5_bear_10_n02134418_2604.png
subject-02,1,928,0.892458915710449,keyboard,keyboard,7,0928_lp_s02_7_keyboard_10_n03085013_21300.png
subject-02,1,929,0.466145992279053,clock,bottle,40,0929_lp_s02_40_bottle_10_n04560804_15812.png
subject-02,1,930,0.988477945327759,cat,chair,40,0930_lp_s02_40_chair_10_n04429376_23039.png
subject-02,1,931,0.692280054092407,bottle,bottle,1,0931_lp_s02_1_bottle_10_n03937543_4863.png
subject-02,1,932,0.65525484085083,elephant,elephant,1,0932_lp_s02_1_elephant_10_n02504013_3500.png
subject-02,1,933,0.799527168273926,bird,bird,0,0933_lp_s02_0_bird_10_n02017213_6024.png
subject-02,1,934,0.776628971099854,car,airplane,15,0934_lp_s02_15_airplane_10_n02690373_4851.png
subject-02,1,935,0.526079893112183,keyboard,keyboard,10,0935_lp_s02_10_keyboard_10_n03085013_3539.png
subject-02,1,936,0.916818141937256,cat,dog,5,0936_lp_s02_5_dog_10_n02105251_8416.png
subject-02,1,937,0.601099967956543,dog,dog,3,0937_lp_s02_3_dog_10_n02092339_7551.png
subject-02,1,938,0.586093902587891,boat,boat,5,0938_lp_s02_5_boat_10_n03344393_994.png
subject-02,1,939,0.789711952209473,airplane,bicycle,7,0939_lp_s02_7_bicycle_10_n03792782_4068.png
subject-02,1,940,0.758400917053223,car,truck,7,0940_lp_s02_7_truck_10_n03417042_5748.png
subject-02,1,941,0.421332120895386,boat,boat,3,0941_lp_s02_3_boat_10_n04273569_2942.png
subject-02,1,942,0.619787931442261,bicycle,bicycle,5,0942_lp_s02_5_bicycle_10_n02835271_25149.png
subject-02,1,943,0.810674905776978,bird,bird,15,0943_lp_s02_15_bird_10_n01843065_6246.png
subject-02,1,944,0.594702005386353,boat,boat,5,0944_lp_s02_5_boat_10_n03344393_13584.png
subject-02,1,945,0.831179857254028,oven,chair,10,0945_lp_s02_10_chair_10_n03376595_2419.png
subject-02,1,946,0.812467813491821,car,truck,7,0946_lp_s02_7_truck_10_n03796401_40.png
subject-02,1,947,0.540493965148926,cat,cat,5,0947_lp_s02_5_cat_10_n02123394_5819.png
subject-02,1,948,0.617753982543945,truck,truck,1,0948_lp_s02_1_truck_10_n03796401_13591.png
subject-02,1,949,0.769723176956177,airplane,bear,7,0949_lp_s02_7_bear_10_n02133161_4864.png
subject-02,1,950,0.615020990371704,cat,chair,7,0950_lp_s02_7_chair_10_n03376595_1861.png
subject-02,1,951,0.553941965103149,chair,knife,7,0951_lp_s02_7_knife_10_n03041632_31363.png
subject-02,1,952,0.860215902328491,bird,cat,40,0952_lp_s02_40_cat_10_n02124075_14132.png
subject-02,1,953,0.612090110778809,bird,bird,0,0953_lp_s02_0_bird_10_n02006656_9815.png
subject-02,1,954,NaN,na,bird,5,0954_lp_s02_5_bird_10_n01843065_9844.png
subject-02,1,955,0.633794069290161,car,car,3,0955_lp_s02_3_car_10_n04285008_6899.png
subject-02,1,956,0.855309963226318,dog,dog,0,0956_lp_s02_0_dog_10_n02106030_11415.png
subject-02,1,957,0.78390908241272,bicycle,bicycle,10,0957_lp_s02_10_bicycle_10_n03792782_51149.png
subject-02,1,958,0.530400991439819,clock,clock,1,0958_lp_s02_1_clock_10_n04548280_9473.png
subject-02,1,959,0.621569871902466,car,car,10,0959_lp_s02_10_car_10_n02814533_13601.png
subject-02,1,960,0.467927932739258,clock,clock,3,0960_lp_s02_3_clock_10_n02708093_3262.png
subject-02,1,961,0.558593988418579,truck,truck,0,0961_lp_s02_0_truck_10_n03796401_19058.png
subject-02,1,962,0.550795078277588,chair,chair,1,0962_lp_s02_1_chair_10_n04429376_5159.png
subject-02,1,963,0.51128101348877,dog,dog,3,0963_lp_s02_3_dog_10_n02106030_5627.png
subject-02,1,964,0.409685134887695,boat,boat,0,0964_lp_s02_0_boat_10_n02951358_31813.png
subject-02,1,965,1.04574584960938,truck,bottle,10,0965_lp_s02_10_bottle_10_n03983396_76.png
subject-02,1,966,0.876330137252808,oven,keyboard,5,0966_lp_s02_5_keyboard_10_n03085013_20675.png
subject-02,1,967,0.98902416229248,bird,bicycle,15,0967_lp_s02_15_bicycle_10_n03792782_2809.png
subject-02,1,968,0.803056001663208,bird,bird,5,0968_lp_s02_5_bird_10_n01530575_7926.png
subject-02,1,969,0.909487009048462,dog,cat,10,0969_lp_s02_10_cat_10_n02123394_2935.png
subject-02,1,970,0.869970083236694,boat,truck,1,0970_lp_s02_1_truck_10_n03417042_5843.png
subject-02,1,971,0.680606126785278,keyboard,keyboard,7,0971_lp_s02_7_keyboard_10_n04505470_4540.png
subject-02,1,972,0.528219938278198,boat,bicycle,7,0972_lp_s02_7_bicycle_10_n02835271_23845.png
subject-02,1,973,0.455839157104492,cat,cat,0,0973_lp_s02_0_cat_10_n02123394_4125.png
subject-02,1,974,0.678138971328735,elephant,airplane,40,0974_lp_s02_40_airplane_10_n02690373_9170.png
subject-02,1,975,0.709733963012695,airplane,boat,40,0975_lp_s02_40_boat_10_n02951358_1878.png
subject-02,1,976,0.670152902603149,bicycle,bicycle,0,0976_lp_s02_0_bicycle_10_n03792782_7544.png
subject-02,1,977,0.506668090820312,keyboard,keyboard,0,0977_lp_s02_0_keyboard_10_n04505470_8469.png
subject-02,1,978,0.675482034683228,bicycle,bicycle,3,0978_lp_s02_3_bicycle_10_n03792782_1124.png
subject-02,1,979,0.865149974822998,bird,keyboard,15,0979_lp_s02_15_keyboard_10_n04505470_3499.png
subject-02,1,980,0.857759952545166,bicycle,clock,15,0980_lp_s02_15_clock_10_n02708093_2242.png
subject-02,1,981,0.564894914627075,airplane,airplane,7,0981_lp_s02_7_airplane_10_n02690373_8123.png
subject-02,1,982,0.42582106590271,oven,oven,3,0982_lp_s02_3_oven_10_n04111531_10199.png
subject-02,1,983,0.685985088348389,chair,keyboard,0,0983_lp_s02_0_keyboard_10_n03085013_23201.png
subject-02,1,984,0.931008100509644,car,bottle,10,0984_lp_s02_10_bottle_10_n03983396_5817.png
subject-02,1,985,0.43645715713501,airplane,airplane,0,0985_lp_s02_0_airplane_10_n02690373_8711.png
subject-02,1,986,0.494621992111206,cat,dog,0,0986_lp_s02_0_dog_10_n02093754_5205.png
subject-02,1,987,0.587276935577393,airplane,airplane,1,0987_lp_s02_1_airplane_10_n02690373_8666.png
subject-02,1,988,0.862174034118652,keyboard,boat,7,0988_lp_s02_7_boat_10_n03344393_6458.png
subject-02,1,989,0.922685861587524,bear,bottle,10,0989_lp_s02_10_bottle_10_n04560804_332.png
subject-02,1,990,0.412625074386597,clock,clock,3,0990_lp_s02_3_clock_10_n04548280_7781.png
subject-02,1,991,0.781139850616455,chair,knife,0,0991_lp_s02_0_knife_10_n03041632_81471.png
subject-02,1,992,0.55593204498291,knife,knife,0,0992_lp_s02_0_knife_10_n03041632_44269.png
subject-02,1,993,0.656428098678589,truck,truck,3,0993_lp_s02_3_truck_10_n04467665_40002.png
subject-02,1,994,0.639385938644409,chair,chair,3,0994_lp_s02_3_chair_10_n02791124_4942.png
subject-02,1,995,0.875871896743774,bird,bird,10,0995_lp_s02_10_bird_10_n01795545_4228.png
subject-02,1,996,0.636366128921509,chair,chair,3,0996_lp_s02_3_chair_10_n04099969_2038.png
subject-02,1,997,0.512868881225586,chair,chair,1,0997_lp_s02_1_chair_10_n02791124_4549.png
subject-02,1,998,0.5869460105896,bicycle,bicycle,3,0998_lp_s02_3_bicycle_10_n03792782_64005.png
subject-02,1,999,0.907320976257324,clock,oven,40,0999_lp_s02_40_oven_10_n04111531_2342.png
subject-02,1,1000,0.428846836090088,keyboard,keyboard,1,1000_lp_s02_1_keyboard_10_n03085013_23316.png
subject-02,1,1001,0.711867094039917,truck,truck,1,1001_lp_s02_1_truck_10_n03796401_9642.png
subject-02,1,1002,0.78839111328125,elephant,elephant,0,1002_lp_s02_0_elephant_10_n02504013_701.png
subject-02,1,1003,0.519348859786987,car,car,0,1003_lp_s02_0_car_10_n02814533_19407.png
subject-02,1,1004,0.686283826828003,truck,truck,3,1004_lp_s02_3_truck_10_n04467665_21379.png
subject-02,1,1005,0.738465070724487,knife,keyboard,15,1005_lp_s02_15_keyboard_10_n03085013_19345.png
subject-02,1,1006,0.519345045089722,dog,dog,10,1006_lp_s02_10_dog_10_n02097130_9426.png
subject-02,1,1007,0.917505979537964,oven,knife,5,1007_lp_s02_5_knife_10_n03041632_206.png
subject-02,1,1008,1.01619696617126,car,bear,15,1008_lp_s02_15_bear_10_n02134084_17155.png
subject-02,1,1009,0.560686111450195,dog,cat,3,1009_lp_s02_3_cat_10_n02125311_73576.png
subject-02,1,1010,0.62889289855957,bicycle,bicycle,1,1010_lp_s02_1_bicycle_10_n02835271_17326.png
subject-02,1,1011,0.757161855697632,airplane,boat,15,1011_lp_s02_15_boat_10_n04273569_281.png
subject-02,1,1012,0.685442924499512,elephant,elephant,1,1012_lp_s02_1_elephant_10_n02504013_5899.png
subject-02,1,1013,0.822082042694092,boat,clock,40,1013_lp_s02_40_clock_10_n03196217_8999.png
subject-02,1,1014,0.55245304107666,clock,clock,1,1014_lp_s02_1_clock_10_n03196217_6312.png
subject-02,1,1015,0.789055824279785,dog,cat,7,1015_lp_s02_7_cat_10_n02125311_21963.png
subject-02,1,1016,0.60325813293457,cat,cat,7,1016_lp_s02_7_cat_10_n02123045_9725.png
subject-02,1,1017,0.525934219360352,clock,keyboard,40,1017_lp_s02_40_keyboard_10_n04505470_4549.png
subject-02,1,1018,0.761135816574097,airplane,airplane,5,1018_lp_s02_5_airplane_10_n02690373_1426.png
subject-02,1,1019,0.865599870681763,dog,dog,10,1019_lp_s02_10_dog_10_n02109961_45934.png
subject-02,1,1020,0.618123054504395,cat,cat,1,1020_lp_s02_1_cat_10_n02123394_9015.png
subject-02,1,1021,0.702226877212524,knife,knife,15,1021_lp_s02_15_knife_10_n03041632_45622.png
subject-02,1,1022,0.532830953598022,bottle,bottle,7,1022_lp_s02_7_bottle_10_n02823428_330.png
subject-02,1,1023,1.02920603752136,boat,cat,40,1023_lp_s02_40_cat_10_n02123045_13015.png
subject-02,1,1024,0.880944967269897,chair,dog,7,1024_lp_s02_7_dog_10_n02107574_5292.png
subject-02,1,1025,0.511183023452759,clock,clock,0,1025_lp_s02_0_clock_10_n03196217_4920.png
subject-02,1,1026,0.869859933853149,bird,elephant,10,1026_lp_s02_10_elephant_10_n02504013_3384.png
subject-02,1,1027,0.898283004760742,bird,bird,0,1027_lp_s02_0_bird_10_n02018795_8710.png
subject-02,1,1028,0.490249156951904,chair,chair,0,1028_lp_s02_0_chair_10_n03376595_3233.png
subject-02,1,1029,1.09707689285278,car,truck,7,1029_lp_s02_7_truck_10_n04467665_47602.png
subject-02,1,1030,0.769858121871948,bottle,cat,5,1030_lp_s02_5_cat_10_n02123394_10288.png
subject-02,1,1031,0.759779930114746,boat,bear,40,1031_lp_s02_40_bear_10_n02134084_33483.png
subject-02,1,1032,0.596121072769165,oven,knife,5,1032_lp_s02_5_knife_10_n03041632_32197.png
subject-02,1,1033,0.524211883544922,chair,chair,7,1033_lp_s02_7_chair_10_n04099969_17424.png
subject-02,1,1034,0.570449113845825,knife,knife,0,1034_lp_s02_0_knife_10_n03041632_11816.png
subject-02,1,1035,0.606423139572144,clock,clock,7,1035_lp_s02_7_clock_10_n04548280_6811.png
subject-02,1,1036,0.53503680229187,bird,bear,10,1036_lp_s02_10_bear_10_n02133161_11422.png
subject-02,1,1037,0.764930009841919,truck,truck,7,1037_lp_s02_7_truck_10_n03796401_10766.png
subject-02,1,1038,0.814825057983398,cat,chair,10,1038_lp_s02_10_chair_10_n02791124_4294.png
subject-02,1,1039,0.658621788024902,airplane,airplane,10,1039_lp_s02_10_airplane_10_n02690373_4641.png
subject-02,1,1040,0.895486116409302,bear,cat,40,1040_lp_s02_40_cat_10_n02123597_12157.png
subject-02,1,1041,0.508591890335083,oven,clock,40,1041_lp_s02_40_clock_10_n03196217_6217.png
subject-02,1,1042,1.00684809684753,chair,chair,10,1042_lp_s02_10_chair_10_n04099969_16273.png
subject-02,1,1043,0.951208114624023,bear,bear,7,1043_lp_s02_7_bear_10_n02132136_14595.png
subject-02,1,1044,0.903555870056152,bottle,bottle,10,1044_lp_s02_10_bottle_10_n03937543_1927.png
subject-02,1,1045,0.994536161422729,elephant,bear,5,1045_lp_s02_5_bear_10_n02134084_9722.png
subject-02,1,1046,0.654974937438965,bicycle,bicycle,5,1046_lp_s02_5_bicycle_10_n02835271_4003.png
subject-02,1,1047,0.777895927429199,bottle,bottle,3,1047_lp_s02_3_bottle_10_n03983396_18628.png
subject-02,1,1048,1.21424198150635,car,bicycle,7,1048_lp_s02_7_bicycle_10_n03792782_4923.png
subject-02,1,1049,0.651077032089233,keyboard,keyboard,15,1049_lp_s02_15_keyboard_10_n03085013_6644.png
subject-02,1,1050,1.0274670124054,truck,bicycle,15,1050_lp_s02_15_bicycle_10_n02835271_4654.png
subject-02,1,1051,0.733337879180908,oven,oven,1,1051_lp_s02_1_oven_10_n04111531_8309.png
subject-02,1,1052,0.59084415435791,bicycle,dog,40,1052_lp_s02_40_dog_10_n02109525_5682.png
subject-02,1,1053,0.552073001861572,keyboard,keyboard,1,1053_lp_s02_1_keyboard_10_n03085013_3264.png
subject-02,1,1054,0.704705953598022,elephant,elephant,3,1054_lp_s02_3_elephant_10_n02504013_3564.png
subject-02,1,1055,0.634757041931152,knife,knife,7,1055_lp_s02_7_knife_10_n03041632_20194.png
subject-02,1,1056,1.06724095344543,bottle,keyboard,40,1056_lp_s02_40_keyboard_10_n04505470_4202.png
subject-02,1,1057,1.25677013397217,knife,airplane,40,1057_lp_s02_40_airplane_10_n02690373_8846.png
subject-02,1,1058,0.563452005386353,boat,boat,3,1058_lp_s02_3_boat_10_n04612504_186.png
subject-02,1,1059,0.502239942550659,airplane,airplane,5,1059_lp_s02_5_airplane_10_n02690373_8175.png
subject-02,1,1060,0.668503999710083,bird,oven,40,1060_lp_s02_40_oven_10_n04111531_2186.png
subject-02,1,1061,0.436943054199219,airplane,airplane,10,1061_lp_s02_10_airplane_10_n02690373_6468.png
subject-02,1,1062,0.94127893447876,bear,bear,0,1062_lp_s02_0_bear_10_n02132136_10920.png
subject-02,1,1063,0.826159954071045,chair,keyboard,3,1063_lp_s02_3_keyboard_10_n03085013_4012.png
subject-02,1,1064,0.494334936141968,car,car,0,1064_lp_s02_0_car_10_n04285008_8612.png
subject-02,1,1065,0.907505035400391,car,car,10,1065_lp_s02_10_car_10_n04285008_4834.png
subject-02,1,1066,0.715757846832275,airplane,airplane,1,1066_lp_s02_1_airplane_10_n02690373_464.png
subject-02,1,1067,0.706062078475952,keyboard,bird,40,1067_lp_s02_40_bird_10_n01582220_11384.png
subject-02,1,1068,0.501722097396851,bear,bear,1,1068_lp_s02_1_bear_10_n02134084_143.png
subject-02,1,1069,0.548440933227539,clock,clock,5,1069_lp_s02_5_clock_10_n03196217_1387.png
subject-02,1,1070,0.527262926101685,oven,dog,15,1070_lp_s02_15_dog_10_n02110806_10420.png
subject-02,1,1071,0.441737174987793,cat,knife,7,1071_lp_s02_7_knife_10_n03041632_99799.png
subject-02,1,1072,0.532155990600586,bicycle,bicycle,3,1072_lp_s02_3_bicycle_10_n02835271_20907.png
subject-02,1,1073,0.49268102645874,truck,truck,1,1073_lp_s02_1_truck_10_n03417042_4790.png
subject-02,1,1074,0.845010042190552,oven,boat,7,1074_lp_s02_7_boat_10_n04273569_7291.png
subject-02,1,1075,0.567318916320801,knife,keyboard,10,1075_lp_s02_10_keyboard_10_n04505470_9952.png
subject-02,1,1076,0.879405975341797,dog,bicycle,15,1076_lp_s02_15_bicycle_10_n03792782_12442.png
subject-02,1,1077,0.432075977325439,boat,boat,0,1077_lp_s02_0_boat_10_n03344393_7843.png
subject-02,1,1078,0.763311862945557,chair,knife,15,1078_lp_s02_15_knife_10_n03041632_2483.png
subject-02,1,1079,0.699664831161499,airplane,airplane,3,1079_lp_s02_3_airplane_10_n02690373_748.png
subject-02,1,1080,0.836119174957275,chair,chair,1,1080_lp_s02_1_chair_10_n04099969_24464.png
subject-02,1,1081,0.574987888336182,clock,clock,0,1081_lp_s02_0_clock_10_n03196217_7816.png
subject-02,1,1082,1.09048795700073,cat,dog,5,1082_lp_s02_5_dog_10_n02101388_20873.png
subject-02,1,1083,1.08872294425964,bear,bear,7,1083_lp_s02_7_bear_10_n02134084_8870.png
subject-02,1,1084,1.06593704223633,bear,truck,15,1084_lp_s02_15_truck_10_n04467665_28135.png
subject-02,1,1085,0.794404029846191,keyboard,keyboard,10,1085_lp_s02_10_keyboard_10_n04505470_10870.png
subject-02,1,1086,0.77911901473999,boat,car,5,1086_lp_s02_5_car_10_n02814533_94244.png
subject-02,1,1087,0.484933137893677,keyboard,chair,15,1087_lp_s02_15_chair_10_n04099969_1652.png
