subj,session,trial,rt,object_response,category,condition,imagename
subject-02,1,1,0.989022970199585,boat,dog,270,0001_rot_s02_270_dog_20_n02106550_669.png
subject-02,1,2,0.64903998374939,airplane,airplane,270,0002_rot_s02_270_airplane_20_n02690373_5845.png
subject-02,1,3,0.579182147979736,truck,truck,0,0003_rot_s02_0_truck_20_n03417042_6317.png
subject-02,1,4,0.694591045379639,elephant,elephant,180,0004_rot_s02_180_elephant_20_n02504013_3719.png
subject-02,1,5,0.732828855514526,dog,dog,90,0005_rot_s02_90_dog_20_n02111500_6948.png
subject-02,1,6,0.516868114471436,bottle,bottle,90,0006_rot_s02_90_bottle_20_n04591713_3842.png
subject-02,1,7,0.530661106109619,oven,oven,270,0007_rot_s02_270_oven_20_n04111531_1938.png
subject-02,1,8,0.523782014846802,keyboard,keyboard,0,0008_rot_s02_0_keyboard_20_n03085013_22665.png
subject-02,1,9,0.723721981048584,bicycle,bicycle,90,0009_rot_s02_90_bicycle_20_n03792782_7764.png
subject-02,1,10,0.600549221038818,dog,dog,270,0010_rot_s02_270_dog_20_n02094433_1476.png
subject-02,1,11,0.762450933456421,bottle,bottle,90,0011_rot_s02_90_bottle_20_n04557648_5408.png
subject-02,1,12,0.868714094161987,boat,boat,90,0012_rot_s02_90_boat_20_n04273569_1636.png
subject-02,1,13,0.501314163208008,chair,chair,270,0013_rot_s02_270_chair_20_n04429376_2693.png
subject-02,1,14,0.653653144836426,chair,oven,90,0014_rot_s02_90_oven_20_n04111531_2054.png
subject-02,1,15,0.716207981109619,elephant,elephant,180,0015_rot_s02_180_elephant_20_n02504458_3777.png
subject-02,1,16,0.616403102874756,dog,dog,270,0016_rot_s02_270_dog_20_n02100583_19904.png
subject-02,1,17,0.584328889846802,keyboard,keyboard,90,0017_rot_s02_90_keyboard_20_n03085013_23658.png
subject-02,1,18,0.839523077011108,truck,truck,90,0018_rot_s02_90_truck_20_n03796401_8117.png
subject-02,1,19,1.16962313652039,bird,dog,270,0019_rot_s02_270_dog_20_n02088364_4537.png
subject-02,1,20,0.607454061508179,chair,truck,180,0020_rot_s02_180_truck_20_n03796401_6737.png
subject-02,1,21,0.608244895935059,airplane,airplane,270,0021_rot_s02_270_airplane_20_n02690373_4818.png
subject-02,1,22,0.475423097610474,bottle,bottle,90,0022_rot_s02_90_bottle_20_n02823428_12322.png
subject-02,1,23,0.689160823822021,keyboard,keyboard,90,0023_rot_s02_90_keyboard_20_n03085013_8714.png
subject-02,1,24,0.611831903457642,oven,boat,270,0024_rot_s02_270_boat_20_n02951358_12312.png
subject-02,1,25,0.827802181243896,bird,bird,270,0025_rot_s02_270_bird_20_n01558993_7147.png
subject-02,1,26,0.704099893569946,bear,bear,180,0026_rot_s02_180_bear_20_n02133161_9600.png
subject-02,1,27,0.504962921142578,car,boat,180,0027_rot_s02_180_boat_20_n03344393_2487.png
subject-02,1,28,0.704694032669067,boat,airplane,180,0028_rot_s02_180_airplane_20_n02690373_2874.png
subject-02,1,29,0.643655061721802,elephant,elephant,0,0029_rot_s02_0_elephant_20_n02504458_11216.png
subject-02,1,30,0.665982007980347,elephant,elephant,90,0030_rot_s02_90_elephant_20_n02504013_24680.png
subject-02,1,31,0.766552925109863,car,truck,270,0031_rot_s02_270_truck_20_n03796401_5227.png
subject-02,1,32,0.597370862960815,airplane,airplane,270,0032_rot_s02_270_airplane_20_n02690373_6845.png
subject-02,1,33,0.773308038711548,bird,bird,270,0033_rot_s02_270_bird_20_n01819313_6276.png
subject-02,1,34,0.68969202041626,cat,elephant,270,0034_rot_s02_270_elephant_20_n02504458_5816.png
subject-02,1,35,0.506025075912476,boat,boat,90,0035_rot_s02_90_boat_20_n03662601_4343.png
subject-02,1,36,0.688663959503174,bottle,bottle,0,0036_rot_s02_0_bottle_20_n03983396_9347.png
subject-02,1,37,0.605164051055908,bottle,bottle,270,0037_rot_s02_270_bottle_20_n02823428_347.png
subject-02,1,38,0.576303005218506,bird,bird,0,0038_rot_s02_0_bird_20_n01843383_1215.png
subject-02,1,39,0.906460046768188,oven,oven,90,0039_rot_s02_90_oven_20_n04111531_3611.png
subject-02,1,40,0.469457864761353,keyboard,keyboard,90,0040_rot_s02_90_keyboard_20_n04505470_3022.png
subject-02,1,41,0.567641973495483,dog,dog,180,0041_rot_s02_180_dog_20_n02097047_3544.png
subject-02,1,42,0.826776027679443,bear,bear,270,0042_rot_s02_270_bear_20_n02132136_6529.png
subject-02,1,43,0.711545944213867,truck,truck,0,0043_rot_s02_0_truck_20_n03796401_7778.png
subject-02,1,44,0.694559097290039,keyboard,bottle,180,0044_rot_s02_180_bottle_20_n03937543_7894.png
subject-02,1,45,0.474095821380615,car,car,0,0045_rot_s02_0_car_20_n02814533_33637.png
subject-02,1,46,0.479696035385132,elephant,elephant,0,0046_rot_s02_0_elephant_20_n02504013_5235.png
subject-02,1,47,0.818098068237305,truck,truck,180,0047_rot_s02_180_truck_20_n03796401_10208.png
subject-02,1,48,0.856761932373047,truck,truck,90,0048_rot_s02_90_truck_20_n04467665_21912.png
subject-02,1,49,0.680775165557861,dog,dog,90,0049_rot_s02_90_dog_20_n02109525_10545.png
subject-02,1,50,0.749880075454712,dog,dog,0,0050_rot_s02_0_dog_20_n02093256_12851.png
subject-02,1,51,0.596021890640259,bottle,oven,180,0051_rot_s02_180_oven_20_n04111531_7355.png
subject-02,1,52,0.718863010406494,elephant,elephant,180,0052_rot_s02_180_elephant_20_n02504013_11156.png
subject-02,1,53,0.518570899963379,elephant,elephant,90,0053_rot_s02_90_elephant_20_n02504458_2539.png
subject-02,1,54,0.603784084320068,elephant,elephant,0,0054_rot_s02_0_elephant_20_n02504013_8562.png
subject-02,1,55,0.741827011108398,bear,bear,180,0055_rot_s02_180_bear_20_n02134084_14926.png
subject-02,1,56,0.642572164535522,boat,boat,90,0056_rot_s02_90_boat_20_n03344393_9235.png
subject-02,1,57,0.580594062805176,elephant,elephant,180,0057_rot_s02_180_elephant_20_n02504013_4565.png
subject-02,1,58,0.687206029891968,keyboard,keyboard,270,0058_rot_s02_270_keyboard_20_n03085013_14643.png
subject-02,1,59,1.05715703964233,knife,dog,270,0059_rot_s02_270_dog_20_n02094258_2914.png
subject-02,1,60,0.56318998336792,bear,bear,0,0060_rot_s02_0_bear_20_n02132136_32950.png
subject-02,1,61,0.518181085586548,chair,chair,270,0061_rot_s02_270_chair_20_n04099969_39368.png
subject-02,1,62,0.771989107131958,truck,truck,270,0062_rot_s02_270_truck_20_n03796401_6841.png
subject-02,1,63,0.687068939208984,bottle,bird,0,0063_rot_s02_0_bird_20_n02056570_9628.png
subject-02,1,64,0.787075996398926,oven,oven,270,0064_rot_s02_270_oven_20_n04111531_1073.png
subject-02,1,65,0.847614049911499,airplane,airplane,0,0065_rot_s02_0_airplane_20_n02690373_7676.png
subject-02,1,66,0.626893997192383,bird,bird,180,0066_rot_s02_180_bird_20_n02009912_1919.png
subject-02,1,67,0.610841035842896,cat,dog,90,0067_rot_s02_90_dog_20_n02091244_11932.png
subject-02,1,68,0.487113952636719,boat,boat,0,0068_rot_s02_0_boat_20_n02951358_8194.png
subject-02,1,69,0.846829891204834,dog,dog,180,0069_rot_s02_180_dog_20_n02092339_2802.png
subject-02,1,70,0.655318975448608,cat,cat,180,0070_rot_s02_180_cat_20_n02123597_11289.png
subject-02,1,71,0.900133848190308,bottle,knife,180,0071_rot_s02_180_knife_20_n03041632_42526.png
subject-02,1,72,0.694329977035522,knife,knife,0,0072_rot_s02_0_knife_20_n03041632_29680.png
subject-02,1,73,0.571403980255127,chair,chair,0,0073_rot_s02_0_chair_20_n04099969_25664.png
subject-02,1,74,0.955717086791992,bottle,bottle,90,0074_rot_s02_90_bottle_20_n04560804_14092.png
subject-02,1,75,0.886173963546753,elephant,elephant,270,0075_rot_s02_270_elephant_20_n02504013_4531.png
subject-02,1,76,0.754641056060791,car,car,180,0076_rot_s02_180_car_20_n03100240_7836.png
subject-02,1,77,0.553629875183105,car,car,270,0077_rot_s02_270_car_20_n02814533_49890.png
subject-02,1,78,0.454800844192505,dog,dog,0,0078_rot_s02_0_dog_20_n02106166_1867.png
subject-02,1,79,0.644852876663208,elephant,elephant,0,0079_rot_s02_0_elephant_20_n02504013_6862.png
subject-02,1,80,0.669478893280029,chair,chair,0,0080_rot_s02_0_chair_20_n04099969_248.png
subject-02,1,81,0.415310144424438,airplane,airplane,0,0081_rot_s02_0_airplane_20_n02690373_10006.png
subject-02,1,82,0.746680021286011,knife,knife,180,0082_rot_s02_180_knife_20_n03041632_11285.png
subject-02,1,83,0.662946224212646,truck,truck,180,0083_rot_s02_180_truck_20_n04467665_45202.png
subject-02,1,84,0.601797103881836,oven,oven,270,0084_rot_s02_270_oven_20_n04111531_3098.png
subject-02,1,85,0.677801847457886,car,car,180,0085_rot_s02_180_car_20_n03100240_2742.png
subject-02,1,86,0.632982015609741,bicycle,bicycle,270,0086_rot_s02_270_bicycle_20_n02835271_7737.png
subject-02,1,87,0.441622018814087,keyboard,keyboard,180,0087_rot_s02_180_keyboard_20_n03085013_15249.png
subject-02,1,88,0.533627986907959,keyboard,keyboard,270,0088_rot_s02_270_keyboard_20_n04505470_7728.png
subject-02,1,89,0.98630690574646,chair,oven,270,0089_rot_s02_270_oven_20_n04111531_13590.png
subject-02,1,90,0.588522911071777,clock,clock,270,0090_rot_s02_270_clock_20_n03196217_8217.png
subject-02,1,91,0.541596174240112,keyboard,keyboard,90,0091_rot_s02_90_keyboard_20_n03085013_10056.png
subject-02,1,92,0.603792905807495,keyboard,keyboard,270,0092_rot_s02_270_keyboard_20_n04505470_4016.png
subject-02,1,93,0.858163118362427,chair,clock,270,0093_rot_s02_270_clock_20_n04548280_4561.png
subject-02,1,94,0.750555038452148,bird,bird,90,0094_rot_s02_90_bird_20_n02051845_7297.png
subject-02,1,95,0.797193050384521,car,car,0,0095_rot_s02_0_car_20_n02814533_85971.png
subject-02,1,96,0.981226921081543,keyboard,oven,0,0096_rot_s02_0_oven_20_n04111531_5897.png
subject-02,1,97,0.497987031936646,airplane,airplane,90,0097_rot_s02_90_airplane_20_n02690373_2800.png
subject-02,1,98,0.858634948730469,cat,knife,180,0098_rot_s02_180_knife_20_n03041632_96345.png
subject-02,1,99,0.683121204376221,cat,cat,90,0099_rot_s02_90_cat_20_n02125311_26295.png
subject-02,1,100,0.58357310295105,oven,oven,270,0100_rot_s02_270_oven_20_n04111531_21120.png
subject-02,1,101,0.544456005096436,airplane,airplane,180,0101_rot_s02_180_airplane_20_n02690373_919.png
subject-02,1,102,0.76088809967041,knife,knife,270,0102_rot_s02_270_knife_20_n03041632_13194.png
subject-02,1,103,0.783998966217041,dog,dog,0,0103_rot_s02_0_dog_20_n02105855_13663.png
subject-02,1,104,0.421473026275635,clock,clock,180,0104_rot_s02_180_clock_20_n03196217_6824.png
subject-02,1,105,0.71484899520874,knife,knife,90,0105_rot_s02_90_knife_20_n03041632_84048.png
subject-02,1,106,0.560920000076294,dog,dog,90,0106_rot_s02_90_dog_20_n02085936_6632.png
subject-02,1,107,0.507284879684448,keyboard,keyboard,270,0107_rot_s02_270_keyboard_20_n03085013_18968.png
subject-02,1,108,0.46174693107605,chair,chair,0,0108_rot_s02_0_chair_20_n04099969_13530.png
subject-02,1,109,0.587140083312988,dog,dog,180,0109_rot_s02_180_dog_20_n02111277_13723.png
subject-02,1,110,0.785367012023926,boat,bear,0,0110_rot_s02_0_bear_20_n02132136_25897.png
subject-02,1,111,0.580018997192383,bird,bird,180,0111_rot_s02_180_bird_20_n01614925_30374.png
subject-02,1,112,0.557054996490479,chair,chair,90,0112_rot_s02_90_chair_20_n03376595_157.png
subject-02,1,113,0.841120004653931,cat,bicycle,270,0113_rot_s02_270_bicycle_20_n03792782_634.png
subject-02,1,114,0.742159843444824,truck,truck,270,0114_rot_s02_270_truck_20_n03796401_3910.png
subject-02,1,115,0.420709848403931,oven,oven,180,0115_rot_s02_180_oven_20_n04111531_986.png
subject-02,1,116,0.696782827377319,chair,chair,270,0116_rot_s02_270_chair_20_n02791124_3109.png
subject-02,1,117,0.667525053024292,bicycle,bicycle,90,0117_rot_s02_90_bicycle_20_n03792782_71025.png
subject-02,1,118,0.627784967422485,clock,clock,0,0118_rot_s02_0_clock_20_n03196217_8401.png
subject-02,1,119,0.449799060821533,bird,bird,0,0119_rot_s02_0_bird_20_n01828970_6847.png
subject-02,1,120,0.696144104003906,bicycle,bicycle,180,0120_rot_s02_180_bicycle_20_n02835271_5742.png
subject-02,1,121,0.480485916137695,dog,dog,270,0121_rot_s02_270_dog_20_n02088364_6991.png
subject-02,1,122,0.489058017730713,clock,clock,180,0122_rot_s02_180_clock_20_n03196217_7467.png
subject-02,1,123,0.427908182144165,boat,boat,0,0123_rot_s02_0_boat_20_n03662601_6013.png
subject-02,1,124,0.743857860565186,bear,bear,180,0124_rot_s02_180_bear_20_n02132136_31284.png
subject-02,1,125,0.698652029037476,dog,bear,90,0125_rot_s02_90_bear_20_n02133161_897.png
subject-02,1,126,0.591053009033203,clock,clock,180,0126_rot_s02_180_clock_20_n04548280_4635.png
subject-02,1,127,0.391433000564575,cat,cat,270,0127_rot_s02_270_cat_20_n02123159_7967.png
subject-02,1,128,0.575784921646118,bicycle,bicycle,180,0128_rot_s02_180_bicycle_20_n03792782_9786.png
subject-02,1,129,0.713486909866333,keyboard,keyboard,90,0129_rot_s02_90_keyboard_20_n04505470_4358.png
subject-02,1,130,0.61965799331665,elephant,elephant,90,0130_rot_s02_90_elephant_20_n02504458_611.png
subject-02,1,131,0.758234024047852,knife,knife,0,0131_rot_s02_0_knife_20_n03041632_14916.png
subject-02,1,132,0.658437967300415,car,car,90,0132_rot_s02_90_car_20_n03100240_17202.png
subject-02,1,133,0.52910590171814,oven,bottle,180,0133_rot_s02_180_bottle_20_n02823428_11241.png
subject-02,1,134,0.643807172775269,bird,bird,180,0134_rot_s02_180_bird_20_n01560419_5202.png
subject-02,1,135,0.882591009140015,oven,chair,180,0135_rot_s02_180_chair_20_n04429376_1058.png
subject-02,1,136,0.445257186889648,bottle,bottle,90,0136_rot_s02_90_bottle_20_n02823428_5972.png
subject-02,1,137,0.537350177764893,knife,dog,180,0137_rot_s02_180_dog_20_n02113624_4395.png
subject-02,1,138,0.483614206314087,boat,boat,180,0138_rot_s02_180_boat_20_n04612504_28474.png
subject-02,1,139,0.876255989074707,bicycle,bicycle,90,0139_rot_s02_90_bicycle_20_n02835271_30651.png
subject-02,1,140,0.660266876220703,truck,truck,180,0140_rot_s02_180_truck_20_n04467665_10122.png
subject-02,1,141,NaN,na,dog,0,0141_rot_s02_0_dog_20_n02100583_4320.png
subject-02,1,142,0.628897905349731,dog,dog,180,0142_rot_s02_180_dog_20_n02091467_7224.png
subject-02,1,143,0.475382089614868,bicycle,bicycle,0,0143_rot_s02_0_bicycle_20_n02835271_8857.png
subject-02,1,144,0.475914001464844,keyboard,keyboard,180,0144_rot_s02_180_keyboard_20_n03085013_19054.png
subject-02,1,145,0.584609031677246,chair,chair,90,0145_rot_s02_90_chair_20_n03376595_3449.png
subject-02,1,146,0.536470890045166,bottle,bottle,180,0146_rot_s02_180_bottle_20_n02823428_2774.png
subject-02,1,147,0.790623903274536,car,boat,180,0147_rot_s02_180_boat_20_n04273569_18096.png
subject-02,1,148,0.745001077651978,chair,chair,180,0148_rot_s02_180_chair_20_n04429376_19616.png
subject-02,1,149,0.637544870376587,bear,bear,270,0149_rot_s02_270_bear_20_n02134418_460.png
subject-02,1,150,0.714617013931274,car,car,0,0150_rot_s02_0_car_20_n02814533_19025.png
subject-02,1,151,0.885349035263062,chair,bottle,90,0151_rot_s02_90_bottle_20_n02823428_4159.png
subject-02,1,152,0.775001049041748,dog,dog,0,0152_rot_s02_0_dog_20_n02102973_5758.png
subject-02,1,153,0.545263051986694,car,car,180,0153_rot_s02_180_car_20_n03100240_16435.png
subject-02,1,154,0.591234922409058,cat,cat,0,0154_rot_s02_0_cat_20_n02123159_6005.png
subject-02,1,155,0.697957992553711,bicycle,bicycle,90,0155_rot_s02_90_bicycle_20_n03792782_22908.png
subject-02,1,156,0.522340059280396,car,car,270,0156_rot_s02_270_car_20_n03100240_11977.png
subject-02,1,157,0.461493968963623,truck,truck,0,0157_rot_s02_0_truck_20_n04467665_52898.png
subject-02,1,158,0.740149021148682,bird,bird,270,0158_rot_s02_270_bird_20_n01582220_2072.png
subject-02,1,159,0.578522920608521,oven,knife,180,0159_rot_s02_180_knife_20_n03041632_22190.png
subject-02,1,160,0.592745065689087,chair,chair,270,0160_rot_s02_270_chair_20_n03376595_6973.png
subject-02,1,161,0.547756195068359,airplane,airplane,180,0161_rot_s02_180_airplane_20_n02690373_3753.png
subject-02,1,162,0.486187934875488,keyboard,keyboard,90,0162_rot_s02_90_keyboard_20_n04505470_3937.png
subject-02,1,163,0.578704118728638,cat,bear,270,0163_rot_s02_270_bear_20_n02133161_3544.png
subject-02,1,164,0.532901048660278,oven,oven,90,0164_rot_s02_90_oven_20_n04111531_3575.png
subject-02,1,165,1.07118010520935,car,car,270,0165_rot_s02_270_car_20_n02814533_37181.png
subject-02,1,166,0.593762874603271,bottle,bottle,180,0166_rot_s02_180_bottle_20_n04557648_5468.png
subject-02,1,167,0.463935136795044,cat,cat,0,0167_rot_s02_0_cat_20_n02123394_2179.png
subject-02,1,168,0.410255908966064,clock,clock,270,0168_rot_s02_270_clock_20_n03196217_1244.png
subject-02,1,169,0.778708934783936,bicycle,elephant,90,0169_rot_s02_90_elephant_20_n02504458_4809.png
subject-02,1,170,0.971113920211792,car,car,180,0170_rot_s02_180_car_20_n02814533_74394.png
subject-02,1,171,0.518075942993164,oven,oven,270,0171_rot_s02_270_oven_20_n04111531_14568.png
subject-02,1,172,0.59405517578125,bottle,bottle,180,0172_rot_s02_180_bottle_20_n03983396_4074.png
subject-02,1,173,0.757275819778442,airplane,airplane,270,0173_rot_s02_270_airplane_20_n02690373_10188.png
subject-02,1,174,0.579619884490967,bear,bear,90,0174_rot_s02_90_bear_20_n02133161_8679.png
subject-02,1,175,0.557265996932983,elephant,elephant,0,0175_rot_s02_0_elephant_20_n02504013_4038.png
subject-02,1,176,0.541612863540649,bottle,bottle,270,0176_rot_s02_270_bottle_20_n03937543_3619.png
subject-02,1,177,0.496901035308838,elephant,elephant,90,0177_rot_s02_90_elephant_20_n02504013_23998.png
subject-02,1,178,0.527339935302734,airplane,airplane,270,0178_rot_s02_270_airplane_20_n02690373_2648.png
subject-02,1,179,0.482326984405518,bird,bird,0,0179_rot_s02_0_bird_20_n01537544_18762.png
subject-02,1,180,0.411601066589355,clock,clock,180,0180_rot_s02_180_clock_20_n04548280_24096.png
subject-02,1,181,0.371315002441406,clock,clock,0,0181_rot_s02_0_clock_20_n02708093_7060.png
subject-02,1,182,0.548103809356689,dog,dog,270,0182_rot_s02_270_dog_20_n02089867_1230.png
subject-02,1,183,0.749078989028931,bottle,bear,90,0183_rot_s02_90_bear_20_n02134418_938.png
subject-02,1,184,0.58671498298645,bottle,bottle,0,0184_rot_s02_0_bottle_20_n02823428_141.png
subject-02,1,185,0.466027021408081,airplane,airplane,0,0185_rot_s02_0_airplane_20_n02690373_6929.png
subject-02,1,186,NaN,na,chair,180,0186_rot_s02_180_chair_20_n02791124_2833.png
subject-02,1,187,0.580856084823608,bicycle,bicycle,0,0187_rot_s02_0_bicycle_20_n03792782_6857.png
subject-02,1,188,0.481559038162231,bird,bird,270,0188_rot_s02_270_bird_20_n01514859_842.png
subject-02,1,189,0.644145011901855,dog,dog,180,0189_rot_s02_180_dog_20_n02102318_8456.png
subject-02,1,190,0.611922025680542,elephant,elephant,90,0190_rot_s02_90_elephant_20_n02504458_8644.png
subject-02,1,191,0.558933019638062,cat,cat,90,0191_rot_s02_90_cat_20_n02123159_1807.png
subject-02,1,192,0.640969038009644,cat,cat,90,0192_rot_s02_90_cat_20_n02123159_2416.png
subject-02,1,193,0.455563068389893,chair,chair,0,0193_rot_s02_0_chair_20_n02791124_4551.png
subject-02,1,194,0.510234832763672,keyboard,keyboard,180,0194_rot_s02_180_keyboard_20_n04505470_2599.png
subject-02,1,195,0.678788900375366,elephant,elephant,90,0195_rot_s02_90_elephant_20_n02504013_5390.png
subject-02,1,196,0.503075838088989,bird,bear,270,0196_rot_s02_270_bear_20_n02134084_16520.png
subject-02,1,197,0.633342981338501,bird,bird,180,0197_rot_s02_180_bird_20_n02037110_12537.png
subject-02,1,198,0.846649885177612,chair,chair,270,0198_rot_s02_270_chair_20_n02791124_7824.png
subject-02,1,199,0.809657096862793,boat,boat,90,0199_rot_s02_90_boat_20_n04273569_11057.png
subject-02,1,200,0.701889991760254,car,car,90,0200_rot_s02_90_car_20_n02814533_76739.png
subject-02,1,201,0.587087869644165,truck,truck,90,0201_rot_s02_90_truck_20_n03417042_9377.png
subject-02,1,202,0.419883012771606,oven,oven,0,0202_rot_s02_0_oven_20_n04111531_845.png
subject-02,1,203,0.58004093170166,car,car,180,0203_rot_s02_180_car_20_n03100240_2052.png
subject-02,1,204,0.735257863998413,bird,bird,270,0204_rot_s02_270_bird_20_n01820546_6752.png
subject-02,1,205,0.552138090133667,boat,boat,270,0205_rot_s02_270_boat_20_n03344393_3048.png
subject-02,1,206,0.406959056854248,chair,chair,180,0206_rot_s02_180_chair_20_n03376595_3456.png
subject-02,1,207,0.566362142562866,airplane,airplane,270,0207_rot_s02_270_airplane_20_n02690373_2109.png
subject-02,1,208,0.383291959762573,clock,clock,0,0208_rot_s02_0_clock_20_n04548280_2111.png
subject-02,1,209,0.828790903091431,airplane,airplane,90,0209_rot_s02_90_airplane_20_n02690373_945.png
subject-02,1,210,1.31306600570679,airplane,airplane,180,0210_rot_s02_180_airplane_20_n02690373_5662.png
subject-02,1,211,0.651596069335938,keyboard,keyboard,0,0211_rot_s02_0_keyboard_20_n03085013_19581.png
subject-02,1,212,0.54375696182251,car,car,90,0212_rot_s02_90_car_20_n03100240_3408.png
subject-02,1,213,0.536916017532349,oven,clock,90,0213_rot_s02_90_clock_20_n02708093_201.png
subject-02,1,214,0.645186901092529,cat,bottle,90,0214_rot_s02_90_bottle_20_n04560804_1557.png
subject-02,1,215,0.575879096984863,elephant,elephant,180,0215_rot_s02_180_elephant_20_n02504013_11144.png
subject-02,1,216,0.830602169036865,clock,knife,180,0216_rot_s02_180_knife_20_n03041632_18311.png
subject-02,1,217,0.6095290184021,chair,chair,90,0217_rot_s02_90_chair_20_n02791124_1325.png
subject-02,1,218,0.593608856201172,car,car,270,0218_rot_s02_270_car_20_n02814533_40773.png
subject-02,1,219,0.73146390914917,bear,bear,180,0219_rot_s02_180_bear_20_n02134418_11.png
subject-02,1,220,0.832066059112549,bottle,bottle,90,0220_rot_s02_90_bottle_20_n04591713_4768.png
subject-02,1,221,0.562794923782349,boat,boat,0,0221_rot_s02_0_boat_20_n04273569_5786.png
subject-02,1,222,0.748844146728516,clock,clock,90,0222_rot_s02_90_clock_20_n04548280_272.png
subject-02,1,223,0.533390998840332,clock,clock,90,0223_rot_s02_90_clock_20_n03196217_1168.png
subject-02,1,224,0.734106063842773,bottle,bottle,90,0224_rot_s02_90_bottle_20_n03937543_2918.png
subject-02,1,225,0.509655952453613,boat,boat,180,0225_rot_s02_180_boat_20_n04273569_18077.png
subject-02,1,226,0.41033411026001,clock,clock,180,0226_rot_s02_180_clock_20_n02708093_1665.png
subject-02,1,227,1.00861501693726,bear,elephant,180,0227_rot_s02_180_elephant_20_n02504458_6861.png
subject-02,1,228,0.795864105224609,oven,oven,90,0228_rot_s02_90_oven_20_n04111531_6508.png
subject-02,1,229,0.88563084602356,knife,knife,180,0229_rot_s02_180_knife_20_n03041632_45338.png
subject-02,1,230,0.965135097503662,truck,truck,90,0230_rot_s02_90_truck_20_n03417042_1245.png
subject-02,1,231,0.470901966094971,bird,bird,0,0231_rot_s02_0_bird_20_n01855672_29565.png
subject-02,1,232,0.671438932418823,knife,knife,90,0232_rot_s02_90_knife_20_n03041632_12949.png
subject-02,1,233,0.541469097137451,oven,oven,270,0233_rot_s02_270_oven_20_n04111531_17917.png
subject-02,1,234,0.447546005249023,chair,chair,90,0234_rot_s02_90_chair_20_n02791124_4980.png
subject-02,1,235,0.686423063278198,dog,dog,90,0235_rot_s02_90_dog_20_n02097209_7607.png
subject-02,1,236,0.726948022842407,boat,boat,0,0236_rot_s02_0_boat_20_n03344393_8482.png
subject-02,1,237,0.811470985412598,chair,chair,90,0237_rot_s02_90_chair_20_n04099969_1852.png
subject-02,1,238,0.834062099456787,bicycle,bicycle,270,0238_rot_s02_270_bicycle_20_n02835271_12926.png
subject-02,1,239,0.574766159057617,cat,cat,90,0239_rot_s02_90_cat_20_n02123159_2612.png
subject-02,1,240,0.673021078109741,dog,dog,180,0240_rot_s02_180_dog_20_n02091831_9484.png
subject-02,1,241,0.697113037109375,clock,clock,0,0241_rot_s02_0_clock_20_n02708093_4737.png
subject-02,1,242,0.719531059265137,knife,knife,90,0242_rot_s02_90_knife_20_n03041632_31932.png
subject-02,1,243,0.612366914749146,bicycle,bicycle,270,0243_rot_s02_270_bicycle_20_n02835271_13919.png
subject-02,1,244,0.452844858169556,airplane,airplane,90,0244_rot_s02_90_airplane_20_n02690373_1235.png
subject-02,1,245,0.721177101135254,chair,chair,90,0245_rot_s02_90_chair_20_n04099969_11352.png
subject-02,1,246,0.535814046859741,car,car,270,0246_rot_s02_270_car_20_n03100240_6259.png
subject-02,1,247,0.519744873046875,chair,chair,180,0247_rot_s02_180_chair_20_n04099969_54555.png
subject-02,1,248,0.536367893218994,boat,boat,0,0248_rot_s02_0_boat_20_n03344393_4763.png
subject-02,1,249,0.544264793395996,boat,boat,270,0249_rot_s02_270_boat_20_n02951358_6465.png
subject-02,1,250,0.688255071640015,bear,bear,90,0250_rot_s02_90_bear_20_n02132136_24002.png
subject-02,1,251,0.635499000549316,chair,chair,270,0251_rot_s02_270_chair_20_n02791124_6215.png
subject-02,1,252,0.849230051040649,cat,bear,270,0252_rot_s02_270_bear_20_n02132136_19995.png
subject-02,1,253,0.958181858062744,airplane,airplane,90,0253_rot_s02_90_airplane_20_n02690373_379.png
subject-02,1,254,0.741742849349976,boat,boat,270,0254_rot_s02_270_boat_20_n03344393_10013.png
subject-02,1,255,0.421284914016724,clock,clock,90,0255_rot_s02_90_clock_20_n03196217_10384.png
subject-02,1,256,0.635348081588745,truck,truck,270,0256_rot_s02_270_truck_20_n03417042_2563.png
subject-02,1,257,0.582221984863281,dog,dog,270,0257_rot_s02_270_dog_20_n02096437_8330.png
subject-02,1,258,0.661117076873779,airplane,airplane,180,0258_rot_s02_180_airplane_20_n02690373_13283.png
subject-02,1,259,0.674942970275879,keyboard,keyboard,270,0259_rot_s02_270_keyboard_20_n03085013_18891.png
subject-02,1,260,0.499064207077026,keyboard,keyboard,270,0260_rot_s02_270_keyboard_20_n03085013_20302.png
subject-02,1,261,0.429587841033936,oven,oven,0,0261_rot_s02_0_oven_20_n04111531_18949.png
subject-02,1,262,0.66002082824707,truck,truck,0,0262_rot_s02_0_truck_20_n04467665_13143.png
subject-02,1,263,0.852674961090088,boat,airplane,90,0263_rot_s02_90_airplane_20_n02690373_9175.png
subject-02,1,264,0.898614883422852,elephant,elephant,90,0264_rot_s02_90_elephant_20_n02504013_6829.png
subject-02,1,265,0.691386222839355,cat,cat,270,0265_rot_s02_270_cat_20_n02123394_8708.png
subject-02,1,266,1.17574286460876,oven,chair,90,0266_rot_s02_90_chair_20_n03376595_18370.png
subject-02,1,267,0.468977928161621,elephant,elephant,180,0267_rot_s02_180_elephant_20_n02504458_6135.png
subject-02,1,268,0.677505016326904,bicycle,bicycle,270,0268_rot_s02_270_bicycle_20_n03792782_29509.png
subject-02,1,269,0.506688117980957,dog,dog,0,0269_rot_s02_0_dog_20_n02106030_14406.png
subject-02,1,270,0.482914924621582,dog,dog,180,0270_rot_s02_180_dog_20_n02097658_551.png
subject-02,1,271,0.567721843719482,clock,clock,90,0271_rot_s02_90_clock_20_n04548280_2273.png
subject-02,1,272,0.784584045410156,airplane,boat,180,0272_rot_s02_180_boat_20_n04273569_3430.png
subject-02,1,273,0.615323066711426,clock,clock,0,0273_rot_s02_0_clock_20_n04548280_5969.png
subject-02,1,274,0.699188947677612,bottle,bottle,0,0274_rot_s02_0_bottle_20_n04579145_2092.png
subject-02,1,275,0.776070833206177,clock,clock,270,0275_rot_s02_270_clock_20_n03196217_6178.png
subject-02,1,276,0.608494997024536,truck,truck,180,0276_rot_s02_180_truck_20_n03417042_7506.png
subject-02,1,277,0.747633934020996,bicycle,bicycle,180,0277_rot_s02_180_bicycle_20_n03792782_51169.png
subject-02,1,278,0.553916931152344,car,car,0,0278_rot_s02_0_car_20_n02814533_45315.png
subject-02,1,279,0.770143032073975,clock,clock,270,0279_rot_s02_270_clock_20_n02708093_3745.png
subject-02,1,280,0.561707973480225,chair,chair,270,0280_rot_s02_270_chair_20_n03376595_3912.png
subject-02,1,281,1.22233104705811,knife,knife,90,0281_rot_s02_90_knife_20_n03041632_21818.png
subject-02,1,282,0.81519889831543,truck,truck,270,0282_rot_s02_270_truck_20_n03796401_4149.png
subject-02,1,283,0.477268218994141,car,car,270,0283_rot_s02_270_car_20_n03100240_15894.png
subject-02,1,284,0.883871078491211,cat,oven,180,0284_rot_s02_180_oven_20_n04111531_13255.png
subject-02,1,285,0.538536071777344,bird,bird,270,0285_rot_s02_270_bird_20_n01592084_73.png
subject-02,1,286,0.631436109542847,chair,chair,180,0286_rot_s02_180_chair_20_n03376595_4366.png
subject-02,1,287,0.486103057861328,cat,cat,270,0287_rot_s02_270_cat_20_n02123159_117.png
subject-02,1,288,0.7082679271698,bottle,bottle,90,0288_rot_s02_90_bottle_20_n04557648_8622.png
subject-02,1,289,1.03824687004089,truck,truck,180,0289_rot_s02_180_truck_20_n04467665_2295.png
subject-02,1,290,0.653033971786499,bird,bird,0,0290_rot_s02_0_bird_20_n02006656_4047.png
subject-02,1,291,0.66963005065918,car,car,270,0291_rot_s02_270_car_20_n04285008_9811.png
subject-02,1,292,0.59234094619751,oven,oven,90,0292_rot_s02_90_oven_20_n04111531_8750.png
subject-02,1,293,0.946342945098877,oven,boat,180,0293_rot_s02_180_boat_20_n03344393_3085.png
subject-02,1,294,0.893225908279419,knife,knife,180,0294_rot_s02_180_knife_20_n03041632_29338.png
subject-02,1,295,0.663316011428833,dog,bear,180,0295_rot_s02_180_bear_20_n02134418_5526.png
subject-02,1,296,0.807827949523926,truck,truck,180,0296_rot_s02_180_truck_20_n03796401_6631.png
subject-02,1,297,0.899500131607056,bear,elephant,90,0297_rot_s02_90_elephant_20_n02504458_2174.png
subject-02,1,298,0.424206018447876,keyboard,keyboard,0,0298_rot_s02_0_keyboard_20_n03085013_20898.png
subject-02,1,299,0.776346921920776,truck,truck,180,0299_rot_s02_180_truck_20_n04467665_56933.png
subject-02,1,300,1.26900005340576,bear,bear,270,0300_rot_s02_270_bear_20_n02134084_7670.png
subject-02,1,301,0.746062994003296,boat,boat,270,0301_rot_s02_270_boat_20_n04273569_4727.png
subject-02,1,302,0.685769081115723,truck,car,180,0302_rot_s02_180_car_20_n02814533_19287.png
subject-02,1,303,0.908317089080811,bottle,bottle,90,0303_rot_s02_90_bottle_20_n04579145_7667.png
subject-02,1,304,1.00070095062256,oven,oven,90,0304_rot_s02_90_oven_20_n04111531_3886.png
subject-02,1,305,0.798563957214355,car,car,0,0305_rot_s02_0_car_20_n02814533_7283.png
subject-02,1,306,0.590955018997192,bird,bird,90,0306_rot_s02_90_bird_20_n02002556_18482.png
subject-02,1,307,0.82068395614624,truck,truck,270,0307_rot_s02_270_truck_20_n03796401_26991.png
subject-02,1,308,0.691695928573608,bottle,chair,270,0308_rot_s02_270_chair_20_n04429376_23944.png
subject-02,1,309,0.45163106918335,keyboard,keyboard,90,0309_rot_s02_90_keyboard_20_n03085013_3318.png
subject-02,1,310,0.714472055435181,boat,boat,180,0310_rot_s02_180_boat_20_n03344393_3466.png
subject-02,1,311,0.611318111419678,keyboard,keyboard,180,0311_rot_s02_180_keyboard_20_n04505470_4780.png
subject-02,1,312,0.473861932754517,bird,bird,90,0312_rot_s02_90_bird_20_n02018795_3704.png
subject-02,1,313,1.42592000961304,airplane,airplane,180,0313_rot_s02_180_airplane_20_n02690373_2316.png
subject-02,1,314,0.595954179763794,clock,clock,90,0314_rot_s02_90_clock_20_n02708093_6148.png
subject-02,1,315,0.58095908164978,keyboard,keyboard,0,0315_rot_s02_0_keyboard_20_n03085013_7792.png
subject-02,1,316,0.435014009475708,airplane,airplane,0,0316_rot_s02_0_airplane_20_n02690373_4409.png
subject-02,1,317,0.742278814315796,dog,oven,180,0317_rot_s02_180_oven_20_n04111531_30110.png
subject-02,1,318,0.82607102394104,boat,boat,270,0318_rot_s02_270_boat_20_n04612504_25501.png
subject-02,1,319,0.712131023406982,airplane,airplane,90,0319_rot_s02_90_airplane_20_n02690373_997.png
subject-02,1,320,0.581523180007935,keyboard,keyboard,0,0320_rot_s02_0_keyboard_20_n04505470_2737.png
subject-02,1,321,0.583406925201416,bottle,bottle,0,0321_rot_s02_0_bottle_20_n04591713_717.png
subject-02,1,322,0.527312040328979,car,car,0,0322_rot_s02_0_car_20_n03100240_16571.png
subject-02,1,323,0.762212038040161,dog,dog,90,0323_rot_s02_90_dog_20_n02100236_4268.png
subject-02,1,324,0.708661079406738,dog,dog,90,0324_rot_s02_90_dog_20_n02097474_17906.png
subject-02,1,325,0.737272024154663,bear,bear,180,0325_rot_s02_180_bear_20_n02133161_12315.png
subject-02,1,326,0.835839986801147,keyboard,keyboard,180,0326_rot_s02_180_keyboard_20_n03085013_3595.png
subject-02,1,327,0.406105041503906,oven,oven,0,0327_rot_s02_0_oven_20_n04111531_5888.png
subject-02,1,328,0.653078079223633,bicycle,bicycle,90,0328_rot_s02_90_bicycle_20_n03792782_7438.png
subject-02,1,329,0.520131826400757,bird,bird,0,0329_rot_s02_0_bird_20_n01819313_16332.png
subject-02,1,330,0.805177211761475,clock,clock,270,0330_rot_s02_270_clock_20_n02708093_6624.png
subject-02,1,331,0.505178928375244,dog,dog,90,0331_rot_s02_90_dog_20_n02107142_56011.png
subject-02,1,332,0.56541109085083,bottle,bottle,90,0332_rot_s02_90_bottle_20_n02823428_8786.png
subject-02,1,333,0.635875940322876,knife,knife,90,0333_rot_s02_90_knife_20_n03041632_47410.png
subject-02,1,334,0.552400827407837,airplane,airplane,0,0334_rot_s02_0_airplane_20_n02690373_5003.png
subject-02,1,335,0.598920106887817,keyboard,keyboard,90,0335_rot_s02_90_keyboard_20_n03085013_3815.png
subject-02,1,336,0.61413311958313,truck,car,90,0336_rot_s02_90_car_20_n03100240_2331.png
subject-02,1,337,1.07669711112976,chair,bottle,90,0337_rot_s02_90_bottle_20_n03983396_2944.png
subject-02,1,338,0.592719078063965,car,car,270,0338_rot_s02_270_car_20_n04285008_14273.png
subject-02,1,339,0.691280126571655,truck,truck,180,0339_rot_s02_180_truck_20_n03417042_14717.png
subject-02,1,340,0.623650074005127,bicycle,bicycle,270,0340_rot_s02_270_bicycle_20_n03792782_2024.png
subject-02,1,341,0.737668991088867,bottle,chair,90,0341_rot_s02_90_chair_20_n04429376_14995.png
subject-02,1,342,0.562902927398682,dog,dog,90,0342_rot_s02_90_dog_20_n02092002_563.png
subject-02,1,343,0.6888108253479,car,car,270,0343_rot_s02_270_car_20_n04285008_11714.png
subject-02,1,344,0.635949850082397,truck,truck,270,0344_rot_s02_270_truck_20_n03796401_2893.png
subject-02,1,345,0.628298044204712,car,car,90,0345_rot_s02_90_car_20_n04285008_3688.png
subject-02,1,346,0.482991933822632,bird,bird,180,0346_rot_s02_180_bird_20_n02025239_18358.png
subject-02,1,347,0.621254920959473,keyboard,keyboard,0,0347_rot_s02_0_keyboard_20_n03085013_24332.png
subject-02,1,348,0.529991149902344,boat,boat,90,0348_rot_s02_90_boat_20_n03344393_5917.png
subject-02,1,349,0.476660013198853,bird,dog,180,0349_rot_s02_180_dog_20_n02107908_4926.png
subject-02,1,350,0.522969007492065,bear,cat,270,0350_rot_s02_270_cat_20_n02125311_13023.png
subject-02,1,351,0.920753955841064,knife,knife,270,0351_rot_s02_270_knife_20_n03041632_14546.png
subject-02,1,352,0.660115957260132,bottle,bottle,270,0352_rot_s02_270_bottle_20_n03983396_3182.png
subject-02,1,353,0.6304931640625,bottle,bottle,0,0353_rot_s02_0_bottle_20_n03937543_668.png
subject-02,1,354,0.706894874572754,oven,oven,270,0354_rot_s02_270_oven_20_n04111531_11530.png
subject-02,1,355,0.577215909957886,truck,truck,270,0355_rot_s02_270_truck_20_n03417042_26816.png
subject-02,1,356,0.694214820861816,airplane,airplane,270,0356_rot_s02_270_airplane_20_n02690373_4839.png
subject-02,1,357,0.479103088378906,chair,chair,90,0357_rot_s02_90_chair_20_n03376595_5970.png
subject-02,1,358,0.825224161148071,airplane,airplane,90,0358_rot_s02_90_airplane_20_n02690373_798.png
subject-02,1,359,0.518282175064087,dog,dog,0,0359_rot_s02_0_dog_20_n02107683_2083.png
subject-02,1,360,0.726447820663452,airplane,airplane,180,0360_rot_s02_180_airplane_20_n02690373_2952.png
subject-02,1,361,0.656793117523193,truck,truck,90,0361_rot_s02_90_truck_20_n03417042_1906.png
subject-02,1,362,0.681601047515869,elephant,elephant,90,0362_rot_s02_90_elephant_20_n02504013_4924.png
subject-02,1,363,0.887665987014771,elephant,elephant,0,0363_rot_s02_0_elephant_20_n02504458_7098.png
subject-02,1,364,0.542618036270142,chair,chair,90,0364_rot_s02_90_chair_20_n04099969_8640.png
subject-02,1,365,NaN,na,bicycle,0,0365_rot_s02_0_bicycle_20_n02835271_6742.png
subject-02,1,366,0.389331817626953,bicycle,bicycle,270,0366_rot_s02_270_bicycle_20_n03792782_16728.png
subject-02,1,367,0.635564088821411,truck,truck,0,0367_rot_s02_0_truck_20_n03796401_2025.png
subject-02,1,368,0.414392948150635,car,car,0,0368_rot_s02_0_car_20_n04285008_7566.png
subject-02,1,369,0.413205146789551,bear,bear,0,0369_rot_s02_0_bear_20_n02134084_14754.png
subject-02,1,370,0.867583990097046,boat,chair,180,0370_rot_s02_180_chair_20_n04099969_4162.png
subject-02,1,371,0.491461038589478,cat,cat,180,0371_rot_s02_180_cat_20_n02123159_2307.png
subject-02,1,372,0.66801905632019,elephant,elephant,90,0372_rot_s02_90_elephant_20_n02504458_7634.png
subject-02,1,373,0.866288185119629,bear,bear,90,0373_rot_s02_90_bear_20_n02132136_10324.png
subject-02,1,374,0.37467098236084,cat,cat,180,0374_rot_s02_180_cat_20_n02123394_2411.png
subject-02,1,375,0.658421039581299,knife,knife,0,0375_rot_s02_0_knife_20_n03041632_53874.png
subject-02,1,376,0.635556936264038,elephant,elephant,0,0376_rot_s02_0_elephant_20_n02504458_6841.png
subject-02,1,377,0.552195072174072,cat,cat,0,0377_rot_s02_0_cat_20_n02124075_7925.png
subject-02,1,378,0.827989816665649,airplane,boat,270,0378_rot_s02_270_boat_20_n04273569_12425.png
subject-02,1,379,0.644859075546265,bottle,bottle,0,0379_rot_s02_0_bottle_20_n03983396_9662.png
subject-02,1,380,0.545330047607422,bird,bird,180,0380_rot_s02_180_bird_20_n01537544_18389.png
subject-02,1,381,0.713804960250854,truck,truck,90,0381_rot_s02_90_truck_20_n03796401_26801.png
subject-02,1,382,0.714530944824219,knife,knife,270,0382_rot_s02_270_knife_20_n03041632_19098.png
subject-02,1,383,0.422960042953491,bottle,bottle,180,0383_rot_s02_180_bottle_20_n04591713_7158.png
subject-02,1,384,0.410309076309204,car,car,270,0384_rot_s02_270_car_20_n02814533_8568.png
subject-02,1,385,1.2160758972168,airplane,airplane,180,0385_rot_s02_180_airplane_20_n02690373_3553.png
subject-02,1,386,0.603505849838257,bottle,bottle,270,0386_rot_s02_270_bottle_20_n03983396_20058.png
subject-02,1,387,0.763535976409912,keyboard,keyboard,0,0387_rot_s02_0_keyboard_20_n04505470_3981.png
subject-02,1,388,0.556096076965332,boat,boat,270,0388_rot_s02_270_boat_20_n03344393_8140.png
subject-02,1,389,0.493676900863647,boat,boat,0,0389_rot_s02_0_boat_20_n04612504_1657.png
subject-02,1,390,0.886306047439575,bicycle,bicycle,270,0390_rot_s02_270_bicycle_20_n03792782_48449.png
subject-02,1,391,0.616468906402588,keyboard,keyboard,0,0391_rot_s02_0_keyboard_20_n04505470_1744.png
subject-02,1,392,0.900476932525635,oven,knife,180,0392_rot_s02_180_knife_20_n03041632_22480.png
subject-02,1,393,0.471127033233643,bear,bear,0,0393_rot_s02_0_bear_20_n02132136_2985.png
subject-02,1,394,0.532381057739258,bicycle,bicycle,0,0394_rot_s02_0_bicycle_20_n02835271_1338.png
subject-02,1,395,0.817137002944946,car,car,90,0395_rot_s02_90_car_20_n03100240_6201.png
subject-02,1,396,0.617042064666748,airplane,airplane,270,0396_rot_s02_270_airplane_20_n02690373_4402.png
subject-02,1,397,0.493879079818726,clock,clock,180,0397_rot_s02_180_clock_20_n04548280_8348.png
subject-02,1,398,0.68571400642395,airplane,airplane,270,0398_rot_s02_270_airplane_20_n02690373_13585.png
subject-02,1,399,1.01646685600281,chair,chair,180,0399_rot_s02_180_chair_20_n02791124_979.png
subject-02,1,400,0.578141927719116,bicycle,bicycle,270,0400_rot_s02_270_bicycle_20_n02835271_19019.png
subject-02,1,401,0.509588003158569,airplane,airplane,90,0401_rot_s02_90_airplane_20_n02690373_15097.png
subject-02,1,402,0.671638011932373,bicycle,clock,270,0402_rot_s02_270_clock_20_n02708093_7156.png
subject-02,1,403,0.432433128356934,cat,cat,270,0403_rot_s02_270_cat_20_n02123597_10301.png
subject-02,1,404,0.456976890563965,clock,clock,270,0404_rot_s02_270_clock_20_n03196217_4666.png
subject-02,1,405,0.611436128616333,car,car,0,0405_rot_s02_0_car_20_n02814533_5663.png
subject-02,1,406,0.862892866134644,bear,bear,0,0406_rot_s02_0_bear_20_n02134418_3426.png
subject-02,1,407,0.606513977050781,cat,cat,270,0407_rot_s02_270_cat_20_n02123394_8165.png
subject-02,1,408,0.552241086959839,truck,truck,180,0408_rot_s02_180_truck_20_n03417042_4016.png
subject-02,1,409,0.585057020187378,car,car,270,0409_rot_s02_270_car_20_n02814533_27818.png
subject-02,1,410,1.03777694702148,chair,clock,270,0410_rot_s02_270_clock_20_n03196217_4864.png
subject-02,1,411,0.791729927062988,keyboard,clock,90,0411_rot_s02_90_clock_20_n03196217_8604.png
subject-02,1,412,1.39079689979553,elephant,elephant,270,0412_rot_s02_270_elephant_20_n02504458_1140.png
subject-02,1,413,0.560569047927856,cat,keyboard,180,0413_rot_s02_180_keyboard_20_n03085013_15825.png
subject-02,1,414,0.829319000244141,bear,bear,270,0414_rot_s02_270_bear_20_n02133161_1866.png
subject-02,1,415,0.554029941558838,bird,bird,90,0415_rot_s02_90_bird_20_n01601694_10503.png
subject-02,1,416,0.51383900642395,cat,cat,90,0416_rot_s02_90_cat_20_n02123045_4042.png
subject-02,1,417,0.497806072235107,chair,chair,180,0417_rot_s02_180_chair_20_n04099969_20681.png
subject-02,1,418,0.530385971069336,bicycle,cat,90,0418_rot_s02_90_cat_20_n02123159_7239.png
subject-02,1,419,0.645488023757935,bicycle,dog,270,0419_rot_s02_270_dog_20_n02091831_13507.png
subject-02,1,420,0.479720115661621,keyboard,keyboard,270,0420_rot_s02_270_keyboard_20_n03085013_22033.png
subject-02,1,421,0.910572052001953,chair,clock,90,0421_rot_s02_90_clock_20_n04548280_1417.png
subject-02,1,422,0.603190898895264,dog,dog,0,0422_rot_s02_0_dog_20_n02085936_8370.png
subject-02,1,423,0.8731849193573,elephant,elephant,90,0423_rot_s02_90_elephant_20_n02504013_6431.png
subject-02,1,424,0.520384073257446,bicycle,bicycle,0,0424_rot_s02_0_bicycle_20_n03792782_20771.png
subject-02,1,425,0.872330904006958,oven,oven,0,0425_rot_s02_0_oven_20_n04111531_14903.png
subject-02,1,426,0.51880407333374,clock,clock,270,0426_rot_s02_270_clock_20_n04548280_7588.png
subject-02,1,427,0.380953073501587,boat,boat,270,0427_rot_s02_270_boat_20_n03344393_4213.png
subject-02,1,428,0.696090936660767,truck,truck,0,0428_rot_s02_0_truck_20_n03417042_17817.png
subject-02,1,429,1.05784010887146,bottle,knife,90,0429_rot_s02_90_knife_20_n03041632_36390.png
subject-02,1,430,0.672646999359131,bicycle,bicycle,90,0430_rot_s02_90_bicycle_20_n03792782_16443.png
subject-02,1,431,0.580873012542725,bird,bird,0,0431_rot_s02_0_bird_20_n01592084_8447.png
subject-02,1,432,0.773363828659058,bird,bird,180,0432_rot_s02_180_bird_20_n01614925_5757.png
subject-02,1,433,0.549633026123047,car,car,270,0433_rot_s02_270_car_20_n02814533_56420.png
subject-02,1,434,0.679899930953979,bear,bear,0,0434_rot_s02_0_bear_20_n02133161_4043.png
subject-02,1,435,0.686209917068481,bird,bird,270,0435_rot_s02_270_bird_20_n01818515_15299.png
subject-02,1,436,0.610743999481201,cat,elephant,180,0436_rot_s02_180_elephant_20_n02504013_173.png
subject-02,1,437,0.541234970092773,bottle,bottle,0,0437_rot_s02_0_bottle_20_n04557648_777.png
subject-02,1,438,0.695811986923218,bear,bird,270,0438_rot_s02_270_bird_20_n01818515_7717.png
subject-02,1,439,0.663666009902954,car,car,0,0439_rot_s02_0_car_20_n04285008_10899.png
subject-02,1,440,0.526970863342285,cat,cat,270,0440_rot_s02_270_cat_20_n02123159_4676.png
subject-02,1,441,0.403496980667114,oven,oven,180,0441_rot_s02_180_oven_20_n04111531_11781.png
subject-02,1,442,0.687597036361694,cat,dog,90,0442_rot_s02_90_dog_20_n02086079_14914.png
subject-02,1,443,0.512108087539673,bird,bird,0,0443_rot_s02_0_bird_20_n01560419_8402.png
subject-02,1,444,0.45897102355957,chair,chair,270,0444_rot_s02_270_chair_20_n04099969_5908.png
subject-02,1,445,0.543124914169312,cat,cat,90,0445_rot_s02_90_cat_20_n02124075_9706.png
subject-02,1,446,0.965440034866333,oven,bicycle,90,0446_rot_s02_90_bicycle_20_n02835271_2815.png
subject-02,1,447,0.504560947418213,car,car,180,0447_rot_s02_180_car_20_n03100240_5776.png
subject-02,1,448,0.905016899108887,airplane,airplane,270,0448_rot_s02_270_airplane_20_n02690373_5465.png
subject-02,1,449,0.597295045852661,clock,clock,0,0449_rot_s02_0_clock_20_n03196217_5258.png
subject-02,1,450,0.505795955657959,cat,cat,180,0450_rot_s02_180_cat_20_n02123045_324.png
subject-02,1,451,0.529191970825195,car,car,90,0451_rot_s02_90_car_20_n02814533_76.png
subject-02,1,452,0.521576166152954,elephant,elephant,90,0452_rot_s02_90_elephant_20_n02504458_585.png
subject-02,1,453,0.938092947006226,truck,truck,90,0453_rot_s02_90_truck_20_n04467665_40361.png
subject-02,1,454,0.539160013198853,car,car,180,0454_rot_s02_180_car_20_n04285008_8951.png
subject-02,1,455,0.615334033966064,truck,truck,270,0455_rot_s02_270_truck_20_n03796401_4827.png
subject-02,1,456,0.462341070175171,bear,bear,270,0456_rot_s02_270_bear_20_n02134418_5319.png
subject-02,1,457,0.64113712310791,oven,oven,270,0457_rot_s02_270_oven_20_n04111531_2473.png
subject-02,1,458,0.925790071487427,car,bicycle,270,0458_rot_s02_270_bicycle_20_n03792782_1116.png
subject-02,1,459,1.331946849823,keyboard,keyboard,0,0459_rot_s02_0_keyboard_20_n03085013_11332.png
subject-02,1,460,0.579150199890137,car,car,0,0460_rot_s02_0_car_20_n03100240_735.png
subject-02,1,461,0.925824165344238,dog,dog,270,0461_rot_s02_270_dog_20_n02110185_7325.png
subject-02,1,462,0.846093893051147,boat,bicycle,180,0462_rot_s02_180_bicycle_20_n03792782_7171.png
subject-02,1,463,0.576646089553833,cat,cat,270,0463_rot_s02_270_cat_20_n02125311_41798.png
subject-02,1,464,0.93873405456543,oven,airplane,180,0464_rot_s02_180_airplane_20_n02690373_3263.png
subject-02,1,465,0.519483089447021,airplane,airplane,270,0465_rot_s02_270_airplane_20_n02690373_8547.png
subject-02,1,466,0.773801803588867,cat,bear,180,0466_rot_s02_180_bear_20_n02133161_2166.png
subject-02,1,467,0.796133041381836,bird,knife,180,0467_rot_s02_180_knife_20_n03041632_5820.png
subject-02,1,468,0.643270969390869,knife,knife,270,0468_rot_s02_270_knife_20_n03041632_1661.png
subject-02,1,469,0.559648990631104,cat,cat,180,0469_rot_s02_180_cat_20_n02123394_2330.png
subject-02,1,470,0.652350902557373,keyboard,clock,0,0470_rot_s02_0_clock_20_n03196217_2628.png
subject-02,1,471,0.596161127090454,truck,truck,0,0471_rot_s02_0_truck_20_n03417042_6213.png
subject-02,1,472,0.642842054367065,car,car,90,0472_rot_s02_90_car_20_n03100240_6750.png
subject-02,1,473,0.579830169677734,bicycle,bicycle,180,0473_rot_s02_180_bicycle_20_n02835271_949.png
subject-02,1,474,0.610570907592773,bicycle,bicycle,0,0474_rot_s02_0_bicycle_20_n03792782_13077.png
subject-02,1,475,0.95688009262085,chair,bottle,180,0475_rot_s02_180_bottle_20_n04560804_2170.png
subject-02,1,476,1.50016593933105,truck,chair,180,0476_rot_s02_180_chair_20_n04429376_16272.png
subject-02,1,477,0.654560089111328,chair,chair,180,0477_rot_s02_180_chair_20_n02791124_4679.png
subject-02,1,478,0.477798938751221,keyboard,keyboard,180,0478_rot_s02_180_keyboard_20_n04505470_5266.png
subject-02,1,479,0.615355968475342,keyboard,keyboard,0,0479_rot_s02_0_keyboard_20_n04505470_4806.png
subject-02,1,480,0.777719020843506,bird,bird,90,0480_rot_s02_90_bird_20_n02018207_10803.png
subject-02,1,481,0.567505121231079,clock,clock,0,0481_rot_s02_0_clock_20_n04548280_3292.png
subject-02,1,482,0.505767107009888,dog,dog,0,0482_rot_s02_0_dog_20_n02109047_1516.png
subject-02,1,483,0.520740032196045,elephant,elephant,0,0483_rot_s02_0_elephant_20_n02504458_4962.png
subject-02,1,484,0.712985992431641,truck,truck,0,0484_rot_s02_0_truck_20_n03796401_14490.png
subject-02,1,485,0.421616077423096,cat,cat,0,0485_rot_s02_0_cat_20_n02123394_1708.png
subject-02,1,486,0.706023931503296,knife,knife,90,0486_rot_s02_90_knife_20_n03041632_12748.png
subject-02,1,487,0.620429039001465,bicycle,bicycle,90,0487_rot_s02_90_bicycle_20_n03792782_19040.png
subject-02,1,488,0.691086053848267,chair,chair,180,0488_rot_s02_180_chair_20_n02791124_424.png
subject-02,1,489,0.658964872360229,knife,knife,180,0489_rot_s02_180_knife_20_n03041632_5427.png
subject-02,1,490,0.521939992904663,bottle,bottle,0,0490_rot_s02_0_bottle_20_n03983396_4295.png
subject-02,1,491,0.472909927368164,bicycle,bicycle,90,0491_rot_s02_90_bicycle_20_n02835271_1513.png
subject-02,1,492,0.557870864868164,bear,bear,90,0492_rot_s02_90_bear_20_n02133161_11002.png
subject-02,1,493,0.449301958084106,cat,cat,90,0493_rot_s02_90_cat_20_n02123394_5622.png
subject-02,1,494,0.709728002548218,bottle,bottle,0,0494_rot_s02_0_bottle_20_n03983396_7696.png
subject-02,1,495,0.534071922302246,clock,clock,90,0495_rot_s02_90_clock_20_n04548280_4017.png
subject-02,1,496,0.488408088684082,bird,bird,90,0496_rot_s02_90_bird_20_n02011460_491.png
subject-02,1,497,0.803582906723022,bird,cat,180,0497_rot_s02_180_cat_20_n02123045_6412.png
subject-02,1,498,0.588081121444702,keyboard,keyboard,0,0498_rot_s02_0_keyboard_20_n03085013_18909.png
subject-02,1,499,0.706309080123901,car,car,0,0499_rot_s02_0_car_20_n04285008_11616.png
subject-02,1,500,0.527194023132324,oven,oven,180,0500_rot_s02_180_oven_20_n04111531_7430.png
subject-02,1,501,0.820266962051392,keyboard,keyboard,90,0501_rot_s02_90_keyboard_20_n04505470_7681.png
subject-02,1,502,0.974691152572632,bear,bear,90,0502_rot_s02_90_bear_20_n02134084_4715.png
subject-02,1,503,NaN,na,keyboard,0,0503_rot_s02_0_keyboard_20_n04505470_1040.png
subject-02,1,504,0.59787392616272,keyboard,keyboard,90,0504_rot_s02_90_keyboard_20_n03085013_24182.png
subject-02,1,505,0.822311162948608,keyboard,clock,180,0505_rot_s02_180_clock_20_n03196217_7149.png
subject-02,1,506,0.706500053405762,keyboard,keyboard,180,0506_rot_s02_180_keyboard_20_n03085013_21399.png
subject-02,1,507,0.74547004699707,clock,clock,0,0507_rot_s02_0_clock_20_n04548280_8841.png
subject-02,1,508,0.508409023284912,chair,chair,90,0508_rot_s02_90_chair_20_n04429376_21424.png
subject-02,1,509,0.462791919708252,airplane,airplane,0,0509_rot_s02_0_airplane_20_n02690373_18693.png
subject-02,1,510,0.539118051528931,keyboard,keyboard,180,0510_rot_s02_180_keyboard_20_n03085013_21025.png
subject-02,1,511,0.739724159240723,bird,bird,90,0511_rot_s02_90_bird_20_n01616318_18850.png
subject-02,1,512,0.678218841552734,bird,bird,270,0512_rot_s02_270_bird_20_n01560419_6207.png
subject-02,1,513,0.486425876617432,cat,cat,0,0513_rot_s02_0_cat_20_n02124075_14101.png
subject-02,1,514,0.516365051269531,bird,bird,180,0514_rot_s02_180_bird_20_n01614925_655.png
subject-02,1,515,0.593001842498779,chair,chair,270,0515_rot_s02_270_chair_20_n03376595_3676.png
subject-02,1,516,0.607163906097412,bicycle,bicycle,0,0516_rot_s02_0_bicycle_20_n02835271_23286.png
subject-02,1,517,0.891589879989624,bottle,bottle,90,0517_rot_s02_90_bottle_20_n04591713_5382.png
subject-02,1,518,0.50846004486084,bottle,bottle,0,0518_rot_s02_0_bottle_20_n02823428_1232.png
subject-02,1,519,0.854490041732788,knife,knife,90,0519_rot_s02_90_knife_20_n03041632_1556.png
subject-02,1,520,0.6527099609375,cat,cat,90,0520_rot_s02_90_cat_20_n02124075_6261.png
subject-02,1,521,0.630701065063477,truck,truck,0,0521_rot_s02_0_truck_20_n03417042_12019.png
subject-02,1,522,0.394479036331177,keyboard,keyboard,0,0522_rot_s02_0_keyboard_20_n04505470_1417.png
subject-02,1,523,0.663522005081177,bottle,bottle,270,0523_rot_s02_270_bottle_20_n02823428_1678.png
subject-02,1,524,0.856066942214966,chair,chair,270,0524_rot_s02_270_chair_20_n02791124_498.png
subject-02,1,525,0.818702936172485,chair,chair,270,0525_rot_s02_270_chair_20_n02791124_5004.png
subject-02,1,526,0.764986038208008,bicycle,bicycle,90,0526_rot_s02_90_bicycle_20_n03792782_6159.png
subject-02,1,527,0.587295055389404,keyboard,keyboard,270,0527_rot_s02_270_keyboard_20_n03085013_4717.png
subject-02,1,528,0.68824291229248,car,car,270,0528_rot_s02_270_car_20_n03100240_2503.png
subject-02,1,529,0.693578004837036,elephant,elephant,270,0529_rot_s02_270_elephant_20_n02504013_10330.png
subject-02,1,530,0.994360208511353,bottle,bottle,90,0530_rot_s02_90_bottle_20_n04591713_277.png
subject-02,1,531,0.840713977813721,bear,bear,90,0531_rot_s02_90_bear_20_n02133161_6917.png
subject-02,1,532,0.473337888717651,dog,dog,0,0532_rot_s02_0_dog_20_n02104029_5940.png
subject-02,1,533,0.926131010055542,boat,airplane,180,0533_rot_s02_180_airplane_20_n02690373_8704.png
subject-02,1,534,0.620448112487793,oven,truck,90,0534_rot_s02_90_truck_20_n03417042_1344.png
subject-02,1,535,0.604997873306274,elephant,elephant,270,0535_rot_s02_270_elephant_20_n02504013_4436.png
subject-02,1,536,0.590248823165894,car,car,90,0536_rot_s02_90_car_20_n02814533_70922.png
subject-02,1,537,0.359979152679443,cat,cat,180,0537_rot_s02_180_cat_20_n02123045_3193.png
subject-02,1,538,0.58214807510376,elephant,elephant,180,0538_rot_s02_180_elephant_20_n02504458_4226.png
subject-02,1,539,0.620537996292114,bottle,bottle,270,0539_rot_s02_270_bottle_20_n04591713_3460.png
subject-02,1,540,0.818659067153931,knife,knife,90,0540_rot_s02_90_knife_20_n03041632_8528.png
subject-02,1,541,0.697258949279785,truck,truck,180,0541_rot_s02_180_truck_20_n03417042_3586.png
subject-02,1,542,0.656780004501343,clock,clock,0,0542_rot_s02_0_clock_20_n04548280_2942.png
subject-02,1,543,0.573673963546753,bird,bird,270,0543_rot_s02_270_bird_20_n01534433_6620.png
subject-02,1,544,0.496479034423828,clock,clock,0,0544_rot_s02_0_clock_20_n02708093_7122.png
subject-02,1,545,0.680127143859863,bear,bear,180,0545_rot_s02_180_bear_20_n02134084_169.png
subject-02,1,546,0.612102031707764,cat,cat,180,0546_rot_s02_180_cat_20_n02124075_11466.png
subject-02,1,547,0.55056095123291,bird,bird,0,0547_rot_s02_0_bird_20_n02006656_1588.png
subject-02,1,548,0.605853080749512,oven,oven,180,0548_rot_s02_180_oven_20_n04111531_21733.png
subject-02,1,549,0.374159097671509,boat,boat,180,0549_rot_s02_180_boat_20_n03662601_17229.png
subject-02,1,550,0.542285919189453,bottle,bottle,180,0550_rot_s02_180_bottle_20_n04579145_1859.png
subject-02,1,551,0.497363090515137,boat,boat,0,0551_rot_s02_0_boat_20_n04273569_34117.png
subject-02,1,552,0.51330304145813,bottle,bottle,180,0552_rot_s02_180_bottle_20_n03983396_10089.png
subject-02,1,553,0.539890050888062,cat,dog,270,0553_rot_s02_270_dog_20_n02107312_1474.png
subject-02,1,554,0.978409051895142,bottle,knife,270,0554_rot_s02_270_knife_20_n03041632_27929.png
subject-02,1,555,0.74944019317627,bear,bear,0,0555_rot_s02_0_bear_20_n02133161_12745.png
subject-02,1,556,0.591515064239502,bicycle,bicycle,270,0556_rot_s02_270_bicycle_20_n03792782_12815.png
subject-02,1,557,0.614053964614868,truck,truck,180,0557_rot_s02_180_truck_20_n03796401_6977.png
subject-02,1,558,0.609342098236084,truck,truck,0,0558_rot_s02_0_truck_20_n04467665_11851.png
subject-02,1,559,0.785286903381348,airplane,airplane,0,0559_rot_s02_0_airplane_20_n02690373_19749.png
subject-02,1,560,0.700250864028931,keyboard,clock,180,0560_rot_s02_180_clock_20_n03196217_5991.png
subject-02,1,561,1.00075602531433,elephant,dog,180,0561_rot_s02_180_dog_20_n02106550_10993.png
subject-02,1,562,0.538640975952148,oven,oven,270,0562_rot_s02_270_oven_20_n04111531_4346.png
subject-02,1,563,0.915148019790649,elephant,elephant,90,0563_rot_s02_90_elephant_20_n02504458_2900.png
subject-02,1,564,0.570255994796753,chair,chair,180,0564_rot_s02_180_chair_20_n03376595_10690.png
subject-02,1,565,0.540678977966309,chair,chair,0,0565_rot_s02_0_chair_20_n04099969_24275.png
subject-02,1,566,0.554434776306152,truck,truck,90,0566_rot_s02_90_truck_20_n04467665_37152.png
subject-02,1,567,0.660789012908936,boat,boat,90,0567_rot_s02_90_boat_20_n03344393_2676.png
subject-02,1,568,0.485080003738403,keyboard,keyboard,270,0568_rot_s02_270_keyboard_20_n03085013_19343.png
subject-02,1,569,0.599616050720215,boat,boat,0,0569_rot_s02_0_boat_20_n03344393_1158.png
subject-02,1,570,0.40824294090271,oven,oven,180,0570_rot_s02_180_oven_20_n04111531_12408.png
subject-02,1,571,0.422868967056274,cat,cat,90,0571_rot_s02_90_cat_20_n02123597_14332.png
subject-02,1,572,0.75556492805481,knife,knife,270,0572_rot_s02_270_knife_20_n03041632_15174.png
subject-02,1,573,0.69348406791687,chair,oven,0,0573_rot_s02_0_oven_20_n04111531_1674.png
subject-02,1,574,0.829058170318604,knife,knife,90,0574_rot_s02_90_knife_20_n03041632_32785.png
subject-02,1,575,0.804957151412964,elephant,elephant,180,0575_rot_s02_180_elephant_20_n02504458_4572.png
subject-02,1,576,0.851549863815308,bird,bird,180,0576_rot_s02_180_bird_20_n01833805_11777.png
subject-02,1,577,0.546503067016602,chair,chair,270,0577_rot_s02_270_chair_20_n02791124_5635.png
subject-02,1,578,0.490803956985474,car,dog,0,0578_rot_s02_0_dog_20_n02092339_7697.png
subject-02,1,579,0.599306106567383,chair,chair,180,0579_rot_s02_180_chair_20_n02791124_4060.png
subject-02,1,580,0.56743311882019,boat,boat,90,0580_rot_s02_90_boat_20_n03662601_22558.png
subject-02,1,581,0.743824005126953,car,car,180,0581_rot_s02_180_car_20_n03100240_2668.png
subject-02,1,582,1.08554601669312,chair,chair,270,0582_rot_s02_270_chair_20_n02791124_3657.png
subject-02,1,583,0.799254894256592,elephant,elephant,180,0583_rot_s02_180_elephant_20_n02504458_7842.png
subject-02,1,584,0.591776847839355,elephant,elephant,270,0584_rot_s02_270_elephant_20_n02504458_3416.png
subject-02,1,585,0.584476947784424,clock,clock,90,0585_rot_s02_90_clock_20_n03196217_5916.png
subject-02,1,586,0.539751052856445,bottle,bottle,0,0586_rot_s02_0_bottle_20_n04560804_1844.png
subject-02,1,587,0.732271909713745,bear,bear,180,0587_rot_s02_180_bear_20_n02134418_510.png
subject-02,1,588,0.493058204650879,cat,cat,270,0588_rot_s02_270_cat_20_n02125311_46231.png
subject-02,1,589,0.554885149002075,boat,boat,180,0589_rot_s02_180_boat_20_n03344393_2537.png
subject-02,1,590,0.555726051330566,bird,bird,90,0590_rot_s02_90_bird_20_n02028035_4712.png
subject-02,1,591,0.585080146789551,airplane,airplane,180,0591_rot_s02_180_airplane_20_n02690373_8872.png
subject-02,1,592,0.753577947616577,chair,chair,0,0592_rot_s02_0_chair_20_n04099969_39804.png
subject-02,1,593,0.891677141189575,airplane,clock,270,0593_rot_s02_270_clock_20_n03196217_454.png
subject-02,1,594,0.776021003723145,cat,bird,90,0594_rot_s02_90_bird_20_n01833805_8820.png
subject-02,1,595,0.498879909515381,bottle,bottle,270,0595_rot_s02_270_bottle_20_n02823428_5850.png
subject-02,1,596,0.607004880905151,bird,bear,270,0596_rot_s02_270_bear_20_n02133161_3979.png
subject-02,1,597,0.453900098800659,bottle,bottle,0,0597_rot_s02_0_bottle_20_n04560804_28441.png
subject-02,1,598,0.708384990692139,boat,boat,0,0598_rot_s02_0_boat_20_n02951358_29724.png
subject-02,1,599,0.484897136688232,chair,chair,0,0599_rot_s02_0_chair_20_n04429376_10544.png
subject-02,1,600,0.723939895629883,elephant,elephant,270,0600_rot_s02_270_elephant_20_n02504458_817.png
subject-02,1,601,0.540356874465942,cat,cat,90,0601_rot_s02_90_cat_20_n02123159_5321.png
subject-02,1,602,0.624740123748779,truck,truck,0,0602_rot_s02_0_truck_20_n03417042_4520.png
subject-02,1,603,0.74766206741333,chair,chair,180,0603_rot_s02_180_chair_20_n04429376_48087.png
subject-02,1,604,0.539739847183228,airplane,airplane,270,0604_rot_s02_270_airplane_20_n02690373_4728.png
subject-02,1,605,0.54864501953125,oven,oven,90,0605_rot_s02_90_oven_20_n04111531_9692.png
subject-02,1,606,0.465208053588867,cat,cat,0,0606_rot_s02_0_cat_20_n02123159_7720.png
subject-02,1,607,0.74892520904541,bird,bird,270,0607_rot_s02_270_bird_20_n01855032_6739.png
subject-02,1,608,0.417442083358765,cat,oven,270,0608_rot_s02_270_oven_20_n04111531_19075.png
subject-02,1,609,0.555606126785278,keyboard,keyboard,0,0609_rot_s02_0_keyboard_20_n04505470_4107.png
subject-02,1,610,0.581110000610352,chair,truck,90,0610_rot_s02_90_truck_20_n03796401_19487.png
subject-02,1,611,0.557226181030273,knife,knife,270,0611_rot_s02_270_knife_20_n03041632_41310.png
subject-02,1,612,0.496011018753052,airplane,airplane,0,0612_rot_s02_0_airplane_20_n02690373_3362.png
subject-02,1,613,0.850633144378662,knife,knife,0,0613_rot_s02_0_knife_20_n03041632_29427.png
subject-02,1,614,0.713348865509033,clock,clock,180,0614_rot_s02_180_clock_20_n03196217_9563.png
subject-02,1,615,0.45160698890686,oven,oven,0,0615_rot_s02_0_oven_20_n04111531_5204.png
subject-02,1,616,0.481686115264893,bird,bird,0,0616_rot_s02_0_bird_20_n01860187_2793.png
subject-02,1,617,0.737129926681519,truck,oven,90,0617_rot_s02_90_oven_20_n04111531_8350.png
subject-02,1,618,0.395930051803589,airplane,airplane,90,0618_rot_s02_90_airplane_20_n02690373_1436.png
subject-02,1,619,0.818535804748535,elephant,elephant,90,0619_rot_s02_90_elephant_20_n02504458_758.png
subject-02,1,620,0.827244997024536,dog,dog,270,0620_rot_s02_270_dog_20_n02107683_2172.png
subject-02,1,621,0.519359827041626,keyboard,keyboard,270,0621_rot_s02_270_keyboard_20_n03085013_1704.png
subject-02,1,622,0.750311851501465,bicycle,bicycle,180,0622_rot_s02_180_bicycle_20_n03792782_23334.png
subject-02,1,623,0.666300058364868,bear,bear,270,0623_rot_s02_270_bear_20_n02134418_22359.png
subject-02,1,624,0.527427911758423,bird,bird,270,0624_rot_s02_270_bird_20_n02006656_30849.png
subject-02,1,625,0.551542997360229,clock,clock,270,0625_rot_s02_270_clock_20_n04548280_896.png
subject-02,1,626,0.523335933685303,chair,chair,90,0626_rot_s02_90_chair_20_n02791124_3432.png
subject-02,1,627,0.69966197013855,dog,dog,270,0627_rot_s02_270_dog_20_n02105251_4386.png
subject-02,1,628,0.822623014450073,airplane,airplane,180,0628_rot_s02_180_airplane_20_n02690373_9441.png
subject-02,1,629,0.468868970870972,bottle,bottle,90,0629_rot_s02_90_bottle_20_n04557648_2744.png
subject-02,1,630,0.523252010345459,bicycle,bicycle,90,0630_rot_s02_90_bicycle_20_n03792782_4886.png
subject-02,1,631,0.531872987747192,elephant,elephant,0,0631_rot_s02_0_elephant_20_n02504013_24810.png
subject-02,1,632,0.63858699798584,elephant,dog,90,0632_rot_s02_90_dog_20_n02087394_17486.png
subject-02,1,633,0.638868093490601,bottle,bottle,180,0633_rot_s02_180_bottle_20_n03983396_5763.png
subject-02,1,634,0.555685043334961,airplane,airplane,0,0634_rot_s02_0_airplane_20_n02690373_13078.png
subject-02,1,635,0.562072038650513,truck,truck,0,0635_rot_s02_0_truck_20_n03417042_2143.png
subject-02,1,636,0.662559032440186,cat,cat,180,0636_rot_s02_180_cat_20_n02123394_8238.png
subject-02,1,637,0.492966890335083,truck,truck,270,0637_rot_s02_270_truck_20_n03417042_8139.png
subject-02,1,638,0.422471046447754,keyboard,keyboard,180,0638_rot_s02_180_keyboard_20_n03085013_27859.png
subject-02,1,639,0.623583078384399,bottle,bottle,90,0639_rot_s02_90_bottle_20_n04560804_23609.png
subject-02,1,640,0.600462913513184,bird,bottle,180,0640_rot_s02_180_bottle_20_n04591713_5919.png
subject-02,1,641,0.644490003585815,airplane,boat,0,0641_rot_s02_0_boat_20_n03662601_23903.png
subject-02,1,642,0.750955104827881,elephant,elephant,0,0642_rot_s02_0_elephant_20_n02504458_5470.png
subject-02,1,643,0.783385038375854,truck,truck,270,0643_rot_s02_270_truck_20_n04467665_24709.png
subject-02,1,644,0.62935996055603,oven,oven,0,0644_rot_s02_0_oven_20_n04111531_12980.png
subject-02,1,645,0.668779850006104,elephant,cat,180,0645_rot_s02_180_cat_20_n02123159_7078.png
subject-02,1,646,1.02906894683838,cat,bird,0,0646_rot_s02_0_bird_20_n01824575_4762.png
subject-02,1,647,0.591769933700562,cat,cat,180,0647_rot_s02_180_cat_20_n02123394_1380.png
subject-02,1,648,0.622492074966431,car,car,180,0648_rot_s02_180_car_20_n03100240_2909.png
subject-02,1,649,0.454769849777222,cat,cat,270,0649_rot_s02_270_cat_20_n02125311_3450.png
subject-02,1,650,0.706747055053711,bird,bear,270,0650_rot_s02_270_bear_20_n02133161_6448.png
subject-02,1,651,0.569484233856201,cat,cat,0,0651_rot_s02_0_cat_20_n02124075_8381.png
subject-02,1,652,0.609089851379395,airplane,airplane,270,0652_rot_s02_270_airplane_20_n02690373_10285.png
subject-02,1,653,0.501775026321411,keyboard,keyboard,180,0653_rot_s02_180_keyboard_20_n04505470_3335.png
subject-02,1,654,0.540527820587158,boat,boat,90,0654_rot_s02_90_boat_20_n02951358_11567.png
subject-02,1,655,0.903072118759155,bear,dog,270,0655_rot_s02_270_dog_20_n02093256_3712.png
subject-02,1,656,0.855500936508179,bear,bear,180,0656_rot_s02_180_bear_20_n02134418_5664.png
subject-02,1,657,0.967372894287109,bicycle,bicycle,180,0657_rot_s02_180_bicycle_20_n02835271_12264.png
subject-02,1,658,0.643867015838623,cat,bicycle,0,0658_rot_s02_0_bicycle_20_n03792782_7270.png
subject-02,1,659,0.665617942810059,bear,bear,180,0659_rot_s02_180_bear_20_n02134418_16654.png
subject-02,1,660,0.411870002746582,boat,boat,270,0660_rot_s02_270_boat_20_n04273569_5371.png
subject-02,1,661,0.864604949951172,elephant,elephant,270,0661_rot_s02_270_elephant_20_n02504013_3020.png
subject-02,1,662,0.62673282623291,bicycle,bicycle,180,0662_rot_s02_180_bicycle_20_n03792782_50972.png
subject-02,1,663,1.31914591789246,truck,truck,90,0663_rot_s02_90_truck_20_n03796401_7563.png
subject-02,1,664,0.673645973205566,clock,clock,0,0664_rot_s02_0_clock_20_n03196217_1797.png
subject-02,1,665,0.758327007293701,knife,knife,270,0665_rot_s02_270_knife_20_n03041632_38535.png
subject-02,1,666,0.534888982772827,clock,clock,270,0666_rot_s02_270_clock_20_n02708093_6835.png
subject-02,1,667,0.603883981704712,bicycle,bicycle,180,0667_rot_s02_180_bicycle_20_n03792782_16433.png
subject-02,1,668,0.90422797203064,knife,knife,270,0668_rot_s02_270_knife_20_n03041632_14132.png
subject-02,1,669,0.789017915725708,cat,dog,0,0669_rot_s02_0_dog_20_n02100583_4457.png
subject-02,1,670,1.24906396865845,boat,boat,180,0670_rot_s02_180_boat_20_n03662601_23469.png
subject-02,1,671,0.65713095664978,boat,boat,90,0671_rot_s02_90_boat_20_n04273569_18898.png
subject-02,1,672,0.651503086090088,bird,bird,90,0672_rot_s02_90_bird_20_n01828970_2700.png
subject-02,1,673,0.89776611328125,clock,clock,0,0673_rot_s02_0_clock_20_n04548280_4670.png
subject-02,1,674,0.468690156936646,boat,boat,270,0674_rot_s02_270_boat_20_n04612504_13987.png
subject-02,1,675,0.775008916854858,truck,truck,180,0675_rot_s02_180_truck_20_n03417042_29083.png
subject-02,1,676,0.750167846679688,knife,oven,90,0676_rot_s02_90_oven_20_n04111531_9455.png
subject-02,1,677,0.543210983276367,bicycle,bicycle,270,0677_rot_s02_270_bicycle_20_n03792782_5864.png
subject-02,1,678,0.489350080490112,cat,cat,0,0678_rot_s02_0_cat_20_n02124075_2843.png
subject-02,1,679,0.604468822479248,boat,boat,270,0679_rot_s02_270_boat_20_n04612504_392.png
subject-02,1,680,0.758756160736084,truck,clock,0,0680_rot_s02_0_clock_20_n03196217_727.png
subject-02,1,681,0.551589965820312,clock,clock,270,0681_rot_s02_270_clock_20_n02708093_148.png
subject-02,1,682,0.897587060928345,bear,bird,90,0682_rot_s02_90_bird_20_n02009229_5887.png
subject-02,1,683,0.511855125427246,clock,clock,270,0683_rot_s02_270_clock_20_n04548280_5426.png
subject-02,1,684,0.666430950164795,car,car,0,0684_rot_s02_0_car_20_n04285008_7328.png
subject-02,1,685,0.61222505569458,truck,truck,0,0685_rot_s02_0_truck_20_n04467665_375.png
subject-02,1,686,1.04095911979675,cat,elephant,180,0686_rot_s02_180_elephant_20_n02504013_1370.png
subject-02,1,687,0.581712961196899,bear,bear,0,0687_rot_s02_0_bear_20_n02133161_10.png
subject-02,1,688,0.726167917251587,chair,chair,0,0688_rot_s02_0_chair_20_n02791124_9216.png
subject-02,1,689,0.856244087219238,airplane,airplane,0,0689_rot_s02_0_airplane_20_n02690373_2070.png
subject-02,1,690,0.772966861724854,oven,bear,180,0690_rot_s02_180_bear_20_n02134418_5033.png
subject-02,1,691,0.679090023040771,elephant,elephant,90,0691_rot_s02_90_elephant_20_n02504458_4314.png
subject-02,1,692,0.496778011322021,bottle,bottle,0,0692_rot_s02_0_bottle_20_n04579145_2944.png
subject-02,1,693,0.513678073883057,cat,cat,0,0693_rot_s02_0_cat_20_n02123159_7828.png
subject-02,1,694,0.567893028259277,cat,bird,270,0694_rot_s02_270_bird_20_n01537544_1923.png
subject-02,1,695,0.981868982315063,airplane,airplane,90,0695_rot_s02_90_airplane_20_n02690373_10462.png
subject-02,1,696,0.544724941253662,bicycle,bicycle,0,0696_rot_s02_0_bicycle_20_n03792782_2035.png
subject-02,1,697,0.475277185440063,airplane,airplane,0,0697_rot_s02_0_airplane_20_n02690373_9829.png
subject-02,1,698,0.929911136627197,chair,chair,90,0698_rot_s02_90_chair_20_n04099969_13609.png
subject-02,1,699,1.05254507064819,bear,bear,90,0699_rot_s02_90_bear_20_n02134418_1306.png
subject-02,1,700,0.7288818359375,bird,bird,180,0700_rot_s02_180_bird_20_n02006656_1910.png
subject-02,1,701,0.621372938156128,truck,bicycle,90,0701_rot_s02_90_bicycle_20_n03792782_3427.png
subject-02,1,702,0.667425870895386,bird,bird,180,0702_rot_s02_180_bird_20_n02027492_14963.png
subject-02,1,703,1.01213502883911,chair,bird,180,0703_rot_s02_180_bird_20_n02056570_9169.png
subject-02,1,704,0.89091682434082,knife,knife,90,0704_rot_s02_90_knife_20_n03041632_2468.png
subject-02,1,705,0.667747020721436,knife,knife,0,0705_rot_s02_0_knife_20_n03041632_18748.png
subject-02,1,706,0.621757984161377,bicycle,bicycle,0,0706_rot_s02_0_bicycle_20_n02835271_16768.png
subject-02,1,707,0.958264112472534,cat,cat,180,0707_rot_s02_180_cat_20_n02123045_7290.png
subject-02,1,708,0.612611055374146,airplane,airplane,90,0708_rot_s02_90_airplane_20_n02690373_9309.png
subject-02,1,709,0.605018854141235,boat,airplane,180,0709_rot_s02_180_airplane_20_n02690373_2908.png
subject-02,1,710,0.703472137451172,keyboard,keyboard,90,0710_rot_s02_90_keyboard_20_n03085013_29865.png
subject-02,1,711,0.649096012115479,knife,knife,270,0711_rot_s02_270_knife_20_n03041632_965.png
subject-02,1,712,1.10137701034546,chair,chair,0,0712_rot_s02_0_chair_20_n04099969_13278.png
subject-02,1,713,0.539448976516724,clock,clock,90,0713_rot_s02_90_clock_20_n04548280_700.png
subject-02,1,714,0.678117990493774,knife,knife,0,0714_rot_s02_0_knife_20_n03041632_4714.png
subject-02,1,715,0.832767963409424,bird,bird,90,0715_rot_s02_90_bird_20_n02009912_6461.png
subject-02,1,716,0.849844932556152,car,car,270,0716_rot_s02_270_car_20_n04285008_8265.png
subject-02,1,717,0.6267409324646,truck,truck,270,0717_rot_s02_270_truck_20_n03417042_13869.png
subject-02,1,718,0.735162973403931,knife,knife,0,0718_rot_s02_0_knife_20_n03041632_82878.png
subject-02,1,719,0.643315076828003,keyboard,bear,180,0719_rot_s02_180_bear_20_n02133161_2895.png
subject-02,1,720,0.711649894714355,keyboard,keyboard,180,0720_rot_s02_180_keyboard_20_n03085013_24166.png
subject-02,1,721,0.543092966079712,bear,bear,270,0721_rot_s02_270_bear_20_n02134084_13177.png
subject-02,1,722,0.697088003158569,keyboard,keyboard,270,0722_rot_s02_270_keyboard_20_n03085013_2064.png
subject-02,1,723,0.557574987411499,bottle,bottle,270,0723_rot_s02_270_bottle_20_n04557648_8148.png
subject-02,1,724,0.495588064193726,bicycle,bicycle,270,0724_rot_s02_270_bicycle_20_n02835271_4935.png
subject-02,1,725,0.605096101760864,car,car,0,0725_rot_s02_0_car_20_n03100240_379.png
subject-02,1,726,0.627758026123047,dog,dog,0,0726_rot_s02_0_dog_20_n02111277_8658.png
subject-02,1,727,0.474150896072388,bird,bird,0,0727_rot_s02_0_bird_20_n01828970_5392.png
subject-02,1,728,0.449954986572266,keyboard,keyboard,180,0728_rot_s02_180_keyboard_20_n04505470_3207.png
subject-02,1,729,0.696506023406982,cat,cat,270,0729_rot_s02_270_cat_20_n02123045_8630.png
subject-02,1,730,0.81343412399292,boat,knife,180,0730_rot_s02_180_knife_20_n03041632_29858.png
subject-02,1,731,0.751965999603271,keyboard,oven,270,0731_rot_s02_270_oven_20_n04111531_550.png
subject-02,1,732,1.19084095954895,car,knife,90,0732_rot_s02_90_knife_20_n03041632_9256.png
subject-02,1,733,0.828921794891357,dog,dog,270,0733_rot_s02_270_dog_20_n02106662_112520.png
subject-02,1,734,0.551406145095825,bottle,bottle,0,0734_rot_s02_0_bottle_20_n02823428_1148.png
subject-02,1,735,0.767895936965942,knife,knife,90,0735_rot_s02_90_knife_20_n03041632_34676.png
subject-02,1,736,0.836013078689575,dog,dog,0,0736_rot_s02_0_dog_20_n02111277_23207.png
subject-02,1,737,0.720323085784912,truck,truck,90,0737_rot_s02_90_truck_20_n03417042_15553.png
subject-02,1,738,0.5643310546875,cat,bear,90,0738_rot_s02_90_bear_20_n02134418_972.png
subject-02,1,739,0.95609188079834,bear,bear,270,0739_rot_s02_270_bear_20_n02134084_10275.png
subject-02,1,740,1.20908999443054,elephant,elephant,0,0740_rot_s02_0_elephant_20_n02504013_6530.png
subject-02,1,741,0.449050188064575,clock,clock,180,0741_rot_s02_180_clock_20_n02708093_3544.png
subject-02,1,742,0.4092698097229,bottle,bottle,180,0742_rot_s02_180_bottle_20_n02823428_9898.png
subject-02,1,743,0.698286056518555,elephant,elephant,180,0743_rot_s02_180_elephant_20_n02504458_6917.png
subject-02,1,744,0.862195014953613,elephant,bear,90,0744_rot_s02_90_bear_20_n02134084_21404.png
subject-02,1,745,0.563074827194214,cat,cat,0,0745_rot_s02_0_cat_20_n02123597_6542.png
subject-02,1,746,0.533601999282837,clock,clock,0,0746_rot_s02_0_clock_20_n02708093_4722.png
subject-02,1,747,0.801372051239014,bear,bear,0,0747_rot_s02_0_bear_20_n02132136_6947.png
subject-02,1,748,0.482397079467773,cat,cat,270,0748_rot_s02_270_cat_20_n02123394_5470.png
subject-02,1,749,0.545191049575806,chair,chair,0,0749_rot_s02_0_chair_20_n04099969_15645.png
subject-02,1,750,0.667322158813477,bicycle,bicycle,0,0750_rot_s02_0_bicycle_20_n03792782_9000.png
subject-02,1,751,0.77406907081604,truck,truck,270,0751_rot_s02_270_truck_20_n04467665_42219.png
subject-02,1,752,0.49898099899292,cat,cat,0,0752_rot_s02_0_cat_20_n02125311_21010.png
subject-02,1,753,0.77512001991272,car,keyboard,270,0753_rot_s02_270_keyboard_20_n03085013_22386.png
subject-02,1,754,0.745830059051514,knife,boat,180,0754_rot_s02_180_boat_20_n02951358_5673.png
subject-02,1,755,1.14362096786499,truck,truck,90,0755_rot_s02_90_truck_20_n03796401_5669.png
subject-02,1,756,0.740447998046875,car,car,180,0756_rot_s02_180_car_20_n03100240_8901.png
subject-02,1,757,0.838747024536133,bear,bear,0,0757_rot_s02_0_bear_20_n02134084_18955.png
subject-02,1,758,0.671211004257202,bottle,bottle,270,0758_rot_s02_270_bottle_20_n02823428_13863.png
subject-02,1,759,0.815690994262695,dog,dog,0,0759_rot_s02_0_dog_20_n02093428_13932.png
subject-02,1,760,0.867956161499023,cat,chair,90,0760_rot_s02_90_chair_20_n04429376_7050.png
subject-02,1,761,0.470592021942139,bird,bird,270,0761_rot_s02_270_bird_20_n01855032_15091.png
subject-02,1,762,0.944750785827637,bird,bear,270,0762_rot_s02_270_bear_20_n02134084_2119.png
subject-02,1,763,0.536810874938965,knife,knife,90,0763_rot_s02_90_knife_20_n03041632_40652.png
subject-02,1,764,0.751077175140381,chair,chair,180,0764_rot_s02_180_chair_20_n03376595_6126.png
subject-02,1,765,0.467967987060547,bear,bear,0,0765_rot_s02_0_bear_20_n02134084_8344.png
subject-02,1,766,0.727751970291138,cat,dog,90,0766_rot_s02_90_dog_20_n02089867_4028.png
subject-02,1,767,0.619985103607178,keyboard,keyboard,270,0767_rot_s02_270_keyboard_20_n04505470_4950.png
subject-02,1,768,0.688326120376587,bird,bird,90,0768_rot_s02_90_bird_20_n02009912_197.png
subject-02,1,769,0.75139594078064,car,car,90,0769_rot_s02_90_car_20_n03100240_7624.png
subject-02,1,770,0.906278133392334,car,car,90,0770_rot_s02_90_car_20_n04285008_6454.png
subject-02,1,771,0.599133014678955,airplane,airplane,0,0771_rot_s02_0_airplane_20_n02690373_19107.png
subject-02,1,772,0.513135194778442,cat,cat,0,0772_rot_s02_0_cat_20_n02123159_568.png
subject-02,1,773,0.592061996459961,boat,elephant,270,0773_rot_s02_270_elephant_20_n02504013_1900.png
subject-02,1,774,1.23629283905029,airplane,boat,180,0774_rot_s02_180_boat_20_n04273569_3335.png
subject-02,1,775,0.544600009918213,truck,truck,0,0775_rot_s02_0_truck_20_n03417042_8247.png
subject-02,1,776,0.921589851379395,chair,bird,90,0776_rot_s02_90_bird_20_n02027492_9698.png
subject-02,1,777,0.492041826248169,bird,bird,270,0777_rot_s02_270_bird_20_n02009229_925.png
subject-02,1,778,0.613815069198608,oven,oven,270,0778_rot_s02_270_oven_20_n04111531_9424.png
subject-02,1,779,0.391382932662964,keyboard,keyboard,90,0779_rot_s02_90_keyboard_20_n04505470_9741.png
subject-02,1,780,0.991212129592896,bear,bear,270,0780_rot_s02_270_bear_20_n02134084_27899.png
subject-02,1,781,1.05211091041565,boat,boat,90,0781_rot_s02_90_boat_20_n03662601_873.png
subject-02,1,782,0.614262819290161,airplane,airplane,270,0782_rot_s02_270_airplane_20_n02690373_1418.png
subject-02,1,783,0.960815906524658,car,car,270,0783_rot_s02_270_car_20_n02814533_2867.png
subject-02,1,784,0.545192003250122,keyboard,keyboard,90,0784_rot_s02_90_keyboard_20_n04505470_5153.png
subject-02,1,785,1.07523798942566,bicycle,bicycle,0,0785_rot_s02_0_bicycle_20_n03792782_16034.png
subject-02,1,786,0.684547185897827,car,car,90,0786_rot_s02_90_car_20_n02814533_89472.png
subject-02,1,787,1.14432120323181,airplane,elephant,270,0787_rot_s02_270_elephant_20_n02504013_8440.png
subject-02,1,788,0.712492942810059,oven,oven,90,0788_rot_s02_90_oven_20_n04111531_22327.png
subject-02,1,789,0.629780054092407,keyboard,keyboard,0,0789_rot_s02_0_keyboard_20_n03085013_20460.png
subject-02,1,790,0.738109111785889,chair,chair,90,0790_rot_s02_90_chair_20_n02791124_4037.png
subject-02,1,791,0.776205062866211,cat,truck,0,0791_rot_s02_0_truck_20_n03417042_213.png
subject-02,1,792,0.883411884307861,bicycle,bicycle,270,0792_rot_s02_270_bicycle_20_n02835271_1016.png
subject-02,1,793,0.591373205184937,boat,boat,180,0793_rot_s02_180_boat_20_n04273569_4418.png
subject-02,1,794,0.937741041183472,cat,oven,0,0794_rot_s02_0_oven_20_n04111531_5038.png
subject-02,1,795,0.50611400604248,boat,boat,0,0795_rot_s02_0_boat_20_n04612504_4082.png
subject-02,1,796,0.760697841644287,truck,clock,90,0796_rot_s02_90_clock_20_n03196217_3358.png
subject-02,1,797,0.553425073623657,boat,boat,0,0797_rot_s02_0_boat_20_n03344393_5341.png
subject-02,1,798,0.608108997344971,car,car,180,0798_rot_s02_180_car_20_n03100240_15820.png
subject-02,1,799,0.53828501701355,oven,oven,0,0799_rot_s02_0_oven_20_n04111531_7664.png
subject-02,1,800,0.626096963882446,knife,knife,0,0800_rot_s02_0_knife_20_n03041632_32004.png
subject-02,1,801,0.700984001159668,cat,cat,90,0801_rot_s02_90_cat_20_n02123159_2043.png
subject-02,1,802,0.625907182693481,bicycle,bicycle,0,0802_rot_s02_0_bicycle_20_n03792782_32341.png
subject-02,1,803,0.447590827941895,bicycle,bicycle,180,0803_rot_s02_180_bicycle_20_n02835271_21185.png
subject-02,1,804,0.553702116012573,keyboard,keyboard,180,0804_rot_s02_180_keyboard_20_n04505470_4679.png
subject-02,1,805,0.532644033432007,clock,clock,0,0805_rot_s02_0_clock_20_n04548280_280.png
subject-02,1,806,0.533325910568237,knife,knife,0,0806_rot_s02_0_knife_20_n03041632_18863.png
subject-02,1,807,0.718206882476807,knife,knife,0,0807_rot_s02_0_knife_20_n03041632_87380.png
subject-02,1,808,0.681339025497437,elephant,elephant,0,0808_rot_s02_0_elephant_20_n02504013_6065.png
subject-02,1,809,1.05784893035889,truck,clock,270,0809_rot_s02_270_clock_20_n04548280_21343.png
subject-02,1,810,0.458144903182983,bird,bird,0,0810_rot_s02_0_bird_20_n01819313_5525.png
subject-02,1,811,0.427042007446289,clock,clock,180,0811_rot_s02_180_clock_20_n04548280_6337.png
subject-02,1,812,0.551281929016113,bear,bear,180,0812_rot_s02_180_bear_20_n02134084_19601.png
subject-02,1,813,0.682543039321899,bird,bird,90,0813_rot_s02_90_bird_20_n02006656_18341.png
subject-02,1,814,0.691325902938843,elephant,elephant,180,0814_rot_s02_180_elephant_20_n02504013_447.png
subject-02,1,815,0.47603702545166,cat,cat,0,0815_rot_s02_0_cat_20_n02123597_10214.png
subject-02,1,816,0.468122005462646,bird,bird,270,0816_rot_s02_270_bird_20_n01824575_11952.png
subject-02,1,817,0.46074104309082,airplane,airplane,0,0817_rot_s02_0_airplane_20_n02690373_6899.png
subject-02,1,818,0.445271015167236,car,car,90,0818_rot_s02_90_car_20_n02814533_18068.png
subject-02,1,819,0.500310897827148,clock,clock,270,0819_rot_s02_270_clock_20_n02708093_1427.png
subject-02,1,820,0.992311954498291,car,car,180,0820_rot_s02_180_car_20_n02814533_72252.png
subject-02,1,821,0.546302080154419,knife,knife,90,0821_rot_s02_90_knife_20_n03041632_7173.png
subject-02,1,822,0.668280124664307,cat,bear,90,0822_rot_s02_90_bear_20_n02133161_464.png
subject-02,1,823,0.552479982376099,airplane,airplane,90,0823_rot_s02_90_airplane_20_n02690373_2941.png
subject-02,1,824,0.697167873382568,boat,boat,270,0824_rot_s02_270_boat_20_n02951358_29756.png
subject-02,1,825,0.921483993530273,boat,boat,180,0825_rot_s02_180_boat_20_n03662601_2052.png
subject-02,1,826,0.83600902557373,dog,dog,180,0826_rot_s02_180_dog_20_n02087394_21556.png
subject-02,1,827,0.729043960571289,cat,cat,0,0827_rot_s02_0_cat_20_n02123597_4863.png
subject-02,1,828,0.491534948348999,cat,cat,90,0828_rot_s02_90_cat_20_n02123159_3490.png
subject-02,1,829,0.70616888999939,elephant,elephant,270,0829_rot_s02_270_elephant_20_n02504458_8060.png
subject-02,1,830,0.58430814743042,bear,bear,270,0830_rot_s02_270_bear_20_n02133161_500.png
subject-02,1,831,0.628730058670044,chair,chair,180,0831_rot_s02_180_chair_20_n04429376_21845.png
subject-02,1,832,0.58272910118103,clock,clock,180,0832_rot_s02_180_clock_20_n04548280_7110.png
subject-02,1,833,0.72101902961731,keyboard,keyboard,270,0833_rot_s02_270_keyboard_20_n04505470_4832.png
subject-02,1,834,0.483374834060669,chair,oven,180,0834_rot_s02_180_oven_20_n04111531_594.png
subject-02,1,835,0.868070125579834,knife,knife,270,0835_rot_s02_270_knife_20_n03041632_13742.png
subject-02,1,836,0.622589826583862,bear,elephant,270,0836_rot_s02_270_elephant_20_n02504013_620.png
subject-02,1,837,0.729424953460693,boat,boat,90,0837_rot_s02_90_boat_20_n03662601_8778.png
subject-02,1,838,0.575370788574219,truck,truck,180,0838_rot_s02_180_truck_20_n03417042_3308.png
subject-02,1,839,0.594074964523315,bicycle,bicycle,90,0839_rot_s02_90_bicycle_20_n03792782_8271.png
subject-02,1,840,0.578265905380249,boat,boat,180,0840_rot_s02_180_boat_20_n02951358_3464.png
subject-02,1,841,0.825042963027954,truck,truck,270,0841_rot_s02_270_truck_20_n03417042_10517.png
subject-02,1,842,0.657193899154663,chair,chair,180,0842_rot_s02_180_chair_20_n04429376_17705.png
subject-02,1,843,0.871812105178833,dog,cat,180,0843_rot_s02_180_cat_20_n02123597_3063.png
subject-02,1,844,0.793168067932129,truck,boat,90,0844_rot_s02_90_boat_20_n02951358_6884.png
subject-02,1,845,0.485918998718262,clock,clock,180,0845_rot_s02_180_clock_20_n03196217_367.png
subject-02,1,846,0.603487014770508,boat,cat,90,0846_rot_s02_90_cat_20_n02123045_7482.png
subject-02,1,847,0.801597833633423,car,car,180,0847_rot_s02_180_car_20_n03100240_7961.png
subject-02,1,848,0.701854944229126,dog,dog,180,0848_rot_s02_180_dog_20_n02093991_7254.png
subject-02,1,849,0.726690053939819,oven,oven,90,0849_rot_s02_90_oven_20_n04111531_452.png
subject-02,1,850,0.924983024597168,knife,knife,0,0850_rot_s02_0_knife_20_n03041632_16104.png
subject-02,1,851,0.571259021759033,bird,bird,180,0851_rot_s02_180_bird_20_n01855672_2402.png
subject-02,1,852,0.580470085144043,cat,cat,270,0852_rot_s02_270_cat_20_n02125311_4563.png
subject-02,1,853,0.497045040130615,bird,bird,90,0853_rot_s02_90_bird_20_n01558993_3076.png
subject-02,1,854,0.566132068634033,chair,chair,0,0854_rot_s02_0_chair_20_n04429376_29750.png
subject-02,1,855,0.491408109664917,bird,bird,270,0855_rot_s02_270_bird_20_n02011460_4956.png
subject-02,1,856,0.589565992355347,cat,cat,180,0856_rot_s02_180_cat_20_n02123045_9486.png
subject-02,1,857,0.628495931625366,boat,boat,270,0857_rot_s02_270_boat_20_n03344393_6079.png
subject-02,1,858,0.62870979309082,bear,oven,180,0858_rot_s02_180_oven_20_n04111531_3082.png
subject-02,1,859,0.761631965637207,car,car,180,0859_rot_s02_180_car_20_n02814533_45150.png
subject-02,1,860,1.43543219566345,knife,knife,180,0860_rot_s02_180_knife_20_n03041632_2438.png
subject-02,1,861,0.629971981048584,airplane,airplane,180,0861_rot_s02_180_airplane_20_n02690373_7107.png
subject-02,1,862,1.22094702720642,airplane,oven,0,0862_rot_s02_0_oven_20_n04111531_1362.png
subject-02,1,863,0.607077836990356,clock,clock,180,0863_rot_s02_180_clock_20_n04548280_5011.png
subject-02,1,864,0.676068067550659,bird,bird,270,0864_rot_s02_270_bird_20_n02037110_31816.png
subject-02,1,865,0.922272205352783,cat,bicycle,180,0865_rot_s02_180_bicycle_20_n03792782_8062.png
subject-02,1,866,0.484702825546265,oven,oven,0,0866_rot_s02_0_oven_20_n04111531_249.png
subject-02,1,867,0.661494970321655,oven,oven,180,0867_rot_s02_180_oven_20_n04111531_10711.png
subject-02,1,868,0.621304035186768,chair,chair,90,0868_rot_s02_90_chair_20_n03376595_262.png
subject-02,1,869,0.546615123748779,cat,cat,0,0869_rot_s02_0_cat_20_n02124075_9224.png
subject-02,1,870,0.615360975265503,bear,bear,0,0870_rot_s02_0_bear_20_n02133161_2767.png
subject-02,1,871,0.669760942459106,airplane,airplane,90,0871_rot_s02_90_airplane_20_n02690373_20996.png
subject-02,1,872,0.475888967514038,bicycle,bicycle,180,0872_rot_s02_180_bicycle_20_n02835271_15564.png
subject-02,1,873,0.892266035079956,cat,oven,0,0873_rot_s02_0_oven_20_n04111531_5533.png
subject-02,1,874,0.485107898712158,bird,bird,180,0874_rot_s02_180_bird_20_n02007558_5444.png
subject-02,1,875,0.791563987731934,chair,clock,270,0875_rot_s02_270_clock_20_n04548280_3128.png
subject-02,1,876,0.646420955657959,keyboard,keyboard,270,0876_rot_s02_270_keyboard_20_n03085013_7536.png
subject-02,1,877,1.04457998275757,truck,truck,270,0877_rot_s02_270_truck_20_n03417042_1716.png
subject-02,1,878,0.76952600479126,cat,oven,270,0878_rot_s02_270_oven_20_n04111531_5549.png
subject-02,1,879,0.745526075363159,car,dog,180,0879_rot_s02_180_dog_20_n02113624_3800.png
subject-02,1,880,NaN,na,boat,0,0880_rot_s02_0_boat_20_n03344393_8382.png
subject-02,1,881,0.56044602394104,bird,bird,270,0881_rot_s02_270_bird_20_n01855672_6572.png
subject-02,1,882,0.50744104385376,keyboard,keyboard,180,0882_rot_s02_180_keyboard_20_n03085013_3257.png
subject-02,1,883,0.577671051025391,clock,clock,90,0883_rot_s02_90_clock_20_n04548280_3342.png
subject-02,1,884,0.576207876205444,knife,knife,90,0884_rot_s02_90_knife_20_n03041632_24798.png
subject-02,1,885,0.608554124832153,car,car,90,0885_rot_s02_90_car_20_n03100240_6507.png
subject-02,1,886,0.559694051742554,cat,cat,270,0886_rot_s02_270_cat_20_n02123159_1359.png
subject-02,1,887,0.473755121231079,oven,oven,270,0887_rot_s02_270_oven_20_n04111531_9688.png
subject-02,1,888,0.496390104293823,bear,bear,90,0888_rot_s02_90_bear_20_n02132136_1023.png
subject-02,1,889,0.457742929458618,bottle,bottle,90,0889_rot_s02_90_bottle_20_n04557648_132.png
subject-02,1,890,0.510226011276245,airplane,airplane,90,0890_rot_s02_90_airplane_20_n02690373_3313.png
subject-02,1,891,0.754292964935303,knife,knife,0,0891_rot_s02_0_knife_20_n03041632_49570.png
subject-02,1,892,0.562824964523315,cat,cat,90,0892_rot_s02_90_cat_20_n02124075_10896.png
subject-02,1,893,0.531175851821899,boat,boat,0,0893_rot_s02_0_boat_20_n03344393_1147.png
subject-02,1,894,0.809360027313232,airplane,airplane,270,0894_rot_s02_270_airplane_20_n02690373_5176.png
subject-02,1,895,0.532922983169556,keyboard,keyboard,0,0895_rot_s02_0_keyboard_20_n03085013_22417.png
subject-02,1,896,0.587641954421997,truck,keyboard,90,0896_rot_s02_90_keyboard_20_n04505470_3107.png
subject-02,1,897,0.618151903152466,truck,truck,90,0897_rot_s02_90_truck_20_n03796401_2988.png
subject-02,1,898,0.55678391456604,keyboard,keyboard,90,0898_rot_s02_90_keyboard_20_n03085013_16724.png
subject-02,1,899,0.372994899749756,car,car,270,0899_rot_s02_270_car_20_n04285008_793.png
subject-02,1,900,0.879436016082764,airplane,airplane,270,0900_rot_s02_270_airplane_20_n02690373_1733.png
subject-02,1,901,0.955565929412842,bird,bird,90,0901_rot_s02_90_bird_20_n01855672_38663.png
subject-02,1,902,NaN,na,elephant,0,0902_rot_s02_0_elephant_20_n02504013_7064.png
subject-02,1,903,0.61955714225769,airplane,airplane,0,0903_rot_s02_0_airplane_20_n02690373_6332.png
subject-02,1,904,0.872093915939331,knife,knife,180,0904_rot_s02_180_knife_20_n03041632_4975.png
subject-02,1,905,0.680201053619385,cat,cat,180,0905_rot_s02_180_cat_20_n02123394_2285.png
subject-02,1,906,0.564701080322266,bottle,bottle,270,0906_rot_s02_270_bottle_20_n03937543_1504.png
subject-02,1,907,0.869888067245483,clock,clock,0,0907_rot_s02_0_clock_20_n04548280_3013.png
subject-02,1,908,0.845853090286255,truck,clock,270,0908_rot_s02_270_clock_20_n02708093_8073.png
subject-02,1,909,0.589460134506226,bear,bear,90,0909_rot_s02_90_bear_20_n02132136_19728.png
subject-02,1,910,0.766036033630371,airplane,airplane,0,0910_rot_s02_0_airplane_20_n02690373_8815.png
subject-02,1,911,0.535619974136353,bicycle,bicycle,180,0911_rot_s02_180_bicycle_20_n02835271_15925.png
subject-02,1,912,0.558678150177002,cat,cat,180,0912_rot_s02_180_cat_20_n02123597_4773.png
subject-02,1,913,0.743297100067139,keyboard,keyboard,0,0913_rot_s02_0_keyboard_20_n03085013_30073.png
subject-02,1,914,0.705837965011597,truck,truck,270,0914_rot_s02_270_truck_20_n04467665_30935.png
subject-02,1,915,0.711400032043457,dog,dog,180,0915_rot_s02_180_dog_20_n02113799_18593.png
subject-02,1,916,0.490682125091553,bear,bear,180,0916_rot_s02_180_bear_20_n02134084_6948.png
subject-02,1,917,0.620214939117432,elephant,elephant,0,0917_rot_s02_0_elephant_20_n02504013_1515.png
subject-02,1,918,0.481277942657471,boat,boat,0,0918_rot_s02_0_boat_20_n03662601_16673.png
subject-02,1,919,0.627303838729858,bicycle,bicycle,270,0919_rot_s02_270_bicycle_20_n02835271_14544.png
subject-02,1,920,0.427819967269897,cat,dog,0,0920_rot_s02_0_dog_20_n02094258_5674.png
subject-02,1,921,0.541768074035645,clock,clock,180,0921_rot_s02_180_clock_20_n04548280_4042.png
subject-02,1,922,0.643121957778931,truck,truck,270,0922_rot_s02_270_truck_20_n04467665_2044.png
subject-02,1,923,0.665338039398193,bottle,bottle,270,0923_rot_s02_270_bottle_20_n02823428_1290.png
subject-02,1,924,0.812156915664673,bicycle,bicycle,180,0924_rot_s02_180_bicycle_20_n03792782_14160.png
subject-02,1,925,0.750806093215942,clock,clock,0,0925_rot_s02_0_clock_20_n03196217_3558.png
subject-02,1,926,0.796350002288818,chair,chair,180,0926_rot_s02_180_chair_20_n03376595_3882.png
subject-02,1,927,0.643954992294312,truck,truck,90,0927_rot_s02_90_truck_20_n04467665_13231.png
subject-02,1,928,0.705081939697266,knife,knife,180,0928_rot_s02_180_knife_20_n03041632_21425.png
subject-02,1,929,0.797677993774414,car,car,270,0929_rot_s02_270_car_20_n02814533_45210.png
subject-02,1,930,0.73536205291748,bottle,bottle,270,0930_rot_s02_270_bottle_20_n04557648_5619.png
subject-02,1,931,0.965382814407349,car,car,0,0931_rot_s02_0_car_20_n03100240_6577.png
subject-02,1,932,0.55004096031189,boat,boat,0,0932_rot_s02_0_boat_20_n04612504_10311.png
subject-02,1,933,0.774534940719604,chair,chair,0,0933_rot_s02_0_chair_20_n04099969_17727.png
subject-02,1,934,0.997385025024414,elephant,elephant,270,0934_rot_s02_270_elephant_20_n02504458_9876.png
subject-02,1,935,0.581140995025635,bear,bear,180,0935_rot_s02_180_bear_20_n02134084_7274.png
subject-02,1,936,0.641916990280151,dog,dog,90,0936_rot_s02_90_dog_20_n02097130_5178.png
subject-02,1,937,0.604183912277222,cat,chair,90,0937_rot_s02_90_chair_20_n04099969_2472.png
subject-02,1,938,0.534812211990356,truck,truck,90,0938_rot_s02_90_truck_20_n03417042_23546.png
subject-02,1,939,0.565777063369751,keyboard,keyboard,180,0939_rot_s02_180_keyboard_20_n04505470_7161.png
subject-02,1,940,0.541369915008545,oven,oven,180,0940_rot_s02_180_oven_20_n04111531_2086.png
subject-02,1,941,0.688843011856079,car,airplane,90,0941_rot_s02_90_airplane_20_n02690373_2509.png
subject-02,1,942,0.888703107833862,car,boat,90,0942_rot_s02_90_boat_20_n03662601_28424.png
subject-02,1,943,0.605163097381592,chair,chair,270,0943_rot_s02_270_chair_20_n02791124_60.png
subject-02,1,944,0.782518148422241,truck,truck,90,0944_rot_s02_90_truck_20_n04467665_70844.png
subject-02,1,945,0.504593133926392,bottle,bottle,180,0945_rot_s02_180_bottle_20_n04591713_3402.png
subject-02,1,946,0.513791084289551,oven,oven,180,0946_rot_s02_180_oven_20_n04111531_18648.png
subject-02,1,947,0.644686937332153,car,car,90,0947_rot_s02_90_car_20_n02814533_86307.png
subject-02,1,948,0.606969833374023,bird,bird,0,0948_rot_s02_0_bird_20_n01514859_9790.png
subject-02,1,949,0.591891050338745,airplane,airplane,180,0949_rot_s02_180_airplane_20_n02690373_10061.png
subject-02,1,950,0.538745164871216,bicycle,bicycle,180,0950_rot_s02_180_bicycle_20_n02835271_12799.png
subject-02,1,951,0.784527063369751,knife,knife,180,0951_rot_s02_180_knife_20_n03041632_14293.png
subject-02,1,952,0.58502197265625,car,car,270,0952_rot_s02_270_car_20_n03100240_1216.png
subject-02,1,953,0.440486907958984,chair,chair,0,0953_rot_s02_0_chair_20_n03376595_6135.png
subject-02,1,954,0.69277286529541,bottle,dog,90,0954_rot_s02_90_dog_20_n02107683_2814.png
subject-02,1,955,0.82384204864502,truck,oven,90,0955_rot_s02_90_oven_20_n04111531_10555.png
subject-02,1,956,0.639703035354614,chair,chair,0,0956_rot_s02_0_chair_20_n03376595_7009.png
subject-02,1,957,0.62418007850647,boat,boat,180,0957_rot_s02_180_boat_20_n03662601_2414.png
subject-02,1,958,0.524752855300903,cat,cat,0,0958_rot_s02_0_cat_20_n02125311_43078.png
subject-02,1,959,0.663187026977539,bird,bird,180,0959_rot_s02_180_bird_20_n02025239_3424.png
subject-02,1,960,0.716430187225342,elephant,elephant,90,0960_rot_s02_90_elephant_20_n02504458_1604.png
subject-02,1,961,0.622212171554565,oven,oven,0,0961_rot_s02_0_oven_20_n04111531_409.png
subject-02,1,962,0.500615119934082,bottle,bottle,0,0962_rot_s02_0_bottle_20_n03983396_4843.png
subject-02,1,963,0.914891958236694,chair,chair,90,0963_rot_s02_90_chair_20_n04099969_2561.png
subject-02,1,964,0.461456060409546,airplane,airplane,0,0964_rot_s02_0_airplane_20_n02690373_3050.png
subject-02,1,965,0.576602935791016,car,car,180,0965_rot_s02_180_car_20_n02814533_73944.png
subject-02,1,966,0.547231912612915,bear,bear,90,0966_rot_s02_90_bear_20_n02133161_13259.png
subject-02,1,967,0.653947830200195,keyboard,keyboard,270,0967_rot_s02_270_keyboard_20_n04505470_5150.png
subject-02,1,968,0.891566038131714,dog,dog,90,0968_rot_s02_90_dog_20_n02105251_454.png
subject-02,1,969,0.522197961807251,car,car,180,0969_rot_s02_180_car_20_n04285008_13759.png
subject-02,1,970,0.63123893737793,bird,bird,0,0970_rot_s02_0_bird_20_n01616318_5053.png
subject-02,1,971,0.629090070724487,knife,knife,180,0971_rot_s02_180_knife_20_n03041632_2184.png
subject-02,1,972,0.70767617225647,keyboard,keyboard,180,0972_rot_s02_180_keyboard_20_n04505470_10211.png
subject-02,1,973,0.722541809082031,clock,clock,0,0973_rot_s02_0_clock_20_n02708093_556.png
subject-02,1,974,0.869101047515869,bird,cat,270,0974_rot_s02_270_cat_20_n02125311_7991.png
subject-02,1,975,0.66712498664856,truck,truck,270,0975_rot_s02_270_truck_20_n04467665_46341.png
subject-02,1,976,0.599776983261108,keyboard,keyboard,0,0976_rot_s02_0_keyboard_20_n04505470_4790.png
subject-02,1,977,1.37390899658203,knife,knife,0,0977_rot_s02_0_knife_20_n03041632_12130.png
subject-02,1,978,0.598890781402588,keyboard,keyboard,90,0978_rot_s02_90_keyboard_20_n03085013_23100.png
subject-02,1,979,0.552951812744141,knife,knife,270,0979_rot_s02_270_knife_20_n03041632_52371.png
subject-02,1,980,0.81394100189209,elephant,elephant,270,0980_rot_s02_270_elephant_20_n02504013_3210.png
subject-02,1,981,0.767498970031738,elephant,elephant,180,0981_rot_s02_180_elephant_20_n02504013_12615.png
subject-02,1,982,0.774157047271729,bicycle,bicycle,90,0982_rot_s02_90_bicycle_20_n02835271_703.png
subject-02,1,983,0.544886827468872,oven,knife,0,0983_rot_s02_0_knife_20_n03041632_30079.png
subject-02,1,984,0.766760110855103,car,car,180,0984_rot_s02_180_car_20_n04285008_8668.png
subject-02,1,985,0.773119926452637,elephant,elephant,0,0985_rot_s02_0_elephant_20_n02504013_18792.png
subject-02,1,986,1.44059109687805,chair,chair,0,0986_rot_s02_0_chair_20_n02791124_8002.png
subject-02,1,987,0.585880041122437,cat,cat,0,0987_rot_s02_0_cat_20_n02123394_5731.png
subject-02,1,988,0.786117076873779,airplane,airplane,180,0988_rot_s02_180_airplane_20_n02690373_8967.png
subject-02,1,989,0.454586982727051,car,car,180,0989_rot_s02_180_car_20_n03100240_203.png
subject-02,1,990,0.63900089263916,elephant,elephant,90,0990_rot_s02_90_elephant_20_n02504458_847.png
subject-02,1,991,0.655061960220337,knife,knife,0,0991_rot_s02_0_knife_20_n03041632_13509.png
subject-02,1,992,0.662007093429565,knife,knife,0,0992_rot_s02_0_knife_20_n03041632_104379.png
subject-02,1,993,0.592557907104492,oven,oven,90,0993_rot_s02_90_oven_20_n04111531_13801.png
subject-02,1,994,0.438576936721802,bicycle,bicycle,90,0994_rot_s02_90_bicycle_20_n02835271_16580.png
subject-02,1,995,0.777101993560791,dog,dog,180,0995_rot_s02_180_dog_20_n02105641_4154.png
subject-02,1,996,0.76938796043396,bicycle,bicycle,90,0996_rot_s02_90_bicycle_20_n03792782_1418.png
subject-02,1,997,0.467665910720825,bottle,bottle,0,0997_rot_s02_0_bottle_20_n03937543_1827.png
subject-02,1,998,0.746326923370361,bottle,keyboard,90,0998_rot_s02_90_keyboard_20_n04505470_489.png
subject-02,1,999,0.906551837921143,bottle,bottle,270,0999_rot_s02_270_bottle_20_n04557648_2631.png
subject-02,1,1000,0.752824068069458,bear,bear,0,1000_rot_s02_0_bear_20_n02133161_1244.png
subject-02,1,1001,0.783390998840332,bird,bird,0,1001_rot_s02_0_bird_20_n02051845_1656.png
subject-02,1,1002,0.460805892944336,keyboard,keyboard,0,1002_rot_s02_0_keyboard_20_n03085013_2300.png
subject-02,1,1003,0.552170038223267,oven,oven,0,1003_rot_s02_0_oven_20_n04111531_19104.png
subject-02,1,1004,0.698034048080444,clock,oven,90,1004_rot_s02_90_oven_20_n04111531_5792.png
subject-02,1,1005,0.590651035308838,knife,knife,270,1005_rot_s02_270_knife_20_n03041632_21477.png
subject-02,1,1006,0.566431045532227,dog,dog,180,1006_rot_s02_180_dog_20_n02100877_9070.png
subject-02,1,1007,0.457972049713135,bear,bear,90,1007_rot_s02_90_bear_20_n02133161_6593.png
subject-02,1,1008,0.564548015594482,airplane,airplane,270,1008_rot_s02_270_airplane_20_n02690373_6720.png
subject-02,1,1009,0.764896154403687,clock,clock,90,1009_rot_s02_90_clock_20_n04548280_1438.png
subject-02,1,1010,0.657634019851685,boat,boat,0,1010_rot_s02_0_boat_20_n03344393_5833.png
subject-02,1,1011,0.650542020797729,airplane,airplane,270,1011_rot_s02_270_airplane_20_n02690373_4243.png
subject-02,1,1012,0.574908971786499,boat,boat,0,1012_rot_s02_0_boat_20_n02951358_14280.png
subject-02,1,1013,0.689158916473389,cat,cat,270,1013_rot_s02_270_cat_20_n02123159_6932.png
subject-02,1,1014,0.703035831451416,cat,cat,0,1014_rot_s02_0_cat_20_n02123597_6319.png
subject-02,1,1015,0.489522933959961,clock,clock,180,1015_rot_s02_180_clock_20_n04548280_4839.png
subject-02,1,1016,0.673923969268799,clock,clock,180,1016_rot_s02_180_clock_20_n02708093_7967.png
subject-02,1,1017,0.604635953903198,bear,bear,270,1017_rot_s02_270_bear_20_n02134084_15873.png
subject-02,1,1018,0.420950889587402,cat,cat,90,1018_rot_s02_90_cat_20_n02123159_4856.png
subject-02,1,1019,0.751943111419678,boat,dog,180,1019_rot_s02_180_dog_20_n02093647_1903.png
subject-02,1,1020,0.590101957321167,car,car,0,1020_rot_s02_0_car_20_n04285008_6773.png
subject-02,1,1021,0.812623977661133,knife,knife,270,1021_rot_s02_270_knife_20_n03041632_24100.png
subject-02,1,1022,0.526700973510742,clock,clock,180,1022_rot_s02_180_clock_20_n04548280_7828.png
subject-02,1,1023,0.467950105667114,car,car,270,1023_rot_s02_270_car_20_n03100240_5842.png
subject-02,1,1024,0.62863302230835,chair,chair,180,1024_rot_s02_180_chair_20_n04099969_16079.png
subject-02,1,1025,0.81334400177002,elephant,elephant,0,1025_rot_s02_0_elephant_20_n02504013_8834.png
subject-02,1,1026,0.921528816223145,car,boat,180,1026_rot_s02_180_boat_20_n04273569_13540.png
subject-02,1,1027,0.614759206771851,chair,chair,0,1027_rot_s02_0_chair_20_n04099969_10903.png
subject-02,1,1028,0.706876039505005,bicycle,bicycle,0,1028_rot_s02_0_bicycle_20_n03792782_12844.png
subject-02,1,1029,0.937681913375854,bird,oven,180,1029_rot_s02_180_oven_20_n04111531_766.png
subject-02,1,1030,0.530208110809326,chair,car,90,1030_rot_s02_90_car_20_n03100240_2108.png
subject-02,1,1031,0.760513782501221,truck,truck,270,1031_rot_s02_270_truck_20_n03417042_8374.png
subject-02,1,1032,0.899322986602783,dog,bear,90,1032_rot_s02_90_bear_20_n02134418_9463.png
subject-02,1,1033,1.32159805297852,truck,bicycle,180,1033_rot_s02_180_bicycle_20_n02835271_8399.png
subject-02,1,1034,0.700062036514282,bottle,knife,0,1034_rot_s02_0_knife_20_n03041632_20433.png
subject-02,1,1035,0.670840978622437,elephant,elephant,180,1035_rot_s02_180_elephant_20_n02504458_7331.png
subject-02,1,1036,0.630929946899414,truck,truck,180,1036_rot_s02_180_truck_20_n04467665_31933.png
subject-02,1,1037,0.55322790145874,bottle,oven,180,1037_rot_s02_180_oven_20_n04111531_7252.png
subject-02,1,1038,0.784633159637451,bottle,bottle,180,1038_rot_s02_180_bottle_20_n03937543_6844.png
subject-02,1,1039,NaN,na,cat,180,1039_rot_s02_180_cat_20_n02125311_58775.png
subject-02,1,1040,0.654888153076172,car,car,270,1040_rot_s02_270_car_20_n02814533_12348.png
subject-02,1,1041,0.661268949508667,cat,cat,270,1041_rot_s02_270_cat_20_n02123159_1042.png
subject-02,1,1042,0.668050050735474,bottle,bottle,180,1042_rot_s02_180_bottle_20_n02823428_3715.png
subject-02,1,1043,1.02990794181824,airplane,airplane,180,1043_rot_s02_180_airplane_20_n02690373_2203.png
subject-02,1,1044,0.57687783241272,car,car,180,1044_rot_s02_180_car_20_n02814533_42777.png
subject-02,1,1045,0.823518991470337,truck,truck,90,1045_rot_s02_90_truck_20_n04467665_59509.png
subject-02,1,1046,0.737212896347046,boat,boat,90,1046_rot_s02_90_boat_20_n04273569_29113.png
subject-02,1,1047,0.52178692817688,clock,clock,90,1047_rot_s02_90_clock_20_n04548280_4364.png
subject-02,1,1048,0.676138877868652,keyboard,keyboard,180,1048_rot_s02_180_keyboard_20_n04505470_3433.png
subject-02,1,1049,0.668458938598633,knife,knife,270,1049_rot_s02_270_knife_20_n03041632_11327.png
subject-02,1,1050,0.622581958770752,cat,keyboard,270,1050_rot_s02_270_keyboard_20_n03085013_24649.png
subject-02,1,1051,0.629022836685181,bottle,bottle,0,1051_rot_s02_0_bottle_20_n04560804_8076.png
subject-02,1,1052,0.676023006439209,dog,dog,270,1052_rot_s02_270_dog_20_n02093647_5867.png
subject-02,1,1053,0.968178033828735,bear,bear,0,1053_rot_s02_0_bear_20_n02132136_5967.png
subject-02,1,1054,0.606966972351074,keyboard,keyboard,90,1054_rot_s02_90_keyboard_20_n04505470_1516.png
