subj,session,trial,rt,object_response,category,condition,imagename
subject-04,1,1,0.675240993499756,airplane,airplane,270,0001_rot_s04_270_airplane_20_n02690373_3473.png
subject-04,1,2,0.528134107589722,boat,boat,0,0002_rot_s04_0_boat_20_n03344393_10327.png
subject-04,1,3,1.00392079353333,truck,truck,270,0003_rot_s04_270_truck_20_n04467665_11370.png
subject-04,1,4,0.622573852539062,clock,clock,0,0004_rot_s04_0_clock_20_n03196217_13380.png
subject-04,1,5,0.598059892654419,car,car,90,0005_rot_s04_90_car_20_n02814533_43179.png
subject-04,1,6,0.710434913635254,clock,clock,270,0006_rot_s04_270_clock_20_n04548280_3305.png
subject-04,1,7,0.954267978668213,keyboard,truck,270,0007_rot_s04_270_truck_20_n03796401_7022.png
subject-04,1,8,0.660247087478638,oven,oven,90,0008_rot_s04_90_oven_20_n04111531_6533.png
subject-04,1,9,0.836775064468384,bicycle,bicycle,270,0009_rot_s04_270_bicycle_20_n03792782_30446.png
subject-04,1,10,0.637084007263184,airplane,airplane,180,0010_rot_s04_180_airplane_20_n02690373_10399.png
subject-04,1,11,0.705489873886108,car,car,180,0011_rot_s04_180_car_20_n03100240_1435.png
subject-04,1,12,1.44149303436279,bear,bear,180,0012_rot_s04_180_bear_20_n02134084_12917.png
subject-04,1,13,0.75797700881958,elephant,elephant,180,0013_rot_s04_180_elephant_20_n02504013_6751.png
subject-04,1,14,0.788270950317383,cat,bird,180,0014_rot_s04_180_bird_20_n02011460_5959.png
subject-04,1,15,0.910686016082764,boat,airplane,0,0015_rot_s04_0_airplane_20_n02690373_4982.png
subject-04,1,16,0.657129049301147,airplane,airplane,0,0016_rot_s04_0_airplane_20_n02690373_10514.png
subject-04,1,17,0.533032894134521,clock,clock,270,0017_rot_s04_270_clock_20_n02708093_2762.png
subject-04,1,18,0.6093909740448,elephant,elephant,0,0018_rot_s04_0_elephant_20_n02504013_2856.png
subject-04,1,19,1.0456428527832,elephant,elephant,270,0019_rot_s04_270_elephant_20_n02504013_2402.png
subject-04,1,20,0.791851043701172,knife,knife,0,0020_rot_s04_0_knife_20_n03041632_32197.png
subject-04,1,21,0.714733839035034,bottle,bottle,90,0021_rot_s04_90_bottle_20_n02823428_4063.png
subject-04,1,22,0.866398096084595,clock,clock,90,0022_rot_s04_90_clock_20_n02708093_1300.png
subject-04,1,23,1.25878190994263,oven,oven,270,0023_rot_s04_270_oven_20_n04111531_22445.png
subject-04,1,24,0.711188793182373,chair,chair,270,0024_rot_s04_270_chair_20_n04099969_23222.png
subject-04,1,25,0.66540002822876,chair,chair,270,0025_rot_s04_270_chair_20_n02791124_13726.png
subject-04,1,26,0.632883071899414,bottle,bottle,0,0026_rot_s04_0_bottle_20_n03983396_8591.png
subject-04,1,27,0.714989185333252,truck,truck,0,0027_rot_s04_0_truck_20_n04467665_10025.png
subject-04,1,28,NaN,na,boat,90,0028_rot_s04_90_boat_20_n02951358_15750.png
subject-04,1,29,1.00546002388,bear,bear,90,0029_rot_s04_90_bear_20_n02133161_2247.png
subject-04,1,30,0.627454996109009,keyboard,keyboard,270,0030_rot_s04_270_keyboard_20_n04505470_1717.png
subject-04,1,31,0.881968975067139,cat,cat,0,0031_rot_s04_0_cat_20_n02123597_6917.png
subject-04,1,32,0.666687965393066,bear,bear,180,0032_rot_s04_180_bear_20_n02134084_791.png
subject-04,1,33,0.703021049499512,cat,bear,180,0033_rot_s04_180_bear_20_n02132136_34191.png
subject-04,1,34,0.733458042144775,truck,truck,270,0034_rot_s04_270_truck_20_n03796401_3700.png
subject-04,1,35,1.08527612686157,cat,cat,270,0035_rot_s04_270_cat_20_n02125311_55771.png
subject-04,1,36,0.807431221008301,dog,dog,0,0036_rot_s04_0_dog_20_n02093991_834.png
subject-04,1,37,1.09194707870483,bear,elephant,270,0037_rot_s04_270_elephant_20_n02504013_8834.png
subject-04,1,38,0.946583986282349,knife,knife,180,0038_rot_s04_180_knife_20_n03041632_23736.png
subject-04,1,39,0.674670219421387,keyboard,keyboard,180,0039_rot_s04_180_keyboard_20_n04505470_4243.png
subject-04,1,40,0.874958038330078,car,car,270,0040_rot_s04_270_car_20_n02814533_5278.png
subject-04,1,41,1.01135897636414,bear,bear,180,0041_rot_s04_180_bear_20_n02132136_16887.png
subject-04,1,42,0.957685947418213,bird,bird,180,0042_rot_s04_180_bird_20_n02009229_14428.png
subject-04,1,43,0.788389921188354,chair,chair,90,0043_rot_s04_90_chair_20_n03376595_1502.png
subject-04,1,44,0.934703826904297,chair,oven,270,0044_rot_s04_270_oven_20_n04111531_5519.png
subject-04,1,45,0.917191982269287,boat,boat,270,0045_rot_s04_270_boat_20_n03344393_7866.png
subject-04,1,46,0.794049024581909,bear,bear,0,0046_rot_s04_0_bear_20_n02132136_7602.png
subject-04,1,47,0.88637900352478,cat,cat,270,0047_rot_s04_270_cat_20_n02123597_2285.png
subject-04,1,48,0.70081901550293,boat,boat,0,0048_rot_s04_0_boat_20_n03662601_11556.png
subject-04,1,49,0.793317079544067,elephant,elephant,180,0049_rot_s04_180_elephant_20_n02504013_16969.png
subject-04,1,50,0.839932203292847,boat,boat,270,0050_rot_s04_270_boat_20_n03662601_2233.png
subject-04,1,51,1.01627397537231,cat,bird,270,0051_rot_s04_270_bird_20_n02007558_3446.png
subject-04,1,52,0.768872022628784,knife,knife,0,0052_rot_s04_0_knife_20_n03041632_22286.png
subject-04,1,53,0.907035112380981,cat,cat,270,0053_rot_s04_270_cat_20_n02123045_1812.png
subject-04,1,54,0.759438991546631,bottle,bottle,270,0054_rot_s04_270_bottle_20_n04579145_4043.png
subject-04,1,55,0.713884115219116,airplane,airplane,270,0055_rot_s04_270_airplane_20_n02690373_10382.png
subject-04,1,56,0.695630073547363,truck,truck,180,0056_rot_s04_180_truck_20_n03417042_27446.png
subject-04,1,57,0.896131992340088,chair,chair,0,0057_rot_s04_0_chair_20_n02791124_6843.png
subject-04,1,58,0.794361114501953,knife,knife,180,0058_rot_s04_180_knife_20_n03041632_26933.png
subject-04,1,59,1.44667911529541,bear,bear,180,0059_rot_s04_180_bear_20_n02132136_152.png
subject-04,1,60,0.746730089187622,elephant,elephant,180,0060_rot_s04_180_elephant_20_n02504013_21730.png
subject-04,1,61,0.820983171463013,bottle,bicycle,90,0061_rot_s04_90_bicycle_20_n03792782_1394.png
subject-04,1,62,0.783441066741943,clock,clock,180,0062_rot_s04_180_clock_20_n04548280_3615.png
subject-04,1,63,1.29533100128174,keyboard,chair,180,0063_rot_s04_180_chair_20_n02791124_1555.png
subject-04,1,64,1.03390097618103,oven,knife,0,0064_rot_s04_0_knife_20_n03041632_3516.png
subject-04,1,65,0.788700103759766,bird,bird,270,0065_rot_s04_270_bird_20_n02018207_32236.png
subject-04,1,66,0.702849149703979,clock,clock,90,0066_rot_s04_90_clock_20_n02708093_2619.png
subject-04,1,67,0.733596086502075,cat,cat,90,0067_rot_s04_90_cat_20_n02124075_416.png
subject-04,1,68,0.947962999343872,boat,boat,90,0068_rot_s04_90_boat_20_n02951358_10431.png
subject-04,1,69,1.05454397201538,bear,bear,0,0069_rot_s04_0_bear_20_n02134084_342.png
subject-04,1,70,0.87075400352478,chair,chair,270,0070_rot_s04_270_chair_20_n04099969_4229.png
subject-04,1,71,NaN,na,airplane,180,0071_rot_s04_180_airplane_20_n02690373_2038.png
subject-04,1,72,1.05397200584412,dog,dog,0,0072_rot_s04_0_dog_20_n02108915_12294.png
subject-04,1,73,1.046550989151,airplane,airplane,270,0073_rot_s04_270_airplane_20_n02690373_12896.png
subject-04,1,74,0.914983987808228,cat,bear,180,0074_rot_s04_180_bear_20_n02132136_10790.png
subject-04,1,75,0.799424886703491,elephant,elephant,0,0075_rot_s04_0_elephant_20_n02504458_361.png
subject-04,1,76,0.843507051467896,chair,chair,180,0076_rot_s04_180_chair_20_n04099969_8640.png
subject-04,1,77,0.703775882720947,keyboard,keyboard,90,0077_rot_s04_90_keyboard_20_n04505470_4537.png
subject-04,1,78,0.704235076904297,bicycle,bicycle,90,0078_rot_s04_90_bicycle_20_n03792782_7713.png
subject-04,1,79,0.780668973922729,clock,clock,90,0079_rot_s04_90_clock_20_n04548280_8494.png
subject-04,1,80,0.979013919830322,dog,dog,270,0080_rot_s04_270_dog_20_n02100583_5869.png
subject-04,1,81,0.833832979202271,clock,clock,90,0081_rot_s04_90_clock_20_n03196217_599.png
subject-04,1,82,0.856369972229004,clock,clock,270,0082_rot_s04_270_clock_20_n04548280_3716.png
subject-04,1,83,0.892881155014038,boat,boat,0,0083_rot_s04_0_boat_20_n03344393_5985.png
subject-04,1,84,0.915018081665039,bear,bear,270,0084_rot_s04_270_bear_20_n02133161_5128.png
subject-04,1,85,0.761461019515991,clock,knife,90,0085_rot_s04_90_knife_20_n03041632_5102.png
subject-04,1,86,0.837782859802246,clock,clock,90,0086_rot_s04_90_clock_20_n04548280_2229.png
subject-04,1,87,1.06785082817078,bottle,bottle,270,0087_rot_s04_270_bottle_20_n04557648_8444.png
subject-04,1,88,1.04568815231323,dog,bird,90,0088_rot_s04_90_bird_20_n01843383_5844.png
subject-04,1,89,0.959825992584229,car,truck,0,0089_rot_s04_0_truck_20_n03417042_10957.png
subject-04,1,90,0.651983022689819,airplane,airplane,0,0090_rot_s04_0_airplane_20_n02690373_9718.png
subject-04,1,91,1.02020692825317,bear,cat,270,0091_rot_s04_270_cat_20_n02123159_2426.png
subject-04,1,92,0.664532899856567,bottle,bottle,270,0092_rot_s04_270_bottle_20_n04579145_4938.png
subject-04,1,93,0.808647871017456,elephant,elephant,90,0093_rot_s04_90_elephant_20_n02504458_8288.png
subject-04,1,94,1.02262401580811,airplane,airplane,180,0094_rot_s04_180_airplane_20_n02690373_5142.png
subject-04,1,95,0.738950967788696,bird,bird,180,0095_rot_s04_180_bird_20_n01558993_3745.png
subject-04,1,96,1.25922799110413,bear,knife,270,0096_rot_s04_270_knife_20_n03041632_18141.png
subject-04,1,97,1.21985793113708,dog,dog,180,0097_rot_s04_180_dog_20_n02091134_9580.png
subject-04,1,98,0.78231406211853,elephant,elephant,0,0098_rot_s04_0_elephant_20_n02504013_141.png
subject-04,1,99,1.15065789222717,car,car,90,0099_rot_s04_90_car_20_n02814533_20390.png
subject-04,1,100,0.695297956466675,bird,bird,270,0100_rot_s04_270_bird_20_n01582220_4897.png
subject-04,1,101,0.755785942077637,bicycle,bicycle,270,0101_rot_s04_270_bicycle_20_n02835271_18537.png
subject-04,1,102,0.67218017578125,car,car,0,0102_rot_s04_0_car_20_n04285008_9500.png
subject-04,1,103,0.940284967422485,bear,bear,180,0103_rot_s04_180_bear_20_n02134084_14400.png
subject-04,1,104,0.784731864929199,truck,truck,0,0104_rot_s04_0_truck_20_n04467665_45796.png
subject-04,1,105,0.953099012374878,truck,truck,0,0105_rot_s04_0_truck_20_n03796401_6966.png
subject-04,1,106,0.921539783477783,car,car,0,0106_rot_s04_0_car_20_n02814533_8115.png
subject-04,1,107,0.835798978805542,oven,oven,0,0107_rot_s04_0_oven_20_n04111531_5991.png
subject-04,1,108,1.02407193183899,boat,boat,270,0108_rot_s04_270_boat_20_n04612504_25501.png
subject-04,1,109,1.02261900901794,clock,clock,270,0109_rot_s04_270_clock_20_n02708093_2420.png
subject-04,1,110,1.03705191612244,elephant,oven,180,0110_rot_s04_180_oven_20_n04111531_1945.png
subject-04,1,111,0.951660871505737,car,car,0,0111_rot_s04_0_car_20_n04285008_6636.png
subject-04,1,112,0.9876389503479,boat,boat,90,0112_rot_s04_90_boat_20_n03662601_25881.png
subject-04,1,113,1.09600114822388,knife,knife,270,0113_rot_s04_270_knife_20_n03041632_32774.png
subject-04,1,114,0.9566650390625,boat,boat,0,0114_rot_s04_0_boat_20_n02951358_11325.png
subject-04,1,115,0.79489803314209,keyboard,keyboard,90,0115_rot_s04_90_keyboard_20_n04505470_5088.png
subject-04,1,116,0.863289833068848,airplane,airplane,270,0116_rot_s04_270_airplane_20_n02690373_152.png
subject-04,1,117,0.723853826522827,bottle,bottle,270,0117_rot_s04_270_bottle_20_n03937543_10861.png
subject-04,1,118,0.946211814880371,bicycle,clock,0,0118_rot_s04_0_clock_20_n03196217_5742.png
subject-04,1,119,0.790179014205933,bicycle,dog,90,0119_rot_s04_90_dog_20_n02104365_7334.png
subject-04,1,120,0.712914943695068,keyboard,keyboard,0,0120_rot_s04_0_keyboard_20_n03085013_20398.png
subject-04,1,121,0.727167129516602,boat,boat,270,0121_rot_s04_270_boat_20_n02951358_21089.png
subject-04,1,122,1.09587788581848,airplane,airplane,180,0122_rot_s04_180_airplane_20_n02690373_2569.png
subject-04,1,123,0.918308973312378,bicycle,bicycle,90,0123_rot_s04_90_bicycle_20_n03792782_737.png
subject-04,1,124,0.856306076049805,bear,bear,0,0124_rot_s04_0_bear_20_n02132136_1211.png
subject-04,1,125,0.801006078720093,clock,clock,270,0125_rot_s04_270_clock_20_n04548280_7085.png
subject-04,1,126,0.893518209457397,car,car,90,0126_rot_s04_90_car_20_n03100240_3917.png
subject-04,1,127,0.87797999382019,boat,boat,270,0127_rot_s04_270_boat_20_n02951358_7471.png
subject-04,1,128,0.904367923736572,clock,cat,90,0128_rot_s04_90_cat_20_n02123394_6265.png
subject-04,1,129,0.87066388130188,chair,chair,0,0129_rot_s04_0_chair_20_n03376595_12251.png
subject-04,1,130,1.07555103302002,dog,dog,90,0130_rot_s04_90_dog_20_n02099712_4066.png
subject-04,1,131,0.911529779434204,bicycle,bicycle,0,0131_rot_s04_0_bicycle_20_n02835271_12957.png
subject-04,1,132,1.09618592262268,cat,bird,180,0132_rot_s04_180_bird_20_n01818515_13272.png
subject-04,1,133,0.934330940246582,bear,boat,0,0133_rot_s04_0_boat_20_n04273569_3460.png
subject-04,1,134,0.816612005233765,keyboard,keyboard,0,0134_rot_s04_0_keyboard_20_n03085013_23843.png
subject-04,1,135,1.01717305183411,bird,bird,270,0135_rot_s04_270_bird_20_n01622779_11953.png
subject-04,1,136,0.961604833602905,elephant,elephant,0,0136_rot_s04_0_elephant_20_n02504458_5946.png
subject-04,1,137,0.675979852676392,boat,boat,0,0137_rot_s04_0_boat_20_n04273569_12725.png
subject-04,1,138,0.66637110710144,chair,chair,270,0138_rot_s04_270_chair_20_n04099969_2707.png
subject-04,1,139,0.820161819458008,oven,chair,270,0139_rot_s04_270_chair_20_n02791124_3420.png
subject-04,1,140,0.648512125015259,knife,knife,270,0140_rot_s04_270_knife_20_n03041632_44738.png
subject-04,1,141,0.694996118545532,keyboard,keyboard,270,0141_rot_s04_270_keyboard_20_n03085013_8912.png
subject-04,1,142,0.831683874130249,cat,cat,270,0142_rot_s04_270_cat_20_n02123394_2579.png
subject-04,1,143,0.585847139358521,keyboard,keyboard,270,0143_rot_s04_270_keyboard_20_n04505470_4505.png
subject-04,1,144,1.2301778793335,cat,cat,180,0144_rot_s04_180_cat_20_n02123394_4542.png
subject-04,1,145,1.00695490837097,bicycle,bicycle,0,0145_rot_s04_0_bicycle_20_n03792782_17208.png
subject-04,1,146,0.634887933731079,airplane,airplane,0,0146_rot_s04_0_airplane_20_n02690373_6992.png
subject-04,1,147,0.819330930709839,clock,chair,90,0147_rot_s04_90_chair_20_n02791124_1248.png
subject-04,1,148,0.950016021728516,keyboard,bear,90,0148_rot_s04_90_bear_20_n02133161_491.png
subject-04,1,149,0.680325031280518,cat,cat,90,0149_rot_s04_90_cat_20_n02124075_10240.png
subject-04,1,150,0.7084641456604,cat,knife,180,0150_rot_s04_180_knife_20_n03041632_14546.png
subject-04,1,151,0.684270858764648,truck,truck,0,0151_rot_s04_0_truck_20_n03417042_29408.png
subject-04,1,152,1.49671816825867,boat,boat,90,0152_rot_s04_90_boat_20_n03662601_6340.png
subject-04,1,153,1.11115002632141,cat,cat,180,0153_rot_s04_180_cat_20_n02123394_6826.png
subject-04,1,154,0.91153621673584,cat,cat,180,0154_rot_s04_180_cat_20_n02123394_2730.png
subject-04,1,155,1.13169312477112,bird,bird,270,0155_rot_s04_270_bird_20_n01614925_1030.png
subject-04,1,156,0.815875053405762,clock,clock,0,0156_rot_s04_0_clock_20_n03196217_1690.png
subject-04,1,157,0.838063955307007,elephant,elephant,0,0157_rot_s04_0_elephant_20_n02504013_10948.png
subject-04,1,158,0.706526041030884,oven,chair,270,0158_rot_s04_270_chair_20_n02791124_6937.png
subject-04,1,159,0.850489854812622,boat,elephant,90,0159_rot_s04_90_elephant_20_n02504458_6379.png
subject-04,1,160,0.734440088272095,oven,oven,0,0160_rot_s04_0_oven_20_n04111531_13296.png
subject-04,1,161,0.797273874282837,elephant,elephant,270,0161_rot_s04_270_elephant_20_n02504458_6281.png
subject-04,1,162,0.743709087371826,cat,cat,0,0162_rot_s04_0_cat_20_n02123394_12.png
subject-04,1,163,0.809494972229004,oven,oven,270,0163_rot_s04_270_oven_20_n04111531_11157.png
subject-04,1,164,0.602000951766968,bottle,bottle,90,0164_rot_s04_90_bottle_20_n04591713_1992.png
subject-04,1,165,0.602347850799561,bicycle,bicycle,0,0165_rot_s04_0_bicycle_20_n02835271_12764.png
subject-04,1,166,1.12308406829834,dog,dog,90,0166_rot_s04_90_dog_20_n02107574_4265.png
subject-04,1,167,0.891157150268555,chair,chair,0,0167_rot_s04_0_chair_20_n02791124_9120.png
subject-04,1,168,0.804879188537598,bottle,oven,180,0168_rot_s04_180_oven_20_n04111531_10583.png
subject-04,1,169,0.735645055770874,bottle,bottle,90,0169_rot_s04_90_bottle_20_n04591713_4523.png
subject-04,1,170,0.573803186416626,cat,cat,0,0170_rot_s04_0_cat_20_n02124075_4279.png
subject-04,1,171,1.20954895019531,car,car,0,0171_rot_s04_0_car_20_n03100240_5456.png
subject-04,1,172,0.978087902069092,oven,knife,90,0172_rot_s04_90_knife_20_n03041632_11326.png
subject-04,1,173,1.03807783126831,truck,truck,270,0173_rot_s04_270_truck_20_n03417042_27497.png
subject-04,1,174,0.906595945358276,car,car,180,0174_rot_s04_180_car_20_n04285008_8677.png
subject-04,1,175,0.866895198822021,oven,oven,270,0175_rot_s04_270_oven_20_n04111531_2630.png
subject-04,1,176,0.805439949035645,boat,boat,270,0176_rot_s04_270_boat_20_n04273569_11530.png
subject-04,1,177,0.787826061248779,bottle,bottle,180,0177_rot_s04_180_bottle_20_n02823428_3523.png
subject-04,1,178,1.1403169631958,knife,elephant,180,0178_rot_s04_180_elephant_20_n02504458_2946.png
subject-04,1,179,0.892416954040527,airplane,airplane,0,0179_rot_s04_0_airplane_20_n02690373_10079.png
subject-04,1,180,1.45282697677612,cat,dog,0,0180_rot_s04_0_dog_20_n02099267_5079.png
subject-04,1,181,1.02360606193542,bird,bird,90,0181_rot_s04_90_bird_20_n01592084_3955.png
subject-04,1,182,0.830145835876465,oven,chair,90,0182_rot_s04_90_chair_20_n02791124_3731.png
subject-04,1,183,0.920569896697998,car,car,270,0183_rot_s04_270_car_20_n03100240_14018.png
subject-04,1,184,1.15906691551208,bear,bear,0,0184_rot_s04_0_bear_20_n02134084_16127.png
subject-04,1,185,0.827324151992798,clock,clock,180,0185_rot_s04_180_clock_20_n02708093_3674.png
subject-04,1,186,0.773576021194458,truck,truck,270,0186_rot_s04_270_truck_20_n03796401_599.png
subject-04,1,187,1.43185210227966,elephant,elephant,90,0187_rot_s04_90_elephant_20_n02504013_3282.png
subject-04,1,188,0.686694860458374,airplane,airplane,0,0188_rot_s04_0_airplane_20_n02690373_4306.png
subject-04,1,189,0.739207983016968,elephant,elephant,90,0189_rot_s04_90_elephant_20_n02504013_1494.png
subject-04,1,190,1.12925481796265,dog,cat,0,0190_rot_s04_0_cat_20_n02125311_19419.png
subject-04,1,191,0.759697914123535,car,car,270,0191_rot_s04_270_car_20_n03100240_6822.png
subject-04,1,192,0.88785195350647,cat,boat,180,0192_rot_s04_180_boat_20_n03344393_5909.png
subject-04,1,193,0.809276103973389,airplane,airplane,180,0193_rot_s04_180_airplane_20_n02690373_7487.png
subject-04,1,194,0.907933950424194,bird,bird,90,0194_rot_s04_90_bird_20_n01537544_12099.png
subject-04,1,195,1.50010204315186,clock,bottle,180,0195_rot_s04_180_bottle_20_n04560804_29573.png
subject-04,1,196,0.82886004447937,bicycle,bicycle,0,0196_rot_s04_0_bicycle_20_n02835271_8004.png
subject-04,1,197,0.990983963012695,airplane,airplane,270,0197_rot_s04_270_airplane_20_n02690373_1474.png
subject-04,1,198,0.781117916107178,airplane,airplane,0,0198_rot_s04_0_airplane_20_n02690373_7944.png
subject-04,1,199,0.947221994400024,keyboard,keyboard,0,0199_rot_s04_0_keyboard_20_n03085013_21025.png
subject-04,1,200,1.39177298545837,knife,knife,270,0200_rot_s04_270_knife_20_n03041632_48816.png
subject-04,1,201,0.830310821533203,boat,boat,180,0201_rot_s04_180_boat_20_n03662601_30731.png
subject-04,1,202,0.752904891967773,oven,oven,90,0202_rot_s04_90_oven_20_n04111531_2458.png
subject-04,1,203,0.720503091812134,car,car,0,0203_rot_s04_0_car_20_n04285008_14984.png
subject-04,1,204,0.750952005386353,car,car,0,0204_rot_s04_0_car_20_n04285008_7781.png
subject-04,1,205,0.726930141448975,bear,bear,90,0205_rot_s04_90_bear_20_n02133161_2137.png
subject-04,1,206,0.733453035354614,bicycle,bicycle,0,0206_rot_s04_0_bicycle_20_n02835271_1345.png
subject-04,1,207,0.571845054626465,bottle,bottle,0,0207_rot_s04_0_bottle_20_n04557648_3679.png
subject-04,1,208,1.36784887313843,keyboard,keyboard,270,0208_rot_s04_270_keyboard_20_n03085013_24392.png
subject-04,1,209,1.11385583877563,keyboard,chair,270,0209_rot_s04_270_chair_20_n02791124_5287.png
subject-04,1,210,0.711901187896729,dog,dog,270,0210_rot_s04_270_dog_20_n02102040_1227.png
subject-04,1,211,0.718255996704102,keyboard,keyboard,90,0211_rot_s04_90_keyboard_20_n04505470_272.png
subject-04,1,212,0.648235082626343,oven,knife,90,0212_rot_s04_90_knife_20_n03041632_84048.png
subject-04,1,213,0.754984855651855,keyboard,keyboard,180,0213_rot_s04_180_keyboard_20_n04505470_4547.png
subject-04,1,214,0.793431043624878,elephant,elephant,180,0214_rot_s04_180_elephant_20_n02504458_6428.png
subject-04,1,215,0.821364879608154,oven,dog,90,0215_rot_s04_90_dog_20_n02113712_244.png
subject-04,1,216,0.998248100280762,dog,dog,180,0216_rot_s04_180_dog_20_n02086646_8773.png
subject-04,1,217,0.696051836013794,airplane,airplane,270,0217_rot_s04_270_airplane_20_n02690373_8175.png
subject-04,1,218,0.580222845077515,oven,oven,180,0218_rot_s04_180_oven_20_n04111531_22413.png
subject-04,1,219,0.894708156585693,boat,boat,0,0219_rot_s04_0_boat_20_n03662601_5169.png
subject-04,1,220,0.676586866378784,airplane,airplane,90,0220_rot_s04_90_airplane_20_n02690373_9759.png
subject-04,1,221,0.699244976043701,keyboard,keyboard,180,0221_rot_s04_180_keyboard_20_n03085013_18989.png
subject-04,1,222,0.83751392364502,truck,truck,90,0222_rot_s04_90_truck_20_n03796401_15081.png
subject-04,1,223,0.912071943283081,cat,cat,90,0223_rot_s04_90_cat_20_n02124075_10541.png
subject-04,1,224,0.771632194519043,chair,chair,270,0224_rot_s04_270_chair_20_n04429376_23293.png
subject-04,1,225,0.831027984619141,bicycle,bicycle,90,0225_rot_s04_90_bicycle_20_n02835271_8020.png
subject-04,1,226,0.913420915603638,cat,dog,180,0226_rot_s04_180_dog_20_n02086646_4213.png
subject-04,1,227,0.873444795608521,dog,dog,0,0227_rot_s04_0_dog_20_n02092339_1606.png
subject-04,1,228,0.979085922241211,bird,bird,90,0228_rot_s04_90_bird_20_n02028035_8165.png
subject-04,1,229,0.831973075866699,boat,boat,90,0229_rot_s04_90_boat_20_n04273569_1061.png
subject-04,1,230,0.800043821334839,cat,cat,180,0230_rot_s04_180_cat_20_n02123597_5722.png
subject-04,1,231,1.43604683876038,chair,bicycle,0,0231_rot_s04_0_bicycle_20_n03792782_12075.png
subject-04,1,232,1.01209115982056,bottle,keyboard,180,0232_rot_s04_180_keyboard_20_n04505470_147.png
subject-04,1,233,1.0861599445343,knife,knife,180,0233_rot_s04_180_knife_20_n03041632_22988.png
subject-04,1,234,0.684479951858521,cat,cat,270,0234_rot_s04_270_cat_20_n02123159_1266.png
subject-04,1,235,0.82278299331665,oven,oven,270,0235_rot_s04_270_oven_20_n04111531_14269.png
subject-04,1,236,0.574799060821533,cat,cat,180,0236_rot_s04_180_cat_20_n02123159_1157.png
subject-04,1,237,0.534932136535645,chair,chair,90,0237_rot_s04_90_chair_20_n03376595_2020.png
subject-04,1,238,0.571291923522949,keyboard,keyboard,180,0238_rot_s04_180_keyboard_20_n03085013_7010.png
subject-04,1,239,0.601561784744263,car,car,90,0239_rot_s04_90_car_20_n04285008_8818.png
subject-04,1,240,0.691686868667603,airplane,airplane,0,0240_rot_s04_0_airplane_20_n02690373_60.png
subject-04,1,241,0.721752166748047,bottle,bottle,90,0241_rot_s04_90_bottle_20_n02823428_3505.png
subject-04,1,242,0.896237134933472,elephant,elephant,270,0242_rot_s04_270_elephant_20_n02504013_3903.png
subject-04,1,243,1.05682706832886,dog,dog,180,0243_rot_s04_180_dog_20_n02108422_3446.png
subject-04,1,244,1.07084608078003,car,car,270,0244_rot_s04_270_car_20_n03100240_8591.png
subject-04,1,245,0.907050132751465,keyboard,keyboard,270,0245_rot_s04_270_keyboard_20_n03085013_6644.png
subject-04,1,246,0.899744033813477,chair,chair,180,0246_rot_s04_180_chair_20_n04429376_2347.png
subject-04,1,247,0.744298934936523,elephant,elephant,270,0247_rot_s04_270_elephant_20_n02504458_1018.png
subject-04,1,248,1.14304304122925,dog,dog,180,0248_rot_s04_180_dog_20_n02107574_1661.png
subject-04,1,249,0.903373956680298,chair,chair,180,0249_rot_s04_180_chair_20_n04099969_16773.png
subject-04,1,250,0.625335931777954,keyboard,keyboard,0,0250_rot_s04_0_keyboard_20_n04505470_2601.png
subject-04,1,251,0.785422086715698,car,car,270,0251_rot_s04_270_car_20_n02814533_32802.png
subject-04,1,252,0.853943824768066,truck,truck,180,0252_rot_s04_180_truck_20_n03417042_5232.png
subject-04,1,253,0.844670057296753,clock,clock,90,0253_rot_s04_90_clock_20_n03196217_8999.png
subject-04,1,254,0.95924711227417,bottle,bottle,0,0254_rot_s04_0_bottle_20_n04560804_14090.png
subject-04,1,255,0.705662965774536,bear,bear,270,0255_rot_s04_270_bear_20_n02134084_11247.png
subject-04,1,256,0.704025983810425,knife,knife,180,0256_rot_s04_180_knife_20_n03041632_39952.png
subject-04,1,257,0.763943910598755,oven,oven,270,0257_rot_s04_270_oven_20_n04111531_15682.png
subject-04,1,258,0.862419843673706,boat,boat,180,0258_rot_s04_180_boat_20_n03344393_4210.png
subject-04,1,259,0.96097993850708,bird,bird,270,0259_rot_s04_270_bird_20_n02017213_12819.png
subject-04,1,260,0.975239038467407,car,chair,0,0260_rot_s04_0_chair_20_n04429376_39522.png
subject-04,1,261,1.0816969871521,airplane,boat,180,0261_rot_s04_180_boat_20_n03344393_6849.png
subject-04,1,262,0.750360012054443,bird,bird,180,0262_rot_s04_180_bird_20_n01798484_6622.png
subject-04,1,263,1.04025602340698,oven,bicycle,0,0263_rot_s04_0_bicycle_20_n03792782_7171.png
subject-04,1,264,0.746731996536255,bear,bear,270,0264_rot_s04_270_bear_20_n02134084_9437.png
subject-04,1,265,0.807047843933105,oven,oven,90,0265_rot_s04_90_oven_20_n04111531_18592.png
subject-04,1,266,0.735507011413574,clock,clock,90,0266_rot_s04_90_clock_20_n02708093_3622.png
subject-04,1,267,0.611860036849976,clock,clock,270,0267_rot_s04_270_clock_20_n03196217_3361.png
subject-04,1,268,0.696130037307739,bicycle,bicycle,90,0268_rot_s04_90_bicycle_20_n03792782_6841.png
subject-04,1,269,0.854822158813477,elephant,cat,90,0269_rot_s04_90_cat_20_n02123159_6420.png
subject-04,1,270,0.647243022918701,keyboard,keyboard,0,0270_rot_s04_0_keyboard_20_n03085013_6643.png
subject-04,1,271,0.691870927810669,chair,chair,270,0271_rot_s04_270_chair_20_n04429376_4675.png
subject-04,1,272,0.689926862716675,bicycle,bicycle,90,0272_rot_s04_90_bicycle_20_n02835271_6032.png
subject-04,1,273,0.866485834121704,boat,truck,270,0273_rot_s04_270_truck_20_n04467665_34586.png
subject-04,1,274,0.94054102897644,knife,knife,90,0274_rot_s04_90_knife_20_n03041632_6309.png
subject-04,1,275,0.76271390914917,keyboard,keyboard,0,0275_rot_s04_0_keyboard_20_n04505470_10697.png
subject-04,1,276,0.761209011077881,clock,clock,270,0276_rot_s04_270_clock_20_n02708093_8311.png
subject-04,1,277,0.77551794052124,chair,chair,270,0277_rot_s04_270_chair_20_n04099969_4816.png
subject-04,1,278,0.735543966293335,oven,truck,90,0278_rot_s04_90_truck_20_n03417042_11334.png
subject-04,1,279,0.780050039291382,keyboard,keyboard,0,0279_rot_s04_0_keyboard_20_n04505470_4742.png
subject-04,1,280,0.785353899002075,cat,cat,180,0280_rot_s04_180_cat_20_n02123159_359.png
subject-04,1,281,0.683977842330933,elephant,elephant,90,0281_rot_s04_90_elephant_20_n02504458_7207.png
subject-04,1,282,0.720000982284546,oven,oven,180,0282_rot_s04_180_oven_20_n04111531_1898.png
subject-04,1,283,0.880515098571777,bear,elephant,0,0283_rot_s04_0_elephant_20_n02504458_2953.png
subject-04,1,284,0.903018951416016,dog,dog,270,0284_rot_s04_270_dog_20_n02102177_7903.png
subject-04,1,285,0.717411994934082,keyboard,keyboard,270,0285_rot_s04_270_keyboard_20_n03085013_15484.png
subject-04,1,286,0.891592979431152,airplane,airplane,0,0286_rot_s04_0_airplane_20_n02690373_1974.png
subject-04,1,287,1.41128206253052,oven,bottle,0,0287_rot_s04_0_bottle_20_n04560804_2005.png
subject-04,1,288,0.949846029281616,truck,truck,180,0288_rot_s04_180_truck_20_n04467665_116.png
subject-04,1,289,0.850287914276123,cat,cat,0,0289_rot_s04_0_cat_20_n02123597_1534.png
subject-04,1,290,0.738734006881714,bear,bear,0,0290_rot_s04_0_bear_20_n02132136_16636.png
subject-04,1,291,1.01452302932739,chair,oven,180,0291_rot_s04_180_oven_20_n04111531_9411.png
subject-04,1,292,0.712631940841675,airplane,airplane,90,0292_rot_s04_90_airplane_20_n02690373_5016.png
subject-04,1,293,0.672753095626831,bicycle,bicycle,180,0293_rot_s04_180_bicycle_20_n03792782_42615.png
subject-04,1,294,0.979581832885742,boat,bicycle,90,0294_rot_s04_90_bicycle_20_n03792782_9563.png
subject-04,1,295,0.716137170791626,bird,bird,270,0295_rot_s04_270_bird_20_n01828970_2782.png
subject-04,1,296,0.87041711807251,bird,bird,90,0296_rot_s04_90_bird_20_n01833805_7767.png
subject-04,1,297,0.768445014953613,cat,cat,270,0297_rot_s04_270_cat_20_n02123045_1463.png
subject-04,1,298,0.699243783950806,cat,cat,270,0298_rot_s04_270_cat_20_n02123597_10148.png
subject-04,1,299,0.919417142868042,airplane,chair,90,0299_rot_s04_90_chair_20_n02791124_1594.png
subject-04,1,300,1.01188397407532,knife,knife,0,0300_rot_s04_0_knife_20_n03041632_4708.png
subject-04,1,301,0.724393844604492,clock,clock,0,0301_rot_s04_0_clock_20_n04548280_4186.png
subject-04,1,302,0.692044973373413,bicycle,bicycle,90,0302_rot_s04_90_bicycle_20_n03792782_1185.png
subject-04,1,303,1.05062007904053,bicycle,chair,180,0303_rot_s04_180_chair_20_n04099969_857.png
subject-04,1,304,0.605087041854858,keyboard,keyboard,0,0304_rot_s04_0_keyboard_20_n04505470_3875.png
subject-04,1,305,0.627028942108154,boat,oven,90,0305_rot_s04_90_oven_20_n04111531_2133.png
subject-04,1,306,0.579427003860474,bicycle,bicycle,0,0306_rot_s04_0_bicycle_20_n02835271_4384.png
subject-04,1,307,0.79816198348999,cat,cat,180,0307_rot_s04_180_cat_20_n02123597_9954.png
subject-04,1,308,0.896281003952026,car,car,180,0308_rot_s04_180_car_20_n04285008_15027.png
subject-04,1,309,0.732576847076416,cat,cat,90,0309_rot_s04_90_cat_20_n02124075_2223.png
subject-04,1,310,0.884921073913574,clock,clock,180,0310_rot_s04_180_clock_20_n04548280_9172.png
subject-04,1,311,1.0373899936676,bird,bird,270,0311_rot_s04_270_bird_20_n02007558_9844.png
subject-04,1,312,0.729799032211304,elephant,elephant,180,0312_rot_s04_180_elephant_20_n02504458_4345.png
subject-04,1,313,1.03434586524963,truck,truck,270,0313_rot_s04_270_truck_20_n03417042_7337.png
subject-04,1,314,0.86493992805481,bicycle,bicycle,270,0314_rot_s04_270_bicycle_20_n03792782_757.png
subject-04,1,315,0.687535047531128,truck,truck,90,0315_rot_s04_90_truck_20_n03796401_6923.png
subject-04,1,316,0.771732091903687,airplane,airplane,0,0316_rot_s04_0_airplane_20_n02690373_7387.png
subject-04,1,317,0.678070068359375,dog,dog,0,0317_rot_s04_0_dog_20_n02090721_2105.png
subject-04,1,318,0.638118982315063,chair,chair,0,0318_rot_s04_0_chair_20_n04429376_6265.png
subject-04,1,319,0.728785037994385,clock,clock,270,0319_rot_s04_270_clock_20_n02708093_3790.png
subject-04,1,320,1.48703193664551,elephant,elephant,270,0320_rot_s04_270_elephant_20_n02504013_620.png
subject-04,1,321,0.722906827926636,dog,dog,0,0321_rot_s04_0_dog_20_n02099267_3005.png
subject-04,1,322,0.558290958404541,keyboard,keyboard,0,0322_rot_s04_0_keyboard_20_n04505470_2749.png
subject-04,1,323,0.802435874938965,dog,dog,90,0323_rot_s04_90_dog_20_n02100236_5437.png
subject-04,1,324,0.632501125335693,keyboard,keyboard,0,0324_rot_s04_0_keyboard_20_n03085013_3859.png
subject-04,1,325,0.668622970581055,bicycle,bicycle,0,0325_rot_s04_0_bicycle_20_n02835271_19907.png
subject-04,1,326,0.980978012084961,oven,oven,90,0326_rot_s04_90_oven_20_n04111531_13006.png
subject-04,1,327,1.00280213356018,bicycle,oven,0,0327_rot_s04_0_oven_20_n04111531_4.png
subject-04,1,328,1.06331610679626,elephant,elephant,270,0328_rot_s04_270_elephant_20_n02504458_3473.png
subject-04,1,329,0.831995010375977,oven,oven,270,0329_rot_s04_270_oven_20_n04111531_4868.png
subject-04,1,330,0.65391993522644,oven,bottle,0,0330_rot_s04_0_bottle_20_n03983396_11469.png
subject-04,1,331,0.706735134124756,cat,cat,0,0331_rot_s04_0_cat_20_n02123159_3125.png
subject-04,1,332,0.758486986160278,boat,knife,90,0332_rot_s04_90_knife_20_n03041632_4808.png
subject-04,1,333,0.702661037445068,bottle,bottle,270,0333_rot_s04_270_bottle_20_n04557648_12481.png
subject-04,1,334,0.962964057922363,bottle,bottle,0,0334_rot_s04_0_bottle_20_n04560804_16526.png
subject-04,1,335,1.02351784706116,bear,bear,270,0335_rot_s04_270_bear_20_n02133161_2134.png
subject-04,1,336,0.813862085342407,boat,boat,270,0336_rot_s04_270_boat_20_n04273569_1600.png
subject-04,1,337,1.16555905342102,boat,elephant,180,0337_rot_s04_180_elephant_20_n02504458_776.png
subject-04,1,338,1.06397604942322,cat,chair,270,0338_rot_s04_270_chair_20_n02791124_960.png
subject-04,1,339,0.686466932296753,knife,knife,180,0339_rot_s04_180_knife_20_n03041632_10540.png
subject-04,1,340,0.906927108764648,oven,truck,90,0340_rot_s04_90_truck_20_n03417042_4567.png
subject-04,1,341,0.821589946746826,car,car,0,0341_rot_s04_0_car_20_n03100240_9875.png
subject-04,1,342,0.813731908798218,bottle,bottle,0,0342_rot_s04_0_bottle_20_n03937543_2790.png
subject-04,1,343,0.695900917053223,bottle,oven,270,0343_rot_s04_270_oven_20_n04111531_550.png
subject-04,1,344,0.764266967773438,boat,boat,180,0344_rot_s04_180_boat_20_n03344393_6092.png
subject-04,1,345,0.908860921859741,clock,clock,270,0345_rot_s04_270_clock_20_n04548280_7781.png
subject-04,1,346,0.885262012481689,oven,chair,90,0346_rot_s04_90_chair_20_n02791124_13960.png
subject-04,1,347,0.97577691078186,oven,chair,90,0347_rot_s04_90_chair_20_n02791124_4369.png
subject-04,1,348,0.996016979217529,bird,bird,270,0348_rot_s04_270_bird_20_n02018207_12346.png
subject-04,1,349,1.07797193527222,dog,dog,270,0349_rot_s04_270_dog_20_n02092339_7791.png
subject-04,1,350,0.954086065292358,oven,boat,90,0350_rot_s04_90_boat_20_n03344393_7132.png
subject-04,1,351,0.898370981216431,bottle,chair,0,0351_rot_s04_0_chair_20_n02791124_1335.png
subject-04,1,352,0.963109970092773,car,car,270,0352_rot_s04_270_car_20_n03100240_14193.png
subject-04,1,353,0.877229928970337,clock,clock,0,0353_rot_s04_0_clock_20_n03196217_5618.png
subject-04,1,354,0.729387998580933,keyboard,keyboard,90,0354_rot_s04_90_keyboard_20_n04505470_6115.png
subject-04,1,355,1.08199977874756,bear,truck,180,0355_rot_s04_180_truck_20_n04467665_17183.png
subject-04,1,356,0.942282915115356,keyboard,keyboard,270,0356_rot_s04_270_keyboard_20_n03085013_20730.png
subject-04,1,357,1.00272417068481,airplane,airplane,90,0357_rot_s04_90_airplane_20_n02690373_629.png
subject-04,1,358,0.863260984420776,airplane,airplane,270,0358_rot_s04_270_airplane_20_n02690373_7409.png
subject-04,1,359,0.999129056930542,keyboard,keyboard,90,0359_rot_s04_90_keyboard_20_n04505470_5128.png
subject-04,1,360,0.897672176361084,boat,boat,90,0360_rot_s04_90_boat_20_n03662601_17229.png
subject-04,1,361,1.00386619567871,keyboard,keyboard,180,0361_rot_s04_180_keyboard_20_n03085013_11854.png
subject-04,1,362,1.14857411384583,cat,dog,270,0362_rot_s04_270_dog_20_n02086910_5945.png
subject-04,1,363,0.97914719581604,car,car,270,0363_rot_s04_270_car_20_n04285008_9811.png
subject-04,1,364,1.00157690048218,knife,knife,180,0364_rot_s04_180_knife_20_n03041632_2184.png
subject-04,1,365,0.691826105117798,truck,truck,0,0365_rot_s04_0_truck_20_n03417042_6312.png
subject-04,1,366,1.04445695877075,car,car,0,0366_rot_s04_0_car_20_n02814533_62413.png
subject-04,1,367,1.15079307556152,knife,chair,270,0367_rot_s04_270_chair_20_n04429376_27785.png
subject-04,1,368,0.80308198928833,cat,cat,180,0368_rot_s04_180_cat_20_n02124075_5902.png
subject-04,1,369,0.817389965057373,knife,knife,270,0369_rot_s04_270_knife_20_n03041632_54732.png
subject-04,1,370,0.799591064453125,clock,clock,180,0370_rot_s04_180_clock_20_n04548280_7571.png
subject-04,1,371,0.93612003326416,dog,dog,180,0371_rot_s04_180_dog_20_n02102040_4068.png
subject-04,1,372,0.782690048217773,bottle,bottle,180,0372_rot_s04_180_bottle_20_n03937543_4829.png
subject-04,1,373,0.789129972457886,boat,boat,180,0373_rot_s04_180_boat_20_n03344393_6711.png
subject-04,1,374,0.787925958633423,car,car,90,0374_rot_s04_90_car_20_n04285008_9923.png
subject-04,1,375,0.685394048690796,bottle,bottle,270,0375_rot_s04_270_bottle_20_n02823428_347.png
subject-04,1,376,1.021488904953,keyboard,keyboard,180,0376_rot_s04_180_keyboard_20_n04505470_8937.png
subject-04,1,377,0.965921878814697,keyboard,bottle,270,0377_rot_s04_270_bottle_20_n04579145_2400.png
subject-04,1,378,0.834464073181152,bear,bear,90,0378_rot_s04_90_bear_20_n02134084_4122.png
subject-04,1,379,1.43330216407776,keyboard,chair,90,0379_rot_s04_90_chair_20_n04429376_15544.png
subject-04,1,380,0.931365966796875,boat,boat,270,0380_rot_s04_270_boat_20_n04612504_8742.png
subject-04,1,381,0.67749810218811,car,car,0,0381_rot_s04_0_car_20_n04285008_5825.png
subject-04,1,382,0.967810153961182,cat,dog,0,0382_rot_s04_0_dog_20_n02100877_25579.png
subject-04,1,383,0.895602941513062,boat,elephant,180,0383_rot_s04_180_elephant_20_n02504458_7359.png
subject-04,1,384,0.86406397819519,chair,bear,270,0384_rot_s04_270_bear_20_n02132136_1836.png
subject-04,1,385,0.948230981826782,bear,dog,270,0385_rot_s04_270_dog_20_n02100877_14347.png
subject-04,1,386,0.722795009613037,airplane,airplane,270,0386_rot_s04_270_airplane_20_n02690373_8754.png
subject-04,1,387,0.729265928268433,cat,keyboard,0,0387_rot_s04_0_keyboard_20_n03085013_3078.png
subject-04,1,388,1.38738083839417,elephant,elephant,180,0388_rot_s04_180_elephant_20_n02504013_5035.png
subject-04,1,389,0.977914094924927,clock,clock,180,0389_rot_s04_180_clock_20_n02708093_3360.png
subject-04,1,390,0.992304801940918,airplane,airplane,180,0390_rot_s04_180_airplane_20_n02690373_9849.png
subject-04,1,391,NaN,na,boat,180,0391_rot_s04_180_boat_20_n02951358_12995.png
subject-04,1,392,1.35676693916321,car,car,180,0392_rot_s04_180_car_20_n04285008_8042.png
subject-04,1,393,0.740925073623657,keyboard,keyboard,270,0393_rot_s04_270_keyboard_20_n03085013_16459.png
subject-04,1,394,0.907262086868286,knife,oven,0,0394_rot_s04_0_oven_20_n04111531_13820.png
subject-04,1,395,1.12375402450562,chair,oven,270,0395_rot_s04_270_oven_20_n04111531_7076.png
subject-04,1,396,0.883822917938232,airplane,airplane,0,0396_rot_s04_0_airplane_20_n02690373_9060.png
subject-04,1,397,1.45630884170532,car,car,180,0397_rot_s04_180_car_20_n03100240_15672.png
subject-04,1,398,1.10809111595154,keyboard,keyboard,90,0398_rot_s04_90_keyboard_20_n04505470_3002.png
subject-04,1,399,0.76034688949585,keyboard,oven,270,0399_rot_s04_270_oven_20_n04111531_6508.png
subject-04,1,400,0.898884057998657,oven,dog,90,0400_rot_s04_90_dog_20_n02097298_14501.png
subject-04,1,401,0.997336149215698,knife,knife,180,0401_rot_s04_180_knife_20_n03041632_51766.png
subject-04,1,402,0.919755935668945,bear,bear,270,0402_rot_s04_270_bear_20_n02134084_8574.png
subject-04,1,403,NaN,na,knife,0,0403_rot_s04_0_knife_20_n03041632_11186.png
subject-04,1,404,0.838112115859985,elephant,elephant,270,0404_rot_s04_270_elephant_20_n02504458_493.png
subject-04,1,405,0.810544013977051,boat,boat,180,0405_rot_s04_180_boat_20_n02951358_31514.png
subject-04,1,406,0.916611909866333,bear,bear,180,0406_rot_s04_180_bear_20_n02132136_17905.png
subject-04,1,407,0.753151178359985,chair,chair,180,0407_rot_s04_180_chair_20_n03376595_15723.png
subject-04,1,408,0.905861854553223,car,car,180,0408_rot_s04_180_car_20_n03100240_20698.png
subject-04,1,409,0.742326021194458,bicycle,bicycle,180,0409_rot_s04_180_bicycle_20_n02835271_19306.png
subject-04,1,410,0.818520069122314,cat,cat,180,0410_rot_s04_180_cat_20_n02123394_3328.png
subject-04,1,411,1.49319195747375,bear,oven,0,0411_rot_s04_0_oven_20_n04111531_2643.png
subject-04,1,412,0.861775159835815,bicycle,bicycle,270,0412_rot_s04_270_bicycle_20_n03792782_19857.png
subject-04,1,413,0.843790054321289,airplane,airplane,180,0413_rot_s04_180_airplane_20_n02690373_6212.png
subject-04,1,414,1.0582001209259,bear,bear,270,0414_rot_s04_270_bear_20_n02134084_3242.png
subject-04,1,415,0.834913015365601,chair,dog,90,0415_rot_s04_90_dog_20_n02099849_2787.png
subject-04,1,416,0.709000110626221,oven,oven,180,0416_rot_s04_180_oven_20_n04111531_8910.png
subject-04,1,417,0.769604921340942,truck,truck,90,0417_rot_s04_90_truck_20_n03417042_18196.png
subject-04,1,418,0.789496898651123,knife,knife,0,0418_rot_s04_0_knife_20_n03041632_40530.png
subject-04,1,419,0.782107830047607,bird,bird,0,0419_rot_s04_0_bird_20_n02018795_469.png
subject-04,1,420,0.91069483757019,boat,boat,0,0420_rot_s04_0_boat_20_n04612504_3001.png
subject-04,1,421,0.892912864685059,oven,oven,180,0421_rot_s04_180_oven_20_n04111531_9692.png
subject-04,1,422,0.652740955352783,keyboard,keyboard,270,0422_rot_s04_270_keyboard_20_n04505470_3852.png
subject-04,1,423,0.821600914001465,clock,bottle,270,0423_rot_s04_270_bottle_20_n04557648_3401.png
subject-04,1,424,0.711811065673828,bicycle,bicycle,180,0424_rot_s04_180_bicycle_20_n02835271_3565.png
subject-04,1,425,0.751947164535522,bicycle,chair,180,0425_rot_s04_180_chair_20_n04429376_10341.png
subject-04,1,426,0.641767024993896,elephant,elephant,270,0426_rot_s04_270_elephant_20_n02504013_2594.png
subject-04,1,427,0.686022996902466,boat,boat,0,0427_rot_s04_0_boat_20_n03344393_1389.png
subject-04,1,428,0.922312021255493,bottle,dog,270,0428_rot_s04_270_dog_20_n02102480_1534.png
subject-04,1,429,0.742700099945068,airplane,airplane,90,0429_rot_s04_90_airplane_20_n02690373_6429.png
subject-04,1,430,0.756977081298828,elephant,elephant,0,0430_rot_s04_0_elephant_20_n02504458_4809.png
subject-04,1,431,0.917289018630981,clock,knife,270,0431_rot_s04_270_knife_20_n03041632_91582.png
subject-04,1,432,0.945640087127686,airplane,airplane,270,0432_rot_s04_270_airplane_20_n02690373_7908.png
subject-04,1,433,0.81412410736084,airplane,airplane,90,0433_rot_s04_90_airplane_20_n02690373_2823.png
subject-04,1,434,0.950698137283325,knife,knife,180,0434_rot_s04_180_knife_20_n03041632_52040.png
subject-04,1,435,1.31668186187744,oven,chair,90,0435_rot_s04_90_chair_20_n02791124_3281.png
subject-04,1,436,1.48277497291565,chair,chair,90,0436_rot_s04_90_chair_20_n04429376_15700.png
subject-04,1,437,0.891129970550537,keyboard,keyboard,0,0437_rot_s04_0_keyboard_20_n03085013_8936.png
subject-04,1,438,0.773806810379028,cat,cat,180,0438_rot_s04_180_cat_20_n02123597_7563.png
subject-04,1,439,0.858566999435425,car,car,270,0439_rot_s04_270_car_20_n02814533_26523.png
subject-04,1,440,0.932269096374512,car,car,270,0440_rot_s04_270_car_20_n04285008_11957.png
subject-04,1,441,1.09299111366272,boat,bear,0,0441_rot_s04_0_bear_20_n02132136_17778.png
subject-04,1,442,1.31356716156006,bottle,bottle,270,0442_rot_s04_270_bottle_20_n04591713_1164.png
subject-04,1,443,1.3659029006958,dog,dog,270,0443_rot_s04_270_dog_20_n02104029_1838.png
subject-04,1,444,0.956266164779663,boat,boat,90,0444_rot_s04_90_boat_20_n03662601_20734.png
subject-04,1,445,0.819739103317261,car,car,90,0445_rot_s04_90_car_20_n02814533_47261.png
subject-04,1,446,NaN,na,boat,180,0446_rot_s04_180_boat_20_n03344393_384.png
subject-04,1,447,1.27633500099182,bear,bear,90,0447_rot_s04_90_bear_20_n02133161_4769.png
subject-04,1,448,1.5003650188446,bottle,clock,90,0448_rot_s04_90_clock_20_n03196217_3689.png
subject-04,1,449,0.926723957061768,truck,truck,180,0449_rot_s04_180_truck_20_n03796401_22744.png
subject-04,1,450,0.933402061462402,boat,boat,270,0450_rot_s04_270_boat_20_n03662601_8398.png
subject-04,1,451,1.03140306472778,keyboard,bear,90,0451_rot_s04_90_bear_20_n02134084_6628.png
subject-04,1,452,1.19796299934387,oven,clock,180,0452_rot_s04_180_clock_20_n03196217_7353.png
subject-04,1,453,0.934072971343994,bird,bird,0,0453_rot_s04_0_bird_20_n01616318_1801.png
subject-04,1,454,0.764442920684814,keyboard,oven,90,0454_rot_s04_90_oven_20_n04111531_627.png
subject-04,1,455,0.709004878997803,knife,knife,270,0455_rot_s04_270_knife_20_n03041632_8540.png
subject-04,1,456,0.723599910736084,keyboard,keyboard,180,0456_rot_s04_180_keyboard_20_n04505470_4384.png
subject-04,1,457,0.644032001495361,airplane,airplane,0,0457_rot_s04_0_airplane_20_n02690373_2185.png
subject-04,1,458,0.680485010147095,clock,clock,90,0458_rot_s04_90_clock_20_n03196217_6752.png
subject-04,1,459,0.656902074813843,boat,boat,180,0459_rot_s04_180_boat_20_n03344393_9569.png
subject-04,1,460,0.785046815872192,bicycle,bicycle,0,0460_rot_s04_0_bicycle_20_n03792782_16430.png
subject-04,1,461,0.745385885238647,keyboard,keyboard,90,0461_rot_s04_90_keyboard_20_n03085013_23731.png
subject-04,1,462,0.843575000762939,clock,clock,90,0462_rot_s04_90_clock_20_n03196217_9432.png
subject-04,1,463,0.717828035354614,oven,bird,270,0463_rot_s04_270_bird_20_n01558993_3803.png
subject-04,1,464,1.00773811340332,dog,cat,90,0464_rot_s04_90_cat_20_n02123394_6779.png
subject-04,1,465,0.828358888626099,knife,knife,270,0465_rot_s04_270_knife_20_n03041632_24277.png
subject-04,1,466,0.688929796218872,car,car,0,0466_rot_s04_0_car_20_n03100240_1532.png
subject-04,1,467,1.26329183578491,dog,dog,270,0467_rot_s04_270_dog_20_n02105056_5126.png
subject-04,1,468,1.11783504486084,truck,truck,0,0468_rot_s04_0_truck_20_n03796401_21248.png
subject-04,1,469,1.0542049407959,clock,clock,90,0469_rot_s04_90_clock_20_n03196217_421.png
subject-04,1,470,1.214919090271,clock,knife,90,0470_rot_s04_90_knife_20_n03041632_4787.png
subject-04,1,471,1.12123203277588,oven,chair,180,0471_rot_s04_180_chair_20_n02791124_1224.png
subject-04,1,472,1.17970895767212,oven,bottle,270,0472_rot_s04_270_bottle_20_n04560804_27926.png
subject-04,1,473,1.18579292297363,car,chair,90,0473_rot_s04_90_chair_20_n04099969_20797.png
subject-04,1,474,1.15147495269775,keyboard,knife,270,0474_rot_s04_270_knife_20_n03041632_89391.png
subject-04,1,475,1.39566707611084,keyboard,airplane,180,0475_rot_s04_180_airplane_20_n02690373_4105.png
subject-04,1,476,1.00153112411499,clock,clock,0,0476_rot_s04_0_clock_20_n04548280_427.png
subject-04,1,477,1.33792400360107,chair,knife,0,0477_rot_s04_0_knife_20_n03041632_42887.png
subject-04,1,478,1.18294405937195,chair,truck,270,0478_rot_s04_270_truck_20_n04467665_2240.png
subject-04,1,479,0.826535940170288,bicycle,bicycle,0,0479_rot_s04_0_bicycle_20_n02835271_11915.png
subject-04,1,480,0.702977180480957,boat,boat,0,0480_rot_s04_0_boat_20_n04273569_27938.png
subject-04,1,481,NaN,na,elephant,180,0481_rot_s04_180_elephant_20_n02504013_6911.png
subject-04,1,482,0.922713994979858,chair,oven,180,0482_rot_s04_180_oven_20_n04111531_2677.png
subject-04,1,483,0.837526082992554,bear,bear,270,0483_rot_s04_270_bear_20_n02132136_6823.png
subject-04,1,484,0.78928804397583,dog,dog,90,0484_rot_s04_90_dog_20_n02112018_7487.png
subject-04,1,485,0.628110885620117,boat,boat,90,0485_rot_s04_90_boat_20_n02951358_739.png
subject-04,1,486,0.615914106369019,boat,boat,270,0486_rot_s04_270_boat_20_n03662601_194.png
subject-04,1,487,0.692888975143433,bird,bird,270,0487_rot_s04_270_bird_20_n01820546_1354.png
subject-04,1,488,0.821295976638794,boat,airplane,90,0488_rot_s04_90_airplane_20_n02690373_9335.png
subject-04,1,489,1.03347086906433,bicycle,bicycle,270,0489_rot_s04_270_bicycle_20_n03792782_7477.png
subject-04,1,490,0.758165121078491,car,car,0,0490_rot_s04_0_car_20_n02814533_11078.png
subject-04,1,491,0.600569009780884,clock,clock,270,0491_rot_s04_270_clock_20_n04548280_5380.png
subject-04,1,492,0.698641061782837,bottle,bottle,180,0492_rot_s04_180_bottle_20_n03983396_19571.png
subject-04,1,493,0.704777956008911,bicycle,bicycle,270,0493_rot_s04_270_bicycle_20_n02835271_13748.png
subject-04,1,494,0.765208005905151,bottle,bottle,270,0494_rot_s04_270_bottle_20_n04591713_13550.png
subject-04,1,495,1.34778809547424,airplane,airplane,180,0495_rot_s04_180_airplane_20_n02690373_1821.png
subject-04,1,496,1.03869199752808,dog,dog,90,0496_rot_s04_90_dog_20_n02093428_10328.png
subject-04,1,497,0.86653995513916,cat,cat,270,0497_rot_s04_270_cat_20_n02123394_4255.png
subject-04,1,498,1.12652111053467,oven,oven,0,0498_rot_s04_0_oven_20_n04111531_3126.png
subject-04,1,499,1.06325817108154,knife,knife,90,0499_rot_s04_90_knife_20_n03041632_28443.png
subject-04,1,500,0.915647983551025,boat,boat,90,0500_rot_s04_90_boat_20_n02951358_10488.png
subject-04,1,501,0.999781131744385,boat,bird,90,0501_rot_s04_90_bird_20_n01531178_4319.png
subject-04,1,502,0.720256090164185,knife,knife,0,0502_rot_s04_0_knife_20_n03041632_8051.png
subject-04,1,503,0.642333030700684,cat,cat,180,0503_rot_s04_180_cat_20_n02123159_1501.png
subject-04,1,504,0.900504112243652,car,car,180,0504_rot_s04_180_car_20_n03100240_1703.png
subject-04,1,505,1.47468304634094,bottle,bottle,0,0505_rot_s04_0_bottle_20_n03983396_12895.png
subject-04,1,506,0.925956964492798,bear,bird,90,0506_rot_s04_90_bird_20_n01819313_15915.png
subject-04,1,507,0.708321094512939,clock,clock,270,0507_rot_s04_270_clock_20_n04548280_2362.png
subject-04,1,508,0.922417879104614,cat,bottle,270,0508_rot_s04_270_bottle_20_n04560804_19346.png
subject-04,1,509,0.850870132446289,knife,elephant,270,0509_rot_s04_270_elephant_20_n02504013_1878.png
subject-04,1,510,0.603173971176147,boat,boat,0,0510_rot_s04_0_boat_20_n03662601_21346.png
subject-04,1,511,0.793211936950684,keyboard,keyboard,90,0511_rot_s04_90_keyboard_20_n04505470_1929.png
subject-04,1,512,1.00510907173157,bottle,bottle,180,0512_rot_s04_180_bottle_20_n02823428_7806.png
subject-04,1,513,1.0072648525238,oven,oven,90,0513_rot_s04_90_oven_20_n04111531_9344.png
subject-04,1,514,0.795516967773438,knife,knife,90,0514_rot_s04_90_knife_20_n03041632_21425.png
subject-04,1,515,1.07785987854004,boat,boat,90,0515_rot_s04_90_boat_20_n03662601_34506.png
subject-04,1,516,0.7984459400177,car,car,0,0516_rot_s04_0_car_20_n03100240_9610.png
subject-04,1,517,1.08105611801147,knife,bird,180,0517_rot_s04_180_bird_20_n01537544_9944.png
subject-04,1,518,0.933438062667847,cat,clock,180,0518_rot_s04_180_clock_20_n04548280_253.png
subject-04,1,519,1.11808395385742,chair,airplane,90,0519_rot_s04_90_airplane_20_n02690373_5885.png
subject-04,1,520,0.946293830871582,elephant,elephant,180,0520_rot_s04_180_elephant_20_n02504013_410.png
subject-04,1,521,0.885154008865356,cat,oven,0,0521_rot_s04_0_oven_20_n04111531_8082.png
subject-04,1,522,1.35925602912903,oven,airplane,90,0522_rot_s04_90_airplane_20_n02690373_3408.png
subject-04,1,523,0.887562036514282,airplane,chair,180,0523_rot_s04_180_chair_20_n04099969_19530.png
subject-04,1,524,0.86754584312439,car,car,90,0524_rot_s04_90_car_20_n02814533_149.png
subject-04,1,525,0.657728910446167,bicycle,bicycle,0,0525_rot_s04_0_bicycle_20_n02835271_17238.png
subject-04,1,526,0.831619024276733,bottle,bottle,90,0526_rot_s04_90_bottle_20_n03983396_6281.png
subject-04,1,527,1.1441969871521,keyboard,keyboard,270,0527_rot_s04_270_keyboard_20_n03085013_6954.png
subject-04,1,528,NaN,na,oven,270,0528_rot_s04_270_oven_20_n04111531_17809.png
subject-04,1,529,1.13522219657898,chair,chair,90,0529_rot_s04_90_chair_20_n03376595_2734.png
subject-04,1,530,1.06569790840149,cat,bear,0,0530_rot_s04_0_bear_20_n02134084_15157.png
subject-04,1,531,1.03181099891663,oven,cat,180,0531_rot_s04_180_cat_20_n02123394_7177.png
subject-04,1,532,0.80613899230957,boat,boat,0,0532_rot_s04_0_boat_20_n02951358_10707.png
subject-04,1,533,0.920650959014893,truck,truck,180,0533_rot_s04_180_truck_20_n03417042_23888.png
subject-04,1,534,0.910928964614868,cat,elephant,90,0534_rot_s04_90_elephant_20_n02504013_7314.png
subject-04,1,535,1.48562693595886,bottle,knife,270,0535_rot_s04_270_knife_20_n03041632_22734.png
subject-04,1,536,1.4003050327301,cat,cat,0,0536_rot_s04_0_cat_20_n02125311_1522.png
subject-04,1,537,1.0361750125885,clock,bird,270,0537_rot_s04_270_bird_20_n01833805_1548.png
subject-04,1,538,0.974461078643799,elephant,elephant,90,0538_rot_s04_90_elephant_20_n02504458_1604.png
subject-04,1,539,0.841324806213379,car,car,90,0539_rot_s04_90_car_20_n04285008_891.png
subject-04,1,540,1.22350215911865,chair,chair,270,0540_rot_s04_270_chair_20_n03376595_1615.png
subject-04,1,541,0.891425132751465,keyboard,keyboard,180,0541_rot_s04_180_keyboard_20_n04505470_2390.png
subject-04,1,542,1.10394883155823,chair,knife,0,0542_rot_s04_0_knife_20_n03041632_98864.png
subject-04,1,543,0.855953216552734,bicycle,bicycle,180,0543_rot_s04_180_bicycle_20_n02835271_1031.png
subject-04,1,544,0.962652921676636,bear,bear,90,0544_rot_s04_90_bear_20_n02134418_1022.png
subject-04,1,545,1.09133100509644,dog,dog,90,0545_rot_s04_90_dog_20_n02110958_4139.png
subject-04,1,546,0.873582124710083,elephant,elephant,270,0546_rot_s04_270_elephant_20_n02504458_396.png
subject-04,1,547,0.980026960372925,dog,dog,0,0547_rot_s04_0_dog_20_n02104365_3337.png
subject-04,1,548,0.870135068893433,keyboard,keyboard,270,0548_rot_s04_270_keyboard_20_n03085013_15836.png
subject-04,1,549,0.808764934539795,chair,chair,90,0549_rot_s04_90_chair_20_n02791124_6548.png
subject-04,1,550,0.759322881698608,cat,cat,0,0550_rot_s04_0_cat_20_n02125311_24333.png
subject-04,1,551,0.843609094619751,bottle,clock,0,0551_rot_s04_0_clock_20_n03196217_1611.png
subject-04,1,552,0.656309843063354,clock,clock,180,0552_rot_s04_180_clock_20_n02708093_7076.png
subject-04,1,553,0.800647020339966,oven,knife,180,0553_rot_s04_180_knife_20_n03041632_34769.png
subject-04,1,554,0.977038860321045,oven,boat,270,0554_rot_s04_270_boat_20_n02951358_4492.png
subject-04,1,555,1.02116703987122,boat,airplane,90,0555_rot_s04_90_airplane_20_n02690373_3920.png
subject-04,1,556,1.1252760887146,airplane,cat,180,0556_rot_s04_180_cat_20_n02124075_9710.png
subject-04,1,557,0.807733058929443,bear,bear,90,0557_rot_s04_90_bear_20_n02134084_7868.png
subject-04,1,558,1.07624793052673,elephant,cat,270,0558_rot_s04_270_cat_20_n02124075_13812.png
subject-04,1,559,0.958616018295288,cat,bird,180,0559_rot_s04_180_bird_20_n02025239_3606.png
subject-04,1,560,0.765305042266846,bird,bird,0,0560_rot_s04_0_bird_20_n01796340_7969.png
subject-04,1,561,1.39373898506165,cat,cat,0,0561_rot_s04_0_cat_20_n02123597_10561.png
subject-04,1,562,0.838351011276245,bottle,bottle,270,0562_rot_s04_270_bottle_20_n03937543_5122.png
subject-04,1,563,0.944628953933716,keyboard,oven,90,0563_rot_s04_90_oven_20_n04111531_11669.png
subject-04,1,564,1.48124694824219,chair,bear,90,0564_rot_s04_90_bear_20_n02132136_1427.png
subject-04,1,565,0.841592073440552,elephant,elephant,270,0565_rot_s04_270_elephant_20_n02504013_22813.png
subject-04,1,566,1.00648713111877,bottle,dog,90,0566_rot_s04_90_dog_20_n02104365_9711.png
subject-04,1,567,1.08111119270325,truck,truck,0,0567_rot_s04_0_truck_20_n03417042_6981.png
subject-04,1,568,1.37731409072876,bottle,oven,0,0568_rot_s04_0_oven_20_n04111531_4662.png
subject-04,1,569,NaN,na,airplane,270,0569_rot_s04_270_airplane_20_n02690373_3035.png
subject-04,1,570,0.881187915802002,airplane,airplane,0,0570_rot_s04_0_airplane_20_n02690373_6543.png
subject-04,1,571,0.741501092910767,bottle,bottle,90,0571_rot_s04_90_bottle_20_n03937543_5189.png
subject-04,1,572,0.870079040527344,knife,knife,270,0572_rot_s04_270_knife_20_n03041632_22472.png
subject-04,1,573,1.20600700378418,clock,bird,0,0573_rot_s04_0_bird_20_n02009229_18936.png
subject-04,1,574,0.720536947250366,car,car,180,0574_rot_s04_180_car_20_n04285008_39.png
subject-04,1,575,1.07887887954712,knife,knife,270,0575_rot_s04_270_knife_20_n03041632_11613.png
subject-04,1,576,NaN,na,bicycle,0,0576_rot_s04_0_bicycle_20_n03792782_7878.png
subject-04,1,577,1.08409309387207,bird,clock,0,0577_rot_s04_0_clock_20_n04548280_994.png
subject-04,1,578,0.751316070556641,bicycle,bicycle,180,0578_rot_s04_180_bicycle_20_n03792782_14642.png
subject-04,1,579,0.810005903244019,oven,keyboard,90,0579_rot_s04_90_keyboard_20_n03085013_24538.png
subject-04,1,580,1.00002384185791,cat,car,180,0580_rot_s04_180_car_20_n03100240_23257.png
subject-04,1,581,NaN,na,clock,0,0581_rot_s04_0_clock_20_n02708093_1125.png
subject-04,1,582,0.604665040969849,cat,cat,270,0582_rot_s04_270_cat_20_n02123045_2742.png
subject-04,1,583,0.633095979690552,bear,bear,0,0583_rot_s04_0_bear_20_n02134084_1536.png
subject-04,1,584,0.623453140258789,keyboard,keyboard,0,0584_rot_s04_0_keyboard_20_n03085013_10659.png
subject-04,1,585,1.0059289932251,car,car,180,0585_rot_s04_180_car_20_n04285008_5005.png
subject-04,1,586,NaN,na,dog,270,0586_rot_s04_270_dog_20_n02091134_4418.png
subject-04,1,587,0.576905965805054,truck,truck,0,0587_rot_s04_0_truck_20_n03417042_7682.png
subject-04,1,588,0.627104997634888,bear,bear,0,0588_rot_s04_0_bear_20_n02134418_2884.png
subject-04,1,589,0.857783079147339,car,car,180,0589_rot_s04_180_car_20_n02814533_28923.png
subject-04,1,590,1.01585793495178,bottle,truck,270,0590_rot_s04_270_truck_20_n03417042_1841.png
subject-04,1,591,0.881605863571167,bear,bottle,90,0591_rot_s04_90_bottle_20_n04557648_12541.png
subject-04,1,592,0.856158971786499,keyboard,keyboard,270,0592_rot_s04_270_keyboard_20_n03085013_18832.png
subject-04,1,593,0.724148035049438,oven,bear,180,0593_rot_s04_180_bear_20_n02133161_15682.png
subject-04,1,594,0.952477931976318,knife,knife,270,0594_rot_s04_270_knife_20_n03041632_10263.png
subject-04,1,595,0.896960973739624,cat,boat,0,0595_rot_s04_0_boat_20_n02951358_34116.png
subject-04,1,596,1.37952303886414,elephant,elephant,180,0596_rot_s04_180_elephant_20_n02504013_1855.png
subject-04,1,597,1.02394509315491,boat,boat,180,0597_rot_s04_180_boat_20_n04612504_10311.png
subject-04,1,598,1.06830096244812,bottle,clock,270,0598_rot_s04_270_clock_20_n03196217_6809.png
subject-04,1,599,0.990819931030273,cat,cat,270,0599_rot_s04_270_cat_20_n02125311_76270.png
subject-04,1,600,0.865181922912598,knife,knife,180,0600_rot_s04_180_knife_20_n03041632_31932.png
subject-04,1,601,0.925436019897461,oven,bear,0,0601_rot_s04_0_bear_20_n02134418_2539.png
subject-04,1,602,1.12404203414917,oven,car,180,0602_rot_s04_180_car_20_n03100240_3400.png
subject-04,1,603,NaN,na,knife,270,0603_rot_s04_270_knife_20_n03041632_37274.png
subject-04,1,604,0.620902061462402,bear,dog,270,0604_rot_s04_270_dog_20_n02113799_4467.png
subject-04,1,605,0.886849880218506,knife,knife,90,0605_rot_s04_90_knife_20_n03041632_76163.png
subject-04,1,606,0.976900100708008,keyboard,keyboard,90,0606_rot_s04_90_keyboard_20_n04505470_5021.png
subject-04,1,607,NaN,na,dog,180,0607_rot_s04_180_dog_20_n02104365_2039.png
subject-04,1,608,0.766250848770142,oven,cat,90,0608_rot_s04_90_cat_20_n02124075_15145.png
subject-04,1,609,0.650767087936401,truck,truck,90,0609_rot_s04_90_truck_20_n03417042_12031.png
subject-04,1,610,1.12509107589722,cat,cat,90,0610_rot_s04_90_cat_20_n02124075_9659.png
subject-04,1,611,0.885657072067261,dog,dog,0,0611_rot_s04_0_dog_20_n02098105_3785.png
subject-04,1,612,0.729936122894287,oven,oven,270,0612_rot_s04_270_oven_20_n04111531_8414.png
subject-04,1,613,0.590528964996338,keyboard,keyboard,180,0613_rot_s04_180_keyboard_20_n04505470_2569.png
subject-04,1,614,0.878229141235352,bear,cat,270,0614_rot_s04_270_cat_20_n02125311_31451.png
subject-04,1,615,0.839214086532593,oven,bottle,180,0615_rot_s04_180_bottle_20_n03983396_23451.png
subject-04,1,616,0.807773113250732,car,car,270,0616_rot_s04_270_car_20_n02814533_11051.png
subject-04,1,617,0.836004018783569,oven,oven,180,0617_rot_s04_180_oven_20_n04111531_5336.png
subject-04,1,618,1.18059706687927,bird,bird,0,0618_rot_s04_0_bird_20_n02017213_4587.png
subject-04,1,619,1.50005888938904,bottle,dog,0,0619_rot_s04_0_dog_20_n02091032_10324.png
subject-04,1,620,0.861219882965088,clock,clock,270,0620_rot_s04_270_clock_20_n02708093_1131.png
subject-04,1,621,0.813572883605957,boat,boat,180,0621_rot_s04_180_boat_20_n04273569_8552.png
subject-04,1,622,0.888092994689941,oven,oven,0,0622_rot_s04_0_oven_20_n04111531_1752.png
subject-04,1,623,0.724411964416504,cat,cat,90,0623_rot_s04_90_cat_20_n02123394_9043.png
subject-04,1,624,0.938827037811279,airplane,cat,0,0624_rot_s04_0_cat_20_n02125311_13866.png
subject-04,1,625,1.03757810592651,dog,dog,90,0625_rot_s04_90_dog_20_n02086240_3646.png
subject-04,1,626,0.658387184143066,clock,clock,0,0626_rot_s04_0_clock_20_n04548280_2363.png
subject-04,1,627,0.718811988830566,knife,knife,180,0627_rot_s04_180_knife_20_n03041632_927.png
subject-04,1,628,NaN,na,bottle,90,0628_rot_s04_90_bottle_20_n03937543_5945.png
subject-04,1,629,NaN,na,keyboard,180,0629_rot_s04_180_keyboard_20_n03085013_19130.png
subject-04,1,630,0.782089948654175,truck,truck,180,0630_rot_s04_180_truck_20_n03417042_26782.png
subject-04,1,631,NaN,na,car,270,0631_rot_s04_270_car_20_n03100240_8113.png
subject-04,1,632,0.633343935012817,clock,clock,180,0632_rot_s04_180_clock_20_n02708093_1388.png
subject-04,1,633,0.869723081588745,keyboard,keyboard,0,0633_rot_s04_0_keyboard_20_n03085013_24088.png
subject-04,1,634,0.708276987075806,boat,boat,90,0634_rot_s04_90_boat_20_n03344393_5136.png
subject-04,1,635,0.698837041854858,bird,bird,90,0635_rot_s04_90_bird_20_n02002556_23767.png
subject-04,1,636,1.50001287460327,airplane,airplane,0,0636_rot_s04_0_airplane_20_n02690373_14117.png
subject-04,1,637,0.812391996383667,bear,bear,0,0637_rot_s04_0_bear_20_n02132136_26001.png
subject-04,1,638,0.549069881439209,bear,bear,0,0638_rot_s04_0_bear_20_n02132136_2852.png
subject-04,1,639,0.760971069335938,dog,dog,270,0639_rot_s04_270_dog_20_n02107683_2872.png
subject-04,1,640,1.14313912391663,oven,keyboard,180,0640_rot_s04_180_keyboard_20_n04505470_4061.png
subject-04,1,641,0.760342121124268,cat,chair,90,0641_rot_s04_90_chair_20_n03376595_7959.png
subject-04,1,642,0.620121955871582,chair,chair,0,0642_rot_s04_0_chair_20_n04099969_3210.png
subject-04,1,643,0.624155044555664,clock,clock,90,0643_rot_s04_90_clock_20_n03196217_4309.png
subject-04,1,644,0.698018074035645,knife,knife,270,0644_rot_s04_270_knife_20_n03041632_13645.png
subject-04,1,645,1.49461102485657,keyboard,boat,180,0645_rot_s04_180_boat_20_n03344393_9231.png
subject-04,1,646,0.894872188568115,cat,cat,270,0646_rot_s04_270_cat_20_n02123159_5563.png
subject-04,1,647,1.0612268447876,knife,knife,0,0647_rot_s04_0_knife_20_n03041632_5820.png
subject-04,1,648,0.775635004043579,keyboard,keyboard,270,0648_rot_s04_270_keyboard_20_n04505470_5126.png
subject-04,1,649,0.67409610748291,elephant,elephant,90,0649_rot_s04_90_elephant_20_n02504458_8134.png
subject-04,1,650,0.550331115722656,clock,clock,0,0650_rot_s04_0_clock_20_n02708093_5.png
subject-04,1,651,0.570935964584351,clock,clock,90,0651_rot_s04_90_clock_20_n02708093_6717.png
subject-04,1,652,0.690682888031006,chair,chair,180,0652_rot_s04_180_chair_20_n04099969_3485.png
subject-04,1,653,1.31905007362366,dog,dog,0,0653_rot_s04_0_dog_20_n02107312_1546.png
subject-04,1,654,0.633236885070801,oven,oven,180,0654_rot_s04_180_oven_20_n04111531_17433.png
subject-04,1,655,0.60791802406311,oven,oven,0,0655_rot_s04_0_oven_20_n04111531_2260.png
subject-04,1,656,0.560550928115845,clock,clock,270,0656_rot_s04_270_clock_20_n04548280_3746.png
subject-04,1,657,0.612920045852661,bottle,bottle,270,0657_rot_s04_270_bottle_20_n04591713_4235.png
subject-04,1,658,0.850545167922974,bear,elephant,90,0658_rot_s04_90_elephant_20_n02504458_1351.png
subject-04,1,659,1.11090898513794,boat,boat,180,0659_rot_s04_180_boat_20_n04612504_26151.png
subject-04,1,660,0.6633460521698,bottle,bottle,90,0660_rot_s04_90_bottle_20_n03937543_3113.png
subject-04,1,661,0.77803897857666,car,car,270,0661_rot_s04_270_car_20_n04285008_16856.png
subject-04,1,662,0.887306928634644,truck,truck,90,0662_rot_s04_90_truck_20_n04467665_69171.png
subject-04,1,663,0.847548961639404,oven,bottle,90,0663_rot_s04_90_bottle_20_n04560804_927.png
subject-04,1,664,0.776175022125244,chair,chair,270,0664_rot_s04_270_chair_20_n04429376_18215.png
subject-04,1,665,0.996196031570435,dog,dog,90,0665_rot_s04_90_dog_20_n02107142_17884.png
subject-04,1,666,0.772375106811523,car,car,0,0666_rot_s04_0_car_20_n03100240_2018.png
subject-04,1,667,0.976752996444702,elephant,oven,90,0667_rot_s04_90_oven_20_n04111531_2209.png
subject-04,1,668,1.12934494018555,bird,bird,180,0668_rot_s04_180_bird_20_n01514859_69.png
subject-04,1,669,0.789650917053223,oven,bottle,0,0669_rot_s04_0_bottle_20_n04557648_18108.png
subject-04,1,670,0.710401058197021,boat,boat,90,0670_rot_s04_90_boat_20_n03662601_1563.png
subject-04,1,671,0.694754123687744,boat,bear,180,0671_rot_s04_180_bear_20_n02134084_20837.png
subject-04,1,672,0.927832841873169,knife,knife,0,0672_rot_s04_0_knife_20_n03041632_37618.png
subject-04,1,673,1.01805806159973,car,car,180,0673_rot_s04_180_car_20_n04285008_3194.png
subject-04,1,674,0.824331045150757,boat,boat,270,0674_rot_s04_270_boat_20_n04273569_28270.png
subject-04,1,675,0.739173173904419,boat,boat,90,0675_rot_s04_90_boat_20_n03662601_16366.png
subject-04,1,676,0.889426946640015,elephant,elephant,270,0676_rot_s04_270_elephant_20_n02504458_5949.png
subject-04,1,677,0.820142030715942,car,car,180,0677_rot_s04_180_car_20_n02814533_28856.png
subject-04,1,678,1.00240707397461,truck,truck,0,0678_rot_s04_0_truck_20_n03796401_6921.png
subject-04,1,679,0.968194007873535,keyboard,keyboard,0,0679_rot_s04_0_keyboard_20_n04505470_1724.png
subject-04,1,680,NaN,na,airplane,180,0680_rot_s04_180_airplane_20_n02690373_10044.png
subject-04,1,681,0.641372919082642,keyboard,keyboard,180,0681_rot_s04_180_keyboard_20_n04505470_8469.png
subject-04,1,682,0.877902984619141,car,car,270,0682_rot_s04_270_car_20_n03100240_15795.png
subject-04,1,683,1.01472306251526,airplane,knife,90,0683_rot_s04_90_knife_20_n03041632_28135.png
subject-04,1,684,0.966447114944458,elephant,elephant,0,0684_rot_s04_0_elephant_20_n02504013_4485.png
subject-04,1,685,0.932983875274658,truck,truck,0,0685_rot_s04_0_truck_20_n03796401_21198.png
subject-04,1,686,0.831171989440918,oven,oven,90,0686_rot_s04_90_oven_20_n04111531_12129.png
subject-04,1,687,0.904820203781128,oven,oven,180,0687_rot_s04_180_oven_20_n04111531_9611.png
subject-04,1,688,0.841670989990234,bird,bird,180,0688_rot_s04_180_bird_20_n01829413_8578.png
subject-04,1,689,0.631757974624634,oven,chair,90,0689_rot_s04_90_chair_20_n02791124_4003.png
subject-04,1,690,0.883835077285767,car,car,90,0690_rot_s04_90_car_20_n03100240_10502.png
subject-04,1,691,0.812161922454834,bird,bird,270,0691_rot_s04_270_bird_20_n02013706_2450.png
subject-04,1,692,0.656795024871826,boat,boat,0,0692_rot_s04_0_boat_20_n03344393_4762.png
subject-04,1,693,0.73872184753418,knife,knife,90,0693_rot_s04_90_knife_20_n03041632_5162.png
subject-04,1,694,0.621072053909302,clock,clock,90,0694_rot_s04_90_clock_20_n03196217_7741.png
subject-04,1,695,0.673286914825439,car,car,90,0695_rot_s04_90_car_20_n03100240_6491.png
subject-04,1,696,0.985520124435425,bear,bear,90,0696_rot_s04_90_bear_20_n02134084_2096.png
subject-04,1,697,0.746003866195679,truck,truck,180,0697_rot_s04_180_truck_20_n03796401_5573.png
subject-04,1,698,0.828193187713623,bird,bird,90,0698_rot_s04_90_bird_20_n01797886_6096.png
subject-04,1,699,0.777368068695068,bird,bird,180,0699_rot_s04_180_bird_20_n01855672_769.png
subject-04,1,700,0.784178018569946,boat,cat,180,0700_rot_s04_180_cat_20_n02123045_7310.png
subject-04,1,701,0.850481986999512,bear,bear,0,0701_rot_s04_0_bear_20_n02132136_10404.png
subject-04,1,702,0.924888849258423,boat,dog,90,0702_rot_s04_90_dog_20_n02101556_6700.png
subject-04,1,703,0.815534114837646,bicycle,bicycle,270,0703_rot_s04_270_bicycle_20_n03792782_9699.png
subject-04,1,704,0.637801885604858,boat,boat,270,0704_rot_s04_270_boat_20_n04612504_10864.png
subject-04,1,705,0.674569129943848,bird,bird,0,0705_rot_s04_0_bird_20_n02009229_7406.png
subject-04,1,706,0.632301092147827,boat,boat,270,0706_rot_s04_270_boat_20_n03344393_5063.png
subject-04,1,707,0.730244874954224,boat,dog,270,0707_rot_s04_270_dog_20_n02110063_6658.png
subject-04,1,708,0.742892026901245,clock,clock,180,0708_rot_s04_180_clock_20_n04548280_3292.png
subject-04,1,709,0.741411924362183,oven,bicycle,180,0709_rot_s04_180_bicycle_20_n02835271_7655.png
subject-04,1,710,0.831395864486694,car,car,270,0710_rot_s04_270_car_20_n02814533_53054.png
subject-04,1,711,1.04368996620178,truck,truck,270,0711_rot_s04_270_truck_20_n03796401_27268.png
subject-04,1,712,0.904277086257935,car,car,180,0712_rot_s04_180_car_20_n02814533_34200.png
subject-04,1,713,0.924822807312012,truck,truck,270,0713_rot_s04_270_truck_20_n03417042_5600.png
subject-04,1,714,1.03692603111267,cat,cat,180,0714_rot_s04_180_cat_20_n02125311_19961.png
subject-04,1,715,0.759314060211182,bicycle,bicycle,90,0715_rot_s04_90_bicycle_20_n03792782_1289.png
subject-04,1,716,0.61138391494751,bicycle,bicycle,180,0716_rot_s04_180_bicycle_20_n03792782_973.png
subject-04,1,717,0.73219895362854,bird,bird,90,0717_rot_s04_90_bird_20_n01601694_7177.png
subject-04,1,718,0.793684959411621,airplane,airplane,180,0718_rot_s04_180_airplane_20_n02690373_4375.png
subject-04,1,719,0.730175018310547,chair,chair,270,0719_rot_s04_270_chair_20_n04099969_3102.png
subject-04,1,720,0.888581037521362,bicycle,bicycle,90,0720_rot_s04_90_bicycle_20_n03792782_4629.png
subject-04,1,721,1.10312104225159,bear,elephant,90,0721_rot_s04_90_elephant_20_n02504458_1504.png
subject-04,1,722,0.885804176330566,bicycle,bicycle,0,0722_rot_s04_0_bicycle_20_n02835271_23845.png
subject-04,1,723,0.699872016906738,truck,truck,90,0723_rot_s04_90_truck_20_n04467665_24829.png
subject-04,1,724,0.772175073623657,bicycle,bicycle,270,0724_rot_s04_270_bicycle_20_n03792782_1868.png
subject-04,1,725,1.05470085144043,oven,oven,90,0725_rot_s04_90_oven_20_n04111531_681.png
subject-04,1,726,0.692707777023315,boat,boat,180,0726_rot_s04_180_boat_20_n04612504_11532.png
subject-04,1,727,0.658980131149292,oven,oven,180,0727_rot_s04_180_oven_20_n04111531_6485.png
subject-04,1,728,0.773385047912598,oven,oven,270,0728_rot_s04_270_oven_20_n04111531_49.png
subject-04,1,729,0.639739036560059,chair,chair,180,0729_rot_s04_180_chair_20_n04099969_38402.png
subject-04,1,730,0.914511919021606,dog,dog,180,0730_rot_s04_180_dog_20_n02108000_3007.png
subject-04,1,731,0.988783121109009,dog,oven,180,0731_rot_s04_180_oven_20_n04111531_1054.png
subject-04,1,732,0.787101984024048,bird,bird,180,0732_rot_s04_180_bird_20_n01601694_14096.png
subject-04,1,733,0.725794076919556,bicycle,bicycle,90,0733_rot_s04_90_bicycle_20_n03792782_12504.png
subject-04,1,734,0.738217115402222,knife,knife,0,0734_rot_s04_0_knife_20_n03041632_29037.png
subject-04,1,735,0.750842094421387,elephant,elephant,0,0735_rot_s04_0_elephant_20_n02504458_12582.png
subject-04,1,736,0.681324005126953,clock,clock,180,0736_rot_s04_180_clock_20_n04548280_2518.png
subject-04,1,737,0.777719020843506,car,car,180,0737_rot_s04_180_car_20_n03100240_3267.png
subject-04,1,738,0.675129890441895,bear,bear,0,0738_rot_s04_0_bear_20_n02132136_4335.png
subject-04,1,739,0.963787078857422,bear,bear,180,0739_rot_s04_180_bear_20_n02132136_13097.png
subject-04,1,740,0.83992600440979,cat,oven,90,0740_rot_s04_90_oven_20_n04111531_1770.png
subject-04,1,741,0.806137084960938,oven,oven,0,0741_rot_s04_0_oven_20_n04111531_15568.png
subject-04,1,742,0.788655042648315,cat,cat,90,0742_rot_s04_90_cat_20_n02125311_23118.png
subject-04,1,743,0.70081901550293,bicycle,bicycle,180,0743_rot_s04_180_bicycle_20_n02835271_7597.png
subject-04,1,744,0.866505861282349,keyboard,keyboard,0,0744_rot_s04_0_keyboard_20_n03085013_21607.png
subject-04,1,745,0.704898118972778,airplane,airplane,180,0745_rot_s04_180_airplane_20_n02690373_4839.png
subject-04,1,746,0.817545175552368,dog,bird,180,0746_rot_s04_180_bird_20_n02007558_1554.png
subject-04,1,747,1.02987790107727,boat,boat,270,0747_rot_s04_270_boat_20_n03662601_15416.png
subject-04,1,748,NaN,na,bear,90,0748_rot_s04_90_bear_20_n02134084_8144.png
subject-04,1,749,1.49498605728149,elephant,elephant,270,0749_rot_s04_270_elephant_20_n02504013_2616.png
subject-04,1,750,0.901760101318359,bird,bird,0,0750_rot_s04_0_bird_20_n02002724_845.png
subject-04,1,751,1.23020005226135,dog,dog,180,0751_rot_s04_180_dog_20_n02106550_600.png
subject-04,1,752,0.844522953033447,bottle,bottle,90,0752_rot_s04_90_bottle_20_n03937543_6343.png
subject-04,1,753,0.75658106803894,cat,dog,180,0753_rot_s04_180_dog_20_n02105641_14270.png
subject-04,1,754,0.75539493560791,bird,bird,270,0754_rot_s04_270_bird_20_n01828970_7695.png
subject-04,1,755,0.661613941192627,knife,knife,180,0755_rot_s04_180_knife_20_n03041632_3171.png
subject-04,1,756,0.697932958602905,clock,elephant,0,0756_rot_s04_0_elephant_20_n02504013_498.png
subject-04,1,757,0.788741827011108,bird,cat,90,0757_rot_s04_90_cat_20_n02123159_7907.png
subject-04,1,758,1.26865696907043,oven,oven,180,0758_rot_s04_180_oven_20_n04111531_14559.png
subject-04,1,759,1.09702682495117,car,car,0,0759_rot_s04_0_car_20_n04285008_8186.png
subject-04,1,760,1.05527305603027,bottle,bottle,0,0760_rot_s04_0_bottle_20_n03937543_8002.png
subject-04,1,761,0.877166986465454,bear,elephant,90,0761_rot_s04_90_elephant_20_n02504013_2364.png
subject-04,1,762,0.684170961380005,clock,clock,90,0762_rot_s04_90_clock_20_n03196217_2291.png
subject-04,1,763,0.534178018569946,clock,clock,0,0763_rot_s04_0_clock_20_n04548280_16233.png
subject-04,1,764,0.748696804046631,clock,knife,0,0764_rot_s04_0_knife_20_n03041632_49363.png
subject-04,1,765,0.761306047439575,bottle,bottle,180,0765_rot_s04_180_bottle_20_n03937543_8736.png
subject-04,1,766,1.16527199745178,clock,bicycle,270,0766_rot_s04_270_bicycle_20_n03792782_36658.png
subject-04,1,767,1.20147299766541,oven,clock,0,0767_rot_s04_0_clock_20_n03196217_5991.png
subject-04,1,768,0.845633983612061,elephant,elephant,180,0768_rot_s04_180_elephant_20_n02504458_7123.png
subject-04,1,769,0.927956819534302,bear,bear,0,0769_rot_s04_0_bear_20_n02133161_10435.png
subject-04,1,770,1.15618705749512,bicycle,bicycle,270,0770_rot_s04_270_bicycle_20_n02835271_9262.png
subject-04,1,771,0.908592939376831,car,car,0,0771_rot_s04_0_car_20_n03100240_11406.png
subject-04,1,772,1.06678414344788,oven,bird,180,0772_rot_s04_180_bird_20_n02011460_1261.png
subject-04,1,773,1.04899406433105,car,car,0,0773_rot_s04_0_car_20_n03100240_23229.png
subject-04,1,774,1.02350282669067,cat,cat,0,0774_rot_s04_0_cat_20_n02125311_22524.png
subject-04,1,775,0.843912124633789,clock,clock,0,0775_rot_s04_0_clock_20_n04548280_7050.png
subject-04,1,776,0.704150199890137,bear,bear,180,0776_rot_s04_180_bear_20_n02133161_6121.png
subject-04,1,777,1.04597187042236,cat,dog,270,0777_rot_s04_270_dog_20_n02094433_7721.png
subject-04,1,778,0.790272951126099,bicycle,bicycle,270,0778_rot_s04_270_bicycle_20_n03792782_5959.png
subject-04,1,779,0.818593978881836,cat,bottle,180,0779_rot_s04_180_bottle_20_n04557648_10233.png
subject-04,1,780,0.854733943939209,bear,bear,90,0780_rot_s04_90_bear_20_n02133161_3960.png
subject-04,1,781,0.861012935638428,airplane,airplane,0,0781_rot_s04_0_airplane_20_n02690373_2967.png
subject-04,1,782,1.08137989044189,keyboard,elephant,0,0782_rot_s04_0_elephant_20_n02504458_2970.png
subject-04,1,783,1.42392086982727,bicycle,bottle,90,0783_rot_s04_90_bottle_20_n04557648_11924.png
subject-04,1,784,0.992485046386719,bird,bird,90,0784_rot_s04_90_bird_20_n01558993_4985.png
subject-04,1,785,0.996805906295776,oven,bottle,180,0785_rot_s04_180_bottle_20_n04557648_4273.png
subject-04,1,786,0.957277059555054,dog,dog,90,0786_rot_s04_90_dog_20_n02097047_3850.png
subject-04,1,787,0.961488962173462,clock,clock,180,0787_rot_s04_180_clock_20_n04548280_7795.png
subject-04,1,788,0.784286975860596,clock,clock,270,0788_rot_s04_270_clock_20_n02708093_1513.png
subject-04,1,789,0.726494789123535,oven,oven,0,0789_rot_s04_0_oven_20_n04111531_6134.png
subject-04,1,790,0.686307907104492,truck,truck,0,0790_rot_s04_0_truck_20_n04467665_44390.png
subject-04,1,791,1.07380104064941,keyboard,keyboard,270,0791_rot_s04_270_keyboard_20_n04505470_2163.png
subject-04,1,792,0.886496782302856,elephant,elephant,0,0792_rot_s04_0_elephant_20_n02504458_694.png
subject-04,1,793,0.884873867034912,dog,dog,270,0793_rot_s04_270_dog_20_n02104365_520.png
subject-04,1,794,0.767512798309326,keyboard,keyboard,90,0794_rot_s04_90_keyboard_20_n03085013_17795.png
subject-04,1,795,1.40992522239685,airplane,airplane,180,0795_rot_s04_180_airplane_20_n02690373_8461.png
subject-04,1,796,0.940115213394165,oven,knife,0,0796_rot_s04_0_knife_20_n03041632_24326.png
subject-04,1,797,0.784469842910767,airplane,airplane,270,0797_rot_s04_270_airplane_20_n02690373_3712.png
subject-04,1,798,0.913328170776367,truck,truck,90,0798_rot_s04_90_truck_20_n04467665_49389.png
subject-04,1,799,0.879148960113525,bottle,bottle,0,0799_rot_s04_0_bottle_20_n02823428_5115.png
subject-04,1,800,0.81554102897644,oven,oven,90,0800_rot_s04_90_oven_20_n04111531_6801.png
subject-04,1,801,0.704442977905273,bird,bird,270,0801_rot_s04_270_bird_20_n02017213_7378.png
subject-04,1,802,0.802985906600952,cat,cat,270,0802_rot_s04_270_cat_20_n02123394_3011.png
subject-04,1,803,0.815207958221436,bottle,clock,180,0803_rot_s04_180_clock_20_n03196217_1423.png
subject-04,1,804,0.989059209823608,dog,dog,180,0804_rot_s04_180_dog_20_n02105855_7334.png
subject-04,1,805,0.971801996231079,keyboard,knife,0,0805_rot_s04_0_knife_20_n03041632_31483.png
subject-04,1,806,0.794080018997192,bottle,bottle,180,0806_rot_s04_180_bottle_20_n04560804_14267.png
subject-04,1,807,0.760770082473755,car,car,0,0807_rot_s04_0_car_20_n03100240_1146.png
subject-04,1,808,0.758975028991699,bottle,bottle,270,0808_rot_s04_270_bottle_20_n04591713_65.png
subject-04,1,809,0.603338003158569,keyboard,keyboard,270,0809_rot_s04_270_keyboard_20_n03085013_2149.png
subject-04,1,810,1.09973978996277,bird,bird,180,0810_rot_s04_180_bird_20_n02002556_12994.png
subject-04,1,811,0.898088932037354,dog,dog,180,0811_rot_s04_180_dog_20_n02088094_3281.png
subject-04,1,812,0.688347816467285,clock,clock,90,0812_rot_s04_90_clock_20_n02708093_847.png
subject-04,1,813,1.16865491867065,dog,dog,0,0813_rot_s04_0_dog_20_n02101006_1379.png
subject-04,1,814,0.80506420135498,dog,dog,0,0814_rot_s04_0_dog_20_n02106030_7440.png
subject-04,1,815,0.779329061508179,truck,truck,270,0815_rot_s04_270_truck_20_n03796401_755.png
subject-04,1,816,0.777617931365967,cat,oven,0,0816_rot_s04_0_oven_20_n04111531_12080.png
subject-04,1,817,0.829758167266846,cat,cat,90,0817_rot_s04_90_cat_20_n02123045_11224.png
subject-04,1,818,0.612352132797241,airplane,airplane,90,0818_rot_s04_90_airplane_20_n02690373_3984.png
subject-04,1,819,0.648773908615112,cat,bird,0,0819_rot_s04_0_bird_20_n01532829_15860.png
subject-04,1,820,0.820910930633545,bird,bird,90,0820_rot_s04_90_bird_20_n01532829_7163.png
subject-04,1,821,0.831525087356567,car,car,0,0821_rot_s04_0_car_20_n02814533_38963.png
subject-04,1,822,0.935776948928833,bird,bird,90,0822_rot_s04_90_bird_20_n02006656_11377.png
subject-04,1,823,0.871625900268555,bicycle,bicycle,180,0823_rot_s04_180_bicycle_20_n03792782_11720.png
subject-04,1,824,1.0081570148468,airplane,knife,270,0824_rot_s04_270_knife_20_n03041632_32896.png
subject-04,1,825,0.820713996887207,bird,boat,270,0825_rot_s04_270_boat_20_n03344393_7048.png
subject-04,1,826,0.956581115722656,truck,truck,180,0826_rot_s04_180_truck_20_n04467665_47602.png
subject-04,1,827,0.944784164428711,bicycle,bicycle,180,0827_rot_s04_180_bicycle_20_n03792782_10638.png
subject-04,1,828,0.788388967514038,clock,clock,90,0828_rot_s04_90_clock_20_n03196217_10677.png
subject-04,1,829,0.576746940612793,boat,boat,90,0829_rot_s04_90_boat_20_n03662601_4619.png
subject-04,1,830,0.721484899520874,car,car,90,0830_rot_s04_90_car_20_n03100240_7602.png
subject-04,1,831,0.749454021453857,bicycle,bicycle,180,0831_rot_s04_180_bicycle_20_n03792782_20028.png
subject-04,1,832,1.50023412704468,car,car,90,0832_rot_s04_90_car_20_n02814533_97292.png
subject-04,1,833,0.960150003433228,oven,knife,270,0833_rot_s04_270_knife_20_n03041632_26340.png
subject-04,1,834,1.04814410209656,oven,bird,180,0834_rot_s04_180_bird_20_n02011460_844.png
subject-04,1,835,0.692261219024658,airplane,boat,180,0835_rot_s04_180_boat_20_n03662601_25023.png
subject-04,1,836,0.637135028839111,keyboard,keyboard,0,0836_rot_s04_0_keyboard_20_n04505470_665.png
subject-04,1,837,0.994839906692505,keyboard,chair,270,0837_rot_s04_270_chair_20_n03376595_5112.png
subject-04,1,838,0.877623081207275,clock,clock,0,0838_rot_s04_0_clock_20_n04548280_1239.png
subject-04,1,839,1.09798002243042,bear,bear,90,0839_rot_s04_90_bear_20_n02133161_14397.png
subject-04,1,840,0.682595014572144,cat,cat,270,0840_rot_s04_270_cat_20_n02123045_2647.png
subject-04,1,841,0.770715951919556,bottle,bottle,180,0841_rot_s04_180_bottle_20_n03937543_6461.png
subject-04,1,842,0.7985999584198,bird,bird,270,0842_rot_s04_270_bird_20_n01514859_23289.png
subject-04,1,843,0.65936279296875,oven,oven,270,0843_rot_s04_270_oven_20_n04111531_8036.png
subject-04,1,844,0.901711940765381,bird,bird,90,0844_rot_s04_90_bird_20_n02006656_1946.png
subject-04,1,845,0.884021997451782,car,truck,0,0845_rot_s04_0_truck_20_n03417042_7005.png
subject-04,1,846,0.574523210525513,keyboard,keyboard,90,0846_rot_s04_90_keyboard_20_n03085013_35084.png
subject-04,1,847,0.672893047332764,boat,boat,0,0847_rot_s04_0_boat_20_n03344393_5072.png
subject-04,1,848,0.585090160369873,bicycle,bicycle,0,0848_rot_s04_0_bicycle_20_n02835271_3042.png
subject-04,1,849,0.713738918304443,bottle,bottle,90,0849_rot_s04_90_bottle_20_n04579145_4881.png
subject-04,1,850,0.696108102798462,bottle,bottle,180,0850_rot_s04_180_bottle_20_n04557648_7130.png
subject-04,1,851,0.824494123458862,truck,truck,0,0851_rot_s04_0_truck_20_n04467665_68331.png
subject-04,1,852,0.752508163452148,oven,oven,180,0852_rot_s04_180_oven_20_n04111531_7449.png
subject-04,1,853,0.941053867340088,car,car,270,0853_rot_s04_270_car_20_n03100240_8160.png
subject-04,1,854,0.877588033676147,bird,bird,180,0854_rot_s04_180_bird_20_n01531178_21594.png
subject-04,1,855,0.822384119033813,bird,bird,180,0855_rot_s04_180_bird_20_n01622779_3721.png
subject-04,1,856,0.790734052658081,clock,clock,90,0856_rot_s04_90_clock_20_n02708093_2875.png
subject-04,1,857,0.932830095291138,keyboard,clock,90,0857_rot_s04_90_clock_20_n02708093_8388.png
subject-04,1,858,0.898852825164795,bicycle,bicycle,180,0858_rot_s04_180_bicycle_20_n02835271_1393.png
subject-04,1,859,1.2816309928894,cat,cat,270,0859_rot_s04_270_cat_20_n02123045_112.png
subject-04,1,860,0.864019870758057,elephant,elephant,270,0860_rot_s04_270_elephant_20_n02504013_5225.png
subject-04,1,861,0.924439907073975,knife,knife,270,0861_rot_s04_270_knife_20_n03041632_21477.png
subject-04,1,862,0.698584079742432,truck,truck,270,0862_rot_s04_270_truck_20_n04467665_50927.png
subject-04,1,863,0.702682018280029,airplane,airplane,90,0863_rot_s04_90_airplane_20_n02690373_2580.png
subject-04,1,864,0.931238889694214,bottle,bicycle,180,0864_rot_s04_180_bicycle_20_n02835271_2815.png
subject-04,1,865,0.767826080322266,bicycle,bicycle,270,0865_rot_s04_270_bicycle_20_n03792782_8184.png
subject-04,1,866,0.704304933547974,oven,oven,0,0866_rot_s04_0_oven_20_n04111531_15649.png
subject-04,1,867,0.6839439868927,oven,knife,90,0867_rot_s04_90_knife_20_n03041632_3926.png
subject-04,1,868,0.912750005722046,truck,truck,180,0868_rot_s04_180_truck_20_n03417042_1148.png
subject-04,1,869,0.672283887863159,bear,bear,90,0869_rot_s04_90_bear_20_n02133161_3774.png
subject-04,1,870,0.644558191299438,elephant,elephant,180,0870_rot_s04_180_elephant_20_n02504013_6737.png
subject-04,1,871,0.850558042526245,truck,truck,0,0871_rot_s04_0_truck_20_n04467665_62976.png
subject-04,1,872,NaN,na,airplane,0,0872_rot_s04_0_airplane_20_n02690373_6854.png
subject-04,1,873,0.699697971343994,knife,knife,180,0873_rot_s04_180_knife_20_n03041632_27960.png
subject-04,1,874,0.996233940124512,boat,boat,180,0874_rot_s04_180_boat_20_n02951358_9146.png
subject-04,1,875,1.03275799751282,truck,bird,270,0875_rot_s04_270_bird_20_n01855672_15404.png
subject-04,1,876,0.861426115036011,bottle,bottle,90,0876_rot_s04_90_bottle_20_n02823428_11140.png
subject-04,1,877,NaN,na,elephant,270,0877_rot_s04_270_elephant_20_n02504013_14648.png
subject-04,1,878,0.949739933013916,airplane,airplane,180,0878_rot_s04_180_airplane_20_n02690373_1416.png
subject-04,1,879,0.739871978759766,elephant,elephant,0,0879_rot_s04_0_elephant_20_n02504458_4244.png
subject-04,1,880,0.790276050567627,truck,truck,0,0880_rot_s04_0_truck_20_n04467665_64249.png
subject-04,1,881,0.740571022033691,dog,dog,180,0881_rot_s04_180_dog_20_n02106662_5916.png
subject-04,1,882,0.638640880584717,elephant,elephant,90,0882_rot_s04_90_elephant_20_n02504458_3951.png
subject-04,1,883,0.896793842315674,car,car,90,0883_rot_s04_90_car_20_n02814533_66038.png
subject-04,1,884,0.719365119934082,bottle,bottle,90,0884_rot_s04_90_bottle_20_n04579145_1646.png
subject-04,1,885,0.745993852615356,airplane,airplane,0,0885_rot_s04_0_airplane_20_n02690373_10181.png
subject-04,1,886,0.92253589630127,cat,cat,0,0886_rot_s04_0_cat_20_n02123045_11748.png
subject-04,1,887,0.818436861038208,oven,truck,180,0887_rot_s04_180_truck_20_n04467665_1974.png
subject-04,1,888,0.592552900314331,keyboard,keyboard,270,0888_rot_s04_270_keyboard_20_n03085013_25575.png
subject-04,1,889,0.74519681930542,knife,knife,90,0889_rot_s04_90_knife_20_n03041632_8151.png
subject-04,1,890,1.50022888183594,cat,cat,180,0890_rot_s04_180_cat_20_n02125311_8725.png
subject-04,1,891,0.694143056869507,keyboard,keyboard,90,0891_rot_s04_90_keyboard_20_n03085013_20727.png
subject-04,1,892,1.47458004951477,car,chair,270,0892_rot_s04_270_chair_20_n02791124_3506.png
subject-04,1,893,0.9585862159729,oven,knife,180,0893_rot_s04_180_knife_20_n03041632_94202.png
subject-04,1,894,1.17103505134583,elephant,elephant,270,0894_rot_s04_270_elephant_20_n02504013_2085.png
subject-04,1,895,1.12933206558228,bird,bird,0,0895_rot_s04_0_bird_20_n02018795_1011.png
subject-04,1,896,0.673610925674438,bottle,bottle,90,0896_rot_s04_90_bottle_20_n04579145_5824.png
subject-04,1,897,0.994009971618652,bicycle,bird,270,0897_rot_s04_270_bird_20_n02025239_16987.png
subject-04,1,898,0.784800052642822,airplane,airplane,90,0898_rot_s04_90_airplane_20_n02690373_5980.png
subject-04,1,899,1.49704003334045,oven,keyboard,180,0899_rot_s04_180_keyboard_20_n03085013_21886.png
subject-04,1,900,0.987780094146729,bird,bird,180,0900_rot_s04_180_bird_20_n01560419_5714.png
subject-04,1,901,0.672894954681396,bicycle,bicycle,0,0901_rot_s04_0_bicycle_20_n03792782_60.png
subject-04,1,902,0.660964965820312,elephant,elephant,270,0902_rot_s04_270_elephant_20_n02504013_6823.png
subject-04,1,903,0.850902080535889,elephant,dog,270,0903_rot_s04_270_dog_20_n02098105_911.png
subject-04,1,904,0.741498947143555,bicycle,bicycle,90,0904_rot_s04_90_bicycle_20_n02835271_3711.png
subject-04,1,905,0.753506898880005,chair,chair,0,0905_rot_s04_0_chair_20_n04099969_120.png
subject-04,1,906,0.741596937179565,knife,knife,90,0906_rot_s04_90_knife_20_n03041632_38433.png
subject-04,1,907,0.885892152786255,bear,bear,90,0907_rot_s04_90_bear_20_n02134418_1081.png
subject-04,1,908,0.960562944412231,airplane,airplane,180,0908_rot_s04_180_airplane_20_n02690373_7046.png
subject-04,1,909,0.733926773071289,bear,bear,90,0909_rot_s04_90_bear_20_n02134084_3375.png
subject-04,1,910,0.724551916122437,elephant,elephant,180,0910_rot_s04_180_elephant_20_n02504013_5678.png
subject-04,1,911,0.990880012512207,cat,cat,90,0911_rot_s04_90_cat_20_n02123159_5749.png
subject-04,1,912,0.857155084609985,bear,bird,180,0912_rot_s04_180_bird_20_n02002724_7923.png
subject-04,1,913,0.839308977127075,cat,cat,90,0913_rot_s04_90_cat_20_n02123159_6407.png
subject-04,1,914,0.797676086425781,chair,chair,0,0914_rot_s04_0_chair_20_n02791124_4135.png
subject-04,1,915,0.787775993347168,bear,chair,180,0915_rot_s04_180_chair_20_n04429376_6915.png
subject-04,1,916,0.732089996337891,elephant,elephant,90,0916_rot_s04_90_elephant_20_n02504458_3946.png
subject-04,1,917,0.898313045501709,elephant,elephant,90,0917_rot_s04_90_elephant_20_n02504458_11884.png
subject-04,1,918,0.940497159957886,dog,dog,0,0918_rot_s04_0_dog_20_n02099712_1432.png
subject-04,1,919,0.746912956237793,boat,boat,180,0919_rot_s04_180_boat_20_n02951358_6933.png
subject-04,1,920,0.843202114105225,boat,boat,90,0920_rot_s04_90_boat_20_n03662601_18641.png
subject-04,1,921,0.733174085617065,clock,clock,270,0921_rot_s04_270_clock_20_n02708093_1431.png
subject-04,1,922,0.753859996795654,chair,chair,90,0922_rot_s04_90_chair_20_n02791124_9661.png
subject-04,1,923,1.06573700904846,bottle,bottle,0,0923_rot_s04_0_bottle_20_n04591713_5113.png
subject-04,1,924,0.994102954864502,car,car,90,0924_rot_s04_90_car_20_n04285008_7204.png
subject-04,1,925,1.38206911087036,keyboard,bottle,90,0925_rot_s04_90_bottle_20_n04557648_11873.png
subject-04,1,926,1.00473213195801,elephant,elephant,90,0926_rot_s04_90_elephant_20_n02504458_1328.png
subject-04,1,927,0.716799974441528,clock,clock,0,0927_rot_s04_0_clock_20_n02708093_5034.png
subject-04,1,928,0.807286977767944,oven,oven,270,0928_rot_s04_270_oven_20_n04111531_8658.png
subject-04,1,929,0.56731390953064,airplane,airplane,180,0929_rot_s04_180_airplane_20_n02690373_2598.png
subject-04,1,930,0.647515058517456,clock,bear,270,0930_rot_s04_270_bear_20_n02133161_6156.png
subject-04,1,931,1.16008305549622,bear,bear,180,0931_rot_s04_180_bear_20_n02134084_12605.png
subject-04,1,932,0.850149154663086,bottle,chair,270,0932_rot_s04_270_chair_20_n04429376_24679.png
subject-04,1,933,0.72407603263855,oven,boat,270,0933_rot_s04_270_boat_20_n03662601_23776.png
subject-04,1,934,0.874644041061401,chair,chair,90,0934_rot_s04_90_chair_20_n04429376_4849.png
subject-04,1,935,0.764875173568726,chair,bird,270,0935_rot_s04_270_bird_20_n02037110_13776.png
subject-04,1,936,0.69279408454895,airplane,airplane,180,0936_rot_s04_180_airplane_20_n02690373_3669.png
subject-04,1,937,0.643264055252075,oven,truck,180,0937_rot_s04_180_truck_20_n03417042_20021.png
subject-04,1,938,0.657869100570679,keyboard,bottle,270,0938_rot_s04_270_bottle_20_n04560804_24903.png
subject-04,1,939,0.754722118377686,airplane,airplane,90,0939_rot_s04_90_airplane_20_n02690373_1360.png
subject-04,1,940,0.92859411239624,chair,bottle,180,0940_rot_s04_180_bottle_20_n04560804_14079.png
subject-04,1,941,0.610028982162476,bottle,chair,90,0941_rot_s04_90_chair_20_n04429376_10546.png
subject-04,1,942,0.73041296005249,truck,truck,270,0942_rot_s04_270_truck_20_n03796401_2988.png
subject-04,1,943,1.04277586936951,truck,bird,0,0943_rot_s04_0_bird_20_n02007558_396.png
subject-04,1,944,0.709360122680664,oven,elephant,0,0944_rot_s04_0_elephant_20_n02504458_8141.png
subject-04,1,945,0.599442005157471,oven,oven,0,0945_rot_s04_0_oven_20_n04111531_3099.png
subject-04,1,946,0.695888996124268,bird,bird,180,0946_rot_s04_180_bird_20_n01532829_5074.png
subject-04,1,947,0.702284812927246,cat,cat,180,0947_rot_s04_180_cat_20_n02123597_4863.png
subject-04,1,948,0.860749006271362,elephant,elephant,180,0948_rot_s04_180_elephant_20_n02504013_4674.png
subject-04,1,949,1.25087594985962,boat,boat,0,0949_rot_s04_0_boat_20_n03662601_32417.png
subject-04,1,950,0.708939075469971,boat,boat,270,0950_rot_s04_270_boat_20_n02951358_7051.png
subject-04,1,951,0.983281135559082,airplane,airplane,270,0951_rot_s04_270_airplane_20_n02690373_6798.png
subject-04,1,952,0.973361015319824,bicycle,bicycle,270,0952_rot_s04_270_bicycle_20_n03792782_7787.png
subject-04,1,953,0.739543914794922,bicycle,chair,90,0953_rot_s04_90_chair_20_n04429376_602.png
subject-04,1,954,0.79789400100708,oven,keyboard,180,0954_rot_s04_180_keyboard_20_n03085013_17937.png
subject-04,1,955,0.720162153244019,cat,cat,90,0955_rot_s04_90_cat_20_n02124075_1430.png
subject-04,1,956,1.10865306854248,oven,oven,0,0956_rot_s04_0_oven_20_n04111531_9762.png
subject-04,1,957,0.766690969467163,knife,knife,90,0957_rot_s04_90_knife_20_n03041632_36280.png
subject-04,1,958,0.981300115585327,bear,bear,270,0958_rot_s04_270_bear_20_n02134084_1090.png
subject-04,1,959,1.06952095031738,bear,bear,0,0959_rot_s04_0_bear_20_n02134418_5535.png
subject-04,1,960,0.867944002151489,bird,bird,0,0960_rot_s04_0_bird_20_n01592084_3674.png
subject-04,1,961,0.942147016525269,dog,dog,270,0961_rot_s04_270_dog_20_n02086910_4296.png
subject-04,1,962,0.910076856613159,oven,oven,270,0962_rot_s04_270_oven_20_n04111531_15267.png
subject-04,1,963,0.544027090072632,oven,oven,0,0963_rot_s04_0_oven_20_n04111531_16198.png
subject-04,1,964,0.6265869140625,elephant,elephant,0,0964_rot_s04_0_elephant_20_n02504458_12374.png
subject-04,1,965,0.594988107681274,elephant,elephant,0,0965_rot_s04_0_elephant_20_n02504458_4934.png
subject-04,1,966,0.991760969161987,cat,cat,0,0966_rot_s04_0_cat_20_n02123159_3289.png
subject-04,1,967,0.812161922454834,bicycle,bicycle,270,0967_rot_s04_270_bicycle_20_n02835271_6873.png
subject-04,1,968,0.902777910232544,oven,oven,270,0968_rot_s04_270_oven_20_n04111531_7883.png
subject-04,1,969,0.807238817214966,truck,truck,270,0969_rot_s04_270_truck_20_n03417042_4613.png
subject-04,1,970,0.697521924972534,chair,chair,270,0970_rot_s04_270_chair_20_n04099969_50730.png
subject-04,1,971,0.971841812133789,airplane,airplane,270,0971_rot_s04_270_airplane_20_n02690373_10657.png
subject-04,1,972,0.807831048965454,airplane,airplane,270,0972_rot_s04_270_airplane_20_n02690373_7094.png
subject-04,1,973,0.84430980682373,keyboard,keyboard,90,0973_rot_s04_90_keyboard_20_n04505470_2243.png
subject-04,1,974,0.718807935714722,bear,bear,90,0974_rot_s04_90_bear_20_n02132136_729.png
subject-04,1,975,0.839545011520386,keyboard,keyboard,90,0975_rot_s04_90_keyboard_20_n03085013_5726.png
subject-04,1,976,1.03601312637329,chair,chair,180,0976_rot_s04_180_chair_20_n02791124_5405.png
subject-04,1,977,0.896533012390137,elephant,elephant,90,0977_rot_s04_90_elephant_20_n02504458_7982.png
subject-04,1,978,0.863097906112671,boat,boat,90,0978_rot_s04_90_boat_20_n02951358_12462.png
subject-04,1,979,0.623304128646851,truck,truck,90,0979_rot_s04_90_truck_20_n03417042_10517.png
subject-04,1,980,0.897549152374268,bicycle,bicycle,0,0980_rot_s04_0_bicycle_20_n03792782_20387.png
subject-04,1,981,0.701810836791992,oven,oven,180,0981_rot_s04_180_oven_20_n04111531_8077.png
subject-04,1,982,0.959948062896729,chair,chair,0,0982_rot_s04_0_chair_20_n02791124_2327.png
subject-04,1,983,0.728428840637207,airplane,airplane,0,0983_rot_s04_0_airplane_20_n02690373_6716.png
subject-04,1,984,0.848922967910767,oven,bottle,0,0984_rot_s04_0_bottle_20_n03983396_2975.png
subject-04,1,985,1.34486603736877,car,car,180,0985_rot_s04_180_car_20_n03100240_5196.png
subject-04,1,986,0.727675914764404,truck,truck,180,0986_rot_s04_180_truck_20_n04467665_513.png
subject-04,1,987,0.669313907623291,keyboard,keyboard,90,0987_rot_s04_90_keyboard_20_n04505470_805.png
subject-04,1,988,0.713002920150757,airplane,airplane,90,0988_rot_s04_90_airplane_20_n02690373_8539.png
subject-04,1,989,0.641625881195068,clock,clock,0,0989_rot_s04_0_clock_20_n04548280_9755.png
subject-04,1,990,0.678071022033691,chair,chair,180,0990_rot_s04_180_chair_20_n04099969_2620.png
subject-04,1,991,0.682810068130493,oven,keyboard,90,0991_rot_s04_90_keyboard_20_n03085013_19775.png
subject-04,1,992,0.841096878051758,bird,bird,0,0992_rot_s04_0_bird_20_n01622779_3413.png
subject-04,1,993,0.693459987640381,elephant,elephant,0,0993_rot_s04_0_elephant_20_n02504458_11.png
subject-04,1,994,0.851603031158447,bicycle,truck,90,0994_rot_s04_90_truck_20_n04467665_6626.png
subject-04,1,995,0.9963059425354,elephant,elephant,90,0995_rot_s04_90_elephant_20_n02504458_8197.png
subject-04,1,996,0.854977130889893,clock,clock,180,0996_rot_s04_180_clock_20_n03196217_1044.png
subject-04,1,997,0.8232741355896,keyboard,oven,90,0997_rot_s04_90_oven_20_n04111531_9026.png
subject-04,1,998,0.919780015945435,cat,cat,0,0998_rot_s04_0_cat_20_n02123045_18019.png
subject-04,1,999,1.06195092201233,airplane,airplane,0,0999_rot_s04_0_airplane_20_n02690373_13384.png
subject-04,1,1000,0.876140117645264,keyboard,keyboard,90,1000_rot_s04_90_keyboard_20_n03085013_24502.png
subject-04,1,1001,0.712569952011108,bicycle,bicycle,90,1001_rot_s04_90_bicycle_20_n02835271_7594.png
subject-04,1,1002,0.904330968856812,airplane,airplane,90,1002_rot_s04_90_airplane_20_n02690373_9709.png
subject-04,1,1003,1.0548038482666,truck,truck,180,1003_rot_s04_180_truck_20_n03417042_26814.png
subject-04,1,1004,0.866515159606934,bear,bear,180,1004_rot_s04_180_bear_20_n02134418_72.png
subject-04,1,1005,0.902934074401855,chair,chair,0,1005_rot_s04_0_chair_20_n02791124_6243.png
subject-04,1,1006,0.693277835845947,car,car,180,1006_rot_s04_180_car_20_n03100240_3753.png
subject-04,1,1007,0.727105140686035,bottle,bottle,270,1007_rot_s04_270_bottle_20_n02823428_3570.png
subject-04,1,1008,0.763640880584717,cat,cat,0,1008_rot_s04_0_cat_20_n02124075_10896.png
subject-04,1,1009,0.784180879592896,oven,chair,180,1009_rot_s04_180_chair_20_n04099969_214.png
subject-04,1,1010,0.798572063446045,oven,knife,90,1010_rot_s04_90_knife_20_n03041632_62810.png
subject-04,1,1011,0.640643119812012,keyboard,keyboard,0,1011_rot_s04_0_keyboard_20_n04505470_2805.png
subject-04,1,1012,0.69318699836731,elephant,elephant,180,1012_rot_s04_180_elephant_20_n02504458_349.png
subject-04,1,1013,0.781341075897217,chair,chair,0,1013_rot_s04_0_chair_20_n02791124_3720.png
subject-04,1,1014,0.917582988739014,bear,cat,0,1014_rot_s04_0_cat_20_n02125311_5053.png
subject-04,1,1015,0.692054986953735,bottle,bottle,0,1015_rot_s04_0_bottle_20_n04591713_7181.png
subject-04,1,1016,1.15870499610901,dog,knife,180,1016_rot_s04_180_knife_20_n03041632_21345.png
subject-04,1,1017,0.933207035064697,elephant,bear,180,1017_rot_s04_180_bear_20_n02132136_7995.png
subject-04,1,1018,0.922906160354614,oven,oven,270,1018_rot_s04_270_oven_20_n04111531_4146.png
subject-04,1,1019,0.965051174163818,boat,boat,0,1019_rot_s04_0_boat_20_n04612504_13826.png
subject-04,1,1020,0.762964963912964,bird,bird,0,1020_rot_s04_0_bird_20_n01560419_3857.png
subject-04,1,1021,0.688722848892212,bear,bear,90,1021_rot_s04_90_bear_20_n02133161_12370.png
subject-04,1,1022,0.832689046859741,cat,cat,0,1022_rot_s04_0_cat_20_n02123159_4881.png
subject-04,1,1023,0.86745810508728,keyboard,keyboard,0,1023_rot_s04_0_keyboard_20_n03085013_4281.png
subject-04,1,1024,0.9113929271698,keyboard,keyboard,180,1024_rot_s04_180_keyboard_20_n03085013_23929.png
subject-04,1,1025,0.715740203857422,truck,truck,0,1025_rot_s04_0_truck_20_n03417042_1245.png
subject-04,1,1026,1.09822583198547,dog,dog,90,1026_rot_s04_90_dog_20_n02112350_9899.png
subject-04,1,1027,0.87247896194458,keyboard,knife,0,1027_rot_s04_0_knife_20_n03041632_101673.png
subject-04,1,1028,0.930526971817017,car,car,270,1028_rot_s04_270_car_20_n04285008_10926.png
subject-04,1,1029,0.805044889450073,bicycle,bicycle,180,1029_rot_s04_180_bicycle_20_n02835271_12453.png
subject-04,1,1030,0.741502046585083,cat,cat,270,1030_rot_s04_270_cat_20_n02123045_3819.png
subject-04,1,1031,0.839908123016357,knife,knife,180,1031_rot_s04_180_knife_20_n03041632_54627.png
subject-04,1,1032,0.782213926315308,keyboard,truck,270,1032_rot_s04_270_truck_20_n03796401_11167.png
subject-04,1,1033,1.12491607666016,oven,bottle,0,1033_rot_s04_0_bottle_20_n03983396_3164.png
subject-04,1,1034,0.877465009689331,bear,bear,90,1034_rot_s04_90_bear_20_n02133161_4583.png
subject-04,1,1035,0.804731130599976,bicycle,bicycle,270,1035_rot_s04_270_bicycle_20_n02835271_5814.png
subject-04,1,1036,1.10119485855103,bear,bear,270,1036_rot_s04_270_bear_20_n02132136_4821.png
subject-04,1,1037,0.899709939956665,boat,boat,270,1037_rot_s04_270_boat_20_n02951358_10450.png
subject-04,1,1038,0.733747005462646,bicycle,bicycle,90,1038_rot_s04_90_bicycle_20_n02835271_13311.png
subject-04,1,1039,0.747978925704956,bottle,bottle,90,1039_rot_s04_90_bottle_20_n03983396_13434.png
subject-04,1,1040,0.636704921722412,bear,bear,270,1040_rot_s04_270_bear_20_n02132136_21847.png
subject-04,1,1041,0.65919303894043,knife,knife,180,1041_rot_s04_180_knife_20_n03041632_13203.png
subject-04,1,1042,0.95569896697998,dog,dog,180,1042_rot_s04_180_dog_20_n02105162_3326.png
subject-04,1,1043,0.61390209197998,clock,clock,180,1043_rot_s04_180_clock_20_n02708093_2295.png
subject-04,1,1044,0.864152908325195,truck,truck,90,1044_rot_s04_90_truck_20_n04467665_59509.png
subject-04,1,1045,0.670148134231567,knife,knife,90,1045_rot_s04_90_knife_20_n03041632_46720.png
subject-04,1,1046,0.636682987213135,bear,bear,90,1046_rot_s04_90_bear_20_n02132136_12577.png
subject-04,1,1047,0.627087116241455,oven,oven,0,1047_rot_s04_0_oven_20_n04111531_4939.png
subject-04,1,1048,0.807602167129517,elephant,elephant,90,1048_rot_s04_90_elephant_20_n02504013_3916.png
subject-04,1,1049,1.34181785583496,bear,bear,0,1049_rot_s04_0_bear_20_n02134084_3013.png
subject-04,1,1050,0.856275081634521,keyboard,keyboard,180,1050_rot_s04_180_keyboard_20_n03085013_8007.png
subject-04,1,1051,1.09885001182556,dog,dog,0,1051_rot_s04_0_dog_20_n02112350_751.png
subject-04,1,1052,0.843088150024414,clock,bottle,270,1052_rot_s04_270_bottle_20_n04557648_3495.png
subject-04,1,1053,0.87120509147644,elephant,elephant,180,1053_rot_s04_180_elephant_20_n02504458_3303.png
subject-04,1,1054,0.975862979888916,oven,bicycle,0,1054_rot_s04_0_bicycle_20_n03792782_6716.png
subject-04,1,1055,NaN,na,airplane,270,1055_rot_s04_270_airplane_20_n02690373_757.png
subject-04,1,1056,0.656421899795532,bottle,bottle,0,1056_rot_s04_0_bottle_20_n04591713_5815.png
subject-04,1,1057,0.799118041992188,bird,bird,90,1057_rot_s04_90_bird_20_n02017213_3915.png
subject-04,1,1058,0.681085824966431,airplane,airplane,90,1058_rot_s04_90_airplane_20_n02690373_4225.png
