subj,session,trial,rt,object_response,category,condition,imagename
subject-05,1,1,0.635749101638794,boat,boat,90,0001_rot_s05_90_boat_20_n04273569_359.png
subject-05,1,2,0.660178899765015,chair,chair,270,0002_rot_s05_270_chair_20_n04429376_11642.png
subject-05,1,3,0.782713890075684,truck,truck,90,0003_rot_s05_90_truck_20_n04467665_70988.png
subject-05,1,4,0.612853050231934,elephant,elephant,90,0004_rot_s05_90_elephant_20_n02504458_62.png
subject-05,1,5,0.835760116577148,bear,bear,270,0005_rot_s05_270_bear_20_n02134418_546.png
subject-05,1,6,0.790035009384155,car,airplane,180,0006_rot_s05_180_airplane_20_n02690373_9618.png
subject-05,1,7,0.666719913482666,bicycle,bicycle,270,0007_rot_s05_270_bicycle_20_n03792782_7612.png
subject-05,1,8,0.65892505645752,bird,bird,0,0008_rot_s05_0_bird_20_n02033041_5881.png
subject-05,1,9,0.693712949752808,car,car,0,0009_rot_s05_0_car_20_n04285008_9383.png
subject-05,1,10,1.07799792289734,knife,knife,180,0010_rot_s05_180_knife_20_n03041632_36215.png
subject-05,1,11,0.700517892837524,bird,bird,270,0011_rot_s05_270_bird_20_n02027492_10270.png
subject-05,1,12,0.892529010772705,bottle,bottle,0,0012_rot_s05_0_bottle_20_n04560804_565.png
subject-05,1,13,0.85500693321228,dog,dog,180,0013_rot_s05_180_dog_20_n02111277_34186.png
subject-05,1,14,0.899177074432373,oven,oven,90,0014_rot_s05_90_oven_20_n04111531_1050.png
subject-05,1,15,1.12979102134705,dog,dog,90,0015_rot_s05_90_dog_20_n02093991_8441.png
subject-05,1,16,0.868338108062744,truck,truck,0,0016_rot_s05_0_truck_20_n04467665_67922.png
subject-05,1,17,0.814898014068604,oven,dog,0,0017_rot_s05_0_dog_20_n02100236_11274.png
subject-05,1,18,0.904211044311523,bottle,bottle,0,0018_rot_s05_0_bottle_20_n03983396_23451.png
subject-05,1,19,0.742796182632446,knife,knife,0,0019_rot_s05_0_knife_20_n03041632_11932.png
subject-05,1,20,0.73376202583313,oven,oven,0,0020_rot_s05_0_oven_20_n04111531_21173.png
subject-05,1,21,0.702333927154541,car,car,0,0021_rot_s05_0_car_20_n03100240_12560.png
subject-05,1,22,1.02469801902771,car,car,180,0022_rot_s05_180_car_20_n03100240_10208.png
subject-05,1,23,1.1688289642334,elephant,elephant,90,0023_rot_s05_90_elephant_20_n02504458_11363.png
subject-05,1,24,1.03644800186157,knife,knife,180,0024_rot_s05_180_knife_20_n03041632_18995.png
subject-05,1,25,1.09085512161255,keyboard,keyboard,0,0025_rot_s05_0_keyboard_20_n03085013_23552.png
subject-05,1,26,0.867534160614014,cat,cat,0,0026_rot_s05_0_cat_20_n02123045_6441.png
subject-05,1,27,0.898194074630737,chair,chair,180,0027_rot_s05_180_chair_20_n03376595_629.png
subject-05,1,28,0.630614042282104,cat,cat,0,0028_rot_s05_0_cat_20_n02123394_2065.png
subject-05,1,29,0.752807140350342,bear,bear,0,0029_rot_s05_0_bear_20_n02133161_6679.png
subject-05,1,30,1.03561806678772,bear,bear,270,0030_rot_s05_270_bear_20_n02134084_41235.png
subject-05,1,31,1.45814108848572,dog,dog,270,0031_rot_s05_270_dog_20_n02087046_657.png
subject-05,1,32,0.72048807144165,bottle,bottle,90,0032_rot_s05_90_bottle_20_n04560804_6392.png
subject-05,1,33,1.46463394165039,boat,boat,180,0033_rot_s05_180_boat_20_n03344393_5201.png
subject-05,1,34,0.704704999923706,clock,clock,270,0034_rot_s05_270_clock_20_n02708093_3674.png
subject-05,1,35,0.603248119354248,chair,chair,0,0035_rot_s05_0_chair_20_n04099969_50961.png
subject-05,1,36,0.93372106552124,bottle,bottle,0,0036_rot_s05_0_bottle_20_n03937543_5657.png
subject-05,1,37,0.793753147125244,keyboard,keyboard,90,0037_rot_s05_90_keyboard_20_n04505470_6806.png
subject-05,1,38,0.678269147872925,cat,cat,0,0038_rot_s05_0_cat_20_n02123597_5618.png
subject-05,1,39,1.02399396896362,bicycle,bicycle,0,0039_rot_s05_0_bicycle_20_n02835271_8511.png
subject-05,1,40,0.885274887084961,oven,oven,270,0040_rot_s05_270_oven_20_n04111531_22916.png
subject-05,1,41,0.861577987670898,dog,dog,180,0041_rot_s05_180_dog_20_n02099429_3363.png
subject-05,1,42,0.832304954528809,bottle,bottle,180,0042_rot_s05_180_bottle_20_n02823428_6112.png
subject-05,1,43,0.922961950302124,keyboard,chair,90,0043_rot_s05_90_chair_20_n02791124_3001.png
subject-05,1,44,0.684770107269287,dog,dog,180,0044_rot_s05_180_dog_20_n02106166_2869.png
subject-05,1,45,0.799239873886108,truck,truck,180,0045_rot_s05_180_truck_20_n03417042_2991.png
subject-05,1,46,0.989489078521729,car,car,180,0046_rot_s05_180_car_20_n03100240_416.png
subject-05,1,47,0.913940906524658,oven,oven,0,0047_rot_s05_0_oven_20_n04111531_7955.png
subject-05,1,48,0.906288862228394,car,car,180,0048_rot_s05_180_car_20_n04285008_13001.png
subject-05,1,49,0.896463871002197,truck,truck,180,0049_rot_s05_180_truck_20_n04467665_4401.png
subject-05,1,50,0.812844038009644,truck,truck,0,0050_rot_s05_0_truck_20_n03417042_22116.png
subject-05,1,51,1.42465090751648,bicycle,bicycle,180,0051_rot_s05_180_bicycle_20_n02835271_19400.png
subject-05,1,52,0.740828037261963,car,boat,180,0052_rot_s05_180_boat_20_n02951358_29557.png
subject-05,1,53,0.655325889587402,bird,bear,270,0053_rot_s05_270_bear_20_n02134418_6111.png
subject-05,1,54,0.817440986633301,elephant,elephant,270,0054_rot_s05_270_elephant_20_n02504013_4187.png
subject-05,1,55,0.794150114059448,keyboard,keyboard,180,0055_rot_s05_180_keyboard_20_n04505470_4790.png
subject-05,1,56,0.930440187454224,bicycle,bicycle,180,0056_rot_s05_180_bicycle_20_n02835271_5643.png
subject-05,1,57,0.761178016662598,cat,cat,270,0057_rot_s05_270_cat_20_n02123597_22264.png
subject-05,1,58,0.951313972473145,car,car,0,0058_rot_s05_0_car_20_n04285008_7947.png
subject-05,1,59,0.681633949279785,chair,chair,90,0059_rot_s05_90_chair_20_n03376595_2388.png
subject-05,1,60,0.633418083190918,keyboard,keyboard,90,0060_rot_s05_90_keyboard_20_n03085013_19483.png
subject-05,1,61,0.647964000701904,chair,chair,90,0061_rot_s05_90_chair_20_n03376595_9636.png
subject-05,1,62,0.72412896156311,chair,chair,90,0062_rot_s05_90_chair_20_n04099969_14419.png
subject-05,1,63,0.816678047180176,truck,truck,0,0063_rot_s05_0_truck_20_n03796401_2447.png
subject-05,1,64,1.26105213165283,cat,bear,180,0064_rot_s05_180_bear_20_n02134418_5528.png
subject-05,1,65,0.753478050231934,chair,bird,180,0065_rot_s05_180_bird_20_n02009912_6928.png
subject-05,1,66,0.63763689994812,airplane,airplane,270,0066_rot_s05_270_airplane_20_n02690373_2564.png
subject-05,1,67,0.90608811378479,truck,truck,270,0067_rot_s05_270_truck_20_n04467665_11830.png
subject-05,1,68,NaN,na,clock,90,0068_rot_s05_90_clock_20_n04548280_5382.png
subject-05,1,69,0.942301988601685,boat,boat,90,0069_rot_s05_90_boat_20_n04612504_5442.png
subject-05,1,70,0.780638933181763,elephant,elephant,0,0070_rot_s05_0_elephant_20_n02504458_4320.png
subject-05,1,71,0.766448020935059,keyboard,oven,180,0071_rot_s05_180_oven_20_n04111531_807.png
subject-05,1,72,0.996485948562622,elephant,elephant,270,0072_rot_s05_270_elephant_20_n02504458_13100.png
subject-05,1,73,1.01635003089905,chair,chair,90,0073_rot_s05_90_chair_20_n04429376_7123.png
subject-05,1,74,0.992663145065308,cat,dog,90,0074_rot_s05_90_dog_20_n02086240_8342.png
subject-05,1,75,0.790318965911865,elephant,elephant,90,0075_rot_s05_90_elephant_20_n02504458_3225.png
subject-05,1,76,1.20477795600891,dog,bear,180,0076_rot_s05_180_bear_20_n02132136_10620.png
subject-05,1,77,0.721124887466431,elephant,elephant,270,0077_rot_s05_270_elephant_20_n02504458_7130.png
subject-05,1,78,1.31967687606812,chair,chair,180,0078_rot_s05_180_chair_20_n04099969_7344.png
subject-05,1,79,0.758002996444702,boat,boat,0,0079_rot_s05_0_boat_20_n03662601_11764.png
subject-05,1,80,0.796520948410034,bird,bird,180,0080_rot_s05_180_bird_20_n01537544_3093.png
subject-05,1,81,1.04097509384155,car,car,90,0081_rot_s05_90_car_20_n02814533_96791.png
subject-05,1,82,0.908707857131958,car,car,270,0082_rot_s05_270_car_20_n02814533_20806.png
subject-05,1,83,0.815193891525269,elephant,elephant,270,0083_rot_s05_270_elephant_20_n02504013_2437.png
subject-05,1,84,0.807151079177856,cat,cat,90,0084_rot_s05_90_cat_20_n02123159_2236.png
subject-05,1,85,0.621214866638184,clock,clock,180,0085_rot_s05_180_clock_20_n02708093_3177.png
subject-05,1,86,1.28962111473083,airplane,airplane,90,0086_rot_s05_90_airplane_20_n02690373_3272.png
subject-05,1,87,1.04210090637207,bear,bear,90,0087_rot_s05_90_bear_20_n02133161_1433.png
subject-05,1,88,1.48607993125916,oven,bottle,0,0088_rot_s05_0_bottle_20_n03983396_15861.png
subject-05,1,89,0.94809103012085,bird,bird,90,0089_rot_s05_90_bird_20_n02018795_18140.png
subject-05,1,90,0.778820037841797,clock,oven,270,0090_rot_s05_270_oven_20_n04111531_2066.png
subject-05,1,91,0.576625108718872,cat,cat,90,0091_rot_s05_90_cat_20_n02123597_14581.png
subject-05,1,92,0.623000144958496,oven,oven,270,0092_rot_s05_270_oven_20_n04111531_16144.png
subject-05,1,93,0.613054037094116,boat,boat,90,0093_rot_s05_90_boat_20_n04273569_16167.png
subject-05,1,94,1.50005578994751,dog,bear,0,0094_rot_s05_0_bear_20_n02134418_3389.png
subject-05,1,95,0.812039852142334,elephant,elephant,270,0095_rot_s05_270_elephant_20_n02504013_632.png
subject-05,1,96,1.07242703437805,clock,clock,90,0096_rot_s05_90_clock_20_n03196217_6477.png
subject-05,1,97,1.08654618263245,bear,bear,0,0097_rot_s05_0_bear_20_n02133161_4723.png
subject-05,1,98,0.646825075149536,bear,bear,90,0098_rot_s05_90_bear_20_n02134084_2752.png
subject-05,1,99,0.922991037368774,knife,knife,90,0099_rot_s05_90_knife_20_n03041632_22241.png
subject-05,1,100,0.953014135360718,cat,dog,270,0100_rot_s05_270_dog_20_n02088094_10685.png
subject-05,1,101,0.751317024230957,bear,bear,270,0101_rot_s05_270_bear_20_n02132136_29793.png
subject-05,1,102,0.765675783157349,bird,bird,0,0102_rot_s05_0_bird_20_n01820546_836.png
subject-05,1,103,0.819730997085571,bear,bear,180,0103_rot_s05_180_bear_20_n02132136_8301.png
subject-05,1,104,0.88841986656189,bird,bird,180,0104_rot_s05_180_bird_20_n01560419_229.png
subject-05,1,105,0.832880020141602,clock,clock,90,0105_rot_s05_90_clock_20_n04548280_21.png
subject-05,1,106,0.68684196472168,bottle,bottle,270,0106_rot_s05_270_bottle_20_n03983396_8143.png
subject-05,1,107,0.768970966339111,clock,clock,180,0107_rot_s05_180_clock_20_n04548280_8348.png
subject-05,1,108,0.639673948287964,cat,cat,180,0108_rot_s05_180_cat_20_n02124075_1123.png
subject-05,1,109,1.09205508232117,bicycle,chair,90,0109_rot_s05_90_chair_20_n02791124_3506.png
subject-05,1,110,0.652013063430786,oven,oven,180,0110_rot_s05_180_oven_20_n04111531_15627.png
subject-05,1,111,0.744497060775757,elephant,elephant,180,0111_rot_s05_180_elephant_20_n02504458_6261.png
subject-05,1,112,0.672260999679565,bird,bird,270,0112_rot_s05_270_bird_20_n02025239_8598.png
subject-05,1,113,0.802832841873169,chair,keyboard,0,0113_rot_s05_0_keyboard_20_n03085013_24538.png
subject-05,1,114,0.611127138137817,bottle,bottle,180,0114_rot_s05_180_bottle_20_n04557648_9077.png
subject-05,1,115,0.58773398399353,airplane,airplane,0,0115_rot_s05_0_airplane_20_n02690373_13384.png
subject-05,1,116,0.640132188796997,cat,cat,0,0116_rot_s05_0_cat_20_n02123597_12816.png
subject-05,1,117,1.03849101066589,airplane,airplane,180,0117_rot_s05_180_airplane_20_n02690373_4029.png
subject-05,1,118,0.860368967056274,airplane,airplane,90,0118_rot_s05_90_airplane_20_n02690373_13021.png
subject-05,1,119,0.928858995437622,bird,elephant,270,0119_rot_s05_270_elephant_20_n02504458_338.png
subject-05,1,120,0.837544918060303,elephant,elephant,270,0120_rot_s05_270_elephant_20_n02504013_3843.png
subject-05,1,121,0.673179149627686,keyboard,keyboard,90,0121_rot_s05_90_keyboard_20_n04505470_9457.png
subject-05,1,122,0.741317987442017,cat,oven,90,0122_rot_s05_90_oven_20_n04111531_6801.png
subject-05,1,123,0.756089925765991,oven,oven,90,0123_rot_s05_90_oven_20_n04111531_21011.png
subject-05,1,124,1.20793890953064,boat,car,270,0124_rot_s05_270_car_20_n03100240_7318.png
subject-05,1,125,0.646081209182739,clock,clock,180,0125_rot_s05_180_clock_20_n04548280_15157.png
subject-05,1,126,0.998751163482666,chair,chair,90,0126_rot_s05_90_chair_20_n03376595_9901.png
subject-05,1,127,1.09060597419739,truck,truck,0,0127_rot_s05_0_truck_20_n04467665_44850.png
subject-05,1,128,0.975584030151367,car,car,0,0128_rot_s05_0_car_20_n02814533_40859.png
subject-05,1,129,0.897891998291016,boat,boat,180,0129_rot_s05_180_boat_20_n04612504_570.png
subject-05,1,130,0.858336925506592,clock,clock,90,0130_rot_s05_90_clock_20_n03196217_634.png
subject-05,1,131,0.872621059417725,keyboard,keyboard,270,0131_rot_s05_270_keyboard_20_n04505470_5155.png
subject-05,1,132,1.31675791740417,boat,boat,0,0132_rot_s05_0_boat_20_n02951358_21120.png
subject-05,1,133,0.724968910217285,boat,boat,180,0133_rot_s05_180_boat_20_n04612504_29359.png
subject-05,1,134,0.809930086135864,chair,chair,90,0134_rot_s05_90_chair_20_n04099969_1752.png
subject-05,1,135,1.05367708206177,clock,knife,180,0135_rot_s05_180_knife_20_n03041632_2319.png
subject-05,1,136,1.3298327922821,dog,dog,270,0136_rot_s05_270_dog_20_n02086910_7478.png
subject-05,1,137,1.26661086082458,dog,dog,0,0137_rot_s05_0_dog_20_n02107574_3605.png
subject-05,1,138,1.09090209007263,cat,bear,270,0138_rot_s05_270_bear_20_n02132136_20607.png
subject-05,1,139,1.08099508285522,knife,knife,180,0139_rot_s05_180_knife_20_n03041632_18141.png
subject-05,1,140,0.749078989028931,cat,cat,0,0140_rot_s05_0_cat_20_n02123159_4138.png
subject-05,1,141,0.987830877304077,elephant,elephant,180,0141_rot_s05_180_elephant_20_n02504013_12531.png
subject-05,1,142,1.16046094894409,bicycle,bicycle,270,0142_rot_s05_270_bicycle_20_n02835271_17326.png
subject-05,1,143,0.813005924224854,bottle,bottle,180,0143_rot_s05_180_bottle_20_n04560804_29791.png
subject-05,1,144,1.05117297172546,bicycle,bicycle,0,0144_rot_s05_0_bicycle_20_n03792782_4122.png
subject-05,1,145,1.24933195114136,oven,oven,270,0145_rot_s05_270_oven_20_n04111531_9822.png
subject-05,1,146,1.37769293785095,clock,clock,270,0146_rot_s05_270_clock_20_n04548280_2788.png
subject-05,1,147,0.885937929153442,cat,cat,90,0147_rot_s05_90_cat_20_n02123597_4920.png
subject-05,1,148,0.970391035079956,car,car,180,0148_rot_s05_180_car_20_n02814533_38308.png
subject-05,1,149,0.714752912521362,bottle,bottle,270,0149_rot_s05_270_bottle_20_n03983396_4814.png
subject-05,1,150,0.88300609588623,cat,cat,90,0150_rot_s05_90_cat_20_n02123597_14621.png
subject-05,1,151,0.859369993209839,keyboard,keyboard,90,0151_rot_s05_90_keyboard_20_n03085013_3920.png
subject-05,1,152,1.14182019233704,dog,dog,270,0152_rot_s05_270_dog_20_n02110806_3508.png
subject-05,1,153,0.734313011169434,clock,clock,180,0153_rot_s05_180_clock_20_n03196217_7272.png
subject-05,1,154,0.880721092224121,oven,oven,0,0154_rot_s05_0_oven_20_n04111531_13801.png
subject-05,1,155,0.911400079727173,airplane,airplane,180,0155_rot_s05_180_airplane_20_n02690373_14117.png
subject-05,1,156,0.855914115905762,elephant,elephant,270,0156_rot_s05_270_elephant_20_n02504013_7364.png
subject-05,1,157,0.878228902816772,knife,knife,270,0157_rot_s05_270_knife_20_n03041632_4279.png
subject-05,1,158,0.792622804641724,car,truck,180,0158_rot_s05_180_truck_20_n03417042_9240.png
subject-05,1,159,0.931028842926025,elephant,elephant,90,0159_rot_s05_90_elephant_20_n02504458_6579.png
subject-05,1,160,0.607221126556396,truck,truck,180,0160_rot_s05_180_truck_20_n03417042_15482.png
subject-05,1,161,1.05410504341125,oven,oven,270,0161_rot_s05_270_oven_20_n04111531_7356.png
subject-05,1,162,1.39846897125244,car,knife,90,0162_rot_s05_90_knife_20_n03041632_13465.png
subject-05,1,163,0.828598022460938,bear,bear,90,0163_rot_s05_90_bear_20_n02134084_1910.png
subject-05,1,164,0.97291111946106,cat,cat,180,0164_rot_s05_180_cat_20_n02125311_13627.png
subject-05,1,165,0.587239980697632,keyboard,keyboard,270,0165_rot_s05_270_keyboard_20_n03085013_20388.png
subject-05,1,166,1.48035383224487,car,clock,270,0166_rot_s05_270_clock_20_n04548280_607.png
subject-05,1,167,0.940880060195923,car,car,90,0167_rot_s05_90_car_20_n02814533_52039.png
subject-05,1,168,0.819470882415771,boat,boat,90,0168_rot_s05_90_boat_20_n04612504_1882.png
subject-05,1,169,0.471935033798218,bottle,bottle,180,0169_rot_s05_180_bottle_20_n02823428_14867.png
subject-05,1,170,0.848511934280396,knife,knife,270,0170_rot_s05_270_knife_20_n03041632_41310.png
subject-05,1,171,0.922470808029175,dog,dog,180,0171_rot_s05_180_dog_20_n02090721_309.png
subject-05,1,172,0.737149953842163,airplane,airplane,90,0172_rot_s05_90_airplane_20_n02690373_18845.png
subject-05,1,173,0.797360181808472,airplane,airplane,0,0173_rot_s05_0_airplane_20_n02690373_845.png
subject-05,1,174,0.865923881530762,knife,knife,180,0174_rot_s05_180_knife_20_n03041632_17338.png
subject-05,1,175,1.12621307373047,knife,knife,270,0175_rot_s05_270_knife_20_n03041632_28009.png
subject-05,1,176,1.21086502075195,bottle,bottle,90,0176_rot_s05_90_bottle_20_n03983396_15260.png
subject-05,1,177,1.15440511703491,elephant,elephant,0,0177_rot_s05_0_elephant_20_n02504013_240.png
subject-05,1,178,0.985243797302246,bottle,bottle,90,0178_rot_s05_90_bottle_20_n02823428_4108.png
subject-05,1,179,0.937087774276733,airplane,airplane,90,0179_rot_s05_90_airplane_20_n02690373_1928.png
subject-05,1,180,0.583594083786011,keyboard,keyboard,0,0180_rot_s05_0_keyboard_20_n04505470_26.png
subject-05,1,181,0.84411883354187,truck,truck,180,0181_rot_s05_180_truck_20_n03796401_7519.png
subject-05,1,182,0.658891916275024,bottle,bottle,180,0182_rot_s05_180_bottle_20_n04591713_4433.png
subject-05,1,183,0.74872612953186,bottle,bottle,180,0183_rot_s05_180_bottle_20_n04591713_3776.png
subject-05,1,184,1.26033496856689,airplane,airplane,180,0184_rot_s05_180_airplane_20_n02690373_5854.png
subject-05,1,185,0.738924980163574,elephant,elephant,270,0185_rot_s05_270_elephant_20_n02504458_1000.png
subject-05,1,186,0.862548112869263,cat,cat,270,0186_rot_s05_270_cat_20_n02123045_5369.png
subject-05,1,187,1.07709383964539,oven,oven,180,0187_rot_s05_180_oven_20_n04111531_8117.png
subject-05,1,188,0.629626035690308,bird,bird,90,0188_rot_s05_90_bird_20_n01530575_8862.png
subject-05,1,189,0.514034986495972,oven,oven,0,0189_rot_s05_0_oven_20_n04111531_1562.png
subject-05,1,190,0.720396995544434,chair,chair,0,0190_rot_s05_0_chair_20_n03376595_13067.png
subject-05,1,191,0.794075012207031,bottle,bottle,270,0191_rot_s05_270_bottle_20_n03983396_5632.png
subject-05,1,192,0.740831136703491,keyboard,keyboard,0,0192_rot_s05_0_keyboard_20_n03085013_18682.png
subject-05,1,193,1.28492498397827,bird,bird,270,0193_rot_s05_270_bird_20_n01558993_4053.png
subject-05,1,194,1.02897596359253,bear,bear,180,0194_rot_s05_180_bear_20_n02134084_4207.png
subject-05,1,195,0.667581081390381,clock,clock,180,0195_rot_s05_180_clock_20_n02708093_685.png
subject-05,1,196,0.843901872634888,airplane,airplane,270,0196_rot_s05_270_airplane_20_n02690373_1075.png
subject-05,1,197,0.604362010955811,bird,bird,270,0197_rot_s05_270_bird_20_n01601694_18600.png
subject-05,1,198,0.818422079086304,car,car,180,0198_rot_s05_180_car_20_n02814533_12418.png
subject-05,1,199,1.0865478515625,elephant,elephant,0,0199_rot_s05_0_elephant_20_n02504013_7273.png
subject-05,1,200,1.13006281852722,bicycle,bicycle,0,0200_rot_s05_0_bicycle_20_n03792782_16728.png
subject-05,1,201,1.18233299255371,elephant,elephant,180,0201_rot_s05_180_elephant_20_n02504013_6737.png
subject-05,1,202,0.818711996078491,truck,truck,270,0202_rot_s05_270_truck_20_n04467665_3524.png
subject-05,1,203,1.30326914787292,clock,keyboard,90,0203_rot_s05_90_keyboard_20_n03085013_3595.png
subject-05,1,204,1.28503203392029,airplane,airplane,270,0204_rot_s05_270_airplane_20_n02690373_563.png
subject-05,1,205,0.869740009307861,car,car,90,0205_rot_s05_90_car_20_n03100240_6131.png
subject-05,1,206,0.990064859390259,chair,chair,270,0206_rot_s05_270_chair_20_n03376595_12982.png
subject-05,1,207,1.12048196792603,elephant,cat,180,0207_rot_s05_180_cat_20_n02124075_11176.png
subject-05,1,208,0.904991865158081,dog,cat,180,0208_rot_s05_180_cat_20_n02123597_3821.png
subject-05,1,209,1.02498602867126,cat,cat,270,0209_rot_s05_270_cat_20_n02124075_10418.png
subject-05,1,210,1.1311399936676,dog,dog,0,0210_rot_s05_0_dog_20_n02110958_76.png
subject-05,1,211,0.893754005432129,car,truck,180,0211_rot_s05_180_truck_20_n04467665_37155.png
subject-05,1,212,0.783951044082642,car,car,270,0212_rot_s05_270_car_20_n03100240_6928.png
subject-05,1,213,0.714111804962158,cat,cat,180,0213_rot_s05_180_cat_20_n02123597_619.png
subject-05,1,214,0.766345977783203,cat,cat,270,0214_rot_s05_270_cat_20_n02125311_14455.png
subject-05,1,215,0.902689933776855,keyboard,keyboard,270,0215_rot_s05_270_keyboard_20_n03085013_24392.png
subject-05,1,216,0.900969982147217,keyboard,keyboard,180,0216_rot_s05_180_keyboard_20_n03085013_16057.png
subject-05,1,217,0.693753004074097,cat,cat,90,0217_rot_s05_90_cat_20_n02123159_1558.png
subject-05,1,218,1.50020384788513,chair,chair,90,0218_rot_s05_90_chair_20_n02791124_4942.png
subject-05,1,219,0.636471033096313,oven,oven,180,0219_rot_s05_180_oven_20_n04111531_10419.png
subject-05,1,220,1.44293212890625,clock,clock,90,0220_rot_s05_90_clock_20_n04548280_2827.png
subject-05,1,221,0.73434591293335,keyboard,keyboard,0,0221_rot_s05_0_keyboard_20_n03085013_18968.png
subject-05,1,222,0.708635091781616,oven,oven,90,0222_rot_s05_90_oven_20_n04111531_12589.png
subject-05,1,223,0.822789907455444,bird,bear,270,0223_rot_s05_270_bear_20_n02132136_1468.png
subject-05,1,224,0.921154022216797,boat,truck,90,0224_rot_s05_90_truck_20_n03417042_1214.png
subject-05,1,225,0.914224147796631,bicycle,bicycle,0,0225_rot_s05_0_bicycle_20_n02835271_31221.png
subject-05,1,226,1.08821296691895,boat,airplane,270,0226_rot_s05_270_airplane_20_n02690373_599.png
subject-05,1,227,1.11002278327942,bicycle,bicycle,270,0227_rot_s05_270_bicycle_20_n03792782_35904.png
subject-05,1,228,0.91661810874939,airplane,airplane,180,0228_rot_s05_180_airplane_20_n02690373_5238.png
subject-05,1,229,1.07700800895691,keyboard,keyboard,180,0229_rot_s05_180_keyboard_20_n04505470_4966.png
subject-05,1,230,0.877488851547241,boat,boat,90,0230_rot_s05_90_boat_20_n03344393_660.png
subject-05,1,231,1.50036716461182,car,car,90,0231_rot_s05_90_car_20_n04285008_5876.png
subject-05,1,232,0.996111154556274,airplane,airplane,270,0232_rot_s05_270_airplane_20_n02690373_9247.png
subject-05,1,233,1.10497689247131,dog,dog,0,0233_rot_s05_0_dog_20_n02095314_623.png
subject-05,1,234,1.27108716964722,car,chair,270,0234_rot_s05_270_chair_20_n04099969_15406.png
subject-05,1,235,1.25502490997314,bird,bird,0,0235_rot_s05_0_bird_20_n01537544_6945.png
subject-05,1,236,1.29182505607605,truck,truck,270,0236_rot_s05_270_truck_20_n04467665_50912.png
subject-05,1,237,1.11374497413635,bear,bear,180,0237_rot_s05_180_bear_20_n02133161_11276.png
subject-05,1,238,1.26629090309143,chair,keyboard,90,0238_rot_s05_90_keyboard_20_n03085013_24111.png
subject-05,1,239,1.45645785331726,oven,bicycle,270,0239_rot_s05_270_bicycle_20_n02835271_771.png
subject-05,1,240,0.933046102523804,dog,dog,270,0240_rot_s05_270_dog_20_n02088238_4519.png
subject-05,1,241,0.885195016860962,cat,bird,90,0241_rot_s05_90_bird_20_n02006656_6748.png
subject-05,1,242,1.12965106964111,keyboard,keyboard,270,0242_rot_s05_270_keyboard_20_n04505470_5150.png
subject-05,1,243,0.829838037490845,boat,boat,270,0243_rot_s05_270_boat_20_n03344393_883.png
subject-05,1,244,1.04277491569519,boat,boat,270,0244_rot_s05_270_boat_20_n04273569_72.png
subject-05,1,245,1.29451513290405,bottle,bottle,180,0245_rot_s05_180_bottle_20_n04579145_6818.png
subject-05,1,246,1.06280112266541,airplane,keyboard,180,0246_rot_s05_180_keyboard_20_n03085013_3815.png
subject-05,1,247,1.12328886985779,keyboard,keyboard,90,0247_rot_s05_90_keyboard_20_n03085013_2842.png
subject-05,1,248,0.946255922317505,bird,bird,270,0248_rot_s05_270_bird_20_n01817953_13452.png
subject-05,1,249,1.4282078742981,airplane,airplane,180,0249_rot_s05_180_airplane_20_n02690373_18848.png
subject-05,1,250,1.250736951828,boat,knife,90,0250_rot_s05_90_knife_20_n03041632_31367.png
subject-05,1,251,0.789439916610718,bird,bird,0,0251_rot_s05_0_bird_20_n01843065_2664.png
subject-05,1,252,1.41669702529907,elephant,elephant,180,0252_rot_s05_180_elephant_20_n02504458_1197.png
subject-05,1,253,0.990774869918823,cat,cat,90,0253_rot_s05_90_cat_20_n02123045_9651.png
subject-05,1,254,0.990787029266357,oven,oven,180,0254_rot_s05_180_oven_20_n04111531_15087.png
subject-05,1,255,1.24922299385071,keyboard,keyboard,180,0255_rot_s05_180_keyboard_20_n04505470_4016.png
subject-05,1,256,1.29565691947937,keyboard,clock,0,0256_rot_s05_0_clock_20_n03196217_1814.png
subject-05,1,257,0.663733959197998,airplane,airplane,0,0257_rot_s05_0_airplane_20_n02690373_2070.png
subject-05,1,258,0.945878028869629,elephant,elephant,180,0258_rot_s05_180_elephant_20_n02504458_4909.png
subject-05,1,259,1.15862202644348,elephant,bear,270,0259_rot_s05_270_bear_20_n02134084_10275.png
subject-05,1,260,1.38094806671143,cat,keyboard,180,0260_rot_s05_180_keyboard_20_n03085013_24028.png
subject-05,1,261,0.627717971801758,cat,cat,180,0261_rot_s05_180_cat_20_n02123597_589.png
subject-05,1,262,0.657722949981689,dog,dog,90,0262_rot_s05_90_dog_20_n02111500_2951.png
subject-05,1,263,0.716398000717163,elephant,elephant,90,0263_rot_s05_90_elephant_20_n02504013_10920.png
subject-05,1,264,0.884433031082153,clock,clock,0,0264_rot_s05_0_clock_20_n04548280_4947.png
subject-05,1,265,0.990454912185669,bicycle,bicycle,0,0265_rot_s05_0_bicycle_20_n02835271_9097.png
subject-05,1,266,1.09693217277527,cat,cat,270,0266_rot_s05_270_cat_20_n02123159_1451.png
subject-05,1,267,1.2007999420166,oven,bird,0,0267_rot_s05_0_bird_20_n02056570_10082.png
subject-05,1,268,1.40683794021606,bear,bear,90,0268_rot_s05_90_bear_20_n02134418_1473.png
subject-05,1,269,0.804675102233887,knife,knife,90,0269_rot_s05_90_knife_20_n03041632_51225.png
subject-05,1,270,0.650601863861084,oven,oven,270,0270_rot_s05_270_oven_20_n04111531_20359.png
subject-05,1,271,0.770940065383911,bottle,bottle,90,0271_rot_s05_90_bottle_20_n03983396_3175.png
subject-05,1,272,0.969428062438965,cat,knife,180,0272_rot_s05_180_knife_20_n03041632_3781.png
subject-05,1,273,0.875986814498901,dog,dog,90,0273_rot_s05_90_dog_20_n02085936_10298.png
subject-05,1,274,0.72778582572937,bicycle,bicycle,270,0274_rot_s05_270_bicycle_20_n03792782_13552.png
subject-05,1,275,0.696120977401733,oven,oven,180,0275_rot_s05_180_oven_20_n04111531_11260.png
subject-05,1,276,0.764680862426758,oven,oven,270,0276_rot_s05_270_oven_20_n04111531_3082.png
subject-05,1,277,0.92526912689209,clock,clock,180,0277_rot_s05_180_clock_20_n03196217_2607.png
subject-05,1,278,1.46713590621948,truck,truck,180,0278_rot_s05_180_truck_20_n03417042_20123.png
subject-05,1,279,1.44964909553528,bird,bicycle,270,0279_rot_s05_270_bicycle_20_n03792782_6419.png
subject-05,1,280,0.880374908447266,bicycle,bicycle,0,0280_rot_s05_0_bicycle_20_n03792782_35059.png
subject-05,1,281,1.0994668006897,bird,bird,270,0281_rot_s05_270_bird_20_n01819313_3135.png
subject-05,1,282,1.12987399101257,car,car,90,0282_rot_s05_90_car_20_n02814533_2233.png
subject-05,1,283,NaN,na,clock,90,0283_rot_s05_90_clock_20_n03196217_6526.png
subject-05,1,284,0.826020956039429,bird,bird,180,0284_rot_s05_180_bird_20_n01817953_303.png
subject-05,1,285,0.778158903121948,truck,truck,0,0285_rot_s05_0_truck_20_n04467665_51005.png
subject-05,1,286,0.730615854263306,chair,chair,180,0286_rot_s05_180_chair_20_n04099969_8934.png
subject-05,1,287,1.08836793899536,bottle,bottle,180,0287_rot_s05_180_bottle_20_n04560804_2019.png
subject-05,1,288,0.778193950653076,airplane,airplane,90,0288_rot_s05_90_airplane_20_n02690373_7915.png
subject-05,1,289,1.03871607780457,keyboard,bottle,180,0289_rot_s05_180_bottle_20_n03983396_6170.png
subject-05,1,290,0.823256015777588,bicycle,bicycle,270,0290_rot_s05_270_bicycle_20_n02835271_10435.png
subject-05,1,291,1.01382899284363,chair,chair,180,0291_rot_s05_180_chair_20_n02791124_8056.png
subject-05,1,292,0.812269926071167,cat,cat,90,0292_rot_s05_90_cat_20_n02123597_14530.png
subject-05,1,293,0.826139211654663,car,car,180,0293_rot_s05_180_car_20_n04285008_6855.png
subject-05,1,294,0.793977975845337,elephant,elephant,0,0294_rot_s05_0_elephant_20_n02504458_2037.png
subject-05,1,295,1.11452913284302,clock,chair,180,0295_rot_s05_180_chair_20_n04429376_2505.png
subject-05,1,296,1.13670897483826,dog,dog,180,0296_rot_s05_180_dog_20_n02086646_7112.png
subject-05,1,297,1.36495399475098,dog,cat,180,0297_rot_s05_180_cat_20_n02125311_50160.png
subject-05,1,298,0.979574918746948,boat,boat,0,0298_rot_s05_0_boat_20_n04612504_1713.png
subject-05,1,299,0.693715810775757,chair,chair,0,0299_rot_s05_0_chair_20_n04099969_4146.png
subject-05,1,300,0.952138900756836,boat,truck,180,0300_rot_s05_180_truck_20_n04467665_61792.png
subject-05,1,301,0.790589809417725,chair,chair,270,0301_rot_s05_270_chair_20_n04099969_9713.png
subject-05,1,302,0.950676918029785,elephant,elephant,90,0302_rot_s05_90_elephant_20_n02504013_1228.png
subject-05,1,303,1.50002002716064,knife,truck,270,0303_rot_s05_270_truck_20_n04467665_16261.png
subject-05,1,304,0.610018014907837,bird,bird,90,0304_rot_s05_90_bird_20_n01796340_5323.png
subject-05,1,305,1.39999389648438,knife,knife,180,0305_rot_s05_180_knife_20_n03041632_30248.png
subject-05,1,306,0.700814962387085,bottle,clock,270,0306_rot_s05_270_clock_20_n03196217_3022.png
subject-05,1,307,0.737353086471558,oven,oven,270,0307_rot_s05_270_oven_20_n04111531_3555.png
subject-05,1,308,1.01158285140991,keyboard,oven,180,0308_rot_s05_180_oven_20_n04111531_7593.png
subject-05,1,309,0.950023889541626,boat,boat,270,0309_rot_s05_270_boat_20_n02951358_638.png
subject-05,1,310,1.18655896186829,bird,bird,270,0310_rot_s05_270_bird_20_n02033041_1947.png
subject-05,1,311,0.900238990783691,knife,knife,270,0311_rot_s05_270_knife_20_n03041632_4214.png
subject-05,1,312,0.636598825454712,cat,cat,180,0312_rot_s05_180_cat_20_n02124075_10177.png
subject-05,1,313,0.781158924102783,dog,dog,90,0313_rot_s05_90_dog_20_n02104365_4839.png
subject-05,1,314,1.12545299530029,cat,chair,180,0314_rot_s05_180_chair_20_n04099969_5534.png
subject-05,1,315,1.08559608459473,boat,boat,90,0315_rot_s05_90_boat_20_n04612504_15732.png
subject-05,1,316,1.42990803718567,cat,cat,180,0316_rot_s05_180_cat_20_n02125311_2411.png
subject-05,1,317,0.974386930465698,car,car,270,0317_rot_s05_270_car_20_n04285008_8866.png
subject-05,1,318,1.50025296211243,elephant,elephant,270,0318_rot_s05_270_elephant_20_n02504458_6583.png
subject-05,1,319,0.940613985061646,bird,bird,90,0319_rot_s05_90_bird_20_n01843383_16230.png
subject-05,1,320,0.739092826843262,bear,bear,0,0320_rot_s05_0_bear_20_n02133161_4712.png
subject-05,1,321,0.910366058349609,chair,chair,0,0321_rot_s05_0_chair_20_n04099969_17404.png
subject-05,1,322,NaN,na,cat,90,0322_rot_s05_90_cat_20_n02124075_10724.png
subject-05,1,323,NaN,na,chair,0,0323_rot_s05_0_chair_20_n03376595_14756.png
subject-05,1,324,0.643159151077271,bear,bear,90,0324_rot_s05_90_bear_20_n02132136_3081.png
subject-05,1,325,0.657705068588257,bear,bear,180,0325_rot_s05_180_bear_20_n02133161_601.png
subject-05,1,326,0.931804895401001,keyboard,keyboard,270,0326_rot_s05_270_keyboard_20_n04505470_8251.png
subject-05,1,327,1.16835904121399,knife,knife,180,0327_rot_s05_180_knife_20_n03041632_7119.png
subject-05,1,328,1.12020397186279,bird,bird,90,0328_rot_s05_90_bird_20_n01616318_2262.png
subject-05,1,329,0.910722017288208,airplane,airplane,180,0329_rot_s05_180_airplane_20_n02690373_9812.png
subject-05,1,330,1.13296508789062,cat,cat,0,0330_rot_s05_0_cat_20_n02124075_13772.png
subject-05,1,331,1.0774519443512,elephant,elephant,180,0331_rot_s05_180_elephant_20_n02504458_1439.png
subject-05,1,332,1.12986588478088,keyboard,keyboard,0,0332_rot_s05_0_keyboard_20_n03085013_11682.png
subject-05,1,333,0.83629298210144,bird,bird,270,0333_rot_s05_270_bird_20_n01843065_7445.png
subject-05,1,334,1.14077186584473,bicycle,dog,180,0334_rot_s05_180_dog_20_n02107574_2643.png
subject-05,1,335,0.824398994445801,cat,cat,90,0335_rot_s05_90_cat_20_n02123159_6147.png
subject-05,1,336,0.990794897079468,cat,elephant,180,0336_rot_s05_180_elephant_20_n02504458_3889.png
subject-05,1,337,0.704596042633057,clock,clock,90,0337_rot_s05_90_clock_20_n02708093_3305.png
subject-05,1,338,1.2169349193573,bicycle,bicycle,180,0338_rot_s05_180_bicycle_20_n03792782_5664.png
subject-05,1,339,0.909085988998413,car,car,180,0339_rot_s05_180_car_20_n02814533_13278.png
subject-05,1,340,0.607900857925415,boat,boat,270,0340_rot_s05_270_boat_20_n04273569_295.png
subject-05,1,341,0.760223865509033,cat,cat,0,0341_rot_s05_0_cat_20_n02123159_1746.png
subject-05,1,342,0.720923900604248,bird,bird,180,0342_rot_s05_180_bird_20_n01537544_13938.png
subject-05,1,343,0.849134922027588,keyboard,keyboard,0,0343_rot_s05_0_keyboard_20_n04505470_4553.png
subject-05,1,344,1.06092810630798,bicycle,bicycle,180,0344_rot_s05_180_bicycle_20_n02835271_690.png
subject-05,1,345,0.859117031097412,boat,truck,270,0345_rot_s05_270_truck_20_n03417042_1793.png
subject-05,1,346,0.773488998413086,oven,oven,180,0346_rot_s05_180_oven_20_n04111531_20953.png
subject-05,1,347,0.763103008270264,elephant,elephant,0,0347_rot_s05_0_elephant_20_n02504458_6903.png
subject-05,1,348,0.845489978790283,keyboard,keyboard,0,0348_rot_s05_0_keyboard_20_n04505470_10697.png
subject-05,1,349,1.23629283905029,bear,bear,90,0349_rot_s05_90_bear_20_n02134084_433.png
subject-05,1,350,1.25623893737793,keyboard,oven,90,0350_rot_s05_90_oven_20_n04111531_9490.png
subject-05,1,351,0.98672080039978,bottle,bottle,180,0351_rot_s05_180_bottle_20_n04579145_7613.png
subject-05,1,352,NaN,na,knife,0,0352_rot_s05_0_knife_20_n03041632_16104.png
subject-05,1,353,1.02966094017029,bicycle,bicycle,270,0353_rot_s05_270_bicycle_20_n03792782_13002.png
subject-05,1,354,1.1039719581604,knife,knife,90,0354_rot_s05_90_knife_20_n03041632_27134.png
subject-05,1,355,0.850303888320923,boat,airplane,0,0355_rot_s05_0_airplane_20_n02690373_5197.png
subject-05,1,356,0.62458610534668,airplane,airplane,270,0356_rot_s05_270_airplane_20_n02690373_283.png
subject-05,1,357,0.876703977584839,elephant,elephant,180,0357_rot_s05_180_elephant_20_n02504013_7925.png
subject-05,1,358,1.0509569644928,chair,chair,0,0358_rot_s05_0_chair_20_n03376595_13.png
subject-05,1,359,1.27900004386902,car,bottle,270,0359_rot_s05_270_bottle_20_n03937543_7763.png
subject-05,1,360,0.753101110458374,oven,bottle,180,0360_rot_s05_180_bottle_20_n03937543_3294.png
subject-05,1,361,0.837112903594971,oven,oven,270,0361_rot_s05_270_oven_20_n04111531_6489.png
subject-05,1,362,0.695141792297363,oven,oven,90,0362_rot_s05_90_oven_20_n04111531_6393.png
subject-05,1,363,0.955004930496216,oven,bear,270,0363_rot_s05_270_bear_20_n02134418_4157.png
subject-05,1,364,0.667192935943604,oven,oven,180,0364_rot_s05_180_oven_20_n04111531_2795.png
subject-05,1,365,0.765387058258057,cat,cat,0,0365_rot_s05_0_cat_20_n02124075_15365.png
subject-05,1,366,0.649992942810059,boat,boat,90,0366_rot_s05_90_boat_20_n04273569_4518.png
subject-05,1,367,0.710349082946777,bird,bird,0,0367_rot_s05_0_bird_20_n02009229_7000.png
subject-05,1,368,1.26846718788147,boat,bear,90,0368_rot_s05_90_bear_20_n02133161_2106.png
subject-05,1,369,0.690546989440918,oven,oven,180,0369_rot_s05_180_oven_20_n04111531_3611.png
subject-05,1,370,0.527044057846069,boat,boat,180,0370_rot_s05_180_boat_20_n03662601_2521.png
subject-05,1,371,0.801551103591919,knife,knife,180,0371_rot_s05_180_knife_20_n03041632_29684.png
subject-05,1,372,0.540110111236572,bird,bird,0,0372_rot_s05_0_bird_20_n01537544_7628.png
subject-05,1,373,1.34432196617126,airplane,airplane,0,0373_rot_s05_0_airplane_20_n02690373_19749.png
subject-05,1,374,0.976155042648315,bicycle,bicycle,270,0374_rot_s05_270_bicycle_20_n02835271_4191.png
subject-05,1,375,0.782055854797363,bicycle,bicycle,0,0375_rot_s05_0_bicycle_20_n02835271_8925.png
subject-05,1,376,0.680183172225952,bird,bird,180,0376_rot_s05_180_bird_20_n01614925_10673.png
subject-05,1,377,0.762319087982178,oven,dog,270,0377_rot_s05_270_dog_20_n02097658_8283.png
subject-05,1,378,0.676795959472656,keyboard,keyboard,90,0378_rot_s05_90_keyboard_20_n04505470_4002.png
subject-05,1,379,0.951079845428467,cat,cat,270,0379_rot_s05_270_cat_20_n02123045_4377.png
subject-05,1,380,1.14127588272095,airplane,airplane,270,0380_rot_s05_270_airplane_20_n02690373_8746.png
subject-05,1,381,0.633893966674805,boat,boat,0,0381_rot_s05_0_boat_20_n02951358_20116.png
subject-05,1,382,0.662364959716797,boat,airplane,90,0382_rot_s05_90_airplane_20_n02690373_8539.png
subject-05,1,383,1.15878081321716,knife,knife,0,0383_rot_s05_0_knife_20_n03041632_12707.png
subject-05,1,384,1.296875,boat,boat,90,0384_rot_s05_90_boat_20_n02951358_30167.png
subject-05,1,385,NaN,na,keyboard,180,0385_rot_s05_180_keyboard_20_n03085013_26430.png
subject-05,1,386,0.985636949539185,car,bicycle,270,0386_rot_s05_270_bicycle_20_n03792782_17111.png
subject-05,1,387,0.867633104324341,boat,boat,90,0387_rot_s05_90_boat_20_n02951358_4286.png
subject-05,1,388,0.904297113418579,clock,clock,0,0388_rot_s05_0_clock_20_n04548280_2937.png
subject-05,1,389,0.880882024765015,elephant,elephant,270,0389_rot_s05_270_elephant_20_n02504013_8614.png
subject-05,1,390,0.795264959335327,keyboard,oven,0,0390_rot_s05_0_oven_20_n04111531_5802.png
subject-05,1,391,0.737504959106445,car,car,0,0391_rot_s05_0_car_20_n02814533_38205.png
subject-05,1,392,0.668092966079712,keyboard,keyboard,180,0392_rot_s05_180_keyboard_20_n04505470_3935.png
subject-05,1,393,0.942464113235474,elephant,elephant,90,0393_rot_s05_90_elephant_20_n02504458_5190.png
subject-05,1,394,0.710612058639526,boat,boat,0,0394_rot_s05_0_boat_20_n02951358_12232.png
subject-05,1,395,NaN,na,truck,90,0395_rot_s05_90_truck_20_n04467665_68463.png
subject-05,1,396,1.30535483360291,car,elephant,0,0396_rot_s05_0_elephant_20_n02504013_6933.png
subject-05,1,397,1.08721303939819,bird,bear,180,0397_rot_s05_180_bear_20_n02134418_5534.png
subject-05,1,398,0.755017042160034,bottle,bottle,0,0398_rot_s05_0_bottle_20_n04557648_9490.png
subject-05,1,399,1.13003015518188,bird,boat,0,0399_rot_s05_0_boat_20_n03344393_6507.png
subject-05,1,400,0.860260963439941,boat,bicycle,270,0400_rot_s05_270_bicycle_20_n02835271_8271.png
subject-05,1,401,0.888693809509277,keyboard,keyboard,180,0401_rot_s05_180_keyboard_20_n03085013_2500.png
subject-05,1,402,0.895333051681519,cat,dog,0,0402_rot_s05_0_dog_20_n02104365_1256.png
subject-05,1,403,1.1315929889679,keyboard,keyboard,0,0403_rot_s05_0_keyboard_20_n03085013_18621.png
subject-05,1,404,0.74611496925354,keyboard,keyboard,270,0404_rot_s05_270_keyboard_20_n03085013_29576.png
subject-05,1,405,0.920592069625854,truck,truck,270,0405_rot_s05_270_truck_20_n03417042_19958.png
subject-05,1,406,1.07802391052246,bottle,bottle,0,0406_rot_s05_0_bottle_20_n04557648_3875.png
subject-05,1,407,1.02215099334717,car,car,270,0407_rot_s05_270_car_20_n02814533_7728.png
subject-05,1,408,1.29894208908081,bear,knife,180,0408_rot_s05_180_knife_20_n03041632_34769.png
subject-05,1,409,0.897398948669434,truck,truck,0,0409_rot_s05_0_truck_20_n04467665_23344.png
subject-05,1,410,0.754693984985352,clock,clock,180,0410_rot_s05_180_clock_20_n04548280_6000.png
subject-05,1,411,1.1752290725708,clock,bottle,270,0411_rot_s05_270_bottle_20_n04591713_1808.png
subject-05,1,412,1.39537405967712,cat,oven,0,0412_rot_s05_0_oven_20_n04111531_13502.png
subject-05,1,413,0.909498929977417,bicycle,knife,90,0413_rot_s05_90_knife_20_n03041632_28201.png
subject-05,1,414,0.945864915847778,chair,chair,90,0414_rot_s05_90_chair_20_n03376595_14595.png
subject-05,1,415,0.86824107170105,knife,knife,0,0415_rot_s05_0_knife_20_n03041632_31909.png
subject-05,1,416,0.966747999191284,bird,bird,90,0416_rot_s05_90_bird_20_n01537544_10520.png
subject-05,1,417,NaN,na,clock,0,0417_rot_s05_0_clock_20_n04548280_4640.png
subject-05,1,418,1.00780510902405,clock,clock,270,0418_rot_s05_270_clock_20_n04548280_1535.png
subject-05,1,419,1.07615494728088,knife,knife,270,0419_rot_s05_270_knife_20_n03041632_17285.png
subject-05,1,420,1.00471806526184,elephant,elephant,180,0420_rot_s05_180_elephant_20_n02504458_3608.png
subject-05,1,421,0.948225021362305,boat,boat,270,0421_rot_s05_270_boat_20_n02951358_35330.png
subject-05,1,422,1.24662399291992,bicycle,bicycle,0,0422_rot_s05_0_bicycle_20_n03792782_52427.png
subject-05,1,423,0.928815126419067,boat,boat,0,0423_rot_s05_0_boat_20_n04273569_17498.png
subject-05,1,424,0.658998012542725,chair,chair,270,0424_rot_s05_270_chair_20_n04099969_11711.png
subject-05,1,425,0.701122045516968,truck,truck,0,0425_rot_s05_0_truck_20_n03417042_4765.png
subject-05,1,426,0.792016983032227,boat,boat,180,0426_rot_s05_180_boat_20_n03662601_31441.png
subject-05,1,427,1.21420502662659,truck,truck,270,0427_rot_s05_270_truck_20_n03417042_5952.png
subject-05,1,428,0.696516990661621,boat,boat,180,0428_rot_s05_180_boat_20_n04273569_10550.png
subject-05,1,429,0.932854890823364,clock,knife,270,0429_rot_s05_270_knife_20_n03041632_23087.png
subject-05,1,430,0.793358087539673,car,car,270,0430_rot_s05_270_car_20_n02814533_25011.png
subject-05,1,431,0.951434135437012,elephant,elephant,90,0431_rot_s05_90_elephant_20_n02504458_7873.png
subject-05,1,432,0.752151966094971,car,car,0,0432_rot_s05_0_car_20_n04285008_10189.png
subject-05,1,433,0.864468097686768,bear,dog,90,0433_rot_s05_90_dog_20_n02097130_2321.png
subject-05,1,434,0.809340000152588,dog,dog,0,0434_rot_s05_0_dog_20_n02091244_2118.png
subject-05,1,435,0.723639965057373,oven,oven,180,0435_rot_s05_180_oven_20_n04111531_1752.png
subject-05,1,436,0.743575811386108,cat,cat,270,0436_rot_s05_270_cat_20_n02123045_9059.png
subject-05,1,437,1.18816804885864,bird,bird,270,0437_rot_s05_270_bird_20_n01843383_4429.png
subject-05,1,438,1.04072499275208,bottle,bottle,90,0438_rot_s05_90_bottle_20_n03937543_1784.png
subject-05,1,439,0.93450403213501,clock,clock,90,0439_rot_s05_90_clock_20_n02708093_2283.png
subject-05,1,440,1.01096296310425,bottle,bottle,270,0440_rot_s05_270_bottle_20_n03983396_24460.png
subject-05,1,441,1.31481099128723,clock,keyboard,180,0441_rot_s05_180_keyboard_20_n03085013_18821.png
subject-05,1,442,0.959639072418213,elephant,elephant,90,0442_rot_s05_90_elephant_20_n02504458_2994.png
subject-05,1,443,0.635741949081421,cat,cat,270,0443_rot_s05_270_cat_20_n02123045_4111.png
subject-05,1,444,0.916097164154053,chair,chair,180,0444_rot_s05_180_chair_20_n04099969_2809.png
subject-05,1,445,0.900437116622925,boat,boat,0,0445_rot_s05_0_boat_20_n03662601_7847.png
subject-05,1,446,0.890625,car,car,270,0446_rot_s05_270_car_20_n02814533_96168.png
subject-05,1,447,0.895090103149414,cat,cat,180,0447_rot_s05_180_cat_20_n02123159_1769.png
subject-05,1,448,1.24757885932922,chair,knife,0,0448_rot_s05_0_knife_20_n03041632_28202.png
subject-05,1,449,1.49191617965698,elephant,bird,90,0449_rot_s05_90_bird_20_n02013706_5736.png
subject-05,1,450,1.09830904006958,chair,truck,90,0450_rot_s05_90_truck_20_n03796401_6596.png
subject-05,1,451,1.03487801551819,airplane,airplane,90,0451_rot_s05_90_airplane_20_n02690373_5779.png
subject-05,1,452,1.13006615638733,clock,clock,180,0452_rot_s05_180_clock_20_n04548280_4017.png
subject-05,1,453,0.974452018737793,elephant,elephant,0,0453_rot_s05_0_elephant_20_n02504458_12449.png
subject-05,1,454,1.25718808174133,car,car,90,0454_rot_s05_90_car_20_n02814533_75974.png
subject-05,1,455,1.04778695106506,boat,boat,180,0455_rot_s05_180_boat_20_n04273569_261.png
subject-05,1,456,0.838115930557251,oven,oven,90,0456_rot_s05_90_oven_20_n04111531_9304.png
subject-05,1,457,0.71226692199707,boat,boat,90,0457_rot_s05_90_boat_20_n03344393_9929.png
subject-05,1,458,0.550757884979248,keyboard,keyboard,0,0458_rot_s05_0_keyboard_20_n04505470_4168.png
subject-05,1,459,0.801007986068726,car,car,270,0459_rot_s05_270_car_20_n03100240_1703.png
subject-05,1,460,0.921863079071045,keyboard,keyboard,0,0460_rot_s05_0_keyboard_20_n03085013_18398.png
subject-05,1,461,0.803946971893311,airplane,airplane,0,0461_rot_s05_0_airplane_20_n02690373_6549.png
subject-05,1,462,0.70251202583313,dog,dog,90,0462_rot_s05_90_dog_20_n02102480_6514.png
subject-05,1,463,0.900747060775757,airplane,airplane,90,0463_rot_s05_90_airplane_20_n02690373_2232.png
subject-05,1,464,1.06916308403015,keyboard,keyboard,270,0464_rot_s05_270_keyboard_20_n03085013_24504.png
subject-05,1,465,1.00586915016174,truck,truck,180,0465_rot_s05_180_truck_20_n04467665_23689.png
subject-05,1,466,0.934288024902344,elephant,elephant,180,0466_rot_s05_180_elephant_20_n02504013_16929.png
subject-05,1,467,1.14635491371155,boat,elephant,90,0467_rot_s05_90_elephant_20_n02504013_10901.png
subject-05,1,468,1.08308005332947,cat,cat,90,0468_rot_s05_90_cat_20_n02123045_10890.png
subject-05,1,469,1.35141921043396,keyboard,airplane,90,0469_rot_s05_90_airplane_20_n02690373_8515.png
subject-05,1,470,0.725997924804688,elephant,elephant,0,0470_rot_s05_0_elephant_20_n02504013_1758.png
subject-05,1,471,0.786268949508667,boat,oven,0,0471_rot_s05_0_oven_20_n04111531_13831.png
subject-05,1,472,1.06892704963684,car,elephant,90,0472_rot_s05_90_elephant_20_n02504013_10229.png
subject-05,1,473,1.01264500617981,bicycle,bicycle,180,0473_rot_s05_180_bicycle_20_n02835271_2624.png
subject-05,1,474,1.06315898895264,cat,dog,270,0474_rot_s05_270_dog_20_n02098105_1058.png
subject-05,1,475,0.76946496963501,knife,knife,270,0475_rot_s05_270_knife_20_n03041632_56217.png
subject-05,1,476,1.05976986885071,airplane,airplane,180,0476_rot_s05_180_airplane_20_n02690373_2248.png
subject-05,1,477,1.04202222824097,elephant,elephant,180,0477_rot_s05_180_elephant_20_n02504013_8028.png
subject-05,1,478,0.761486053466797,bear,bear,180,0478_rot_s05_180_bear_20_n02134084_742.png
subject-05,1,479,1.05190110206604,airplane,truck,270,0479_rot_s05_270_truck_20_n04467665_32090.png
subject-05,1,480,0.950565099716187,elephant,elephant,90,0480_rot_s05_90_elephant_20_n02504458_458.png
subject-05,1,481,1.06431698799133,bird,bird,270,0481_rot_s05_270_bird_20_n01820546_968.png
subject-05,1,482,0.748732089996338,bird,bird,270,0482_rot_s05_270_bird_20_n02028035_2936.png
subject-05,1,483,1.25291180610657,car,car,0,0483_rot_s05_0_car_20_n03100240_16949.png
subject-05,1,484,0.835344791412354,boat,boat,0,0484_rot_s05_0_boat_20_n03662601_26557.png
subject-05,1,485,1.10927200317383,bear,bear,90,0485_rot_s05_90_bear_20_n02134084_811.png
subject-05,1,486,0.939493894577026,clock,chair,270,0486_rot_s05_270_chair_20_n03376595_410.png
subject-05,1,487,1.12740898132324,chair,bottle,90,0487_rot_s05_90_bottle_20_n03937543_7154.png
subject-05,1,488,0.571629047393799,boat,bear,90,0488_rot_s05_90_bear_20_n02132136_2116.png
subject-05,1,489,0.748086929321289,bicycle,bicycle,180,0489_rot_s05_180_bicycle_20_n02835271_8502.png
subject-05,1,490,0.744639873504639,knife,knife,0,0490_rot_s05_0_knife_20_n03041632_53874.png
subject-05,1,491,0.720915079116821,cat,cat,0,0491_rot_s05_0_cat_20_n02123394_8164.png
subject-05,1,492,1.10123515129089,bird,boat,90,0492_rot_s05_90_boat_20_n02951358_4854.png
subject-05,1,493,1.0532820224762,keyboard,keyboard,270,0493_rot_s05_270_keyboard_20_n03085013_20661.png
subject-05,1,494,0.943526983261108,oven,oven,0,0494_rot_s05_0_oven_20_n04111531_12729.png
subject-05,1,495,1.46371221542358,bird,bear,270,0495_rot_s05_270_bear_20_n02132136_4172.png
subject-05,1,496,0.985910177230835,bicycle,bicycle,180,0496_rot_s05_180_bicycle_20_n03792782_4844.png
subject-05,1,497,1.19061207771301,oven,oven,180,0497_rot_s05_180_oven_20_n04111531_13255.png
subject-05,1,498,0.775231122970581,airplane,airplane,90,0498_rot_s05_90_airplane_20_n02690373_633.png
subject-05,1,499,1.31750202178955,bottle,bottle,90,0499_rot_s05_90_bottle_20_n04557648_1899.png
subject-05,1,500,1.31603717803955,clock,clock,180,0500_rot_s05_180_clock_20_n04548280_10291.png
subject-05,1,501,1.23052716255188,boat,airplane,180,0501_rot_s05_180_airplane_20_n02690373_4895.png
subject-05,1,502,1.12086701393127,bear,dog,180,0502_rot_s05_180_dog_20_n02105505_4764.png
subject-05,1,503,1.42533087730408,boat,airplane,0,0503_rot_s05_0_airplane_20_n02690373_4617.png
subject-05,1,504,1.49372601509094,boat,knife,0,0504_rot_s05_0_knife_20_n03041632_14774.png
subject-05,1,505,0.913429021835327,chair,car,0,0505_rot_s05_0_car_20_n03100240_14746.png
subject-05,1,506,1.01999497413635,dog,dog,90,0506_rot_s05_90_dog_20_n02100583_28872.png
subject-05,1,507,0.826326131820679,cat,cat,90,0507_rot_s05_90_cat_20_n02123159_5733.png
subject-05,1,508,0.770503044128418,bird,bird,180,0508_rot_s05_180_bird_20_n01843383_3499.png
subject-05,1,509,0.820657968521118,boat,bear,180,0509_rot_s05_180_bear_20_n02133161_1959.png
subject-05,1,510,0.857295989990234,car,car,90,0510_rot_s05_90_car_20_n02814533_10202.png
subject-05,1,511,0.871753931045532,bicycle,bicycle,90,0511_rot_s05_90_bicycle_20_n03792782_7438.png
subject-05,1,512,1.27573204040527,airplane,airplane,0,0512_rot_s05_0_airplane_20_n02690373_17937.png
subject-05,1,513,1.42799401283264,elephant,elephant,0,0513_rot_s05_0_elephant_20_n02504013_6968.png
subject-05,1,514,0.926315069198608,bicycle,bicycle,90,0514_rot_s05_90_bicycle_20_n03792782_8357.png
subject-05,1,515,0.939034938812256,boat,boat,0,0515_rot_s05_0_boat_20_n02951358_12081.png
subject-05,1,516,1.17525696754456,airplane,airplane,90,0516_rot_s05_90_airplane_20_n02690373_6114.png
subject-05,1,517,1.04180598258972,knife,knife,270,0517_rot_s05_270_knife_20_n03041632_4269.png
subject-05,1,518,1.15642905235291,chair,chair,0,0518_rot_s05_0_chair_20_n03376595_7154.png
subject-05,1,519,1.10063719749451,airplane,airplane,270,0519_rot_s05_270_airplane_20_n02690373_9802.png
subject-05,1,520,0.807178974151611,airplane,airplane,0,0520_rot_s05_0_airplane_20_n02690373_7355.png
subject-05,1,521,0.88162088394165,clock,clock,180,0521_rot_s05_180_clock_20_n04548280_7571.png
subject-05,1,522,0.843991994857788,bird,bird,0,0522_rot_s05_0_bird_20_n01824575_9307.png
subject-05,1,523,0.957716941833496,keyboard,keyboard,0,0523_rot_s05_0_keyboard_20_n04505470_1137.png
subject-05,1,524,0.970369100570679,oven,chair,90,0524_rot_s05_90_chair_20_n04429376_2805.png
subject-05,1,525,0.860428094863892,keyboard,keyboard,270,0525_rot_s05_270_keyboard_20_n04505470_6638.png
subject-05,1,526,0.858808040618896,keyboard,keyboard,270,0526_rot_s05_270_keyboard_20_n04505470_4668.png
subject-05,1,527,1.16301488876343,bear,bear,90,0527_rot_s05_90_bear_20_n02134084_10386.png
subject-05,1,528,1.13774394989014,car,truck,180,0528_rot_s05_180_truck_20_n03417042_7728.png
subject-05,1,529,1.0438289642334,oven,clock,90,0529_rot_s05_90_clock_20_n04548280_1.png
subject-05,1,530,1.38858699798584,keyboard,keyboard,270,0530_rot_s05_270_keyboard_20_n03085013_4136.png
subject-05,1,531,1.38474798202515,boat,bottle,90,0531_rot_s05_90_bottle_20_n03937543_4089.png
subject-05,1,532,1.17474484443665,bicycle,bicycle,90,0532_rot_s05_90_bicycle_20_n02835271_5825.png
subject-05,1,533,NaN,na,knife,270,0533_rot_s05_270_knife_20_n03041632_20595.png
subject-05,1,534,1.50017786026001,cat,bear,270,0534_rot_s05_270_bear_20_n02132136_15407.png
subject-05,1,535,1.04604291915894,dog,dog,270,0535_rot_s05_270_dog_20_n02092002_12175.png
subject-05,1,536,0.860360145568848,keyboard,keyboard,270,0536_rot_s05_270_keyboard_20_n03085013_18909.png
subject-05,1,537,1.50025796890259,boat,chair,180,0537_rot_s05_180_chair_20_n04429376_6915.png
subject-05,1,538,1.13091206550598,truck,truck,270,0538_rot_s05_270_truck_20_n04467665_8768.png
subject-05,1,539,0.783581972122192,cat,cat,0,0539_rot_s05_0_cat_20_n02123045_8294.png
subject-05,1,540,0.865924119949341,bottle,bottle,270,0540_rot_s05_270_bottle_20_n03983396_8164.png
subject-05,1,541,0.818557024002075,cat,cat,0,0541_rot_s05_0_cat_20_n02125311_44119.png
subject-05,1,542,0.562954902648926,oven,oven,270,0542_rot_s05_270_oven_20_n04111531_18916.png
subject-05,1,543,0.823951959609985,clock,clock,180,0543_rot_s05_180_clock_20_n02708093_1300.png
subject-05,1,544,0.890146970748901,knife,knife,270,0544_rot_s05_270_knife_20_n03041632_28710.png
subject-05,1,545,1.04864096641541,oven,oven,0,0545_rot_s05_0_oven_20_n04111531_1009.png
subject-05,1,546,0.97887396812439,boat,bird,270,0546_rot_s05_270_bird_20_n01601694_9844.png
subject-05,1,547,0.815650939941406,clock,clock,180,0547_rot_s05_180_clock_20_n02708093_1630.png
subject-05,1,548,1.21187496185303,truck,truck,270,0548_rot_s05_270_truck_20_n03417042_2794.png
subject-05,1,549,1.17260909080505,boat,boat,180,0549_rot_s05_180_boat_20_n04612504_17960.png
subject-05,1,550,0.992902040481567,airplane,airplane,0,0550_rot_s05_0_airplane_20_n02690373_2095.png
subject-05,1,551,0.915477991104126,oven,bird,270,0551_rot_s05_270_bird_20_n02056570_8201.png
subject-05,1,552,0.806064128875732,bicycle,bicycle,0,0552_rot_s05_0_bicycle_20_n03792782_2358.png
subject-05,1,553,0.939121007919312,truck,truck,0,0553_rot_s05_0_truck_20_n03417042_12813.png
subject-05,1,554,0.791170120239258,car,car,0,0554_rot_s05_0_car_20_n04285008_11698.png
subject-05,1,555,NaN,na,elephant,180,0555_rot_s05_180_elephant_20_n02504458_5008.png
subject-05,1,556,0.939934968948364,boat,cat,0,0556_rot_s05_0_cat_20_n02123159_7569.png
subject-05,1,557,0.660386800765991,dog,dog,0,0557_rot_s05_0_dog_20_n02107312_7790.png
subject-05,1,558,0.867116928100586,boat,car,270,0558_rot_s05_270_car_20_n03100240_14799.png
subject-05,1,559,1.16340684890747,cat,cat,0,0559_rot_s05_0_cat_20_n02123045_9349.png
subject-05,1,560,0.785981178283691,bird,bird,270,0560_rot_s05_270_bird_20_n01530575_7350.png
subject-05,1,561,0.860576152801514,bicycle,truck,0,0561_rot_s05_0_truck_20_n03417042_8807.png
subject-05,1,562,0.7046959400177,bottle,bottle,270,0562_rot_s05_270_bottle_20_n02823428_12322.png
subject-05,1,563,1.0090160369873,keyboard,keyboard,180,0563_rot_s05_180_keyboard_20_n04505470_6682.png
subject-05,1,564,0.991173982620239,chair,chair,270,0564_rot_s05_270_chair_20_n02791124_560.png
subject-05,1,565,0.911339044570923,bear,bear,90,0565_rot_s05_90_bear_20_n02132136_4510.png
subject-05,1,566,0.847913026809692,bottle,bottle,0,0566_rot_s05_0_bottle_20_n03983396_4046.png
subject-05,1,567,1.49007892608643,bicycle,bicycle,90,0567_rot_s05_90_bicycle_20_n03792782_16961.png
subject-05,1,568,0.636770963668823,bottle,bottle,90,0568_rot_s05_90_bottle_20_n02823428_5949.png
subject-05,1,569,0.795216083526611,cat,elephant,0,0569_rot_s05_0_elephant_20_n02504013_5996.png
subject-05,1,570,0.877639055252075,bicycle,bicycle,180,0570_rot_s05_180_bicycle_20_n03792782_43609.png
subject-05,1,571,1.36023688316345,bird,bird,0,0571_rot_s05_0_bird_20_n02025239_6498.png
subject-05,1,572,0.966737031936646,car,car,0,0572_rot_s05_0_car_20_n03100240_18725.png
subject-05,1,573,0.680867910385132,oven,oven,270,0573_rot_s05_270_oven_20_n04111531_8309.png
subject-05,1,574,0.568398952484131,airplane,airplane,270,0574_rot_s05_270_airplane_20_n02690373_5961.png
subject-05,1,575,0.850788831710815,car,car,270,0575_rot_s05_270_car_20_n03100240_1092.png
subject-05,1,576,0.900923013687134,bottle,bottle,90,0576_rot_s05_90_bottle_20_n04591713_1566.png
subject-05,1,577,0.79877495765686,keyboard,chair,180,0577_rot_s05_180_chair_20_n04429376_14744.png
subject-05,1,578,0.673166036605835,keyboard,keyboard,90,0578_rot_s05_90_keyboard_20_n03085013_14079.png
subject-05,1,579,0.869256973266602,oven,knife,180,0579_rot_s05_180_knife_20_n03041632_22480.png
subject-05,1,580,1.02944803237915,keyboard,keyboard,270,0580_rot_s05_270_keyboard_20_n04505470_1105.png
subject-05,1,581,0.772009134292603,bear,bear,180,0581_rot_s05_180_bear_20_n02132136_2255.png
subject-05,1,582,0.816536903381348,knife,knife,0,0582_rot_s05_0_knife_20_n03041632_11969.png
subject-05,1,583,0.669092893600464,dog,dog,90,0583_rot_s05_90_dog_20_n02109047_10720.png
subject-05,1,584,0.896920919418335,clock,clock,0,0584_rot_s05_0_clock_20_n02708093_8381.png
subject-05,1,585,1.07140779495239,bird,bird,90,0585_rot_s05_90_bird_20_n01817953_9155.png
subject-05,1,586,1.07581615447998,clock,car,270,0586_rot_s05_270_car_20_n04285008_10108.png
subject-05,1,587,0.958204030990601,oven,oven,0,0587_rot_s05_0_oven_20_n04111531_14178.png
subject-05,1,588,NaN,na,oven,0,0588_rot_s05_0_oven_20_n04111531_669.png
subject-05,1,589,0.755012035369873,chair,chair,0,0589_rot_s05_0_chair_20_n04429376_9308.png
subject-05,1,590,0.613132953643799,clock,clock,0,0590_rot_s05_0_clock_20_n04548280_1051.png
subject-05,1,591,1.15553593635559,knife,knife,180,0591_rot_s05_180_knife_20_n03041632_38433.png
subject-05,1,592,0.969933032989502,chair,chair,0,0592_rot_s05_0_chair_20_n02791124_5209.png
subject-05,1,593,0.906399011611938,car,car,270,0593_rot_s05_270_car_20_n04285008_6901.png
subject-05,1,594,0.78089714050293,boat,boat,0,0594_rot_s05_0_boat_20_n03662601_3388.png
subject-05,1,595,0.985082149505615,bicycle,bicycle,270,0595_rot_s05_270_bicycle_20_n02835271_8747.png
subject-05,1,596,0.81348180770874,boat,boat,0,0596_rot_s05_0_boat_20_n02951358_4585.png
subject-05,1,597,0.828029870986938,bird,bird,0,0597_rot_s05_0_bird_20_n01795545_6192.png
subject-05,1,598,0.794735908508301,clock,clock,270,0598_rot_s05_270_clock_20_n02708093_5236.png
subject-05,1,599,1.03061699867249,keyboard,keyboard,180,0599_rot_s05_180_keyboard_20_n04505470_8603.png
subject-05,1,600,1.11956214904785,cat,cat,180,0600_rot_s05_180_cat_20_n02123045_6673.png
subject-05,1,601,1.50017881393433,elephant,elephant,0,0601_rot_s05_0_elephant_20_n02504458_9237.png
subject-05,1,602,0.773756980895996,elephant,elephant,0,0602_rot_s05_0_elephant_20_n02504013_6211.png
subject-05,1,603,0.724386930465698,keyboard,keyboard,180,0603_rot_s05_180_keyboard_20_n03085013_23312.png
subject-05,1,604,1.03672909736633,chair,chair,180,0604_rot_s05_180_chair_20_n03376595_2729.png
subject-05,1,605,1.1568911075592,bicycle,bicycle,0,0605_rot_s05_0_bicycle_20_n02835271_158.png
subject-05,1,606,NaN,na,clock,0,0606_rot_s05_0_clock_20_n04548280_6411.png
subject-05,1,607,0.70746898651123,cat,cat,270,0607_rot_s05_270_cat_20_n02123394_2179.png
subject-05,1,608,1.13576006889343,bicycle,bicycle,270,0608_rot_s05_270_bicycle_20_n03792782_5629.png
subject-05,1,609,0.794284105300903,bicycle,bicycle,270,0609_rot_s05_270_bicycle_20_n02835271_759.png
subject-05,1,610,0.922991991043091,bottle,bottle,180,0610_rot_s05_180_bottle_20_n04560804_14841.png
subject-05,1,611,1.06740021705627,knife,knife,0,0611_rot_s05_0_knife_20_n03041632_2630.png
subject-05,1,612,1.47934889793396,elephant,elephant,270,0612_rot_s05_270_elephant_20_n02504458_4841.png
subject-05,1,613,0.70812201499939,cat,dog,0,0613_rot_s05_0_dog_20_n02112350_4098.png
subject-05,1,614,0.960442066192627,knife,knife,90,0614_rot_s05_90_knife_20_n03041632_289.png
subject-05,1,615,0.980782985687256,truck,truck,90,0615_rot_s05_90_truck_20_n04467665_1774.png
subject-05,1,616,0.579149961471558,boat,boat,0,0616_rot_s05_0_boat_20_n03662601_6391.png
subject-05,1,617,0.798226833343506,knife,knife,270,0617_rot_s05_270_knife_20_n03041632_100645.png
subject-05,1,618,0.640605926513672,cat,cat,180,0618_rot_s05_180_cat_20_n02123597_6258.png
subject-05,1,619,0.838693141937256,truck,truck,270,0619_rot_s05_270_truck_20_n03417042_28743.png
subject-05,1,620,0.651033878326416,boat,boat,270,0620_rot_s05_270_boat_20_n03662601_1937.png
subject-05,1,621,1.43964004516602,knife,knife,0,0621_rot_s05_0_knife_20_n03041632_51766.png
subject-05,1,622,1.25391602516174,dog,dog,0,0622_rot_s05_0_dog_20_n02097130_5453.png
subject-05,1,623,0.890344858169556,keyboard,keyboard,270,0623_rot_s05_270_keyboard_20_n03085013_25069.png
subject-05,1,624,1.07098603248596,boat,knife,90,0624_rot_s05_90_knife_20_n03041632_39739.png
subject-05,1,625,1.29345417022705,airplane,airplane,0,0625_rot_s05_0_airplane_20_n02690373_8233.png
subject-05,1,626,0.791960000991821,clock,clock,180,0626_rot_s05_180_clock_20_n02708093_5658.png
subject-05,1,627,0.742419958114624,airplane,airplane,180,0627_rot_s05_180_airplane_20_n02690373_17718.png
subject-05,1,628,0.978681087493896,bicycle,bicycle,0,0628_rot_s05_0_bicycle_20_n03792782_122.png
subject-05,1,629,1.0212550163269,boat,boat,270,0629_rot_s05_270_boat_20_n04612504_17850.png
subject-05,1,630,1.10361385345459,knife,knife,90,0630_rot_s05_90_knife_20_n03041632_2386.png
subject-05,1,631,1.1019868850708,dog,dog,180,0631_rot_s05_180_dog_20_n02090622_2320.png
subject-05,1,632,0.954642057418823,clock,clock,90,0632_rot_s05_90_clock_20_n02708093_3019.png
subject-05,1,633,0.989486217498779,car,car,270,0633_rot_s05_270_car_20_n02814533_4977.png
subject-05,1,634,0.911693096160889,bottle,clock,270,0634_rot_s05_270_clock_20_n04548280_3394.png
subject-05,1,635,0.724107980728149,boat,chair,90,0635_rot_s05_90_chair_20_n04429376_1240.png
subject-05,1,636,0.822768926620483,clock,clock,180,0636_rot_s05_180_clock_20_n03196217_3735.png
subject-05,1,637,1.20305395126343,bottle,knife,90,0637_rot_s05_90_knife_20_n03041632_91967.png
subject-05,1,638,0.847741842269897,airplane,knife,270,0638_rot_s05_270_knife_20_n03041632_37274.png
subject-05,1,639,1.1140079498291,chair,chair,270,0639_rot_s05_270_chair_20_n04099969_9371.png
subject-05,1,640,1.250727891922,bicycle,bicycle,0,0640_rot_s05_0_bicycle_20_n03792782_67327.png
subject-05,1,641,0.965133905410767,truck,truck,270,0641_rot_s05_270_truck_20_n04467665_43419.png
subject-05,1,642,0.879231929779053,oven,oven,270,0642_rot_s05_270_oven_20_n04111531_8984.png
subject-05,1,643,0.815782070159912,chair,chair,0,0643_rot_s05_0_chair_20_n02791124_4026.png
subject-05,1,644,0.766261100769043,keyboard,keyboard,180,0644_rot_s05_180_keyboard_20_n04505470_2597.png
subject-05,1,645,0.773022890090942,bicycle,bicycle,180,0645_rot_s05_180_bicycle_20_n03792782_6982.png
subject-05,1,646,1.13509297370911,car,dog,180,0646_rot_s05_180_dog_20_n02088094_9455.png
subject-05,1,647,1.30171704292297,dog,dog,0,0647_rot_s05_0_dog_20_n02112350_4972.png
subject-05,1,648,0.899629831314087,bottle,bottle,180,0648_rot_s05_180_bottle_20_n03937543_2116.png
subject-05,1,649,1.01975202560425,car,dog,90,0649_rot_s05_90_dog_20_n02090721_4649.png
subject-05,1,650,0.840219020843506,boat,boat,0,0650_rot_s05_0_boat_20_n02951358_3142.png
subject-05,1,651,0.746690988540649,elephant,elephant,90,0651_rot_s05_90_elephant_20_n02504458_2013.png
subject-05,1,652,0.775438070297241,boat,boat,0,0652_rot_s05_0_boat_20_n02951358_22150.png
subject-05,1,653,0.973814010620117,bear,bear,0,0653_rot_s05_0_bear_20_n02134084_2787.png
subject-05,1,654,0.85404896736145,bear,bear,270,0654_rot_s05_270_bear_20_n02134418_1043.png
subject-05,1,655,1.39832592010498,dog,dog,0,0655_rot_s05_0_dog_20_n02099712_6157.png
subject-05,1,656,1.05676603317261,keyboard,keyboard,0,0656_rot_s05_0_keyboard_20_n04505470_4105.png
subject-05,1,657,0.755054950714111,chair,chair,270,0657_rot_s05_270_chair_20_n04099969_3430.png
subject-05,1,658,0.921664953231812,clock,clock,90,0658_rot_s05_90_clock_20_n04548280_5631.png
subject-05,1,659,0.728084802627563,cat,cat,270,0659_rot_s05_270_cat_20_n02123159_5461.png
subject-05,1,660,1.07274293899536,bicycle,bicycle,90,0660_rot_s05_90_bicycle_20_n02835271_9807.png
subject-05,1,661,0.91521692276001,truck,truck,0,0661_rot_s05_0_truck_20_n03417042_22866.png
subject-05,1,662,1.09761595726013,truck,truck,0,0662_rot_s05_0_truck_20_n04467665_54161.png
subject-05,1,663,0.841644048690796,bicycle,bicycle,90,0663_rot_s05_90_bicycle_20_n02835271_2580.png
subject-05,1,664,0.840230941772461,bottle,bottle,0,0664_rot_s05_0_bottle_20_n04591713_206.png
subject-05,1,665,1.07404589653015,keyboard,keyboard,270,0665_rot_s05_270_keyboard_20_n03085013_18756.png
subject-05,1,666,0.961525917053223,truck,car,0,0666_rot_s05_0_car_20_n02814533_3331.png
subject-05,1,667,0.722141027450562,bottle,knife,0,0667_rot_s05_0_knife_20_n03041632_25257.png
subject-05,1,668,1.10465598106384,knife,knife,180,0668_rot_s05_180_knife_20_n03041632_2644.png
subject-05,1,669,0.887033939361572,oven,oven,90,0669_rot_s05_90_oven_20_n04111531_4951.png
subject-05,1,670,0.907693147659302,truck,truck,270,0670_rot_s05_270_truck_20_n03417042_3862.png
subject-05,1,671,1.13382792472839,dog,dog,180,0671_rot_s05_180_dog_20_n02107142_3325.png
subject-05,1,672,1.50028204917908,truck,truck,270,0672_rot_s05_270_truck_20_n03417042_9480.png
subject-05,1,673,1.37466406822205,car,keyboard,90,0673_rot_s05_90_keyboard_20_n03085013_26656.png
subject-05,1,674,0.843408107757568,bird,bird,180,0674_rot_s05_180_bird_20_n01532829_4850.png
subject-05,1,675,0.617666006088257,airplane,airplane,180,0675_rot_s05_180_airplane_20_n02690373_1021.png
subject-05,1,676,1.50026607513428,elephant,elephant,0,0676_rot_s05_0_elephant_20_n02504458_2253.png
subject-05,1,677,1.09551596641541,cat,cat,270,0677_rot_s05_270_cat_20_n02123045_18195.png
subject-05,1,678,1.08388614654541,car,bicycle,180,0678_rot_s05_180_bicycle_20_n03792782_347.png
subject-05,1,679,1.22810411453247,oven,oven,90,0679_rot_s05_90_oven_20_n04111531_5038.png
subject-05,1,680,0.71779203414917,knife,knife,0,0680_rot_s05_0_knife_20_n03041632_21560.png
subject-05,1,681,1.10594797134399,bear,bear,270,0681_rot_s05_270_bear_20_n02134084_41194.png
subject-05,1,682,0.842391967773438,boat,boat,180,0682_rot_s05_180_boat_20_n03344393_3193.png
subject-05,1,683,0.748512983322144,airplane,airplane,180,0683_rot_s05_180_airplane_20_n02690373_10231.png
subject-05,1,684,0.883018970489502,boat,boat,180,0684_rot_s05_180_boat_20_n02951358_4479.png
subject-05,1,685,1.37361907958984,cat,chair,270,0685_rot_s05_270_chair_20_n02791124_755.png
subject-05,1,686,1.08619999885559,elephant,elephant,90,0686_rot_s05_90_elephant_20_n02504013_6544.png
subject-05,1,687,0.738555192947388,bottle,bottle,0,0687_rot_s05_0_bottle_20_n02823428_3842.png
subject-05,1,688,0.628873109817505,car,car,270,0688_rot_s05_270_car_20_n03100240_2042.png
subject-05,1,689,0.855003118515015,keyboard,keyboard,90,0689_rot_s05_90_keyboard_20_n04505470_4761.png
subject-05,1,690,0.945165872573853,oven,oven,180,0690_rot_s05_180_oven_20_n04111531_2770.png
subject-05,1,691,0.795459985733032,keyboard,keyboard,270,0691_rot_s05_270_keyboard_20_n04505470_2679.png
subject-05,1,692,1.0939040184021,boat,knife,0,0692_rot_s05_0_knife_20_n03041632_24376.png
subject-05,1,693,1.37451791763306,dog,dog,0,0693_rot_s05_0_dog_20_n02106382_2265.png
subject-05,1,694,1.2350800037384,car,oven,0,0694_rot_s05_0_oven_20_n04111531_804.png
subject-05,1,695,0.649369955062866,airplane,airplane,0,0695_rot_s05_0_airplane_20_n02690373_9317.png
subject-05,1,696,0.578088998794556,oven,oven,90,0696_rot_s05_90_oven_20_n04111531_190.png
subject-05,1,697,1.47889804840088,dog,dog,90,0697_rot_s05_90_dog_20_n02088364_4913.png
subject-05,1,698,0.709412813186646,bottle,bottle,0,0698_rot_s05_0_bottle_20_n04579145_7429.png
subject-05,1,699,1.03590989112854,airplane,truck,0,0699_rot_s05_0_truck_20_n03417042_9152.png
subject-05,1,700,0.966209888458252,cat,bear,0,0700_rot_s05_0_bear_20_n02134418_5915.png
subject-05,1,701,1.43893194198608,oven,keyboard,90,0701_rot_s05_90_keyboard_20_n03085013_21607.png
subject-05,1,702,0.739512920379639,bird,bird,90,0702_rot_s05_90_bird_20_n02002724_450.png
subject-05,1,703,0.913624048233032,boat,boat,90,0703_rot_s05_90_boat_20_n04612504_40672.png
subject-05,1,704,1.12617301940918,airplane,airplane,270,0704_rot_s05_270_airplane_20_n02690373_7094.png
subject-05,1,705,1.38460898399353,airplane,airplane,90,0705_rot_s05_90_airplane_20_n02690373_1094.png
subject-05,1,706,1.11518907546997,bicycle,bicycle,270,0706_rot_s05_270_bicycle_20_n03792782_13438.png
subject-05,1,707,0.989229202270508,oven,oven,90,0707_rot_s05_90_oven_20_n04111531_2456.png
subject-05,1,708,0.790305137634277,dog,dog,270,0708_rot_s05_270_dog_20_n02110806_3412.png
subject-05,1,709,1.34851408004761,bear,bear,0,0709_rot_s05_0_bear_20_n02134084_1201.png
subject-05,1,710,1.35539698600769,cat,knife,90,0710_rot_s05_90_knife_20_n03041632_5820.png
subject-05,1,711,0.953629016876221,boat,airplane,180,0711_rot_s05_180_airplane_20_n02690373_1933.png
subject-05,1,712,0.982048034667969,bottle,bottle,270,0712_rot_s05_270_bottle_20_n03983396_5003.png
subject-05,1,713,NaN,na,airplane,90,0713_rot_s05_90_airplane_20_n02690373_8711.png
subject-05,1,714,0.876744985580444,truck,truck,90,0714_rot_s05_90_truck_20_n03417042_4216.png
subject-05,1,715,1.01310610771179,truck,truck,90,0715_rot_s05_90_truck_20_n03417042_23445.png
subject-05,1,716,1.16327500343323,boat,bicycle,270,0716_rot_s05_270_bicycle_20_n03792782_52549.png
subject-05,1,717,0.764141798019409,bird,bird,0,0717_rot_s05_0_bird_20_n01818515_1741.png
subject-05,1,718,0.83064603805542,oven,oven,90,0718_rot_s05_90_oven_20_n04111531_14951.png
subject-05,1,719,0.83476996421814,keyboard,keyboard,0,0719_rot_s05_0_keyboard_20_n04505470_805.png
subject-05,1,720,0.679533004760742,keyboard,keyboard,180,0720_rot_s05_180_keyboard_20_n03085013_20730.png
subject-05,1,721,0.724013090133667,oven,oven,0,0721_rot_s05_0_oven_20_n04111531_1612.png
subject-05,1,722,1.50015091896057,bear,bear,0,0722_rot_s05_0_bear_20_n02132136_4403.png
subject-05,1,723,1.50005412101746,boat,keyboard,270,0723_rot_s05_270_keyboard_20_n03085013_19585.png
subject-05,1,724,1.21966814994812,knife,knife,90,0724_rot_s05_90_knife_20_n03041632_6557.png
subject-05,1,725,1.10163402557373,truck,truck,0,0725_rot_s05_0_truck_20_n03796401_25498.png
subject-05,1,726,0.867979049682617,truck,truck,90,0726_rot_s05_90_truck_20_n03417042_4462.png
subject-05,1,727,0.711959838867188,truck,truck,0,0727_rot_s05_0_truck_20_n03796401_5058.png
subject-05,1,728,1.00468492507935,truck,chair,0,0728_rot_s05_0_chair_20_n04429376_8921.png
subject-05,1,729,0.803206920623779,clock,clock,270,0729_rot_s05_270_clock_20_n03196217_6948.png
subject-05,1,730,0.731631994247437,truck,truck,90,0730_rot_s05_90_truck_20_n04467665_10906.png
subject-05,1,731,1.22007608413696,knife,knife,270,0731_rot_s05_270_knife_20_n03041632_17091.png
subject-05,1,732,1.27260494232178,chair,chair,90,0732_rot_s05_90_chair_20_n04099969_10953.png
subject-05,1,733,NaN,na,bicycle,0,0733_rot_s05_0_bicycle_20_n02835271_1486.png
subject-05,1,734,0.891460180282593,boat,knife,90,0734_rot_s05_90_knife_20_n03041632_24950.png
subject-05,1,735,1.3120059967041,bear,bear,0,0735_rot_s05_0_bear_20_n02134084_22008.png
subject-05,1,736,1.0246889591217,boat,airplane,270,0736_rot_s05_270_airplane_20_n02690373_4119.png
subject-05,1,737,1.50015377998352,oven,chair,90,0737_rot_s05_90_chair_20_n04099969_6431.png
subject-05,1,738,1.17358613014221,clock,clock,270,0738_rot_s05_270_clock_20_n04548280_5545.png
subject-05,1,739,0.641713857650757,clock,clock,0,0739_rot_s05_0_clock_20_n04548280_1239.png
subject-05,1,740,0.915846109390259,keyboard,keyboard,0,0740_rot_s05_0_keyboard_20_n04505470_1464.png
subject-05,1,741,1.05225205421448,boat,car,180,0741_rot_s05_180_car_20_n03100240_13909.png
subject-05,1,742,1.04035997390747,car,truck,180,0742_rot_s05_180_truck_20_n04467665_2765.png
subject-05,1,743,0.962920904159546,keyboard,chair,180,0743_rot_s05_180_chair_20_n04429376_7181.png
subject-05,1,744,1.12876605987549,oven,oven,180,0744_rot_s05_180_oven_20_n04111531_14568.png
subject-05,1,745,0.73326301574707,truck,truck,0,0745_rot_s05_0_truck_20_n03796401_10234.png
subject-05,1,746,1.04796409606934,airplane,elephant,90,0746_rot_s05_90_elephant_20_n02504013_11135.png
subject-05,1,747,0.905790090560913,cat,cat,90,0747_rot_s05_90_cat_20_n02124075_8257.png
subject-05,1,748,0.74181604385376,airplane,airplane,0,0748_rot_s05_0_airplane_20_n02690373_18460.png
subject-05,1,749,1.25452494621277,oven,chair,0,0749_rot_s05_0_chair_20_n04429376_16272.png
subject-05,1,750,0.612684965133667,keyboard,keyboard,0,0750_rot_s05_0_keyboard_20_n03085013_2335.png
subject-05,1,751,0.657382965087891,airplane,airplane,90,0751_rot_s05_90_airplane_20_n02690373_13609.png
subject-05,1,752,1.2154541015625,clock,knife,270,0752_rot_s05_270_knife_20_n03041632_1006.png
subject-05,1,753,1.31149888038635,car,car,270,0753_rot_s05_270_car_20_n03100240_9443.png
subject-05,1,754,NaN,na,chair,0,0754_rot_s05_0_chair_20_n04429376_8579.png
subject-05,1,755,0.914126873016357,truck,car,180,0755_rot_s05_180_car_20_n03100240_14939.png
subject-05,1,756,0.988235950469971,truck,oven,180,0756_rot_s05_180_oven_20_n04111531_9779.png
subject-05,1,757,1.14807319641113,bear,bear,270,0757_rot_s05_270_bear_20_n02134418_2522.png
subject-05,1,758,0.752261877059937,elephant,elephant,90,0758_rot_s05_90_elephant_20_n02504458_8062.png
subject-05,1,759,0.871412992477417,truck,truck,90,0759_rot_s05_90_truck_20_n04467665_11776.png
subject-05,1,760,0.608122110366821,keyboard,keyboard,0,0760_rot_s05_0_keyboard_20_n03085013_6643.png
subject-05,1,761,0.72869610786438,car,bottle,270,0761_rot_s05_270_bottle_20_n04591713_5520.png
subject-05,1,762,0.81883692741394,truck,truck,90,0762_rot_s05_90_truck_20_n03417042_1840.png
subject-05,1,763,0.823071002960205,bottle,bottle,90,0763_rot_s05_90_bottle_20_n04560804_15679.png
subject-05,1,764,1.15091514587402,bicycle,bicycle,90,0764_rot_s05_90_bicycle_20_n02835271_12846.png
subject-05,1,765,0.909604072570801,oven,oven,0,0765_rot_s05_0_oven_20_n04111531_1073.png
subject-05,1,766,0.986105918884277,bicycle,bicycle,90,0766_rot_s05_90_bicycle_20_n03792782_19362.png
subject-05,1,767,0.868415117263794,clock,clock,0,0767_rot_s05_0_clock_20_n02708093_8032.png
subject-05,1,768,NaN,na,knife,180,0768_rot_s05_180_knife_20_n03041632_29338.png
subject-05,1,769,0.684819936752319,oven,oven,0,0769_rot_s05_0_oven_20_n04111531_6508.png
subject-05,1,770,0.675431966781616,bear,bear,90,0770_rot_s05_90_bear_20_n02132136_3378.png
subject-05,1,771,0.627616167068481,bird,bird,180,0771_rot_s05_180_bird_20_n01797886_33820.png
subject-05,1,772,1.44624304771423,bird,bird,270,0772_rot_s05_270_bird_20_n02011460_7734.png
subject-05,1,773,0.852433204650879,bear,bear,270,0773_rot_s05_270_bear_20_n02133161_1301.png
subject-05,1,774,1.11040496826172,elephant,elephant,90,0774_rot_s05_90_elephant_20_n02504458_7389.png
subject-05,1,775,1.13056588172913,bottle,bottle,0,0775_rot_s05_0_bottle_20_n03983396_1145.png
subject-05,1,776,0.667085886001587,bicycle,bicycle,0,0776_rot_s05_0_bicycle_20_n03792782_185.png
subject-05,1,777,0.733853816986084,boat,airplane,180,0777_rot_s05_180_airplane_20_n02690373_5824.png
subject-05,1,778,1.24587893486023,car,dog,0,0778_rot_s05_0_dog_20_n02104365_9849.png
subject-05,1,779,0.52186393737793,oven,oven,180,0779_rot_s05_180_oven_20_n04111531_9380.png
subject-05,1,780,0.980747938156128,bear,bear,180,0780_rot_s05_180_bear_20_n02133161_14031.png
subject-05,1,781,0.717134952545166,car,car,90,0781_rot_s05_90_car_20_n03100240_15721.png
subject-05,1,782,1.35163402557373,car,boat,180,0782_rot_s05_180_boat_20_n03662601_5915.png
subject-05,1,783,0.712047100067139,dog,dog,0,0783_rot_s05_0_dog_20_n02085782_16204.png
subject-05,1,784,0.748437881469727,airplane,airplane,0,0784_rot_s05_0_airplane_20_n02690373_1283.png
subject-05,1,785,1.5000638961792,cat,cat,180,0785_rot_s05_180_cat_20_n02123394_1086.png
subject-05,1,786,0.989179849624634,boat,bear,0,0786_rot_s05_0_bear_20_n02134418_4935.png
subject-05,1,787,1.08539581298828,clock,clock,270,0787_rot_s05_270_clock_20_n04548280_821.png
subject-05,1,788,1.02155303955078,bottle,bottle,0,0788_rot_s05_0_bottle_20_n04560804_21339.png
subject-05,1,789,1.2581250667572,oven,oven,0,0789_rot_s05_0_oven_20_n04111531_23215.png
subject-05,1,790,1.45051288604736,car,bird,0,0790_rot_s05_0_bird_20_n01833805_2673.png
subject-05,1,791,0.964807033538818,elephant,elephant,180,0791_rot_s05_180_elephant_20_n02504458_1471.png
subject-05,1,792,0.777584075927734,clock,clock,270,0792_rot_s05_270_clock_20_n03196217_3140.png
subject-05,1,793,0.743565082550049,bear,bear,180,0793_rot_s05_180_bear_20_n02132136_6641.png
subject-05,1,794,0.955910921096802,dog,dog,0,0794_rot_s05_0_dog_20_n02101388_25178.png
subject-05,1,795,1.06813383102417,oven,clock,270,0795_rot_s05_270_clock_20_n04548280_7816.png
subject-05,1,796,0.573915958404541,airplane,airplane,270,0796_rot_s05_270_airplane_20_n02690373_9718.png
subject-05,1,797,1.50030088424683,keyboard,chair,0,0797_rot_s05_0_chair_20_n02791124_7335.png
subject-05,1,798,0.62280797958374,clock,clock,180,0798_rot_s05_180_clock_20_n02708093_1430.png
subject-05,1,799,1.11900782585144,knife,knife,0,0799_rot_s05_0_knife_20_n03041632_16172.png
subject-05,1,800,0.803302049636841,cat,cat,180,0800_rot_s05_180_cat_20_n02125311_41806.png
subject-05,1,801,0.877490043640137,clock,clock,90,0801_rot_s05_90_clock_20_n04548280_5337.png
subject-05,1,802,1.05218291282654,keyboard,keyboard,90,0802_rot_s05_90_keyboard_20_n03085013_22949.png
subject-05,1,803,0.896578073501587,bicycle,bicycle,180,0803_rot_s05_180_bicycle_20_n02835271_5873.png
subject-05,1,804,1.20907711982727,bird,bird,180,0804_rot_s05_180_bird_20_n01855032_5907.png
subject-05,1,805,1.02948999404907,bear,bear,270,0805_rot_s05_270_bear_20_n02133161_13718.png
subject-05,1,806,0.551980018615723,bottle,bottle,90,0806_rot_s05_90_bottle_20_n02823428_6776.png
subject-05,1,807,1.37062001228333,airplane,airplane,180,0807_rot_s05_180_airplane_20_n02690373_19666.png
subject-05,1,808,0.961021900177002,cat,knife,0,0808_rot_s05_0_knife_20_n03041632_16206.png
subject-05,1,809,0.743437051773071,car,boat,270,0809_rot_s05_270_boat_20_n02951358_8806.png
subject-05,1,810,0.687409162521362,clock,clock,90,0810_rot_s05_90_clock_20_n04548280_5484.png
subject-05,1,811,0.815715074539185,oven,knife,180,0811_rot_s05_180_knife_20_n03041632_20707.png
subject-05,1,812,0.852074861526489,bear,bear,90,0812_rot_s05_90_bear_20_n02132136_3350.png
subject-05,1,813,1.23258590698242,elephant,elephant,0,0813_rot_s05_0_elephant_20_n02504013_3049.png
subject-05,1,814,1.16876101493835,boat,elephant,0,0814_rot_s05_0_elephant_20_n02504458_776.png
subject-05,1,815,0.66684889793396,boat,boat,270,0815_rot_s05_270_boat_20_n03344393_1480.png
subject-05,1,816,0.995367050170898,chair,chair,270,0816_rot_s05_270_chair_20_n04429376_13233.png
subject-05,1,817,0.831806898117065,boat,boat,90,0817_rot_s05_90_boat_20_n02951358_10893.png
subject-05,1,818,0.831874132156372,bicycle,bicycle,90,0818_rot_s05_90_bicycle_20_n02835271_5189.png
subject-05,1,819,0.752276182174683,oven,knife,0,0819_rot_s05_0_knife_20_n03041632_14293.png
subject-05,1,820,0.750802993774414,airplane,airplane,90,0820_rot_s05_90_airplane_20_n02690373_303.png
subject-05,1,821,1.42563796043396,oven,cat,270,0821_rot_s05_270_cat_20_n02125311_8314.png
subject-05,1,822,0.907790184020996,knife,knife,180,0822_rot_s05_180_knife_20_n03041632_24228.png
subject-05,1,823,1.03633213043213,bird,bird,0,0823_rot_s05_0_bird_20_n02011460_7877.png
subject-05,1,824,1.0805869102478,keyboard,truck,180,0824_rot_s05_180_truck_20_n04467665_58762.png
subject-05,1,825,0.846764087677002,clock,clock,180,0825_rot_s05_180_clock_20_n03196217_3362.png
subject-05,1,826,0.859292030334473,car,car,90,0826_rot_s05_90_car_20_n03100240_8978.png
subject-05,1,827,0.857589960098267,oven,oven,270,0827_rot_s05_270_oven_20_n04111531_3886.png
subject-05,1,828,0.922278881072998,clock,clock,0,0828_rot_s05_0_clock_20_n04548280_192.png
subject-05,1,829,0.960535049438477,keyboard,keyboard,90,0829_rot_s05_90_keyboard_20_n03085013_23785.png
subject-05,1,830,0.905318021774292,dog,dog,0,0830_rot_s05_0_dog_20_n02106030_3746.png
subject-05,1,831,0.787927150726318,oven,oven,90,0831_rot_s05_90_oven_20_n04111531_3353.png
subject-05,1,832,1.18424391746521,clock,clock,0,0832_rot_s05_0_clock_20_n04548280_7539.png
subject-05,1,833,0.87417197227478,boat,truck,90,0833_rot_s05_90_truck_20_n03417042_3845.png
subject-05,1,834,1.50000405311584,airplane,airplane,90,0834_rot_s05_90_airplane_20_n02690373_2632.png
subject-05,1,835,0.584413051605225,clock,clock,0,0835_rot_s05_0_clock_20_n04548280_8656.png
subject-05,1,836,0.604362010955811,airplane,airplane,90,0836_rot_s05_90_airplane_20_n02690373_4402.png
subject-05,1,837,1.17678308486938,bottle,bottle,90,0837_rot_s05_90_bottle_20_n04579145_6571.png
subject-05,1,838,0.737809181213379,clock,clock,90,0838_rot_s05_90_clock_20_n02708093_8355.png
subject-05,1,839,1.09547901153564,elephant,elephant,180,0839_rot_s05_180_elephant_20_n02504458_8015.png
subject-05,1,840,1.29100298881531,airplane,airplane,0,0840_rot_s05_0_airplane_20_n02690373_3907.png
subject-05,1,841,1.05752611160278,oven,oven,270,0841_rot_s05_270_oven_20_n04111531_9263.png
subject-05,1,842,0.839750051498413,oven,truck,180,0842_rot_s05_180_truck_20_n03417042_8912.png
subject-05,1,843,0.799819946289062,bicycle,bicycle,0,0843_rot_s05_0_bicycle_20_n03792782_18707.png
subject-05,1,844,1.35624289512634,dog,dog,90,0844_rot_s05_90_dog_20_n02088466_68.png
subject-05,1,845,NaN,na,dog,180,0845_rot_s05_180_dog_20_n02092002_6355.png
subject-05,1,846,0.852649927139282,bottle,bottle,90,0846_rot_s05_90_bottle_20_n04591713_5095.png
subject-05,1,847,0.743155956268311,bottle,bottle,180,0847_rot_s05_180_bottle_20_n04557648_777.png
subject-05,1,848,1.46953797340393,dog,cat,90,0848_rot_s05_90_cat_20_n02125311_23812.png
subject-05,1,849,0.672060966491699,keyboard,keyboard,90,0849_rot_s05_90_keyboard_20_n04505470_1914.png
subject-05,1,850,1.00077295303345,boat,elephant,180,0850_rot_s05_180_elephant_20_n02504013_482.png
subject-05,1,851,0.92031192779541,car,car,180,0851_rot_s05_180_car_20_n03100240_8938.png
subject-05,1,852,1.06264805793762,oven,oven,180,0852_rot_s05_180_oven_20_n04111531_7168.png
subject-05,1,853,1.29865097999573,bicycle,bicycle,0,0853_rot_s05_0_bicycle_20_n03792782_53111.png
subject-05,1,854,0.89648699760437,clock,clock,0,0854_rot_s05_0_clock_20_n02708093_7901.png
subject-05,1,855,1.11525893211365,truck,truck,270,0855_rot_s05_270_truck_20_n03796401_28979.png
subject-05,1,856,1.21260786056519,airplane,airplane,270,0856_rot_s05_270_airplane_20_n02690373_2324.png
subject-05,1,857,1.02505898475647,oven,clock,270,0857_rot_s05_270_clock_20_n02708093_7956.png
subject-05,1,858,0.961520195007324,bird,bird,90,0858_rot_s05_90_bird_20_n02007558_12858.png
subject-05,1,859,1.06604504585266,truck,truck,180,0859_rot_s05_180_truck_20_n04467665_7144.png
subject-05,1,860,0.956844091415405,dog,dog,0,0860_rot_s05_0_dog_20_n02113624_5494.png
subject-05,1,861,0.770924806594849,clock,clock,90,0861_rot_s05_90_clock_20_n04548280_5899.png
subject-05,1,862,1.38164687156677,airplane,airplane,270,0862_rot_s05_270_airplane_20_n02690373_17722.png
subject-05,1,863,NaN,na,bicycle,0,0863_rot_s05_0_bicycle_20_n02835271_42320.png
subject-05,1,864,0.948179006576538,keyboard,keyboard,180,0864_rot_s05_180_keyboard_20_n03085013_10661.png
subject-05,1,865,0.922752141952515,car,car,270,0865_rot_s05_270_car_20_n02814533_14771.png
subject-05,1,866,1.14266109466553,chair,chair,0,0866_rot_s05_0_chair_20_n03376595_606.png
subject-05,1,867,0.701184034347534,clock,clock,270,0867_rot_s05_270_clock_20_n04548280_5309.png
subject-05,1,868,0.953751087188721,bicycle,bicycle,90,0868_rot_s05_90_bicycle_20_n02835271_24851.png
subject-05,1,869,0.749639987945557,dog,dog,90,0869_rot_s05_90_dog_20_n02105056_2423.png
subject-05,1,870,1.01606392860413,boat,bottle,0,0870_rot_s05_0_bottle_20_n02823428_7033.png
subject-05,1,871,1.05249691009521,oven,oven,90,0871_rot_s05_90_oven_20_n04111531_22316.png
subject-05,1,872,0.696521043777466,oven,oven,90,0872_rot_s05_90_oven_20_n04111531_8750.png
subject-05,1,873,1.02277994155884,cat,cat,90,0873_rot_s05_90_cat_20_n02125311_12587.png
subject-05,1,874,1.22096395492554,dog,elephant,270,0874_rot_s05_270_elephant_20_n02504013_4359.png
subject-05,1,875,1.50023007392883,dog,bear,270,0875_rot_s05_270_bear_20_n02134418_2254.png
subject-05,1,876,0.791443109512329,boat,boat,90,0876_rot_s05_90_boat_20_n04273569_1379.png
subject-05,1,877,1.0877480506897,bird,bird,270,0877_rot_s05_270_bird_20_n01860187_34968.png
subject-05,1,878,0.932214975357056,cat,cat,0,0878_rot_s05_0_cat_20_n02123597_2920.png
subject-05,1,879,1.13662385940552,car,bottle,270,0879_rot_s05_270_bottle_20_n03983396_10371.png
subject-05,1,880,0.988762855529785,bottle,bird,180,0880_rot_s05_180_bird_20_n01828970_2030.png
subject-05,1,881,0.709413051605225,bird,bird,180,0881_rot_s05_180_bird_20_n01514859_28330.png
subject-05,1,882,1.15135598182678,cat,cat,270,0882_rot_s05_270_cat_20_n02123159_4595.png
subject-05,1,883,1.50031709671021,clock,knife,0,0883_rot_s05_0_knife_20_n03041632_7982.png
subject-05,1,884,0.7638099193573,boat,boat,270,0884_rot_s05_270_boat_20_n02951358_32333.png
subject-05,1,885,1.04443502426147,cat,dog,270,0885_rot_s05_270_dog_20_n02106662_4533.png
subject-05,1,886,0.635044813156128,boat,boat,270,0886_rot_s05_270_boat_20_n02951358_9884.png
subject-05,1,887,NaN,na,dog,90,0887_rot_s05_90_dog_20_n02097130_7050.png
subject-05,1,888,0.738293886184692,car,car,90,0888_rot_s05_90_car_20_n04285008_5898.png
subject-05,1,889,0.887622833251953,car,car,90,0889_rot_s05_90_car_20_n03100240_17587.png
subject-05,1,890,0.615632772445679,boat,boat,180,0890_rot_s05_180_boat_20_n04612504_22060.png
subject-05,1,891,0.676326036453247,car,car,180,0891_rot_s05_180_car_20_n04285008_1795.png
subject-05,1,892,0.626106977462769,airplane,airplane,0,0892_rot_s05_0_airplane_20_n02690373_6195.png
subject-05,1,893,0.884602069854736,chair,chair,90,0893_rot_s05_90_chair_20_n04099969_8478.png
subject-05,1,894,0.629334926605225,bird,bird,180,0894_rot_s05_180_bird_20_n02009912_9901.png
subject-05,1,895,0.949597120285034,clock,clock,90,0895_rot_s05_90_clock_20_n03196217_3763.png
subject-05,1,896,0.870052099227905,elephant,elephant,90,0896_rot_s05_90_elephant_20_n02504458_4721.png
subject-05,1,897,0.692613840103149,cat,cat,90,0897_rot_s05_90_cat_20_n02125311_43130.png
subject-05,1,898,1.10290002822876,bear,bear,0,0898_rot_s05_0_bear_20_n02132136_1380.png
subject-05,1,899,1.14691686630249,cat,cat,270,0899_rot_s05_270_cat_20_n02125311_53968.png
subject-05,1,900,0.759166955947876,cat,cat,180,0900_rot_s05_180_cat_20_n02123394_234.png
subject-05,1,901,0.71184515953064,bird,bird,180,0901_rot_s05_180_bird_20_n01531178_20910.png
subject-05,1,902,1.23794007301331,bicycle,bicycle,180,0902_rot_s05_180_bicycle_20_n03792782_1868.png
subject-05,1,903,1.25014400482178,car,chair,90,0903_rot_s05_90_chair_20_n02791124_2275.png
subject-05,1,904,1.01055502891541,car,car,0,0904_rot_s05_0_car_20_n03100240_3083.png
subject-05,1,905,0.784876108169556,chair,chair,270,0905_rot_s05_270_chair_20_n04099969_49456.png
subject-05,1,906,0.68360710144043,boat,elephant,0,0906_rot_s05_0_elephant_20_n02504458_11186.png
subject-05,1,907,0.925824165344238,boat,truck,180,0907_rot_s05_180_truck_20_n04467665_12049.png
subject-05,1,908,0.891740083694458,truck,truck,270,0908_rot_s05_270_truck_20_n03417042_2960.png
subject-05,1,909,0.636121988296509,keyboard,keyboard,90,0909_rot_s05_90_keyboard_20_n04505470_867.png
subject-05,1,910,0.802708864212036,truck,truck,90,0910_rot_s05_90_truck_20_n04467665_67853.png
subject-05,1,911,0.992681980133057,keyboard,keyboard,90,0911_rot_s05_90_keyboard_20_n03085013_9653.png
subject-05,1,912,0.859163999557495,elephant,elephant,180,0912_rot_s05_180_elephant_20_n02504458_4711.png
subject-05,1,913,1.02532696723938,chair,chair,180,0913_rot_s05_180_chair_20_n04099969_15742.png
subject-05,1,914,0.517857074737549,bicycle,bicycle,180,0914_rot_s05_180_bicycle_20_n03792782_1661.png
subject-05,1,915,0.597543954849243,oven,oven,90,0915_rot_s05_90_oven_20_n04111531_19126.png
subject-05,1,916,0.733915090560913,truck,truck,270,0916_rot_s05_270_truck_20_n03417042_4009.png
subject-05,1,917,0.900029897689819,cat,cat,270,0917_rot_s05_270_cat_20_n02125311_30629.png
subject-05,1,918,1.19662594795227,cat,cat,180,0918_rot_s05_180_cat_20_n02125311_1812.png
subject-05,1,919,1.18498301506042,bird,cat,0,0919_rot_s05_0_cat_20_n02123045_1483.png
subject-05,1,920,1.16568994522095,bottle,bottle,270,0920_rot_s05_270_bottle_20_n04560804_6095.png
subject-05,1,921,1.30223298072815,car,car,180,0921_rot_s05_180_car_20_n04285008_6775.png
subject-05,1,922,1.16880202293396,dog,bottle,0,0922_rot_s05_0_bottle_20_n04557648_9727.png
subject-05,1,923,1.06540107727051,bird,bird,180,0923_rot_s05_180_bird_20_n02006656_6100.png
subject-05,1,924,0.863492965698242,knife,knife,0,0924_rot_s05_0_knife_20_n03041632_40450.png
subject-05,1,925,1.1213059425354,car,car,0,0925_rot_s05_0_car_20_n03100240_12429.png
subject-05,1,926,1.24163508415222,knife,knife,180,0926_rot_s05_180_knife_20_n03041632_94202.png
subject-05,1,927,0.701826095581055,clock,clock,0,0927_rot_s05_0_clock_20_n02708093_7122.png
subject-05,1,928,1.07474994659424,bear,bear,180,0928_rot_s05_180_bear_20_n02134084_8469.png
subject-05,1,929,0.848962068557739,bear,bear,90,0929_rot_s05_90_bear_20_n02132136_2783.png
subject-05,1,930,1.26146483421326,dog,dog,180,0930_rot_s05_180_dog_20_n02113712_3599.png
subject-05,1,931,1.20188593864441,bottle,bottle,180,0931_rot_s05_180_bottle_20_n03937543_5745.png
subject-05,1,932,1.30569195747375,dog,airplane,180,0932_rot_s05_180_airplane_20_n02690373_10181.png
subject-05,1,933,1.28811502456665,bird,dog,180,0933_rot_s05_180_dog_20_n02093754_5408.png
subject-05,1,934,0.526407957077026,clock,clock,270,0934_rot_s05_270_clock_20_n02708093_910.png
subject-05,1,935,1.08306884765625,bicycle,bicycle,270,0935_rot_s05_270_bicycle_20_n03792782_938.png
subject-05,1,936,0.873605012893677,clock,clock,90,0936_rot_s05_90_clock_20_n04548280_2989.png
subject-05,1,937,1.04796695709229,airplane,airplane,180,0937_rot_s05_180_airplane_20_n02690373_4201.png
subject-05,1,938,1.33606386184692,dog,dog,180,0938_rot_s05_180_dog_20_n02107683_872.png
subject-05,1,939,0.680530071258545,clock,clock,270,0939_rot_s05_270_clock_20_n04548280_7210.png
subject-05,1,940,0.786831140518188,oven,oven,270,0940_rot_s05_270_oven_20_n04111531_2662.png
subject-05,1,941,1.32928895950317,airplane,airplane,270,0941_rot_s05_270_airplane_20_n02690373_4465.png
subject-05,1,942,1.17375993728638,bear,elephant,270,0942_rot_s05_270_elephant_20_n02504013_4229.png
subject-05,1,943,1.50042104721069,bottle,bottle,90,0943_rot_s05_90_bottle_20_n04560804_14102.png
subject-05,1,944,1.02206206321716,dog,dog,270,0944_rot_s05_270_dog_20_n02097658_4641.png
subject-05,1,945,0.718419790267944,bird,bird,90,0945_rot_s05_90_bird_20_n02033041_336.png
subject-05,1,946,0.655332088470459,boat,boat,0,0946_rot_s05_0_boat_20_n02951358_29946.png
subject-05,1,947,0.959506988525391,dog,bear,180,0947_rot_s05_180_bear_20_n02134084_15764.png
subject-05,1,948,1.11761593818665,bicycle,bicycle,90,0948_rot_s05_90_bicycle_20_n02835271_29741.png
subject-05,1,949,1.17789316177368,knife,knife,90,0949_rot_s05_90_knife_20_n03041632_25022.png
subject-05,1,950,1.11182403564453,bottle,bottle,270,0950_rot_s05_270_bottle_20_n03983396_7082.png
subject-05,1,951,1.50013589859009,car,car,90,0951_rot_s05_90_car_20_n03100240_5716.png
subject-05,1,952,1.31945085525513,elephant,elephant,180,0952_rot_s05_180_elephant_20_n02504458_10428.png
subject-05,1,953,0.856017827987671,boat,boat,270,0953_rot_s05_270_boat_20_n04273569_1087.png
subject-05,1,954,0.983942031860352,elephant,elephant,0,0954_rot_s05_0_elephant_20_n02504013_2686.png
subject-05,1,955,0.603646993637085,boat,boat,270,0955_rot_s05_270_boat_20_n04273569_892.png
subject-05,1,956,0.631470918655396,boat,boat,180,0956_rot_s05_180_boat_20_n04273569_7045.png
subject-05,1,957,1.05820202827454,cat,bottle,270,0957_rot_s05_270_bottle_20_n04560804_450.png
subject-05,1,958,0.648538112640381,boat,boat,0,0958_rot_s05_0_boat_20_n03662601_5182.png
subject-05,1,959,0.785274982452393,bear,bear,90,0959_rot_s05_90_bear_20_n02134084_2155.png
subject-05,1,960,0.918862819671631,car,car,180,0960_rot_s05_180_car_20_n04285008_6995.png
subject-05,1,961,0.871160984039307,bird,bird,270,0961_rot_s05_270_bird_20_n01829413_495.png
subject-05,1,962,1.0998101234436,clock,dog,270,0962_rot_s05_270_dog_20_n02091134_13903.png
subject-05,1,963,0.644527912139893,cat,cat,90,0963_rot_s05_90_cat_20_n02123394_4385.png
subject-05,1,964,NaN,na,dog,180,0964_rot_s05_180_dog_20_n02109047_48731.png
subject-05,1,965,0.93126392364502,car,car,180,0965_rot_s05_180_car_20_n03100240_1452.png
subject-05,1,966,1.15706586837769,boat,clock,180,0966_rot_s05_180_clock_20_n04548280_1329.png
subject-05,1,967,0.579638957977295,bird,bird,180,0967_rot_s05_180_bird_20_n01843065_11653.png
subject-05,1,968,0.860080003738403,truck,truck,90,0968_rot_s05_90_truck_20_n03417042_9580.png
subject-05,1,969,1.05090594291687,car,bottle,90,0969_rot_s05_90_bottle_20_n04557648_9051.png
subject-05,1,970,0.957281112670898,truck,truck,180,0970_rot_s05_180_truck_20_n03417042_6554.png
subject-05,1,971,0.769744873046875,bird,bird,90,0971_rot_s05_90_bird_20_n01622779_6702.png
subject-05,1,972,1.1822338104248,cat,cat,180,0972_rot_s05_180_cat_20_n02124075_9755.png
subject-05,1,973,0.888585805892944,chair,chair,270,0973_rot_s05_270_chair_20_n04429376_3363.png
subject-05,1,974,0.746787071228027,truck,truck,180,0974_rot_s05_180_truck_20_n03417042_16149.png
subject-05,1,975,0.841170072555542,elephant,elephant,270,0975_rot_s05_270_elephant_20_n02504458_6050.png
subject-05,1,976,1.1288628578186,elephant,elephant,180,0976_rot_s05_180_elephant_20_n02504013_464.png
subject-05,1,977,0.725626945495605,bird,bird,90,0977_rot_s05_90_bird_20_n02017213_15262.png
subject-05,1,978,0.761679887771606,car,car,180,0978_rot_s05_180_car_20_n04285008_5032.png
subject-05,1,979,0.789731025695801,airplane,airplane,0,0979_rot_s05_0_airplane_20_n02690373_18412.png
subject-05,1,980,0.701822996139526,dog,dog,180,0980_rot_s05_180_dog_20_n02107574_4018.png
subject-05,1,981,1.23046398162842,dog,keyboard,180,0981_rot_s05_180_keyboard_20_n04505470_10558.png
subject-05,1,982,1.11059904098511,dog,dog,90,0982_rot_s05_90_dog_20_n02090622_4296.png
subject-05,1,983,0.825088024139404,elephant,elephant,270,0983_rot_s05_270_elephant_20_n02504013_470.png
subject-05,1,984,0.815527200698853,airplane,airplane,180,0984_rot_s05_180_airplane_20_n02690373_1296.png
subject-05,1,985,0.790194034576416,bicycle,bicycle,0,0985_rot_s05_0_bicycle_20_n02835271_11922.png
subject-05,1,986,0.802471160888672,cat,cat,270,0986_rot_s05_270_cat_20_n02123045_13360.png
subject-05,1,987,0.830626010894775,chair,chair,270,0987_rot_s05_270_chair_20_n04099969_14333.png
subject-05,1,988,1.05721712112427,dog,dog,90,0988_rot_s05_90_dog_20_n02108422_11119.png
subject-05,1,989,1.02551889419556,cat,cat,0,0989_rot_s05_0_cat_20_n02123045_12046.png
subject-05,1,990,0.707903146743774,bird,bird,0,0990_rot_s05_0_bird_20_n02006656_317.png
subject-05,1,991,0.820605039596558,clock,clock,270,0991_rot_s05_270_clock_20_n02708093_3669.png
subject-05,1,992,1.47071504592896,clock,chair,180,0992_rot_s05_180_chair_20_n04429376_29082.png
subject-05,1,993,0.998915910720825,truck,truck,0,0993_rot_s05_0_truck_20_n04467665_4165.png
subject-05,1,994,0.856523990631104,dog,cat,0,0994_rot_s05_0_cat_20_n02125311_14569.png
subject-05,1,995,1.08235096931458,bicycle,bicycle,0,0995_rot_s05_0_bicycle_20_n03792782_21832.png
subject-05,1,996,0.802586078643799,cat,cat,0,0996_rot_s05_0_cat_20_n02123394_4785.png
subject-05,1,997,1.29779887199402,car,bottle,0,0997_rot_s05_0_bottle_20_n04560804_5103.png
subject-05,1,998,1.41833305358887,bottle,chair,270,0998_rot_s05_270_chair_20_n04099969_6309.png
subject-05,1,999,0.954934120178223,car,car,90,0999_rot_s05_90_car_20_n02814533_27942.png
subject-05,1,1000,1.0509979724884,bottle,bottle,270,1000_rot_s05_270_bottle_20_n04560804_1356.png
subject-05,1,1001,1.42543292045593,bird,elephant,180,1001_rot_s05_180_elephant_20_n02504458_5144.png
subject-05,1,1002,0.73171591758728,chair,chair,270,1002_rot_s05_270_chair_20_n04099969_4229.png
subject-05,1,1003,1.08255791664124,car,car,90,1003_rot_s05_90_car_20_n02814533_22693.png
subject-05,1,1004,0.994441986083984,chair,truck,90,1004_rot_s05_90_truck_20_n03417042_3146.png
subject-05,1,1005,0.714425086975098,knife,knife,270,1005_rot_s05_270_knife_20_n03041632_15431.png
subject-05,1,1006,1.16470003128052,airplane,airplane,270,1006_rot_s05_270_airplane_20_n02690373_6753.png
subject-05,1,1007,0.657192945480347,car,car,90,1007_rot_s05_90_car_20_n04285008_4645.png
subject-05,1,1008,0.737519025802612,truck,truck,180,1008_rot_s05_180_truck_20_n03417042_10788.png
subject-05,1,1009,0.681678056716919,cat,cat,90,1009_rot_s05_90_cat_20_n02125311_5428.png
subject-05,1,1010,0.940577983856201,car,chair,180,1010_rot_s05_180_chair_20_n02791124_11512.png
subject-05,1,1011,0.852515935897827,elephant,elephant,0,1011_rot_s05_0_elephant_20_n02504013_7045.png
subject-05,1,1012,0.888814926147461,car,car,270,1012_rot_s05_270_car_20_n04285008_2560.png
subject-05,1,1013,0.825176000595093,bear,bear,270,1013_rot_s05_270_bear_20_n02134084_6767.png
subject-05,1,1014,0.667752027511597,boat,boat,270,1014_rot_s05_270_boat_20_n02951358_31470.png
subject-05,1,1015,0.912376880645752,car,car,0,1015_rot_s05_0_car_20_n04285008_8242.png
subject-05,1,1016,0.932754993438721,car,car,180,1016_rot_s05_180_car_20_n03100240_933.png
subject-05,1,1017,0.760490894317627,bottle,chair,180,1017_rot_s05_180_chair_20_n04429376_36830.png
subject-05,1,1018,0.756306886672974,chair,chair,180,1018_rot_s05_180_chair_20_n02791124_3801.png
subject-05,1,1019,0.622845888137817,bicycle,bicycle,180,1019_rot_s05_180_bicycle_20_n03792782_4682.png
subject-05,1,1020,0.850998878479004,boat,boat,90,1020_rot_s05_90_boat_20_n04273569_18044.png
subject-05,1,1021,1.10631608963013,car,knife,180,1021_rot_s05_180_knife_20_n03041632_25772.png
subject-05,1,1022,1.0891580581665,car,oven,180,1022_rot_s05_180_oven_20_n04111531_19576.png
subject-05,1,1023,0.855368852615356,keyboard,keyboard,270,1023_rot_s05_270_keyboard_20_n04505470_1994.png
subject-05,1,1024,1.37594819068909,cat,knife,270,1024_rot_s05_270_knife_20_n03041632_13612.png
subject-05,1,1025,1.05766201019287,chair,chair,0,1025_rot_s05_0_chair_20_n03376595_6249.png
subject-05,1,1026,0.747813940048218,car,car,0,1026_rot_s05_0_car_20_n02814533_9634.png
subject-05,1,1027,0.821978092193604,cat,cat,180,1027_rot_s05_180_cat_20_n02123045_20570.png
subject-05,1,1028,0.802551984786987,clock,clock,180,1028_rot_s05_180_clock_20_n04548280_7568.png
subject-05,1,1029,1.23056387901306,bird,bird,270,1029_rot_s05_270_bird_20_n02028035_32258.png
subject-05,1,1030,1.29709601402283,elephant,elephant,180,1030_rot_s05_180_elephant_20_n02504458_8923.png
subject-05,1,1031,0.987392902374268,bicycle,bicycle,180,1031_rot_s05_180_bicycle_20_n02835271_1444.png
subject-05,1,1032,0.97589898109436,bottle,bottle,180,1032_rot_s05_180_bottle_20_n04560804_15444.png
subject-05,1,1033,0.697588920593262,keyboard,keyboard,180,1033_rot_s05_180_keyboard_20_n03085013_20357.png
subject-05,1,1034,0.648037195205688,boat,boat,270,1034_rot_s05_270_boat_20_n04273569_23433.png
subject-05,1,1035,0.760751962661743,boat,boat,270,1035_rot_s05_270_boat_20_n03344393_2587.png
subject-05,1,1036,0.788720846176147,car,car,90,1036_rot_s05_90_car_20_n03100240_15676.png
subject-05,1,1037,0.646867990493774,boat,boat,90,1037_rot_s05_90_boat_20_n03662601_1834.png
subject-05,1,1038,0.637483835220337,truck,truck,0,1038_rot_s05_0_truck_20_n03417042_11306.png
subject-05,1,1039,0.74200701713562,chair,chair,90,1039_rot_s05_90_chair_20_n02791124_696.png
subject-05,1,1040,0.9083411693573,bottle,bottle,0,1040_rot_s05_0_bottle_20_n02823428_7017.png
subject-05,1,1041,0.966561079025269,keyboard,keyboard,90,1041_rot_s05_90_keyboard_20_n03085013_18674.png
subject-05,1,1042,0.847989082336426,keyboard,keyboard,0,1042_rot_s05_0_keyboard_20_n03085013_7058.png
subject-05,1,1043,0.768243074417114,bottle,bottle,270,1043_rot_s05_270_bottle_20_n02823428_6790.png
subject-05,1,1044,0.926528930664062,airplane,airplane,180,1044_rot_s05_180_airplane_20_n02690373_1489.png
subject-05,1,1045,1.21472907066345,car,car,0,1045_rot_s05_0_car_20_n04285008_14508.png
subject-05,1,1046,0.879616975784302,keyboard,keyboard,0,1046_rot_s05_0_keyboard_20_n04505470_486.png
subject-05,1,1047,0.883934020996094,boat,boat,270,1047_rot_s05_270_boat_20_n04273569_3945.png
subject-05,1,1048,0.858283042907715,keyboard,keyboard,270,1048_rot_s05_270_keyboard_20_n04505470_5131.png
subject-05,1,1049,1.00877594947815,bicycle,bicycle,270,1049_rot_s05_270_bicycle_20_n02835271_2753.png
subject-05,1,1050,1.23752808570862,keyboard,clock,0,1050_rot_s05_0_clock_20_n03196217_3283.png
subject-05,1,1051,1.0339949131012,car,boat,90,1051_rot_s05_90_boat_20_n04273569_13420.png
subject-05,1,1052,0.991777181625366,truck,truck,90,1052_rot_s05_90_truck_20_n04467665_34932.png
subject-05,1,1053,1.08205389976501,boat,clock,90,1053_rot_s05_90_clock_20_n03196217_727.png
subject-05,1,1054,0.948524951934814,cat,dog,180,1054_rot_s05_180_dog_20_n02088364_2000.png
subject-05,1,1055,0.746740818023682,oven,oven,90,1055_rot_s05_90_oven_20_n04111531_6134.png
subject-05,1,1056,0.86735200881958,bird,bird,90,1056_rot_s05_90_bird_20_n01798484_3874.png
subject-05,1,1057,1.37747097015381,boat,truck,90,1057_rot_s05_90_truck_20_n04467665_707.png
subject-05,1,1058,1.19186401367188,bottle,bottle,270,1058_rot_s05_270_bottle_20_n04591713_7010.png
subject-05,1,1059,1.38045787811279,bear,bear,180,1059_rot_s05_180_bear_20_n02132136_1584.png
