subj,session,trial,rt,object_response,category,condition,imagename
subject-03,1,1,1.33571791648865,bear,dog,270,0001_rot_s03_270_dog_20_n02093256_3712.png
subject-03,1,2,0.733587980270386,airplane,airplane,270,0002_rot_s03_270_airplane_20_n02690373_4402.png
subject-03,1,3,1.26952481269836,boat,truck,0,0003_rot_s03_0_truck_20_n03796401_15240.png
subject-03,1,4,0.801898002624512,elephant,elephant,180,0004_rot_s03_180_elephant_20_n02504458_5799.png
subject-03,1,5,0.932608127593994,dog,dog,90,0005_rot_s03_90_dog_20_n02093754_5697.png
subject-03,1,6,0.822027921676636,chair,bottle,90,0006_rot_s03_90_bottle_20_n04560804_14092.png
subject-03,1,7,1.08986401557922,oven,oven,270,0007_rot_s03_270_oven_20_n04111531_8077.png
subject-03,1,8,0.866199016571045,keyboard,keyboard,0,0008_rot_s03_0_keyboard_20_n03085013_19161.png
subject-03,1,9,0.856525897979736,bicycle,bicycle,90,0009_rot_s03_90_bicycle_20_n03792782_16443.png
subject-03,1,10,0.995430946350098,cat,dog,270,0010_rot_s03_270_dog_20_n02106662_112520.png
subject-03,1,11,1.01771903038025,bottle,bottle,90,0011_rot_s03_90_bottle_20_n04557648_2241.png
subject-03,1,12,0.977962970733643,boat,boat,90,0012_rot_s03_90_boat_20_n04273569_23708.png
subject-03,1,13,1.27645993232727,chair,chair,270,0013_rot_s03_270_chair_20_n04099969_21821.png
subject-03,1,14,0.952380180358887,oven,oven,90,0014_rot_s03_90_oven_20_n04111531_1002.png
subject-03,1,15,1.00693202018738,elephant,elephant,180,0015_rot_s03_180_elephant_20_n02504013_12586.png
subject-03,1,16,1.20564794540405,cat,dog,270,0016_rot_s03_270_dog_20_n02108915_981.png
subject-03,1,17,NaN,na,keyboard,90,0017_rot_s03_90_keyboard_20_n03085013_23649.png
subject-03,1,18,1.41805100440979,truck,truck,90,0018_rot_s03_90_truck_20_n04467665_64375.png
subject-03,1,19,1.07211995124817,dog,dog,270,0019_rot_s03_270_dog_20_n02111129_3577.png
subject-03,1,20,1.38660502433777,truck,truck,180,0020_rot_s03_180_truck_20_n03417042_11165.png
subject-03,1,21,0.954843997955322,airplane,airplane,270,0021_rot_s03_270_airplane_20_n02690373_9794.png
subject-03,1,22,0.807440996170044,bottle,bottle,90,0022_rot_s03_90_bottle_20_n04591713_493.png
subject-03,1,23,1.04563117027283,keyboard,keyboard,90,0023_rot_s03_90_keyboard_20_n03085013_19533.png
subject-03,1,24,1.19783401489258,boat,boat,270,0024_rot_s03_270_boat_20_n03344393_6079.png
subject-03,1,25,1.23649501800537,bird,bird,270,0025_rot_s03_270_bird_20_n01824575_11952.png
subject-03,1,26,NaN,na,bear,180,0026_rot_s03_180_bear_20_n02134084_7238.png
subject-03,1,27,0.894483089447021,boat,boat,180,0027_rot_s03_180_boat_20_n03662601_11384.png
subject-03,1,28,1.09206104278564,airplane,airplane,180,0028_rot_s03_180_airplane_20_n02690373_8967.png
subject-03,1,29,1.00610303878784,elephant,elephant,0,0029_rot_s03_0_elephant_20_n02504013_6065.png
subject-03,1,30,1.32880592346191,elephant,elephant,90,0030_rot_s03_90_elephant_20_n02504458_4314.png
subject-03,1,31,1.12697410583496,truck,truck,270,0031_rot_s03_270_truck_20_n03417042_14274.png
subject-03,1,32,1.07290506362915,airplane,airplane,270,0032_rot_s03_270_airplane_20_n02690373_5845.png
subject-03,1,33,1.14102387428284,bird,bird,270,0033_rot_s03_270_bird_20_n02018795_6496.png
subject-03,1,34,1.50020790100098,elephant,elephant,270,0034_rot_s03_270_elephant_20_n02504458_7033.png
subject-03,1,35,1.08375310897827,oven,boat,90,0035_rot_s03_90_boat_20_n04273569_1636.png
subject-03,1,36,0.984151124954224,bottle,bottle,0,0036_rot_s03_0_bottle_20_n02823428_4119.png
subject-03,1,37,1.08271503448486,bottle,bottle,270,0037_rot_s03_270_bottle_20_n03983396_7161.png
subject-03,1,38,1.10547399520874,bird,bird,0,0038_rot_s03_0_bird_20_n01828970_6847.png
subject-03,1,39,1.04974699020386,oven,oven,90,0039_rot_s03_90_oven_20_n04111531_452.png
subject-03,1,40,1.08842301368713,keyboard,keyboard,90,0040_rot_s03_90_keyboard_20_n04505470_734.png
subject-03,1,41,1.30271911621094,bird,dog,180,0041_rot_s03_180_dog_20_n02108915_8882.png
subject-03,1,42,0.886927843093872,cat,bear,270,0042_rot_s03_270_bear_20_n02134084_15873.png
subject-03,1,43,0.847398042678833,truck,truck,0,0043_rot_s03_0_truck_20_n03417042_9689.png
subject-03,1,44,1.36612677574158,bird,bottle,180,0044_rot_s03_180_bottle_20_n03937543_6844.png
subject-03,1,45,1.026526927948,car,car,0,0045_rot_s03_0_car_20_n03100240_3400.png
subject-03,1,46,1.26490497589111,elephant,elephant,0,0046_rot_s03_0_elephant_20_n02504458_1439.png
subject-03,1,47,1.17918109893799,truck,truck,180,0047_rot_s03_180_truck_20_n03417042_4016.png
subject-03,1,48,1.33974003791809,chair,truck,90,0048_rot_s03_90_truck_20_n03417042_4258.png
subject-03,1,49,1.26220607757568,bird,dog,90,0049_rot_s03_90_dog_20_n02089867_4028.png
subject-03,1,50,1.17660617828369,dog,dog,0,0050_rot_s03_0_dog_20_n02111277_11722.png
subject-03,1,51,1.27514505386353,chair,oven,180,0051_rot_s03_180_oven_20_n04111531_15943.png
subject-03,1,52,1.21355509757996,elephant,elephant,180,0052_rot_s03_180_elephant_20_n02504458_7331.png
subject-03,1,53,1.2198920249939,elephant,elephant,90,0053_rot_s03_90_elephant_20_n02504013_5390.png
subject-03,1,54,0.980192899703979,elephant,elephant,0,0054_rot_s03_0_elephant_20_n02504013_7139.png
subject-03,1,55,1.09491300582886,dog,bear,180,0055_rot_s03_180_bear_20_n02134418_11.png
subject-03,1,56,1.0411810874939,boat,boat,90,0056_rot_s03_90_boat_20_n03662601_32251.png
subject-03,1,57,0.717443943023682,elephant,elephant,180,0057_rot_s03_180_elephant_20_n02504013_3719.png
subject-03,1,58,1.02371907234192,keyboard,keyboard,270,0058_rot_s03_270_keyboard_20_n03085013_6067.png
subject-03,1,59,1.36018800735474,elephant,dog,270,0059_rot_s03_270_dog_20_n02088364_6991.png
subject-03,1,60,1.36671304702759,bird,bear,0,0060_rot_s03_0_bear_20_n02134418_177.png
subject-03,1,61,1.50004315376282,bottle,chair,270,0061_rot_s03_270_chair_20_n04429376_23944.png
subject-03,1,62,NaN,na,truck,270,0062_rot_s03_270_truck_20_n03796401_4149.png
subject-03,1,63,1.21005606651306,bird,bird,0,0063_rot_s03_0_bird_20_n02006656_4047.png
subject-03,1,64,1.24057984352112,oven,oven,270,0064_rot_s03_270_oven_20_n04111531_6500.png
subject-03,1,65,0.963095903396606,airplane,airplane,0,0065_rot_s03_0_airplane_20_n02690373_9829.png
subject-03,1,66,1.26185512542725,bird,bird,180,0066_rot_s03_180_bird_20_n01855672_2402.png
subject-03,1,67,1.25423407554626,cat,dog,90,0067_rot_s03_90_dog_20_n02101388_6775.png
subject-03,1,68,0.838568925857544,boat,boat,0,0068_rot_s03_0_boat_20_n02951358_19699.png
subject-03,1,69,1.21520519256592,dog,dog,180,0069_rot_s03_180_dog_20_n02097658_551.png
subject-03,1,70,NaN,na,cat,180,0070_rot_s03_180_cat_20_n02124075_10103.png
subject-03,1,71,1.35032391548157,oven,knife,180,0071_rot_s03_180_knife_20_n03041632_29858.png
subject-03,1,72,0.674615144729614,knife,knife,0,0072_rot_s03_0_knife_20_n03041632_10802.png
subject-03,1,73,0.994795083999634,chair,chair,0,0073_rot_s03_0_chair_20_n03376595_6188.png
subject-03,1,74,NaN,na,bottle,90,0074_rot_s03_90_bottle_20_n04591713_4989.png
subject-03,1,75,1.29920601844788,elephant,elephant,270,0075_rot_s03_270_elephant_20_n02504013_620.png
subject-03,1,76,0.845834016799927,car,car,180,0076_rot_s03_180_car_20_n04285008_8951.png
subject-03,1,77,1.04402899742126,car,car,270,0077_rot_s03_270_car_20_n04285008_14273.png
subject-03,1,78,1.50033211708069,dog,dog,0,0078_rot_s03_0_dog_20_n02085936_8370.png
subject-03,1,79,0.902808904647827,elephant,elephant,0,0079_rot_s03_0_elephant_20_n02504458_6841.png
subject-03,1,80,1.33086204528809,chair,chair,0,0080_rot_s03_0_chair_20_n04429376_8224.png
subject-03,1,81,1.00751686096191,airplane,airplane,0,0081_rot_s03_0_airplane_20_n02690373_7115.png
subject-03,1,82,1.22140216827393,bottle,knife,180,0082_rot_s03_180_knife_20_n03041632_96345.png
subject-03,1,83,1.50030612945557,oven,truck,180,0083_rot_s03_180_truck_20_n03417042_3308.png
subject-03,1,84,1.17454695701599,cat,oven,270,0084_rot_s03_270_oven_20_n04111531_22715.png
subject-03,1,85,1.04894399642944,car,car,180,0085_rot_s03_180_car_20_n03100240_2052.png
subject-03,1,86,1.35554623603821,boat,bicycle,270,0086_rot_s03_270_bicycle_20_n03792782_1116.png
subject-03,1,87,1.08597803115845,keyboard,keyboard,180,0087_rot_s03_180_keyboard_20_n04505470_5266.png
subject-03,1,88,1.12418699264526,keyboard,keyboard,270,0088_rot_s03_270_keyboard_20_n03085013_18673.png
subject-03,1,89,1.29891014099121,cat,oven,270,0089_rot_s03_270_oven_20_n04111531_11530.png
subject-03,1,90,1.12930107116699,oven,clock,270,0090_rot_s03_270_clock_20_n02708093_7156.png
subject-03,1,91,0.837683916091919,keyboard,keyboard,90,0091_rot_s03_90_keyboard_20_n03085013_19008.png
subject-03,1,92,1.17392802238464,keyboard,keyboard,270,0092_rot_s03_270_keyboard_20_n04505470_7521.png
subject-03,1,93,1.19395589828491,clock,clock,270,0093_rot_s03_270_clock_20_n04548280_662.png
subject-03,1,94,1.40046691894531,bird,bird,90,0094_rot_s03_90_bird_20_n01860187_37570.png
subject-03,1,95,1.24678993225098,car,car,0,0095_rot_s03_0_car_20_n03100240_5342.png
subject-03,1,96,1.13736200332642,oven,oven,0,0096_rot_s03_0_oven_20_n04111531_7072.png
subject-03,1,97,0.875041961669922,airplane,airplane,90,0097_rot_s03_90_airplane_20_n02690373_1436.png
subject-03,1,98,1.33522295951843,bird,knife,180,0098_rot_s03_180_knife_20_n03041632_5820.png
subject-03,1,99,1.43391299247742,cat,cat,90,0099_rot_s03_90_cat_20_n02123159_2043.png
subject-03,1,100,0.726319074630737,oven,oven,270,0100_rot_s03_270_oven_20_n04111531_9688.png
subject-03,1,101,1.48413395881653,airplane,airplane,180,0101_rot_s03_180_airplane_20_n02690373_1952.png
subject-03,1,102,1.22830700874329,knife,knife,270,0102_rot_s03_270_knife_20_n03041632_1661.png
subject-03,1,103,1.03518199920654,dog,dog,0,0103_rot_s03_0_dog_20_n02111277_8658.png
subject-03,1,104,0.681648015975952,clock,clock,180,0104_rot_s03_180_clock_20_n02708093_4964.png
subject-03,1,105,1.21788907051086,knife,knife,90,0105_rot_s03_90_knife_20_n03041632_7173.png
subject-03,1,106,1.37055706977844,dog,dog,90,0106_rot_s03_90_dog_20_n02102040_3699.png
subject-03,1,107,0.954895973205566,keyboard,keyboard,270,0107_rot_s03_270_keyboard_20_n03085013_20551.png
subject-03,1,108,1.14552998542786,cat,chair,0,0108_rot_s03_0_chair_20_n04099969_3346.png
subject-03,1,109,1.47399997711182,dog,dog,180,0109_rot_s03_180_dog_20_n02093256_3226.png
subject-03,1,110,1.14223909378052,dog,bear,0,0110_rot_s03_0_bear_20_n02134418_4189.png
subject-03,1,111,1.11113595962524,bird,bird,180,0111_rot_s03_180_bird_20_n01820546_3773.png
subject-03,1,112,1.15743494033813,chair,chair,90,0112_rot_s03_90_chair_20_n04099969_34538.png
subject-03,1,113,NaN,na,bicycle,270,0113_rot_s03_270_bicycle_20_n02835271_8137.png
subject-03,1,114,1.05397891998291,truck,truck,270,0114_rot_s03_270_truck_20_n03796401_27515.png
subject-03,1,115,1.19696998596191,chair,oven,180,0115_rot_s03_180_oven_20_n04111531_594.png
subject-03,1,116,1.49552512168884,chair,chair,270,0116_rot_s03_270_chair_20_n02791124_5004.png
subject-03,1,117,1.09375905990601,bicycle,bicycle,90,0117_rot_s03_90_bicycle_20_n02835271_12743.png
subject-03,1,118,0.948410987854004,clock,clock,0,0118_rot_s03_0_clock_20_n02708093_4737.png
subject-03,1,119,1.08477592468262,bird,bird,0,0119_rot_s03_0_bird_20_n02009229_1902.png
subject-03,1,120,1.25885081291199,bicycle,bicycle,180,0120_rot_s03_180_bicycle_20_n02835271_22989.png
subject-03,1,121,1.14336395263672,dog,dog,270,0121_rot_s03_270_dog_20_n02098286_5403.png
subject-03,1,122,1.50022602081299,clock,clock,180,0122_rot_s03_180_clock_20_n02708093_7967.png
subject-03,1,123,0.97236704826355,bird,boat,0,0123_rot_s03_0_boat_20_n02951358_14280.png
subject-03,1,124,0.869776964187622,cat,bear,180,0124_rot_s03_180_bear_20_n02134418_16654.png
subject-03,1,125,1.50008988380432,bird,bear,90,0125_rot_s03_90_bear_20_n02133161_464.png
subject-03,1,126,0.711978912353516,clock,clock,180,0126_rot_s03_180_clock_20_n03196217_6824.png
subject-03,1,127,1.33227300643921,cat,cat,270,0127_rot_s03_270_cat_20_n02125311_3450.png
subject-03,1,128,0.946728944778442,cat,bicycle,180,0128_rot_s03_180_bicycle_20_n03792782_8062.png
subject-03,1,129,0.877026081085205,keyboard,keyboard,90,0129_rot_s03_90_keyboard_20_n03085013_23905.png
subject-03,1,130,1.02764081954956,elephant,elephant,90,0130_rot_s03_90_elephant_20_n02504458_7634.png
subject-03,1,131,1.17963814735413,chair,knife,0,0131_rot_s03_0_knife_20_n03041632_29427.png
subject-03,1,132,0.926328897476196,car,car,90,0132_rot_s03_90_car_20_n02814533_43727.png
subject-03,1,133,NaN,na,bottle,180,0133_rot_s03_180_bottle_20_n04560804_2170.png
subject-03,1,134,1.06890606880188,bird,bird,180,0134_rot_s03_180_bird_20_n01532829_12674.png
subject-03,1,135,0.980926036834717,chair,chair,180,0135_rot_s03_180_chair_20_n03376595_3456.png
subject-03,1,136,0.811038970947266,oven,bottle,90,0136_rot_s03_90_bottle_20_n02823428_446.png
subject-03,1,137,0.939581155776978,dog,dog,180,0137_rot_s03_180_dog_20_n02091467_7224.png
subject-03,1,138,1.02350997924805,bird,boat,180,0138_rot_s03_180_boat_20_n02951358_29352.png
subject-03,1,139,0.897948980331421,bicycle,bicycle,90,0139_rot_s03_90_bicycle_20_n03792782_8271.png
subject-03,1,140,1.11230802536011,truck,truck,180,0140_rot_s03_180_truck_20_n03796401_18532.png
subject-03,1,141,1.18666195869446,dog,dog,0,0141_rot_s03_0_dog_20_n02093428_13932.png
subject-03,1,142,1.33886694908142,dog,dog,180,0142_rot_s03_180_dog_20_n02111500_1981.png
subject-03,1,143,1.34948015213013,bicycle,bicycle,0,0143_rot_s03_0_bicycle_20_n03792782_9000.png
subject-03,1,144,0.79616379737854,keyboard,keyboard,180,0144_rot_s03_180_keyboard_20_n03085013_3257.png
subject-03,1,145,1.09249401092529,chair,chair,90,0145_rot_s03_90_chair_20_n02791124_4980.png
subject-03,1,146,1.1850700378418,bottle,bottle,180,0146_rot_s03_180_bottle_20_n03983396_4207.png
subject-03,1,147,1.29784107208252,car,boat,180,0147_rot_s03_180_boat_20_n03344393_3466.png
subject-03,1,148,1.11997103691101,chair,chair,180,0148_rot_s03_180_chair_20_n04099969_54555.png
subject-03,1,149,0.904493093490601,bear,bear,270,0149_rot_s03_270_bear_20_n02133161_10670.png
subject-03,1,150,0.85682201385498,car,car,0,0150_rot_s03_0_car_20_n03100240_14426.png
subject-03,1,151,NaN,na,bottle,90,0151_rot_s03_90_bottle_20_n03983396_2944.png
subject-03,1,152,1.06727981567383,dog,dog,0,0152_rot_s03_0_dog_20_n02100583_17563.png
subject-03,1,153,0.997267961502075,car,car,180,0153_rot_s03_180_car_20_n03100240_2668.png
subject-03,1,154,0.803395986557007,cat,cat,0,0154_rot_s03_0_cat_20_n02124075_9224.png
subject-03,1,155,0.825804948806763,bicycle,bicycle,90,0155_rot_s03_90_bicycle_20_n02835271_24851.png
subject-03,1,156,0.962273120880127,car,car,270,0156_rot_s03_270_car_20_n02814533_27818.png
subject-03,1,157,1.03683495521545,truck,truck,0,0157_rot_s03_0_truck_20_n04467665_62439.png
subject-03,1,158,0.975183963775635,bird,bird,270,0158_rot_s03_270_bird_20_n02011460_4956.png
subject-03,1,159,1.049880027771,knife,knife,180,0159_rot_s03_180_knife_20_n03041632_3247.png
subject-03,1,160,1.39460182189941,bottle,chair,270,0160_rot_s03_270_chair_20_n02791124_7824.png
subject-03,1,161,1.20190095901489,airplane,airplane,180,0161_rot_s03_180_airplane_20_n02690373_5980.png
subject-03,1,162,0.846392154693604,keyboard,keyboard,90,0162_rot_s03_90_keyboard_20_n04505470_4689.png
subject-03,1,163,1.16853785514832,bear,bear,270,0163_rot_s03_270_bear_20_n02134084_21413.png
subject-03,1,164,1.05105900764465,oven,oven,90,0164_rot_s03_90_oven_20_n04111531_8750.png
subject-03,1,165,0.765496969223022,car,car,270,0165_rot_s03_270_car_20_n03100240_2536.png
subject-03,1,166,0.842149972915649,bottle,bottle,180,0166_rot_s03_180_bottle_20_n03983396_5763.png
subject-03,1,167,1.32944583892822,bird,cat,0,0167_rot_s03_0_cat_20_n02123394_7222.png
subject-03,1,168,0.729950904846191,clock,clock,270,0168_rot_s03_270_clock_20_n02708093_3745.png
subject-03,1,169,NaN,na,elephant,90,0169_rot_s03_90_elephant_20_n02504013_6829.png
subject-03,1,170,1.0351140499115,car,car,180,0170_rot_s03_180_car_20_n02814533_45150.png
subject-03,1,171,0.925410985946655,oven,oven,270,0171_rot_s03_270_oven_20_n04111531_8658.png
subject-03,1,172,1.18365907669067,bottle,bottle,180,0172_rot_s03_180_bottle_20_n04591713_3402.png
subject-03,1,173,1.43610095977783,bird,airplane,270,0173_rot_s03_270_airplane_20_n02690373_5176.png
subject-03,1,174,0.996841192245483,bear,bear,90,0174_rot_s03_90_bear_20_n02132136_1023.png
subject-03,1,175,0.885727167129517,elephant,elephant,0,0175_rot_s03_0_elephant_20_n02504013_1078.png
subject-03,1,176,0.946104049682617,bottle,bottle,270,0176_rot_s03_270_bottle_20_n03983396_822.png
subject-03,1,177,0.97487998008728,elephant,elephant,90,0177_rot_s03_90_elephant_20_n02504458_12191.png
subject-03,1,178,0.735110998153687,airplane,airplane,270,0178_rot_s03_270_airplane_20_n02690373_4243.png
subject-03,1,179,1.04206490516663,bird,bird,0,0179_rot_s03_0_bird_20_n01860187_217.png
subject-03,1,180,0.962208986282349,bottle,clock,180,0180_rot_s03_180_clock_20_n03196217_43.png
subject-03,1,181,1.06056189537048,oven,clock,0,0181_rot_s03_0_clock_20_n04548280_2522.png
subject-03,1,182,1.39640212059021,dog,dog,270,0182_rot_s03_270_dog_20_n02093647_5867.png
subject-03,1,183,NaN,na,bear,90,0183_rot_s03_90_bear_20_n02132136_6387.png
subject-03,1,184,NaN,na,bottle,0,0184_rot_s03_0_bottle_20_n04560804_4936.png
subject-03,1,185,0.837671041488647,clock,airplane,0,0185_rot_s03_0_airplane_20_n02690373_9293.png
subject-03,1,186,0.784335851669312,chair,chair,180,0186_rot_s03_180_chair_20_n04099969_1527.png
subject-03,1,187,1.0340690612793,bicycle,bicycle,0,0187_rot_s03_0_bicycle_20_n03792782_18516.png
subject-03,1,188,1.47873997688293,chair,bird,270,0188_rot_s03_270_bird_20_n01537544_4583.png
subject-03,1,189,0.971159934997559,cat,dog,180,0189_rot_s03_180_dog_20_n02113624_3800.png
subject-03,1,190,1.42155694961548,cat,elephant,90,0190_rot_s03_90_elephant_20_n02504458_2174.png
subject-03,1,191,1.47393298149109,dog,cat,90,0191_rot_s03_90_cat_20_n02123159_469.png
subject-03,1,192,1.02063488960266,cat,cat,90,0192_rot_s03_90_cat_20_n02123045_2869.png
subject-03,1,193,0.811014890670776,chair,chair,0,0193_rot_s03_0_chair_20_n03376595_157.png
subject-03,1,194,0.779597997665405,keyboard,keyboard,180,0194_rot_s03_180_keyboard_20_n03085013_21246.png
subject-03,1,195,NaN,na,elephant,90,0195_rot_s03_90_elephant_20_n02504458_485.png
subject-03,1,196,0.860682010650635,bear,bear,270,0196_rot_s03_270_bear_20_n02134418_211.png
subject-03,1,197,1.36699104309082,bird,bird,180,0197_rot_s03_180_bird_20_n02002724_5693.png
subject-03,1,198,0.981616973876953,oven,chair,270,0198_rot_s03_270_chair_20_n02791124_6215.png
subject-03,1,199,1.11013603210449,boat,boat,90,0199_rot_s03_90_boat_20_n03662601_16425.png
subject-03,1,200,1.04641699790955,oven,car,90,0200_rot_s03_90_car_20_n03100240_15503.png
subject-03,1,201,1.02252292633057,truck,truck,90,0201_rot_s03_90_truck_20_n04467665_8955.png
subject-03,1,202,0.967072010040283,oven,oven,0,0202_rot_s03_0_oven_20_n04111531_13101.png
subject-03,1,203,1.21962404251099,car,car,180,0203_rot_s03_180_car_20_n03100240_16860.png
subject-03,1,204,1.21819305419922,bird,bird,270,0204_rot_s03_270_bird_20_n02037110_31816.png
subject-03,1,205,1.0925829410553,boat,boat,270,0205_rot_s03_270_boat_20_n04273569_387.png
subject-03,1,206,0.731091022491455,chair,chair,180,0206_rot_s03_180_chair_20_n03376595_6791.png
subject-03,1,207,0.875668048858643,airplane,airplane,270,0207_rot_s03_270_airplane_20_n02690373_13585.png
subject-03,1,208,0.911990165710449,clock,clock,0,0208_rot_s03_0_clock_20_n04548280_280.png
subject-03,1,209,1.50041699409485,bird,airplane,90,0209_rot_s03_90_airplane_20_n02690373_5146.png
subject-03,1,210,1.50011301040649,airplane,airplane,180,0210_rot_s03_180_airplane_20_n02690373_8163.png
subject-03,1,211,0.990983009338379,keyboard,keyboard,0,0211_rot_s03_0_keyboard_20_n03085013_8299.png
subject-03,1,212,1.00548696517944,car,car,90,0212_rot_s03_90_car_20_n03100240_5968.png
subject-03,1,213,0.842205047607422,clock,clock,90,0213_rot_s03_90_clock_20_n04548280_6888.png
subject-03,1,214,0.870382785797119,bottle,bottle,90,0214_rot_s03_90_bottle_20_n03937543_6003.png
subject-03,1,215,1.35317397117615,bird,elephant,180,0215_rot_s03_180_elephant_20_n02504013_1370.png
subject-03,1,216,1.17538905143738,cat,knife,180,0216_rot_s03_180_knife_20_n03041632_22480.png
subject-03,1,217,0.90393590927124,bottle,chair,90,0217_rot_s03_90_chair_20_n02791124_4037.png
subject-03,1,218,1.08034205436707,car,car,270,0218_rot_s03_270_car_20_n03100240_2503.png
subject-03,1,219,1.21855306625366,bear,bear,180,0219_rot_s03_180_bear_20_n02133161_6115.png
subject-03,1,220,0.878665924072266,bottle,bottle,90,0220_rot_s03_90_bottle_20_n04591713_10484.png
subject-03,1,221,0.806772947311401,boat,boat,0,0221_rot_s03_0_boat_20_n03344393_1158.png
subject-03,1,222,0.659247875213623,clock,clock,90,0222_rot_s03_90_clock_20_n02708093_906.png
subject-03,1,223,NaN,na,clock,90,0223_rot_s03_90_clock_20_n04548280_272.png
subject-03,1,224,0.886590957641602,bottle,bottle,90,0224_rot_s03_90_bottle_20_n04557648_5083.png
subject-03,1,225,0.754899978637695,boat,boat,180,0225_rot_s03_180_boat_20_n03662601_2414.png
subject-03,1,226,0.491026878356934,clock,clock,180,0226_rot_s03_180_clock_20_n04548280_7110.png
subject-03,1,227,0.805366039276123,elephant,elephant,180,0227_rot_s03_180_elephant_20_n02504458_4226.png
subject-03,1,228,1.20158982276917,keyboard,oven,90,0228_rot_s03_90_oven_20_n04111531_10555.png
subject-03,1,229,1.28262090682983,knife,knife,180,0229_rot_s03_180_knife_20_n03041632_14293.png
subject-03,1,230,0.997262001037598,bottle,truck,90,0230_rot_s03_90_truck_20_n03796401_17673.png
subject-03,1,231,1.24963402748108,bird,bird,0,0231_rot_s03_0_bird_20_n01828970_7827.png
subject-03,1,232,1.24020218849182,knife,knife,90,0232_rot_s03_90_knife_20_n03041632_47410.png
subject-03,1,233,1.37660312652588,bird,oven,270,0233_rot_s03_270_oven_20_n04111531_19075.png
subject-03,1,234,NaN,na,chair,90,0234_rot_s03_90_chair_20_n04099969_20107.png
subject-03,1,235,1.1574010848999,dog,dog,90,0235_rot_s03_90_dog_20_n02105641_1779.png
subject-03,1,236,0.818071126937866,oven,boat,0,0236_rot_s03_0_boat_20_n02951358_4388.png
subject-03,1,237,0.900723934173584,keyboard,chair,90,0237_rot_s03_90_chair_20_n03376595_18370.png
subject-03,1,238,0.822715997695923,bottle,bicycle,270,0238_rot_s03_270_bicycle_20_n02835271_10425.png
subject-03,1,239,1.02744197845459,bird,cat,90,0239_rot_s03_90_cat_20_n02123159_1807.png
subject-03,1,240,1.42573404312134,dog,dog,180,0240_rot_s03_180_dog_20_n02109047_8181.png
subject-03,1,241,0.847842931747437,clock,clock,0,0241_rot_s03_0_clock_20_n04548280_5969.png
subject-03,1,242,1.18234610557556,knife,knife,90,0242_rot_s03_90_knife_20_n03041632_4037.png
subject-03,1,243,1.35896587371826,bicycle,bicycle,270,0243_rot_s03_270_bicycle_20_n03792782_22692.png
subject-03,1,244,0.973535060882568,airplane,airplane,90,0244_rot_s03_90_airplane_20_n02690373_2509.png
subject-03,1,245,1.29412007331848,bird,chair,90,0245_rot_s03_90_chair_20_n04099969_13609.png
subject-03,1,246,1.38449597358704,car,car,270,0246_rot_s03_270_car_20_n04285008_13292.png
subject-03,1,247,0.975090980529785,bottle,chair,180,0247_rot_s03_180_chair_20_n04429376_262.png
subject-03,1,248,0.819222927093506,boat,boat,0,0248_rot_s03_0_boat_20_n02951358_8194.png
subject-03,1,249,1.03922200202942,boat,boat,270,0249_rot_s03_270_boat_20_n03344393_3048.png
subject-03,1,250,1.4517719745636,bear,bear,90,0250_rot_s03_90_bear_20_n02133161_11002.png
subject-03,1,251,0.827691078186035,chair,chair,270,0251_rot_s03_270_chair_20_n02791124_3370.png
subject-03,1,252,1.04759383201599,bear,bear,270,0252_rot_s03_270_bear_20_n02134418_5319.png
subject-03,1,253,1.06791496276855,airplane,airplane,90,0253_rot_s03_90_airplane_20_n02690373_1235.png
subject-03,1,254,1.09644103050232,bird,boat,270,0254_rot_s03_270_boat_20_n02951358_33822.png
subject-03,1,255,1.31876587867737,boat,clock,90,0255_rot_s03_90_clock_20_n04548280_1325.png
subject-03,1,256,0.979651927947998,truck,truck,270,0256_rot_s03_270_truck_20_n04467665_46341.png
subject-03,1,257,0.978014945983887,dog,dog,270,0257_rot_s03_270_dog_20_n02100583_19904.png
subject-03,1,258,1.43637204170227,bird,airplane,180,0258_rot_s03_180_airplane_20_n02690373_5662.png
subject-03,1,259,1.50022602081299,keyboard,keyboard,270,0259_rot_s03_270_keyboard_20_n04505470_4016.png
subject-03,1,260,0.811465978622437,keyboard,keyboard,270,0260_rot_s03_270_keyboard_20_n04505470_7728.png
subject-03,1,261,0.763691902160645,oven,oven,0,0261_rot_s03_0_oven_20_n04111531_4375.png
subject-03,1,262,0.884512901306152,truck,truck,0,0262_rot_s03_0_truck_20_n04467665_375.png
subject-03,1,263,0.653090000152588,airplane,airplane,90,0263_rot_s03_90_airplane_20_n02690373_4895.png
subject-03,1,264,1.20324277877808,elephant,elephant,90,0264_rot_s03_90_elephant_20_n02504013_53.png
subject-03,1,265,1.05562210083008,cat,cat,270,0265_rot_s03_270_cat_20_n02123159_1359.png
subject-03,1,266,1.0079460144043,bottle,chair,90,0266_rot_s03_90_chair_20_n04429376_38355.png
subject-03,1,267,1.28236508369446,elephant,elephant,180,0267_rot_s03_180_elephant_20_n02504458_1473.png
subject-03,1,268,1.05668592453003,bicycle,bicycle,270,0268_rot_s03_270_bicycle_20_n03792782_12815.png
subject-03,1,269,1.20897889137268,dog,dog,0,0269_rot_s03_0_dog_20_n02104029_5940.png
subject-03,1,270,1.45919418334961,bird,dog,180,0270_rot_s03_180_dog_20_n02092002_9891.png
subject-03,1,271,1.15203714370728,clock,clock,90,0271_rot_s03_90_clock_20_n04548280_4364.png
subject-03,1,272,1.0644519329071,boat,boat,180,0272_rot_s03_180_boat_20_n03662601_23469.png
subject-03,1,273,1.15473389625549,clock,clock,0,0273_rot_s03_0_clock_20_n03196217_11435.png
subject-03,1,274,0.599560976028442,bottle,bottle,0,0274_rot_s03_0_bottle_20_n02823428_5994.png
subject-03,1,275,0.913326025009155,oven,clock,270,0275_rot_s03_270_clock_20_n02708093_6835.png
subject-03,1,276,0.926109075546265,truck,truck,180,0276_rot_s03_180_truck_20_n03796401_6977.png
subject-03,1,277,0.894462108612061,bicycle,bicycle,180,0277_rot_s03_180_bicycle_20_n02835271_21185.png
subject-03,1,278,0.863005876541138,car,car,0,0278_rot_s03_0_car_20_n04285008_10899.png
subject-03,1,279,0.813498973846436,clock,clock,270,0279_rot_s03_270_clock_20_n04548280_2584.png
subject-03,1,280,1.50034403800964,truck,chair,270,0280_rot_s03_270_chair_20_n02791124_5939.png
subject-03,1,281,1.08088397979736,knife,knife,90,0281_rot_s03_90_knife_20_n03041632_362.png
subject-03,1,282,0.909427881240845,bottle,truck,270,0282_rot_s03_270_truck_20_n03417042_26843.png
subject-03,1,283,0.962078809738159,car,car,270,0283_rot_s03_270_car_20_n02814533_45210.png
subject-03,1,284,1.09072804450989,bird,oven,180,0284_rot_s03_180_oven_20_n04111531_5828.png
subject-03,1,285,1.48723101615906,cat,bird,270,0285_rot_s03_270_bird_20_n01616318_3247.png
subject-03,1,286,0.909527063369751,bird,chair,180,0286_rot_s03_180_chair_20_n02791124_7630.png
subject-03,1,287,0.807467937469482,cat,cat,270,0287_rot_s03_270_cat_20_n02123045_8630.png
subject-03,1,288,0.735814809799194,bottle,bottle,90,0288_rot_s03_90_bottle_20_n04591713_3842.png
subject-03,1,289,1.17207002639771,bird,truck,180,0289_rot_s03_180_truck_20_n03796401_6737.png
subject-03,1,290,0.862446069717407,bird,bird,0,0290_rot_s03_0_bird_20_n02002556_1384.png
subject-03,1,291,1.08306002616882,car,car,270,0291_rot_s03_270_car_20_n02814533_81455.png
subject-03,1,292,0.859354019165039,cat,oven,90,0292_rot_s03_90_oven_20_n04111531_21208.png
subject-03,1,293,1.07191610336304,airplane,boat,180,0293_rot_s03_180_boat_20_n03662601_29691.png
subject-03,1,294,1.24626493453979,cat,knife,180,0294_rot_s03_180_knife_20_n03041632_17100.png
subject-03,1,295,1.48297309875488,dog,bear,180,0295_rot_s03_180_bear_20_n02134084_7274.png
subject-03,1,296,1.05121612548828,truck,truck,180,0296_rot_s03_180_truck_20_n03417042_3586.png
subject-03,1,297,0.987819910049438,bird,elephant,90,0297_rot_s03_90_elephant_20_n02504458_3399.png
subject-03,1,298,NaN,na,keyboard,0,0298_rot_s03_0_keyboard_20_n04505470_1417.png
subject-03,1,299,1.13681602478027,truck,truck,180,0299_rot_s03_180_truck_20_n03796401_10208.png
subject-03,1,300,1.15126895904541,bird,bear,270,0300_rot_s03_270_bear_20_n02133161_6448.png
subject-03,1,301,0.771090984344482,boat,boat,270,0301_rot_s03_270_boat_20_n04612504_13987.png
subject-03,1,302,0.701879024505615,car,car,180,0302_rot_s03_180_car_20_n02814533_12925.png
subject-03,1,303,NaN,na,bottle,90,0303_rot_s03_90_bottle_20_n04560804_1557.png
subject-03,1,304,NaN,na,oven,90,0304_rot_s03_90_oven_20_n04111531_2752.png
subject-03,1,305,1.0710289478302,car,car,0,0305_rot_s03_0_car_20_n02814533_34993.png
subject-03,1,306,0.861134052276611,bird,bird,90,0306_rot_s03_90_bird_20_n01558993_3076.png
subject-03,1,307,0.957251787185669,airplane,truck,270,0307_rot_s03_270_truck_20_n04467665_70694.png
subject-03,1,308,0.872560024261475,chair,chair,270,0308_rot_s03_270_chair_20_n03376595_3676.png
subject-03,1,309,0.99528980255127,keyboard,keyboard,90,0309_rot_s03_90_keyboard_20_n03085013_10056.png
subject-03,1,310,0.632483005523682,boat,boat,180,0310_rot_s03_180_boat_20_n04612504_28474.png
subject-03,1,311,0.793277978897095,keyboard,keyboard,180,0311_rot_s03_180_keyboard_20_n04505470_3207.png
subject-03,1,312,0.921061992645264,airplane,bird,90,0312_rot_s03_90_bird_20_n01855672_46018.png
subject-03,1,313,1.07979893684387,airplane,airplane,180,0313_rot_s03_180_airplane_20_n02690373_3100.png
subject-03,1,314,1.40832209587097,airplane,clock,90,0314_rot_s03_90_clock_20_n03196217_10384.png
subject-03,1,315,1.11477708816528,keyboard,keyboard,0,0315_rot_s03_0_keyboard_20_n03085013_23037.png
subject-03,1,316,1.03707718849182,airplane,airplane,0,0316_rot_s03_0_airplane_20_n02690373_6929.png
subject-03,1,317,1.45768618583679,oven,oven,180,0317_rot_s03_180_oven_20_n04111531_10711.png
subject-03,1,318,0.923755884170532,boat,boat,270,0318_rot_s03_270_boat_20_n04612504_17591.png
subject-03,1,319,0.851696968078613,airplane,airplane,90,0319_rot_s03_90_airplane_20_n02690373_6002.png
subject-03,1,320,1.34171104431152,knife,keyboard,0,0320_rot_s03_0_keyboard_20_n03085013_24332.png
subject-03,1,321,0.661027193069458,bottle,bottle,0,0321_rot_s03_0_bottle_20_n04557648_777.png
subject-03,1,322,1.0263409614563,car,car,0,0322_rot_s03_0_car_20_n02814533_85971.png
subject-03,1,323,0.875295162200928,dog,dog,90,0323_rot_s03_90_dog_20_n02087394_6382.png
subject-03,1,324,1.00126004219055,bird,dog,90,0324_rot_s03_90_dog_20_n02108915_4918.png
subject-03,1,325,1.04581189155579,cat,bear,180,0325_rot_s03_180_bear_20_n02133161_2166.png
subject-03,1,326,0.835719108581543,dog,keyboard,180,0326_rot_s03_180_keyboard_20_n03085013_22386.png
subject-03,1,327,1.30993890762329,oven,oven,0,0327_rot_s03_0_oven_20_n04111531_12510.png
subject-03,1,328,0.932069778442383,boat,bicycle,90,0328_rot_s03_90_bicycle_20_n03792782_33853.png
subject-03,1,329,1.13639998435974,bird,bird,0,0329_rot_s03_0_bird_20_n01824575_2685.png
subject-03,1,330,0.864572048187256,clock,clock,270,0330_rot_s03_270_clock_20_n03196217_1244.png
subject-03,1,331,0.924765110015869,bird,dog,90,0331_rot_s03_90_dog_20_n02097209_7607.png
subject-03,1,332,0.831093072891235,bottle,bottle,90,0332_rot_s03_90_bottle_20_n02823428_5972.png
subject-03,1,333,0.810114860534668,knife,knife,90,0333_rot_s03_90_knife_20_n03041632_40652.png
subject-03,1,334,1.04647302627563,airplane,airplane,0,0334_rot_s03_0_airplane_20_n02690373_18693.png
subject-03,1,335,0.966752052307129,oven,keyboard,90,0335_rot_s03_90_keyboard_20_n03085013_24182.png
subject-03,1,336,0.70525598526001,car,car,90,0336_rot_s03_90_car_20_n04285008_9040.png
subject-03,1,337,1.05584692955017,bottle,bottle,90,0337_rot_s03_90_bottle_20_n03937543_2918.png
subject-03,1,338,1.36008310317993,car,car,270,0338_rot_s03_270_car_20_n03100240_19550.png
subject-03,1,339,1.09599113464355,truck,truck,180,0339_rot_s03_180_truck_20_n03417042_22532.png
subject-03,1,340,1.01819705963135,bird,bicycle,270,0340_rot_s03_270_bicycle_20_n03792782_3696.png
subject-03,1,341,0.897958993911743,chair,chair,90,0341_rot_s03_90_chair_20_n04099969_2561.png
subject-03,1,342,1.26672101020813,bird,dog,90,0342_rot_s03_90_dog_20_n02097130_5178.png
subject-03,1,343,0.925000905990601,car,car,270,0343_rot_s03_270_car_20_n03100240_6259.png
subject-03,1,344,0.961443901062012,truck,truck,270,0344_rot_s03_270_truck_20_n03796401_3910.png
subject-03,1,345,0.90554404258728,car,car,90,0345_rot_s03_90_car_20_n04285008_3038.png
subject-03,1,346,0.971840858459473,bird,bird,180,0346_rot_s03_180_bird_20_n01614925_30374.png
subject-03,1,347,1.11236715316772,keyboard,keyboard,0,0347_rot_s03_0_keyboard_20_n04505470_3981.png
subject-03,1,348,0.788451910018921,boat,boat,90,0348_rot_s03_90_boat_20_n03662601_873.png
subject-03,1,349,1.44480586051941,bird,dog,180,0349_rot_s03_180_dog_20_n02093647_1903.png
subject-03,1,350,1.24331307411194,dog,cat,270,0350_rot_s03_270_cat_20_n02123159_6932.png
subject-03,1,351,NaN,na,knife,270,0351_rot_s03_270_knife_20_n03041632_27022.png
subject-03,1,352,1.04795718193054,bottle,bottle,270,0352_rot_s03_270_bottle_20_n04557648_2506.png
subject-03,1,353,0.760428190231323,bottle,bottle,0,0353_rot_s03_0_bottle_20_n03983396_9347.png
subject-03,1,354,0.934916973114014,truck,oven,270,0354_rot_s03_270_oven_20_n04111531_1391.png
subject-03,1,355,1.1794228553772,car,truck,270,0355_rot_s03_270_truck_20_n03796401_5227.png
subject-03,1,356,1.10781502723694,airplane,airplane,270,0356_rot_s03_270_airplane_20_n02690373_21731.png
subject-03,1,357,0.906486988067627,chair,chair,90,0357_rot_s03_90_chair_20_n04099969_2354.png
subject-03,1,358,0.812842130661011,airplane,airplane,90,0358_rot_s03_90_airplane_20_n02690373_2800.png
subject-03,1,359,1.13290119171143,dog,dog,0,0359_rot_s03_0_dog_20_n02094114_6217.png
subject-03,1,360,0.976784944534302,airplane,airplane,180,0360_rot_s03_180_airplane_20_n02690373_10061.png
subject-03,1,361,1.15723395347595,truck,truck,90,0361_rot_s03_90_truck_20_n04467665_37152.png
subject-03,1,362,1.36783909797668,elephant,elephant,90,0362_rot_s03_90_elephant_20_n02504013_6431.png
subject-03,1,363,1.31793403625488,elephant,elephant,0,0363_rot_s03_0_elephant_20_n02504013_5839.png
subject-03,1,364,0.969982147216797,chair,chair,90,0364_rot_s03_90_chair_20_n04429376_21424.png
subject-03,1,365,1.05262303352356,bicycle,bicycle,0,0365_rot_s03_0_bicycle_20_n03792782_32272.png
subject-03,1,366,1.18084812164307,bicycle,bicycle,270,0366_rot_s03_270_bicycle_20_n02835271_19019.png
subject-03,1,367,1.10938286781311,truck,truck,0,0367_rot_s03_0_truck_20_n03796401_7778.png
subject-03,1,368,1.02969312667847,car,car,0,0368_rot_s03_0_car_20_n02814533_20390.png
subject-03,1,369,0.928323984146118,dog,bear,0,0369_rot_s03_0_bear_20_n02134084_18955.png
subject-03,1,370,1.11022996902466,bicycle,chair,180,0370_rot_s03_180_chair_20_n04099969_10667.png
subject-03,1,371,0.678835868835449,cat,cat,180,0371_rot_s03_180_cat_20_n02124075_9500.png
subject-03,1,372,1.02893400192261,elephant,elephant,90,0372_rot_s03_90_elephant_20_n02504458_7070.png
subject-03,1,373,0.901973962783813,bird,bear,90,0373_rot_s03_90_bear_20_n02132136_3343.png
subject-03,1,374,1.37645792961121,dog,cat,180,0374_rot_s03_180_cat_20_n02123394_1380.png
subject-03,1,375,1.45719695091248,cat,knife,0,0375_rot_s03_0_knife_20_n03041632_3781.png
subject-03,1,376,0.795686006546021,elephant,elephant,0,0376_rot_s03_0_elephant_20_n02504013_4038.png
subject-03,1,377,0.594012022018433,cat,cat,0,0377_rot_s03_0_cat_20_n02123159_568.png
subject-03,1,378,1.34404683113098,boat,boat,270,0378_rot_s03_270_boat_20_n04612504_25501.png
subject-03,1,379,1.50043416023254,bottle,bottle,0,0379_rot_s03_0_bottle_20_n04560804_15683.png
subject-03,1,380,1.26072001457214,bird,bird,180,0380_rot_s03_180_bird_20_n01532829_246.png
subject-03,1,381,1.237389087677,truck,truck,90,0381_rot_s03_90_truck_20_n03796401_5669.png
subject-03,1,382,1.03365206718445,bird,knife,270,0382_rot_s03_270_knife_20_n03041632_14546.png
subject-03,1,383,1.08581805229187,bottle,bottle,180,0383_rot_s03_180_bottle_20_n03983396_14917.png
subject-03,1,384,1.05224585533142,car,car,270,0384_rot_s03_270_car_20_n04285008_7776.png
subject-03,1,385,1.50022792816162,boat,airplane,180,0385_rot_s03_180_airplane_20_n02690373_17307.png
subject-03,1,386,1.36339092254639,bottle,bottle,270,0386_rot_s03_270_bottle_20_n02823428_5850.png
subject-03,1,387,1.29152989387512,keyboard,keyboard,0,0387_rot_s03_0_keyboard_20_n04505470_6814.png
subject-03,1,388,1.08217692375183,boat,boat,270,0388_rot_s03_270_boat_20_n04612504_392.png
subject-03,1,389,1.2866108417511,bottle,boat,0,0389_rot_s03_0_boat_20_n03662601_23903.png
subject-03,1,390,1.29271292686462,bicycle,bicycle,270,0390_rot_s03_270_bicycle_20_n02835271_13919.png
subject-03,1,391,0.996992111206055,keyboard,keyboard,0,0391_rot_s03_0_keyboard_20_n03085013_6038.png
subject-03,1,392,1.36341190338135,bird,knife,180,0392_rot_s03_180_knife_20_n03041632_32048.png
subject-03,1,393,1.31954598426819,bear,bear,0,0393_rot_s03_0_bear_20_n02132136_8090.png
subject-03,1,394,1.41600203514099,bicycle,bicycle,0,0394_rot_s03_0_bicycle_20_n02835271_23286.png
subject-03,1,395,1.28258514404297,car,car,90,0395_rot_s03_90_car_20_n03100240_3408.png
subject-03,1,396,1.44313621520996,airplane,airplane,270,0396_rot_s03_270_airplane_20_n02690373_8461.png
subject-03,1,397,NaN,na,clock,180,0397_rot_s03_180_clock_20_n02708093_1675.png
subject-03,1,398,1.50001788139343,airplane,airplane,270,0398_rot_s03_270_airplane_20_n02690373_3729.png
subject-03,1,399,1.13638997077942,bottle,chair,180,0399_rot_s03_180_chair_20_n02791124_7759.png
subject-03,1,400,1.46228289604187,bicycle,bicycle,270,0400_rot_s03_270_bicycle_20_n02835271_14544.png
subject-03,1,401,1.20087504386902,airplane,airplane,90,0401_rot_s03_90_airplane_20_n02690373_1083.png
subject-03,1,402,NaN,na,clock,270,0402_rot_s03_270_clock_20_n02708093_2806.png
subject-03,1,403,NaN,na,cat,270,0403_rot_s03_270_cat_20_n02123045_7780.png
subject-03,1,404,0.609236001968384,clock,clock,270,0404_rot_s03_270_clock_20_n03196217_3136.png
subject-03,1,405,0.721172094345093,car,car,0,0405_rot_s03_0_car_20_n04285008_1193.png
subject-03,1,406,1.1795392036438,bird,bear,0,0406_rot_s03_0_bear_20_n02134418_3964.png
subject-03,1,407,0.700023889541626,cat,cat,270,0407_rot_s03_270_cat_20_n02123159_1042.png
subject-03,1,408,1.37442708015442,car,truck,180,0408_rot_s03_180_truck_20_n04467665_21266.png
subject-03,1,409,1.18673086166382,bottle,car,270,0409_rot_s03_270_car_20_n02814533_39392.png
subject-03,1,410,1.1465539932251,bird,clock,270,0410_rot_s03_270_clock_20_n04548280_8266.png
subject-03,1,411,0.858302116394043,clock,clock,90,0411_rot_s03_90_clock_20_n04548280_3341.png
subject-03,1,412,1.27081990242004,cat,elephant,270,0412_rot_s03_270_elephant_20_n02504013_7175.png
subject-03,1,413,0.831237077713013,keyboard,keyboard,180,0413_rot_s03_180_keyboard_20_n03085013_21161.png
subject-03,1,414,1.50035881996155,bear,bear,270,0414_rot_s03_270_bear_20_n02134084_17296.png
subject-03,1,415,1.50021195411682,oven,bird,90,0415_rot_s03_90_bird_20_n01817953_8925.png
subject-03,1,416,0.732715129852295,cat,cat,90,0416_rot_s03_90_cat_20_n02124075_7691.png
subject-03,1,417,0.999155044555664,chair,chair,180,0417_rot_s03_180_chair_20_n04099969_26499.png
subject-03,1,418,0.919471979141235,cat,cat,90,0418_rot_s03_90_cat_20_n02124075_4927.png
subject-03,1,419,NaN,na,dog,270,0419_rot_s03_270_dog_20_n02107683_2172.png
subject-03,1,420,0.884403944015503,keyboard,keyboard,270,0420_rot_s03_270_keyboard_20_n04505470_1217.png
subject-03,1,421,1.22671318054199,clock,clock,90,0421_rot_s03_90_clock_20_n04548280_2588.png
subject-03,1,422,1.45506596565247,dog,dog,0,0422_rot_s03_0_dog_20_n02093859_104.png
subject-03,1,423,1.50025701522827,bear,elephant,90,0423_rot_s03_90_elephant_20_n02504013_5734.png
subject-03,1,424,0.818360090255737,bicycle,bicycle,0,0424_rot_s03_0_bicycle_20_n03792782_16034.png
subject-03,1,425,0.968058109283447,bird,oven,0,0425_rot_s03_0_oven_20_n04111531_5533.png
subject-03,1,426,0.742297887802124,clock,clock,270,0426_rot_s03_270_clock_20_n03196217_6163.png
subject-03,1,427,1.16277503967285,boat,boat,270,0427_rot_s03_270_boat_20_n04273569_5371.png
subject-03,1,428,1.50010299682617,truck,truck,0,0428_rot_s03_0_truck_20_n03417042_4520.png
subject-03,1,429,1.01172208786011,bird,knife,90,0429_rot_s03_90_knife_20_n03041632_102764.png
subject-03,1,430,1.28659510612488,bird,bicycle,90,0430_rot_s03_90_bicycle_20_n03792782_19040.png
subject-03,1,431,1.16914892196655,bird,bird,0,0431_rot_s03_0_bird_20_n01819313_5525.png
subject-03,1,432,0.88280200958252,bird,bird,180,0432_rot_s03_180_bird_20_n02051845_11278.png
subject-03,1,433,0.887111902236938,car,car,270,0433_rot_s03_270_car_20_n02814533_8446.png
subject-03,1,434,1.11541891098022,cat,bear,0,0434_rot_s03_0_bear_20_n02133161_1872.png
subject-03,1,435,0.843661069869995,bird,bird,270,0435_rot_s03_270_bird_20_n02013706_5779.png
subject-03,1,436,1.3405749797821,bear,elephant,180,0436_rot_s03_180_elephant_20_n02504013_632.png
subject-03,1,437,1.04698419570923,bottle,bottle,0,0437_rot_s03_0_bottle_20_n03937543_1827.png
subject-03,1,438,1.49726295471191,bird,bird,270,0438_rot_s03_270_bird_20_n01798484_14197.png
subject-03,1,439,1.01935195922852,car,car,0,0439_rot_s03_0_car_20_n04285008_12957.png
subject-03,1,440,0.947762966156006,cat,cat,270,0440_rot_s03_270_cat_20_n02123045_7293.png
subject-03,1,441,1.31401491165161,bird,oven,180,0441_rot_s03_180_oven_20_n04111531_3121.png
subject-03,1,442,0.69054102897644,cat,dog,90,0442_rot_s03_90_dog_20_n02097474_17906.png
subject-03,1,443,1.12521886825562,bird,bird,0,0443_rot_s03_0_bird_20_n01537544_18762.png
subject-03,1,444,NaN,na,chair,270,0444_rot_s03_270_chair_20_n04099969_31959.png
subject-03,1,445,0.726759910583496,cat,cat,90,0445_rot_s03_90_cat_20_n02123045_5597.png
subject-03,1,446,0.938946008682251,bicycle,bicycle,90,0446_rot_s03_90_bicycle_20_n03792782_71025.png
subject-03,1,447,0.989632129669189,car,car,180,0447_rot_s03_180_car_20_n04285008_6440.png
subject-03,1,448,0.873792886734009,airplane,airplane,270,0448_rot_s03_270_airplane_20_n02690373_2408.png
subject-03,1,449,1.14019203186035,clock,clock,0,0449_rot_s03_0_clock_20_n02708093_8340.png
subject-03,1,450,0.836463928222656,cat,cat,180,0450_rot_s03_180_cat_20_n02124075_11466.png
subject-03,1,451,0.864979028701782,car,car,90,0451_rot_s03_90_car_20_n04285008_2977.png
subject-03,1,452,0.817294120788574,cat,elephant,90,0452_rot_s03_90_elephant_20_n02504458_8644.png
subject-03,1,453,1.09962201118469,truck,truck,90,0453_rot_s03_90_truck_20_n03417042_9377.png
subject-03,1,454,1.27417397499084,truck,car,180,0454_rot_s03_180_car_20_n03100240_13929.png
subject-03,1,455,0.910095930099487,truck,truck,270,0455_rot_s03_270_truck_20_n03417042_5234.png
subject-03,1,456,0.722026824951172,cat,bear,270,0456_rot_s03_270_bear_20_n02134084_16875.png
subject-03,1,457,0.912671089172363,cat,oven,270,0457_rot_s03_270_oven_20_n04111531_5549.png
subject-03,1,458,1.20900893211365,bird,bicycle,270,0458_rot_s03_270_bicycle_20_n02835271_9633.png
subject-03,1,459,0.777590036392212,keyboard,keyboard,0,0459_rot_s03_0_keyboard_20_n03085013_22665.png
subject-03,1,460,1.30422616004944,car,car,0,0460_rot_s03_0_car_20_n04285008_7566.png
subject-03,1,461,1.34069991111755,dog,dog,270,0461_rot_s03_270_dog_20_n02085936_500.png
subject-03,1,462,NaN,na,bicycle,180,0462_rot_s03_180_bicycle_20_n02835271_14628.png
subject-03,1,463,NaN,na,cat,270,0463_rot_s03_270_cat_20_n02123394_518.png
subject-03,1,464,0.96573805809021,airplane,airplane,180,0464_rot_s03_180_airplane_20_n02690373_2324.png
subject-03,1,465,NaN,na,airplane,270,0465_rot_s03_270_airplane_20_n02690373_10285.png
subject-03,1,466,1.05243492126465,cat,bear,180,0466_rot_s03_180_bear_20_n02133161_9600.png
subject-03,1,467,1.38708209991455,clock,knife,180,0467_rot_s03_180_knife_20_n03041632_2184.png
subject-03,1,468,1.30695509910583,knife,knife,270,0468_rot_s03_270_knife_20_n03041632_22241.png
subject-03,1,469,1.1138551235199,bird,cat,180,0469_rot_s03_180_cat_20_n02123597_11289.png
subject-03,1,470,0.850162982940674,clock,clock,0,0470_rot_s03_0_clock_20_n02708093_7060.png
subject-03,1,471,0.986861944198608,truck,truck,0,0471_rot_s03_0_truck_20_n04467665_11851.png
subject-03,1,472,1.0469810962677,car,car,90,0472_rot_s03_90_car_20_n04285008_3688.png
subject-03,1,473,1.39719200134277,bicycle,bicycle,180,0473_rot_s03_180_bicycle_20_n02835271_15925.png
subject-03,1,474,0.779703140258789,bicycle,bicycle,0,0474_rot_s03_0_bicycle_20_n03792782_31646.png
subject-03,1,475,0.878489971160889,bottle,bottle,180,0475_rot_s03_180_bottle_20_n02823428_4267.png
subject-03,1,476,0.828843832015991,bottle,chair,180,0476_rot_s03_180_chair_20_n02791124_979.png
subject-03,1,477,1.15734314918518,chair,chair,180,0477_rot_s03_180_chair_20_n04099969_20681.png
subject-03,1,478,1.27775192260742,chair,keyboard,180,0478_rot_s03_180_keyboard_20_n03085013_3595.png
subject-03,1,479,1.30022311210632,keyboard,keyboard,0,0479_rot_s03_0_keyboard_20_n04505470_989.png
subject-03,1,480,1.32081007957458,bird,bird,90,0480_rot_s03_90_bird_20_n01531178_8982.png
subject-03,1,481,0.611392974853516,clock,clock,0,0481_rot_s03_0_clock_20_n02708093_6664.png
subject-03,1,482,1.32402682304382,dog,dog,0,0482_rot_s03_0_dog_20_n02111500_8189.png
subject-03,1,483,1.04386210441589,elephant,elephant,0,0483_rot_s03_0_elephant_20_n02504013_8215.png
subject-03,1,484,1.47233986854553,truck,truck,0,0484_rot_s03_0_truck_20_n03417042_5371.png
subject-03,1,485,1.41703486442566,dog,cat,0,0485_rot_s03_0_cat_20_n02125311_43078.png
subject-03,1,486,NaN,na,knife,90,0486_rot_s03_90_knife_20_n03041632_21818.png
subject-03,1,487,1.03576707839966,bicycle,bicycle,90,0487_rot_s03_90_bicycle_20_n02835271_1311.png
subject-03,1,488,0.910604953765869,bottle,chair,180,0488_rot_s03_180_chair_20_n04099969_416.png
subject-03,1,489,0.992810010910034,bottle,knife,180,0489_rot_s03_180_knife_20_n03041632_29338.png
subject-03,1,490,1.08368301391602,bottle,bottle,0,0490_rot_s03_0_bottle_20_n02823428_1232.png
subject-03,1,491,1.04120516777039,bicycle,bicycle,90,0491_rot_s03_90_bicycle_20_n02835271_8648.png
subject-03,1,492,1.06995296478271,bird,bear,90,0492_rot_s03_90_bear_20_n02133161_6917.png
subject-03,1,493,1.02771496772766,cat,cat,90,0493_rot_s03_90_cat_20_n02123394_5852.png
subject-03,1,494,0.680155038833618,bottle,bottle,0,0494_rot_s03_0_bottle_20_n03983396_9662.png
subject-03,1,495,0.774990081787109,clock,clock,90,0495_rot_s03_90_clock_20_n02708093_2622.png
subject-03,1,496,1.07944512367249,bird,bird,90,0496_rot_s03_90_bird_20_n02009912_197.png
subject-03,1,497,0.883800983428955,cat,cat,180,0497_rot_s03_180_cat_20_n02123394_8238.png
subject-03,1,498,0.811426877975464,keyboard,keyboard,0,0498_rot_s03_0_keyboard_20_n04505470_4369.png
subject-03,1,499,0.869863986968994,car,car,0,0499_rot_s03_0_car_20_n03100240_10175.png
subject-03,1,500,0.781844139099121,oven,oven,180,0500_rot_s03_180_oven_20_n04111531_10011.png
subject-03,1,501,1.12612414360046,bird,keyboard,90,0501_rot_s03_90_keyboard_20_n03085013_3812.png
subject-03,1,502,0.732571125030518,cat,bear,90,0502_rot_s03_90_bear_20_n02133161_7604.png
subject-03,1,503,0.950935840606689,keyboard,keyboard,0,0503_rot_s03_0_keyboard_20_n04505470_1744.png
subject-03,1,504,0.986960172653198,keyboard,keyboard,90,0504_rot_s03_90_keyboard_20_n04505470_5121.png
subject-03,1,505,0.785372972488403,clock,clock,180,0505_rot_s03_180_clock_20_n03196217_2076.png
subject-03,1,506,0.911126852035522,keyboard,keyboard,180,0506_rot_s03_180_keyboard_20_n04505470_10211.png
subject-03,1,507,0.84785008430481,clock,clock,0,0507_rot_s03_0_clock_20_n02708093_7475.png
subject-03,1,508,1.15227293968201,bird,chair,90,0508_rot_s03_90_chair_20_n02791124_3335.png
subject-03,1,509,0.766853094100952,boat,airplane,0,0509_rot_s03_0_airplane_20_n02690373_3119.png
subject-03,1,510,1.08713293075562,keyboard,keyboard,180,0510_rot_s03_180_keyboard_20_n03085013_6834.png
subject-03,1,511,1.14553785324097,bird,bird,90,0511_rot_s03_90_bird_20_n01817953_13390.png
subject-03,1,512,1.441654920578,bird,bird,270,0512_rot_s03_270_bird_20_n01818515_7717.png
subject-03,1,513,1.31059002876282,cat,cat,0,0513_rot_s03_0_cat_20_n02124075_3593.png
subject-03,1,514,0.816941022872925,bird,bird,180,0514_rot_s03_180_bird_20_n02028035_5864.png
subject-03,1,515,1.09720706939697,bottle,chair,270,0515_rot_s03_270_chair_20_n04429376_21456.png
subject-03,1,516,0.857665061950684,bicycle,bicycle,0,0516_rot_s03_0_bicycle_20_n03792782_6876.png
subject-03,1,517,1.38402915000916,bird,bottle,90,0517_rot_s03_90_bottle_20_n04591713_4768.png
subject-03,1,518,0.836616992950439,bottle,bottle,0,0518_rot_s03_0_bottle_20_n04557648_11847.png
subject-03,1,519,1.07311797142029,knife,knife,90,0519_rot_s03_90_knife_20_n03041632_12748.png
subject-03,1,520,1.29340696334839,cat,cat,90,0520_rot_s03_90_cat_20_n02123394_646.png
subject-03,1,521,1.1900589466095,truck,truck,0,0521_rot_s03_0_truck_20_n04467665_67165.png
subject-03,1,522,1.11058211326599,keyboard,keyboard,0,0522_rot_s03_0_keyboard_20_n03085013_2594.png
subject-03,1,523,0.916576862335205,bottle,bottle,270,0523_rot_s03_270_bottle_20_n04591713_8632.png
subject-03,1,524,1.48874402046204,bird,chair,270,0524_rot_s03_270_chair_20_n02791124_7553.png
subject-03,1,525,0.835318088531494,chair,chair,270,0525_rot_s03_270_chair_20_n04099969_1825.png
subject-03,1,526,0.969325065612793,bicycle,bicycle,90,0526_rot_s03_90_bicycle_20_n02835271_16580.png
subject-03,1,527,1.43583106994629,truck,keyboard,270,0527_rot_s03_270_keyboard_20_n03085013_24649.png
subject-03,1,528,1.25633788108826,car,car,270,0528_rot_s03_270_car_20_n03100240_11544.png
subject-03,1,529,1.09709405899048,elephant,elephant,270,0529_rot_s03_270_elephant_20_n02504458_13245.png
subject-03,1,530,1.05567598342896,bottle,bottle,90,0530_rot_s03_90_bottle_20_n02823428_1733.png
subject-03,1,531,1.32430601119995,bear,bear,90,0531_rot_s03_90_bear_20_n02133161_3439.png
subject-03,1,532,NaN,na,dog,0,0532_rot_s03_0_dog_20_n02092339_5354.png
subject-03,1,533,0.764979839324951,airplane,airplane,180,0533_rot_s03_180_airplane_20_n02690373_2316.png
subject-03,1,534,0.763298988342285,truck,truck,90,0534_rot_s03_90_truck_20_n03417042_7505.png
subject-03,1,535,0.975822925567627,elephant,elephant,270,0535_rot_s03_270_elephant_20_n02504013_9618.png
subject-03,1,536,0.812555074691772,car,car,90,0536_rot_s03_90_car_20_n03100240_2331.png
subject-03,1,537,1.4383749961853,cat,cat,180,0537_rot_s03_180_cat_20_n02123045_1662.png
subject-03,1,538,NaN,na,elephant,180,0538_rot_s03_180_elephant_20_n02504458_11933.png
subject-03,1,539,1.3433051109314,bird,bottle,270,0539_rot_s03_270_bottle_20_n04560804_11675.png
subject-03,1,540,0.863847970962524,bicycle,knife,90,0540_rot_s03_90_knife_20_n03041632_9256.png
subject-03,1,541,0.892338037490845,truck,truck,180,0541_rot_s03_180_truck_20_n03417042_9238.png
subject-03,1,542,1.11248803138733,clock,clock,0,0542_rot_s03_0_clock_20_n02708093_7122.png
subject-03,1,543,1.30910992622375,bird,bird,270,0543_rot_s03_270_bird_20_n01592084_73.png
subject-03,1,544,1.02339100837708,keyboard,clock,0,0544_rot_s03_0_clock_20_n03196217_7149.png
subject-03,1,545,0.957903861999512,cat,bear,180,0545_rot_s03_180_bear_20_n02134418_1702.png
subject-03,1,546,1.21625399589539,bird,cat,180,0546_rot_s03_180_cat_20_n02123045_9486.png
subject-03,1,547,1.04693388938904,bird,bird,0,0547_rot_s03_0_bird_20_n01855672_29565.png
subject-03,1,548,1.13533401489258,cat,oven,180,0548_rot_s03_180_oven_20_n04111531_30110.png
subject-03,1,549,1.47757911682129,bird,boat,180,0549_rot_s03_180_boat_20_n04273569_18077.png
subject-03,1,550,NaN,na,bottle,180,0550_rot_s03_180_bottle_20_n02823428_11241.png
subject-03,1,551,1.16610598564148,boat,boat,0,0551_rot_s03_0_boat_20_n03344393_1147.png
subject-03,1,552,1.30052208900452,bottle,bottle,180,0552_rot_s03_180_bottle_20_n02823428_3715.png
subject-03,1,553,1.34526205062866,dog,dog,270,0553_rot_s03_270_dog_20_n02094114_3100.png
subject-03,1,554,0.913625001907349,knife,knife,270,0554_rot_s03_270_knife_20_n03041632_965.png
subject-03,1,555,1.48593091964722,dog,bear,0,0555_rot_s03_0_bear_20_n02133161_10.png
subject-03,1,556,1.38480997085571,bottle,bicycle,270,0556_rot_s03_270_bicycle_20_n03792782_2024.png
subject-03,1,557,1.2669517993927,truck,truck,180,0557_rot_s03_180_truck_20_n03796401_21407.png
subject-03,1,558,0.994663000106812,truck,truck,0,0558_rot_s03_0_truck_20_n04467665_22697.png
subject-03,1,559,1.01203799247742,airplane,airplane,0,0559_rot_s03_0_airplane_20_n02690373_3362.png
subject-03,1,560,1.06247591972351,clock,clock,180,0560_rot_s03_180_clock_20_n04548280_5011.png
subject-03,1,561,1.13704490661621,dog,dog,180,0561_rot_s03_180_dog_20_n02097047_3544.png
subject-03,1,562,1.29554486274719,bird,oven,270,0562_rot_s03_270_oven_20_n04111531_6128.png
subject-03,1,563,1.48573780059814,bear,elephant,90,0563_rot_s03_90_elephant_20_n02504458_847.png
subject-03,1,564,0.84384298324585,chair,chair,180,0564_rot_s03_180_chair_20_n04099969_16079.png
subject-03,1,565,1.23176193237305,chair,chair,0,0565_rot_s03_0_chair_20_n04099969_15645.png
subject-03,1,566,1.28465509414673,oven,truck,90,0566_rot_s03_90_truck_20_n03417042_5699.png
subject-03,1,567,1.06688213348389,boat,boat,90,0567_rot_s03_90_boat_20_n03662601_22266.png
subject-03,1,568,1.01742887496948,keyboard,keyboard,270,0568_rot_s03_270_keyboard_20_n03085013_18968.png
subject-03,1,569,0.991732120513916,boat,boat,0,0569_rot_s03_0_boat_20_n03662601_7027.png
subject-03,1,570,NaN,na,oven,180,0570_rot_s03_180_oven_20_n04111531_18648.png
subject-03,1,571,0.993595123291016,cat,cat,90,0571_rot_s03_90_cat_20_n02123159_5321.png
subject-03,1,572,NaN,na,knife,270,0572_rot_s03_270_knife_20_n03041632_19098.png
subject-03,1,573,0.934596061706543,oven,oven,0,0573_rot_s03_0_oven_20_n04111531_409.png
subject-03,1,574,1.08495807647705,knife,knife,90,0574_rot_s03_90_knife_20_n03041632_29940.png
subject-03,1,575,0.913617849349976,elephant,elephant,180,0575_rot_s03_180_elephant_20_n02504013_2881.png
subject-03,1,576,1.19392395019531,bird,bird,180,0576_rot_s03_180_bird_20_n01817953_7011.png
subject-03,1,577,0.868523836135864,oven,chair,270,0577_rot_s03_270_chair_20_n02791124_3657.png
subject-03,1,578,0.882807970046997,cat,dog,0,0578_rot_s03_0_dog_20_n02088364_1864.png
subject-03,1,579,1.28765511512756,chair,chair,180,0579_rot_s03_180_chair_20_n04099969_8575.png
subject-03,1,580,1.28400683403015,airplane,boat,90,0580_rot_s03_90_boat_20_n04612504_470.png
subject-03,1,581,0.941426992416382,car,car,180,0581_rot_s03_180_car_20_n03100240_7517.png
subject-03,1,582,1.23777985572815,chair,chair,270,0582_rot_s03_270_chair_20_n04099969_8478.png
subject-03,1,583,1.11247301101685,elephant,elephant,180,0583_rot_s03_180_elephant_20_n02504458_3777.png
subject-03,1,584,1.50024700164795,cat,elephant,270,0584_rot_s03_270_elephant_20_n02504458_1323.png
subject-03,1,585,1.34513592720032,chair,clock,90,0585_rot_s03_90_clock_20_n04548280_1417.png
subject-03,1,586,0.849170923233032,bottle,bottle,0,0586_rot_s03_0_bottle_20_n04560804_28441.png
subject-03,1,587,1.39179801940918,bird,bear,180,0587_rot_s03_180_bear_20_n02133161_2895.png
subject-03,1,588,0.66029691696167,cat,cat,270,0588_rot_s03_270_cat_20_n02123597_8490.png
subject-03,1,589,0.988908052444458,bird,boat,180,0589_rot_s03_180_boat_20_n02951358_3464.png
subject-03,1,590,1.36905598640442,bird,bird,90,0590_rot_s03_90_bird_20_n01601694_10503.png
subject-03,1,591,0.797796010971069,airplane,airplane,180,0591_rot_s03_180_airplane_20_n02690373_3553.png
subject-03,1,592,0.696218013763428,chair,chair,0,0592_rot_s03_0_chair_20_n03376595_7009.png
subject-03,1,593,0.784780979156494,clock,clock,270,0593_rot_s03_270_clock_20_n02708093_4783.png
subject-03,1,594,0.897208213806152,bird,bird,90,0594_rot_s03_90_bird_20_n02018795_3704.png
subject-03,1,595,NaN,na,bottle,270,0595_rot_s03_270_bottle_20_n04579145_2182.png
subject-03,1,596,1.46801114082336,bird,bear,270,0596_rot_s03_270_bear_20_n02134084_1802.png
subject-03,1,597,0.765851020812988,bottle,bottle,0,0597_rot_s03_0_bottle_20_n02823428_2717.png
subject-03,1,598,NaN,na,boat,0,0598_rot_s03_0_boat_20_n03344393_8482.png
subject-03,1,599,0.707158088684082,chair,chair,0,0599_rot_s03_0_chair_20_n04099969_25664.png
subject-03,1,600,0.949451923370361,elephant,elephant,270,0600_rot_s03_270_elephant_20_n02504013_9433.png
subject-03,1,601,1.3539891242981,dog,cat,90,0601_rot_s03_90_cat_20_n02123159_1530.png
subject-03,1,602,1.27466702461243,truck,truck,0,0602_rot_s03_0_truck_20_n03417042_5105.png
subject-03,1,603,1.05675292015076,oven,chair,180,0603_rot_s03_180_chair_20_n02791124_2833.png
subject-03,1,604,1.08286094665527,airplane,airplane,270,0604_rot_s03_270_airplane_20_n02690373_10012.png
subject-03,1,605,NaN,na,oven,90,0605_rot_s03_90_oven_20_n04111531_6508.png
subject-03,1,606,1.26921916007996,cat,cat,0,0606_rot_s03_0_cat_20_n02125311_23714.png
subject-03,1,607,1.31953692436218,bird,bird,270,0607_rot_s03_270_bird_20_n01819313_6276.png
subject-03,1,608,1.08606505393982,keyboard,oven,270,0608_rot_s03_270_oven_20_n04111531_523.png
subject-03,1,609,1.49828886985779,keyboard,keyboard,0,0609_rot_s03_0_keyboard_20_n03085013_5539.png
subject-03,1,610,1.50031495094299,truck,truck,90,0610_rot_s03_90_truck_20_n03417042_1245.png
subject-03,1,611,NaN,na,knife,270,0611_rot_s03_270_knife_20_n03041632_13225.png
subject-03,1,612,0.866699934005737,airplane,airplane,0,0612_rot_s03_0_airplane_20_n02690373_1171.png
subject-03,1,613,NaN,na,knife,0,0613_rot_s03_0_knife_20_n03041632_16104.png
subject-03,1,614,0.72134804725647,clock,clock,180,0614_rot_s03_180_clock_20_n04548280_2650.png
subject-03,1,615,1.39386987686157,oven,oven,0,0615_rot_s03_0_oven_20_n04111531_18949.png
subject-03,1,616,1.48227787017822,dog,bird,0,0616_rot_s03_0_bird_20_n02051845_8617.png
subject-03,1,617,1.05052804946899,oven,oven,90,0617_rot_s03_90_oven_20_n04111531_3886.png
subject-03,1,618,0.925020933151245,airplane,airplane,90,0618_rot_s03_90_airplane_20_n02690373_5029.png
subject-03,1,619,0.915380001068115,elephant,elephant,90,0619_rot_s03_90_elephant_20_n02504013_4924.png
subject-03,1,620,NaN,na,dog,270,0620_rot_s03_270_dog_20_n02113978_4745.png
subject-03,1,621,0.632447004318237,keyboard,keyboard,270,0621_rot_s03_270_keyboard_20_n03085013_24295.png
subject-03,1,622,1.04497909545898,bird,bicycle,180,0622_rot_s03_180_bicycle_20_n03792782_5602.png
subject-03,1,623,NaN,na,bear,270,0623_rot_s03_270_bear_20_n02133161_3979.png
subject-03,1,624,1.30806493759155,bird,bird,270,0624_rot_s03_270_bird_20_n01514859_842.png
subject-03,1,625,1.32870101928711,clock,clock,270,0625_rot_s03_270_clock_20_n03196217_2730.png
subject-03,1,626,1.07911205291748,bottle,chair,90,0626_rot_s03_90_chair_20_n04429376_14995.png
subject-03,1,627,1.26163911819458,dog,dog,270,0627_rot_s03_270_dog_20_n02108915_3733.png
subject-03,1,628,1.1577320098877,bird,airplane,180,0628_rot_s03_180_airplane_20_n02690373_2908.png
subject-03,1,629,1.04009389877319,bottle,bottle,90,0629_rot_s03_90_bottle_20_n04591713_277.png
subject-03,1,630,0.806118965148926,bicycle,bicycle,90,0630_rot_s03_90_bicycle_20_n02835271_7326.png
subject-03,1,631,0.925081968307495,bird,elephant,0,0631_rot_s03_0_elephant_20_n02504013_8834.png
subject-03,1,632,0.96080207824707,cat,dog,90,0632_rot_s03_90_dog_20_n02087394_8730.png
subject-03,1,633,0.805539131164551,bottle,bottle,180,0633_rot_s03_180_bottle_20_n04557648_7341.png
subject-03,1,634,0.95304799079895,bird,airplane,0,0634_rot_s03_0_airplane_20_n02690373_2068.png
subject-03,1,635,1.14139103889465,truck,truck,0,0635_rot_s03_0_truck_20_n04467665_52898.png
subject-03,1,636,1.06616687774658,bird,cat,180,0636_rot_s03_180_cat_20_n02123045_169.png
subject-03,1,637,1.50039291381836,truck,truck,270,0637_rot_s03_270_truck_20_n03417042_6780.png
subject-03,1,638,1.06923913955688,oven,keyboard,180,0638_rot_s03_180_keyboard_20_n04505470_3433.png
subject-03,1,639,1.25776219367981,elephant,bottle,90,0639_rot_s03_90_bottle_20_n04557648_5408.png
subject-03,1,640,1.12438583374023,bottle,bottle,180,0640_rot_s03_180_bottle_20_n04579145_5696.png
subject-03,1,641,0.850181102752686,boat,boat,0,0641_rot_s03_0_boat_20_n03662601_16673.png
subject-03,1,642,0.830198049545288,elephant,elephant,0,0642_rot_s03_0_elephant_20_n02504013_1733.png
subject-03,1,643,0.871519804000854,truck,truck,270,0643_rot_s03_270_truck_20_n03417042_8139.png
subject-03,1,644,0.930083990097046,oven,oven,0,0644_rot_s03_0_oven_20_n04111531_1362.png
subject-03,1,645,1.18254709243774,cat,cat,180,0645_rot_s03_180_cat_20_n02123159_2307.png
subject-03,1,646,0.895035982131958,bird,bird,0,0646_rot_s03_0_bird_20_n01824575_11383.png
subject-03,1,647,1.46736311912537,cat,cat,180,0647_rot_s03_180_cat_20_n02125311_2686.png
subject-03,1,648,0.641792058944702,car,car,180,0648_rot_s03_180_car_20_n03100240_7219.png
subject-03,1,649,1.13054990768433,bird,cat,270,0649_rot_s03_270_cat_20_n02123597_4443.png
subject-03,1,650,1.08278703689575,cat,bear,270,0650_rot_s03_270_bear_20_n02132136_17498.png
subject-03,1,651,1.37688207626343,cat,cat,0,0651_rot_s03_0_cat_20_n02123159_7720.png
subject-03,1,652,0.858964920043945,airplane,airplane,270,0652_rot_s03_270_airplane_20_n02690373_4728.png
subject-03,1,653,0.949290990829468,keyboard,keyboard,180,0653_rot_s03_180_keyboard_20_n03085013_19054.png
subject-03,1,654,1.22169399261475,oven,boat,90,0654_rot_s03_90_boat_20_n03662601_28424.png
subject-03,1,655,1.28020095825195,bird,dog,270,0655_rot_s03_270_dog_20_n02085936_9403.png
subject-03,1,656,1.10870313644409,bear,bear,180,0656_rot_s03_180_bear_20_n02134084_12428.png
subject-03,1,657,1.39706993103027,bicycle,bicycle,180,0657_rot_s03_180_bicycle_20_n02835271_8105.png
subject-03,1,658,0.749585866928101,bicycle,bicycle,0,0658_rot_s03_0_bicycle_20_n03792782_35554.png
subject-03,1,659,1.45198488235474,bear,bear,180,0659_rot_s03_180_bear_20_n02134084_6948.png
subject-03,1,660,1.19648814201355,airplane,boat,270,0660_rot_s03_270_boat_20_n02951358_33042.png
subject-03,1,661,1.23824501037598,elephant,elephant,270,0661_rot_s03_270_elephant_20_n02504458_3416.png
subject-03,1,662,0.890351057052612,bicycle,bicycle,180,0662_rot_s03_180_bicycle_20_n02835271_15564.png
subject-03,1,663,1.16352605819702,oven,truck,90,0663_rot_s03_90_truck_20_n04467665_11776.png
subject-03,1,664,NaN,na,clock,0,0664_rot_s03_0_clock_20_n04548280_1194.png
subject-03,1,665,1.10438799858093,knife,knife,270,0665_rot_s03_270_knife_20_n03041632_83826.png
subject-03,1,666,0.816678047180176,clock,clock,270,0666_rot_s03_270_clock_20_n03196217_6257.png
subject-03,1,667,NaN,na,bicycle,180,0667_rot_s03_180_bicycle_20_n02835271_8399.png
subject-03,1,668,NaN,na,knife,270,0668_rot_s03_270_knife_20_n03041632_10263.png
subject-03,1,669,1.03717613220215,dog,dog,0,0669_rot_s03_0_dog_20_n02107683_2083.png
subject-03,1,670,0.90357494354248,airplane,boat,180,0670_rot_s03_180_boat_20_n04273569_17217.png
subject-03,1,671,1.00000596046448,bird,boat,90,0671_rot_s03_90_boat_20_n03344393_12699.png
subject-03,1,672,1.00445199012756,bird,bird,90,0672_rot_s03_90_bird_20_n02051845_7297.png
subject-03,1,673,0.900537967681885,clock,clock,0,0673_rot_s03_0_clock_20_n04548280_8841.png
subject-03,1,674,0.761282920837402,boat,boat,270,0674_rot_s03_270_boat_20_n03662601_8406.png
subject-03,1,675,1.02578496932983,truck,truck,180,0675_rot_s03_180_truck_20_n03796401_6631.png
subject-03,1,676,0.878129005432129,oven,oven,90,0676_rot_s03_90_oven_20_n04111531_7064.png
subject-03,1,677,0.928608179092407,bird,bicycle,270,0677_rot_s03_270_bicycle_20_n02835271_44763.png
subject-03,1,678,1.43928098678589,cat,cat,0,0678_rot_s03_0_cat_20_n02125311_21010.png
subject-03,1,679,0.677871942520142,boat,boat,270,0679_rot_s03_270_boat_20_n04612504_2024.png
subject-03,1,680,0.974251985549927,oven,clock,0,0680_rot_s03_0_clock_20_n03196217_5258.png
subject-03,1,681,0.885916948318481,clock,clock,270,0681_rot_s03_270_clock_20_n04548280_4561.png
subject-03,1,682,1.21266889572144,bird,bird,90,0682_rot_s03_90_bird_20_n01796340_14833.png
subject-03,1,683,0.523869037628174,clock,clock,270,0683_rot_s03_270_clock_20_n04548280_896.png
subject-03,1,684,1.09037613868713,car,car,0,0684_rot_s03_0_car_20_n04285008_7055.png
subject-03,1,685,0.857083797454834,truck,truck,0,0685_rot_s03_0_truck_20_n03417042_12019.png
subject-03,1,686,NaN,na,elephant,180,0686_rot_s03_180_elephant_20_n02504458_4036.png
subject-03,1,687,0.83392596244812,bird,bear,0,0687_rot_s03_0_bear_20_n02134418_3900.png
subject-03,1,688,1.26011300086975,boat,chair,0,0688_rot_s03_0_chair_20_n02791124_4551.png
subject-03,1,689,0.820155143737793,airplane,airplane,0,0689_rot_s03_0_airplane_20_n02690373_6332.png
subject-03,1,690,1.20850801467896,bird,bear,180,0690_rot_s03_180_bear_20_n02134084_7180.png
subject-03,1,691,0.88837194442749,elephant,elephant,90,0691_rot_s03_90_elephant_20_n02504458_5827.png
subject-03,1,692,1.03047513961792,bottle,bottle,0,0692_rot_s03_0_bottle_20_n02823428_141.png
subject-03,1,693,1.22683000564575,cat,cat,0,0693_rot_s03_0_cat_20_n02123394_2179.png
subject-03,1,694,1.1846079826355,bird,bird,270,0694_rot_s03_270_bird_20_n01829413_7356.png
subject-03,1,695,1.09729313850403,airplane,airplane,90,0695_rot_s03_90_airplane_20_n02690373_8613.png
subject-03,1,696,0.741549015045166,bicycle,bicycle,0,0696_rot_s03_0_bicycle_20_n02835271_16768.png
subject-03,1,697,0.737741947174072,airplane,airplane,0,0697_rot_s03_0_airplane_20_n02690373_6999.png
subject-03,1,698,1.05013990402222,chair,chair,90,0698_rot_s03_90_chair_20_n04099969_2472.png
subject-03,1,699,0.901036024093628,cat,bear,90,0699_rot_s03_90_bear_20_n02132136_839.png
subject-03,1,700,1.16729593276978,bird,bird,180,0700_rot_s03_180_bird_20_n01537544_18389.png
subject-03,1,701,0.903594970703125,bicycle,bicycle,90,0701_rot_s03_90_bicycle_20_n02835271_1513.png
subject-03,1,702,1.45216512680054,chair,bird,180,0702_rot_s03_180_bird_20_n01616318_6155.png
subject-03,1,703,0.942958831787109,bird,bird,180,0703_rot_s03_180_bird_20_n02025239_3424.png
subject-03,1,704,1.1627471446991,knife,knife,90,0704_rot_s03_90_knife_20_n03041632_32337.png
subject-03,1,705,1.08903288841248,knife,knife,0,0705_rot_s03_0_knife_20_n03041632_18863.png
subject-03,1,706,0.87126898765564,bicycle,bicycle,0,0706_rot_s03_0_bicycle_20_n03792782_10267.png
subject-03,1,707,1.09746503829956,cat,cat,180,0707_rot_s03_180_cat_20_n02125311_37036.png
subject-03,1,708,0.83387279510498,airplane,airplane,90,0708_rot_s03_90_airplane_20_n02690373_798.png
subject-03,1,709,0.754320859909058,airplane,airplane,180,0709_rot_s03_180_airplane_20_n02690373_12896.png
subject-03,1,710,1.05067420005798,keyboard,keyboard,90,0710_rot_s03_90_keyboard_20_n04505470_3022.png
subject-03,1,711,0.878441095352173,knife,knife,270,0711_rot_s03_270_knife_20_n03041632_52371.png
subject-03,1,712,1.26403784751892,chair,chair,0,0712_rot_s03_0_chair_20_n02791124_1418.png
subject-03,1,713,0.692609071731567,clock,clock,90,0713_rot_s03_90_clock_20_n03196217_1355.png
subject-03,1,714,1.50002717971802,knife,knife,0,0714_rot_s03_0_knife_20_n03041632_32004.png
subject-03,1,715,1.50048184394836,bird,bird,90,0715_rot_s03_90_bird_20_n01855672_38663.png
subject-03,1,716,1.23394393920898,car,car,270,0716_rot_s03_270_car_20_n04285008_9811.png
subject-03,1,717,1.50037598609924,chair,truck,270,0717_rot_s03_270_truck_20_n04467665_68331.png
subject-03,1,718,0.801823139190674,knife,knife,0,0718_rot_s03_0_knife_20_n03041632_9671.png
subject-03,1,719,1.39803290367126,elephant,bear,180,0719_rot_s03_180_bear_20_n02134084_24208.png
subject-03,1,720,1.08621096611023,keyboard,keyboard,180,0720_rot_s03_180_keyboard_20_n03085013_21399.png
subject-03,1,721,NaN,na,bear,270,0721_rot_s03_270_bear_20_n02134084_2119.png
subject-03,1,722,0.826763153076172,keyboard,keyboard,270,0722_rot_s03_270_keyboard_20_n03085013_14643.png
subject-03,1,723,NaN,na,bottle,270,0723_rot_s03_270_bottle_20_n03937543_3619.png
subject-03,1,724,1.31954598426819,bicycle,bicycle,270,0724_rot_s03_270_bicycle_20_n02835271_7737.png
subject-03,1,725,1.16351819038391,car,car,0,0725_rot_s03_0_car_20_n02814533_19025.png
subject-03,1,726,NaN,na,dog,0,0726_rot_s03_0_dog_20_n02110185_2143.png
subject-03,1,727,NaN,na,bird,0,0727_rot_s03_0_bird_20_n01819313_16332.png
subject-03,1,728,1.31180095672607,keyboard,keyboard,180,0728_rot_s03_180_keyboard_20_n04505470_186.png
subject-03,1,729,NaN,na,cat,270,0729_rot_s03_270_cat_20_n02123394_1581.png
subject-03,1,730,1.44470500946045,knife,knife,180,0730_rot_s03_180_knife_20_n03041632_5427.png
subject-03,1,731,1.27908492088318,oven,oven,270,0731_rot_s03_270_oven_20_n04111531_13590.png
subject-03,1,732,1.47766804695129,clock,knife,90,0732_rot_s03_90_knife_20_n03041632_43289.png
subject-03,1,733,0.683963060379028,cat,dog,270,0733_rot_s03_270_dog_20_n02094114_550.png
subject-03,1,734,0.864226102828979,bottle,bottle,0,0734_rot_s03_0_bottle_20_n04579145_2944.png
subject-03,1,735,1.08265686035156,bottle,knife,90,0735_rot_s03_90_knife_20_n03041632_3926.png
subject-03,1,736,1.50013709068298,dog,dog,0,0736_rot_s03_0_dog_20_n02109047_1516.png
subject-03,1,737,1.0735080242157,car,truck,90,0737_rot_s03_90_truck_20_n03417042_23546.png
subject-03,1,738,1.28580808639526,bottle,bear,90,0738_rot_s03_90_bear_20_n02133161_897.png
subject-03,1,739,NaN,na,bear,270,0739_rot_s03_270_bear_20_n02134084_20702.png
subject-03,1,740,1.28679609298706,elephant,elephant,0,0740_rot_s03_0_elephant_20_n02504458_4448.png
subject-03,1,741,1.26128888130188,oven,clock,180,0741_rot_s03_180_clock_20_n04548280_3644.png
subject-03,1,742,1.08193111419678,chair,bottle,180,0742_rot_s03_180_bottle_20_n04591713_5919.png
subject-03,1,743,0.87220287322998,elephant,elephant,180,0743_rot_s03_180_elephant_20_n02504013_447.png
subject-03,1,744,1.03623819351196,bear,bear,90,0744_rot_s03_90_bear_20_n02134084_20924.png
subject-03,1,745,NaN,na,cat,0,0745_rot_s03_0_cat_20_n02123597_7324.png
subject-03,1,746,1.19892692565918,clock,clock,0,0746_rot_s03_0_clock_20_n03196217_1797.png
subject-03,1,747,1.25740909576416,cat,bear,0,0747_rot_s03_0_bear_20_n02132136_5967.png
subject-03,1,748,1.16206812858582,dog,cat,270,0748_rot_s03_270_cat_20_n02125311_4563.png
subject-03,1,749,0.806055068969727,chair,chair,0,0749_rot_s03_0_chair_20_n02791124_5112.png
subject-03,1,750,0.610183954238892,bicycle,bicycle,0,0750_rot_s03_0_bicycle_20_n02835271_5873.png
subject-03,1,751,0.760396003723145,truck,truck,270,0751_rot_s03_270_truck_20_n04467665_22414.png
subject-03,1,752,1.25693082809448,elephant,cat,0,0752_rot_s03_0_cat_20_n02123597_11763.png
subject-03,1,753,0.885653018951416,keyboard,keyboard,270,0753_rot_s03_270_keyboard_20_n03085013_24467.png
subject-03,1,754,NaN,na,boat,180,0754_rot_s03_180_boat_20_n03344393_8854.png
subject-03,1,755,1.50011610984802,truck,truck,90,0755_rot_s03_90_truck_20_n03417042_28742.png
subject-03,1,756,1.24468111991882,car,car,180,0756_rot_s03_180_car_20_n02814533_42777.png
subject-03,1,757,0.727359056472778,bear,bear,0,0757_rot_s03_0_bear_20_n02134084_10112.png
subject-03,1,758,0.561494112014771,bottle,bottle,270,0758_rot_s03_270_bottle_20_n02823428_5178.png
subject-03,1,759,1.09597015380859,dog,dog,0,0759_rot_s03_0_dog_20_n02100877_1224.png
subject-03,1,760,1.11632609367371,chair,chair,90,0760_rot_s03_90_chair_20_n04099969_1852.png
subject-03,1,761,1.01293611526489,bird,bird,270,0761_rot_s03_270_bird_20_n01818515_15299.png
subject-03,1,762,1.05544495582581,bird,bear,270,0762_rot_s03_270_bear_20_n02132136_5052.png
subject-03,1,763,0.591884851455688,knife,knife,90,0763_rot_s03_90_knife_20_n03041632_24561.png
subject-03,1,764,1.50030493736267,chair,chair,180,0764_rot_s03_180_chair_20_n04099969_4162.png
subject-03,1,765,1.15889310836792,bear,bear,0,0765_rot_s03_0_bear_20_n02134418_8489.png
subject-03,1,766,NaN,na,dog,90,0766_rot_s03_90_dog_20_n02091032_8572.png
subject-03,1,767,NaN,na,keyboard,270,0767_rot_s03_270_keyboard_20_n03085013_24522.png
subject-03,1,768,1.14226603507996,bird,bird,90,0768_rot_s03_90_bird_20_n02028035_29893.png
subject-03,1,769,1.50019288063049,car,car,90,0769_rot_s03_90_car_20_n03100240_7316.png
subject-03,1,770,0.843125104904175,car,car,90,0770_rot_s03_90_car_20_n02814533_76739.png
subject-03,1,771,0.876084089279175,airplane,airplane,0,0771_rot_s03_0_airplane_20_n02690373_6899.png
subject-03,1,772,1.43230009078979,bird,cat,0,0772_rot_s03_0_cat_20_n02123394_8629.png
subject-03,1,773,NaN,na,elephant,270,0773_rot_s03_270_elephant_20_n02504458_5671.png
subject-03,1,774,1.41900682449341,boat,boat,180,0774_rot_s03_180_boat_20_n04273569_32553.png
subject-03,1,775,1.46136808395386,truck,truck,0,0775_rot_s03_0_truck_20_n03796401_19889.png
subject-03,1,776,1.18668913841248,bird,bird,90,0776_rot_s03_90_bird_20_n02018795_10754.png
subject-03,1,777,1.2149121761322,cat,bird,270,0777_rot_s03_270_bird_20_n01855672_6572.png
subject-03,1,778,1.26559209823608,bird,oven,270,0778_rot_s03_270_oven_20_n04111531_17917.png
subject-03,1,779,0.786044120788574,keyboard,keyboard,90,0779_rot_s03_90_keyboard_20_n04505470_4358.png
subject-03,1,780,0.814700126647949,bird,bear,270,0780_rot_s03_270_bear_20_n02134084_16520.png
subject-03,1,781,NaN,na,boat,90,0781_rot_s03_90_boat_20_n03344393_4854.png
subject-03,1,782,1.29897093772888,airplane,airplane,270,0782_rot_s03_270_airplane_20_n02690373_4839.png
subject-03,1,783,0.889729022979736,car,car,270,0783_rot_s03_270_car_20_n03100240_1959.png
subject-03,1,784,1.02377986907959,keyboard,keyboard,90,0784_rot_s03_90_keyboard_20_n04505470_3309.png
subject-03,1,785,1.28883099555969,oven,bicycle,0,0785_rot_s03_0_bicycle_20_n02835271_15639.png
subject-03,1,786,1.05553698539734,car,car,90,0786_rot_s03_90_car_20_n03100240_9443.png
subject-03,1,787,1.22175693511963,elephant,elephant,270,0787_rot_s03_270_elephant_20_n02504458_6025.png
subject-03,1,788,1.40233302116394,oven,oven,90,0788_rot_s03_90_oven_20_n04111531_12129.png
subject-03,1,789,NaN,na,keyboard,0,0789_rot_s03_0_keyboard_20_n03085013_30073.png
subject-03,1,790,1.49538493156433,bird,chair,90,0790_rot_s03_90_chair_20_n02791124_2085.png
subject-03,1,791,1.07738018035889,truck,truck,0,0791_rot_s03_0_truck_20_n03417042_6317.png
subject-03,1,792,1.12192606925964,bicycle,bicycle,270,0792_rot_s03_270_bicycle_20_n03792782_29509.png
subject-03,1,793,1.50026893615723,airplane,boat,180,0793_rot_s03_180_boat_20_n02951358_5673.png
subject-03,1,794,0.984878063201904,dog,oven,0,0794_rot_s03_0_oven_20_n04111531_12980.png
subject-03,1,795,0.843158006668091,boat,boat,0,0795_rot_s03_0_boat_20_n04612504_10311.png
subject-03,1,796,0.8336341381073,clock,clock,90,0796_rot_s03_90_clock_20_n03196217_1168.png
subject-03,1,797,0.691962003707886,boat,boat,0,0797_rot_s03_0_boat_20_n04273569_1607.png
subject-03,1,798,1.17225503921509,car,car,180,0798_rot_s03_180_car_20_n04285008_8668.png
subject-03,1,799,1.09852695465088,cat,oven,0,0799_rot_s03_0_oven_20_n04111531_5888.png
subject-03,1,800,1.02646088600159,bicycle,knife,0,0800_rot_s03_0_knife_20_n03041632_82878.png
subject-03,1,801,0.90566086769104,cat,cat,90,0801_rot_s03_90_cat_20_n02124075_7880.png
subject-03,1,802,1.1262001991272,bicycle,bicycle,0,0802_rot_s03_0_bicycle_20_n02835271_14316.png
subject-03,1,803,1.2608790397644,bird,bicycle,180,0803_rot_s03_180_bicycle_20_n02835271_1525.png
subject-03,1,804,1.38125610351562,bird,keyboard,180,0804_rot_s03_180_keyboard_20_n03085013_15825.png
subject-03,1,805,0.709421157836914,clock,clock,0,0805_rot_s03_0_clock_20_n04548280_2826.png
subject-03,1,806,0.70766282081604,knife,knife,0,0806_rot_s03_0_knife_20_n03041632_40508.png
subject-03,1,807,0.811920881271362,knife,knife,0,0807_rot_s03_0_knife_20_n03041632_4269.png
subject-03,1,808,0.867795944213867,elephant,elephant,0,0808_rot_s03_0_elephant_20_n02504013_1792.png
subject-03,1,809,0.917969942092896,clock,clock,270,0809_rot_s03_270_clock_20_n02708093_8073.png
subject-03,1,810,0.967948198318481,bird,bird,0,0810_rot_s03_0_bird_20_n02007558_14723.png
subject-03,1,811,1.46992897987366,clock,clock,180,0811_rot_s03_180_clock_20_n03196217_9563.png
subject-03,1,812,1.00012397766113,bird,bear,180,0812_rot_s03_180_bear_20_n02134418_5033.png
subject-03,1,813,0.934481143951416,cat,bird,90,0813_rot_s03_90_bird_20_n02027492_9698.png
subject-03,1,814,0.924874067306519,elephant,elephant,180,0814_rot_s03_180_elephant_20_n02504458_291.png
subject-03,1,815,1.41906189918518,cat,cat,0,0815_rot_s03_0_cat_20_n02123045_13021.png
subject-03,1,816,0.841790914535522,bird,bird,270,0816_rot_s03_270_bird_20_n02009229_7082.png
subject-03,1,817,0.600044965744019,airplane,airplane,0,0817_rot_s03_0_airplane_20_n02690373_10114.png
subject-03,1,818,1.01020097732544,car,car,90,0818_rot_s03_90_car_20_n03100240_7624.png
subject-03,1,819,1.11400699615479,oven,clock,270,0819_rot_s03_270_clock_20_n03196217_4864.png
subject-03,1,820,1.41828179359436,car,car,180,0820_rot_s03_180_car_20_n03100240_203.png
subject-03,1,821,1.33681106567383,oven,knife,90,0821_rot_s03_90_knife_20_n03041632_12949.png
subject-03,1,822,1.47053503990173,elephant,bear,90,0822_rot_s03_90_bear_20_n02134418_768.png
subject-03,1,823,1.3067479133606,airplane,airplane,90,0823_rot_s03_90_airplane_20_n02690373_2564.png
subject-03,1,824,1.11136794090271,bird,boat,270,0824_rot_s03_270_boat_20_n04612504_20800.png
subject-03,1,825,1.15585684776306,cat,boat,180,0825_rot_s03_180_boat_20_n04273569_3335.png
subject-03,1,826,1.50015592575073,dog,dog,180,0826_rot_s03_180_dog_20_n02111129_1530.png
subject-03,1,827,0.788220882415771,cat,cat,0,0827_rot_s03_0_cat_20_n02123597_10214.png
subject-03,1,828,1.09854102134705,cat,cat,90,0828_rot_s03_90_cat_20_n02125311_30625.png
subject-03,1,829,1.14852786064148,elephant,elephant,270,0829_rot_s03_270_elephant_20_n02504013_3210.png
subject-03,1,830,NaN,na,bear,270,0830_rot_s03_270_bear_20_n02134418_460.png
subject-03,1,831,1.02789902687073,bottle,chair,180,0831_rot_s03_180_chair_20_n04429376_19101.png
subject-03,1,832,0.861917972564697,clock,clock,180,0832_rot_s03_180_clock_20_n04548280_3245.png
subject-03,1,833,1.10419297218323,keyboard,keyboard,270,0833_rot_s03_270_keyboard_20_n04505470_5150.png
subject-03,1,834,1.04050707817078,bird,oven,180,0834_rot_s03_180_oven_20_n04111531_2987.png
subject-03,1,835,0.920562028884888,knife,knife,270,0835_rot_s03_270_knife_20_n03041632_13130.png
subject-03,1,836,1.24121689796448,elephant,elephant,270,0836_rot_s03_270_elephant_20_n02504013_4444.png
subject-03,1,837,1.2133150100708,boat,boat,90,0837_rot_s03_90_boat_20_n04273569_29113.png
subject-03,1,838,0.757699966430664,oven,truck,180,0838_rot_s03_180_truck_20_n03417042_23802.png
subject-03,1,839,1.04030203819275,bicycle,bicycle,90,0839_rot_s03_90_bicycle_20_n02835271_1721.png
subject-03,1,840,1.34260582923889,boat,boat,180,0840_rot_s03_180_boat_20_n02951358_5160.png
subject-03,1,841,1.26293802261353,car,truck,270,0841_rot_s03_270_truck_20_n03796401_4827.png
subject-03,1,842,1.29930305480957,cat,chair,180,0842_rot_s03_180_chair_20_n02791124_4060.png
subject-03,1,843,0.812089204788208,cat,cat,180,0843_rot_s03_180_cat_20_n02124075_11105.png
subject-03,1,844,1.00809216499329,boat,boat,90,0844_rot_s03_90_boat_20_n04273569_18304.png
subject-03,1,845,NaN,na,clock,180,0845_rot_s03_180_clock_20_n02708093_3743.png
subject-03,1,846,1.20930790901184,bird,cat,90,0846_rot_s03_90_cat_20_n02123159_2416.png
subject-03,1,847,1.18333101272583,car,car,180,0847_rot_s03_180_car_20_n02814533_73944.png
subject-03,1,848,1.26383113861084,bottle,dog,180,0848_rot_s03_180_dog_20_n02105855_8344.png
subject-03,1,849,1.11373400688171,cat,oven,90,0849_rot_s03_90_oven_20_n04111531_9455.png
subject-03,1,850,1.20429992675781,cat,knife,0,0850_rot_s03_0_knife_20_n03041632_6708.png
subject-03,1,851,0.786123991012573,bird,bird,180,0851_rot_s03_180_bird_20_n01616318_2003.png
subject-03,1,852,0.728541135787964,cat,cat,270,0852_rot_s03_270_cat_20_n02123159_1233.png
subject-03,1,853,1.20035600662231,dog,bird,90,0853_rot_s03_90_bird_20_n02013706_1492.png
subject-03,1,854,1.07454800605774,oven,chair,0,0854_rot_s03_0_chair_20_n04429376_27637.png
subject-03,1,855,1.5002429485321,bird,bird,270,0855_rot_s03_270_bird_20_n01558993_4663.png
subject-03,1,856,NaN,na,cat,180,0856_rot_s03_180_cat_20_n02125311_4429.png
subject-03,1,857,1.05830383300781,boat,boat,270,0857_rot_s03_270_boat_20_n04612504_10504.png
subject-03,1,858,1.1085889339447,bird,oven,180,0858_rot_s03_180_oven_20_n04111531_22517.png
subject-03,1,859,0.913419008255005,car,car,180,0859_rot_s03_180_car_20_n02814533_84296.png
subject-03,1,860,0.947290897369385,knife,knife,180,0860_rot_s03_180_knife_20_n03041632_13645.png
subject-03,1,861,1.14382886886597,airplane,airplane,180,0861_rot_s03_180_airplane_20_n02690373_8611.png
subject-03,1,862,1.35636901855469,oven,oven,0,0862_rot_s03_0_oven_20_n04111531_5897.png
subject-03,1,863,0.908591985702515,clock,clock,180,0863_rot_s03_180_clock_20_n02708093_3664.png
subject-03,1,864,1.34295797348022,bird,bird,270,0864_rot_s03_270_bird_20_n01860187_7878.png
subject-03,1,865,0.893512010574341,bicycle,bicycle,180,0865_rot_s03_180_bicycle_20_n02835271_323.png
subject-03,1,866,0.799685001373291,oven,oven,0,0866_rot_s03_0_oven_20_n04111531_19104.png
subject-03,1,867,0.849532127380371,clock,oven,180,0867_rot_s03_180_oven_20_n04111531_804.png
subject-03,1,868,0.616438150405884,chair,chair,90,0868_rot_s03_90_chair_20_n03376595_5970.png
subject-03,1,869,0.966731071472168,cat,cat,0,0869_rot_s03_0_cat_20_n02125311_44755.png
subject-03,1,870,0.84726619720459,bird,bear,0,0870_rot_s03_0_bear_20_n02132136_25897.png
subject-03,1,871,0.967589855194092,chair,airplane,90,0871_rot_s03_90_airplane_20_n02690373_10462.png
subject-03,1,872,0.8087317943573,bicycle,bicycle,180,0872_rot_s03_180_bicycle_20_n02835271_12799.png
subject-03,1,873,1.34077787399292,bird,oven,0,0873_rot_s03_0_oven_20_n04111531_845.png
subject-03,1,874,1.16866993904114,bird,bird,180,0874_rot_s03_180_bird_20_n01614925_655.png
subject-03,1,875,0.773392915725708,clock,clock,270,0875_rot_s03_270_clock_20_n03196217_4666.png
subject-03,1,876,0.92377495765686,airplane,keyboard,270,0876_rot_s03_270_keyboard_20_n03085013_18769.png
subject-03,1,877,0.935806035995483,truck,truck,270,0877_rot_s03_270_truck_20_n04467665_42219.png
subject-03,1,878,1.10796904563904,car,oven,270,0878_rot_s03_270_oven_20_n04111531_1938.png
subject-03,1,879,1.28210496902466,dog,dog,180,0879_rot_s03_180_dog_20_n02107574_4339.png
subject-03,1,880,NaN,na,boat,0,0880_rot_s03_0_boat_20_n03344393_2870.png
subject-03,1,881,0.898110866546631,bird,bird,270,0881_rot_s03_270_bird_20_n01531178_8650.png
subject-03,1,882,1.01692891120911,keyboard,keyboard,180,0882_rot_s03_180_keyboard_20_n04505470_7161.png
subject-03,1,883,0.883394956588745,clock,clock,90,0883_rot_s03_90_clock_20_n04548280_8705.png
subject-03,1,884,0.811579942703247,knife,knife,90,0884_rot_s03_90_knife_20_n03041632_9157.png
subject-03,1,885,1.40615105628967,car,car,90,0885_rot_s03_90_car_20_n02814533_4488.png
subject-03,1,886,1.25050401687622,cat,cat,270,0886_rot_s03_270_cat_20_n02125311_1721.png
subject-03,1,887,0.640761137008667,keyboard,oven,270,0887_rot_s03_270_oven_20_n04111531_9490.png
subject-03,1,888,1.38327813148499,dog,bear,90,0888_rot_s03_90_bear_20_n02134084_21404.png
subject-03,1,889,0.849713087081909,bottle,bottle,90,0889_rot_s03_90_bottle_20_n03937543_2083.png
subject-03,1,890,0.631775856018066,airplane,airplane,90,0890_rot_s03_90_airplane_20_n02690373_813.png
subject-03,1,891,0.85826301574707,knife,knife,0,0891_rot_s03_0_knife_20_n03041632_12130.png
subject-03,1,892,0.816594123840332,cat,cat,90,0892_rot_s03_90_cat_20_n02123159_3490.png
subject-03,1,893,0.674103975296021,boat,boat,0,0893_rot_s03_0_boat_20_n04273569_1145.png
subject-03,1,894,1.50009202957153,cat,airplane,270,0894_rot_s03_270_airplane_20_n02690373_3928.png
subject-03,1,895,0.936875820159912,keyboard,keyboard,0,0895_rot_s03_0_keyboard_20_n03085013_19581.png
subject-03,1,896,0.971391916275024,keyboard,keyboard,90,0896_rot_s03_90_keyboard_20_n04505470_489.png
subject-03,1,897,NaN,na,truck,90,0897_rot_s03_90_truck_20_n03417042_1344.png
subject-03,1,898,1.09630012512207,keyboard,keyboard,90,0898_rot_s03_90_keyboard_20_n04505470_3937.png
subject-03,1,899,1.50031876564026,car,car,270,0899_rot_s03_270_car_20_n02814533_56420.png
subject-03,1,900,0.880741119384766,airplane,airplane,270,0900_rot_s03_270_airplane_20_n02690373_6676.png
subject-03,1,901,1.24384093284607,bird,bird,90,0901_rot_s03_90_bird_20_n01614925_8813.png
subject-03,1,902,1.25602197647095,elephant,elephant,0,0902_rot_s03_0_elephant_20_n02504458_2919.png
subject-03,1,903,1.39862298965454,airplane,airplane,0,0903_rot_s03_0_airplane_20_n02690373_10006.png
subject-03,1,904,NaN,na,knife,180,0904_rot_s03_180_knife_20_n03041632_21425.png
subject-03,1,905,1.32122611999512,dog,cat,180,0905_rot_s03_180_cat_20_n02123394_176.png
subject-03,1,906,0.865660905838013,bottle,bottle,270,0906_rot_s03_270_bottle_20_n03983396_4364.png
subject-03,1,907,0.556188821792603,clock,clock,0,0907_rot_s03_0_clock_20_n04548280_3080.png
subject-03,1,908,0.958173036575317,oven,clock,270,0908_rot_s03_270_clock_20_n03196217_454.png
subject-03,1,909,1.24626183509827,cat,bear,90,0909_rot_s03_90_bear_20_n02132136_648.png
subject-03,1,910,0.844330787658691,airplane,airplane,0,0910_rot_s03_0_airplane_20_n02690373_9813.png
subject-03,1,911,1.46234798431396,bird,bicycle,180,0911_rot_s03_180_bicycle_20_n03792782_7667.png
subject-03,1,912,NaN,na,cat,180,0912_rot_s03_180_cat_20_n02124075_8496.png
subject-03,1,913,0.89457106590271,oven,keyboard,0,0913_rot_s03_0_keyboard_20_n04505470_4790.png
subject-03,1,914,NaN,na,truck,270,0914_rot_s03_270_truck_20_n03417042_2563.png
subject-03,1,915,0.857776165008545,cat,dog,180,0915_rot_s03_180_dog_20_n02093991_7254.png
subject-03,1,916,1.07570886611938,cat,bear,180,0916_rot_s03_180_bear_20_n02134418_2424.png
subject-03,1,917,NaN,na,elephant,0,0917_rot_s03_0_elephant_20_n02504013_6530.png
subject-03,1,918,1.39220499992371,boat,boat,0,0918_rot_s03_0_boat_20_n03344393_2829.png
subject-03,1,919,0.699006080627441,bicycle,bicycle,270,0919_rot_s03_270_bicycle_20_n03792782_12991.png
subject-03,1,920,1.10088300704956,bird,dog,0,0920_rot_s03_0_dog_20_n02087394_9860.png
subject-03,1,921,0.842305898666382,clock,clock,180,0921_rot_s03_180_clock_20_n03196217_367.png
subject-03,1,922,1.5002269744873,truck,truck,270,0922_rot_s03_270_truck_20_n04467665_19718.png
subject-03,1,923,1.45699787139893,bottle,bottle,270,0923_rot_s03_270_bottle_20_n04557648_999.png
subject-03,1,924,1.20891308784485,bird,bicycle,180,0924_rot_s03_180_bicycle_20_n02835271_19400.png
subject-03,1,925,0.851608037948608,clock,clock,0,0925_rot_s03_0_clock_20_n02708093_4722.png
subject-03,1,926,1.03965902328491,bottle,chair,180,0926_rot_s03_180_chair_20_n02791124_424.png
subject-03,1,927,NaN,na,truck,90,0927_rot_s03_90_truck_20_n04467665_70844.png
subject-03,1,928,1.28082394599915,cat,knife,180,0928_rot_s03_180_knife_20_n03041632_2438.png
subject-03,1,929,0.761052131652832,car,car,270,0929_rot_s03_270_car_20_n03100240_266.png
subject-03,1,930,1.2951979637146,bird,bottle,270,0930_rot_s03_270_bottle_20_n04557648_7646.png
subject-03,1,931,0.823379039764404,car,car,0,0931_rot_s03_0_car_20_n04285008_15057.png
subject-03,1,932,1.04466986656189,truck,boat,0,0932_rot_s03_0_boat_20_n03344393_5341.png
subject-03,1,933,1.15737414360046,bird,chair,0,0933_rot_s03_0_chair_20_n04429376_29750.png
subject-03,1,934,NaN,na,elephant,270,0934_rot_s03_270_elephant_20_n02504013_1900.png
subject-03,1,935,1.4418249130249,dog,bear,180,0935_rot_s03_180_bear_20_n02133161_6427.png
subject-03,1,936,1.44034695625305,dog,dog,90,0936_rot_s03_90_dog_20_n02097047_3927.png
subject-03,1,937,1.12902808189392,chair,chair,90,0937_rot_s03_90_chair_20_n04429376_31657.png
subject-03,1,938,1.50010919570923,truck,truck,90,0938_rot_s03_90_truck_20_n03417042_877.png
subject-03,1,939,0.723055124282837,keyboard,keyboard,180,0939_rot_s03_180_keyboard_20_n04505470_4384.png
subject-03,1,940,0.91166615486145,cat,oven,180,0940_rot_s03_180_oven_20_n04111531_7252.png
subject-03,1,941,NaN,na,airplane,90,0941_rot_s03_90_airplane_20_n02690373_3313.png
subject-03,1,942,1.24197196960449,boat,boat,90,0942_rot_s03_90_boat_20_n03662601_8230.png
subject-03,1,943,0.840368032455444,chair,chair,270,0943_rot_s03_270_chair_20_n03376595_3912.png
subject-03,1,944,NaN,na,truck,90,0944_rot_s03_90_truck_20_n03417042_11.png
subject-03,1,945,1.43060207366943,bottle,bottle,180,0945_rot_s03_180_bottle_20_n04560804_32800.png
subject-03,1,946,1.50038599967957,bird,oven,180,0946_rot_s03_180_oven_20_n04111531_7619.png
subject-03,1,947,1.39325499534607,car,car,90,0947_rot_s03_90_car_20_n02814533_2216.png
subject-03,1,948,1.15919804573059,bird,bird,0,0948_rot_s03_0_bird_20_n02017213_1815.png
subject-03,1,949,0.711624145507812,airplane,airplane,180,0949_rot_s03_180_airplane_20_n02690373_3753.png
subject-03,1,950,0.821748018264771,bicycle,bicycle,180,0950_rot_s03_180_bicycle_20_n02835271_5742.png
subject-03,1,951,1.14831113815308,oven,knife,180,0951_rot_s03_180_knife_20_n03041632_37618.png
subject-03,1,952,1.26511406898499,car,car,270,0952_rot_s03_270_car_20_n02814533_8568.png
subject-03,1,953,1.01747608184814,chair,chair,0,0953_rot_s03_0_chair_20_n04099969_248.png
subject-03,1,954,0.859405040740967,cat,dog,90,0954_rot_s03_90_dog_20_n02087394_17486.png
subject-03,1,955,1.35301208496094,bird,oven,90,0955_rot_s03_90_oven_20_n04111531_688.png
subject-03,1,956,1.05158400535583,clock,chair,0,0956_rot_s03_0_chair_20_n02791124_5401.png
subject-03,1,957,NaN,na,boat,180,0957_rot_s03_180_boat_20_n03662601_1197.png
subject-03,1,958,1.13583397865295,cat,cat,0,0958_rot_s03_0_cat_20_n02123394_2514.png
subject-03,1,959,1.31642198562622,bird,bird,180,0959_rot_s03_180_bird_20_n01601694_25894.png
subject-03,1,960,1.14480805397034,boat,elephant,90,0960_rot_s03_90_elephant_20_n02504458_2970.png
subject-03,1,961,1.06923508644104,bear,oven,0,0961_rot_s03_0_oven_20_n04111531_5038.png
subject-03,1,962,0.951620817184448,bottle,bottle,0,0962_rot_s03_0_bottle_20_n04560804_15723.png
subject-03,1,963,0.66406512260437,chair,chair,90,0963_rot_s03_90_chair_20_n02791124_5822.png
subject-03,1,964,0.644079208374023,airplane,airplane,0,0964_rot_s03_0_airplane_20_n02690373_1474.png
subject-03,1,965,0.756906986236572,car,car,180,0965_rot_s03_180_car_20_n03100240_2562.png
subject-03,1,966,0.893159866333008,bear,bear,90,0966_rot_s03_90_bear_20_n02132136_10324.png
subject-03,1,967,0.651103973388672,keyboard,keyboard,270,0967_rot_s03_270_keyboard_20_n03085013_24665.png
subject-03,1,968,1.47574210166931,bear,dog,90,0968_rot_s03_90_dog_20_n02093647_6103.png
subject-03,1,969,1.13390898704529,airplane,car,180,0969_rot_s03_180_car_20_n02814533_19287.png
subject-03,1,970,1.06257891654968,bird,bird,0,0970_rot_s03_0_bird_20_n02027492_1159.png
subject-03,1,971,1.02908396720886,cat,knife,180,0971_rot_s03_180_knife_20_n03041632_18311.png
subject-03,1,972,1.17097306251526,keyboard,keyboard,180,0972_rot_s03_180_keyboard_20_n04505470_2599.png
subject-03,1,973,0.629145860671997,clock,clock,0,0973_rot_s03_0_clock_20_n04548280_3292.png
subject-03,1,974,0.733020067214966,cat,cat,270,0974_rot_s03_270_cat_20_n02123597_10301.png
subject-03,1,975,1.17528891563416,truck,truck,270,0975_rot_s03_270_truck_20_n04467665_64402.png
subject-03,1,976,0.765863180160522,keyboard,keyboard,0,0976_rot_s03_0_keyboard_20_n03085013_8085.png
subject-03,1,977,0.992096900939941,knife,knife,0,0977_rot_s03_0_knife_20_n03041632_53874.png
subject-03,1,978,0.988900899887085,keyboard,keyboard,90,0978_rot_s03_90_keyboard_20_n03085013_23658.png
subject-03,1,979,0.763124942779541,knife,knife,270,0979_rot_s03_270_knife_20_n03041632_14132.png
subject-03,1,980,0.929573059082031,bird,elephant,270,0980_rot_s03_270_elephant_20_n02504013_8440.png
subject-03,1,981,1.23444294929504,cat,elephant,180,0981_rot_s03_180_elephant_20_n02504013_173.png
subject-03,1,982,1.00083017349243,bicycle,bicycle,90,0982_rot_s03_90_bicycle_20_n03792782_6159.png
subject-03,1,983,1.08903884887695,cat,knife,0,0983_rot_s03_0_knife_20_n03041632_29680.png
subject-03,1,984,0.967499971389771,oven,car,180,0984_rot_s03_180_car_20_n02814533_44702.png
subject-03,1,985,1.32346105575562,elephant,elephant,0,0985_rot_s03_0_elephant_20_n02504458_5008.png
subject-03,1,986,NaN,na,chair,0,0986_rot_s03_0_chair_20_n04429376_24615.png
subject-03,1,987,0.755271911621094,cat,cat,0,0987_rot_s03_0_cat_20_n02124075_14101.png
subject-03,1,988,1.22816205024719,bird,airplane,180,0988_rot_s03_180_airplane_20_n02690373_12044.png
subject-03,1,989,1.33234000205994,car,car,180,0989_rot_s03_180_car_20_n04285008_6527.png
subject-03,1,990,0.823042869567871,elephant,elephant,90,0990_rot_s03_90_elephant_20_n02504458_1604.png
subject-03,1,991,0.965449094772339,clock,knife,0,0991_rot_s03_0_knife_20_n03041632_20433.png
subject-03,1,992,0.885501146316528,cat,knife,0,0992_rot_s03_0_knife_20_n03041632_14916.png
subject-03,1,993,1.30102586746216,bird,oven,90,0993_rot_s03_90_oven_20_n04111531_12788.png
subject-03,1,994,0.89869499206543,bicycle,bicycle,90,0994_rot_s03_90_bicycle_20_n02835271_6930.png
subject-03,1,995,1.06319999694824,dog,dog,180,0995_rot_s03_180_dog_20_n02091831_9484.png
subject-03,1,996,0.653106927871704,bicycle,bicycle,90,0996_rot_s03_90_bicycle_20_n02835271_9620.png
subject-03,1,997,1.08715415000916,bottle,bottle,0,0997_rot_s03_0_bottle_20_n04591713_7984.png
subject-03,1,998,0.661674976348877,keyboard,keyboard,90,0998_rot_s03_90_keyboard_20_n03085013_1188.png
subject-03,1,999,1.37114977836609,bird,bottle,270,0999_rot_s03_270_bottle_20_n04557648_5619.png
subject-03,1,1000,1.0459771156311,bear,bear,0,1000_rot_s03_0_bear_20_n02134418_5690.png
subject-03,1,1001,1.5003399848938,chair,bird,0,1001_rot_s03_0_bird_20_n01824575_4762.png
subject-03,1,1002,0.862704992294312,keyboard,keyboard,0,1002_rot_s03_0_keyboard_20_n04505470_4806.png
subject-03,1,1003,1.19722414016724,oven,oven,0,1003_rot_s03_0_oven_20_n04111531_7664.png
subject-03,1,1004,1.50011110305786,oven,oven,90,1004_rot_s03_90_oven_20_n04111531_1798.png
subject-03,1,1005,1.16033887863159,knife,knife,270,1005_rot_s03_270_knife_20_n03041632_38535.png
subject-03,1,1006,1.34851908683777,cat,dog,180,1006_rot_s03_180_dog_20_n02112350_4887.png
subject-03,1,1007,1.13058805465698,cat,bear,90,1007_rot_s03_90_bear_20_n02134418_938.png
subject-03,1,1008,0.613384962081909,airplane,airplane,270,1008_rot_s03_270_airplane_20_n02690373_2648.png
subject-03,1,1009,0.955590963363647,clock,clock,90,1009_rot_s03_90_clock_20_n04548280_3342.png
subject-03,1,1010,0.654003858566284,boat,boat,0,1010_rot_s03_0_boat_20_n04273569_32163.png
subject-03,1,1011,0.888481140136719,airplane,airplane,270,1011_rot_s03_270_airplane_20_n02690373_4818.png
subject-03,1,1012,0.86332893371582,boat,boat,0,1012_rot_s03_0_boat_20_n02951358_33683.png
subject-03,1,1013,0.675379037857056,cat,cat,270,1013_rot_s03_270_cat_20_n02123394_2692.png
subject-03,1,1014,0.626083135604858,cat,cat,0,1014_rot_s03_0_cat_20_n02123394_2265.png
subject-03,1,1015,0.530283212661743,clock,clock,180,1015_rot_s03_180_clock_20_n04548280_4635.png
subject-03,1,1016,0.748672008514404,clock,clock,180,1016_rot_s03_180_clock_20_n04548280_7828.png
subject-03,1,1017,0.823247909545898,cat,bear,270,1017_rot_s03_270_bear_20_n02134084_8584.png
subject-03,1,1018,0.881426095962524,cat,cat,90,1018_rot_s03_90_cat_20_n02123045_4042.png
subject-03,1,1019,0.832075119018555,cat,dog,180,1019_rot_s03_180_dog_20_n02097047_1626.png
subject-03,1,1020,1.06650710105896,car,car,0,1020_rot_s03_0_car_20_n04285008_7328.png
subject-03,1,1021,1.34068989753723,knife,knife,270,1021_rot_s03_270_knife_20_n03041632_24114.png
subject-03,1,1022,0.769335985183716,clock,clock,180,1022_rot_s03_180_clock_20_n02708093_3043.png
subject-03,1,1023,1.21174693107605,bottle,car,270,1023_rot_s03_270_car_20_n02814533_37181.png
subject-03,1,1024,1.20038390159607,knife,chair,180,1024_rot_s03_180_chair_20_n03376595_3038.png
subject-03,1,1025,1.22031593322754,cat,elephant,0,1025_rot_s03_0_elephant_20_n02504458_5518.png
subject-03,1,1026,0.916200160980225,bird,boat,180,1026_rot_s03_180_boat_20_n02951358_381.png
subject-03,1,1027,0.812412977218628,chair,chair,0,1027_rot_s03_0_chair_20_n04099969_13530.png
subject-03,1,1028,1.38460493087769,bear,bicycle,0,1028_rot_s03_0_bicycle_20_n03792782_10179.png
subject-03,1,1029,1.03692102432251,bird,oven,180,1029_rot_s03_180_oven_20_n04111531_3082.png
subject-03,1,1030,1.1417281627655,car,car,90,1030_rot_s03_90_car_20_n02814533_76.png
subject-03,1,1031,1.42215394973755,truck,truck,270,1031_rot_s03_270_truck_20_n03417042_13869.png
subject-03,1,1032,1.50038003921509,bear,bear,90,1032_rot_s03_90_bear_20_n02134084_6873.png
subject-03,1,1033,1.43876791000366,bicycle,bicycle,180,1033_rot_s03_180_bicycle_20_n03792782_8176.png
subject-03,1,1034,1.43491101264954,cat,knife,0,1034_rot_s03_0_knife_20_n03041632_49570.png
subject-03,1,1035,1.33127307891846,dog,elephant,180,1035_rot_s03_180_elephant_20_n02504013_6212.png
subject-03,1,1036,0.845814943313599,truck,truck,180,1036_rot_s03_180_truck_20_n04467665_10122.png
subject-03,1,1037,0.741898059844971,cat,oven,180,1037_rot_s03_180_oven_20_n04111531_21733.png
subject-03,1,1038,1.06034278869629,bottle,bottle,180,1038_rot_s03_180_bottle_20_n04560804_8522.png
subject-03,1,1039,1.00437998771667,cat,cat,180,1039_rot_s03_180_cat_20_n02123597_3063.png
subject-03,1,1040,0.884789943695068,car,car,270,1040_rot_s03_270_car_20_n02814533_2867.png
subject-03,1,1041,0.766755104064941,cat,cat,270,1041_rot_s03_270_cat_20_n02123597_8220.png
subject-03,1,1042,0.963041067123413,bottle,bottle,180,1042_rot_s03_180_bottle_20_n04591713_3562.png
subject-03,1,1043,0.867650032043457,airplane,airplane,180,1043_rot_s03_180_airplane_20_n02690373_919.png
subject-03,1,1044,0.926342010498047,car,car,180,1044_rot_s03_180_car_20_n03100240_2909.png
subject-03,1,1045,1.19846510887146,truck,truck,90,1045_rot_s03_90_truck_20_n03796401_7563.png
subject-03,1,1046,1.118901014328,boat,boat,90,1046_rot_s03_90_boat_20_n03662601_28649.png
subject-03,1,1047,0.793009042739868,clock,clock,90,1047_rot_s03_90_clock_20_n03196217_8792.png
subject-03,1,1048,0.997086048126221,keyboard,keyboard,180,1048_rot_s03_180_keyboard_20_n03085013_21025.png
subject-03,1,1049,0.923352956771851,bottle,knife,270,1049_rot_s03_270_knife_20_n03041632_84012.png
subject-03,1,1050,0.903403997421265,keyboard,keyboard,270,1050_rot_s03_270_keyboard_20_n03085013_22719.png
subject-03,1,1051,0.993443012237549,bird,bottle,0,1051_rot_s03_0_bottle_20_n02823428_728.png
subject-03,1,1052,0.843662023544312,cat,dog,270,1052_rot_s03_270_dog_20_n02086910_4988.png
subject-03,1,1053,1.25377488136292,bear,bear,0,1053_rot_s03_0_bear_20_n02133161_1244.png
subject-03,1,1054,0.851870059967041,keyboard,keyboard,90,1054_rot_s03_90_keyboard_20_n04505470_7681.png
subject-03,1,1055,0.794309854507446,cat,knife,180,1055_rot_s03_180_knife_20_n03041632_25656.png
subject-03,1,1056,1.01485919952393,cat,bear,270,1056_rot_s03_270_bear_20_n02133161_7173.png
subject-03,1,1057,1.07101702690125,cat,cat,270,1057_rot_s03_270_cat_20_n02125311_46231.png
subject-03,1,1058,0.623230934143066,airplane,airplane,90,1058_rot_s03_90_airplane_20_n02690373_15097.png
subject-03,1,1059,0.933810949325562,cat,cat,90,1059_rot_s03_90_cat_20_n02123394_5622.png
subject-03,1,1060,0.700393915176392,bottle,bottle,270,1060_rot_s03_270_bottle_20_n03983396_3182.png
subject-03,1,1061,0.766554117202759,cat,cat,180,1061_rot_s03_180_cat_20_n02123045_3193.png
subject-03,1,1062,0.747021913528442,airplane,airplane,0,1062_rot_s03_0_airplane_20_n02690373_19749.png
subject-03,1,1063,0.981159925460815,oven,knife,90,1063_rot_s03_90_knife_20_n03041632_2468.png
subject-03,1,1064,0.947309017181396,cat,oven,0,1064_rot_s03_0_oven_20_n04111531_14903.png
subject-03,1,1065,1.21131014823914,cat,bird,180,1065_rot_s03_180_bird_20_n01514859_983.png
subject-03,1,1066,0.689516067504883,cat,cat,0,1066_rot_s03_0_cat_20_n02123597_6319.png
subject-03,1,1067,1.20214986801147,dog,dog,270,1067_rot_s03_270_dog_20_n02110185_7325.png
subject-03,1,1068,0.952040910720825,truck,truck,0,1068_rot_s03_0_truck_20_n03417042_6213.png
subject-03,1,1069,0.91083288192749,cat,cat,90,1069_rot_s03_90_cat_20_n02123045_627.png
subject-03,1,1070,0.814702033996582,cat,chair,270,1070_rot_s03_270_chair_20_n04429376_805.png
subject-03,1,1071,0.787145853042603,knife,knife,180,1071_rot_s03_180_knife_20_n03041632_11285.png
subject-03,1,1072,1.4456639289856,keyboard,keyboard,90,1072_rot_s03_90_keyboard_20_n03085013_2270.png
