subj,session,trial,rt,object_response,category,condition,imagename
subject-06,1,1,0.929453134536743,bird,bird,180,0001_rot_s06_180_bird_20_n02025239_3044.png
subject-06,1,2,0.881757974624634,cat,cat,90,0002_rot_s06_90_cat_20_n02123394_4894.png
subject-06,1,3,0.682650089263916,chair,oven,180,0003_rot_s06_180_oven_20_n04111531_3126.png
subject-06,1,4,0.855635166168213,airplane,airplane,90,0004_rot_s06_90_airplane_20_n02690373_5838.png
subject-06,1,5,0.777025938034058,elephant,elephant,270,0005_rot_s06_270_elephant_20_n02504013_1604.png
subject-06,1,6,1.19176697731018,chair,chair,90,0006_rot_s06_90_chair_20_n02791124_342.png
subject-06,1,7,0.797998905181885,keyboard,keyboard,90,0007_rot_s06_90_keyboard_20_n04505470_4358.png
subject-06,1,8,0.906421184539795,elephant,elephant,270,0008_rot_s06_270_elephant_20_n02504458_7472.png
subject-06,1,9,0.645190000534058,boat,boat,90,0009_rot_s06_90_boat_20_n04612504_7137.png
subject-06,1,10,0.667608022689819,bottle,bottle,180,0010_rot_s06_180_bottle_20_n04579145_1705.png
subject-06,1,11,0.819997072219849,dog,dog,270,0011_rot_s06_270_dog_20_n02086079_41215.png
subject-06,1,12,0.820532083511353,knife,knife,180,0012_rot_s06_180_knife_20_n03041632_27575.png
subject-06,1,13,0.818747997283936,bear,bear,270,0013_rot_s06_270_bear_20_n02134084_9857.png
subject-06,1,14,0.635200977325439,chair,chair,270,0014_rot_s06_270_chair_20_n04099969_2177.png
subject-06,1,15,1.25479483604431,knife,knife,90,0015_rot_s06_90_knife_20_n03041632_21818.png
subject-06,1,16,1.03943300247192,elephant,elephant,180,0016_rot_s06_180_elephant_20_n02504013_6584.png
subject-06,1,17,0.607829093933105,clock,clock,180,0017_rot_s06_180_clock_20_n02708093_135.png
subject-06,1,18,0.858325958251953,bird,bird,90,0018_rot_s06_90_bird_20_n01824575_4615.png
subject-06,1,19,0.732841014862061,cat,cat,180,0019_rot_s06_180_cat_20_n02123597_4459.png
subject-06,1,20,1.02530407905579,dog,oven,90,0020_rot_s06_90_oven_20_n04111531_4918.png
subject-06,1,21,0.931762933731079,elephant,elephant,270,0021_rot_s06_270_elephant_20_n02504013_5685.png
subject-06,1,22,0.754168033599854,keyboard,keyboard,270,0022_rot_s06_270_keyboard_20_n03085013_20736.png
subject-06,1,23,0.730302095413208,bicycle,bicycle,0,0023_rot_s06_0_bicycle_20_n03792782_14156.png
subject-06,1,24,0.860904932022095,cat,cat,0,0024_rot_s06_0_cat_20_n02123394_219.png
subject-06,1,25,0.921230792999268,bicycle,bicycle,90,0025_rot_s06_90_bicycle_20_n03792782_8217.png
subject-06,1,26,0.819252014160156,bird,bird,180,0026_rot_s06_180_bird_20_n01622779_1186.png
subject-06,1,27,0.819355964660645,keyboard,keyboard,270,0027_rot_s06_270_keyboard_20_n04505470_432.png
subject-06,1,28,0.603805065155029,clock,clock,0,0028_rot_s06_0_clock_20_n02708093_8032.png
subject-06,1,29,0.740463018417358,bear,bear,0,0029_rot_s06_0_bear_20_n02134084_3696.png
subject-06,1,30,1.06242799758911,dog,dog,90,0030_rot_s06_90_dog_20_n02088238_1681.png
subject-06,1,31,0.843974113464355,elephant,elephant,90,0031_rot_s06_90_elephant_20_n02504458_12555.png
subject-06,1,32,0.788064956665039,cat,keyboard,180,0032_rot_s06_180_keyboard_20_n03085013_18841.png
subject-06,1,33,1.04795002937317,clock,clock,90,0033_rot_s06_90_clock_20_n03196217_6358.png
subject-06,1,34,1.25671005249023,keyboard,clock,270,0034_rot_s06_270_clock_20_n03196217_6042.png
subject-06,1,35,0.793078899383545,bird,bird,180,0035_rot_s06_180_bird_20_n02027492_2457.png
subject-06,1,36,1.29147386550903,oven,bottle,0,0036_rot_s06_0_bottle_20_n04579145_2046.png
subject-06,1,37,0.75370192527771,truck,truck,90,0037_rot_s06_90_truck_20_n03417042_13243.png
subject-06,1,38,0.998076915740967,cat,cat,180,0038_rot_s06_180_cat_20_n02124075_15143.png
subject-06,1,39,0.982331991195679,elephant,elephant,0,0039_rot_s06_0_elephant_20_n02504458_1929.png
subject-06,1,40,0.935016870498657,dog,bear,0,0040_rot_s06_0_bear_20_n02133161_11313.png
subject-06,1,41,1.13338088989258,bird,bird,0,0041_rot_s06_0_bird_20_n01601694_11890.png
subject-06,1,42,0.941740989685059,keyboard,keyboard,270,0042_rot_s06_270_keyboard_20_n04505470_6638.png
subject-06,1,43,0.794266939163208,bird,bird,270,0043_rot_s06_270_bird_20_n01818515_6339.png
subject-06,1,44,1.07055902481079,oven,oven,180,0044_rot_s06_180_oven_20_n04111531_2006.png
subject-06,1,45,1.30665993690491,truck,truck,180,0045_rot_s06_180_truck_20_n03417042_22603.png
subject-06,1,46,0.928025960922241,chair,chair,270,0046_rot_s06_270_chair_20_n02791124_2091.png
subject-06,1,47,1.06461191177368,car,car,270,0047_rot_s06_270_car_20_n02814533_21120.png
subject-06,1,48,0.848427057266235,bicycle,bicycle,90,0048_rot_s06_90_bicycle_20_n03792782_551.png
subject-06,1,49,0.808763027191162,airplane,airplane,270,0049_rot_s06_270_airplane_20_n02690373_1277.png
subject-06,1,50,0.931046962738037,bottle,bottle,180,0050_rot_s06_180_bottle_20_n04591713_4038.png
subject-06,1,51,1.42147994041443,oven,clock,270,0051_rot_s06_270_clock_20_n04548280_548.png
subject-06,1,52,0.767340898513794,chair,chair,180,0052_rot_s06_180_chair_20_n04099969_12546.png
subject-06,1,53,0.782186985015869,boat,boat,90,0053_rot_s06_90_boat_20_n03344393_4214.png
subject-06,1,54,1.38865089416504,chair,bear,180,0054_rot_s06_180_bear_20_n02134084_11594.png
subject-06,1,55,0.726901054382324,chair,chair,90,0055_rot_s06_90_chair_20_n04099969_2694.png
subject-06,1,56,0.88752293586731,elephant,elephant,180,0056_rot_s06_180_elephant_20_n02504458_1506.png
subject-06,1,57,1.03973484039307,bottle,bottle,0,0057_rot_s06_0_bottle_20_n03983396_2926.png
subject-06,1,58,1.15413117408752,chair,clock,180,0058_rot_s06_180_clock_20_n03196217_8489.png
subject-06,1,59,0.813930034637451,car,car,0,0059_rot_s06_0_car_20_n03100240_7318.png
subject-06,1,60,1.39792799949646,keyboard,keyboard,0,0060_rot_s06_0_keyboard_20_n03085013_19439.png
subject-06,1,61,0.958668947219849,knife,knife,270,0061_rot_s06_270_knife_20_n03041632_10000.png
subject-06,1,62,1.03476309776306,bottle,bottle,90,0062_rot_s06_90_bottle_20_n04560804_13541.png
subject-06,1,63,0.757297992706299,clock,clock,270,0063_rot_s06_270_clock_20_n04548280_8585.png
subject-06,1,64,1.2633068561554,keyboard,keyboard,180,0064_rot_s06_180_keyboard_20_n03085013_24610.png
subject-06,1,65,1.00998902320862,cat,cat,0,0065_rot_s06_0_cat_20_n02123597_2895.png
subject-06,1,66,1.00051093101501,chair,chair,0,0066_rot_s06_0_chair_20_n04099969_64.png
subject-06,1,67,1.09240794181824,cat,bear,270,0067_rot_s06_270_bear_20_n02134084_7817.png
subject-06,1,68,0.853067874908447,bottle,bottle,0,0068_rot_s06_0_bottle_20_n02823428_4468.png
subject-06,1,69,0.889443874359131,car,car,180,0069_rot_s06_180_car_20_n02814533_15108.png
subject-06,1,70,0.790015935897827,airplane,airplane,270,0070_rot_s06_270_airplane_20_n02690373_6682.png
subject-06,1,71,0.758127927780151,chair,chair,270,0071_rot_s06_270_chair_20_n04099969_14691.png
subject-06,1,72,0.680238008499146,airplane,airplane,270,0072_rot_s06_270_airplane_20_n02690373_2440.png
subject-06,1,73,NaN,na,clock,90,0073_rot_s06_90_clock_20_n03196217_10640.png
subject-06,1,74,0.969047784805298,bear,bear,270,0074_rot_s06_270_bear_20_n02132136_6628.png
subject-06,1,75,0.737256050109863,chair,chair,90,0075_rot_s06_90_chair_20_n04099969_19571.png
subject-06,1,76,0.997399091720581,airplane,airplane,0,0076_rot_s06_0_airplane_20_n02690373_6096.png
subject-06,1,77,0.881588935852051,bear,bear,90,0077_rot_s06_90_bear_20_n02134418_2683.png
subject-06,1,78,0.957885980606079,elephant,elephant,180,0078_rot_s06_180_elephant_20_n02504013_8563.png
subject-06,1,79,0.932106018066406,chair,chair,270,0079_rot_s06_270_chair_20_n02791124_3221.png
subject-06,1,80,1.1672990322113,airplane,truck,90,0080_rot_s06_90_truck_20_n04467665_42414.png
subject-06,1,81,1.21379399299622,dog,dog,180,0081_rot_s06_180_dog_20_n02095889_8274.png
subject-06,1,82,1.42611598968506,truck,truck,0,0082_rot_s06_0_truck_20_n04467665_5566.png
subject-06,1,83,1.28855395317078,bottle,knife,90,0083_rot_s06_90_knife_20_n03041632_19098.png
subject-06,1,84,0.832885980606079,bicycle,bicycle,180,0084_rot_s06_180_bicycle_20_n03792782_33881.png
subject-06,1,85,1.46922397613525,oven,bottle,90,0085_rot_s06_90_bottle_20_n04557648_2955.png
subject-06,1,86,0.7916100025177,boat,boat,180,0086_rot_s06_180_boat_20_n03662601_11972.png
subject-06,1,87,1.14348006248474,oven,oven,270,0087_rot_s06_270_oven_20_n04111531_7064.png
subject-06,1,88,1.34952592849731,oven,oven,270,0088_rot_s06_270_oven_20_n04111531_5967.png
subject-06,1,89,0.657942056655884,bear,bear,90,0089_rot_s06_90_bear_20_n02134418_3651.png
subject-06,1,90,1.26461291313171,boat,bottle,0,0090_rot_s06_0_bottle_20_n03937543_4242.png
subject-06,1,91,1.19499707221985,keyboard,bottle,180,0091_rot_s06_180_bottle_20_n03937543_440.png
subject-06,1,92,1.5002908706665,bottle,bird,180,0092_rot_s06_180_bird_20_n01560419_17093.png
subject-06,1,93,0.931709051132202,boat,boat,270,0093_rot_s06_270_boat_20_n04273569_2040.png
subject-06,1,94,0.84632396697998,truck,truck,0,0094_rot_s06_0_truck_20_n03417042_10563.png
subject-06,1,95,0.644657135009766,chair,chair,0,0095_rot_s06_0_chair_20_n04099969_1795.png
subject-06,1,96,1.09686684608459,cat,cat,270,0096_rot_s06_270_cat_20_n02123597_13835.png
subject-06,1,97,1.134526014328,cat,dog,90,0097_rot_s06_90_dog_20_n02105251_5890.png
subject-06,1,98,1.10013103485107,chair,knife,180,0098_rot_s06_180_knife_20_n03041632_28202.png
subject-06,1,99,0.889680862426758,chair,chair,180,0099_rot_s06_180_chair_20_n03376595_4856.png
subject-06,1,100,0.874128818511963,dog,dog,270,0100_rot_s06_270_dog_20_n02097047_4394.png
subject-06,1,101,1.21864008903503,dog,dog,90,0101_rot_s06_90_dog_20_n02096585_8110.png
subject-06,1,102,0.819104909896851,oven,oven,90,0102_rot_s06_90_oven_20_n04111531_1661.png
subject-06,1,103,0.633389949798584,bicycle,bicycle,0,0103_rot_s06_0_bicycle_20_n03792782_12453.png
subject-06,1,104,1.30806016921997,bicycle,bottle,0,0104_rot_s06_0_bottle_20_n04557648_3352.png
subject-06,1,105,0.924050092697144,chair,chair,0,0105_rot_s06_0_chair_20_n02791124_11456.png
subject-06,1,106,0.738440036773682,oven,oven,0,0106_rot_s06_0_oven_20_n04111531_22517.png
subject-06,1,107,0.960644960403442,airplane,airplane,270,0107_rot_s06_270_airplane_20_n02690373_15392.png
subject-06,1,108,0.881510972976685,bear,bear,180,0108_rot_s06_180_bear_20_n02132136_4362.png
subject-06,1,109,0.603610038757324,boat,boat,90,0109_rot_s06_90_boat_20_n03344393_4317.png
subject-06,1,110,1.01042008399963,boat,boat,180,0110_rot_s06_180_boat_20_n04273569_22591.png
subject-06,1,111,0.756868839263916,knife,knife,270,0111_rot_s06_270_knife_20_n03041632_44269.png
subject-06,1,112,0.971297025680542,elephant,elephant,180,0112_rot_s06_180_elephant_20_n02504013_3023.png
subject-06,1,113,0.80156397819519,chair,chair,90,0113_rot_s06_90_chair_20_n04429376_5067.png
subject-06,1,114,1.00776886940002,dog,dog,270,0114_rot_s06_270_dog_20_n02105056_14467.png
subject-06,1,115,0.544632911682129,boat,boat,180,0115_rot_s06_180_boat_20_n02951358_3775.png
subject-06,1,116,0.612769842147827,clock,clock,90,0116_rot_s06_90_clock_20_n02708093_5803.png
subject-06,1,117,NaN,na,chair,270,0117_rot_s06_270_chair_20_n04429376_2478.png
subject-06,1,118,0.917528867721558,bird,bird,90,0118_rot_s06_90_bird_20_n01824575_8708.png
subject-06,1,119,0.863203048706055,chair,oven,90,0119_rot_s06_90_oven_20_n04111531_6128.png
subject-06,1,120,1.17790293693542,keyboard,keyboard,0,0120_rot_s06_0_keyboard_20_n03085013_21769.png
subject-06,1,121,1.11428904533386,clock,clock,270,0121_rot_s06_270_clock_20_n04548280_5470.png
subject-06,1,122,0.852864980697632,bicycle,bicycle,270,0122_rot_s06_270_bicycle_20_n02835271_6935.png
subject-06,1,123,0.713011026382446,clock,clock,90,0123_rot_s06_90_clock_20_n04548280_1097.png
subject-06,1,124,1.02708005905151,clock,knife,0,0124_rot_s06_0_knife_20_n03041632_14801.png
subject-06,1,125,1.47944808006287,clock,keyboard,90,0125_rot_s06_90_keyboard_20_n03085013_24111.png
subject-06,1,126,0.847648859024048,bear,bear,180,0126_rot_s06_180_bear_20_n02132136_2121.png
subject-06,1,127,0.532280921936035,airplane,airplane,270,0127_rot_s06_270_airplane_20_n02690373_12929.png
subject-06,1,128,0.570420026779175,bicycle,bicycle,180,0128_rot_s06_180_bicycle_20_n02835271_1573.png
subject-06,1,129,1.08277010917664,oven,oven,180,0129_rot_s06_180_oven_20_n04111531_3580.png
subject-06,1,130,1.12123799324036,airplane,airplane,90,0130_rot_s06_90_airplane_20_n02690373_19353.png
subject-06,1,131,0.973645925521851,bicycle,bicycle,90,0131_rot_s06_90_bicycle_20_n03792782_9512.png
subject-06,1,132,1.21798706054688,airplane,truck,90,0132_rot_s06_90_truck_20_n03417042_999.png
subject-06,1,133,1.18588995933533,elephant,knife,0,0133_rot_s06_0_knife_20_n03041632_24384.png
subject-06,1,134,NaN,na,bird,90,0134_rot_s06_90_bird_20_n01855032_5351.png
subject-06,1,135,0.914792776107788,bird,bird,270,0135_rot_s06_270_bird_20_n02009912_778.png
subject-06,1,136,0.897044897079468,keyboard,keyboard,270,0136_rot_s06_270_keyboard_20_n03085013_15785.png
subject-06,1,137,0.797353029251099,knife,knife,0,0137_rot_s06_0_knife_20_n03041632_44738.png
subject-06,1,138,0.757341146469116,bicycle,bicycle,0,0138_rot_s06_0_bicycle_20_n03792782_828.png
subject-06,1,139,0.917848110198975,bicycle,bicycle,0,0139_rot_s06_0_bicycle_20_n02835271_23845.png
subject-06,1,140,0.854387998580933,airplane,airplane,90,0140_rot_s06_90_airplane_20_n02690373_848.png
subject-06,1,141,0.714398145675659,dog,dog,0,0141_rot_s06_0_dog_20_n02094433_2387.png
subject-06,1,142,0.890864133834839,clock,clock,90,0142_rot_s06_90_clock_20_n03196217_5493.png
subject-06,1,143,0.965337038040161,bottle,oven,90,0143_rot_s06_90_oven_20_n04111531_6923.png
subject-06,1,144,0.635578870773315,cat,cat,270,0144_rot_s06_270_cat_20_n02123394_2751.png
subject-06,1,145,0.617151021957397,clock,clock,270,0145_rot_s06_270_clock_20_n02708093_3790.png
subject-06,1,146,0.89329195022583,knife,knife,270,0146_rot_s06_270_knife_20_n03041632_22472.png
subject-06,1,147,1.02161693572998,truck,truck,180,0147_rot_s06_180_truck_20_n04467665_67927.png
subject-06,1,148,NaN,na,oven,90,0148_rot_s06_90_oven_20_n04111531_5643.png
subject-06,1,149,0.982670783996582,keyboard,keyboard,180,0149_rot_s06_180_keyboard_20_n04505470_1118.png
subject-06,1,150,0.811036109924316,elephant,elephant,0,0150_rot_s06_0_elephant_20_n02504013_8028.png
subject-06,1,151,0.632992029190063,dog,dog,0,0151_rot_s06_0_dog_20_n02110185_3861.png
subject-06,1,152,0.639738082885742,airplane,airplane,180,0152_rot_s06_180_airplane_20_n02690373_9529.png
subject-06,1,153,1.00257301330566,dog,dog,0,0153_rot_s06_0_dog_20_n02091467_8784.png
subject-06,1,154,0.860740900039673,oven,oven,180,0154_rot_s06_180_oven_20_n04111531_21120.png
subject-06,1,155,1.50009298324585,airplane,airplane,180,0155_rot_s06_180_airplane_20_n02690373_15097.png
subject-06,1,156,1.38914203643799,keyboard,keyboard,270,0156_rot_s06_270_keyboard_20_n03085013_24296.png
subject-06,1,157,0.665807962417603,chair,chair,270,0157_rot_s06_270_chair_20_n03376595_13067.png
subject-06,1,158,0.903985023498535,bicycle,bicycle,270,0158_rot_s06_270_bicycle_20_n03792782_24722.png
subject-06,1,159,0.563570022583008,cat,cat,0,0159_rot_s06_0_cat_20_n02123159_5257.png
subject-06,1,160,0.861900806427002,chair,chair,180,0160_rot_s06_180_chair_20_n02791124_307.png
subject-06,1,161,0.885152816772461,airplane,airplane,0,0161_rot_s06_0_airplane_20_n02690373_8611.png
subject-06,1,162,0.51565408706665,boat,boat,90,0162_rot_s06_90_boat_20_n04612504_14714.png
subject-06,1,163,0.914082050323486,bird,bird,180,0163_rot_s06_180_bird_20_n01601694_19469.png
subject-06,1,164,0.898108005523682,knife,knife,0,0164_rot_s06_0_knife_20_n03041632_40887.png
subject-06,1,165,0.720631122589111,elephant,elephant,0,0165_rot_s06_0_elephant_20_n02504013_4731.png
subject-06,1,166,0.852283000946045,bear,bear,90,0166_rot_s06_90_bear_20_n02133161_3203.png
subject-06,1,167,0.696628093719482,bottle,bottle,270,0167_rot_s06_270_bottle_20_n02823428_4172.png
subject-06,1,168,0.672711849212646,boat,boat,0,0168_rot_s06_0_boat_20_n04612504_10725.png
subject-06,1,169,1.40155911445618,bird,airplane,90,0169_rot_s06_90_airplane_20_n02690373_1821.png
subject-06,1,170,1.0698709487915,cat,cat,270,0170_rot_s06_270_cat_20_n02123597_5968.png
subject-06,1,171,0.724357843399048,oven,oven,180,0171_rot_s06_180_oven_20_n04111531_3886.png
subject-06,1,172,0.722899198532104,knife,knife,0,0172_rot_s06_0_knife_20_n03041632_11797.png
subject-06,1,173,0.66935396194458,bicycle,bicycle,0,0173_rot_s06_0_bicycle_20_n03792782_586.png
subject-06,1,174,0.97350001335144,clock,clock,0,0174_rot_s06_0_clock_20_n04548280_5120.png
subject-06,1,175,0.903516054153442,bear,bear,0,0175_rot_s06_0_bear_20_n02134418_4883.png
subject-06,1,176,0.626020908355713,cat,cat,0,0176_rot_s06_0_cat_20_n02123597_25.png
subject-06,1,177,0.740524053573608,clock,clock,0,0177_rot_s06_0_clock_20_n04548280_8942.png
subject-06,1,178,0.985030174255371,bottle,bottle,180,0178_rot_s06_180_bottle_20_n04591713_16610.png
subject-06,1,179,1.31326007843018,bottle,knife,180,0179_rot_s06_180_knife_20_n03041632_20217.png
subject-06,1,180,0.635628938674927,clock,clock,180,0180_rot_s06_180_clock_20_n04548280_5136.png
subject-06,1,181,0.590113878250122,boat,boat,270,0181_rot_s06_270_boat_20_n03344393_8394.png
subject-06,1,182,0.926707983016968,car,car,90,0182_rot_s06_90_car_20_n04285008_11390.png
subject-06,1,183,0.740966081619263,bottle,bottle,270,0183_rot_s06_270_bottle_20_n04591713_16751.png
subject-06,1,184,1.48531699180603,bear,bear,180,0184_rot_s06_180_bear_20_n02134418_2162.png
subject-06,1,185,1.42949795722961,keyboard,keyboard,90,0185_rot_s06_90_keyboard_20_n03085013_23552.png
subject-06,1,186,0.487210035324097,clock,clock,0,0186_rot_s06_0_clock_20_n04548280_8971.png
subject-06,1,187,0.723051071166992,elephant,elephant,0,0187_rot_s06_0_elephant_20_n02504013_1560.png
subject-06,1,188,1.0136559009552,bear,bear,0,0188_rot_s06_0_bear_20_n02132136_15450.png
subject-06,1,189,1.11957502365112,bird,bird,180,0189_rot_s06_180_bird_20_n02002724_2233.png
subject-06,1,190,0.795797824859619,dog,dog,90,0190_rot_s06_90_dog_20_n02108422_4246.png
subject-06,1,191,1.09431004524231,airplane,airplane,0,0191_rot_s06_0_airplane_20_n02690373_2676.png
subject-06,1,192,0.933212995529175,bird,bird,180,0192_rot_s06_180_bird_20_n01614925_3265.png
subject-06,1,193,0.931527853012085,chair,chair,90,0193_rot_s06_90_chair_20_n02791124_9050.png
subject-06,1,194,1.22210597991943,boat,boat,270,0194_rot_s06_270_boat_20_n03344393_6474.png
subject-06,1,195,0.806504011154175,car,car,270,0195_rot_s06_270_car_20_n04285008_13865.png
subject-06,1,196,0.758806943893433,bottle,bottle,90,0196_rot_s06_90_bottle_20_n03983396_2076.png
subject-06,1,197,1.15737509727478,bottle,bottle,90,0197_rot_s06_90_bottle_20_n04579145_5377.png
subject-06,1,198,0.83364200592041,clock,clock,180,0198_rot_s06_180_clock_20_n03196217_886.png
subject-06,1,199,0.840095996856689,bird,bird,0,0199_rot_s06_0_bird_20_n02027492_7138.png
subject-06,1,200,1.0246729850769,keyboard,keyboard,180,0200_rot_s06_180_keyboard_20_n04505470_3314.png
subject-06,1,201,1.07708096504211,elephant,elephant,180,0201_rot_s06_180_elephant_20_n02504458_7973.png
subject-06,1,202,0.921336889266968,bottle,bottle,270,0202_rot_s06_270_bottle_20_n04557648_10582.png
subject-06,1,203,1.03257012367249,elephant,elephant,270,0203_rot_s06_270_elephant_20_n02504458_7994.png
subject-06,1,204,1.40909600257874,airplane,airplane,270,0204_rot_s06_270_airplane_20_n02690373_10309.png
subject-06,1,205,0.801634073257446,cat,cat,0,0205_rot_s06_0_cat_20_n02124075_9591.png
subject-06,1,206,1.3141930103302,elephant,elephant,0,0206_rot_s06_0_elephant_20_n02504458_11785.png
subject-06,1,207,0.798398017883301,boat,boat,90,0207_rot_s06_90_boat_20_n04612504_37562.png
subject-06,1,208,0.934978008270264,boat,boat,0,0208_rot_s06_0_boat_20_n03662601_12531.png
subject-06,1,209,0.919229984283447,dog,dog,180,0209_rot_s06_180_dog_20_n02093754_4889.png
subject-06,1,210,0.865657091140747,car,car,90,0210_rot_s06_90_car_20_n02814533_62199.png
subject-06,1,211,1.16410684585571,airplane,airplane,90,0211_rot_s06_90_airplane_20_n02690373_787.png
subject-06,1,212,1.23037219047546,bear,dog,270,0212_rot_s06_270_dog_20_n02093859_4477.png
subject-06,1,213,0.830636978149414,bottle,bottle,0,0213_rot_s06_0_bottle_20_n03983396_21452.png
subject-06,1,214,0.983242034912109,elephant,bird,90,0214_rot_s06_90_bird_20_n02028035_2898.png
subject-06,1,215,0.751590013504028,cat,cat,90,0215_rot_s06_90_cat_20_n02125311_7883.png
subject-06,1,216,1.25001907348633,airplane,airplane,180,0216_rot_s06_180_airplane_20_n02690373_4649.png
subject-06,1,217,0.710068941116333,dog,dog,180,0217_rot_s06_180_dog_20_n02089973_10186.png
subject-06,1,218,0.756704092025757,bottle,bottle,270,0218_rot_s06_270_bottle_20_n04591713_5873.png
subject-06,1,219,0.763067007064819,dog,dog,90,0219_rot_s06_90_dog_20_n02102973_8183.png
subject-06,1,220,1.12321996688843,dog,dog,270,0220_rot_s06_270_dog_20_n02094433_1082.png
subject-06,1,221,0.867806911468506,bicycle,bicycle,180,0221_rot_s06_180_bicycle_20_n03792782_6413.png
subject-06,1,222,0.719938993453979,clock,clock,270,0222_rot_s06_270_clock_20_n04548280_4560.png
subject-06,1,223,1.50010704994202,clock,keyboard,180,0223_rot_s06_180_keyboard_20_n03085013_20792.png
subject-06,1,224,1.11054301261902,dog,dog,90,0224_rot_s06_90_dog_20_n02093428_4190.png
subject-06,1,225,0.800752878189087,dog,dog,0,0225_rot_s06_0_dog_20_n02102480_3271.png
subject-06,1,226,0.944945812225342,bottle,bottle,90,0226_rot_s06_90_bottle_20_n02823428_3934.png
subject-06,1,227,1.12135887145996,elephant,elephant,90,0227_rot_s06_90_elephant_20_n02504458_12217.png
subject-06,1,228,NaN,na,chair,0,0228_rot_s06_0_chair_20_n02791124_3326.png
subject-06,1,229,0.712086200714111,keyboard,keyboard,0,0229_rot_s06_0_keyboard_20_n03085013_7536.png
subject-06,1,230,NaN,na,keyboard,90,0230_rot_s06_90_keyboard_20_n03085013_19882.png
subject-06,1,231,0.716488838195801,cat,keyboard,90,0231_rot_s06_90_keyboard_20_n03085013_23295.png
subject-06,1,232,0.638768911361694,car,car,90,0232_rot_s06_90_car_20_n02814533_30383.png
subject-06,1,233,0.813428163528442,car,car,0,0233_rot_s06_0_car_20_n04285008_826.png
subject-06,1,234,0.667815923690796,airplane,airplane,90,0234_rot_s06_90_airplane_20_n02690373_9241.png
subject-06,1,235,0.637886047363281,clock,chair,270,0235_rot_s06_270_chair_20_n04429376_10247.png
subject-06,1,236,0.714177846908569,bottle,bottle,0,0236_rot_s06_0_bottle_20_n03983396_14652.png
subject-06,1,237,0.858734846115112,bird,bird,90,0237_rot_s06_90_bird_20_n02037110_9056.png
subject-06,1,238,0.826282978057861,chair,chair,90,0238_rot_s06_90_chair_20_n04429376_21809.png
subject-06,1,239,0.516267061233521,keyboard,keyboard,180,0239_rot_s06_180_keyboard_20_n03085013_4935.png
subject-06,1,240,0.646897077560425,bicycle,bicycle,180,0240_rot_s06_180_bicycle_20_n02835271_19551.png
subject-06,1,241,0.867314100265503,car,car,90,0241_rot_s06_90_car_20_n04285008_6855.png
subject-06,1,242,1.18140196800232,car,car,180,0242_rot_s06_180_car_20_n03100240_1428.png
subject-06,1,243,0.979938983917236,bird,bird,90,0243_rot_s06_90_bird_20_n02018795_1440.png
subject-06,1,244,0.886331081390381,keyboard,keyboard,270,0244_rot_s06_270_keyboard_20_n04505470_4061.png
subject-06,1,245,0.801165103912354,car,bottle,90,0245_rot_s06_90_bottle_20_n04591713_3393.png
subject-06,1,246,0.631242990493774,bicycle,bicycle,90,0246_rot_s06_90_bicycle_20_n02835271_20920.png
subject-06,1,247,0.661498785018921,cat,cat,180,0247_rot_s06_180_cat_20_n02123045_6833.png
subject-06,1,248,1.02820682525635,elephant,oven,0,0248_rot_s06_0_oven_20_n04111531_10672.png
subject-06,1,249,1.19677305221558,bicycle,bicycle,90,0249_rot_s06_90_bicycle_20_n03792782_7050.png
subject-06,1,250,1.17916178703308,bear,bear,90,0250_rot_s06_90_bear_20_n02133161_4416.png
subject-06,1,251,0.803550958633423,bicycle,bird,180,0251_rot_s06_180_bird_20_n01833805_4358.png
subject-06,1,252,1.04557800292969,dog,dog,0,0252_rot_s06_0_dog_20_n02089078_8273.png
subject-06,1,253,0.845834016799927,airplane,airplane,180,0253_rot_s06_180_airplane_20_n02690373_9328.png
subject-06,1,254,1.20406079292297,chair,chair,0,0254_rot_s06_0_chair_20_n02791124_6492.png
subject-06,1,255,0.650058031082153,boat,boat,180,0255_rot_s06_180_boat_20_n04612504_9399.png
subject-06,1,256,0.794188976287842,oven,oven,0,0256_rot_s06_0_oven_20_n04111531_190.png
subject-06,1,257,0.930964946746826,oven,oven,180,0257_rot_s06_180_oven_20_n04111531_6313.png
subject-06,1,258,1.0615599155426,bear,bear,270,0258_rot_s06_270_bear_20_n02133161_14164.png
subject-06,1,259,1.10546493530273,clock,clock,270,0259_rot_s06_270_clock_20_n03196217_4486.png
subject-06,1,260,0.944246053695679,bottle,bottle,270,0260_rot_s06_270_bottle_20_n03983396_984.png
subject-06,1,261,1.07194113731384,bicycle,knife,180,0261_rot_s06_180_knife_20_n03041632_92063.png
subject-06,1,262,1.2218189239502,bear,bear,0,0262_rot_s06_0_bear_20_n02133161_5910.png
subject-06,1,263,0.776005029678345,cat,cat,90,0263_rot_s06_90_cat_20_n02125311_39790.png
subject-06,1,264,0.79840087890625,boat,boat,0,0264_rot_s06_0_boat_20_n03344393_7870.png
subject-06,1,265,0.819066047668457,car,car,90,0265_rot_s06_90_car_20_n02814533_75491.png
subject-06,1,266,0.908849000930786,bear,elephant,90,0266_rot_s06_90_elephant_20_n02504013_7659.png
subject-06,1,267,0.869575977325439,cat,cat,0,0267_rot_s06_0_cat_20_n02123159_1787.png
subject-06,1,268,0.846066951751709,oven,oven,0,0268_rot_s06_0_oven_20_n04111531_5212.png
subject-06,1,269,0.814151048660278,bottle,oven,0,0269_rot_s06_0_oven_20_n04111531_8421.png
subject-06,1,270,0.971765995025635,boat,bear,180,0270_rot_s06_180_bear_20_n02132136_32117.png
subject-06,1,271,1.04551696777344,elephant,elephant,90,0271_rot_s06_90_elephant_20_n02504458_5648.png
subject-06,1,272,0.83803915977478,oven,oven,0,0272_rot_s06_0_oven_20_n04111531_5533.png
subject-06,1,273,0.915377140045166,keyboard,keyboard,0,0273_rot_s06_0_keyboard_20_n04505470_459.png
subject-06,1,274,0.775573968887329,chair,chair,270,0274_rot_s06_270_chair_20_n04429376_17336.png
subject-06,1,275,1.16590189933777,elephant,elephant,270,0275_rot_s06_270_elephant_20_n02504458_7565.png
subject-06,1,276,1.14027190208435,chair,chair,270,0276_rot_s06_270_chair_20_n02791124_8321.png
subject-06,1,277,0.670509099960327,boat,boat,0,0277_rot_s06_0_boat_20_n04612504_1713.png
subject-06,1,278,0.830950975418091,cat,cat,270,0278_rot_s06_270_cat_20_n02124075_13812.png
subject-06,1,279,1.02166104316711,bear,bear,0,0279_rot_s06_0_bear_20_n02132136_21799.png
subject-06,1,280,0.673700094223022,chair,oven,0,0280_rot_s06_0_oven_20_n04111531_13006.png
subject-06,1,281,0.755860090255737,cat,keyboard,90,0281_rot_s06_90_keyboard_20_n03085013_1200.png
subject-06,1,282,0.794261932373047,elephant,elephant,180,0282_rot_s06_180_elephant_20_n02504458_4083.png
subject-06,1,283,0.985033988952637,bird,bird,90,0283_rot_s06_90_bird_20_n01796340_8294.png
subject-06,1,284,0.85322904586792,keyboard,keyboard,0,0284_rot_s06_0_keyboard_20_n04505470_5150.png
subject-06,1,285,0.63579797744751,oven,oven,0,0285_rot_s06_0_oven_20_n04111531_2960.png
subject-06,1,286,1.01786494255066,boat,boat,180,0286_rot_s06_180_boat_20_n03662601_22266.png
subject-06,1,287,0.794635057449341,car,car,0,0287_rot_s06_0_car_20_n03100240_7546.png
subject-06,1,288,0.738992929458618,bird,bird,0,0288_rot_s06_0_bird_20_n02027492_9433.png
subject-06,1,289,0.623614072799683,oven,oven,90,0289_rot_s06_90_oven_20_n04111531_1391.png
subject-06,1,290,1.18183588981628,airplane,airplane,270,0290_rot_s06_270_airplane_20_n02690373_5524.png
subject-06,1,291,0.874305963516235,knife,knife,0,0291_rot_s06_0_knife_20_n03041632_25331.png
subject-06,1,292,0.542671918869019,cat,cat,270,0292_rot_s06_270_cat_20_n02125311_2043.png
subject-06,1,293,0.633052825927734,car,car,0,0293_rot_s06_0_car_20_n02814533_71946.png
subject-06,1,294,1.08481597900391,elephant,elephant,0,0294_rot_s06_0_elephant_20_n02504458_5493.png
subject-06,1,295,1.50027298927307,knife,knife,270,0295_rot_s06_270_knife_20_n03041632_39883.png
subject-06,1,296,0.922431945800781,bird,bird,270,0296_rot_s06_270_bird_20_n02009229_6375.png
subject-06,1,297,0.742604970932007,bottle,bottle,270,0297_rot_s06_270_bottle_20_n04591713_7453.png
subject-06,1,298,1.12734818458557,bird,bird,180,0298_rot_s06_180_bird_20_n01531178_12992.png
subject-06,1,299,0.863306999206543,airplane,airplane,90,0299_rot_s06_90_airplane_20_n02690373_1233.png
subject-06,1,300,0.769382953643799,bottle,bottle,270,0300_rot_s06_270_bottle_20_n04557648_7490.png
subject-06,1,301,0.676056146621704,car,car,0,0301_rot_s06_0_car_20_n02814533_44208.png
subject-06,1,302,1.09872603416443,dog,dog,270,0302_rot_s06_270_dog_20_n02090721_1810.png
subject-06,1,303,1.00495100021362,elephant,elephant,270,0303_rot_s06_270_elephant_20_n02504013_10898.png
subject-06,1,304,1.10344696044922,truck,truck,270,0304_rot_s06_270_truck_20_n03417042_4349.png
subject-06,1,305,0.994172096252441,elephant,elephant,180,0305_rot_s06_180_elephant_20_n02504458_2794.png
subject-06,1,306,0.456544160842896,boat,boat,90,0306_rot_s06_90_boat_20_n03344393_4754.png
subject-06,1,307,0.705910921096802,airplane,airplane,180,0307_rot_s06_180_airplane_20_n02690373_4946.png
subject-06,1,308,1.09874320030212,bird,bird,270,0308_rot_s06_270_bird_20_n01818515_41714.png
subject-06,1,309,0.780986070632935,elephant,elephant,180,0309_rot_s06_180_elephant_20_n02504458_10086.png
subject-06,1,310,1.21944999694824,bear,bird,0,0310_rot_s06_0_bird_20_n02009229_4479.png
subject-06,1,311,0.625854015350342,airplane,airplane,0,0311_rot_s06_0_airplane_20_n02690373_6535.png
subject-06,1,312,0.786540031433105,bird,bird,270,0312_rot_s06_270_bird_20_n01531178_14345.png
subject-06,1,313,1.02308201789856,bottle,clock,90,0313_rot_s06_90_clock_20_n04548280_3394.png
subject-06,1,314,0.853173017501831,car,car,0,0314_rot_s06_0_car_20_n03100240_5901.png
subject-06,1,315,0.550693988800049,clock,clock,270,0315_rot_s06_270_clock_20_n02708093_1014.png
subject-06,1,316,1.42463517189026,chair,chair,90,0316_rot_s06_90_chair_20_n03376595_489.png
subject-06,1,317,1.38485097885132,dog,dog,0,0317_rot_s06_0_dog_20_n02098286_4123.png
subject-06,1,318,0.737421035766602,oven,boat,270,0318_rot_s06_270_boat_20_n03344393_10344.png
subject-06,1,319,1.1134397983551,car,car,180,0319_rot_s06_180_car_20_n03100240_6491.png
subject-06,1,320,0.941849946975708,bird,bear,0,0320_rot_s06_0_bear_20_n02133161_1446.png
subject-06,1,321,1.00441718101501,chair,chair,270,0321_rot_s06_270_chair_20_n03376595_8702.png
subject-06,1,322,0.848810911178589,keyboard,keyboard,270,0322_rot_s06_270_keyboard_20_n04505470_1484.png
subject-06,1,323,1.00926303863525,bird,bird,90,0323_rot_s06_90_bird_20_n02017213_304.png
subject-06,1,324,0.97806191444397,car,truck,270,0324_rot_s06_270_truck_20_n04467665_1947.png
subject-06,1,325,0.846686840057373,bear,bird,270,0325_rot_s06_270_bird_20_n01824575_3379.png
subject-06,1,326,0.877110958099365,bicycle,bicycle,180,0326_rot_s06_180_bicycle_20_n02835271_10813.png
subject-06,1,327,0.845106840133667,bear,bear,0,0327_rot_s06_0_bear_20_n02134418_3723.png
subject-06,1,328,0.543626070022583,boat,boat,180,0328_rot_s06_180_boat_20_n03662601_4437.png
subject-06,1,329,0.987666130065918,car,car,270,0329_rot_s06_270_car_20_n04285008_6995.png
subject-06,1,330,1.50012397766113,car,boat,270,0330_rot_s06_270_boat_20_n03662601_10500.png
subject-06,1,331,0.770926952362061,oven,knife,0,0331_rot_s06_0_knife_20_n03041632_37274.png
subject-06,1,332,1.22937488555908,elephant,elephant,180,0332_rot_s06_180_elephant_20_n02504458_8060.png
subject-06,1,333,0.699412107467651,chair,chair,270,0333_rot_s06_270_chair_20_n04429376_24505.png
subject-06,1,334,0.673471927642822,chair,chair,180,0334_rot_s06_180_chair_20_n02791124_7942.png
subject-06,1,335,0.941901922225952,airplane,airplane,180,0335_rot_s06_180_airplane_20_n02690373_2091.png
subject-06,1,336,0.964471817016602,truck,truck,270,0336_rot_s06_270_truck_20_n03417042_23546.png
subject-06,1,337,1.05510783195496,bicycle,bicycle,90,0337_rot_s06_90_bicycle_20_n03792782_2525.png
subject-06,1,338,0.977618932723999,bird,bird,90,0338_rot_s06_90_bird_20_n01537544_4497.png
subject-06,1,339,1.13749694824219,bear,bear,180,0339_rot_s06_180_bear_20_n02134084_7315.png
subject-06,1,340,1.23537015914917,airplane,airplane,270,0340_rot_s06_270_airplane_20_n02690373_7107.png
subject-06,1,341,1.11808586120605,elephant,elephant,180,0341_rot_s06_180_elephant_20_n02504458_7085.png
subject-06,1,342,0.702491044998169,chair,chair,180,0342_rot_s06_180_chair_20_n02791124_13800.png
subject-06,1,343,0.784920930862427,car,car,270,0343_rot_s06_270_car_20_n03100240_2454.png
subject-06,1,344,1.11537003517151,bear,bear,180,0344_rot_s06_180_bear_20_n02134084_8215.png
subject-06,1,345,1.02196097373962,cat,cat,90,0345_rot_s06_90_cat_20_n02123159_5427.png
subject-06,1,346,0.974286079406738,airplane,airplane,90,0346_rot_s06_90_airplane_20_n02690373_11799.png
subject-06,1,347,1.38059997558594,bird,bird,270,0347_rot_s06_270_bird_20_n01843065_6025.png
subject-06,1,348,0.786777973175049,bicycle,bicycle,180,0348_rot_s06_180_bicycle_20_n02835271_22206.png
subject-06,1,349,0.977356910705566,cat,knife,270,0349_rot_s06_270_knife_20_n03041632_18859.png
subject-06,1,350,0.96146297454834,airplane,airplane,0,0350_rot_s06_0_airplane_20_n02690373_2232.png
subject-06,1,351,1.19685101509094,cat,elephant,270,0351_rot_s06_270_elephant_20_n02504458_3928.png
subject-06,1,352,1.18733310699463,knife,knife,0,0352_rot_s06_0_knife_20_n03041632_8666.png
subject-06,1,353,1.03957796096802,oven,boat,90,0353_rot_s06_90_boat_20_n03662601_37162.png
subject-06,1,354,1.09216618537903,bicycle,bicycle,90,0354_rot_s06_90_bicycle_20_n03792782_17111.png
subject-06,1,355,0.736443042755127,chair,chair,270,0355_rot_s06_270_chair_20_n03376595_17811.png
subject-06,1,356,1.03498816490173,knife,knife,270,0356_rot_s06_270_knife_20_n03041632_13846.png
subject-06,1,357,1.50026512145996,bicycle,dog,270,0357_rot_s06_270_dog_20_n02092002_14461.png
subject-06,1,358,1.27771902084351,dog,dog,0,0358_rot_s06_0_dog_20_n02108000_4331.png
subject-06,1,359,0.656173944473267,boat,boat,270,0359_rot_s06_270_boat_20_n02951358_55387.png
subject-06,1,360,1.30682015419006,dog,dog,180,0360_rot_s06_180_dog_20_n02106550_407.png
subject-06,1,361,1.14315485954285,bicycle,bird,270,0361_rot_s06_270_bird_20_n01824575_4323.png
subject-06,1,362,1.47332406044006,bottle,bottle,180,0362_rot_s06_180_bottle_20_n03937543_4098.png
subject-06,1,363,1.11758613586426,clock,clock,270,0363_rot_s06_270_clock_20_n04548280_5013.png
subject-06,1,364,1.00788307189941,elephant,elephant,0,0364_rot_s06_0_elephant_20_n02504458_1140.png
subject-06,1,365,0.984380006790161,bird,bird,180,0365_rot_s06_180_bird_20_n02033041_4412.png
subject-06,1,366,0.898100852966309,airplane,airplane,270,0366_rot_s06_270_airplane_20_n02690373_3074.png
subject-06,1,367,0.842077016830444,car,car,0,0367_rot_s06_0_car_20_n04285008_6027.png
subject-06,1,368,0.924175024032593,cat,cat,0,0368_rot_s06_0_cat_20_n02123045_7804.png
subject-06,1,369,0.938482046127319,oven,oven,90,0369_rot_s06_90_oven_20_n04111531_11116.png
subject-06,1,370,0.85295581817627,boat,boat,0,0370_rot_s06_0_boat_20_n04612504_10936.png
subject-06,1,371,0.951412916183472,cat,cat,180,0371_rot_s06_180_cat_20_n02123045_7902.png
subject-06,1,372,0.857954978942871,boat,boat,180,0372_rot_s06_180_boat_20_n03662601_35937.png
subject-06,1,373,1.12446713447571,airplane,airplane,90,0373_rot_s06_90_airplane_20_n02690373_8521.png
subject-06,1,374,0.900766849517822,elephant,elephant,90,0374_rot_s06_90_elephant_20_n02504458_259.png
subject-06,1,375,0.991023063659668,airplane,airplane,0,0375_rot_s06_0_airplane_20_n02690373_3065.png
subject-06,1,376,0.697118997573853,cat,cat,90,0376_rot_s06_90_cat_20_n02123597_760.png
subject-06,1,377,1.1012110710144,chair,chair,180,0377_rot_s06_180_chair_20_n04099969_19901.png
subject-06,1,378,0.769853115081787,truck,truck,0,0378_rot_s06_0_truck_20_n04467665_2349.png
subject-06,1,379,1.12237095832825,chair,chair,0,0379_rot_s06_0_chair_20_n04429376_1058.png
subject-06,1,380,0.944523096084595,chair,chair,180,0380_rot_s06_180_chair_20_n04099969_3951.png
subject-06,1,381,0.804869890213013,clock,clock,0,0381_rot_s06_0_clock_20_n03196217_4434.png
subject-06,1,382,0.85737419128418,clock,clock,90,0382_rot_s06_90_clock_20_n03196217_8329.png
subject-06,1,383,0.725633859634399,cat,cat,270,0383_rot_s06_270_cat_20_n02123597_8247.png
subject-06,1,384,0.784030914306641,knife,knife,270,0384_rot_s06_270_knife_20_n03041632_27848.png
subject-06,1,385,NaN,na,elephant,270,0385_rot_s06_270_elephant_20_n02504458_1652.png
subject-06,1,386,0.582969903945923,boat,boat,270,0386_rot_s06_270_boat_20_n03344393_7857.png
subject-06,1,387,1.0955228805542,oven,cat,180,0387_rot_s06_180_cat_20_n02123597_7835.png
subject-06,1,388,1.04228711128235,bird,bird,90,0388_rot_s06_90_bird_20_n01833805_7157.png
subject-06,1,389,0.823529005050659,car,car,270,0389_rot_s06_270_car_20_n02814533_84139.png
subject-06,1,390,0.872997999191284,bird,bird,270,0390_rot_s06_270_bird_20_n01592084_1850.png
subject-06,1,391,1.29345703125,truck,truck,0,0391_rot_s06_0_truck_20_n03796401_11272.png
subject-06,1,392,0.777305126190186,knife,bird,180,0392_rot_s06_180_bird_20_n01532829_5633.png
subject-06,1,393,1.36005616188049,bottle,bottle,90,0393_rot_s06_90_bottle_20_n04560804_175.png
subject-06,1,394,0.858381986618042,bicycle,bicycle,90,0394_rot_s06_90_bicycle_20_n02835271_6816.png
subject-06,1,395,0.848572015762329,chair,chair,0,0395_rot_s06_0_chair_20_n02791124_3977.png
subject-06,1,396,0.717247009277344,oven,oven,270,0396_rot_s06_270_oven_20_n04111531_10375.png
subject-06,1,397,0.669690847396851,oven,oven,90,0397_rot_s06_90_oven_20_n04111531_1073.png
subject-06,1,398,0.813530921936035,bottle,bottle,90,0398_rot_s06_90_bottle_20_n04579145_1818.png
subject-06,1,399,0.91202712059021,bicycle,bicycle,270,0399_rot_s06_270_bicycle_20_n02835271_20177.png
subject-06,1,400,0.863361120223999,dog,dog,0,0400_rot_s06_0_dog_20_n02106030_6323.png
subject-06,1,401,1.05388903617859,truck,truck,90,0401_rot_s06_90_truck_20_n03796401_7002.png
subject-06,1,402,0.690219879150391,keyboard,keyboard,180,0402_rot_s06_180_keyboard_20_n03085013_2149.png
subject-06,1,403,0.829004049301147,car,car,90,0403_rot_s06_90_car_20_n04285008_536.png
subject-06,1,404,0.703450918197632,clock,clock,270,0404_rot_s06_270_clock_20_n03196217_4578.png
subject-06,1,405,0.79361891746521,bear,bear,0,0405_rot_s06_0_bear_20_n02134084_6286.png
subject-06,1,406,1.12187910079956,bear,bear,180,0406_rot_s06_180_bear_20_n02132136_7206.png
subject-06,1,407,1.35846495628357,dog,dog,180,0407_rot_s06_180_dog_20_n02107908_4885.png
subject-06,1,408,0.872894048690796,keyboard,keyboard,0,0408_rot_s06_0_keyboard_20_n04505470_4827.png
subject-06,1,409,1.13301301002502,bird,bird,90,0409_rot_s06_90_bird_20_n01534433_1189.png
subject-06,1,410,1.20990896224976,bird,bird,0,0410_rot_s06_0_bird_20_n02013706_15125.png
subject-06,1,411,0.837950944900513,truck,truck,0,0411_rot_s06_0_truck_20_n04467665_4639.png
subject-06,1,412,1.50023794174194,chair,chair,180,0412_rot_s06_180_chair_20_n04429376_57985.png
subject-06,1,413,0.897310018539429,cat,cat,180,0413_rot_s06_180_cat_20_n02124075_380.png
subject-06,1,414,0.965404987335205,keyboard,keyboard,90,0414_rot_s06_90_keyboard_20_n03085013_17606.png
subject-06,1,415,1.34011197090149,bicycle,bicycle,180,0415_rot_s06_180_bicycle_20_n03792782_6380.png
subject-06,1,416,0.654086828231812,oven,oven,0,0416_rot_s06_0_oven_20_n04111531_4346.png
subject-06,1,417,NaN,na,dog,0,0417_rot_s06_0_dog_20_n02102973_5981.png
subject-06,1,418,0.664582014083862,boat,boat,0,0418_rot_s06_0_boat_20_n03662601_1158.png
subject-06,1,419,0.79515814781189,car,car,0,0419_rot_s06_0_car_20_n03100240_4674.png
subject-06,1,420,0.98523998260498,clock,chair,270,0420_rot_s06_270_chair_20_n03376595_10095.png
subject-06,1,421,0.859673976898193,airplane,airplane,180,0421_rot_s06_180_airplane_20_n02690373_4839.png
subject-06,1,422,0.711787939071655,oven,oven,0,0422_rot_s06_0_oven_20_n04111531_6346.png
subject-06,1,423,0.942279100418091,bear,bear,180,0423_rot_s06_180_bear_20_n02134084_1871.png
subject-06,1,424,1.14665198326111,bottle,bottle,90,0424_rot_s06_90_bottle_20_n04557648_516.png
subject-06,1,425,1.49047112464905,elephant,elephant,270,0425_rot_s06_270_elephant_20_n02504458_4909.png
subject-06,1,426,0.767302989959717,keyboard,keyboard,270,0426_rot_s06_270_keyboard_20_n03085013_18214.png
subject-06,1,427,0.965689897537231,knife,knife,180,0427_rot_s06_180_knife_20_n03041632_9406.png
subject-06,1,428,0.825929164886475,cat,cat,0,0428_rot_s06_0_cat_20_n02123597_14774.png
subject-06,1,429,0.81665301322937,chair,chair,90,0429_rot_s06_90_chair_20_n03376595_1302.png
subject-06,1,430,0.930869102478027,dog,dog,180,0430_rot_s06_180_dog_20_n02107312_4209.png
subject-06,1,431,0.828999996185303,knife,knife,90,0431_rot_s06_90_knife_20_n03041632_37949.png
subject-06,1,432,0.597331047058105,clock,clock,180,0432_rot_s06_180_clock_20_n02708093_596.png
subject-06,1,433,0.909332990646362,dog,dog,0,0433_rot_s06_0_dog_20_n02100735_8.png
subject-06,1,434,0.837754011154175,elephant,elephant,90,0434_rot_s06_90_elephant_20_n02504458_8219.png
subject-06,1,435,1.45197796821594,truck,truck,180,0435_rot_s06_180_truck_20_n04467665_4093.png
subject-06,1,436,1.3645761013031,truck,truck,0,0436_rot_s06_0_truck_20_n03417042_28610.png
subject-06,1,437,0.640820980072021,chair,chair,180,0437_rot_s06_180_chair_20_n02791124_13960.png
subject-06,1,438,0.587222099304199,cat,cat,180,0438_rot_s06_180_cat_20_n02123394_5470.png
subject-06,1,439,0.59374213218689,chair,chair,180,0439_rot_s06_180_chair_20_n04099969_2113.png
subject-06,1,440,1.19815611839294,bear,bear,90,0440_rot_s06_90_bear_20_n02134418_6088.png
subject-06,1,441,1.19680786132812,car,car,0,0441_rot_s06_0_car_20_n03100240_19460.png
subject-06,1,442,1.20286202430725,airplane,airplane,180,0442_rot_s06_180_airplane_20_n02690373_1161.png
subject-06,1,443,1.0256028175354,chair,chair,180,0443_rot_s06_180_chair_20_n02791124_9967.png
subject-06,1,444,1.2835419178009,elephant,elephant,270,0444_rot_s06_270_elephant_20_n02504458_12938.png
subject-06,1,445,0.90597677230835,chair,knife,270,0445_rot_s06_270_knife_20_n03041632_11613.png
subject-06,1,446,0.850466012954712,chair,oven,270,0446_rot_s06_270_oven_20_n04111531_10403.png
subject-06,1,447,0.756962060928345,cat,cat,180,0447_rot_s06_180_cat_20_n02123394_878.png
subject-06,1,448,0.824280977249146,airplane,airplane,0,0448_rot_s06_0_airplane_20_n02690373_9622.png
subject-06,1,449,0.966392993927002,chair,bicycle,180,0449_rot_s06_180_bicycle_20_n03792782_15627.png
subject-06,1,450,0.842859983444214,bottle,bottle,90,0450_rot_s06_90_bottle_20_n04591713_5635.png
subject-06,1,451,1.2472038269043,car,car,0,0451_rot_s06_0_car_20_n04285008_9388.png
subject-06,1,452,0.655616998672485,boat,boat,0,0452_rot_s06_0_boat_20_n04612504_3657.png
subject-06,1,453,0.814169883728027,truck,truck,0,0453_rot_s06_0_truck_20_n04467665_25097.png
subject-06,1,454,0.958613872528076,cat,cat,270,0454_rot_s06_270_cat_20_n02125311_9071.png
subject-06,1,455,1.02727198600769,oven,oven,0,0455_rot_s06_0_oven_20_n04111531_12308.png
subject-06,1,456,0.933516025543213,keyboard,keyboard,270,0456_rot_s06_270_keyboard_20_n03085013_24156.png
subject-06,1,457,0.999915838241577,elephant,elephant,90,0457_rot_s06_90_elephant_20_n02504013_10773.png
subject-06,1,458,0.860688924789429,cat,cat,180,0458_rot_s06_180_cat_20_n02123597_7150.png
subject-06,1,459,0.582940101623535,oven,oven,180,0459_rot_s06_180_oven_20_n04111531_8984.png
subject-06,1,460,0.673407077789307,boat,boat,270,0460_rot_s06_270_boat_20_n04612504_11532.png
subject-06,1,461,0.663594961166382,keyboard,keyboard,90,0461_rot_s06_90_keyboard_20_n03085013_18876.png
subject-06,1,462,1.26207709312439,clock,clock,270,0462_rot_s06_270_clock_20_n02708093_742.png
subject-06,1,463,1.03034591674805,bear,bear,270,0463_rot_s06_270_bear_20_n02133161_3265.png
subject-06,1,464,0.812644004821777,elephant,elephant,180,0464_rot_s06_180_elephant_20_n02504013_87.png
subject-06,1,465,0.749207019805908,oven,oven,90,0465_rot_s06_90_oven_20_n04111531_23340.png
subject-06,1,466,0.917819976806641,elephant,elephant,0,0466_rot_s06_0_elephant_20_n02504458_1575.png
subject-06,1,467,1.02414488792419,truck,truck,90,0467_rot_s06_90_truck_20_n04467665_49389.png
subject-06,1,468,0.914885997772217,oven,oven,270,0468_rot_s06_270_oven_20_n04111531_2930.png
subject-06,1,469,NaN,na,elephant,90,0469_rot_s06_90_elephant_20_n02504013_2399.png
subject-06,1,470,1.07895112037659,car,car,0,0470_rot_s06_0_car_20_n03100240_12165.png
subject-06,1,471,1.32911705970764,elephant,boat,270,0471_rot_s06_270_boat_20_n02951358_2333.png
subject-06,1,472,0.421862840652466,car,car,0,0472_rot_s06_0_car_20_n03100240_11861.png
subject-06,1,473,0.790377855300903,knife,knife,90,0473_rot_s06_90_knife_20_n03041632_24181.png
subject-06,1,474,1.16488003730774,bottle,bottle,0,0474_rot_s06_0_bottle_20_n03983396_1584.png
subject-06,1,475,0.724833011627197,oven,oven,90,0475_rot_s06_90_oven_20_n04111531_23046.png
subject-06,1,476,0.731297016143799,bottle,bottle,90,0476_rot_s06_90_bottle_20_n02823428_5214.png
subject-06,1,477,0.781002998352051,chair,chair,90,0477_rot_s06_90_chair_20_n03376595_5364.png
subject-06,1,478,1.34131097793579,boat,bird,270,0478_rot_s06_270_bird_20_n02006656_9536.png
subject-06,1,479,1.01002597808838,keyboard,keyboard,90,0479_rot_s06_90_keyboard_20_n04505470_4562.png
subject-06,1,480,0.638428926467896,cat,cat,0,0480_rot_s06_0_cat_20_n02123045_3477.png
subject-06,1,481,0.771920919418335,bottle,bottle,0,0481_rot_s06_0_bottle_20_n04560804_24463.png
subject-06,1,482,0.924789905548096,car,truck,180,0482_rot_s06_180_truck_20_n03417042_5750.png
subject-06,1,483,1.40693712234497,boat,boat,0,0483_rot_s06_0_boat_20_n03662601_6331.png
subject-06,1,484,0.843668937683105,bicycle,bicycle,0,0484_rot_s06_0_bicycle_20_n03792782_139.png
subject-06,1,485,1.02819204330444,bear,bear,270,0485_rot_s06_270_bear_20_n02134084_9586.png
subject-06,1,486,1.25688004493713,bird,bird,0,0486_rot_s06_0_bird_20_n02037110_4572.png
subject-06,1,487,0.900943040847778,keyboard,keyboard,90,0487_rot_s06_90_keyboard_20_n04505470_1787.png
subject-06,1,488,1.11360001564026,bird,bear,0,0488_rot_s06_0_bear_20_n02133161_2993.png
subject-06,1,489,0.998008966445923,elephant,elephant,90,0489_rot_s06_90_elephant_20_n02504013_8497.png
subject-06,1,490,0.704236030578613,bottle,bottle,0,0490_rot_s06_0_bottle_20_n04591713_5671.png
subject-06,1,491,0.778549909591675,bottle,bottle,0,0491_rot_s06_0_bottle_20_n03937543_1808.png
subject-06,1,492,1.33129501342773,bicycle,bicycle,270,0492_rot_s06_270_bicycle_20_n03792782_6841.png
subject-06,1,493,0.721415042877197,oven,oven,90,0493_rot_s06_90_oven_20_n04111531_2797.png
subject-06,1,494,0.75774097442627,cat,cat,90,0494_rot_s06_90_cat_20_n02123597_9606.png
subject-06,1,495,0.787885904312134,bicycle,bicycle,180,0495_rot_s06_180_bicycle_20_n02835271_913.png
subject-06,1,496,1.04621005058289,car,car,180,0496_rot_s06_180_car_20_n03100240_367.png
subject-06,1,497,0.89874792098999,airplane,airplane,270,0497_rot_s06_270_airplane_20_n02690373_1050.png
subject-06,1,498,1.10513401031494,bird,bird,180,0498_rot_s06_180_bird_20_n01514859_6056.png
subject-06,1,499,1.09550905227661,bird,bird,180,0499_rot_s06_180_bird_20_n01818515_36854.png
subject-06,1,500,0.693639039993286,car,car,90,0500_rot_s06_90_car_20_n04285008_1112.png
subject-06,1,501,0.676190137863159,truck,truck,180,0501_rot_s06_180_truck_20_n03417042_27815.png
subject-06,1,502,0.598602056503296,oven,oven,0,0502_rot_s06_0_oven_20_n04111531_249.png
subject-06,1,503,1.17305302619934,bicycle,bicycle,270,0503_rot_s06_270_bicycle_20_n02835271_3448.png
subject-06,1,504,1.37146091461182,bicycle,bicycle,180,0504_rot_s06_180_bicycle_20_n02835271_19394.png
subject-06,1,505,0.861652135848999,keyboard,keyboard,180,0505_rot_s06_180_keyboard_20_n04505470_375.png
subject-06,1,506,0.93822193145752,airplane,airplane,90,0506_rot_s06_90_airplane_20_n02690373_5015.png
subject-06,1,507,0.8905029296875,clock,clock,90,0507_rot_s06_90_clock_20_n02708093_3196.png
subject-06,1,508,1.06507301330566,cat,cat,90,0508_rot_s06_90_cat_20_n02125311_42192.png
subject-06,1,509,1.03059196472168,bicycle,truck,180,0509_rot_s06_180_truck_20_n03417042_6973.png
subject-06,1,510,0.874866008758545,elephant,elephant,0,0510_rot_s06_0_elephant_20_n02504458_1464.png
subject-06,1,511,1.28936409950256,car,car,180,0511_rot_s06_180_car_20_n02814533_4978.png
subject-06,1,512,0.665923833847046,boat,boat,270,0512_rot_s06_270_boat_20_n03344393_3179.png
subject-06,1,513,0.916591882705688,bottle,bottle,0,0513_rot_s06_0_bottle_20_n04579145_423.png
subject-06,1,514,1.02271914482117,airplane,airplane,0,0514_rot_s06_0_airplane_20_n02690373_5176.png
subject-06,1,515,1.35099387168884,bear,bird,90,0515_rot_s06_90_bird_20_n01582220_17996.png
subject-06,1,516,0.78167200088501,boat,boat,0,0516_rot_s06_0_boat_20_n04273569_21583.png
subject-06,1,517,0.701935052871704,bicycle,bicycle,270,0517_rot_s06_270_bicycle_20_n02835271_6641.png
subject-06,1,518,0.870287895202637,knife,knife,0,0518_rot_s06_0_knife_20_n03041632_56454.png
subject-06,1,519,1.48655200004578,airplane,bottle,180,0519_rot_s06_180_bottle_20_n04557648_5273.png
subject-06,1,520,1.45241713523865,cat,bird,0,0520_rot_s06_0_bird_20_n01820546_4217.png
subject-06,1,521,0.858648061752319,keyboard,keyboard,90,0521_rot_s06_90_keyboard_20_n04505470_4797.png
subject-06,1,522,1.0115180015564,bottle,bottle,180,0522_rot_s06_180_bottle_20_n04591713_6473.png
subject-06,1,523,0.541603088378906,airplane,airplane,0,0523_rot_s06_0_airplane_20_n02690373_3993.png
subject-06,1,524,0.908007860183716,elephant,elephant,180,0524_rot_s06_180_elephant_20_n02504458_3287.png
subject-06,1,525,0.936053991317749,boat,boat,180,0525_rot_s06_180_boat_20_n04612504_5965.png
subject-06,1,526,1.21852397918701,oven,oven,270,0526_rot_s06_270_oven_20_n04111531_18052.png
subject-06,1,527,0.954731941223145,keyboard,keyboard,0,0527_rot_s06_0_keyboard_20_n04505470_5561.png
subject-06,1,528,1.08505988121033,truck,truck,270,0528_rot_s06_270_truck_20_n03417042_17470.png
subject-06,1,529,0.721588134765625,oven,oven,90,0529_rot_s06_90_oven_20_n04111531_584.png
subject-06,1,530,0.844259977340698,boat,boat,0,0530_rot_s06_0_boat_20_n04612504_13496.png
subject-06,1,531,0.742593050003052,elephant,elephant,90,0531_rot_s06_90_elephant_20_n02504458_4220.png
subject-06,1,532,0.892736911773682,chair,chair,270,0532_rot_s06_270_chair_20_n03376595_11572.png
subject-06,1,533,0.685096025466919,clock,clock,180,0533_rot_s06_180_clock_20_n04548280_254.png
subject-06,1,534,0.811305046081543,truck,truck,90,0534_rot_s06_90_truck_20_n03417042_7335.png
subject-06,1,535,0.695801019668579,cat,cat,180,0535_rot_s06_180_cat_20_n02123159_3440.png
subject-06,1,536,0.516678094863892,airplane,airplane,90,0536_rot_s06_90_airplane_20_n02690373_2730.png
subject-06,1,537,1.03112387657166,bottle,oven,270,0537_rot_s06_270_oven_20_n04111531_14753.png
subject-06,1,538,1.30556201934814,oven,knife,180,0538_rot_s06_180_knife_20_n03041632_19275.png
subject-06,1,539,0.734009027481079,knife,knife,180,0539_rot_s06_180_knife_20_n03041632_30573.png
subject-06,1,540,NaN,na,dog,90,0540_rot_s06_90_dog_20_n02098286_4414.png
subject-06,1,541,0.676658868789673,bear,bear,180,0541_rot_s06_180_bear_20_n02134418_3584.png
subject-06,1,542,0.59050989151001,airplane,airplane,90,0542_rot_s06_90_airplane_20_n02690373_7293.png
subject-06,1,543,0.903017044067383,bicycle,bicycle,90,0543_rot_s06_90_bicycle_20_n02835271_10778.png
subject-06,1,544,1.00927686691284,bird,bird,0,0544_rot_s06_0_bird_20_n02011460_1872.png
subject-06,1,545,0.706984996795654,cat,cat,0,0545_rot_s06_0_cat_20_n02123045_359.png
subject-06,1,546,0.980363130569458,bicycle,bicycle,180,0546_rot_s06_180_bicycle_20_n02835271_21672.png
subject-06,1,547,1.44664287567139,car,car,270,0547_rot_s06_270_car_20_n03100240_7179.png
subject-06,1,548,1.11921906471252,elephant,elephant,0,0548_rot_s06_0_elephant_20_n02504013_6575.png
subject-06,1,549,1.00991010665894,bird,bear,180,0549_rot_s06_180_bear_20_n02134418_5527.png
subject-06,1,550,0.962287902832031,car,airplane,90,0550_rot_s06_90_airplane_20_n02690373_1441.png
subject-06,1,551,0.798866987228394,oven,oven,180,0551_rot_s06_180_oven_20_n04111531_9490.png
subject-06,1,552,1.13518881797791,bear,bear,270,0552_rot_s06_270_bear_20_n02134084_7489.png
subject-06,1,553,0.91207218170166,bottle,clock,90,0553_rot_s06_90_clock_20_n04548280_8083.png
subject-06,1,554,0.693827867507935,car,car,180,0554_rot_s06_180_car_20_n02814533_22675.png
subject-06,1,555,1.50010514259338,oven,boat,90,0555_rot_s06_90_boat_20_n02951358_3010.png
subject-06,1,556,NaN,na,knife,90,0556_rot_s06_90_knife_20_n03041632_49363.png
subject-06,1,557,0.834717035293579,boat,boat,90,0557_rot_s06_90_boat_20_n03344393_5501.png
subject-06,1,558,1.03878998756409,knife,knife,90,0558_rot_s06_90_knife_20_n03041632_8051.png
subject-06,1,559,1.27491116523743,truck,truck,90,0559_rot_s06_90_truck_20_n03796401_4017.png
subject-06,1,560,0.797509908676147,boat,boat,90,0560_rot_s06_90_boat_20_n04612504_15141.png
subject-06,1,561,1.11012387275696,bird,clock,0,0561_rot_s06_0_clock_20_n03196217_6348.png
subject-06,1,562,0.916462898254395,elephant,elephant,180,0562_rot_s06_180_elephant_20_n02504458_5331.png
subject-06,1,563,1.39883995056152,bear,dog,180,0563_rot_s06_180_dog_20_n02100735_3729.png
subject-06,1,564,1.45116996765137,oven,knife,0,0564_rot_s06_0_knife_20_n03041632_82878.png
subject-06,1,565,1.2094669342041,dog,dog,90,0565_rot_s06_90_dog_20_n02097047_3865.png
subject-06,1,566,0.709725141525269,knife,knife,270,0566_rot_s06_270_knife_20_n03041632_11327.png
subject-06,1,567,0.900512933731079,bottle,bottle,180,0567_rot_s06_180_bottle_20_n02823428_13203.png
subject-06,1,568,1.16685009002686,airplane,airplane,180,0568_rot_s06_180_airplane_20_n02690373_9312.png
subject-06,1,569,1.44943785667419,bicycle,dog,0,0569_rot_s06_0_dog_20_n02102040_993.png
subject-06,1,570,NaN,na,clock,270,0570_rot_s06_270_clock_20_n04548280_132.png
subject-06,1,571,0.832463979721069,boat,boat,0,0571_rot_s06_0_boat_20_n02951358_20116.png
subject-06,1,572,0.677163124084473,bicycle,knife,180,0572_rot_s06_180_knife_20_n03041632_28201.png
subject-06,1,573,0.813751935958862,airplane,airplane,180,0573_rot_s06_180_airplane_20_n02690373_5528.png
subject-06,1,574,0.788143873214722,bicycle,bicycle,90,0574_rot_s06_90_bicycle_20_n03792782_4382.png
subject-06,1,575,1.16246819496155,boat,bird,90,0575_rot_s06_90_bird_20_n02051845_1191.png
subject-06,1,576,0.992917060852051,dog,dog,270,0576_rot_s06_270_dog_20_n02087394_15582.png
subject-06,1,577,1.49999904632568,bicycle,knife,270,0577_rot_s06_270_knife_20_n03041632_84012.png
subject-06,1,578,1.24934697151184,cat,knife,0,0578_rot_s06_0_knife_20_n03041632_44212.png
subject-06,1,579,1.03148508071899,oven,oven,180,0579_rot_s06_180_oven_20_n04111531_14280.png
subject-06,1,580,1.13813185691833,elephant,elephant,180,0580_rot_s06_180_elephant_20_n02504458_6903.png
subject-06,1,581,0.798099994659424,car,car,180,0581_rot_s06_180_car_20_n04285008_4704.png
subject-06,1,582,0.872905969619751,bear,bear,270,0582_rot_s06_270_bear_20_n02132136_10422.png
subject-06,1,583,1.05521607398987,clock,chair,180,0583_rot_s06_180_chair_20_n02791124_2822.png
subject-06,1,584,0.785659074783325,knife,knife,180,0584_rot_s06_180_knife_20_n03041632_5801.png
subject-06,1,585,1.15188598632812,bottle,bottle,90,0585_rot_s06_90_bottle_20_n04591713_5922.png
subject-06,1,586,0.597970962524414,oven,oven,0,0586_rot_s06_0_oven_20_n04111531_5351.png
subject-06,1,587,0.994527816772461,truck,truck,180,0587_rot_s06_180_truck_20_n03417042_29310.png
subject-06,1,588,0.984143972396851,dog,dog,90,0588_rot_s06_90_dog_20_n02087046_3898.png
subject-06,1,589,0.636415004730225,car,car,90,0589_rot_s06_90_car_20_n03100240_1605.png
subject-06,1,590,1.05685997009277,bird,bird,270,0590_rot_s06_270_bird_20_n02037110_1821.png
subject-06,1,591,1.1549551486969,clock,bottle,270,0591_rot_s06_270_bottle_20_n03937543_8652.png
subject-06,1,592,1.14512491226196,bicycle,bottle,270,0592_rot_s06_270_bottle_20_n04560804_27696.png
subject-06,1,593,1.2739691734314,bear,dog,90,0593_rot_s06_90_dog_20_n02101556_12570.png
subject-06,1,594,0.896034002304077,bicycle,bicycle,270,0594_rot_s06_270_bicycle_20_n02835271_650.png
subject-06,1,595,1.50025701522827,bicycle,oven,180,0595_rot_s06_180_oven_20_n04111531_9939.png
subject-06,1,596,1.17682909965515,bottle,bottle,180,0596_rot_s06_180_bottle_20_n04557648_4899.png
subject-06,1,597,1.08312296867371,bicycle,bicycle,90,0597_rot_s06_90_bicycle_20_n02835271_12120.png
subject-06,1,598,0.789393186569214,oven,oven,270,0598_rot_s06_270_oven_20_n04111531_7923.png
subject-06,1,599,0.709740161895752,bicycle,bicycle,180,0599_rot_s06_180_bicycle_20_n02835271_3815.png
subject-06,1,600,0.854104995727539,oven,oven,270,0600_rot_s06_270_oven_20_n04111531_2831.png
subject-06,1,601,1.27470111846924,airplane,airplane,0,0601_rot_s06_0_airplane_20_n02690373_3984.png
subject-06,1,602,0.905303955078125,elephant,elephant,270,0602_rot_s06_270_elephant_20_n02504013_1916.png
subject-06,1,603,0.725471973419189,oven,oven,270,0603_rot_s06_270_oven_20_n04111531_20407.png
subject-06,1,604,0.807332992553711,truck,truck,0,0604_rot_s06_0_truck_20_n04467665_69970.png
subject-06,1,605,1.50013184547424,chair,bicycle,90,0605_rot_s06_90_bicycle_20_n02835271_1076.png
subject-06,1,606,1.17417597770691,bear,bear,0,0606_rot_s06_0_bear_20_n02134418_4951.png
subject-06,1,607,1.0701789855957,airplane,airplane,180,0607_rot_s06_180_airplane_20_n02690373_4128.png
subject-06,1,608,0.70097804069519,bird,bird,0,0608_rot_s06_0_bird_20_n01798484_2632.png
subject-06,1,609,1.14547801017761,truck,truck,90,0609_rot_s06_90_truck_20_n04467665_69877.png
subject-06,1,610,0.732342958450317,bird,bird,270,0610_rot_s06_270_bird_20_n01828970_2029.png
subject-06,1,611,0.946664810180664,bird,bear,90,0611_rot_s06_90_bear_20_n02134418_3519.png
subject-06,1,612,0.944977998733521,knife,knife,270,0612_rot_s06_270_knife_20_n03041632_48149.png
subject-06,1,613,0.935227870941162,knife,knife,90,0613_rot_s06_90_knife_20_n03041632_40450.png
subject-06,1,614,1.13334012031555,bicycle,bicycle,270,0614_rot_s06_270_bicycle_20_n02835271_16104.png
subject-06,1,615,0.923755884170532,boat,boat,90,0615_rot_s06_90_boat_20_n04273569_1482.png
subject-06,1,616,0.768002033233643,airplane,airplane,270,0616_rot_s06_270_airplane_20_n02690373_4895.png
subject-06,1,617,0.882339000701904,bottle,bottle,270,0617_rot_s06_270_bottle_20_n04557648_628.png
subject-06,1,618,0.940820932388306,truck,truck,90,0618_rot_s06_90_truck_20_n04467665_3281.png
subject-06,1,619,0.747066020965576,airplane,airplane,180,0619_rot_s06_180_airplane_20_n02690373_4042.png
subject-06,1,620,0.921150922775269,clock,clock,90,0620_rot_s06_90_clock_20_n02708093_2823.png
subject-06,1,621,1.17397618293762,chair,chair,180,0621_rot_s06_180_chair_20_n02791124_754.png
subject-06,1,622,0.733794927597046,clock,clock,90,0622_rot_s06_90_clock_20_n02708093_459.png
subject-06,1,623,0.510478973388672,oven,oven,90,0623_rot_s06_90_oven_20_n04111531_2630.png
subject-06,1,624,1.38299798965454,keyboard,bottle,180,0624_rot_s06_180_bottle_20_n04557648_8194.png
subject-06,1,625,1.23489785194397,bird,dog,270,0625_rot_s06_270_dog_20_n02097474_5736.png
subject-06,1,626,0.886814117431641,elephant,elephant,90,0626_rot_s06_90_elephant_20_n02504458_4482.png
subject-06,1,627,1.21509790420532,car,car,0,0627_rot_s06_0_car_20_n04285008_1716.png
subject-06,1,628,0.6756751537323,oven,oven,90,0628_rot_s06_90_oven_20_n04111531_11225.png
subject-06,1,629,0.987935066223145,cat,cat,0,0629_rot_s06_0_cat_20_n02123159_8341.png
subject-06,1,630,0.903292894363403,cat,cat,270,0630_rot_s06_270_cat_20_n02123159_14083.png
subject-06,1,631,0.963720083236694,keyboard,bottle,270,0631_rot_s06_270_bottle_20_n04557648_2571.png
subject-06,1,632,0.784949779510498,knife,knife,270,0632_rot_s06_270_knife_20_n03041632_27022.png
subject-06,1,633,0.764559030532837,keyboard,clock,90,0633_rot_s06_90_clock_20_n04548280_4790.png
subject-06,1,634,0.72528600692749,elephant,elephant,0,0634_rot_s06_0_elephant_20_n02504458_359.png
subject-06,1,635,1.22935009002686,oven,boat,90,0635_rot_s06_90_boat_20_n04273569_1288.png
subject-06,1,636,0.997553110122681,airplane,airplane,180,0636_rot_s06_180_airplane_20_n02690373_5217.png
subject-06,1,637,0.719521045684814,chair,chair,0,0637_rot_s06_0_chair_20_n04099969_3689.png
subject-06,1,638,0.593960046768188,bicycle,bicycle,0,0638_rot_s06_0_bicycle_20_n03792782_18746.png
subject-06,1,639,0.716714859008789,airplane,airplane,0,0639_rot_s06_0_airplane_20_n02690373_1071.png
subject-06,1,640,1.12113904953003,cat,dog,0,0640_rot_s06_0_dog_20_n02085936_13741.png
subject-06,1,641,1.25468993186951,keyboard,oven,270,0641_rot_s06_270_oven_20_n04111531_5659.png
subject-06,1,642,0.921175956726074,boat,boat,270,0642_rot_s06_270_boat_20_n02951358_15353.png
subject-06,1,643,1.02741980552673,bear,bear,270,0643_rot_s06_270_bear_20_n02134084_6343.png
subject-06,1,644,1.16402292251587,truck,truck,0,0644_rot_s06_0_truck_20_n04467665_67922.png
subject-06,1,645,1.12229013442993,boat,bear,90,0645_rot_s06_90_bear_20_n02134084_8004.png
subject-06,1,646,0.798855066299438,bird,bird,0,0646_rot_s06_0_bird_20_n01796340_1111.png
subject-06,1,647,0.743216991424561,dog,dog,0,0647_rot_s06_0_dog_20_n02113799_2415.png
subject-06,1,648,0.665817022323608,oven,oven,180,0648_rot_s06_180_oven_20_n04111531_7862.png
subject-06,1,649,0.48646092414856,clock,clock,180,0649_rot_s06_180_clock_20_n03196217_4947.png
subject-06,1,650,0.530879020690918,oven,oven,90,0650_rot_s06_90_oven_20_n04111531_19240.png
subject-06,1,651,0.897548913955688,dog,dog,180,0651_rot_s06_180_dog_20_n02112018_5996.png
subject-06,1,652,0.61156702041626,airplane,airplane,90,0652_rot_s06_90_airplane_20_n02690373_19134.png
subject-06,1,653,0.848189115524292,chair,chair,0,0653_rot_s06_0_chair_20_n03376595_6208.png
subject-06,1,654,1.28456902503967,bicycle,bear,270,0654_rot_s06_270_bear_20_n02132136_19256.png
subject-06,1,655,0.795905828475952,bird,bird,90,0655_rot_s06_90_bird_20_n02007558_275.png
subject-06,1,656,0.870512962341309,bicycle,bicycle,90,0656_rot_s06_90_bicycle_20_n02835271_6374.png
subject-06,1,657,0.61515212059021,chair,chair,0,0657_rot_s06_0_chair_20_n04099969_18571.png
subject-06,1,658,0.737452983856201,elephant,elephant,180,0658_rot_s06_180_elephant_20_n02504013_2796.png
subject-06,1,659,0.749889850616455,airplane,airplane,0,0659_rot_s06_0_airplane_20_n02690373_4055.png
subject-06,1,660,1.24057483673096,boat,boat,0,0660_rot_s06_0_boat_20_n03662601_6037.png
subject-06,1,661,0.492563009262085,clock,clock,0,0661_rot_s06_0_clock_20_n04548280_77.png
subject-06,1,662,1.02076888084412,car,car,0,0662_rot_s06_0_car_20_n02814533_17776.png
subject-06,1,663,0.865094900131226,truck,truck,270,0663_rot_s06_270_truck_20_n04467665_7975.png
subject-06,1,664,0.909662961959839,dog,dog,180,0664_rot_s06_180_dog_20_n02090721_1644.png
subject-06,1,665,0.791719913482666,elephant,elephant,0,0665_rot_s06_0_elephant_20_n02504013_5167.png
subject-06,1,666,1.32826113700867,dog,bear,180,0666_rot_s06_180_bear_20_n02134418_6129.png
subject-06,1,667,0.848830938339233,clock,clock,90,0667_rot_s06_90_clock_20_n02708093_2283.png
subject-06,1,668,0.763032197952271,dog,dog,0,0668_rot_s06_0_dog_20_n02099849_193.png
subject-06,1,669,1.06719493865967,bicycle,bicycle,270,0669_rot_s06_270_bicycle_20_n02835271_6222.png
subject-06,1,670,0.711942911148071,bottle,bottle,270,0670_rot_s06_270_bottle_20_n04591713_1403.png
subject-06,1,671,1.44850301742554,truck,truck,180,0671_rot_s06_180_truck_20_n04467665_20518.png
subject-06,1,672,0.892870903015137,cat,cat,0,0672_rot_s06_0_cat_20_n02124075_11039.png
subject-06,1,673,0.675201892852783,elephant,elephant,0,0673_rot_s06_0_elephant_20_n02504458_12368.png
subject-06,1,674,0.827513933181763,boat,boat,180,0674_rot_s06_180_boat_20_n03344393_1017.png
subject-06,1,675,0.687881946563721,boat,boat,90,0675_rot_s06_90_boat_20_n03344393_9528.png
subject-06,1,676,1.11417984962463,keyboard,keyboard,90,0676_rot_s06_90_keyboard_20_n03085013_23014.png
subject-06,1,677,0.960564851760864,keyboard,keyboard,0,0677_rot_s06_0_keyboard_20_n04505470_7002.png
subject-06,1,678,1.31072998046875,keyboard,clock,0,0678_rot_s06_0_clock_20_n03196217_1038.png
subject-06,1,679,0.700943946838379,car,car,270,0679_rot_s06_270_car_20_n04285008_15284.png
subject-06,1,680,0.953394174575806,bear,bear,180,0680_rot_s06_180_bear_20_n02134084_431.png
subject-06,1,681,0.722195863723755,bird,bird,0,0681_rot_s06_0_bird_20_n01582220_10182.png
subject-06,1,682,0.688724994659424,boat,boat,180,0682_rot_s06_180_boat_20_n02951358_1116.png
subject-06,1,683,0.910794973373413,knife,knife,0,0683_rot_s06_0_knife_20_n03041632_48062.png
subject-06,1,684,0.855661153793335,bird,bird,0,0684_rot_s06_0_bird_20_n01833805_7753.png
subject-06,1,685,0.623840093612671,cat,cat,180,0685_rot_s06_180_cat_20_n02123597_7142.png
subject-06,1,686,0.790557861328125,chair,chair,0,0686_rot_s06_0_chair_20_n03376595_18787.png
subject-06,1,687,0.751197099685669,bear,bear,270,0687_rot_s06_270_bear_20_n02133161_10670.png
subject-06,1,688,0.849462985992432,bottle,bottle,270,0688_rot_s06_270_bottle_20_n04591713_9599.png
subject-06,1,689,1.1540892124176,chair,chair,0,0689_rot_s06_0_chair_20_n03376595_6391.png
subject-06,1,690,0.894467115402222,boat,elephant,0,0690_rot_s06_0_elephant_20_n02504013_11713.png
subject-06,1,691,1.31476902961731,clock,clock,0,0691_rot_s06_0_clock_20_n04548280_8008.png
subject-06,1,692,0.912610054016113,bear,bear,90,0692_rot_s06_90_bear_20_n02134418_5581.png
subject-06,1,693,0.773082971572876,car,car,270,0693_rot_s06_270_car_20_n02814533_15651.png
subject-06,1,694,1.209792137146,boat,chair,90,0694_rot_s06_90_chair_20_n02791124_3659.png
subject-06,1,695,0.961955070495605,bicycle,bicycle,0,0695_rot_s06_0_bicycle_20_n02835271_15572.png
subject-06,1,696,1.23631691932678,keyboard,clock,90,0696_rot_s06_90_clock_20_n03196217_7149.png
subject-06,1,697,0.658416032791138,boat,boat,0,0697_rot_s06_0_boat_20_n02951358_2889.png
subject-06,1,698,1.50020003318787,boat,clock,180,0698_rot_s06_180_clock_20_n03196217_3358.png
subject-06,1,699,0.655215978622437,bear,bear,90,0699_rot_s06_90_bear_20_n02134084_1230.png
subject-06,1,700,0.636614084243774,clock,clock,180,0700_rot_s06_180_clock_20_n04548280_6361.png
subject-06,1,701,0.902865886688232,keyboard,keyboard,90,0701_rot_s06_90_keyboard_20_n03085013_7009.png
subject-06,1,702,0.83124303817749,car,chair,180,0702_rot_s06_180_chair_20_n02791124_15675.png
subject-06,1,703,0.783718109130859,dog,dog,0,0703_rot_s06_0_dog_20_n02102318_11605.png
subject-06,1,704,1.0797131061554,knife,knife,270,0704_rot_s06_270_knife_20_n03041632_24376.png
subject-06,1,705,0.84810209274292,bicycle,bicycle,0,0705_rot_s06_0_bicycle_20_n03792782_17324.png
subject-06,1,706,0.730509996414185,truck,truck,90,0706_rot_s06_90_truck_20_n04467665_23905.png
subject-06,1,707,0.888000011444092,elephant,elephant,180,0707_rot_s06_180_elephant_20_n02504013_1627.png
subject-06,1,708,0.656726121902466,keyboard,keyboard,0,0708_rot_s06_0_keyboard_20_n04505470_1712.png
subject-06,1,709,1.01465106010437,truck,truck,180,0709_rot_s06_180_truck_20_n03417042_4605.png
subject-06,1,710,0.658295869827271,clock,clock,180,0710_rot_s06_180_clock_20_n02708093_434.png
subject-06,1,711,0.880687952041626,truck,truck,270,0711_rot_s06_270_truck_20_n04467665_59039.png
subject-06,1,712,0.776770830154419,bottle,bottle,90,0712_rot_s06_90_bottle_20_n02823428_10814.png
subject-06,1,713,1.17489099502563,bear,bear,270,0713_rot_s06_270_bear_20_n02132136_8301.png
subject-06,1,714,0.885427951812744,clock,clock,180,0714_rot_s06_180_clock_20_n03196217_3007.png
subject-06,1,715,0.713893890380859,keyboard,keyboard,0,0715_rot_s06_0_keyboard_20_n03085013_20078.png
subject-06,1,716,1.44789791107178,clock,bottle,0,0716_rot_s06_0_bottle_20_n03937543_5152.png
subject-06,1,717,0.702109098434448,car,car,0,0717_rot_s06_0_car_20_n03100240_6029.png
subject-06,1,718,0.884335041046143,bear,bear,90,0718_rot_s06_90_bear_20_n02134418_2773.png
subject-06,1,719,1.12879800796509,truck,truck,270,0719_rot_s06_270_truck_20_n04467665_31221.png
subject-06,1,720,0.910917997360229,bird,bird,0,0720_rot_s06_0_bird_20_n01797886_17422.png
subject-06,1,721,1.02379393577576,chair,chair,270,0721_rot_s06_270_chair_20_n02791124_12475.png
subject-06,1,722,1.25996708869934,bear,bear,90,0722_rot_s06_90_bear_20_n02134084_6992.png
subject-06,1,723,0.790601968765259,bird,bird,180,0723_rot_s06_180_bird_20_n01560419_275.png
subject-06,1,724,0.68039608001709,airplane,airplane,270,0724_rot_s06_270_airplane_20_n02690373_4691.png
subject-06,1,725,0.854676008224487,boat,truck,90,0725_rot_s06_90_truck_20_n03417042_5877.png
subject-06,1,726,0.996697902679443,chair,knife,180,0726_rot_s06_180_knife_20_n03041632_8321.png
subject-06,1,727,0.664770126342773,boat,boat,180,0727_rot_s06_180_boat_20_n02951358_7451.png
subject-06,1,728,0.710294008255005,boat,boat,270,0728_rot_s06_270_boat_20_n03344393_7967.png
subject-06,1,729,0.838697910308838,chair,chair,0,0729_rot_s06_0_chair_20_n04099969_2114.png
subject-06,1,730,1.28830099105835,chair,oven,180,0730_rot_s06_180_oven_20_n04111531_10216.png
subject-06,1,731,0.634690046310425,bear,bear,0,0731_rot_s06_0_bear_20_n02132136_21794.png
subject-06,1,732,0.993062019348145,truck,truck,0,0732_rot_s06_0_truck_20_n04467665_35343.png
subject-06,1,733,1.10497689247131,boat,boat,0,0733_rot_s06_0_boat_20_n02951358_642.png
subject-06,1,734,0.527720212936401,boat,boat,90,0734_rot_s06_90_boat_20_n03662601_13847.png
subject-06,1,735,1.39344191551208,oven,chair,270,0735_rot_s06_270_chair_20_n04429376_9050.png
subject-06,1,736,0.77007794380188,airplane,airplane,180,0736_rot_s06_180_airplane_20_n02690373_13384.png
subject-06,1,737,0.72857403755188,bear,bear,0,0737_rot_s06_0_bear_20_n02132136_6927.png
subject-06,1,738,0.948851108551025,chair,chair,180,0738_rot_s06_180_chair_20_n03376595_6939.png
subject-06,1,739,1.08527588844299,bear,dog,180,0739_rot_s06_180_dog_20_n02110185_7151.png
subject-06,1,740,0.94546914100647,knife,knife,90,0740_rot_s06_90_knife_20_n03041632_24228.png
subject-06,1,741,NaN,na,cat,270,0741_rot_s06_270_cat_20_n02123045_8409.png
subject-06,1,742,0.680624008178711,bicycle,bicycle,0,0742_rot_s06_0_bicycle_20_n03792782_9412.png
subject-06,1,743,0.753888130187988,clock,clock,180,0743_rot_s06_180_clock_20_n04548280_7478.png
subject-06,1,744,0.690720081329346,chair,chair,0,0744_rot_s06_0_chair_20_n04429376_20025.png
subject-06,1,745,0.851031064987183,bicycle,bicycle,0,0745_rot_s06_0_bicycle_20_n03792782_626.png
subject-06,1,746,0.762624979019165,keyboard,keyboard,90,0746_rot_s06_90_keyboard_20_n04505470_1847.png
subject-06,1,747,0.531325817108154,boat,boat,90,0747_rot_s06_90_boat_20_n04273569_7312.png
subject-06,1,748,0.986747980117798,knife,knife,0,0748_rot_s06_0_knife_20_n03041632_81943.png
subject-06,1,749,0.639465093612671,clock,clock,180,0749_rot_s06_180_clock_20_n04548280_7258.png
subject-06,1,750,0.561771154403687,boat,boat,0,0750_rot_s06_0_boat_20_n04273569_4901.png
subject-06,1,751,0.912186145782471,airplane,airplane,90,0751_rot_s06_90_airplane_20_n02690373_16620.png
subject-06,1,752,0.726310014724731,cat,cat,90,0752_rot_s06_90_cat_20_n02123045_112.png
subject-06,1,753,1.0846209526062,boat,car,180,0753_rot_s06_180_car_20_n03100240_15966.png
subject-06,1,754,0.853066921234131,oven,oven,270,0754_rot_s06_270_oven_20_n04111531_2133.png
subject-06,1,755,0.711370229721069,boat,boat,270,0755_rot_s06_270_boat_20_n04273569_22648.png
subject-06,1,756,0.679893016815186,bicycle,bicycle,90,0756_rot_s06_90_bicycle_20_n02835271_3329.png
subject-06,1,757,0.854041814804077,clock,cat,90,0757_rot_s06_90_cat_20_n02125311_234.png
subject-06,1,758,1.02076005935669,knife,bottle,90,0758_rot_s06_90_bottle_20_n04591713_5678.png
subject-06,1,759,0.67309308052063,car,car,90,0759_rot_s06_90_car_20_n03100240_6309.png
subject-06,1,760,1.17937684059143,bird,bottle,0,0760_rot_s06_0_bottle_20_n04557648_31129.png
subject-06,1,761,0.891754150390625,bicycle,bicycle,90,0761_rot_s06_90_bicycle_20_n02835271_25613.png
subject-06,1,762,1.09058809280396,truck,truck,0,0762_rot_s06_0_truck_20_n03417042_29185.png
subject-06,1,763,1.11883997917175,truck,truck,270,0763_rot_s06_270_truck_20_n04467665_21603.png
subject-06,1,764,1.04891300201416,knife,knife,180,0764_rot_s06_180_knife_20_n03041632_4214.png
subject-06,1,765,1.11557197570801,bear,bear,90,0765_rot_s06_90_bear_20_n02134418_11765.png
subject-06,1,766,0.913883924484253,knife,knife,0,0766_rot_s06_0_knife_20_n03041632_30457.png
subject-06,1,767,0.696516036987305,oven,oven,0,0767_rot_s06_0_oven_20_n04111531_9712.png
subject-06,1,768,0.752854108810425,boat,boat,180,0768_rot_s06_180_boat_20_n03344393_4916.png
subject-06,1,769,1.38676905632019,bicycle,bicycle,180,0769_rot_s06_180_bicycle_20_n03792782_15138.png
subject-06,1,770,0.909209012985229,bird,bird,270,0770_rot_s06_270_bird_20_n01534433_4427.png
subject-06,1,771,0.883553028106689,cat,cat,90,0771_rot_s06_90_cat_20_n02123394_1205.png
subject-06,1,772,1.13360810279846,elephant,elephant,180,0772_rot_s06_180_elephant_20_n02504013_1333.png
subject-06,1,773,0.663808107376099,boat,boat,90,0773_rot_s06_90_boat_20_n04273569_8007.png
subject-06,1,774,0.75424599647522,bird,bird,270,0774_rot_s06_270_bird_20_n02011460_4251.png
subject-06,1,775,0.974761962890625,elephant,elephant,90,0775_rot_s06_90_elephant_20_n02504013_8977.png
subject-06,1,776,1.0486900806427,bear,bear,180,0776_rot_s06_180_bear_20_n02132136_545.png
subject-06,1,777,1.29344606399536,elephant,elephant,270,0777_rot_s06_270_elephant_20_n02504013_10965.png
subject-06,1,778,1.07529211044312,dog,dog,90,0778_rot_s06_90_dog_20_n02086240_5310.png
subject-06,1,779,0.82770299911499,keyboard,keyboard,180,0779_rot_s06_180_keyboard_20_n03085013_24159.png
subject-06,1,780,0.610170125961304,boat,boat,270,0780_rot_s06_270_boat_20_n02951358_5384.png
subject-06,1,781,1.22250199317932,bottle,bottle,0,0781_rot_s06_0_bottle_20_n04557648_12064.png
subject-06,1,782,0.921406030654907,truck,car,180,0782_rot_s06_180_car_20_n02814533_85692.png
subject-06,1,783,0.895803928375244,bicycle,bicycle,0,0783_rot_s06_0_bicycle_20_n02835271_3513.png
subject-06,1,784,1.26136493682861,truck,truck,90,0784_rot_s06_90_truck_20_n03417042_21788.png
subject-06,1,785,1.24352097511292,airplane,airplane,90,0785_rot_s06_90_airplane_20_n02690373_4452.png
subject-06,1,786,1.22626209259033,dog,dog,90,0786_rot_s06_90_dog_20_n02099712_5679.png
subject-06,1,787,0.824443101882935,keyboard,keyboard,0,0787_rot_s06_0_keyboard_20_n03085013_25419.png
subject-06,1,788,0.624884128570557,oven,oven,0,0788_rot_s06_0_oven_20_n04111531_1303.png
subject-06,1,789,0.944108963012695,oven,oven,0,0789_rot_s06_0_oven_20_n04111531_7625.png
subject-06,1,790,1.08022689819336,knife,knife,90,0790_rot_s06_90_knife_20_n03041632_12949.png
subject-06,1,791,1.40701103210449,car,car,180,0791_rot_s06_180_car_20_n02814533_38963.png
subject-06,1,792,0.89140796661377,boat,boat,270,0792_rot_s06_270_boat_20_n02951358_9103.png
subject-06,1,793,0.973980903625488,chair,keyboard,270,0793_rot_s06_270_keyboard_20_n04505470_4757.png
subject-06,1,794,1.37218189239502,clock,boat,180,0794_rot_s06_180_boat_20_n03662601_2032.png
subject-06,1,795,0.908653020858765,bird,bird,270,0795_rot_s06_270_bird_20_n01828970_7573.png
subject-06,1,796,0.907388925552368,car,car,270,0796_rot_s06_270_car_20_n02814533_19373.png
subject-06,1,797,1.02972388267517,bear,bear,90,0797_rot_s06_90_bear_20_n02134418_1174.png
subject-06,1,798,1.48041987419128,clock,chair,180,0798_rot_s06_180_chair_20_n02791124_2392.png
subject-06,1,799,0.695116996765137,oven,oven,270,0799_rot_s06_270_oven_20_n04111531_2739.png
subject-06,1,800,0.769178867340088,car,car,0,0800_rot_s06_0_car_20_n03100240_1526.png
subject-06,1,801,0.754987001419067,knife,knife,270,0801_rot_s06_270_knife_20_n03041632_84869.png
subject-06,1,802,0.705193042755127,elephant,elephant,0,0802_rot_s06_0_elephant_20_n02504013_3081.png
subject-06,1,803,1.03361701965332,elephant,elephant,180,0803_rot_s06_180_elephant_20_n02504013_18498.png
subject-06,1,804,0.685867786407471,oven,chair,270,0804_rot_s06_270_chair_20_n04099969_13910.png
subject-06,1,805,0.792095184326172,knife,knife,180,0805_rot_s06_180_knife_20_n03041632_46112.png
subject-06,1,806,0.704560995101929,bicycle,bicycle,270,0806_rot_s06_270_bicycle_20_n03792782_6977.png
subject-06,1,807,1.01060199737549,chair,truck,180,0807_rot_s06_180_truck_20_n03417042_5458.png
subject-06,1,808,0.760609149932861,knife,knife,180,0808_rot_s06_180_knife_20_n03041632_30196.png
subject-06,1,809,1.05086803436279,oven,cat,270,0809_rot_s06_270_cat_20_n02124075_5534.png
subject-06,1,810,0.749353885650635,chair,chair,90,0810_rot_s06_90_chair_20_n03376595_4217.png
subject-06,1,811,1.27819800376892,airplane,airplane,270,0811_rot_s06_270_airplane_20_n02690373_10397.png
subject-06,1,812,0.686337947845459,clock,clock,90,0812_rot_s06_90_clock_20_n02708093_3079.png
subject-06,1,813,0.682949066162109,car,car,180,0813_rot_s06_180_car_20_n02814533_75767.png
subject-06,1,814,1.13534593582153,bicycle,bird,270,0814_rot_s06_270_bird_20_n01828970_5212.png
subject-06,1,815,0.771844863891602,airplane,airplane,270,0815_rot_s06_270_airplane_20_n02690373_7530.png
subject-06,1,816,0.978240966796875,truck,truck,270,0816_rot_s06_270_truck_20_n03417042_7472.png
subject-06,1,817,1.50001788139343,chair,oven,180,0817_rot_s06_180_oven_20_n04111531_1488.png
subject-06,1,818,1.13395380973816,dog,dog,270,0818_rot_s06_270_dog_20_n02109525_4138.png
subject-06,1,819,0.892187118530273,knife,knife,270,0819_rot_s06_270_knife_20_n03041632_29684.png
subject-06,1,820,0.814645051956177,knife,knife,90,0820_rot_s06_90_knife_20_n03041632_40530.png
subject-06,1,821,1.11009192466736,car,car,90,0821_rot_s06_90_car_20_n02814533_84523.png
subject-06,1,822,1.3983838558197,elephant,elephant,0,0822_rot_s06_0_elephant_20_n02504458_3886.png
subject-06,1,823,1.29685497283936,airplane,airplane,90,0823_rot_s06_90_airplane_20_n02690373_10131.png
subject-06,1,824,NaN,na,bear,180,0824_rot_s06_180_bear_20_n02132136_4821.png
subject-06,1,825,0.679374933242798,elephant,elephant,90,0825_rot_s06_90_elephant_20_n02504458_5412.png
subject-06,1,826,0.713356971740723,keyboard,keyboard,180,0826_rot_s06_180_keyboard_20_n03085013_5751.png
subject-06,1,827,0.689815044403076,truck,car,90,0827_rot_s06_90_car_20_n02814533_85928.png
subject-06,1,828,0.968924999237061,car,car,180,0828_rot_s06_180_car_20_n04285008_550.png
subject-06,1,829,0.874952077865601,airplane,airplane,270,0829_rot_s06_270_airplane_20_n02690373_1087.png
subject-06,1,830,0.657329082489014,oven,oven,90,0830_rot_s06_90_oven_20_n04111531_2209.png
subject-06,1,831,1.1019561290741,truck,truck,180,0831_rot_s06_180_truck_20_n03796401_3012.png
subject-06,1,832,1.19196701049805,truck,boat,180,0832_rot_s06_180_boat_20_n03344393_4977.png
subject-06,1,833,0.682291984558105,bottle,bottle,0,0833_rot_s06_0_bottle_20_n04579145_5863.png
subject-06,1,834,1.03475999832153,bottle,bottle,270,0834_rot_s06_270_bottle_20_n03937543_9376.png
subject-06,1,835,0.733416080474854,knife,knife,180,0835_rot_s06_180_knife_20_n03041632_40508.png
subject-06,1,836,1.15970802307129,chair,oven,90,0836_rot_s06_90_oven_20_n04111531_21918.png
subject-06,1,837,1.50021004676819,airplane,airplane,0,0837_rot_s06_0_airplane_20_n02690373_102.png
subject-06,1,838,0.988102912902832,oven,oven,180,0838_rot_s06_180_oven_20_n04111531_15052.png
subject-06,1,839,0.753304004669189,dog,dog,0,0839_rot_s06_0_dog_20_n02110627_22342.png
subject-06,1,840,0.611567974090576,bicycle,bicycle,270,0840_rot_s06_270_bicycle_20_n03792782_9174.png
subject-06,1,841,1.30187106132507,elephant,elephant,180,0841_rot_s06_180_elephant_20_n02504458_6435.png
subject-06,1,842,NaN,na,keyboard,0,0842_rot_s06_0_keyboard_20_n03085013_24538.png
subject-06,1,843,0.820401906967163,bicycle,bicycle,0,0843_rot_s06_0_bicycle_20_n03792782_14642.png
subject-06,1,844,0.832834005355835,dog,dog,270,0844_rot_s06_270_dog_20_n02099712_1250.png
subject-06,1,845,0.70083212852478,truck,truck,90,0845_rot_s06_90_truck_20_n04467665_5665.png
subject-06,1,846,1.16712307929993,chair,clock,180,0846_rot_s06_180_clock_20_n03196217_1611.png
subject-06,1,847,0.971125841140747,chair,oven,90,0847_rot_s06_90_oven_20_n04111531_6590.png
subject-06,1,848,1.06872200965881,bird,bird,0,0848_rot_s06_0_bird_20_n01829413_7738.png
subject-06,1,849,0.981366157531738,keyboard,keyboard,180,0849_rot_s06_180_keyboard_20_n04505470_4528.png
subject-06,1,850,1.14756512641907,clock,clock,270,0850_rot_s06_270_clock_20_n03196217_713.png
subject-06,1,851,1.23159503936768,elephant,elephant,270,0851_rot_s06_270_elephant_20_n02504458_1327.png
subject-06,1,852,1.14408588409424,keyboard,keyboard,90,0852_rot_s06_90_keyboard_20_n04505470_4516.png
subject-06,1,853,0.772462844848633,bird,bird,0,0853_rot_s06_0_bird_20_n01616318_57189.png
subject-06,1,854,1.04884600639343,cat,cat,90,0854_rot_s06_90_cat_20_n02123597_2405.png
subject-06,1,855,1.36921691894531,car,chair,0,0855_rot_s06_0_chair_20_n02791124_2509.png
subject-06,1,856,0.567543983459473,cat,cat,270,0856_rot_s06_270_cat_20_n02123159_3226.png
subject-06,1,857,0.696079015731812,oven,oven,270,0857_rot_s06_270_oven_20_n04111531_8309.png
subject-06,1,858,0.802801847457886,cat,cat,180,0858_rot_s06_180_cat_20_n02123045_6143.png
subject-06,1,859,1.13898992538452,clock,clock,270,0859_rot_s06_270_clock_20_n02708093_2670.png
subject-06,1,860,1.12917399406433,car,car,270,0860_rot_s06_270_car_20_n02814533_17866.png
subject-06,1,861,0.957708120346069,oven,oven,270,0861_rot_s06_270_oven_20_n04111531_458.png
subject-06,1,862,0.756537914276123,car,car,90,0862_rot_s06_90_car_20_n04285008_4037.png
subject-06,1,863,0.854665994644165,car,car,90,0863_rot_s06_90_car_20_n04285008_7773.png
subject-06,1,864,1.16718292236328,cat,dog,90,0864_rot_s06_90_dog_20_n02093256_7811.png
subject-06,1,865,0.957247972488403,cat,cat,270,0865_rot_s06_270_cat_20_n02125311_5229.png
subject-06,1,866,1.00769400596619,bear,bear,90,0866_rot_s06_90_bear_20_n02132136_7114.png
subject-06,1,867,1.10576796531677,knife,knife,90,0867_rot_s06_90_knife_20_n03041632_33584.png
subject-06,1,868,0.912422895431519,cat,cat,0,0868_rot_s06_0_cat_20_n02123394_1585.png
subject-06,1,869,1.50031995773315,clock,keyboard,270,0869_rot_s06_270_keyboard_20_n04505470_10786.png
subject-06,1,870,0.709316968917847,keyboard,keyboard,90,0870_rot_s06_90_keyboard_20_n03085013_2066.png
subject-06,1,871,0.813670873641968,car,car,0,0871_rot_s06_0_car_20_n02814533_27983.png
subject-06,1,872,0.628041982650757,car,car,270,0872_rot_s06_270_car_20_n02814533_16767.png
subject-06,1,873,1.50004196166992,dog,bear,270,0873_rot_s06_270_bear_20_n02134418_5139.png
subject-06,1,874,0.83046293258667,bird,bird,180,0874_rot_s06_180_bird_20_n02037110_12600.png
subject-06,1,875,0.867139101028442,oven,knife,0,0875_rot_s06_0_knife_20_n03041632_30286.png
subject-06,1,876,1.50003790855408,chair,elephant,90,0876_rot_s06_90_elephant_20_n02504013_7045.png
subject-06,1,877,0.617874145507812,clock,clock,90,0877_rot_s06_90_clock_20_n04548280_631.png
subject-06,1,878,0.754300832748413,bicycle,bicycle,0,0878_rot_s06_0_bicycle_20_n03792782_6798.png
subject-06,1,879,0.690587997436523,bicycle,bicycle,0,0879_rot_s06_0_bicycle_20_n02835271_10104.png
subject-06,1,880,1.33265495300293,car,car,270,0880_rot_s06_270_car_20_n03100240_7219.png
subject-06,1,881,0.693459987640381,car,car,90,0881_rot_s06_90_car_20_n04285008_9923.png
subject-06,1,882,0.797674894332886,oven,oven,180,0882_rot_s06_180_oven_20_n04111531_7878.png
subject-06,1,883,1.01235485076904,chair,chair,0,0883_rot_s06_0_chair_20_n03376595_7660.png
subject-06,1,884,0.848702907562256,dog,dog,180,0884_rot_s06_180_dog_20_n02112018_10174.png
subject-06,1,885,0.639001131057739,clock,clock,270,0885_rot_s06_270_clock_20_n04548280_13871.png
subject-06,1,886,1.10539102554321,truck,truck,270,0886_rot_s06_270_truck_20_n04467665_10122.png
subject-06,1,887,0.979968070983887,knife,knife,270,0887_rot_s06_270_knife_20_n03041632_120.png
subject-06,1,888,0.907968997955322,truck,truck,270,0888_rot_s06_270_truck_20_n04467665_11487.png
subject-06,1,889,0.646162033081055,oven,cat,270,0889_rot_s06_270_cat_20_n02125311_15780.png
subject-06,1,890,1.05067896842957,dog,dog,180,0890_rot_s06_180_dog_20_n02091032_4501.png
subject-06,1,891,1.0250940322876,elephant,elephant,270,0891_rot_s06_270_elephant_20_n02504013_1454.png
subject-06,1,892,0.615408897399902,clock,clock,0,0892_rot_s06_0_clock_20_n02708093_3360.png
subject-06,1,893,1.08984994888306,car,car,0,0893_rot_s06_0_car_20_n04285008_33.png
subject-06,1,894,1.15602803230286,airplane,airplane,0,0894_rot_s06_0_airplane_20_n02690373_2408.png
subject-06,1,895,0.900755882263184,truck,truck,90,0895_rot_s06_90_truck_20_n03417042_3807.png
subject-06,1,896,1.17691802978516,dog,dog,180,0896_rot_s06_180_dog_20_n02088094_1003.png
subject-06,1,897,1.18940210342407,truck,truck,90,0897_rot_s06_90_truck_20_n04467665_22051.png
subject-06,1,898,0.587746143341064,clock,clock,90,0898_rot_s06_90_clock_20_n02708093_6799.png
subject-06,1,899,1.0323760509491,elephant,elephant,270,0899_rot_s06_270_elephant_20_n02504013_783.png
subject-06,1,900,0.91404914855957,keyboard,keyboard,0,0900_rot_s06_0_keyboard_20_n03085013_3920.png
subject-06,1,901,0.780558824539185,clock,clock,270,0901_rot_s06_270_clock_20_n04548280_13172.png
subject-06,1,902,0.932918071746826,chair,chair,90,0902_rot_s06_90_chair_20_n02791124_2796.png
subject-06,1,903,1.04538488388062,knife,knife,90,0903_rot_s06_90_knife_20_n03041632_9157.png
subject-06,1,904,0.973867893218994,bottle,bottle,0,0904_rot_s06_0_bottle_20_n04557648_2351.png
subject-06,1,905,0.650434970855713,car,car,90,0905_rot_s06_90_car_20_n04285008_8584.png
subject-06,1,906,1.23089194297791,bear,bear,90,0906_rot_s06_90_bear_20_n02134084_985.png
subject-06,1,907,1.06150889396667,bicycle,bicycle,270,0907_rot_s06_270_bicycle_20_n03792782_796.png
subject-06,1,908,1.06598520278931,airplane,airplane,180,0908_rot_s06_180_airplane_20_n02690373_194.png
subject-06,1,909,0.942225933074951,dog,dog,90,0909_rot_s06_90_dog_20_n02093256_45815.png
subject-06,1,910,0.623767137527466,cat,cat,0,0910_rot_s06_0_cat_20_n02123159_7959.png
subject-06,1,911,1.32833504676819,keyboard,keyboard,270,0911_rot_s06_270_keyboard_20_n03085013_23749.png
subject-06,1,912,0.84771990776062,bicycle,dog,90,0912_rot_s06_90_dog_20_n02109047_14253.png
subject-06,1,913,1.244460105896,dog,dog,270,0913_rot_s06_270_dog_20_n02089078_10404.png
subject-06,1,914,0.966831922531128,airplane,airplane,0,0914_rot_s06_0_airplane_20_n02690373_9743.png
subject-06,1,915,0.640984058380127,bird,bird,270,0915_rot_s06_270_bird_20_n01592084_1532.png
subject-06,1,916,1.02328896522522,keyboard,keyboard,0,0916_rot_s06_0_keyboard_20_n04505470_1183.png
subject-06,1,917,1.26776003837585,oven,oven,270,0917_rot_s06_270_oven_20_n04111531_9411.png
subject-06,1,918,0.55003809928894,airplane,airplane,270,0918_rot_s06_270_airplane_20_n02690373_9001.png
subject-06,1,919,0.732857942581177,car,car,90,0919_rot_s06_90_car_20_n04285008_2963.png
subject-06,1,920,0.600986003875732,bicycle,bicycle,270,0920_rot_s06_270_bicycle_20_n03792782_4708.png
subject-06,1,921,0.859407186508179,chair,dog,0,0921_rot_s06_0_dog_20_n02111500_3642.png
subject-06,1,922,1.35564303398132,clock,clock,180,0922_rot_s06_180_clock_20_n03196217_5929.png
subject-06,1,923,0.861709117889404,keyboard,keyboard,0,0923_rot_s06_0_keyboard_20_n03085013_22759.png
subject-06,1,924,0.922094106674194,clock,clock,0,0924_rot_s06_0_clock_20_n04548280_6743.png
subject-06,1,925,0.68826699256897,cat,cat,90,0925_rot_s06_90_cat_20_n02124075_8561.png
subject-06,1,926,1.10065817832947,clock,clock,270,0926_rot_s06_270_clock_20_n04548280_183.png
subject-06,1,927,1.16694712638855,boat,boat,0,0927_rot_s06_0_boat_20_n03662601_34496.png
subject-06,1,928,1.17287683486938,bear,bear,0,0928_rot_s06_0_bear_20_n02133161_991.png
subject-06,1,929,0.733215808868408,clock,clock,270,0929_rot_s06_270_clock_20_n04548280_1219.png
subject-06,1,930,1.09723114967346,truck,truck,270,0930_rot_s06_270_truck_20_n03417042_3448.png
subject-06,1,931,1.05456495285034,clock,bicycle,180,0931_rot_s06_180_bicycle_20_n02835271_24207.png
subject-06,1,932,1.32013893127441,chair,chair,180,0932_rot_s06_180_chair_20_n03376595_6003.png
subject-06,1,933,0.642506837844849,boat,boat,90,0933_rot_s06_90_boat_20_n03344393_584.png
subject-06,1,934,1.15502786636353,cat,knife,90,0934_rot_s06_90_knife_20_n03041632_19971.png
subject-06,1,935,0.877524137496948,bottle,bottle,90,0935_rot_s06_90_bottle_20_n04579145_2016.png
subject-06,1,936,0.889940977096558,knife,knife,180,0936_rot_s06_180_knife_20_n03041632_10540.png
subject-06,1,937,0.964105844497681,airplane,airplane,0,0937_rot_s06_0_airplane_20_n02690373_5462.png
subject-06,1,938,1.05451703071594,elephant,bear,0,0938_rot_s06_0_bear_20_n02132136_6832.png
subject-06,1,939,0.631358861923218,dog,dog,90,0939_rot_s06_90_dog_20_n02088364_1980.png
subject-06,1,940,1.01393008232117,bear,bear,270,0940_rot_s06_270_bear_20_n02133161_13356.png
subject-06,1,941,0.850227117538452,truck,truck,0,0941_rot_s06_0_truck_20_n04467665_39411.png
subject-06,1,942,0.678828954696655,knife,knife,0,0942_rot_s06_0_knife_20_n03041632_41310.png
subject-06,1,943,0.915375947952271,bicycle,bicycle,0,0943_rot_s06_0_bicycle_20_n02835271_4130.png
subject-06,1,944,0.605940103530884,airplane,airplane,180,0944_rot_s06_180_airplane_20_n02690373_8650.png
subject-06,1,945,1.00209498405457,bear,cat,90,0945_rot_s06_90_cat_20_n02124075_12282.png
subject-06,1,946,1.11600804328918,car,car,270,0946_rot_s06_270_car_20_n04285008_6177.png
subject-06,1,947,0.928786993026733,keyboard,keyboard,270,0947_rot_s06_270_keyboard_20_n03085013_22980.png
subject-06,1,948,1.05708003044128,knife,knife,270,0948_rot_s06_270_knife_20_n03041632_7205.png
subject-06,1,949,1.14769411087036,truck,truck,90,0949_rot_s06_90_truck_20_n04467665_3537.png
subject-06,1,950,0.570036888122559,car,car,180,0950_rot_s06_180_car_20_n03100240_3445.png
subject-06,1,951,0.744210004806519,elephant,elephant,0,0951_rot_s06_0_elephant_20_n02504013_20486.png
subject-06,1,952,0.885871887207031,bear,bear,270,0952_rot_s06_270_bear_20_n02132136_4802.png
subject-06,1,953,0.729952096939087,clock,clock,0,0953_rot_s06_0_clock_20_n04548280_1200.png
subject-06,1,954,0.482629060745239,truck,truck,270,0954_rot_s06_270_truck_20_n03417042_17513.png
subject-06,1,955,0.864979028701782,truck,chair,0,0955_rot_s06_0_chair_20_n02791124_3746.png
subject-06,1,956,0.463354110717773,bear,bear,90,0956_rot_s06_90_bear_20_n02132136_15806.png
subject-06,1,957,1.01377105712891,car,car,180,0957_rot_s06_180_car_20_n04285008_1841.png
subject-06,1,958,0.644586086273193,airplane,airplane,90,0958_rot_s06_90_airplane_20_n02690373_7210.png
subject-06,1,959,0.66480016708374,truck,truck,0,0959_rot_s06_0_truck_20_n03796401_10519.png
subject-06,1,960,1.08532500267029,dog,dog,180,0960_rot_s06_180_dog_20_n02086910_15741.png
subject-06,1,961,1.14511394500732,chair,chair,180,0961_rot_s06_180_chair_20_n02791124_15457.png
subject-06,1,962,0.689635038375854,bear,bear,90,0962_rot_s06_90_bear_20_n02132136_5346.png
subject-06,1,963,0.794240951538086,bird,bird,180,0963_rot_s06_180_bird_20_n01817953_9346.png
subject-06,1,964,0.792598962783813,elephant,elephant,270,0964_rot_s06_270_elephant_20_n02504013_2476.png
subject-06,1,965,0.637516021728516,boat,boat,180,0965_rot_s06_180_boat_20_n03344393_1782.png
subject-06,1,966,0.949424028396606,bird,bird,0,0966_rot_s06_0_bird_20_n01614925_570.png
subject-06,1,967,0.701613903045654,bicycle,bicycle,0,0967_rot_s06_0_bicycle_20_n03792782_30186.png
subject-06,1,968,1.06842994689941,car,car,270,0968_rot_s06_270_car_20_n04285008_8014.png
subject-06,1,969,1.03480100631714,dog,dog,270,0969_rot_s06_270_dog_20_n02101388_746.png
subject-06,1,970,0.963420152664185,boat,boat,180,0970_rot_s06_180_boat_20_n04612504_20081.png
subject-06,1,971,1.36977577209473,oven,oven,270,0971_rot_s06_270_oven_20_n04111531_7189.png
subject-06,1,972,0.630208015441895,bicycle,bicycle,270,0972_rot_s06_270_bicycle_20_n03792782_24734.png
subject-06,1,973,0.920636177062988,bottle,bottle,90,0973_rot_s06_90_bottle_20_n04560804_21332.png
subject-06,1,974,1.02503299713135,elephant,elephant,90,0974_rot_s06_90_elephant_20_n02504013_3210.png
subject-06,1,975,1.48319792747498,bird,knife,90,0975_rot_s06_90_knife_20_n03041632_20832.png
subject-06,1,976,0.965333938598633,knife,knife,90,0976_rot_s06_90_knife_20_n03041632_11741.png
subject-06,1,977,0.955483198165894,boat,boat,270,0977_rot_s06_270_boat_20_n02951358_20207.png
subject-06,1,978,0.878207921981812,keyboard,keyboard,180,0978_rot_s06_180_keyboard_20_n03085013_24306.png
subject-06,1,979,1.50031805038452,oven,chair,90,0979_rot_s06_90_chair_20_n02791124_3414.png
subject-06,1,980,0.518982887268066,truck,truck,180,0980_rot_s06_180_truck_20_n04467665_21900.png
subject-06,1,981,0.617623090744019,keyboard,keyboard,180,0981_rot_s06_180_keyboard_20_n03085013_19285.png
subject-06,1,982,0.77827787399292,cat,cat,0,0982_rot_s06_0_cat_20_n02125311_1597.png
subject-06,1,983,0.92053484916687,knife,knife,180,0983_rot_s06_180_knife_20_n03041632_32785.png
subject-06,1,984,0.681134939193726,oven,oven,180,0984_rot_s06_180_oven_20_n04111531_20359.png
subject-06,1,985,0.717629194259644,bicycle,bicycle,270,0985_rot_s06_270_bicycle_20_n03792782_3334.png
subject-06,1,986,0.678205013275146,bottle,bottle,180,0986_rot_s06_180_bottle_20_n04557648_15027.png
subject-06,1,987,0.728348016738892,bear,bear,180,0987_rot_s06_180_bear_20_n02134418_5735.png
subject-06,1,988,0.834558963775635,car,car,180,0988_rot_s06_180_car_20_n02814533_95175.png
subject-06,1,989,0.854799032211304,airplane,airplane,270,0989_rot_s06_270_airplane_20_n02690373_17157.png
subject-06,1,990,1.04332709312439,keyboard,keyboard,270,0990_rot_s06_270_keyboard_20_n03085013_19450.png
subject-06,1,991,1.02775096893311,airplane,airplane,270,0991_rot_s06_270_airplane_20_n02690373_4471.png
subject-06,1,992,1.10223388671875,car,car,90,0992_rot_s06_90_car_20_n04285008_6440.png
subject-06,1,993,0.714649200439453,bird,bird,0,0993_rot_s06_0_bird_20_n01592084_5605.png
subject-06,1,994,1.37274694442749,bird,bird,0,0994_rot_s06_0_bird_20_n01833805_4185.png
subject-06,1,995,0.894502878189087,oven,oven,180,0995_rot_s06_180_oven_20_n04111531_2433.png
subject-06,1,996,1.23710918426514,dog,dog,90,0996_rot_s06_90_dog_20_n02100735_440.png
subject-06,1,997,1.16135811805725,truck,truck,270,0997_rot_s06_270_truck_20_n04467665_12311.png
subject-06,1,998,1.10540318489075,truck,truck,270,0998_rot_s06_270_truck_20_n03417042_1348.png
subject-06,1,999,0.895962953567505,truck,truck,270,0999_rot_s06_270_truck_20_n04467665_40307.png
subject-06,1,1000,0.870643138885498,knife,knife,90,1000_rot_s06_90_knife_20_n03041632_14774.png
subject-06,1,1001,1.23728108406067,cat,dog,270,1001_rot_s06_270_dog_20_n02088238_664.png
subject-06,1,1002,0.66705584526062,oven,oven,0,1002_rot_s06_0_oven_20_n04111531_6934.png
subject-06,1,1003,0.695819139480591,oven,bottle,180,1003_rot_s06_180_bottle_20_n04557648_9644.png
subject-06,1,1004,0.724298000335693,chair,chair,90,1004_rot_s06_90_chair_20_n04099969_8785.png
subject-06,1,1005,0.930607080459595,bicycle,bicycle,180,1005_rot_s06_180_bicycle_20_n03792782_54196.png
subject-06,1,1006,0.65083384513855,truck,truck,0,1006_rot_s06_0_truck_20_n03796401_2060.png
subject-06,1,1007,1.43353509902954,bottle,bottle,90,1007_rot_s06_90_bottle_20_n03937543_5423.png
subject-06,1,1008,1.40735602378845,truck,truck,180,1008_rot_s06_180_truck_20_n03796401_29179.png
subject-06,1,1009,1.09559106826782,airplane,airplane,180,1009_rot_s06_180_airplane_20_n02690373_20326.png
subject-06,1,1010,1.1322021484375,keyboard,chair,180,1010_rot_s06_180_chair_20_n04099969_20650.png
subject-06,1,1011,0.554176092147827,clock,clock,90,1011_rot_s06_90_clock_20_n04548280_6550.png
subject-06,1,1012,0.74187707901001,bottle,bottle,180,1012_rot_s06_180_bottle_20_n04557648_3305.png
subject-06,1,1013,1.4762020111084,bottle,bottle,270,1013_rot_s06_270_bottle_20_n04560804_32409.png
subject-06,1,1014,1.21464800834656,bird,bird,0,1014_rot_s06_0_bird_20_n02009912_6374.png
subject-06,1,1015,1.01274394989014,chair,chair,90,1015_rot_s06_90_chair_20_n04099969_13734.png
subject-06,1,1016,0.732889890670776,bird,bird,180,1016_rot_s06_180_bird_20_n01817953_11365.png
subject-06,1,1017,0.898780107498169,bird,bird,90,1017_rot_s06_90_bird_20_n01828970_11338.png
subject-06,1,1018,0.589264154434204,boat,boat,180,1018_rot_s06_180_boat_20_n03662601_24642.png
subject-06,1,1019,0.933763027191162,keyboard,keyboard,0,1019_rot_s06_0_keyboard_20_n03085013_24257.png
subject-06,1,1020,0.921586990356445,elephant,elephant,270,1020_rot_s06_270_elephant_20_n02504458_7745.png
subject-06,1,1021,1.16640686988831,keyboard,keyboard,0,1021_rot_s06_0_keyboard_20_n03085013_19707.png
subject-06,1,1022,1.17254996299744,truck,truck,90,1022_rot_s06_90_truck_20_n03796401_7421.png
subject-06,1,1023,1.27735209465027,truck,bottle,180,1023_rot_s06_180_bottle_20_n04560804_15276.png
subject-06,1,1024,0.969625949859619,knife,knife,180,1024_rot_s06_180_knife_20_n03041632_86338.png
subject-06,1,1025,0.927974939346313,elephant,elephant,0,1025_rot_s06_0_elephant_20_n02504458_9516.png
subject-06,1,1026,0.96381402015686,knife,knife,0,1026_rot_s06_0_knife_20_n03041632_24817.png
subject-06,1,1027,0.762470006942749,clock,clock,270,1027_rot_s06_270_clock_20_n02708093_6628.png
subject-06,1,1028,0.875051021575928,truck,car,270,1028_rot_s06_270_car_20_n02814533_26793.png
subject-06,1,1029,1.2793869972229,airplane,airplane,180,1029_rot_s06_180_airplane_20_n02690373_5277.png
subject-06,1,1030,1.00998187065125,bird,cat,90,1030_rot_s06_90_cat_20_n02123159_2210.png
subject-06,1,1031,0.600636959075928,cat,cat,90,1031_rot_s06_90_cat_20_n02123597_13519.png
subject-06,1,1032,0.536553144454956,bear,bear,0,1032_rot_s06_0_bear_20_n02133161_10768.png
subject-06,1,1033,0.856975078582764,clock,clock,180,1033_rot_s06_180_clock_20_n02708093_2845.png
subject-06,1,1034,0.647426128387451,cat,cat,270,1034_rot_s06_270_cat_20_n02123045_1524.png
subject-06,1,1035,1.03846502304077,bottle,bottle,180,1035_rot_s06_180_bottle_20_n04591713_1611.png
subject-06,1,1036,NaN,na,keyboard,90,1036_rot_s06_90_keyboard_20_n03085013_24404.png
subject-06,1,1037,0.473368883132935,cat,cat,0,1037_rot_s06_0_cat_20_n02123597_3302.png
subject-06,1,1038,0.847198009490967,chair,chair,0,1038_rot_s06_0_chair_20_n02791124_3553.png
subject-06,1,1039,0.821675062179565,oven,oven,0,1039_rot_s06_0_oven_20_n04111531_9210.png
subject-06,1,1040,NaN,na,car,270,1040_rot_s06_270_car_20_n03100240_2078.png
subject-06,1,1041,0.710669040679932,bicycle,bicycle,270,1041_rot_s06_270_bicycle_20_n02835271_19557.png
subject-06,1,1042,0.977216958999634,airplane,airplane,270,1042_rot_s06_270_airplane_20_n02690373_8559.png
subject-06,1,1043,0.999925851821899,car,car,0,1043_rot_s06_0_car_20_n02814533_24181.png
subject-06,1,1044,1.04231905937195,bicycle,bicycle,180,1044_rot_s06_180_bicycle_20_n02835271_1381.png
subject-06,1,1045,1.12700009346008,bird,bird,270,1045_rot_s06_270_bird_20_n02009912_5352.png
subject-06,1,1046,1.06083798408508,cat,cat,180,1046_rot_s06_180_cat_20_n02125311_22908.png
subject-06,1,1047,1.02142596244812,clock,clock,180,1047_rot_s06_180_clock_20_n04548280_3198.png
subject-06,1,1048,0.911494016647339,car,car,180,1048_rot_s06_180_car_20_n03100240_14939.png
subject-06,1,1049,1.01590394973755,cat,cat,180,1049_rot_s06_180_cat_20_n02123045_2908.png
subject-06,1,1050,1.14310002326965,bird,bird,180,1050_rot_s06_180_bird_20_n01798484_9988.png
subject-06,1,1051,1.34156394004822,oven,cat,270,1051_rot_s06_270_cat_20_n02123394_8603.png
subject-06,1,1052,0.801676034927368,knife,knife,90,1052_rot_s06_90_knife_20_n03041632_22570.png
subject-06,1,1053,0.584338903427124,clock,clock,0,1053_rot_s06_0_clock_20_n04548280_2.png
subject-06,1,1054,0.950913906097412,cat,cat,180,1054_rot_s06_180_cat_20_n02123394_1703.png
subject-06,1,1055,0.963230133056641,airplane,airplane,180,1055_rot_s06_180_airplane_20_n02690373_3561.png
subject-06,1,1056,1.39157009124756,truck,truck,90,1056_rot_s06_90_truck_20_n03796401_25111.png
subject-06,1,1057,1.35006499290466,oven,keyboard,270,1057_rot_s06_270_keyboard_20_n04505470_4625.png
subject-06,1,1058,0.863646030426025,truck,truck,0,1058_rot_s06_0_truck_20_n03417042_6691.png
