subj,session,trial,rt,object_response,category,condition,imagename
subject-01,1,1,0.780400991439819,bird,bird,270,0001_rot_s01_270_bird_20_n01537544_1886.png
subject-01,1,2,1.10872316360474,keyboard,truck,90,0002_rot_s01_90_truck_20_n03417042_1344.png
subject-01,1,3,0.77192211151123,oven,oven,0,0003_rot_s01_0_oven_20_n04111531_1230.png
subject-01,1,4,0.678242921829224,oven,oven,270,0004_rot_s01_270_oven_20_n04111531_22041.png
subject-01,1,5,1.07734990119934,dog,dog,180,0005_rot_s01_180_dog_20_n02100735_4364.png
subject-01,1,6,0.623708963394165,airplane,airplane,90,0006_rot_s01_90_airplane_20_n02690373_2856.png
subject-01,1,7,1.21376299858093,chair,chair,270,0007_rot_s01_270_chair_20_n04099969_42125.png
subject-01,1,8,1.08987998962402,elephant,elephant,270,0008_rot_s01_270_elephant_20_n02504013_4762.png
subject-01,1,9,0.720643997192383,bicycle,bicycle,270,0009_rot_s01_270_bicycle_20_n02835271_24104.png
subject-01,1,10,0.742839097976685,chair,chair,180,0010_rot_s01_180_chair_20_n03376595_6799.png
subject-01,1,11,0.949261903762817,dog,bear,90,0011_rot_s01_90_bear_20_n02134418_1814.png
subject-01,1,12,0.731112003326416,bear,bear,180,0012_rot_s01_180_bear_20_n02134084_41588.png
subject-01,1,13,0.753861904144287,boat,boat,270,0013_rot_s01_270_boat_20_n03662601_10090.png
subject-01,1,14,1.23848795890808,bird,bird,180,0014_rot_s01_180_bird_20_n01843383_6001.png
subject-01,1,15,0.714475870132446,chair,chair,90,0015_rot_s01_90_chair_20_n03376595_14588.png
subject-01,1,16,0.834803104400635,keyboard,keyboard,180,0016_rot_s01_180_keyboard_20_n04505470_807.png
subject-01,1,17,0.641177892684937,boat,boat,180,0017_rot_s01_180_boat_20_n04273569_15761.png
subject-01,1,18,1.01007986068726,bear,bear,0,0018_rot_s01_0_bear_20_n02132136_1386.png
subject-01,1,19,0.756082057952881,bicycle,bicycle,90,0019_rot_s01_90_bicycle_20_n03792782_1475.png
subject-01,1,20,1.25440812110901,truck,truck,90,0020_rot_s01_90_truck_20_n03796401_4571.png
subject-01,1,21,1.38309907913208,chair,bottle,180,0021_rot_s01_180_bottle_20_n02823428_4530.png
subject-01,1,22,0.82376503944397,bottle,bottle,180,0022_rot_s01_180_bottle_20_n04591713_2359.png
subject-01,1,23,0.876198053359985,dog,dog,270,0023_rot_s01_270_dog_20_n02105251_1092.png
subject-01,1,24,0.945111036300659,chair,clock,90,0024_rot_s01_90_clock_20_n04548280_4841.png
subject-01,1,25,1.39771103858948,chair,chair,0,0025_rot_s01_0_chair_20_n04099969_5854.png
subject-01,1,26,0.803617000579834,bear,bear,0,0026_rot_s01_0_bear_20_n02133161_4218.png
subject-01,1,27,0.896624088287354,oven,oven,270,0027_rot_s01_270_oven_20_n04111531_6934.png
subject-01,1,28,1.40334701538086,bird,bear,90,0028_rot_s01_90_bear_20_n02134418_2661.png
subject-01,1,29,0.625368118286133,car,car,90,0029_rot_s01_90_car_20_n04285008_8677.png
subject-01,1,30,0.680455923080444,car,car,180,0030_rot_s01_180_car_20_n03100240_4288.png
subject-01,1,31,0.678936958312988,clock,clock,270,0031_rot_s01_270_clock_20_n02708093_1981.png
subject-01,1,32,0.738723993301392,oven,oven,0,0032_rot_s01_0_oven_20_n04111531_11287.png
subject-01,1,33,0.937312126159668,car,car,90,0033_rot_s01_90_car_20_n02814533_23979.png
subject-01,1,34,0.852116107940674,bird,bird,90,0034_rot_s01_90_bird_20_n01820546_2568.png
subject-01,1,35,0.873992919921875,elephant,elephant,0,0035_rot_s01_0_elephant_20_n02504013_9299.png
subject-01,1,36,0.767382144927979,oven,oven,270,0036_rot_s01_270_oven_20_n04111531_4671.png
subject-01,1,37,0.92820405960083,airplane,airplane,0,0037_rot_s01_0_airplane_20_n02690373_7142.png
subject-01,1,38,1.25070595741272,car,car,270,0038_rot_s01_270_car_20_n03100240_7741.png
subject-01,1,39,0.989495038986206,bicycle,bicycle,90,0039_rot_s01_90_bicycle_20_n02835271_27014.png
subject-01,1,40,1.32593011856079,cat,cat,270,0040_rot_s01_270_cat_20_n02123597_2219.png
subject-01,1,41,0.94796085357666,bicycle,bicycle,270,0041_rot_s01_270_bicycle_20_n02835271_21640.png
subject-01,1,42,1.16245317459106,airplane,clock,90,0042_rot_s01_90_clock_20_n03196217_1458.png
subject-01,1,43,0.747054100036621,clock,chair,90,0043_rot_s01_90_chair_20_n04429376_13191.png
subject-01,1,44,1.31345391273499,cat,dog,90,0044_rot_s01_90_dog_20_n02095570_11263.png
subject-01,1,45,0.744004011154175,car,car,0,0045_rot_s01_0_car_20_n02814533_79974.png
subject-01,1,46,0.753045082092285,boat,boat,180,0046_rot_s01_180_boat_20_n04612504_14176.png
subject-01,1,47,1.50014877319336,airplane,cat,0,0047_rot_s01_0_cat_20_n02123159_3420.png
subject-01,1,48,0.74360990524292,bear,bear,90,0048_rot_s01_90_bear_20_n02134418_5219.png
subject-01,1,49,0.858232021331787,cat,cat,90,0049_rot_s01_90_cat_20_n02123045_7294.png
subject-01,1,50,0.843597888946533,dog,dog,0,0050_rot_s01_0_dog_20_n02106550_1763.png
subject-01,1,51,0.973269939422607,car,car,90,0051_rot_s01_90_car_20_n02814533_71641.png
subject-01,1,52,1.00179100036621,bottle,bottle,0,0052_rot_s01_0_bottle_20_n04557648_757.png
subject-01,1,53,1.27884411811829,truck,truck,90,0053_rot_s01_90_truck_20_n04467665_15994.png
subject-01,1,54,1.36293697357178,chair,chair,90,0054_rot_s01_90_chair_20_n02791124_2034.png
subject-01,1,55,1.01620602607727,truck,truck,90,0055_rot_s01_90_truck_20_n04467665_64792.png
subject-01,1,56,0.754817962646484,oven,oven,0,0056_rot_s01_0_oven_20_n04111531_4817.png
subject-01,1,57,0.907218933105469,bicycle,bicycle,0,0057_rot_s01_0_bicycle_20_n03792782_892.png
subject-01,1,58,0.869742155075073,bicycle,bicycle,0,0058_rot_s01_0_bicycle_20_n03792782_63201.png
subject-01,1,59,1.09001302719116,truck,truck,0,0059_rot_s01_0_truck_20_n03796401_588.png
subject-01,1,60,0.944576025009155,keyboard,keyboard,270,0060_rot_s01_270_keyboard_20_n04505470_2055.png
subject-01,1,61,0.888190031051636,airplane,airplane,0,0061_rot_s01_0_airplane_20_n02690373_2070.png
subject-01,1,62,1.24847984313965,dog,dog,180,0062_rot_s01_180_dog_20_n02093428_11151.png
subject-01,1,63,1.03280711174011,clock,clock,0,0063_rot_s01_0_clock_20_n02708093_1897.png
subject-01,1,64,0.869261026382446,boat,boat,0,0064_rot_s01_0_boat_20_n03662601_17483.png
subject-01,1,65,0.929265022277832,keyboard,keyboard,90,0065_rot_s01_90_keyboard_20_n03085013_12678.png
subject-01,1,66,0.746417999267578,airplane,airplane,180,0066_rot_s01_180_airplane_20_n02690373_9293.png
subject-01,1,67,0.644980907440186,keyboard,keyboard,270,0067_rot_s01_270_keyboard_20_n03085013_24385.png
subject-01,1,68,0.629968166351318,oven,oven,180,0068_rot_s01_180_oven_20_n04111531_7067.png
subject-01,1,69,NaN,na,bicycle,0,0069_rot_s01_0_bicycle_20_n03792782_15757.png
subject-01,1,70,0.834364891052246,elephant,elephant,270,0070_rot_s01_270_elephant_20_n02504013_4339.png
subject-01,1,71,1.04905891418457,dog,dog,0,0071_rot_s01_0_dog_20_n02087394_3354.png
subject-01,1,72,0.627448081970215,airplane,airplane,180,0072_rot_s01_180_airplane_20_n02690373_17044.png
subject-01,1,73,0.541939973831177,bottle,bottle,90,0073_rot_s01_90_bottle_20_n03983396_4115.png
subject-01,1,74,1.07034778594971,truck,truck,270,0074_rot_s01_270_truck_20_n03417042_9967.png
subject-01,1,75,0.862740039825439,elephant,elephant,90,0075_rot_s01_90_elephant_20_n02504458_1567.png
subject-01,1,76,1.33980989456177,cat,cat,180,0076_rot_s01_180_cat_20_n02123159_630.png
subject-01,1,77,0.693717956542969,clock,clock,270,0077_rot_s01_270_clock_20_n04548280_4035.png
subject-01,1,78,1.14597082138062,bicycle,oven,0,0078_rot_s01_0_oven_20_n04111531_10403.png
subject-01,1,79,0.84439492225647,bottle,bottle,270,0079_rot_s01_270_bottle_20_n04557648_11000.png
subject-01,1,80,1.50005578994751,keyboard,keyboard,0,0080_rot_s01_0_keyboard_20_n03085013_22217.png
subject-01,1,81,0.596992969512939,elephant,elephant,270,0081_rot_s01_270_elephant_20_n02504013_5173.png
subject-01,1,82,0.819790124893188,truck,truck,0,0082_rot_s01_0_truck_20_n03417042_11446.png
subject-01,1,83,0.8350510597229,keyboard,keyboard,180,0083_rot_s01_180_keyboard_20_n03085013_3920.png
subject-01,1,84,1.00380682945251,bird,bird,90,0084_rot_s01_90_bird_20_n02002556_5890.png
subject-01,1,85,0.942108869552612,knife,knife,180,0085_rot_s01_180_knife_20_n03041632_4318.png
subject-01,1,86,1.17838382720947,bear,bear,90,0086_rot_s01_90_bear_20_n02132136_18953.png
subject-01,1,87,0.802895069122314,clock,clock,90,0087_rot_s01_90_clock_20_n04548280_5937.png
subject-01,1,88,0.985594034194946,airplane,airplane,0,0088_rot_s01_0_airplane_20_n02690373_10044.png
subject-01,1,89,0.924400091171265,bottle,bottle,90,0089_rot_s01_90_bottle_20_n02823428_6252.png
subject-01,1,90,1.11892795562744,bear,dog,180,0090_rot_s01_180_dog_20_n02100877_3112.png
subject-01,1,91,0.897148132324219,airplane,airplane,270,0091_rot_s01_270_airplane_20_n02690373_6104.png
subject-01,1,92,1.40949487686157,bottle,chair,270,0092_rot_s01_270_chair_20_n02791124_10287.png
subject-01,1,93,0.893703937530518,bicycle,bicycle,180,0093_rot_s01_180_bicycle_20_n02835271_18706.png
subject-01,1,94,0.686815023422241,elephant,elephant,90,0094_rot_s01_90_elephant_20_n02504013_344.png
subject-01,1,95,0.738550901412964,oven,oven,270,0095_rot_s01_270_oven_20_n04111531_845.png
subject-01,1,96,0.776940107345581,oven,oven,0,0096_rot_s01_0_oven_20_n04111531_21248.png
subject-01,1,97,1.01544094085693,bird,bird,180,0097_rot_s01_180_bird_20_n01616318_1164.png
subject-01,1,98,0.983479022979736,bird,bird,270,0098_rot_s01_270_bird_20_n02006656_6435.png
subject-01,1,99,1.41971492767334,dog,bear,90,0099_rot_s01_90_bear_20_n02133161_15177.png
subject-01,1,100,1.11346101760864,bird,bird,180,0100_rot_s01_180_bird_20_n01514859_18430.png
subject-01,1,101,0.976337909698486,oven,oven,90,0101_rot_s01_90_oven_20_n04111531_5328.png
subject-01,1,102,1.49872303009033,truck,elephant,180,0102_rot_s01_180_elephant_20_n02504013_7926.png
subject-01,1,103,0.575024843215942,boat,boat,0,0103_rot_s01_0_boat_20_n04273569_30203.png
subject-01,1,104,0.682186126708984,bear,bear,90,0104_rot_s01_90_bear_20_n02133161_5267.png
subject-01,1,105,1.00403189659119,bicycle,bicycle,0,0105_rot_s01_0_bicycle_20_n02835271_6383.png
subject-01,1,106,1.34361910820007,cat,cat,270,0106_rot_s01_270_cat_20_n02124075_10542.png
subject-01,1,107,0.835991859436035,bottle,bottle,180,0107_rot_s01_180_bottle_20_n04557648_5790.png
subject-01,1,108,0.774935007095337,truck,truck,0,0108_rot_s01_0_truck_20_n04467665_7093.png
subject-01,1,109,0.905474901199341,bottle,bottle,180,0109_rot_s01_180_bottle_20_n04579145_1646.png
subject-01,1,110,0.943583965301514,clock,clock,90,0110_rot_s01_90_clock_20_n03196217_4578.png
subject-01,1,111,1.25815892219543,knife,oven,90,0111_rot_s01_90_oven_20_n04111531_1818.png
subject-01,1,112,1.00266218185425,bottle,bottle,90,0112_rot_s01_90_bottle_20_n03937543_4830.png
subject-01,1,113,0.925204992294312,car,car,0,0113_rot_s01_0_car_20_n03100240_19550.png
subject-01,1,114,0.725066184997559,cat,cat,270,0114_rot_s01_270_cat_20_n02123597_6434.png
subject-01,1,115,1.06435990333557,elephant,elephant,0,0115_rot_s01_0_elephant_20_n02504458_1302.png
subject-01,1,116,0.963006973266602,keyboard,keyboard,180,0116_rot_s01_180_keyboard_20_n04505470_4473.png
subject-01,1,117,0.801194906234741,cat,cat,270,0117_rot_s01_270_cat_20_n02123159_5939.png
subject-01,1,118,1.17850804328918,car,boat,0,0118_rot_s01_0_boat_20_n04273569_1538.png
subject-01,1,119,0.887274980545044,car,car,90,0119_rot_s01_90_car_20_n03100240_1153.png
subject-01,1,120,0.904067039489746,car,car,0,0120_rot_s01_0_car_20_n03100240_17587.png
subject-01,1,121,1.33180809020996,car,chair,180,0121_rot_s01_180_chair_20_n04099969_22118.png
subject-01,1,122,1.18668794631958,elephant,elephant,180,0122_rot_s01_180_elephant_20_n02504458_1623.png
subject-01,1,123,0.846951961517334,cat,cat,180,0123_rot_s01_180_cat_20_n02123159_2285.png
subject-01,1,124,0.917192220687866,bird,bird,270,0124_rot_s01_270_bird_20_n02028035_32824.png
subject-01,1,125,0.785489082336426,bicycle,bicycle,180,0125_rot_s01_180_bicycle_20_n02835271_5861.png
subject-01,1,126,1.02231383323669,dog,dog,0,0126_rot_s01_0_dog_20_n02089973_9526.png
subject-01,1,127,0.985476970672607,dog,dog,0,0127_rot_s01_0_dog_20_n02109525_7478.png
subject-01,1,128,1.46078896522522,boat,chair,180,0128_rot_s01_180_chair_20_n03376595_2103.png
subject-01,1,129,0.799698114395142,bear,bear,0,0129_rot_s01_0_bear_20_n02134418_2398.png
subject-01,1,130,0.800831079483032,bottle,bottle,180,0130_rot_s01_180_bottle_20_n03983396_10896.png
subject-01,1,131,0.806812047958374,truck,truck,270,0131_rot_s01_270_truck_20_n04467665_5275.png
subject-01,1,132,1.13787579536438,airplane,airplane,270,0132_rot_s01_270_airplane_20_n02690373_8214.png
subject-01,1,133,1.04436206817627,bird,bird,180,0133_rot_s01_180_bird_20_n02002724_6462.png
subject-01,1,134,0.982672929763794,keyboard,keyboard,180,0134_rot_s01_180_keyboard_20_n03085013_6405.png
subject-01,1,135,0.788426160812378,cat,cat,0,0135_rot_s01_0_cat_20_n02123597_32226.png
subject-01,1,136,0.766715049743652,cat,cat,180,0136_rot_s01_180_cat_20_n02123045_11787.png
subject-01,1,137,1.13594102859497,car,car,90,0137_rot_s01_90_car_20_n04285008_15503.png
subject-01,1,138,1.01014590263367,bird,bird,90,0138_rot_s01_90_bird_20_n02025239_17065.png
subject-01,1,139,0.658833980560303,boat,boat,180,0139_rot_s01_180_boat_20_n04273569_29113.png
subject-01,1,140,0.919089078903198,clock,clock,270,0140_rot_s01_270_clock_20_n03196217_2291.png
subject-01,1,141,0.84223198890686,airplane,airplane,180,0141_rot_s01_180_airplane_20_n02690373_3669.png
subject-01,1,142,0.93502402305603,car,car,270,0142_rot_s01_270_car_20_n03100240_17226.png
subject-01,1,143,0.857324123382568,truck,truck,0,0143_rot_s01_0_truck_20_n03796401_1791.png
subject-01,1,144,0.604266166687012,clock,clock,0,0144_rot_s01_0_clock_20_n02708093_240.png
subject-01,1,145,0.755358934402466,bottle,bottle,90,0145_rot_s01_90_bottle_20_n03937543_2469.png
subject-01,1,146,0.716142892837524,knife,knife,270,0146_rot_s01_270_knife_20_n03041632_737.png
subject-01,1,147,0.746600866317749,car,car,0,0147_rot_s01_0_car_20_n03100240_18679.png
subject-01,1,148,0.764001131057739,bicycle,bicycle,270,0148_rot_s01_270_bicycle_20_n03792782_28970.png
subject-01,1,149,1.47573709487915,airplane,knife,180,0149_rot_s01_180_knife_20_n03041632_15174.png
subject-01,1,150,1.06791806221008,cat,cat,180,0150_rot_s01_180_cat_20_n02124075_13437.png
subject-01,1,151,0.831177949905396,keyboard,keyboard,0,0151_rot_s01_0_keyboard_20_n04505470_10055.png
subject-01,1,152,0.777211904525757,bicycle,bicycle,90,0152_rot_s01_90_bicycle_20_n03792782_12010.png
subject-01,1,153,1.19191718101501,clock,knife,90,0153_rot_s01_90_knife_20_n03041632_51339.png
subject-01,1,154,0.538319110870361,chair,chair,0,0154_rot_s01_0_chair_20_n02791124_422.png
subject-01,1,155,1.46678805351257,airplane,airplane,180,0155_rot_s01_180_airplane_20_n02690373_1491.png
subject-01,1,156,0.651127099990845,elephant,elephant,0,0156_rot_s01_0_elephant_20_n02504013_1333.png
subject-01,1,157,0.797499895095825,dog,dog,90,0157_rot_s01_90_dog_20_n02095570_7633.png
subject-01,1,158,0.71245288848877,knife,knife,90,0158_rot_s01_90_knife_20_n03041632_7448.png
subject-01,1,159,1.02722787857056,dog,cat,90,0159_rot_s01_90_cat_20_n02125311_1896.png
subject-01,1,160,1.08915305137634,car,car,90,0160_rot_s01_90_car_20_n04285008_5641.png
subject-01,1,161,0.907140016555786,chair,chair,0,0161_rot_s01_0_chair_20_n02791124_4956.png
subject-01,1,162,0.753331899642944,dog,dog,90,0162_rot_s01_90_dog_20_n02087394_2278.png
subject-01,1,163,0.592388153076172,boat,boat,90,0163_rot_s01_90_boat_20_n04273569_8951.png
subject-01,1,164,0.668329000473022,car,car,0,0164_rot_s01_0_car_20_n02814533_70448.png
subject-01,1,165,0.753261089324951,elephant,elephant,180,0165_rot_s01_180_elephant_20_n02504013_10257.png
subject-01,1,166,0.761402130126953,bear,bear,0,0166_rot_s01_0_bear_20_n02134418_5527.png
subject-01,1,167,0.521852016448975,cat,cat,180,0167_rot_s01_180_cat_20_n02123045_11545.png
subject-01,1,168,0.500509977340698,clock,clock,90,0168_rot_s01_90_clock_20_n02708093_8069.png
subject-01,1,169,0.836287021636963,keyboard,keyboard,90,0169_rot_s01_90_keyboard_20_n03085013_22665.png
subject-01,1,170,0.505092144012451,oven,oven,180,0170_rot_s01_180_oven_20_n04111531_1439.png
subject-01,1,171,1.3898458480835,clock,clock,270,0171_rot_s01_270_clock_20_n03196217_1984.png
subject-01,1,172,0.713731050491333,boat,boat,180,0172_rot_s01_180_boat_20_n03662601_16627.png
subject-01,1,173,0.552458047866821,dog,dog,90,0173_rot_s01_90_dog_20_n02090622_7692.png
subject-01,1,174,0.507261037826538,clock,clock,270,0174_rot_s01_270_clock_20_n02708093_5577.png
subject-01,1,175,0.530658006668091,cat,cat,180,0175_rot_s01_180_cat_20_n02123597_1901.png
subject-01,1,176,0.623126029968262,elephant,elephant,180,0176_rot_s01_180_elephant_20_n02504013_5035.png
subject-01,1,177,1.17520594596863,knife,oven,90,0177_rot_s01_90_oven_20_n04111531_8988.png
subject-01,1,178,0.562141895294189,bottle,bottle,180,0178_rot_s01_180_bottle_20_n02823428_3.png
subject-01,1,179,0.947338104248047,keyboard,keyboard,270,0179_rot_s01_270_keyboard_20_n04505470_1416.png
subject-01,1,180,0.564091920852661,bottle,bottle,90,0180_rot_s01_90_bottle_20_n04579145_6509.png
subject-01,1,181,0.731474876403809,dog,dog,0,0181_rot_s01_0_dog_20_n02102318_501.png
subject-01,1,182,1.48529696464539,airplane,airplane,270,0182_rot_s01_270_airplane_20_n02690373_10769.png
subject-01,1,183,0.693445920944214,elephant,elephant,90,0183_rot_s01_90_elephant_20_n02504458_2613.png
subject-01,1,184,NaN,na,elephant,90,0184_rot_s01_90_elephant_20_n02504458_113.png
subject-01,1,185,0.753591060638428,dog,dog,0,0185_rot_s01_0_dog_20_n02098105_385.png
subject-01,1,186,1.49811697006226,knife,knife,0,0186_rot_s01_0_knife_20_n03041632_3781.png
subject-01,1,187,0.893438100814819,bottle,bottle,90,0187_rot_s01_90_bottle_20_n03983396_3315.png
subject-01,1,188,0.762262105941772,clock,clock,90,0188_rot_s01_90_clock_20_n02708093_1986.png
subject-01,1,189,0.586475849151611,car,car,180,0189_rot_s01_180_car_20_n04285008_8530.png
subject-01,1,190,0.824783802032471,keyboard,keyboard,0,0190_rot_s01_0_keyboard_20_n04505470_4619.png
subject-01,1,191,0.539808034896851,cat,cat,0,0191_rot_s01_0_cat_20_n02123597_19872.png
subject-01,1,192,0.632504940032959,bicycle,bicycle,0,0192_rot_s01_0_bicycle_20_n02835271_23830.png
subject-01,1,193,0.678578853607178,airplane,airplane,90,0193_rot_s01_90_airplane_20_n02690373_3877.png
subject-01,1,194,0.909565925598145,bird,bird,0,0194_rot_s01_0_bird_20_n02009229_492.png
subject-01,1,195,1.19362092018127,cat,cat,0,0195_rot_s01_0_cat_20_n02125311_18366.png
subject-01,1,196,0.748821020126343,cat,cat,270,0196_rot_s01_270_cat_20_n02123597_5927.png
subject-01,1,197,0.61166787147522,chair,chair,0,0197_rot_s01_0_chair_20_n03376595_5909.png
subject-01,1,198,0.795766830444336,clock,clock,0,0198_rot_s01_0_clock_20_n02708093_3535.png
subject-01,1,199,0.972573041915894,chair,chair,270,0199_rot_s01_270_chair_20_n04099969_16.png
subject-01,1,200,1.0410418510437,bicycle,bicycle,0,0200_rot_s01_0_bicycle_20_n02835271_8137.png
subject-01,1,201,0.9114830493927,dog,dog,0,0201_rot_s01_0_dog_20_n02101006_4807.png
subject-01,1,202,1.08039283752441,bird,bird,270,0202_rot_s01_270_bird_20_n02028035_10744.png
subject-01,1,203,1.19786405563354,elephant,elephant,0,0203_rot_s01_0_elephant_20_n02504458_7867.png
subject-01,1,204,0.944093942642212,cat,cat,0,0204_rot_s01_0_cat_20_n02123597_2341.png
subject-01,1,205,0.974399089813232,knife,knife,90,0205_rot_s01_90_knife_20_n03041632_15250.png
subject-01,1,206,0.641922950744629,oven,oven,270,0206_rot_s01_270_oven_20_n04111531_4332.png
subject-01,1,207,0.742845058441162,oven,oven,180,0207_rot_s01_180_oven_20_n04111531_10375.png
subject-01,1,208,1.50004315376282,dog,dog,90,0208_rot_s01_90_dog_20_n02107683_3120.png
subject-01,1,209,0.795740127563477,car,car,270,0209_rot_s01_270_car_20_n02814533_82321.png
subject-01,1,210,0.736330986022949,knife,knife,180,0210_rot_s01_180_knife_20_n03041632_53874.png
subject-01,1,211,0.964648962020874,dog,dog,270,0211_rot_s01_270_dog_20_n02113624_393.png
subject-01,1,212,0.952378988265991,car,car,270,0212_rot_s01_270_car_20_n04285008_11704.png
subject-01,1,213,1.15333318710327,bear,elephant,90,0213_rot_s01_90_elephant_20_n02504013_7316.png
subject-01,1,214,0.876121997833252,car,truck,180,0214_rot_s01_180_truck_20_n03417042_5004.png
subject-01,1,215,0.507992029190063,cat,cat,0,0215_rot_s01_0_cat_20_n02124075_7835.png
subject-01,1,216,0.75239109992981,knife,knife,0,0216_rot_s01_0_knife_20_n03041632_45775.png
subject-01,1,217,0.829160928726196,airplane,airplane,0,0217_rot_s01_0_airplane_20_n02690373_2598.png
subject-01,1,218,0.867156982421875,keyboard,keyboard,270,0218_rot_s01_270_keyboard_20_n03085013_7879.png
subject-01,1,219,1.26810479164124,dog,dog,270,0219_rot_s01_270_dog_20_n02094433_1289.png
subject-01,1,220,1.20660996437073,bird,cat,0,0220_rot_s01_0_cat_20_n02123045_10433.png
subject-01,1,221,1.04573702812195,bottle,bottle,180,0221_rot_s01_180_bottle_20_n03983396_704.png
subject-01,1,222,0.9914870262146,airplane,airplane,270,0222_rot_s01_270_airplane_20_n02690373_1946.png
subject-01,1,223,0.82167911529541,bicycle,bicycle,270,0223_rot_s01_270_bicycle_20_n03792782_40932.png
subject-01,1,224,1.0450291633606,dog,dog,180,0224_rot_s01_180_dog_20_n02107908_2754.png
subject-01,1,225,0.882704973220825,oven,oven,270,0225_rot_s01_270_oven_20_n04111531_6533.png
subject-01,1,226,0.86210298538208,clock,clock,180,0226_rot_s01_180_clock_20_n04548280_5286.png
subject-01,1,227,0.946802854537964,bottle,bottle,270,0227_rot_s01_270_bottle_20_n04591713_3663.png
subject-01,1,228,1.39910697937012,airplane,airplane,0,0228_rot_s01_0_airplane_20_n02690373_2379.png
subject-01,1,229,0.89151406288147,elephant,elephant,270,0229_rot_s01_270_elephant_20_n02504013_6139.png
subject-01,1,230,0.829912185668945,keyboard,keyboard,90,0230_rot_s01_90_keyboard_20_n03085013_23625.png
subject-01,1,231,0.938916921615601,elephant,elephant,270,0231_rot_s01_270_elephant_20_n02504013_15219.png
subject-01,1,232,0.769944906234741,clock,clock,180,0232_rot_s01_180_clock_20_n02708093_8311.png
subject-01,1,233,1.12401103973389,elephant,elephant,0,0233_rot_s01_0_elephant_20_n02504013_1370.png
subject-01,1,234,1.16289782524109,dog,dog,0,0234_rot_s01_0_dog_20_n02109525_63913.png
subject-01,1,235,1.00145196914673,bicycle,bicycle,180,0235_rot_s01_180_bicycle_20_n03792782_1173.png
subject-01,1,236,0.961889028549194,chair,chair,270,0236_rot_s01_270_chair_20_n04099969_5396.png
subject-01,1,237,0.862661123275757,oven,oven,180,0237_rot_s01_180_oven_20_n04111531_3611.png
subject-01,1,238,0.841432094573975,keyboard,keyboard,270,0238_rot_s01_270_keyboard_20_n03085013_1129.png
subject-01,1,239,0.963505983352661,bottle,bottle,0,0239_rot_s01_0_bottle_20_n03937543_6698.png
subject-01,1,240,0.980866193771362,elephant,elephant,270,0240_rot_s01_270_elephant_20_n02504458_9922.png
subject-01,1,241,NaN,na,airplane,90,0241_rot_s01_90_airplane_20_n02690373_4714.png
subject-01,1,242,0.750431060791016,elephant,elephant,0,0242_rot_s01_0_elephant_20_n02504458_493.png
subject-01,1,243,0.664185047149658,airplane,airplane,90,0243_rot_s01_90_airplane_20_n02690373_4024.png
subject-01,1,244,0.88593602180481,car,car,90,0244_rot_s01_90_car_20_n02814533_31743.png
subject-01,1,245,0.9708411693573,bicycle,bicycle,0,0245_rot_s01_0_bicycle_20_n02835271_8521.png
subject-01,1,246,0.677016019821167,truck,truck,270,0246_rot_s01_270_truck_20_n03417042_28584.png
subject-01,1,247,0.747234106063843,bicycle,bicycle,270,0247_rot_s01_270_bicycle_20_n03792782_10129.png
subject-01,1,248,0.923624038696289,keyboard,keyboard,180,0248_rot_s01_180_keyboard_20_n03085013_20478.png
subject-01,1,249,0.930850982666016,clock,clock,180,0249_rot_s01_180_clock_20_n04548280_7115.png
subject-01,1,250,0.600693225860596,bird,bird,270,0250_rot_s01_270_bird_20_n01614925_1860.png
subject-01,1,251,1.44562697410583,keyboard,clock,270,0251_rot_s01_270_clock_20_n03196217_2022.png
subject-01,1,252,0.645179986953735,bear,bear,90,0252_rot_s01_90_bear_20_n02134418_10879.png
subject-01,1,253,0.838144063949585,car,car,180,0253_rot_s01_180_car_20_n02814533_55715.png
subject-01,1,254,0.727614879608154,bicycle,bicycle,0,0254_rot_s01_0_bicycle_20_n02835271_10265.png
subject-01,1,255,0.682034015655518,oven,oven,180,0255_rot_s01_180_oven_20_n04111531_13644.png
subject-01,1,256,0.775053024291992,truck,truck,90,0256_rot_s01_90_truck_20_n03796401_16046.png
subject-01,1,257,1.19830703735352,car,dog,180,0257_rot_s01_180_dog_20_n02090721_1449.png
subject-01,1,258,0.850106000900269,clock,clock,90,0258_rot_s01_90_clock_20_n04548280_1947.png
subject-01,1,259,0.704890012741089,car,car,90,0259_rot_s01_90_car_20_n02814533_5916.png
subject-01,1,260,0.856455087661743,bear,bear,90,0260_rot_s01_90_bear_20_n02134418_5783.png
subject-01,1,261,0.581541061401367,keyboard,keyboard,0,0261_rot_s01_0_keyboard_20_n03085013_2073.png
subject-01,1,262,0.804131031036377,bottle,bottle,270,0262_rot_s01_270_bottle_20_n04560804_11386.png
subject-01,1,263,0.710558891296387,bicycle,bicycle,180,0263_rot_s01_180_bicycle_20_n02835271_3643.png
subject-01,1,264,1.12480807304382,knife,clock,180,0264_rot_s01_180_clock_20_n04548280_13750.png
subject-01,1,265,0.963276863098145,knife,knife,90,0265_rot_s01_90_knife_20_n03041632_19620.png
subject-01,1,266,0.764172077178955,boat,airplane,270,0266_rot_s01_270_airplane_20_n02690373_3818.png
subject-01,1,267,0.740171909332275,bicycle,bicycle,0,0267_rot_s01_0_bicycle_20_n02835271_12984.png
subject-01,1,268,0.587555885314941,elephant,elephant,270,0268_rot_s01_270_elephant_20_n02504458_1971.png
subject-01,1,269,0.785237073898315,elephant,elephant,270,0269_rot_s01_270_elephant_20_n02504458_30.png
subject-01,1,270,1.00814604759216,bicycle,bicycle,270,0270_rot_s01_270_bicycle_20_n03792782_586.png
subject-01,1,271,0.836703062057495,knife,knife,270,0271_rot_s01_270_knife_20_n03041632_9759.png
subject-01,1,272,1.38899612426758,bicycle,truck,270,0272_rot_s01_270_truck_20_n03796401_6346.png
subject-01,1,273,1.14188885688782,keyboard,car,270,0273_rot_s01_270_car_20_n03100240_7085.png
subject-01,1,274,0.521161794662476,boat,boat,270,0274_rot_s01_270_boat_20_n03344393_1533.png
subject-01,1,275,1.35112690925598,car,car,270,0275_rot_s01_270_car_20_n02814533_46458.png
subject-01,1,276,1.1110999584198,knife,knife,270,0276_rot_s01_270_knife_20_n03041632_7205.png
subject-01,1,277,0.781944036483765,dog,dog,90,0277_rot_s01_90_dog_20_n02111277_2994.png
subject-01,1,278,1.04954099655151,airplane,airplane,0,0278_rot_s01_0_airplane_20_n02690373_10188.png
subject-01,1,279,0.566406011581421,cat,cat,0,0279_rot_s01_0_cat_20_n02123394_3695.png
subject-01,1,280,0.697582960128784,boat,boat,90,0280_rot_s01_90_boat_20_n04273569_17340.png
subject-01,1,281,0.774113893508911,bear,bear,180,0281_rot_s01_180_bear_20_n02134418_1825.png
subject-01,1,282,0.743024110794067,bear,bear,270,0282_rot_s01_270_bear_20_n02134084_18952.png
subject-01,1,283,0.789629936218262,clock,clock,180,0283_rot_s01_180_clock_20_n04548280_3305.png
subject-01,1,284,1.05172610282898,bicycle,bicycle,180,0284_rot_s01_180_bicycle_20_n03792782_14413.png
subject-01,1,285,0.942434072494507,keyboard,keyboard,270,0285_rot_s01_270_keyboard_20_n03085013_20716.png
subject-01,1,286,0.758778095245361,cat,cat,180,0286_rot_s01_180_cat_20_n02125311_24813.png
subject-01,1,287,1.38133406639099,dog,dog,180,0287_rot_s01_180_dog_20_n02093754_918.png
subject-01,1,288,0.683038949966431,oven,oven,90,0288_rot_s01_90_oven_20_n04111531_1855.png
subject-01,1,289,1.02184891700745,elephant,elephant,0,0289_rot_s01_0_elephant_20_n02504458_1404.png
subject-01,1,290,0.868165969848633,bottle,bottle,0,0290_rot_s01_0_bottle_20_n03937543_11959.png
subject-01,1,291,1.02337718009949,bird,bird,270,0291_rot_s01_270_bird_20_n02013706_652.png
subject-01,1,292,0.953026056289673,chair,chair,90,0292_rot_s01_90_chair_20_n04099969_6944.png
subject-01,1,293,1.39198708534241,oven,chair,180,0293_rot_s01_180_chair_20_n02791124_3923.png
subject-01,1,294,0.998227834701538,bird,bird,0,0294_rot_s01_0_bird_20_n01531178_3183.png
subject-01,1,295,0.961003065109253,elephant,elephant,270,0295_rot_s01_270_elephant_20_n02504013_13512.png
subject-01,1,296,0.836879014968872,chair,chair,90,0296_rot_s01_90_chair_20_n04099969_2561.png
subject-01,1,297,0.905881881713867,bird,bird,90,0297_rot_s01_90_bird_20_n01534433_14735.png
subject-01,1,298,0.852861881256104,chair,chair,0,0298_rot_s01_0_chair_20_n02791124_2898.png
subject-01,1,299,0.799088954925537,clock,clock,270,0299_rot_s01_270_clock_20_n03196217_1829.png
subject-01,1,300,1.27518606185913,oven,cat,270,0300_rot_s01_270_cat_20_n02123394_4700.png
subject-01,1,301,1.07620000839233,airplane,airplane,0,0301_rot_s01_0_airplane_20_n02690373_8163.png
subject-01,1,302,0.976682901382446,knife,knife,90,0302_rot_s01_90_knife_20_n03041632_19571.png
subject-01,1,303,1.26249098777771,oven,oven,0,0303_rot_s01_0_oven_20_n04111531_27.png
subject-01,1,304,1.4385781288147,boat,chair,270,0304_rot_s01_270_chair_20_n03376595_497.png
subject-01,1,305,0.631204128265381,airplane,airplane,0,0305_rot_s01_0_airplane_20_n02690373_6753.png
subject-01,1,306,1.083909034729,bicycle,bicycle,270,0306_rot_s01_270_bicycle_20_n03792782_12844.png
subject-01,1,307,0.832939147949219,dog,dog,270,0307_rot_s01_270_dog_20_n02111500_6559.png
subject-01,1,308,1.50027799606323,dog,bottle,270,0308_rot_s01_270_bottle_20_n04591713_6111.png
subject-01,1,309,0.761780977249146,knife,knife,180,0309_rot_s01_180_knife_20_n03041632_2630.png
subject-01,1,310,1.07083797454834,car,car,270,0310_rot_s01_270_car_20_n02814533_89061.png
subject-01,1,311,0.7707839012146,cat,cat,0,0311_rot_s01_0_cat_20_n02123394_5301.png
subject-01,1,312,1.06217312812805,truck,truck,180,0312_rot_s01_180_truck_20_n03417042_6539.png
subject-01,1,313,0.724867105484009,bottle,bottle,0,0313_rot_s01_0_bottle_20_n02823428_3694.png
subject-01,1,314,0.600814819335938,bear,bear,270,0314_rot_s01_270_bear_20_n02132136_15168.png
subject-01,1,315,0.831629037857056,bear,bear,270,0315_rot_s01_270_bear_20_n02132136_18303.png
subject-01,1,316,1.06193280220032,bird,bird,0,0316_rot_s01_0_bird_20_n02006656_5757.png
subject-01,1,317,0.746369123458862,bicycle,bicycle,0,0317_rot_s01_0_bicycle_20_n02835271_9310.png
subject-01,1,318,NaN,na,knife,180,0318_rot_s01_180_knife_20_n03041632_101810.png
subject-01,1,319,0.678267955780029,bird,bird,90,0319_rot_s01_90_bird_20_n02011460_22646.png
subject-01,1,320,1.1308798789978,elephant,elephant,90,0320_rot_s01_90_elephant_20_n02504458_5759.png
subject-01,1,321,1.50032901763916,keyboard,truck,90,0321_rot_s01_90_truck_20_n03796401_7284.png
subject-01,1,322,0.929589986801147,elephant,elephant,180,0322_rot_s01_180_elephant_20_n02504013_2431.png
subject-01,1,323,1.05235290527344,clock,clock,180,0323_rot_s01_180_clock_20_n02708093_8255.png
subject-01,1,324,0.58457612991333,boat,boat,0,0324_rot_s01_0_boat_20_n02951358_18762.png
subject-01,1,325,0.568768978118896,oven,oven,0,0325_rot_s01_0_oven_20_n04111531_6204.png
subject-01,1,326,0.829138040542603,boat,boat,180,0326_rot_s01_180_boat_20_n04273569_13053.png
subject-01,1,327,0.613286018371582,chair,chair,180,0327_rot_s01_180_chair_20_n04099969_10825.png
subject-01,1,328,0.590057134628296,clock,knife,270,0328_rot_s01_270_knife_20_n03041632_17100.png
subject-01,1,329,0.82059907913208,chair,chair,90,0329_rot_s01_90_chair_20_n04429376_19916.png
subject-01,1,330,0.528944969177246,oven,oven,90,0330_rot_s01_90_oven_20_n04111531_7728.png
subject-01,1,331,0.764853000640869,airplane,airplane,90,0331_rot_s01_90_airplane_20_n02690373_4982.png
subject-01,1,332,0.565942049026489,oven,oven,90,0332_rot_s01_90_oven_20_n04111531_22291.png
subject-01,1,333,0.834038019180298,bicycle,bicycle,90,0333_rot_s01_90_bicycle_20_n03792782_47774.png
subject-01,1,334,0.764994859695435,clock,clock,270,0334_rot_s01_270_clock_20_n03196217_3600.png
subject-01,1,335,0.815007925033569,bottle,bottle,180,0335_rot_s01_180_bottle_20_n02823428_14574.png
subject-01,1,336,0.987534999847412,truck,truck,270,0336_rot_s01_270_truck_20_n03417042_10744.png
subject-01,1,337,0.841885089874268,bottle,bottle,0,0337_rot_s01_0_bottle_20_n03937543_1197.png
subject-01,1,338,1.15593099594116,car,car,0,0338_rot_s01_0_car_20_n03100240_3927.png
subject-01,1,339,1.25481820106506,truck,truck,0,0339_rot_s01_0_truck_20_n03796401_6294.png
subject-01,1,340,0.862519979476929,car,car,180,0340_rot_s01_180_car_20_n03100240_1703.png
subject-01,1,341,0.7445969581604,chair,chair,270,0341_rot_s01_270_chair_20_n03376595_6445.png
subject-01,1,342,1.04505896568298,bird,bird,270,0342_rot_s01_270_bird_20_n02028035_20411.png
subject-01,1,343,0.859678983688354,bear,bear,180,0343_rot_s01_180_bear_20_n02134084_3696.png
subject-01,1,344,1.08467483520508,keyboard,keyboard,90,0344_rot_s01_90_keyboard_20_n04505470_3207.png
subject-01,1,345,1.02913308143616,truck,truck,180,0345_rot_s01_180_truck_20_n03796401_26894.png
subject-01,1,346,0.761882781982422,chair,chair,270,0346_rot_s01_270_chair_20_n04099969_18678.png
subject-01,1,347,1.1359441280365,bird,bird,270,0347_rot_s01_270_bird_20_n02056570_9303.png
subject-01,1,348,1.28263902664185,dog,dog,0,0348_rot_s01_0_dog_20_n02092339_659.png
subject-01,1,349,0.945526838302612,bottle,bottle,0,0349_rot_s01_0_bottle_20_n02823428_3570.png
subject-01,1,350,0.867351055145264,dog,dog,90,0350_rot_s01_90_dog_20_n02087394_7707.png
subject-01,1,351,0.705878019332886,bird,bird,180,0351_rot_s01_180_bird_20_n01560419_19599.png
subject-01,1,352,0.875219106674194,bird,bird,0,0352_rot_s01_0_bird_20_n01582220_8827.png
subject-01,1,353,0.820876121520996,bicycle,bicycle,270,0353_rot_s01_270_bicycle_20_n02835271_8757.png
subject-01,1,354,0.77370810508728,truck,truck,90,0354_rot_s01_90_truck_20_n03796401_15105.png
subject-01,1,355,0.795835018157959,bear,bear,90,0355_rot_s01_90_bear_20_n02132136_17349.png
subject-01,1,356,0.996555089950562,knife,knife,270,0356_rot_s01_270_knife_20_n03041632_46112.png
subject-01,1,357,1.1030011177063,clock,chair,270,0357_rot_s01_270_chair_20_n04429376_13448.png
subject-01,1,358,1.23414516448975,knife,knife,180,0358_rot_s01_180_knife_20_n03041632_7116.png
subject-01,1,359,0.918399810791016,elephant,elephant,180,0359_rot_s01_180_elephant_20_n02504458_5641.png
subject-01,1,360,0.894624948501587,elephant,elephant,270,0360_rot_s01_270_elephant_20_n02504013_7883.png
subject-01,1,361,0.71126389503479,dog,dog,270,0361_rot_s01_270_dog_20_n02094258_6398.png
subject-01,1,362,0.795385122299194,dog,dog,270,0362_rot_s01_270_dog_20_n02087394_1428.png
subject-01,1,363,0.840474843978882,clock,chair,180,0363_rot_s01_180_chair_20_n02791124_880.png
subject-01,1,364,1.01099705696106,oven,oven,0,0364_rot_s01_0_oven_20_n04111531_7045.png
subject-01,1,365,1.01188015937805,airplane,airplane,180,0365_rot_s01_180_airplane_20_n02690373_15097.png
subject-01,1,366,0.896247148513794,elephant,elephant,180,0366_rot_s01_180_elephant_20_n02504458_259.png
subject-01,1,367,1.12455201148987,dog,dog,180,0367_rot_s01_180_dog_20_n02100236_7671.png
subject-01,1,368,1.07195806503296,dog,dog,270,0368_rot_s01_270_dog_20_n02092002_5845.png
subject-01,1,369,1.10193204879761,oven,oven,90,0369_rot_s01_90_oven_20_n04111531_6933.png
subject-01,1,370,0.909696102142334,bird,bird,90,0370_rot_s01_90_bird_20_n02006656_10849.png
subject-01,1,371,1.16247296333313,knife,knife,90,0371_rot_s01_90_knife_20_n03041632_30079.png
subject-01,1,372,0.762891054153442,bicycle,bicycle,90,0372_rot_s01_90_bicycle_20_n03792782_16117.png
subject-01,1,373,0.952763080596924,airplane,airplane,270,0373_rot_s01_270_airplane_20_n02690373_8746.png
subject-01,1,374,1.20720601081848,oven,chair,90,0374_rot_s01_90_chair_20_n04429376_14729.png
subject-01,1,375,0.743584871292114,boat,boat,180,0375_rot_s01_180_boat_20_n03344393_7705.png
subject-01,1,376,1.10586094856262,cat,cat,90,0376_rot_s01_90_cat_20_n02125311_59332.png
subject-01,1,377,0.944288969039917,clock,clock,180,0377_rot_s01_180_clock_20_n02708093_1038.png
subject-01,1,378,0.966801166534424,bottle,bottle,270,0378_rot_s01_270_bottle_20_n02823428_10946.png
subject-01,1,379,1.00594186782837,airplane,airplane,270,0379_rot_s01_270_airplane_20_n02690373_9247.png
subject-01,1,380,0.996011018753052,truck,truck,90,0380_rot_s01_90_truck_20_n04467665_8303.png
subject-01,1,381,0.903947830200195,bicycle,bicycle,270,0381_rot_s01_270_bicycle_20_n03792782_29606.png
subject-01,1,382,0.77253794670105,chair,chair,180,0382_rot_s01_180_chair_20_n04429376_4296.png
subject-01,1,383,0.756924152374268,bird,bird,0,0383_rot_s01_0_bird_20_n01797886_2045.png
subject-01,1,384,0.570905923843384,bird,bird,270,0384_rot_s01_270_bird_20_n02025239_13707.png
subject-01,1,385,1.03200101852417,cat,cat,90,0385_rot_s01_90_cat_20_n02123394_2948.png
subject-01,1,386,0.632308006286621,chair,chair,90,0386_rot_s01_90_chair_20_n04099969_1941.png
subject-01,1,387,1.00898122787476,keyboard,keyboard,180,0387_rot_s01_180_keyboard_20_n04505470_10746.png
subject-01,1,388,1.00755500793457,car,car,90,0388_rot_s01_90_car_20_n04285008_8519.png
subject-01,1,389,0.624315023422241,clock,clock,180,0389_rot_s01_180_clock_20_n03196217_571.png
subject-01,1,390,0.816640138626099,elephant,elephant,270,0390_rot_s01_270_elephant_20_n02504458_8296.png
subject-01,1,391,0.70715594291687,bicycle,bicycle,90,0391_rot_s01_90_bicycle_20_n03792782_5048.png
subject-01,1,392,1.17555499076843,chair,oven,0,0392_rot_s01_0_oven_20_n04111531_13255.png
subject-01,1,393,0.667973041534424,clock,clock,0,0393_rot_s01_0_clock_20_n03196217_4254.png
subject-01,1,394,1.22088003158569,truck,car,270,0394_rot_s01_270_car_20_n02814533_45480.png
subject-01,1,395,0.529541015625,clock,clock,180,0395_rot_s01_180_clock_20_n04548280_2313.png
subject-01,1,396,1.27688598632812,truck,truck,180,0396_rot_s01_180_truck_20_n03796401_2258.png
subject-01,1,397,0.739685773849487,cat,keyboard,180,0397_rot_s01_180_keyboard_20_n03085013_24316.png
subject-01,1,398,0.616043090820312,clock,clock,90,0398_rot_s01_90_clock_20_n04548280_1254.png
subject-01,1,399,0.992347955703735,knife,knife,270,0399_rot_s01_270_knife_20_n03041632_18995.png
subject-01,1,400,0.635087013244629,boat,boat,270,0400_rot_s01_270_boat_20_n04273569_10980.png
subject-01,1,401,1.14158797264099,truck,truck,0,0401_rot_s01_0_truck_20_n03796401_5058.png
subject-01,1,402,0.695902824401855,keyboard,keyboard,270,0402_rot_s01_270_keyboard_20_n03085013_21444.png
subject-01,1,403,1.41143393516541,clock,clock,180,0403_rot_s01_180_clock_20_n03196217_1271.png
subject-01,1,404,0.965996980667114,knife,knife,90,0404_rot_s01_90_knife_20_n03041632_50648.png
subject-01,1,405,0.821149110794067,bottle,bottle,90,0405_rot_s01_90_bottle_20_n03983396_5514.png
subject-01,1,406,1.15997791290283,elephant,elephant,0,0406_rot_s01_0_elephant_20_n02504013_1636.png
subject-01,1,407,0.768718957901001,boat,boat,90,0407_rot_s01_90_boat_20_n03662601_12581.png
subject-01,1,408,1.13675904273987,knife,knife,0,0408_rot_s01_0_knife_20_n03041632_100645.png
subject-01,1,409,1.0057270526886,chair,chair,0,0409_rot_s01_0_chair_20_n04429376_1137.png
subject-01,1,410,0.724675893783569,truck,truck,180,0410_rot_s01_180_truck_20_n04467665_13225.png
subject-01,1,411,0.893710136413574,knife,knife,270,0411_rot_s01_270_knife_20_n03041632_31367.png
subject-01,1,412,0.694246053695679,oven,chair,180,0412_rot_s01_180_chair_20_n02791124_4369.png
subject-01,1,413,0.74881911277771,bear,bear,270,0413_rot_s01_270_bear_20_n02134084_17215.png
subject-01,1,414,0.817670106887817,bear,bear,90,0414_rot_s01_90_bear_20_n02132136_19248.png
subject-01,1,415,0.841230869293213,bird,bird,90,0415_rot_s01_90_bird_20_n01614925_2052.png
subject-01,1,416,0.695363998413086,clock,clock,0,0416_rot_s01_0_clock_20_n03196217_1255.png
subject-01,1,417,0.742475986480713,bird,bird,90,0417_rot_s01_90_bird_20_n02009912_12219.png
subject-01,1,418,0.856398820877075,clock,clock,270,0418_rot_s01_270_clock_20_n04548280_4198.png
subject-01,1,419,0.641180038452148,bear,dog,270,0419_rot_s01_270_dog_20_n02105505_3286.png
subject-01,1,420,0.821974039077759,bear,bear,180,0420_rot_s01_180_bear_20_n02132136_545.png
subject-01,1,421,1.22852396965027,car,knife,90,0421_rot_s01_90_knife_20_n03041632_4975.png
subject-01,1,422,0.964541912078857,boat,boat,90,0422_rot_s01_90_boat_20_n04273569_7097.png
subject-01,1,423,0.904711008071899,keyboard,keyboard,90,0423_rot_s01_90_keyboard_20_n03085013_9209.png
subject-01,1,424,0.741314172744751,bicycle,bicycle,0,0424_rot_s01_0_bicycle_20_n02835271_18188.png
subject-01,1,425,0.650219917297363,clock,clock,90,0425_rot_s01_90_clock_20_n04548280_11763.png
subject-01,1,426,1.18648386001587,car,car,0,0426_rot_s01_0_car_20_n02814533_486.png
subject-01,1,427,0.948843955993652,clock,clock,0,0427_rot_s01_0_clock_20_n02708093_2030.png
subject-01,1,428,1.36298704147339,car,car,0,0428_rot_s01_0_car_20_n02814533_37256.png
subject-01,1,429,1.18526196479797,clock,chair,90,0429_rot_s01_90_chair_20_n04429376_1754.png
subject-01,1,430,0.87792706489563,bear,bear,180,0430_rot_s01_180_bear_20_n02133161_5235.png
subject-01,1,431,1.0382981300354,clock,keyboard,90,0431_rot_s01_90_keyboard_20_n03085013_7317.png
subject-01,1,432,1.43183183670044,car,car,90,0432_rot_s01_90_car_20_n04285008_8102.png
subject-01,1,433,1.1913161277771,bear,dog,180,0433_rot_s01_180_dog_20_n02096051_892.png
subject-01,1,434,1.42797589302063,cat,bear,270,0434_rot_s01_270_bear_20_n02134084_1802.png
subject-01,1,435,0.660601139068604,clock,clock,180,0435_rot_s01_180_clock_20_n04548280_15154.png
subject-01,1,436,NaN,na,airplane,0,0436_rot_s01_0_airplane_20_n02690373_2232.png
subject-01,1,437,0.757631063461304,bird,bird,270,0437_rot_s01_270_bird_20_n01843383_9985.png
subject-01,1,438,1.35776782035828,truck,truck,180,0438_rot_s01_180_truck_20_n03417042_21663.png
subject-01,1,439,NaN,na,bottle,90,0439_rot_s01_90_bottle_20_n04560804_570.png
subject-01,1,440,0.618046998977661,airplane,airplane,90,0440_rot_s01_90_airplane_20_n02690373_5748.png
subject-01,1,441,1.25508284568787,dog,dog,180,0441_rot_s01_180_dog_20_n02087394_9693.png
subject-01,1,442,0.501232862472534,oven,oven,0,0442_rot_s01_0_oven_20_n04111531_22517.png
subject-01,1,443,0.701271057128906,knife,knife,270,0443_rot_s01_270_knife_20_n03041632_17820.png
subject-01,1,444,1.10816192626953,elephant,dog,180,0444_rot_s01_180_dog_20_n02107142_4461.png
subject-01,1,445,0.722592115402222,dog,dog,0,0445_rot_s01_0_dog_20_n02091467_2974.png
subject-01,1,446,1.11524200439453,bear,bear,270,0446_rot_s01_270_bear_20_n02133161_1247.png
subject-01,1,447,0.754199981689453,bird,bird,180,0447_rot_s01_180_bird_20_n02017213_6478.png
subject-01,1,448,0.624957084655762,oven,oven,90,0448_rot_s01_90_oven_20_n04111531_4327.png
subject-01,1,449,0.599250793457031,boat,boat,0,0449_rot_s01_0_boat_20_n03344393_8032.png
subject-01,1,450,0.661740064620972,airplane,airplane,90,0450_rot_s01_90_airplane_20_n02690373_4845.png
subject-01,1,451,0.89766788482666,car,car,180,0451_rot_s01_180_car_20_n04285008_7155.png
subject-01,1,452,NaN,na,bottle,270,0452_rot_s01_270_bottle_20_n02823428_12190.png
subject-01,1,453,1.06670188903809,cat,cat,180,0453_rot_s01_180_cat_20_n02123159_5548.png
subject-01,1,454,0.656739950180054,airplane,airplane,90,0454_rot_s01_90_airplane_20_n02690373_2675.png
subject-01,1,455,0.581449031829834,clock,clock,90,0455_rot_s01_90_clock_20_n04548280_6865.png
subject-01,1,456,0.718095064163208,keyboard,keyboard,270,0456_rot_s01_270_keyboard_20_n03085013_7382.png
subject-01,1,457,0.910181999206543,bear,elephant,90,0457_rot_s01_90_elephant_20_n02504013_256.png
subject-01,1,458,1.27120304107666,knife,knife,90,0458_rot_s01_90_knife_20_n03041632_4806.png
subject-01,1,459,1.29317808151245,bird,bird,270,0459_rot_s01_270_bird_20_n02018207_7930.png
subject-01,1,460,1.19973492622375,knife,knife,0,0460_rot_s01_0_knife_20_n03041632_9488.png
subject-01,1,461,0.799681186676025,oven,oven,270,0461_rot_s01_270_oven_20_n04111531_8421.png
subject-01,1,462,0.660356044769287,cat,keyboard,180,0462_rot_s01_180_keyboard_20_n03085013_3691.png
subject-01,1,463,0.799062013626099,bottle,bottle,270,0463_rot_s01_270_bottle_20_n04579145_631.png
subject-01,1,464,0.607081174850464,boat,boat,180,0464_rot_s01_180_boat_20_n03662601_9140.png
subject-01,1,465,0.756542921066284,clock,clock,0,0465_rot_s01_0_clock_20_n04548280_6776.png
subject-01,1,466,0.78698992729187,dog,dog,270,0466_rot_s01_270_dog_20_n02108000_1044.png
subject-01,1,467,0.741438150405884,cat,cat,90,0467_rot_s01_90_cat_20_n02123159_5461.png
subject-01,1,468,0.718268156051636,oven,oven,0,0468_rot_s01_0_oven_20_n04111531_73.png
subject-01,1,469,0.71619701385498,keyboard,keyboard,270,0469_rot_s01_270_keyboard_20_n04505470_510.png
subject-01,1,470,0.901750802993774,truck,truck,270,0470_rot_s01_270_truck_20_n04467665_44390.png
subject-01,1,471,1.37015509605408,airplane,bottle,270,0471_rot_s01_270_bottle_20_n04560804_6329.png
subject-01,1,472,0.784126996994019,dog,dog,0,0472_rot_s01_0_dog_20_n02107908_8891.png
subject-01,1,473,0.738760948181152,keyboard,keyboard,270,0473_rot_s01_270_keyboard_20_n03085013_13083.png
subject-01,1,474,0.777981042861938,oven,bottle,0,0474_rot_s01_0_bottle_20_n03983396_17262.png
subject-01,1,475,0.583404064178467,keyboard,keyboard,0,0475_rot_s01_0_keyboard_20_n04505470_4651.png
subject-01,1,476,0.668226003646851,bird,bird,90,0476_rot_s01_90_bird_20_n01860187_20081.png
subject-01,1,477,0.486571073532104,oven,oven,270,0477_rot_s01_270_oven_20_n04111531_10722.png
subject-01,1,478,0.901226043701172,knife,knife,90,0478_rot_s01_90_knife_20_n03041632_17859.png
subject-01,1,479,0.931308031082153,elephant,elephant,180,0479_rot_s01_180_elephant_20_n02504458_193.png
subject-01,1,480,0.607963800430298,oven,oven,180,0480_rot_s01_180_oven_20_n04111531_2795.png
subject-01,1,481,0.452723979949951,cat,cat,0,0481_rot_s01_0_cat_20_n02123159_1008.png
subject-01,1,482,0.797219038009644,chair,chair,180,0482_rot_s01_180_chair_20_n04099969_4162.png
subject-01,1,483,0.981349945068359,bottle,bottle,180,0483_rot_s01_180_bottle_20_n03983396_2002.png
subject-01,1,484,0.573734045028687,cat,cat,180,0484_rot_s01_180_cat_20_n02123394_6853.png
subject-01,1,485,0.582403898239136,clock,clock,0,0485_rot_s01_0_clock_20_n03196217_11724.png
subject-01,1,486,0.743839025497437,bear,bear,0,0486_rot_s01_0_bear_20_n02134084_3934.png
subject-01,1,487,0.658417940139771,bicycle,bicycle,180,0487_rot_s01_180_bicycle_20_n03792782_42626.png
subject-01,1,488,0.825211048126221,clock,clock,270,0488_rot_s01_270_clock_20_n03196217_5433.png
subject-01,1,489,1.24612283706665,car,car,180,0489_rot_s01_180_car_20_n03100240_8489.png
subject-01,1,490,0.662286996841431,oven,oven,270,0490_rot_s01_270_oven_20_n04111531_9380.png
subject-01,1,491,0.684535026550293,cat,cat,90,0491_rot_s01_90_cat_20_n02123045_6696.png
subject-01,1,492,0.690593004226685,boat,boat,0,0492_rot_s01_0_boat_20_n03662601_8410.png
subject-01,1,493,1.0270140171051,clock,bottle,270,0493_rot_s01_270_bottle_20_n03983396_22816.png
subject-01,1,494,0.466044902801514,bird,bird,180,0494_rot_s01_180_bird_20_n02018207_5735.png
subject-01,1,495,0.666890859603882,knife,knife,180,0495_rot_s01_180_knife_20_n03041632_22330.png
subject-01,1,496,0.826852083206177,clock,clock,90,0496_rot_s01_90_clock_20_n02708093_3394.png
subject-01,1,497,0.549314022064209,keyboard,keyboard,90,0497_rot_s01_90_keyboard_20_n04505470_4173.png
subject-01,1,498,0.841718196868896,elephant,elephant,0,0498_rot_s01_0_elephant_20_n02504458_4482.png
subject-01,1,499,1.44640898704529,elephant,elephant,180,0499_rot_s01_180_elephant_20_n02504013_828.png
subject-01,1,500,1.02493906021118,bottle,bottle,180,0500_rot_s01_180_bottle_20_n04557648_4242.png
subject-01,1,501,0.60843300819397,boat,boat,270,0501_rot_s01_270_boat_20_n02951358_4937.png
subject-01,1,502,0.584728956222534,clock,clock,180,0502_rot_s01_180_clock_20_n02708093_2900.png
subject-01,1,503,0.867504835128784,bear,dog,180,0503_rot_s01_180_dog_20_n02104365_1592.png
subject-01,1,504,0.806444883346558,airplane,airplane,270,0504_rot_s01_270_airplane_20_n02690373_8876.png
subject-01,1,505,0.72900390625,keyboard,keyboard,90,0505_rot_s01_90_keyboard_20_n03085013_8334.png
subject-01,1,506,0.721601009368896,keyboard,keyboard,90,0506_rot_s01_90_keyboard_20_n04505470_816.png
subject-01,1,507,0.82886004447937,bottle,bottle,0,0507_rot_s01_0_bottle_20_n04560804_9710.png
subject-01,1,508,0.867228031158447,bicycle,bicycle,180,0508_rot_s01_180_bicycle_20_n02835271_2625.png
subject-01,1,509,0.765777111053467,bottle,bottle,0,0509_rot_s01_0_bottle_20_n03983396_1881.png
subject-01,1,510,0.779542922973633,cat,cat,0,0510_rot_s01_0_cat_20_n02125311_14054.png
subject-01,1,511,0.771745204925537,keyboard,keyboard,180,0511_rot_s01_180_keyboard_20_n03085013_7009.png
subject-01,1,512,1.10014510154724,dog,dog,90,0512_rot_s01_90_dog_20_n02111500_8796.png
subject-01,1,513,1.15481400489807,airplane,airplane,270,0513_rot_s01_270_airplane_20_n02690373_1235.png
subject-01,1,514,0.685957908630371,keyboard,keyboard,0,0514_rot_s01_0_keyboard_20_n03085013_23834.png
subject-01,1,515,0.768049955368042,bottle,bottle,180,0515_rot_s01_180_bottle_20_n02823428_8392.png
subject-01,1,516,1.14522194862366,car,car,180,0516_rot_s01_180_car_20_n03100240_5752.png
subject-01,1,517,0.98345685005188,boat,boat,90,0517_rot_s01_90_boat_20_n04273569_19314.png
subject-01,1,518,0.814565896987915,bear,bear,270,0518_rot_s01_270_bear_20_n02132136_9358.png
subject-01,1,519,0.739290952682495,boat,boat,90,0519_rot_s01_90_boat_20_n04273569_7296.png
subject-01,1,520,0.607532978057861,cat,cat,0,0520_rot_s01_0_cat_20_n02123159_2137.png
subject-01,1,521,0.91429615020752,chair,chair,180,0521_rot_s01_180_chair_20_n02791124_3186.png
subject-01,1,522,1.50043082237244,truck,truck,90,0522_rot_s01_90_truck_20_n03417042_8634.png
subject-01,1,523,0.651412963867188,bear,dog,180,0523_rot_s01_180_dog_20_n02109961_36163.png
subject-01,1,524,0.521989107131958,chair,chair,180,0524_rot_s01_180_chair_20_n04429376_3898.png
subject-01,1,525,0.628488063812256,bicycle,bicycle,180,0525_rot_s01_180_bicycle_20_n03792782_3591.png
subject-01,1,526,0.480924129486084,cat,cat,90,0526_rot_s01_90_cat_20_n02125311_2959.png
subject-01,1,527,0.658190011978149,keyboard,keyboard,180,0527_rot_s01_180_keyboard_20_n03085013_20960.png
subject-01,1,528,0.872308969497681,truck,truck,0,0528_rot_s01_0_truck_20_n03417042_22196.png
subject-01,1,529,1.14884305000305,dog,dog,90,0529_rot_s01_90_dog_20_n02097047_3817.png
subject-01,1,530,0.641301870346069,car,car,0,0530_rot_s01_0_car_20_n04285008_12909.png
subject-01,1,531,0.802018165588379,car,car,270,0531_rot_s01_270_car_20_n03100240_8898.png
subject-01,1,532,0.862587928771973,bird,bird,270,0532_rot_s01_270_bird_20_n01592084_8100.png
subject-01,1,533,0.817259073257446,keyboard,keyboard,0,0533_rot_s01_0_keyboard_20_n03085013_24103.png
subject-01,1,534,1.08526206016541,airplane,chair,180,0534_rot_s01_180_chair_20_n04099969_3485.png
subject-01,1,535,NaN,na,truck,270,0535_rot_s01_270_truck_20_n03417042_5301.png
subject-01,1,536,0.639952182769775,bear,bear,0,0536_rot_s01_0_bear_20_n02132136_10412.png
subject-01,1,537,0.692412853240967,dog,dog,90,0537_rot_s01_90_dog_20_n02090379_13010.png
subject-01,1,538,0.622779130935669,elephant,elephant,0,0538_rot_s01_0_elephant_20_n02504458_151.png
subject-01,1,539,0.646112203598022,dog,dog,0,0539_rot_s01_0_dog_20_n02097209_1042.png
subject-01,1,540,1.08227205276489,knife,knife,270,0540_rot_s01_270_knife_20_n03041632_15099.png
subject-01,1,541,0.728249073028564,keyboard,keyboard,270,0541_rot_s01_270_keyboard_20_n03085013_22175.png
subject-01,1,542,0.838359832763672,knife,knife,270,0542_rot_s01_270_knife_20_n03041632_424.png
subject-01,1,543,0.723347902297974,clock,clock,0,0543_rot_s01_0_clock_20_n04548280_8278.png
subject-01,1,544,1.22184801101685,dog,cat,90,0544_rot_s01_90_cat_20_n02125311_73072.png
subject-01,1,545,1.02808618545532,truck,truck,0,0545_rot_s01_0_truck_20_n03796401_8463.png
subject-01,1,546,0.596687078475952,keyboard,keyboard,0,0546_rot_s01_0_keyboard_20_n03085013_15249.png
subject-01,1,547,0.772824048995972,dog,dog,90,0547_rot_s01_90_dog_20_n02110063_8776.png
subject-01,1,548,0.895653009414673,elephant,elephant,270,0548_rot_s01_270_elephant_20_n02504013_7724.png
subject-01,1,549,0.771675109863281,boat,boat,270,0549_rot_s01_270_boat_20_n03344393_2961.png
subject-01,1,550,1.16246604919434,truck,truck,0,0550_rot_s01_0_truck_20_n03417042_9378.png
subject-01,1,551,0.66355299949646,bottle,bottle,270,0551_rot_s01_270_bottle_20_n04591713_7036.png
subject-01,1,552,0.701817989349365,clock,clock,180,0552_rot_s01_180_clock_20_n04548280_1190.png
subject-01,1,553,0.778513193130493,bicycle,bicycle,270,0553_rot_s01_270_bicycle_20_n03792782_52601.png
subject-01,1,554,0.622709035873413,boat,boat,0,0554_rot_s01_0_boat_20_n03344393_2866.png
subject-01,1,555,0.745373010635376,bear,bear,0,0555_rot_s01_0_bear_20_n02132136_2791.png
subject-01,1,556,1.49805593490601,truck,truck,180,0556_rot_s01_180_truck_20_n03796401_22323.png
subject-01,1,557,0.76937198638916,keyboard,keyboard,180,0557_rot_s01_180_keyboard_20_n03085013_22698.png
subject-01,1,558,0.545150995254517,oven,oven,270,0558_rot_s01_270_oven_20_n04111531_18430.png
subject-01,1,559,0.805888175964355,dog,dog,270,0559_rot_s01_270_dog_20_n02107683_2450.png
subject-01,1,560,1.02093815803528,airplane,airplane,90,0560_rot_s01_90_airplane_20_n02690373_1909.png
subject-01,1,561,1.13522601127625,dog,bear,180,0561_rot_s01_180_bear_20_n02134418_2122.png
subject-01,1,562,0.635555028915405,keyboard,keyboard,0,0562_rot_s01_0_keyboard_20_n04505470_1903.png
subject-01,1,563,0.880200862884521,car,car,180,0563_rot_s01_180_car_20_n02814533_85971.png
subject-01,1,564,0.662410974502563,elephant,elephant,180,0564_rot_s01_180_elephant_20_n02504458_1504.png
subject-01,1,565,0.855648040771484,truck,truck,270,0565_rot_s01_270_truck_20_n04467665_70509.png
subject-01,1,566,0.991286993026733,bottle,bottle,270,0566_rot_s01_270_bottle_20_n04557648_581.png
subject-01,1,567,0.776007175445557,car,car,90,0567_rot_s01_90_car_20_n02814533_479.png
subject-01,1,568,0.67709493637085,airplane,airplane,270,0568_rot_s01_270_airplane_20_n02690373_813.png
subject-01,1,569,0.920903921127319,bear,bear,270,0569_rot_s01_270_bear_20_n02132136_239.png
subject-01,1,570,0.77285099029541,airplane,airplane,270,0570_rot_s01_270_airplane_20_n02690373_2584.png
subject-01,1,571,0.879789113998413,dog,dog,0,0571_rot_s01_0_dog_20_n02087394_9061.png
subject-01,1,572,0.720715045928955,truck,truck,180,0572_rot_s01_180_truck_20_n03417042_29384.png
subject-01,1,573,0.664564847946167,boat,boat,90,0573_rot_s01_90_boat_20_n03662601_6832.png
subject-01,1,574,0.7328040599823,keyboard,keyboard,0,0574_rot_s01_0_keyboard_20_n03085013_10463.png
subject-01,1,575,0.722338914871216,cat,cat,90,0575_rot_s01_90_cat_20_n02123394_234.png
subject-01,1,576,0.79219913482666,truck,truck,270,0576_rot_s01_270_truck_20_n03417042_9552.png
subject-01,1,577,1.03016114234924,car,truck,90,0577_rot_s01_90_truck_20_n04467665_90715.png
subject-01,1,578,1.12117099761963,keyboard,keyboard,180,0578_rot_s01_180_keyboard_20_n03085013_24105.png
subject-01,1,579,0.691253185272217,clock,clock,90,0579_rot_s01_90_clock_20_n02708093_2676.png
subject-01,1,580,0.759704113006592,keyboard,keyboard,270,0580_rot_s01_270_keyboard_20_n04505470_1929.png
subject-01,1,581,1.00947308540344,airplane,airplane,270,0581_rot_s01_270_airplane_20_n02690373_5430.png
subject-01,1,582,0.749136924743652,bottle,bottle,90,0582_rot_s01_90_bottle_20_n02823428_10417.png
subject-01,1,583,0.556496143341064,bear,bear,270,0583_rot_s01_270_bear_20_n02133161_14397.png
subject-01,1,584,0.83098292350769,bear,bear,90,0584_rot_s01_90_bear_20_n02132136_11339.png
subject-01,1,585,0.899699926376343,airplane,airplane,270,0585_rot_s01_270_airplane_20_n02690373_8740.png
subject-01,1,586,0.600406169891357,cat,cat,270,0586_rot_s01_270_cat_20_n02123597_2549.png
subject-01,1,587,0.714749097824097,bottle,bottle,0,0587_rot_s01_0_bottle_20_n03983396_9823.png
subject-01,1,588,0.699399948120117,bottle,bottle,270,0588_rot_s01_270_bottle_20_n04557648_16525.png
subject-01,1,589,0.69733715057373,keyboard,keyboard,90,0589_rot_s01_90_keyboard_20_n04505470_4584.png
subject-01,1,590,1.18753790855408,bicycle,bicycle,180,0590_rot_s01_180_bicycle_20_n03792782_6058.png
subject-01,1,591,1.16453194618225,truck,truck,90,0591_rot_s01_90_truck_20_n04467665_71055.png
subject-01,1,592,0.719341039657593,boat,boat,90,0592_rot_s01_90_boat_20_n04273569_17255.png
subject-01,1,593,0.787305116653442,airplane,airplane,270,0593_rot_s01_270_airplane_20_n02690373_6459.png
subject-01,1,594,0.843255996704102,dog,dog,0,0594_rot_s01_0_dog_20_n02104029_4770.png
subject-01,1,595,0.765759944915771,clock,clock,0,0595_rot_s01_0_clock_20_n04548280_5798.png
subject-01,1,596,1.50023412704468,bear,bear,0,0596_rot_s01_0_bear_20_n02132136_10385.png
subject-01,1,597,0.948909997940063,boat,boat,90,0597_rot_s01_90_boat_20_n02951358_12532.png
subject-01,1,598,0.75731897354126,boat,boat,270,0598_rot_s01_270_boat_20_n03662601_21408.png
subject-01,1,599,1.02403497695923,cat,cat,270,0599_rot_s01_270_cat_20_n02124075_8889.png
subject-01,1,600,1.25419592857361,car,car,180,0600_rot_s01_180_car_20_n03100240_16210.png
subject-01,1,601,0.847168922424316,clock,clock,0,0601_rot_s01_0_clock_20_n04548280_3038.png
subject-01,1,602,0.806367874145508,bear,bear,0,0602_rot_s01_0_bear_20_n02132136_9797.png
subject-01,1,603,1.12696599960327,airplane,airplane,90,0603_rot_s01_90_airplane_20_n02690373_3492.png
subject-01,1,604,0.741314172744751,dog,dog,270,0604_rot_s01_270_dog_20_n02107683_7183.png
subject-01,1,605,0.619895935058594,cat,cat,180,0605_rot_s01_180_cat_20_n02123394_8100.png
subject-01,1,606,0.772731065750122,airplane,airplane,270,0606_rot_s01_270_airplane_20_n02690373_1348.png
subject-01,1,607,0.702956914901733,bicycle,bicycle,0,0607_rot_s01_0_bicycle_20_n03792782_4895.png
subject-01,1,608,0.517906188964844,cat,cat,90,0608_rot_s01_90_cat_20_n02124075_20.png
subject-01,1,609,0.562442779541016,clock,clock,90,0609_rot_s01_90_clock_20_n03196217_421.png
subject-01,1,610,0.931014060974121,car,car,180,0610_rot_s01_180_car_20_n02814533_38205.png
subject-01,1,611,0.77514910697937,bicycle,bicycle,180,0611_rot_s01_180_bicycle_20_n02835271_2131.png
subject-01,1,612,0.714384078979492,chair,chair,270,0612_rot_s01_270_chair_20_n04429376_44914.png
subject-01,1,613,0.827946901321411,bird,bird,180,0613_rot_s01_180_bird_20_n02027492_20576.png
subject-01,1,614,1.00486087799072,boat,boat,270,0614_rot_s01_270_boat_20_n04273569_17522.png
subject-01,1,615,0.911015033721924,elephant,elephant,270,0615_rot_s01_270_elephant_20_n02504013_5364.png
subject-01,1,616,0.812400102615356,knife,knife,0,0616_rot_s01_0_knife_20_n03041632_10263.png
subject-01,1,617,0.794509887695312,keyboard,keyboard,270,0617_rot_s01_270_keyboard_20_n03085013_1070.png
subject-01,1,618,0.900761127471924,airplane,airplane,0,0618_rot_s01_0_airplane_20_n02690373_1171.png
subject-01,1,619,0.763357162475586,cat,cat,90,0619_rot_s01_90_cat_20_n02123597_2522.png
subject-01,1,620,0.625291109085083,chair,chair,0,0620_rot_s01_0_chair_20_n03376595_19165.png
subject-01,1,621,0.64787220954895,bottle,bottle,0,0621_rot_s01_0_bottle_20_n03937543_1929.png
subject-01,1,622,0.994523048400879,keyboard,keyboard,90,0622_rot_s01_90_keyboard_20_n03085013_24294.png
subject-01,1,623,0.579344987869263,boat,boat,0,0623_rot_s01_0_boat_20_n04273569_11502.png
subject-01,1,624,0.707194089889526,knife,knife,0,0624_rot_s01_0_knife_20_n03041632_26314.png
subject-01,1,625,1.05937719345093,airplane,airplane,90,0625_rot_s01_90_airplane_20_n02690373_9794.png
subject-01,1,626,1.20605182647705,car,car,270,0626_rot_s01_270_car_20_n02814533_458.png
subject-01,1,627,1.45910716056824,truck,truck,0,0627_rot_s01_0_truck_20_n03417042_6838.png
subject-01,1,628,0.643348932266235,bird,bird,180,0628_rot_s01_180_bird_20_n01531178_17239.png
subject-01,1,629,0.720417022705078,bottle,bottle,0,0629_rot_s01_0_bottle_20_n04560804_15562.png
subject-01,1,630,0.579563856124878,clock,clock,90,0630_rot_s01_90_clock_20_n02708093_3623.png
subject-01,1,631,0.556997060775757,clock,clock,90,0631_rot_s01_90_clock_20_n04548280_5631.png
subject-01,1,632,0.787545919418335,dog,dog,0,0632_rot_s01_0_dog_20_n02110806_749.png
subject-01,1,633,0.801969051361084,keyboard,keyboard,180,0633_rot_s01_180_keyboard_20_n04505470_3553.png
subject-01,1,634,0.694470882415771,bird,bird,180,0634_rot_s01_180_bird_20_n02051845_8617.png
subject-01,1,635,0.601682186126709,bicycle,bicycle,270,0635_rot_s01_270_bicycle_20_n03792782_68417.png
subject-01,1,636,0.853087902069092,chair,chair,0,0636_rot_s01_0_chair_20_n03376595_3070.png
subject-01,1,637,0.898065090179443,cat,cat,180,0637_rot_s01_180_cat_20_n02123045_3168.png
subject-01,1,638,1.50009799003601,oven,knife,90,0638_rot_s01_90_knife_20_n03041632_11773.png
subject-01,1,639,0.691659927368164,bear,bear,270,0639_rot_s01_270_bear_20_n02132136_15174.png
subject-01,1,640,0.643708944320679,clock,clock,0,0640_rot_s01_0_clock_20_n04548280_253.png
subject-01,1,641,0.455272197723389,oven,oven,90,0641_rot_s01_90_oven_20_n04111531_21011.png
subject-01,1,642,0.929238080978394,dog,dog,90,0642_rot_s01_90_dog_20_n02099601_10748.png
subject-01,1,643,0.883364915847778,clock,clock,0,0643_rot_s01_0_clock_20_n04548280_6126.png
subject-01,1,644,0.536087989807129,boat,boat,270,0644_rot_s01_270_boat_20_n04273569_29866.png
subject-01,1,645,0.728791952133179,clock,clock,180,0645_rot_s01_180_clock_20_n03196217_946.png
subject-01,1,646,0.729724168777466,chair,chair,0,0646_rot_s01_0_chair_20_n02791124_3220.png
subject-01,1,647,0.697903156280518,oven,bottle,180,0647_rot_s01_180_bottle_20_n02823428_3298.png
subject-01,1,648,0.742408990859985,dog,dog,270,0648_rot_s01_270_dog_20_n02113023_291.png
subject-01,1,649,0.819435834884644,bird,cat,90,0649_rot_s01_90_cat_20_n02125311_41284.png
subject-01,1,650,0.725713968276978,bicycle,bicycle,180,0650_rot_s01_180_bicycle_20_n02835271_24630.png
subject-01,1,651,0.939883947372437,airplane,airplane,0,0651_rot_s01_0_airplane_20_n02690373_4979.png
subject-01,1,652,0.730252027511597,car,car,0,0652_rot_s01_0_car_20_n02814533_40531.png
subject-01,1,653,0.760773897171021,dog,dog,90,0653_rot_s01_90_dog_20_n02100877_11159.png
subject-01,1,654,0.528970003128052,boat,boat,90,0654_rot_s01_90_boat_20_n04273569_12725.png
subject-01,1,655,0.805668830871582,bicycle,bicycle,0,0655_rot_s01_0_bicycle_20_n02835271_12743.png
subject-01,1,656,0.734379053115845,bicycle,bicycle,0,0656_rot_s01_0_bicycle_20_n03792782_7105.png
subject-01,1,657,0.802181005477905,bottle,bottle,270,0657_rot_s01_270_bottle_20_n04591713_2123.png
subject-01,1,658,0.625233173370361,keyboard,keyboard,270,0658_rot_s01_270_keyboard_20_n03085013_19054.png
subject-01,1,659,0.579969167709351,keyboard,keyboard,90,0659_rot_s01_90_keyboard_20_n04505470_5007.png
subject-01,1,660,0.632784128189087,bird,bird,90,0660_rot_s01_90_bird_20_n01534433_1271.png
subject-01,1,661,1.14665603637695,boat,boat,270,0661_rot_s01_270_boat_20_n02951358_9837.png
subject-01,1,662,0.678141117095947,knife,knife,0,0662_rot_s01_0_knife_20_n03041632_99912.png
subject-01,1,663,0.568175077438354,bird,bird,180,0663_rot_s01_180_bird_20_n02017213_4781.png
subject-01,1,664,0.852240085601807,knife,knife,180,0664_rot_s01_180_knife_20_n03041632_30821.png
subject-01,1,665,0.672737121582031,dog,dog,90,0665_rot_s01_90_dog_20_n02100877_7302.png
subject-01,1,666,0.518163919448853,airplane,airplane,180,0666_rot_s01_180_airplane_20_n02690373_5838.png
subject-01,1,667,0.54591703414917,chair,chair,90,0667_rot_s01_90_chair_20_n04099969_8642.png
subject-01,1,668,0.647636890411377,bicycle,bicycle,0,0668_rot_s01_0_bicycle_20_n02835271_30318.png
subject-01,1,669,0.662635087966919,keyboard,keyboard,180,0669_rot_s01_180_keyboard_20_n03085013_20330.png
subject-01,1,670,0.977136850357056,knife,knife,180,0670_rot_s01_180_knife_20_n03041632_39883.png
subject-01,1,671,0.708039999008179,knife,knife,90,0671_rot_s01_90_knife_20_n03041632_36834.png
subject-01,1,672,1.03077006340027,knife,chair,0,0672_rot_s01_0_chair_20_n02791124_12707.png
subject-01,1,673,1.24330496788025,bear,elephant,180,0673_rot_s01_180_elephant_20_n02504458_5816.png
subject-01,1,674,1.21168398857117,bicycle,bicycle,270,0674_rot_s01_270_bicycle_20_n02835271_22206.png
subject-01,1,675,1.21024298667908,dog,dog,270,0675_rot_s01_270_dog_20_n02102177_255.png
subject-01,1,676,0.764503955841064,airplane,airplane,90,0676_rot_s01_90_airplane_20_n02690373_4695.png
subject-01,1,677,1.00335001945496,bird,bird,90,0677_rot_s01_90_bird_20_n02011460_13994.png
subject-01,1,678,0.785943031311035,cat,cat,270,0678_rot_s01_270_cat_20_n02123394_6969.png
subject-01,1,679,1.05390501022339,cat,elephant,0,0679_rot_s01_0_elephant_20_n02504013_6645.png
subject-01,1,680,1.08294010162354,bird,bird,90,0680_rot_s01_90_bird_20_n01855032_1920.png
subject-01,1,681,1.08314919471741,boat,boat,0,0681_rot_s01_0_boat_20_n03662601_28640.png
subject-01,1,682,1.05972003936768,bottle,bottle,180,0682_rot_s01_180_bottle_20_n04560804_15267.png
subject-01,1,683,0.682965993881226,boat,boat,180,0683_rot_s01_180_boat_20_n04273569_6586.png
subject-01,1,684,1.46486401557922,knife,knife,180,0684_rot_s01_180_knife_20_n03041632_21017.png
subject-01,1,685,0.842235088348389,keyboard,keyboard,0,0685_rot_s01_0_keyboard_20_n03085013_3795.png
subject-01,1,686,0.810202836990356,chair,chair,90,0686_rot_s01_90_chair_20_n02791124_5749.png
subject-01,1,687,0.694555044174194,chair,chair,0,0687_rot_s01_0_chair_20_n04429376_17343.png
subject-01,1,688,1.46868586540222,truck,truck,90,0688_rot_s01_90_truck_20_n03417042_9238.png
subject-01,1,689,1.2453761100769,truck,truck,0,0689_rot_s01_0_truck_20_n04467665_84527.png
subject-01,1,690,0.930310010910034,clock,clock,270,0690_rot_s01_270_clock_20_n02708093_3674.png
subject-01,1,691,0.805095195770264,dog,dog,0,0691_rot_s01_0_dog_20_n02110958_14369.png
subject-01,1,692,1.43599987030029,elephant,elephant,90,0692_rot_s01_90_elephant_20_n02504458_12090.png
subject-01,1,693,1.21802115440369,truck,truck,270,0693_rot_s01_270_truck_20_n04467665_14024.png
subject-01,1,694,1.29440307617188,truck,boat,90,0694_rot_s01_90_boat_20_n02951358_15422.png
subject-01,1,695,0.741583108901978,bird,bird,90,0695_rot_s01_90_bird_20_n01817953_6970.png
subject-01,1,696,0.972020864486694,bear,bear,180,0696_rot_s01_180_bear_20_n02132136_5537.png
subject-01,1,697,1.14097714424133,boat,boat,180,0697_rot_s01_180_boat_20_n03344393_5609.png
subject-01,1,698,1.00687003135681,truck,truck,180,0698_rot_s01_180_truck_20_n03417042_189.png
subject-01,1,699,0.853098154067993,bicycle,bicycle,180,0699_rot_s01_180_bicycle_20_n03792782_26168.png
subject-01,1,700,1.10648608207703,truck,truck,0,0700_rot_s01_0_truck_20_n04467665_8189.png
subject-01,1,701,0.942776918411255,knife,knife,90,0701_rot_s01_90_knife_20_n03041632_26710.png
subject-01,1,702,0.735676050186157,bird,bird,90,0702_rot_s01_90_bird_20_n01582220_7400.png
subject-01,1,703,0.874197006225586,airplane,airplane,180,0703_rot_s01_180_airplane_20_n02690373_139.png
subject-01,1,704,0.680731058120728,chair,chair,0,0704_rot_s01_0_chair_20_n04099969_16669.png
subject-01,1,705,1.3711268901825,keyboard,keyboard,0,0705_rot_s01_0_keyboard_20_n03085013_23566.png
subject-01,1,706,1.36136794090271,car,car,90,0706_rot_s01_90_car_20_n02814533_34149.png
subject-01,1,707,0.807894945144653,boat,boat,0,0707_rot_s01_0_boat_20_n03662601_11764.png
subject-01,1,708,0.830379009246826,bird,bird,0,0708_rot_s01_0_bird_20_n02033041_3924.png
subject-01,1,709,0.729839086532593,chair,chair,180,0709_rot_s01_180_chair_20_n03376595_9079.png
subject-01,1,710,1.06032514572144,chair,chair,180,0710_rot_s01_180_chair_20_n03376595_15468.png
subject-01,1,711,0.712165117263794,boat,boat,180,0711_rot_s01_180_boat_20_n03662601_1740.png
subject-01,1,712,0.818997859954834,bicycle,bicycle,90,0712_rot_s01_90_bicycle_20_n02835271_7053.png
subject-01,1,713,0.957191944122314,truck,truck,90,0713_rot_s01_90_truck_20_n03417042_28886.png
subject-01,1,714,0.79453706741333,chair,chair,180,0714_rot_s01_180_chair_20_n02791124_2938.png
subject-01,1,715,0.841312170028687,bird,bird,270,0715_rot_s01_270_bird_20_n01819313_17231.png
subject-01,1,716,1.00204086303711,airplane,airplane,90,0716_rot_s01_90_airplane_20_n02690373_5534.png
subject-01,1,717,0.970431804656982,elephant,elephant,180,0717_rot_s01_180_elephant_20_n02504458_5277.png
subject-01,1,718,0.69343900680542,oven,oven,270,0718_rot_s01_270_oven_20_n04111531_766.png
subject-01,1,719,1.08386206626892,car,car,90,0719_rot_s01_90_car_20_n02814533_18148.png
subject-01,1,720,0.889761924743652,clock,clock,180,0720_rot_s01_180_clock_20_n03196217_6526.png
subject-01,1,721,0.842571973800659,bird,bird,90,0721_rot_s01_90_bird_20_n01534433_14389.png
subject-01,1,722,0.835403919219971,truck,truck,270,0722_rot_s01_270_truck_20_n04467665_69882.png
subject-01,1,723,1.05781388282776,cat,cat,180,0723_rot_s01_180_cat_20_n02125311_24586.png
subject-01,1,724,0.910662889480591,bird,bird,90,0724_rot_s01_90_bird_20_n02018795_414.png
subject-01,1,725,0.686149120330811,bear,bear,90,0725_rot_s01_90_bear_20_n02134418_4365.png
subject-01,1,726,0.425271034240723,oven,oven,270,0726_rot_s01_270_oven_20_n04111531_1826.png
subject-01,1,727,0.588957786560059,truck,truck,0,0727_rot_s01_0_truck_20_n03417042_6975.png
subject-01,1,728,0.50342321395874,boat,boat,0,0728_rot_s01_0_boat_20_n03662601_16495.png
subject-01,1,729,0.848937034606934,car,car,270,0729_rot_s01_270_car_20_n02814533_41670.png
subject-01,1,730,1.08020615577698,bicycle,bicycle,90,0730_rot_s01_90_bicycle_20_n02835271_4797.png
subject-01,1,731,1.06229686737061,bear,bear,0,0731_rot_s01_0_bear_20_n02134418_1017.png
subject-01,1,732,0.885236024856567,truck,truck,180,0732_rot_s01_180_truck_20_n03796401_4582.png
subject-01,1,733,0.853374004364014,keyboard,keyboard,0,0733_rot_s01_0_keyboard_20_n04505470_7312.png
subject-01,1,734,0.91454815864563,knife,knife,0,0734_rot_s01_0_knife_20_n03041632_4279.png
subject-01,1,735,0.790733098983765,elephant,elephant,0,0735_rot_s01_0_elephant_20_n02504013_20486.png
subject-01,1,736,0.659578084945679,boat,boat,180,0736_rot_s01_180_boat_20_n03344393_8749.png
subject-01,1,737,0.674696922302246,bear,bear,0,0737_rot_s01_0_bear_20_n02132136_2799.png
subject-01,1,738,1.0887610912323,airplane,airplane,90,0738_rot_s01_90_airplane_20_n02690373_19345.png
subject-01,1,739,1.20410990715027,truck,truck,180,0739_rot_s01_180_truck_20_n04467665_9589.png
subject-01,1,740,0.787723064422607,truck,truck,270,0740_rot_s01_270_truck_20_n04467665_67908.png
subject-01,1,741,0.778077125549316,dog,dog,270,0741_rot_s01_270_dog_20_n02109047_66167.png
subject-01,1,742,0.684232950210571,elephant,elephant,90,0742_rot_s01_90_elephant_20_n02504458_585.png
subject-01,1,743,0.62278413772583,cat,cat,270,0743_rot_s01_270_cat_20_n02123045_8409.png
subject-01,1,744,0.683893918991089,elephant,elephant,270,0744_rot_s01_270_elephant_20_n02504458_485.png
subject-01,1,745,0.728248834609985,truck,truck,270,0745_rot_s01_270_truck_20_n03796401_7455.png
subject-01,1,746,1.08050489425659,elephant,elephant,180,0746_rot_s01_180_elephant_20_n02504013_10719.png
subject-01,1,747,0.773784160614014,car,car,0,0747_rot_s01_0_car_20_n02814533_6233.png
subject-01,1,748,0.949743032455444,dog,dog,180,0748_rot_s01_180_dog_20_n02111277_4038.png
subject-01,1,749,0.810842037200928,airplane,airplane,180,0749_rot_s01_180_airplane_20_n02690373_20331.png
subject-01,1,750,1.23902201652527,bear,bear,270,0750_rot_s01_270_bear_20_n02134084_147.png
subject-01,1,751,1.14799809455872,bottle,bottle,90,0751_rot_s01_90_bottle_20_n03937543_5619.png
subject-01,1,752,0.746335983276367,dog,dog,180,0752_rot_s01_180_dog_20_n02088094_13379.png
subject-01,1,753,0.530844926834106,oven,oven,90,0753_rot_s01_90_oven_20_n04111531_4375.png
subject-01,1,754,0.79154109954834,elephant,elephant,270,0754_rot_s01_270_elephant_20_n02504013_4062.png
subject-01,1,755,0.736214160919189,elephant,elephant,180,0755_rot_s01_180_elephant_20_n02504458_6805.png
subject-01,1,756,0.845015048980713,dog,dog,90,0756_rot_s01_90_dog_20_n02090721_1002.png
subject-01,1,757,0.69783091545105,bottle,bottle,0,0757_rot_s01_0_bottle_20_n04591713_2903.png
subject-01,1,758,0.765635013580322,bicycle,bicycle,270,0758_rot_s01_270_bicycle_20_n03792782_50904.png
subject-01,1,759,0.840207099914551,bird,bird,180,0759_rot_s01_180_bird_20_n02009912_18708.png
subject-01,1,760,0.832674026489258,keyboard,keyboard,90,0760_rot_s01_90_keyboard_20_n03085013_25924.png
subject-01,1,761,1.10938906669617,bear,bear,270,0761_rot_s01_270_bear_20_n02132136_3207.png
subject-01,1,762,0.785794973373413,cat,cat,0,0762_rot_s01_0_cat_20_n02123394_937.png
subject-01,1,763,0.654088020324707,elephant,elephant,90,0763_rot_s01_90_elephant_20_n02504458_2417.png
subject-01,1,764,1.20675086975098,knife,bottle,270,0764_rot_s01_270_bottle_20_n04560804_14111.png
subject-01,1,765,1.31380796432495,airplane,airplane,180,0765_rot_s01_180_airplane_20_n02690373_2038.png
subject-01,1,766,0.690830945968628,oven,oven,0,0766_rot_s01_0_oven_20_n04111531_1922.png
subject-01,1,767,0.837835073471069,keyboard,keyboard,90,0767_rot_s01_90_keyboard_20_n03085013_2853.png
subject-01,1,768,0.943719148635864,car,car,180,0768_rot_s01_180_car_20_n03100240_574.png
subject-01,1,769,0.858316898345947,car,boat,270,0769_rot_s01_270_boat_20_n03662601_22973.png
subject-01,1,770,0.88117504119873,car,car,270,0770_rot_s01_270_car_20_n02814533_38596.png
subject-01,1,771,1.50022792816162,keyboard,truck,90,0771_rot_s01_90_truck_20_n03796401_13226.png
subject-01,1,772,1.04053997993469,car,car,180,0772_rot_s01_180_car_20_n02814533_33360.png
subject-01,1,773,0.954993963241577,knife,knife,0,0773_rot_s01_0_knife_20_n03041632_25656.png
subject-01,1,774,0.77790093421936,oven,oven,90,0774_rot_s01_90_oven_20_n04111531_3099.png
subject-01,1,775,0.999530076980591,cat,cat,180,0775_rot_s01_180_cat_20_n02123597_4805.png
subject-01,1,776,0.889468908309937,knife,knife,180,0776_rot_s01_180_knife_20_n03041632_80317.png
subject-01,1,777,1.14815616607666,knife,knife,270,0777_rot_s01_270_knife_20_n03041632_29940.png
subject-01,1,778,1.14800310134888,bicycle,bicycle,90,0778_rot_s01_90_bicycle_20_n03792782_15016.png
subject-01,1,779,1.27745079994202,bicycle,bicycle,270,0779_rot_s01_270_bicycle_20_n02835271_14123.png
subject-01,1,780,1.13141798973083,oven,oven,270,0780_rot_s01_270_oven_20_n04111531_5429.png
subject-01,1,781,0.66019606590271,oven,oven,90,0781_rot_s01_90_oven_20_n04111531_9611.png
subject-01,1,782,0.914644002914429,bicycle,bicycle,180,0782_rot_s01_180_bicycle_20_n03792782_13680.png
subject-01,1,783,0.636827945709229,oven,oven,180,0783_rot_s01_180_oven_20_n04111531_13906.png
subject-01,1,784,1.07317399978638,keyboard,keyboard,90,0784_rot_s01_90_keyboard_20_n04505470_4943.png
subject-01,1,785,0.934779167175293,bottle,bottle,0,0785_rot_s01_0_bottle_20_n04557648_3959.png
subject-01,1,786,1.13270902633667,dog,dog,0,0786_rot_s01_0_dog_20_n02102177_7968.png
subject-01,1,787,1.05524396896362,chair,chair,0,0787_rot_s01_0_chair_20_n04099969_6431.png
subject-01,1,788,0.932508945465088,clock,clock,180,0788_rot_s01_180_clock_20_n04548280_4686.png
subject-01,1,789,1.16275191307068,truck,truck,270,0789_rot_s01_270_truck_20_n03417042_27780.png
subject-01,1,790,1.18598699569702,cat,bear,180,0790_rot_s01_180_bear_20_n02134418_5260.png
subject-01,1,791,0.862401008605957,truck,truck,180,0791_rot_s01_180_truck_20_n04467665_23691.png
subject-01,1,792,0.507078170776367,oven,oven,90,0792_rot_s01_90_oven_20_n04111531_9915.png
subject-01,1,793,1.09718322753906,airplane,elephant,180,0793_rot_s01_180_elephant_20_n02504013_13283.png
subject-01,1,794,0.67415189743042,elephant,elephant,270,0794_rot_s01_270_elephant_20_n02504013_10301.png
subject-01,1,795,0.912364959716797,car,car,90,0795_rot_s01_90_car_20_n02814533_92229.png
subject-01,1,796,0.848783016204834,knife,knife,180,0796_rot_s01_180_knife_20_n03041632_34505.png
subject-01,1,797,0.520649194717407,cat,cat,90,0797_rot_s01_90_cat_20_n02123597_10141.png
subject-01,1,798,0.826868057250977,elephant,elephant,0,0798_rot_s01_0_elephant_20_n02504458_3628.png
subject-01,1,799,0.633826017379761,bear,bear,0,0799_rot_s01_0_bear_20_n02132136_5175.png
subject-01,1,800,0.502239942550659,oven,oven,0,0800_rot_s01_0_oven_20_n04111531_24065.png
subject-01,1,801,1.0549418926239,truck,car,270,0801_rot_s01_270_car_20_n02814533_88566.png
subject-01,1,802,1.1203761100769,cat,dog,180,0802_rot_s01_180_dog_20_n02112350_10026.png
subject-01,1,803,0.691596984863281,cat,cat,90,0803_rot_s01_90_cat_20_n02123159_6933.png
subject-01,1,804,0.873821020126343,keyboard,keyboard,0,0804_rot_s01_0_keyboard_20_n03085013_7613.png
subject-01,1,805,1.2425708770752,oven,truck,270,0805_rot_s01_270_truck_20_n04467665_3720.png
subject-01,1,806,0.835438966751099,bear,bear,270,0806_rot_s01_270_bear_20_n02133161_5020.png
subject-01,1,807,1.04152607917786,bottle,bottle,270,0807_rot_s01_270_bottle_20_n03983396_5497.png
subject-01,1,808,0.669353008270264,cat,cat,270,0808_rot_s01_270_cat_20_n02123394_686.png
subject-01,1,809,0.821901798248291,bicycle,bicycle,180,0809_rot_s01_180_bicycle_20_n02835271_10933.png
subject-01,1,810,0.931437015533447,knife,knife,0,0810_rot_s01_0_knife_20_n03041632_8666.png
subject-01,1,811,0.660406112670898,bird,bird,180,0811_rot_s01_180_bird_20_n01820546_1089.png
subject-01,1,812,0.536674022674561,clock,clock,0,0812_rot_s01_0_clock_20_n04548280_7211.png
subject-01,1,813,0.889312028884888,knife,knife,0,0813_rot_s01_0_knife_20_n03041632_26053.png
subject-01,1,814,0.903733968734741,oven,oven,180,0814_rot_s01_180_oven_20_n04111531_9712.png
subject-01,1,815,0.734192848205566,cat,keyboard,0,0815_rot_s01_0_keyboard_20_n03085013_21004.png
subject-01,1,816,0.810769081115723,oven,oven,180,0816_rot_s01_180_oven_20_n04111531_2937.png
subject-01,1,817,0.838893175125122,bottle,bottle,270,0817_rot_s01_270_bottle_20_n02823428_1495.png
subject-01,1,818,0.661891937255859,chair,chair,0,0818_rot_s01_0_chair_20_n03376595_2368.png
subject-01,1,819,1.0303111076355,boat,boat,0,0819_rot_s01_0_boat_20_n03344393_6297.png
subject-01,1,820,0.979854106903076,elephant,elephant,270,0820_rot_s01_270_elephant_20_n02504458_1893.png
subject-01,1,821,1.07270002365112,keyboard,keyboard,0,0821_rot_s01_0_keyboard_20_n03085013_22744.png
subject-01,1,822,0.833487987518311,car,car,90,0822_rot_s01_90_car_20_n04285008_8641.png
subject-01,1,823,0.679634094238281,cat,cat,270,0823_rot_s01_270_cat_20_n02123045_6677.png
subject-01,1,824,0.662342071533203,cat,cat,270,0824_rot_s01_270_cat_20_n02123045_13025.png
subject-01,1,825,1.50009799003601,boat,bicycle,270,0825_rot_s01_270_bicycle_20_n03792782_9782.png
subject-01,1,826,0.575281858444214,car,car,270,0826_rot_s01_270_car_20_n02814533_31083.png
subject-01,1,827,1.11991715431213,oven,oven,180,0827_rot_s01_180_oven_20_n04111531_1938.png
subject-01,1,828,0.588340997695923,bird,bird,0,0828_rot_s01_0_bird_20_n01797886_6169.png
subject-01,1,829,1.06525206565857,car,bear,270,0829_rot_s01_270_bear_20_n02134418_1388.png
subject-01,1,830,0.709450960159302,elephant,elephant,180,0830_rot_s01_180_elephant_20_n02504013_6618.png
subject-01,1,831,0.748245000839233,clock,clock,180,0831_rot_s01_180_clock_20_n03196217_4776.png
subject-01,1,832,0.925143003463745,keyboard,keyboard,90,0832_rot_s01_90_keyboard_20_n04505470_4520.png
subject-01,1,833,0.685384035110474,bear,bear,180,0833_rot_s01_180_bear_20_n02132136_9703.png
subject-01,1,834,0.822227954864502,chair,chair,180,0834_rot_s01_180_chair_20_n02791124_1287.png
subject-01,1,835,1.10685300827026,truck,truck,90,0835_rot_s01_90_truck_20_n03417042_11166.png
subject-01,1,836,1.22147107124329,airplane,airplane,270,0836_rot_s01_270_airplane_20_n02690373_6621.png
subject-01,1,837,1.50008606910706,elephant,elephant,90,0837_rot_s01_90_elephant_20_n02504013_565.png
subject-01,1,838,0.844929933547974,chair,chair,90,0838_rot_s01_90_chair_20_n02791124_8775.png
subject-01,1,839,1.50017905235291,bear,airplane,180,0839_rot_s01_180_airplane_20_n02690373_9175.png
subject-01,1,840,0.934440851211548,knife,knife,180,0840_rot_s01_180_knife_20_n03041632_43634.png
subject-01,1,841,0.743041038513184,clock,clock,0,0841_rot_s01_0_clock_20_n04548280_8303.png
subject-01,1,842,0.937079191207886,knife,knife,90,0842_rot_s01_90_knife_20_n03041632_30248.png
subject-01,1,843,0.659756898880005,cat,cat,270,0843_rot_s01_270_cat_20_n02124075_11727.png
subject-01,1,844,1.18866205215454,bear,bear,180,0844_rot_s01_180_bear_20_n02133161_2741.png
subject-01,1,845,1.09519910812378,bird,bird,270,0845_rot_s01_270_bird_20_n01843383_6107.png
subject-01,1,846,0.979300022125244,bicycle,bicycle,0,0846_rot_s01_0_bicycle_20_n03792782_3456.png
subject-01,1,847,0.877806901931763,clock,clock,270,0847_rot_s01_270_clock_20_n04548280_7978.png
subject-01,1,848,1.02548599243164,bird,bird,0,0848_rot_s01_0_bird_20_n02027492_7653.png
subject-01,1,849,0.855752944946289,bear,bear,180,0849_rot_s01_180_bear_20_n02132136_8650.png
subject-01,1,850,0.79184103012085,keyboard,keyboard,180,0850_rot_s01_180_keyboard_20_n04505470_933.png
subject-01,1,851,0.730378866195679,boat,boat,0,0851_rot_s01_0_boat_20_n03344393_9251.png
subject-01,1,852,0.912106990814209,airplane,airplane,0,0852_rot_s01_0_airplane_20_n02690373_1306.png
subject-01,1,853,0.88885498046875,chair,chair,90,0853_rot_s01_90_chair_20_n02791124_1740.png
subject-01,1,854,1.05738592147827,bottle,bottle,270,0854_rot_s01_270_bottle_20_n04557648_4727.png
subject-01,1,855,0.838199138641357,clock,clock,90,0855_rot_s01_90_clock_20_n04548280_7354.png
subject-01,1,856,1.19743585586548,keyboard,keyboard,180,0856_rot_s01_180_keyboard_20_n04505470_4477.png
subject-01,1,857,1.26547813415527,knife,chair,90,0857_rot_s01_90_chair_20_n04099969_48945.png
subject-01,1,858,1.50006103515625,bicycle,bicycle,90,0858_rot_s01_90_bicycle_20_n02835271_1621.png
subject-01,1,859,0.918381929397583,cat,cat,270,0859_rot_s01_270_cat_20_n02125311_33586.png
subject-01,1,860,0.794589996337891,bottle,bottle,90,0860_rot_s01_90_bottle_20_n03937543_984.png
subject-01,1,861,1.14746689796448,boat,boat,270,0861_rot_s01_270_boat_20_n03662601_12969.png
subject-01,1,862,0.586370229721069,chair,chair,270,0862_rot_s01_270_chair_20_n04099969_130.png
subject-01,1,863,0.961057901382446,boat,boat,90,0863_rot_s01_90_boat_20_n04612504_30766.png
subject-01,1,864,1.22080397605896,bear,bear,0,0864_rot_s01_0_bear_20_n02134418_517.png
subject-01,1,865,0.767874002456665,boat,boat,0,0865_rot_s01_0_boat_20_n04273569_23800.png
subject-01,1,866,0.782674074172974,cat,cat,180,0866_rot_s01_180_cat_20_n02123045_436.png
subject-01,1,867,0.543015003204346,keyboard,keyboard,270,0867_rot_s01_270_keyboard_20_n04505470_1649.png
subject-01,1,868,0.895478963851929,chair,chair,90,0868_rot_s01_90_chair_20_n04099969_1962.png
subject-01,1,869,0.917829990386963,cat,cat,180,0869_rot_s01_180_cat_20_n02123045_909.png
subject-01,1,870,0.840052127838135,knife,knife,270,0870_rot_s01_270_knife_20_n03041632_26236.png
subject-01,1,871,1.23106288909912,clock,clock,270,0871_rot_s01_270_clock_20_n03196217_368.png
subject-01,1,872,0.921775102615356,bicycle,bicycle,180,0872_rot_s01_180_bicycle_20_n03792782_70555.png
subject-01,1,873,0.868152141571045,car,car,90,0873_rot_s01_90_car_20_n03100240_5044.png
subject-01,1,874,NaN,na,knife,180,0874_rot_s01_180_knife_20_n03041632_9580.png
subject-01,1,875,1.16519284248352,knife,knife,0,0875_rot_s01_0_knife_20_n03041632_54191.png
subject-01,1,876,0.619781017303467,car,car,0,0876_rot_s01_0_car_20_n03100240_24420.png
subject-01,1,877,0.756428956985474,car,car,0,0877_rot_s01_0_car_20_n04285008_8281.png
subject-01,1,878,1.47875094413757,bear,bird,180,0878_rot_s01_180_bird_20_n01601694_19236.png
subject-01,1,879,0.601245880126953,boat,boat,90,0879_rot_s01_90_boat_20_n04273569_1050.png
subject-01,1,880,0.656538963317871,boat,boat,0,0880_rot_s01_0_boat_20_n03344393_9127.png
subject-01,1,881,0.692423820495605,oven,oven,270,0881_rot_s01_270_oven_20_n04111531_5015.png
subject-01,1,882,0.898360967636108,dog,dog,0,0882_rot_s01_0_dog_20_n02099601_8656.png
subject-01,1,883,1.00560903549194,bird,bird,0,0883_rot_s01_0_bird_20_n01855672_8191.png
subject-01,1,884,0.636039972305298,boat,boat,90,0884_rot_s01_90_boat_20_n03344393_2790.png
subject-01,1,885,0.933890819549561,car,car,270,0885_rot_s01_270_car_20_n02814533_23563.png
subject-01,1,886,0.995121002197266,airplane,airplane,180,0886_rot_s01_180_airplane_20_n02690373_4588.png
subject-01,1,887,1.03867793083191,truck,truck,90,0887_rot_s01_90_truck_20_n03417042_28657.png
subject-01,1,888,0.877987861633301,clock,clock,0,0888_rot_s01_0_clock_20_n04548280_1305.png
subject-01,1,889,1.00501799583435,elephant,elephant,270,0889_rot_s01_270_elephant_20_n02504013_522.png
subject-01,1,890,0.73345685005188,oven,oven,180,0890_rot_s01_180_oven_20_n04111531_14488.png
subject-01,1,891,1.00141501426697,airplane,airplane,180,0891_rot_s01_180_airplane_20_n02690373_5055.png
subject-01,1,892,1.4082989692688,chair,chair,270,0892_rot_s01_270_chair_20_n03376595_9535.png
subject-01,1,893,0.646816968917847,knife,knife,180,0893_rot_s01_180_knife_20_n03041632_33268.png
subject-01,1,894,0.853533029556274,cat,cat,270,0894_rot_s01_270_cat_20_n02124075_14662.png
subject-01,1,895,0.659389019012451,oven,oven,270,0895_rot_s01_270_oven_20_n04111531_22386.png
subject-01,1,896,0.557667970657349,oven,oven,90,0896_rot_s01_90_oven_20_n04111531_12980.png
subject-01,1,897,NaN,na,bear,270,0897_rot_s01_270_bear_20_n02134418_5067.png
subject-01,1,898,1.29564905166626,airplane,airplane,90,0898_rot_s01_90_airplane_20_n02690373_7647.png
subject-01,1,899,0.717895030975342,airplane,airplane,0,0899_rot_s01_0_airplane_20_n02690373_736.png
subject-01,1,900,1.04617595672607,bear,bear,270,0900_rot_s01_270_bear_20_n02134418_1094.png
subject-01,1,901,0.878138065338135,elephant,elephant,90,0901_rot_s01_90_elephant_20_n02504458_6470.png
subject-01,1,902,0.878322124481201,truck,truck,0,0902_rot_s01_0_truck_20_n03417042_19355.png
subject-01,1,903,0.555350065231323,boat,boat,270,0903_rot_s01_270_boat_20_n03344393_11886.png
subject-01,1,904,0.945446968078613,airplane,airplane,0,0904_rot_s01_0_airplane_20_n02690373_764.png
subject-01,1,905,0.660631895065308,bottle,bottle,180,0905_rot_s01_180_bottle_20_n03983396_5883.png
subject-01,1,906,0.966959953308105,cat,dog,90,0906_rot_s01_90_dog_20_n02093428_17633.png
subject-01,1,907,NaN,na,chair,90,0907_rot_s01_90_chair_20_n03376595_8064.png
subject-01,1,908,1.47151708602905,clock,chair,180,0908_rot_s01_180_chair_20_n04429376_6390.png
subject-01,1,909,1.43765997886658,keyboard,keyboard,0,0909_rot_s01_0_keyboard_20_n04505470_1067.png
subject-01,1,910,0.730406045913696,dog,dog,270,0910_rot_s01_270_dog_20_n02104365_1756.png
subject-01,1,911,0.922995805740356,car,car,0,0911_rot_s01_0_car_20_n02814533_12185.png
subject-01,1,912,1.05415916442871,dog,bear,270,0912_rot_s01_270_bear_20_n02134418_5827.png
subject-01,1,913,0.928267955780029,knife,knife,90,0913_rot_s01_90_knife_20_n03041632_14817.png
subject-01,1,914,0.797063112258911,oven,oven,270,0914_rot_s01_270_oven_20_n04111531_9429.png
subject-01,1,915,0.881266117095947,boat,boat,180,0915_rot_s01_180_boat_20_n04612504_13034.png
subject-01,1,916,0.87143611907959,chair,chair,270,0916_rot_s01_270_chair_20_n03376595_14240.png
subject-01,1,917,0.701525926589966,oven,oven,90,0917_rot_s01_90_oven_20_n04111531_21055.png
subject-01,1,918,0.717408895492554,bicycle,bicycle,0,0918_rot_s01_0_bicycle_20_n03792782_19083.png
subject-01,1,919,0.977782011032104,bottle,bottle,90,0919_rot_s01_90_bottle_20_n04591713_1824.png
subject-01,1,920,0.976541996002197,boat,boat,270,0920_rot_s01_270_boat_20_n02951358_11442.png
subject-01,1,921,1.07680106163025,bird,bird,0,0921_rot_s01_0_bird_20_n01592084_2639.png
subject-01,1,922,1.17625880241394,airplane,airplane,90,0922_rot_s01_90_airplane_20_n02690373_3050.png
subject-01,1,923,1.00687098503113,bicycle,bicycle,270,0923_rot_s01_270_bicycle_20_n03792782_18308.png
subject-01,1,924,0.992130041122437,cat,cat,0,0924_rot_s01_0_cat_20_n02124075_9358.png
subject-01,1,925,1.08237791061401,car,chair,270,0925_rot_s01_270_chair_20_n02791124_2698.png
subject-01,1,926,0.966995000839233,car,car,270,0926_rot_s01_270_car_20_n02814533_8042.png
subject-01,1,927,0.98818302154541,bird,bird,0,0927_rot_s01_0_bird_20_n01817953_2043.png
subject-01,1,928,1.11793184280396,truck,truck,180,0928_rot_s01_180_truck_20_n03417042_19447.png
subject-01,1,929,1.50018191337585,bottle,bottle,0,0929_rot_s01_0_bottle_20_n04560804_15625.png
subject-01,1,930,0.879686117172241,oven,oven,270,0930_rot_s01_270_oven_20_n04111531_13560.png
subject-01,1,931,1.37578892707825,truck,truck,0,0931_rot_s01_0_truck_20_n03417042_15196.png
subject-01,1,932,1.04447793960571,oven,oven,0,0932_rot_s01_0_oven_20_n04111531_18648.png
subject-01,1,933,1.05315399169922,cat,cat,270,0933_rot_s01_270_cat_20_n02125311_21290.png
subject-01,1,934,1.20567512512207,truck,truck,180,0934_rot_s01_180_truck_20_n04467665_69063.png
subject-01,1,935,1.10439300537109,car,car,180,0935_rot_s01_180_car_20_n02814533_29367.png
subject-01,1,936,0.88118314743042,oven,oven,270,0936_rot_s01_270_oven_20_n04111531_46651.png
subject-01,1,937,1.22578191757202,bicycle,bicycle,90,0937_rot_s01_90_bicycle_20_n03792782_3202.png
subject-01,1,938,1.40983605384827,boat,boat,180,0938_rot_s01_180_boat_20_n04273569_7818.png
subject-01,1,939,0.554862976074219,cat,cat,180,0939_rot_s01_180_cat_20_n02123045_5999.png
subject-01,1,940,0.714163064956665,bicycle,bicycle,90,0940_rot_s01_90_bicycle_20_n03792782_442.png
subject-01,1,941,1.32125306129456,bicycle,bicycle,90,0941_rot_s01_90_bicycle_20_n03792782_42978.png
subject-01,1,942,1.2443630695343,airplane,bird,0,0942_rot_s01_0_bird_20_n02007558_1068.png
subject-01,1,943,0.867264986038208,bird,bird,180,0943_rot_s01_180_bird_20_n01560419_17392.png
subject-01,1,944,1.5002908706665,boat,bottle,0,0944_rot_s01_0_bottle_20_n04591713_7476.png
subject-01,1,945,0.536139965057373,cat,cat,90,0945_rot_s01_90_cat_20_n02124075_14998.png
subject-01,1,946,1.50028705596924,dog,elephant,90,0946_rot_s01_90_elephant_20_n02504013_673.png
subject-01,1,947,0.832683801651001,knife,knife,270,0947_rot_s01_270_knife_20_n03041632_11700.png
subject-01,1,948,0.489511966705322,cat,cat,90,0948_rot_s01_90_cat_20_n02123159_5678.png
subject-01,1,949,0.744497060775757,dog,dog,270,0949_rot_s01_270_dog_20_n02096051_1852.png
subject-01,1,950,1.01935982704163,truck,truck,0,0950_rot_s01_0_truck_20_n04467665_49132.png
subject-01,1,951,0.887712001800537,car,car,90,0951_rot_s01_90_car_20_n02814533_14121.png
subject-01,1,952,0.701924085617065,elephant,elephant,90,0952_rot_s01_90_elephant_20_n02504458_3608.png
subject-01,1,953,0.971153020858765,car,car,90,0953_rot_s01_90_car_20_n03100240_7495.png
subject-01,1,954,0.701487064361572,airplane,airplane,270,0954_rot_s01_270_airplane_20_n02690373_2629.png
subject-01,1,955,0.707833051681519,bicycle,bicycle,180,0955_rot_s01_180_bicycle_20_n02835271_14862.png
subject-01,1,956,0.830554008483887,car,car,270,0956_rot_s01_270_car_20_n04285008_12504.png
subject-01,1,957,0.658360958099365,bottle,bottle,90,0957_rot_s01_90_bottle_20_n04560804_2693.png
subject-01,1,958,0.819077968597412,boat,boat,90,0958_rot_s01_90_boat_20_n03662601_3893.png
subject-01,1,959,1.15051078796387,bicycle,bicycle,90,0959_rot_s01_90_bicycle_20_n03792782_66159.png
subject-01,1,960,1.01107692718506,chair,chair,90,0960_rot_s01_90_chair_20_n04429376_29223.png
subject-01,1,961,0.599255084991455,bottle,bottle,0,0961_rot_s01_0_bottle_20_n03983396_4313.png
subject-01,1,962,0.69115686416626,knife,boat,270,0962_rot_s01_270_boat_20_n02951358_15412.png
subject-01,1,963,0.652039051055908,truck,truck,0,0963_rot_s01_0_truck_20_n03417042_889.png
subject-01,1,964,0.880978107452393,dog,dog,270,0964_rot_s01_270_dog_20_n02109047_13710.png
subject-01,1,965,0.626708030700684,airplane,airplane,0,0965_rot_s01_0_airplane_20_n02690373_17731.png
subject-01,1,966,0.63294506072998,chair,chair,0,0966_rot_s01_0_chair_20_n04099969_17087.png
subject-01,1,967,0.560793876647949,bird,bird,0,0967_rot_s01_0_bird_20_n02006656_5079.png
subject-01,1,968,0.79742693901062,elephant,elephant,0,0968_rot_s01_0_elephant_20_n02504458_5181.png
subject-01,1,969,0.736407041549683,cat,dog,180,0969_rot_s01_180_dog_20_n02097658_3358.png
subject-01,1,970,0.912710905075073,bicycle,bicycle,180,0970_rot_s01_180_bicycle_20_n03792782_15282.png
subject-01,1,971,0.948976039886475,dog,bear,90,0971_rot_s01_90_bear_20_n02133161_12349.png
subject-01,1,972,0.995845079421997,dog,dog,270,0972_rot_s01_270_dog_20_n02108551_1207.png
subject-01,1,973,0.810369968414307,bottle,bottle,90,0973_rot_s01_90_bottle_20_n03937543_5257.png
subject-01,1,974,0.846224784851074,keyboard,keyboard,270,0974_rot_s01_270_keyboard_20_n04505470_206.png
subject-01,1,975,0.853219032287598,bear,bear,90,0975_rot_s01_90_bear_20_n02134418_998.png
subject-01,1,976,0.612735986709595,clock,clock,180,0976_rot_s01_180_clock_20_n02708093_906.png
subject-01,1,977,0.718452930450439,car,car,180,0977_rot_s01_180_car_20_n04285008_7154.png
subject-01,1,978,0.528831958770752,boat,boat,90,0978_rot_s01_90_boat_20_n02951358_4343.png
subject-01,1,979,0.81868314743042,bird,bird,180,0979_rot_s01_180_bird_20_n01530575_7990.png
subject-01,1,980,1.07997798919678,chair,chair,180,0980_rot_s01_180_chair_20_n04099969_8021.png
subject-01,1,981,1.24793887138367,bear,bear,270,0981_rot_s01_270_bear_20_n02134084_7345.png
subject-01,1,982,NaN,na,truck,0,0982_rot_s01_0_truck_20_n03417042_11000.png
subject-01,1,983,0.882409811019897,airplane,airplane,90,0983_rot_s01_90_airplane_20_n02690373_7293.png
subject-01,1,984,0.899302005767822,boat,bear,90,0984_rot_s01_90_bear_20_n02132136_1285.png
subject-01,1,985,0.75245189666748,bird,bird,0,0985_rot_s01_0_bird_20_n01530575_3198.png
subject-01,1,986,1.11839294433594,truck,truck,180,0986_rot_s01_180_truck_20_n03417042_8867.png
subject-01,1,987,0.957189083099365,bottle,bottle,90,0987_rot_s01_90_bottle_20_n04557648_15053.png
subject-01,1,988,0.658241987228394,bird,bird,270,0988_rot_s01_270_bird_20_n01531178_4324.png
subject-01,1,989,0.640746831893921,dog,dog,180,0989_rot_s01_180_dog_20_n02099267_4999.png
subject-01,1,990,0.775273084640503,truck,truck,90,0990_rot_s01_90_truck_20_n03417042_12560.png
subject-01,1,991,0.689242124557495,clock,clock,180,0991_rot_s01_180_clock_20_n02708093_170.png
subject-01,1,992,1.34873914718628,knife,knife,90,0992_rot_s01_90_knife_20_n03041632_84012.png
subject-01,1,993,1.04870009422302,elephant,elephant,90,0993_rot_s01_90_elephant_20_n02504013_3861.png
subject-01,1,994,0.571615934371948,bottle,bottle,90,0994_rot_s01_90_bottle_20_n03983396_5452.png
subject-01,1,995,0.63224196434021,bottle,bottle,270,0995_rot_s01_270_bottle_20_n04579145_3729.png
subject-01,1,996,0.586918830871582,bicycle,bicycle,180,0996_rot_s01_180_bicycle_20_n02835271_6742.png
subject-01,1,997,1.01599216461182,bird,bird,0,0997_rot_s01_0_bird_20_n01855672_55568.png
subject-01,1,998,1.04641509056091,airplane,airplane,270,0998_rot_s01_270_airplane_20_n02690373_9346.png
subject-01,1,999,0.574350833892822,cat,cat,0,0999_rot_s01_0_cat_20_n02123045_5290.png
subject-01,1,1000,0.950700044631958,dog,dog,180,1000_rot_s01_180_dog_20_n02113978_2286.png
subject-01,1,1001,0.927227020263672,cat,cat,180,1001_rot_s01_180_cat_20_n02123597_6186.png
subject-01,1,1002,0.918053865432739,oven,oven,270,1002_rot_s01_270_oven_20_n04111531_12952.png
subject-01,1,1003,0.970531225204468,elephant,bear,0,1003_rot_s01_0_bear_20_n02134418_4374.png
subject-01,1,1004,0.593569993972778,car,car,180,1004_rot_s01_180_car_20_n03100240_1750.png
subject-01,1,1005,0.785569190979004,oven,oven,180,1005_rot_s01_180_oven_20_n04111531_10667.png
subject-01,1,1006,1.098228931427,truck,truck,180,1006_rot_s01_180_truck_20_n03796401_6315.png
subject-01,1,1007,1.25130295753479,bear,elephant,0,1007_rot_s01_0_elephant_20_n02504458_9870.png
subject-01,1,1008,0.537415981292725,oven,oven,0,1008_rot_s01_0_oven_20_n04111531_4845.png
subject-01,1,1009,0.467862129211426,oven,oven,270,1009_rot_s01_270_oven_20_n04111531_6863.png
subject-01,1,1010,1.02622699737549,airplane,airplane,0,1010_rot_s01_0_airplane_20_n02690373_1972.png
subject-01,1,1011,0.772156953811646,boat,boat,180,1011_rot_s01_180_boat_20_n03344393_7967.png
subject-01,1,1012,0.855304002761841,bicycle,bicycle,90,1012_rot_s01_90_bicycle_20_n02835271_11697.png
subject-01,1,1013,0.701863050460815,oven,oven,180,1013_rot_s01_180_oven_20_n04111531_9176.png
subject-01,1,1014,1.14664506912231,bottle,bottle,90,1014_rot_s01_90_bottle_20_n03983396_618.png
subject-01,1,1015,1.11559295654297,dog,dog,0,1015_rot_s01_0_dog_20_n02112018_7786.png
subject-01,1,1016,0.64489483833313,oven,oven,90,1016_rot_s01_90_oven_20_n04111531_5216.png
subject-01,1,1017,0.581362962722778,boat,boat,90,1017_rot_s01_90_boat_20_n03344393_6588.png
subject-01,1,1018,1.03381586074829,dog,dog,180,1018_rot_s01_180_dog_20_n02097047_5605.png
subject-01,1,1019,0.756255865097046,bird,bird,90,1019_rot_s01_90_bird_20_n01797886_2347.png
subject-01,1,1020,0.717615127563477,chair,chair,180,1020_rot_s01_180_chair_20_n03376595_4937.png
subject-01,1,1021,0.702658891677856,boat,boat,0,1021_rot_s01_0_boat_20_n02951358_13996.png
subject-01,1,1022,0.816920042037964,knife,knife,180,1022_rot_s01_180_knife_20_n03041632_31632.png
subject-01,1,1023,0.775153875350952,clock,clock,270,1023_rot_s01_270_clock_20_n04548280_7050.png
subject-01,1,1024,0.767940998077393,bear,bear,0,1024_rot_s01_0_bear_20_n02134418_132.png
subject-01,1,1025,1.41321396827698,keyboard,keyboard,90,1025_rot_s01_90_keyboard_20_n04505470_4047.png
subject-01,1,1026,0.65190315246582,elephant,elephant,180,1026_rot_s01_180_elephant_20_n02504013_1078.png
subject-01,1,1027,0.866270780563354,truck,truck,90,1027_rot_s01_90_truck_20_n04467665_9812.png
subject-01,1,1028,0.796689033508301,chair,chair,0,1028_rot_s01_0_chair_20_n04099969_5010.png
subject-01,1,1029,0.879944086074829,airplane,airplane,270,1029_rot_s01_270_airplane_20_n02690373_5909.png
subject-01,1,1030,0.625783920288086,truck,truck,90,1030_rot_s01_90_truck_20_n03417042_21946.png
subject-01,1,1031,0.67064905166626,bicycle,bicycle,270,1031_rot_s01_270_bicycle_20_n03792782_3388.png
subject-01,1,1032,0.83053183555603,airplane,airplane,0,1032_rot_s01_0_airplane_20_n02690373_4310.png
subject-01,1,1033,0.945114135742188,cat,cat,0,1033_rot_s01_0_cat_20_n02124075_13577.png
subject-01,1,1034,0.689563989639282,keyboard,keyboard,270,1034_rot_s01_270_keyboard_20_n03085013_22417.png
subject-01,1,1035,0.673826932907104,knife,knife,0,1035_rot_s01_0_knife_20_n03041632_4037.png
subject-01,1,1036,1.33166193962097,elephant,elephant,270,1036_rot_s01_270_elephant_20_n02504458_4001.png
subject-01,1,1037,0.83259391784668,car,car,270,1037_rot_s01_270_car_20_n03100240_5946.png
subject-01,1,1038,0.571635007858276,cat,cat,0,1038_rot_s01_0_cat_20_n02123045_455.png
subject-01,1,1039,0.899564981460571,airplane,airplane,90,1039_rot_s01_90_airplane_20_n02690373_10727.png
subject-01,1,1040,1.02772283554077,car,car,0,1040_rot_s01_0_car_20_n02814533_52605.png
subject-01,1,1041,0.690845966339111,cat,cat,270,1041_rot_s01_270_cat_20_n02124075_2986.png
subject-01,1,1042,0.812633991241455,bicycle,bicycle,180,1042_rot_s01_180_bicycle_20_n02835271_24.png
subject-01,1,1043,0.603437185287476,elephant,elephant,180,1043_rot_s01_180_elephant_20_n02504458_2272.png
subject-01,1,1044,1.50028204917908,dog,dog,90,1044_rot_s01_90_dog_20_n02108551_7945.png
subject-01,1,1045,0.840102910995483,airplane,clock,0,1045_rot_s01_0_clock_20_n03196217_5103.png
subject-01,1,1046,0.976611852645874,car,car,180,1046_rot_s01_180_car_20_n02814533_75923.png
subject-01,1,1047,0.823192119598389,car,car,180,1047_rot_s01_180_car_20_n04285008_8396.png
subject-01,1,1048,0.783793210983276,knife,knife,270,1048_rot_s01_270_knife_20_n03041632_7173.png
subject-01,1,1049,0.589126825332642,dog,dog,0,1049_rot_s01_0_dog_20_n02091831_332.png
subject-01,1,1050,0.5660080909729,bicycle,bicycle,90,1050_rot_s01_90_bicycle_20_n02835271_3308.png
subject-01,1,1051,0.649140119552612,keyboard,keyboard,180,1051_rot_s01_180_keyboard_20_n04505470_4384.png
subject-01,1,1052,0.833270072937012,truck,truck,180,1052_rot_s01_180_truck_20_n04467665_49826.png
subject-01,1,1053,1.38651895523071,elephant,elephant,90,1053_rot_s01_90_elephant_20_n02504013_318.png
subject-01,1,1054,1.43173003196716,bottle,bottle,0,1054_rot_s01_0_bottle_20_n03937543_7357.png
subject-01,1,1055,1.20763683319092,bird,bird,270,1055_rot_s01_270_bird_20_n01558993_55.png
subject-01,1,1056,0.805716037750244,boat,boat,180,1056_rot_s01_180_boat_20_n03344393_1519.png
subject-01,1,1057,1.2422821521759,cat,cat,90,1057_rot_s01_90_cat_20_n02124075_1121.png
