subj,session,trial,rt,object_response,category,condition,imagename
subject-02,1,1,0.823151111602783,cat,bicycle,c03,0000_con_s02_c03_bicycle_10_n02835271_870.JPEG
subject-02,1,2,1.50031995773315,keyboard,keyboard,c100,0001_con_s02_c100_keyboard_10_n03085013_15162.JPEG
subject-02,1,3,0.868540048599243,bottle,bottle,c30,0002_con_s02_c30_bottle_10_n04557648_11493.JPEG
subject-02,1,4,0.806865930557251,truck,truck,c100,0003_con_s02_c100_truck_10_n03417042_14459.JPEG
subject-02,1,5,0.929354906082153,knife,knife,c50,0004_con_s02_c50_knife_10_n03041632_39342.JPEG
subject-02,1,6,0.689959049224854,oven,oven,c50,0005_con_s02_c50_oven_10_n04111531_22834.JPEG
subject-02,1,7,1.39634299278259,oven,bottle,c100,0006_con_s02_c100_bottle_10_n03937543_3.JPEG
subject-02,1,8,0.658813953399658,boat,car,c05,0007_con_s02_c05_car_10_n03100240_1992.JPEG
subject-02,1,9,0.802556991577148,clock,bottle,c03,0008_con_s02_c03_bottle_10_n03983396_7512.JPEG
subject-02,1,10,1.0388810634613,oven,oven,c30,0009_con_s02_c30_oven_10_n04111531_8082.JPEG
subject-02,1,11,1.50013494491577,airplane,bird,c03,0010_con_s02_c03_bird_10_n01833805_7310.JPEG
subject-02,1,12,1.06263208389282,clock,oven,c100,0011_con_s02_c100_oven_10_n04111531_9370.JPEG
subject-02,1,13,0.98995304107666,truck,truck,c30,0012_con_s02_c30_truck_10_n03417042_5682.JPEG
subject-02,1,14,1.32100200653076,dog,bottle,c05,0013_con_s02_c05_bottle_10_n04557648_5083.JPEG
subject-02,1,15,1.50036406517029,cat,bicycle,c05,0014_con_s02_c05_bicycle_10_n03792782_1332.JPEG
subject-02,1,16,0.664789915084839,keyboard,keyboard,c05,0015_con_s02_c05_keyboard_10_n04505470_807.JPEG
subject-02,1,17,0.762274980545044,boat,boat,c03,0016_con_s02_c03_boat_10_n02951358_3540.JPEG
subject-02,1,18,0.754570960998535,clock,bicycle,c01,0017_con_s02_c01_bicycle_10_n03792782_1983.JPEG
subject-02,1,19,0.730998039245605,boat,boat,c50,0018_con_s02_c50_boat_10_n04612504_16492.JPEG
subject-02,1,20,0.634992122650146,oven,boat,c03,0019_con_s02_c03_boat_10_n04273569_1865.JPEG
subject-02,1,21,0.910329103469849,boat,bicycle,c15,0020_con_s02_c15_bicycle_10_n02835271_8834.JPEG
subject-02,1,22,0.732775211334229,airplane,airplane,c50,0021_con_s02_c50_airplane_10_n02690373_2643.JPEG
subject-02,1,23,1.23916602134705,boat,cat,c15,0022_con_s02_c15_cat_10_n02123045_1513.JPEG
subject-02,1,24,0.80784010887146,cat,oven,c15,0023_con_s02_c15_oven_10_n04111531_20493.JPEG
subject-02,1,25,0.913697004318237,bottle,bottle,c100,0024_con_s02_c100_bottle_10_n03983396_2115.JPEG
subject-02,1,26,0.82797908782959,clock,bottle,c01,0025_con_s02_c01_bottle_10_n03937543_5424.JPEG
subject-02,1,27,0.849982976913452,car,truck,c03,0026_con_s02_c03_truck_10_n03417042_27815.JPEG
subject-02,1,28,0.877874135971069,boat,keyboard,c15,0027_con_s02_c15_keyboard_10_n04505470_4500.JPEG
subject-02,1,29,0.678287029266357,clock,clock,c30,0028_con_s02_c30_clock_10_n02708093_3500.JPEG
subject-02,1,30,1.23002910614014,oven,knife,c15,0029_con_s02_c15_knife_10_n03041632_37949.JPEG
subject-02,1,31,0.692913055419922,bicycle,bicycle,c100,0030_con_s02_c100_bicycle_10_n02835271_13542.JPEG
subject-02,1,32,1.50008487701416,dog,cat,c15,0031_con_s02_c15_cat_10_n02123159_4001.JPEG
subject-02,1,33,1.09011197090149,truck,truck,c15,0032_con_s02_c15_truck_10_n04467665_1188.JPEG
subject-02,1,34,0.944483995437622,clock,truck,c10,0033_con_s02_c10_truck_10_n03417042_3214.JPEG
subject-02,1,35,0.575248956680298,oven,oven,c15,0034_con_s02_c15_oven_10_n04111531_7449.JPEG
subject-02,1,36,0.864995956420898,clock,elephant,c03,0035_con_s02_c03_elephant_10_n02504013_6171.JPEG
subject-02,1,37,0.771229028701782,boat,knife,c03,0036_con_s02_c03_knife_10_n03041632_3101.JPEG
subject-02,1,38,0.769395112991333,boat,boat,c01,0037_con_s02_c01_boat_10_n04273569_11261.JPEG
subject-02,1,39,0.740017175674438,cat,cat,c03,0038_con_s02_c03_cat_10_n02123394_2448.JPEG
subject-02,1,40,0.914541959762573,boat,bear,c15,0039_con_s02_c15_bear_10_n02132136_6002.JPEG
subject-02,1,41,0.96884298324585,bird,car,c03,0040_con_s02_c03_car_10_n04285008_2483.JPEG
subject-02,1,42,0.845333814620972,airplane,airplane,c15,0041_con_s02_c15_airplane_10_n02690373_2605.JPEG
subject-02,1,43,1.11960005760193,bicycle,bird,c03,0042_con_s02_c03_bird_10_n01622779_2844.JPEG
subject-02,1,44,0.766075134277344,keyboard,keyboard,c100,0043_con_s02_c100_keyboard_10_n04505470_4828.JPEG
subject-02,1,45,1.05604696273804,chair,bird,c03,0044_con_s02_c03_bird_10_n02033041_5519.JPEG
subject-02,1,46,0.786564111709595,bicycle,cat,c03,0045_con_s02_c03_cat_10_n02124075_1839.JPEG
subject-02,1,47,1.07123994827271,airplane,oven,c15,0046_con_s02_c15_oven_10_n04111531_978.JPEG
subject-02,1,48,0.915051937103271,bird,oven,c100,0047_con_s02_c100_oven_10_n04111531_16463.JPEG
subject-02,1,49,0.737685918807983,keyboard,keyboard,c100,0048_con_s02_c100_keyboard_10_n03085013_24026.JPEG
subject-02,1,50,1.12804007530212,chair,chair,c15,0049_con_s02_c15_chair_10_n03376595_1418.JPEG
subject-02,1,51,0.780235052108765,clock,keyboard,c01,0050_con_s02_c01_keyboard_10_n03085013_22067.JPEG
subject-02,1,52,1.06421995162964,car,cat,c01,0051_con_s02_c01_cat_10_n02123597_13645.JPEG
subject-02,1,53,1.10072588920593,bear,truck,c01,0052_con_s02_c01_truck_10_n03417042_4655.JPEG
subject-02,1,54,0.762974977493286,oven,bottle,c01,0053_con_s02_c01_bottle_10_n03983396_3028.JPEG
subject-02,1,55,0.923604965209961,airplane,oven,c05,0054_con_s02_c05_oven_10_n04111531_4574.JPEG
subject-02,1,56,0.768173933029175,dog,dog,c30,0055_con_s02_c30_dog_10_n02113023_6062.JPEG
subject-02,1,57,0.706829071044922,airplane,car,c03,0056_con_s02_c03_car_10_n02814533_54543.JPEG
subject-02,1,58,1.00421595573425,chair,chair,c100,0057_con_s02_c100_chair_10_n04099969_13499.JPEG
subject-02,1,59,1.19486308097839,dog,bear,c100,0058_con_s02_c100_bear_10_n02134418_2561.JPEG
subject-02,1,60,0.956738948822021,car,truck,c30,0059_con_s02_c30_truck_10_n03417042_4975.JPEG
subject-02,1,61,1.00690817832947,elephant,elephant,c30,0060_con_s02_c30_elephant_10_n02504458_6433.JPEG
subject-02,1,62,1.05878114700317,clock,clock,c50,0061_con_s02_c50_clock_10_n04548280_565.JPEG
subject-02,1,63,0.743506908416748,airplane,boat,c05,0062_con_s02_c05_boat_10_n02951358_34553.JPEG
subject-02,1,64,0.958173990249634,car,chair,c100,0063_con_s02_c100_chair_10_n04099969_2233.JPEG
subject-02,1,65,1.49999785423279,bottle,bottle,c50,0064_con_s02_c50_bottle_10_n03983396_4814.JPEG
subject-02,1,66,1.00863313674927,boat,knife,c15,0065_con_s02_c15_knife_10_n03041632_13509.JPEG
subject-02,1,67,0.695328950881958,boat,oven,c01,0066_con_s02_c01_oven_10_n04111531_769.JPEG
subject-02,1,68,0.693933963775635,boat,dog,c03,0067_con_s02_c03_dog_10_n02093859_4478.JPEG
subject-02,1,69,0.765580892562866,clock,clock,c50,0068_con_s02_c50_clock_10_n03196217_2192.JPEG
subject-02,1,70,1.44007515907288,cat,cat,c50,0069_con_s02_c50_cat_10_n02123045_14156.JPEG
subject-02,1,71,0.962836980819702,oven,knife,c100,0070_con_s02_c100_knife_10_n03041632_22964.JPEG
subject-02,1,72,1.16115188598633,elephant,elephant,c30,0071_con_s02_c30_elephant_10_n02504458_5988.JPEG
subject-02,1,73,0.631618022918701,bear,bear,c50,0072_con_s02_c50_bear_10_n02134084_34948.JPEG
subject-02,1,74,0.675710916519165,bear,bear,c100,0073_con_s02_c100_bear_10_n02133161_491.JPEG
subject-02,1,75,0.873037815093994,bear,bear,c05,0074_con_s02_c05_bear_10_n02132136_4112.JPEG
subject-02,1,76,0.957869052886963,bear,elephant,c03,0075_con_s02_c03_elephant_10_n02504013_2033.JPEG
subject-02,1,77,0.848347902297974,elephant,elephant,c50,0076_con_s02_c50_elephant_10_n02504013_1865.JPEG
subject-02,1,78,0.948997020721436,car,car,c50,0077_con_s02_c50_car_10_n04285008_15503.JPEG
subject-02,1,79,1.00127196311951,oven,oven,c05,0078_con_s02_c05_oven_10_n04111531_8144.JPEG
subject-02,1,80,0.861873865127563,boat,bottle,c30,0079_con_s02_c30_bottle_10_n02823428_770.JPEG
subject-02,1,81,1.37562012672424,dog,bear,c10,0080_con_s02_c10_bear_10_n02134084_22190.JPEG
subject-02,1,82,0.567991018295288,clock,clock,c50,0081_con_s02_c50_clock_10_n03196217_1566.JPEG
subject-02,1,83,0.687551021575928,keyboard,bottle,c01,0082_con_s02_c01_bottle_10_n04579145_5427.JPEG
subject-02,1,84,0.770020008087158,truck,truck,c50,0083_con_s02_c50_truck_10_n03417042_4349.JPEG
subject-02,1,85,1.15203404426575,bird,dog,c05,0084_con_s02_c05_dog_10_n02108000_6337.JPEG
subject-02,1,86,1.04378509521484,bear,bear,c15,0085_con_s02_c15_bear_10_n02134418_2574.JPEG
subject-02,1,87,0.663697004318237,oven,oven,c30,0086_con_s02_c30_oven_10_n04111531_8046.JPEG
subject-02,1,88,0.964353799819946,cat,elephant,c30,0087_con_s02_c30_elephant_10_n02504458_2251.JPEG
subject-02,1,89,0.886898994445801,boat,elephant,c03,0088_con_s02_c03_elephant_10_n02504013_7422.JPEG
subject-02,1,90,0.693273067474365,clock,keyboard,c01,0089_con_s02_c01_keyboard_10_n04505470_7521.JPEG
subject-02,1,91,0.850625991821289,bicycle,bicycle,c15,0090_con_s02_c15_bicycle_10_n03792782_17280.JPEG
subject-02,1,92,0.750980854034424,keyboard,elephant,c03,0091_con_s02_c03_elephant_10_n02504013_933.JPEG
subject-02,1,93,0.80279803276062,oven,oven,c50,0092_con_s02_c50_oven_10_n04111531_2381.JPEG
subject-02,1,94,0.839387178421021,airplane,cat,c01,0093_con_s02_c01_cat_10_n02125311_37424.JPEG
subject-02,1,95,1.0457022190094,airplane,airplane,c100,0094_con_s02_c100_airplane_10_n02690373_5184.JPEG
subject-02,1,96,0.876123905181885,cat,cat,c05,0095_con_s02_c05_cat_10_n02123394_4734.JPEG
subject-02,1,97,0.644743204116821,clock,clock,c50,0096_con_s02_c50_clock_10_n03196217_10384.JPEG
subject-02,1,98,0.742437124252319,bird,bird,c10,0097_con_s02_c10_bird_10_n01560419_2667.JPEG
subject-02,1,99,1.21169400215149,car,car,c30,0098_con_s02_c30_car_10_n03100240_20489.JPEG
subject-02,1,100,0.982982873916626,bird,bird,c50,0099_con_s02_c50_bird_10_n01797886_21323.JPEG
subject-02,1,101,1.03159499168396,bear,bear,c50,0100_con_s02_c50_bear_10_n02134084_17875.JPEG
subject-02,1,102,0.969887971878052,bear,bear,c03,0101_con_s02_c03_bear_10_n02134084_17675.JPEG
subject-02,1,103,0.976683855056763,oven,knife,c50,0102_con_s02_c50_knife_10_n03041632_8528.JPEG
subject-02,1,104,0.745231151580811,boat,bottle,c10,0103_con_s02_c10_bottle_10_n04560804_15220.JPEG
subject-02,1,105,0.6838059425354,keyboard,keyboard,c100,0104_con_s02_c100_keyboard_10_n03085013_4935.JPEG
subject-02,1,106,0.919737100601196,cat,cat,c50,0105_con_s02_c50_cat_10_n02124075_4836.JPEG
subject-02,1,107,0.780007123947144,boat,clock,c15,0106_con_s02_c15_clock_10_n02708093_1119.JPEG
subject-02,1,108,1.18669199943542,clock,clock,c03,0107_con_s02_c03_clock_10_n02708093_6966.JPEG
subject-02,1,109,0.80841588973999,bird,bird,c100,0108_con_s02_c100_bird_10_n02013706_1823.JPEG
subject-02,1,110,1.06099796295166,car,chair,c01,0109_con_s02_c01_chair_10_n04429376_28372.JPEG
subject-02,1,111,1.22914290428162,dog,dog,c50,0110_con_s02_c50_dog_10_n02106030_9147.JPEG
subject-02,1,112,0.835526943206787,oven,elephant,c01,0111_con_s02_c01_elephant_10_n02504458_4841.JPEG
subject-02,1,113,0.82824182510376,clock,clock,c03,0112_con_s02_c03_clock_10_n04548280_8552.JPEG
subject-02,1,114,0.98048996925354,truck,truck,c100,0113_con_s02_c100_truck_10_n03796401_9384.JPEG
subject-02,1,115,1.1709361076355,airplane,bicycle,c01,0114_con_s02_c01_bicycle_10_n02835271_9121.JPEG
subject-02,1,116,1.36110091209412,bicycle,bicycle,c100,0115_con_s02_c100_bicycle_10_n03792782_19937.JPEG
subject-02,1,117,0.761836051940918,oven,knife,c01,0116_con_s02_c01_knife_10_n03041632_27929.JPEG
subject-02,1,118,0.884380102157593,chair,knife,c01,0117_con_s02_c01_knife_10_n03041632_42196.JPEG
subject-02,1,119,0.868920087814331,knife,knife,c100,0118_con_s02_c100_knife_10_n03041632_49513.JPEG
subject-02,1,120,0.983608961105347,dog,dog,c05,0119_con_s02_c05_dog_10_n02107908_11455.JPEG
subject-02,1,121,1.02806687355042,bear,bear,c05,0120_con_s02_c05_bear_10_n02133161_1339.JPEG
subject-02,1,122,1.07941699028015,truck,truck,c50,0121_con_s02_c50_truck_10_n04467665_70480.JPEG
subject-02,1,123,1.17051601409912,bear,elephant,c100,0122_con_s02_c100_elephant_10_n02504013_10887.JPEG
subject-02,1,124,1.09277510643005,airplane,bear,c05,0123_con_s02_c05_bear_10_n02133161_958.JPEG
subject-02,1,125,0.983220100402832,clock,clock,c15,0124_con_s02_c15_clock_10_n02708093_3687.JPEG
subject-02,1,126,0.921615839004517,clock,elephant,c03,0125_con_s02_c03_elephant_10_n02504013_1088.JPEG
subject-02,1,127,0.866626977920532,elephant,elephant,c10,0126_con_s02_c10_elephant_10_n02504013_16126.JPEG
subject-02,1,128,0.888850927352905,elephant,elephant,c50,0127_con_s02_c50_elephant_10_n02504458_4564.JPEG
subject-02,1,129,0.894828796386719,airplane,airplane,c05,0128_con_s02_c05_airplane_10_n02690373_18383.JPEG
subject-02,1,130,0.817487955093384,dog,dog,c30,0129_con_s02_c30_dog_10_n02102480_9095.JPEG
subject-02,1,131,0.707787990570068,airplane,airplane,c50,0130_con_s02_c50_airplane_10_n02690373_4150.JPEG
subject-02,1,132,0.700196027755737,clock,clock,c30,0131_con_s02_c30_clock_10_n02708093_1897.JPEG
subject-02,1,133,1.15890502929688,airplane,bicycle,c03,0132_con_s02_c03_bicycle_10_n02835271_12297.JPEG
subject-02,1,134,0.889169931411743,knife,knife,c100,0133_con_s02_c100_knife_10_n03041632_126.JPEG
subject-02,1,135,0.986876964569092,dog,dog,c05,0134_con_s02_c05_dog_10_n02097130_2471.JPEG
subject-02,1,136,0.731254100799561,boat,bear,c01,0135_con_s02_c01_bear_10_n02134084_1867.JPEG
subject-02,1,137,1.04599785804749,cat,elephant,c05,0136_con_s02_c05_elephant_10_n02504013_5788.JPEG
subject-02,1,138,0.790606021881104,bird,dog,c05,0137_con_s02_c05_dog_10_n02092002_15489.JPEG
subject-02,1,139,0.85827898979187,bicycle,bicycle,c05,0138_con_s02_c05_bicycle_10_n03792782_5602.JPEG
subject-02,1,140,0.786279916763306,oven,boat,c05,0139_con_s02_c05_boat_10_n02951358_10405.JPEG
subject-02,1,141,0.859904050827026,truck,truck,c100,0140_con_s02_c100_truck_10_n03417042_4173.JPEG
subject-02,1,142,0.928452014923096,boat,clock,c100,0141_con_s02_c100_clock_10_n03196217_6689.JPEG
subject-02,1,143,0.672428846359253,keyboard,clock,c01,0142_con_s02_c01_clock_10_n04548280_4894.JPEG
subject-02,1,144,0.700064897537231,bird,bird,c15,0143_con_s02_c15_bird_10_n01819313_6433.JPEG
subject-02,1,145,1.00694704055786,bird,bird,c05,0144_con_s02_c05_bird_10_n01622779_16279.JPEG
subject-02,1,146,0.652961015701294,clock,elephant,c01,0145_con_s02_c01_elephant_10_n02504458_8064.JPEG
subject-02,1,147,0.597376108169556,oven,clock,c01,0146_con_s02_c01_clock_10_n04548280_309.JPEG
subject-02,1,148,1.27169299125671,airplane,boat,c03,0147_con_s02_c03_boat_10_n04273569_1901.JPEG
subject-02,1,149,0.823599815368652,car,car,c03,0148_con_s02_c03_car_10_n03100240_3120.JPEG
subject-02,1,150,0.975759029388428,boat,boat,c100,0149_con_s02_c100_boat_10_n02951358_43584.JPEG
subject-02,1,151,0.981713056564331,oven,bird,c50,0150_con_s02_c50_bird_10_n02027492_1983.JPEG
subject-02,1,152,0.766331911087036,boat,airplane,c01,0151_con_s02_c01_airplane_10_n02690373_9328.JPEG
subject-02,1,153,NaN,na,keyboard,c01,0152_con_s02_c01_keyboard_10_n04505470_2207.JPEG
subject-02,1,154,0.863791942596436,clock,oven,c01,0153_con_s02_c01_oven_10_n04111531_3202.JPEG
subject-02,1,155,0.907444953918457,bear,bear,c30,0154_con_s02_c30_bear_10_n02134084_1949.JPEG
subject-02,1,156,1.22167587280273,bottle,bear,c01,0155_con_s02_c01_bear_10_n02132136_7863.JPEG
subject-02,1,157,0.982412099838257,dog,dog,c100,0156_con_s02_c100_dog_10_n02105641_1959.JPEG
subject-02,1,158,0.734756946563721,keyboard,keyboard,c10,0157_con_s02_c10_keyboard_10_n03085013_22254.JPEG
subject-02,1,159,0.994695901870728,cat,cat,c50,0158_con_s02_c50_cat_10_n02125311_6896.JPEG
subject-02,1,160,0.939599990844727,bottle,chair,c10,0159_con_s02_c10_chair_10_n03376595_2099.JPEG
subject-02,1,161,0.593909978866577,clock,cat,c01,0160_con_s02_c01_cat_10_n02123159_4530.JPEG
subject-02,1,162,1.12237215042114,oven,cat,c30,0161_con_s02_c30_cat_10_n02123597_1423.JPEG
subject-02,1,163,0.952754020690918,car,car,c100,0162_con_s02_c100_car_10_n03100240_977.JPEG
subject-02,1,164,0.767496109008789,oven,keyboard,c15,0163_con_s02_c15_keyboard_10_n03085013_23201.JPEG
subject-02,1,165,1.11205387115479,cat,cat,c100,0164_con_s02_c100_cat_10_n02125311_20179.JPEG
subject-02,1,166,1.1186900138855,knife,knife,c30,0165_con_s02_c30_knife_10_n03041632_24461.JPEG
subject-02,1,167,0.933058023452759,keyboard,elephant,c01,0166_con_s02_c01_elephant_10_n02504013_340.JPEG
subject-02,1,168,0.723800897598267,car,car,c10,0167_con_s02_c10_car_10_n03100240_549.JPEG
subject-02,1,169,0.845635890960693,clock,clock,c10,0168_con_s02_c10_clock_10_n04548280_28.JPEG
subject-02,1,170,1.08692812919617,cat,cat,c15,0169_con_s02_c15_cat_10_n02123597_4586.JPEG
subject-02,1,171,0.787358999252319,bird,bird,c30,0170_con_s02_c30_bird_10_n01592084_26586.JPEG
subject-02,1,172,1.08609414100647,oven,oven,c10,0171_con_s02_c10_oven_10_n04111531_16583.JPEG
subject-02,1,173,0.960783004760742,bird,bird,c05,0172_con_s02_c05_bird_10_n02018207_13036.JPEG
subject-02,1,174,0.837062120437622,clock,cat,c10,0173_con_s02_c10_cat_10_n02123159_6162.JPEG
subject-02,1,175,0.67652702331543,cat,bicycle,c01,0174_con_s02_c01_bicycle_10_n03792782_29509.JPEG
subject-02,1,176,0.874917030334473,clock,cat,c03,0175_con_s02_c03_cat_10_n02123159_1565.JPEG
subject-02,1,177,0.765439987182617,bear,bear,c50,0176_con_s02_c50_bear_10_n02134084_16843.JPEG
subject-02,1,178,0.910014867782593,bicycle,bottle,c01,0177_con_s02_c01_bottle_10_n03937543_6302.JPEG
subject-02,1,179,1.32942509651184,airplane,airplane,c30,0178_con_s02_c30_airplane_10_n02690373_5176.JPEG
subject-02,1,180,0.989622831344604,boat,knife,c05,0179_con_s02_c05_knife_10_n03041632_22570.JPEG
subject-02,1,181,0.782257080078125,boat,airplane,c03,0180_con_s02_c03_airplane_10_n02690373_5564.JPEG
subject-02,1,182,0.917757987976074,bicycle,bicycle,c50,0181_con_s02_c50_bicycle_10_n02835271_3027.JPEG
subject-02,1,183,1.28447318077087,chair,chair,c30,0182_con_s02_c30_chair_10_n04099969_13811.JPEG
subject-02,1,184,1.2070300579071,boat,bicycle,c100,0183_con_s02_c100_bicycle_10_n03792782_988.JPEG
subject-02,1,185,1.16704177856445,chair,chair,c30,0184_con_s02_c30_chair_10_n03376595_2398.JPEG
subject-02,1,186,0.78977108001709,boat,elephant,c30,0185_con_s02_c30_elephant_10_n02504013_6139.JPEG
subject-02,1,187,0.880135059356689,dog,dog,c50,0186_con_s02_c50_dog_10_n02093256_8013.JPEG
subject-02,1,188,0.940930128097534,bear,bear,c10,0187_con_s02_c10_bear_10_n02133161_12944.JPEG
subject-02,1,189,0.979837894439697,bear,bear,c10,0188_con_s02_c10_bear_10_n02133161_5669.JPEG
subject-02,1,190,1.14035797119141,car,car,c05,0189_con_s02_c05_car_10_n04285008_7871.JPEG
subject-02,1,191,0.892704010009766,cat,cat,c100,0190_con_s02_c100_cat_10_n02123159_793.JPEG
subject-02,1,192,0.869215965270996,chair,chair,c50,0191_con_s02_c50_chair_10_n04099969_25727.JPEG
subject-02,1,193,1.13581895828247,airplane,airplane,c100,0192_con_s02_c100_airplane_10_n02690373_5693.JPEG
subject-02,1,194,0.874222993850708,truck,truck,c15,0193_con_s02_c15_truck_10_n04467665_28287.JPEG
subject-02,1,195,1.08178687095642,truck,truck,c15,0194_con_s02_c15_truck_10_n03796401_13280.JPEG
subject-02,1,196,0.96621298789978,oven,boat,c01,0195_con_s02_c01_boat_10_n03344393_4827.JPEG
subject-02,1,197,1.08656597137451,boat,boat,c03,0196_con_s02_c03_boat_10_n04612504_10055.JPEG
subject-02,1,198,1.10115909576416,elephant,elephant,c50,0197_con_s02_c50_elephant_10_n02504458_4401.JPEG
subject-02,1,199,0.777598142623901,airplane,airplane,c100,0198_con_s02_c100_airplane_10_n02690373_11799.JPEG
subject-02,1,200,0.960103988647461,oven,keyboard,c01,0199_con_s02_c01_keyboard_10_n04505470_6080.JPEG
subject-02,1,201,0.982586860656738,clock,chair,c03,0200_con_s02_c03_chair_10_n04099969_4129.JPEG
subject-02,1,202,0.842979907989502,boat,boat,c10,0201_con_s02_c10_boat_10_n04612504_25506.JPEG
subject-02,1,203,1.0495388507843,clock,clock,c30,0202_con_s02_c30_clock_10_n04548280_2687.JPEG
subject-02,1,204,1.16194987297058,bird,bottle,c03,0203_con_s02_c03_bottle_10_n03983396_10857.JPEG
subject-02,1,205,1.06804704666138,knife,knife,c30,0204_con_s02_c30_knife_10_n03041632_41310.JPEG
subject-02,1,206,0.912456035614014,dog,dog,c50,0205_con_s02_c50_dog_10_n02090721_274.JPEG
subject-02,1,207,0.91877293586731,oven,knife,c01,0206_con_s02_c01_knife_10_n03041632_2153.JPEG
subject-02,1,208,0.795549869537354,clock,clock,c10,0207_con_s02_c10_clock_10_n04548280_5257.JPEG
subject-02,1,209,0.693876028060913,cat,cat,c50,0208_con_s02_c50_cat_10_n02124075_11135.JPEG
subject-02,1,210,0.822463989257812,car,bear,c01,0209_con_s02_c01_bear_10_n02134084_9774.JPEG
subject-02,1,211,0.953035831451416,cat,cat,c10,0210_con_s02_c10_cat_10_n02125311_14449.JPEG
subject-02,1,212,0.689247131347656,oven,cat,c01,0211_con_s02_c01_cat_10_n02123045_712.JPEG
subject-02,1,213,0.857753038406372,bottle,bottle,c10,0212_con_s02_c10_bottle_10_n04557648_5362.JPEG
subject-02,1,214,1.07162380218506,cat,bird,c50,0213_con_s02_c50_bird_10_n01514859_4361.JPEG
subject-02,1,215,1.04978799819946,boat,bicycle,c100,0214_con_s02_c100_bicycle_10_n03792782_4604.JPEG
subject-02,1,216,0.910382986068726,chair,chair,c30,0215_con_s02_c30_chair_10_n02791124_2856.JPEG
subject-02,1,217,0.892685890197754,car,car,c10,0216_con_s02_c10_car_10_n03100240_15820.JPEG
subject-02,1,218,1.36934614181519,boat,boat,c50,0217_con_s02_c50_boat_10_n03344393_3212.JPEG
subject-02,1,219,1.26766514778137,elephant,elephant,c15,0218_con_s02_c15_elephant_10_n02504458_7570.JPEG
subject-02,1,220,1.06674313545227,clock,truck,c50,0219_con_s02_c50_truck_10_n03796401_172.JPEG
subject-02,1,221,1.22714900970459,bird,bird,c15,0220_con_s02_c15_bird_10_n02009912_381.JPEG
subject-02,1,222,0.911757946014404,bottle,bottle,c05,0221_con_s02_c05_bottle_10_n03983396_15493.JPEG
subject-02,1,223,1.16212296485901,airplane,bird,c05,0222_con_s02_c05_bird_10_n02006656_8776.JPEG
subject-02,1,224,0.831024885177612,cat,bottle,c03,0223_con_s02_c03_bottle_10_n04579145_6486.JPEG
subject-02,1,225,0.975160121917725,keyboard,keyboard,c03,0224_con_s02_c03_keyboard_10_n04505470_10191.JPEG
subject-02,1,226,0.780020952224731,boat,dog,c10,0225_con_s02_c10_dog_10_n02107574_2554.JPEG
subject-02,1,227,0.992480993270874,car,car,c100,0226_con_s02_c100_car_10_n02814533_86761.JPEG
subject-02,1,228,NaN,na,airplane,c100,0227_con_s02_c100_airplane_10_n02690373_7002.JPEG
subject-02,1,229,1.05160689353943,oven,knife,c01,0228_con_s02_c01_knife_10_n03041632_86554.JPEG
subject-02,1,230,0.711956977844238,boat,truck,c03,0229_con_s02_c03_truck_10_n04467665_18765.JPEG
subject-02,1,231,1.14838910102844,elephant,elephant,c50,0230_con_s02_c50_elephant_10_n02504458_5565.JPEG
subject-02,1,232,0.979116916656494,car,bicycle,c05,0231_con_s02_c05_bicycle_10_n02835271_5986.JPEG
subject-02,1,233,0.676787137985229,airplane,airplane,c50,0232_con_s02_c50_airplane_10_n02690373_7535.JPEG
subject-02,1,234,0.65933084487915,oven,oven,c05,0233_con_s02_c05_oven_10_n04111531_6080.JPEG
subject-02,1,235,0.719942092895508,cat,cat,c30,0234_con_s02_c30_cat_10_n02123597_6880.JPEG
subject-02,1,236,0.742069005966187,car,car,c50,0235_con_s02_c50_car_10_n03100240_9221.JPEG
subject-02,1,237,0.800634860992432,cat,dog,c30,0236_con_s02_c30_dog_10_n02097658_11458.JPEG
subject-02,1,238,0.891140937805176,car,car,c03,0237_con_s02_c03_car_10_n04285008_13291.JPEG
subject-02,1,239,0.691647052764893,boat,bear,c05,0238_con_s02_c05_bear_10_n02134418_5684.JPEG
subject-02,1,240,0.574168920516968,oven,oven,c30,0239_con_s02_c30_oven_10_n04111531_14607.JPEG
subject-02,1,241,1.12654089927673,car,car,c10,0240_con_s02_c10_car_10_n02814533_27588.JPEG
subject-02,1,242,0.925026893615723,cat,knife,c05,0241_con_s02_c05_knife_10_n03041632_31271.JPEG
subject-02,1,243,0.823505163192749,boat,boat,c15,0242_con_s02_c15_boat_10_n02951358_14915.JPEG
subject-02,1,244,0.935442924499512,boat,cat,c05,0243_con_s02_c05_cat_10_n02123394_513.JPEG
subject-02,1,245,0.881870985031128,clock,dog,c03,0244_con_s02_c03_dog_10_n02097047_1329.JPEG
subject-02,1,246,1.1404070854187,airplane,airplane,c15,0245_con_s02_c15_airplane_10_n02690373_2185.JPEG
subject-02,1,247,0.841127157211304,oven,oven,c10,0246_con_s02_c10_oven_10_n04111531_20953.JPEG
subject-02,1,248,0.869648933410645,cat,dog,c01,0247_con_s02_c01_dog_10_n02088364_16519.JPEG
subject-02,1,249,1.38984417915344,cat,dog,c10,0248_con_s02_c10_dog_10_n02102040_5173.JPEG
subject-02,1,250,0.665930986404419,boat,boat,c30,0249_con_s02_c30_boat_10_n04612504_149.JPEG
subject-02,1,251,0.902496099472046,boat,knife,c10,0250_con_s02_c10_knife_10_n03041632_15299.JPEG
subject-02,1,252,0.808631896972656,elephant,elephant,c100,0251_con_s02_c100_elephant_10_n02504458_7472.JPEG
subject-02,1,253,0.615425825119019,boat,bottle,c05,0252_con_s02_c05_bottle_10_n04560804_25810.JPEG
subject-02,1,254,1.50036096572876,cat,cat,c15,0253_con_s02_c15_cat_10_n02123045_15082.JPEG
subject-02,1,255,0.812456846237183,clock,dog,c01,0254_con_s02_c01_dog_10_n02093754_1245.JPEG
subject-02,1,256,0.864886045455933,bicycle,bicycle,c10,0255_con_s02_c10_bicycle_10_n02835271_690.JPEG
subject-02,1,257,0.8505699634552,airplane,airplane,c10,0256_con_s02_c10_airplane_10_n02690373_1050.JPEG
subject-02,1,258,0.67294716835022,boat,airplane,c01,0257_con_s02_c01_airplane_10_n02690373_3173.JPEG
subject-02,1,259,1.2162938117981,airplane,chair,c05,0258_con_s02_c05_chair_10_n03376595_3165.JPEG
subject-02,1,260,0.607039928436279,boat,car,c03,0259_con_s02_c03_car_10_n02814533_78498.JPEG
subject-02,1,261,1.2054169178009,bird,cat,c15,0260_con_s02_c15_cat_10_n02123045_2902.JPEG
subject-02,1,262,0.54375696182251,clock,knife,c05,0261_con_s02_c05_knife_10_n03041632_11887.JPEG
subject-02,1,263,1.06356310844421,boat,knife,c03,0262_con_s02_c03_knife_10_n03041632_27832.JPEG
subject-02,1,264,0.85398006439209,dog,dog,c50,0263_con_s02_c50_dog_10_n02107683_2374.JPEG
subject-02,1,265,0.897418022155762,boat,dog,c01,0264_con_s02_c01_dog_10_n02096585_6678.JPEG
subject-02,1,266,0.749696969985962,boat,knife,c05,0265_con_s02_c05_knife_10_n03041632_54732.JPEG
subject-02,1,267,1.07743406295776,bottle,clock,c15,0266_con_s02_c15_clock_10_n04548280_116.JPEG
subject-02,1,268,0.761687994003296,clock,clock,c30,0267_con_s02_c30_clock_10_n03196217_11445.JPEG
subject-02,1,269,0.80635404586792,boat,elephant,c03,0268_con_s02_c03_elephant_10_n02504458_6470.JPEG
subject-02,1,270,1.38079595565796,knife,knife,c05,0269_con_s02_c05_knife_10_n03041632_7116.JPEG
subject-02,1,271,0.86217188835144,bicycle,bicycle,c50,0270_con_s02_c50_bicycle_10_n02835271_10556.JPEG
subject-02,1,272,1.03074216842651,knife,knife,c30,0271_con_s02_c30_knife_10_n03041632_21477.JPEG
subject-02,1,273,0.699189901351929,boat,bottle,c03,0272_con_s02_c03_bottle_10_n03937543_5733.JPEG
subject-02,1,274,1.05715203285217,airplane,airplane,c10,0273_con_s02_c10_airplane_10_n02690373_18234.JPEG
subject-02,1,275,0.557513952255249,cat,bottle,c01,0274_con_s02_c01_bottle_10_n04557648_3675.JPEG
subject-02,1,276,1.39134812355042,cat,elephant,c05,0275_con_s02_c05_elephant_10_n02504013_2728.JPEG
subject-02,1,277,1.17604088783264,dog,dog,c50,0276_con_s02_c50_dog_10_n02109961_18163.JPEG
subject-02,1,278,0.990869998931885,chair,chair,c100,0277_con_s02_c100_chair_10_n03376595_111.JPEG
subject-02,1,279,0.634499073028564,boat,bear,c05,0278_con_s02_c05_bear_10_n02134084_16066.JPEG
subject-02,1,280,0.649279117584229,boat,elephant,c01,0279_con_s02_c01_elephant_10_n02504013_3892.JPEG
subject-02,1,281,0.722576141357422,boat,bottle,c03,0280_con_s02_c03_bottle_10_n03983396_12552.JPEG
subject-02,1,282,0.633294820785522,boat,elephant,c01,0281_con_s02_c01_elephant_10_n02504013_18498.JPEG
subject-02,1,283,0.724116086959839,bird,bird,c30,0282_con_s02_c30_bird_10_n01592084_2996.JPEG
subject-02,1,284,0.830708026885986,elephant,elephant,c05,0283_con_s02_c05_elephant_10_n02504013_9796.JPEG
subject-02,1,285,0.823215007781982,cat,cat,c10,0284_con_s02_c10_cat_10_n02123597_14267.JPEG
subject-02,1,286,1.01916980743408,dog,bicycle,c05,0285_con_s02_c05_bicycle_10_n02835271_14504.JPEG
subject-02,1,287,1.29572796821594,chair,chair,c100,0286_con_s02_c100_chair_10_n04429376_48722.JPEG
subject-02,1,288,0.726053953170776,bicycle,bicycle,c05,0287_con_s02_c05_bicycle_10_n03792782_12503.JPEG
subject-02,1,289,0.678544998168945,keyboard,keyboard,c100,0288_con_s02_c100_keyboard_10_n04505470_4807.JPEG
subject-02,1,290,1.14406991004944,dog,dog,c10,0289_con_s02_c10_dog_10_n02099601_2378.JPEG
subject-02,1,291,0.812525987625122,oven,oven,c15,0290_con_s02_c15_oven_10_n04111531_12952.JPEG
subject-02,1,292,0.615898132324219,clock,oven,c01,0291_con_s02_c01_oven_10_n04111531_6933.JPEG
subject-02,1,293,0.730593919754028,clock,chair,c01,0292_con_s02_c01_chair_10_n04429376_29357.JPEG
subject-02,1,294,0.796373844146729,clock,clock,c15,0293_con_s02_c15_clock_10_n02708093_2242.JPEG
subject-02,1,295,0.642935037612915,boat,dog,c03,0294_con_s02_c03_dog_10_n02091032_4167.JPEG
subject-02,1,296,0.855247974395752,boat,boat,c100,0295_con_s02_c100_boat_10_n04612504_25501.JPEG
subject-02,1,297,0.793647050857544,bicycle,dog,c01,0296_con_s02_c01_dog_10_n02113712_14269.JPEG
subject-02,1,298,0.743043899536133,boat,car,c15,0297_con_s02_c15_car_10_n04285008_8291.JPEG
subject-02,1,299,0.927281141281128,oven,knife,c10,0298_con_s02_c10_knife_10_n03041632_14817.JPEG
subject-02,1,300,0.739098072052002,clock,clock,c100,0299_con_s02_c100_clock_10_n04548280_4118.JPEG
subject-02,1,301,0.72368311882019,clock,keyboard,c10,0300_con_s02_c10_keyboard_10_n03085013_7286.JPEG
subject-02,1,302,0.621664047241211,clock,clock,c50,0301_con_s02_c50_clock_10_n02708093_1684.JPEG
subject-02,1,303,0.820368766784668,chair,truck,c10,0302_con_s02_c10_truck_10_n03417042_877.JPEG
subject-02,1,304,1.13501811027527,bird,bird,c30,0303_con_s02_c30_bird_10_n01537544_6413.JPEG
subject-02,1,305,0.887192964553833,boat,cat,c10,0304_con_s02_c10_cat_10_n02124075_10971.JPEG
subject-02,1,306,0.89344596862793,boat,keyboard,c03,0305_con_s02_c03_keyboard_10_n04505470_9762.JPEG
subject-02,1,307,1.13024306297302,car,car,c15,0306_con_s02_c15_car_10_n03100240_6859.JPEG
subject-02,1,308,0.968976020812988,oven,knife,c30,0307_con_s02_c30_knife_10_n03041632_36390.JPEG
subject-02,1,309,0.899531126022339,bicycle,bicycle,c15,0308_con_s02_c15_bicycle_10_n03792782_14040.JPEG
subject-02,1,310,1.34411096572876,elephant,elephant,c50,0309_con_s02_c50_elephant_10_n02504013_2583.JPEG
subject-02,1,311,0.688203096389771,boat,airplane,c01,0310_con_s02_c01_airplane_10_n02690373_5374.JPEG
subject-02,1,312,0.86170506477356,knife,knife,c30,0311_con_s02_c30_knife_10_n03041632_9759.JPEG
subject-02,1,313,0.730549097061157,cat,oven,c03,0312_con_s02_c03_oven_10_n04111531_21232.JPEG
subject-02,1,314,0.891392946243286,car,car,c10,0313_con_s02_c10_car_10_n03100240_9640.JPEG
subject-02,1,315,1.12957501411438,bird,bird,c10,0314_con_s02_c10_bird_10_n01601694_7306.JPEG
subject-02,1,316,0.757869005203247,boat,boat,c15,0315_con_s02_c15_boat_10_n03344393_1822.JPEG
subject-02,1,317,1.08002996444702,bird,bird,c30,0316_con_s02_c30_bird_10_n02006656_5295.JPEG
subject-02,1,318,0.752577066421509,boat,bird,c01,0317_con_s02_c01_bird_10_n01798484_8691.JPEG
subject-02,1,319,0.950775146484375,truck,oven,c10,0318_con_s02_c10_oven_10_n04111531_21068.JPEG
subject-02,1,320,0.865319967269897,bird,bird,c100,0319_con_s02_c100_bird_10_n01860187_2084.JPEG
subject-02,1,321,1.03980112075806,knife,knife,c50,0320_con_s02_c50_knife_10_n03041632_3926.JPEG
subject-02,1,322,1.15445399284363,elephant,oven,c30,0321_con_s02_c30_oven_10_n04111531_4918.JPEG
subject-02,1,323,1.08490204811096,elephant,oven,c01,0322_con_s02_c01_oven_10_n04111531_774.JPEG
subject-02,1,324,1.22946119308472,chair,chair,c15,0323_con_s02_c15_chair_10_n04429376_5202.JPEG
subject-02,1,325,NaN,na,cat,c05,0324_con_s02_c05_cat_10_n02124075_5606.JPEG
subject-02,1,326,1.28088593482971,car,bottle,c100,0325_con_s02_c100_bottle_10_n04557648_25201.JPEG
subject-02,1,327,0.987167119979858,chair,chair,c15,0326_con_s02_c15_chair_10_n03376595_10700.JPEG
subject-02,1,328,0.639065980911255,clock,oven,c01,0327_con_s02_c01_oven_10_n04111531_13520.JPEG
subject-02,1,329,0.815980911254883,bottle,bottle,c15,0328_con_s02_c15_bottle_10_n04560804_15311.JPEG
subject-02,1,330,0.93067193031311,elephant,elephant,c100,0329_con_s02_c100_elephant_10_n02504013_5894.JPEG
subject-02,1,331,0.828835964202881,airplane,airplane,c30,0330_con_s02_c30_airplane_10_n02690373_19438.JPEG
subject-02,1,332,0.927300930023193,clock,bird,c01,0331_con_s02_c01_bird_10_n01558993_11181.JPEG
subject-02,1,333,0.833868980407715,clock,oven,c01,0332_con_s02_c01_oven_10_n04111531_5246.JPEG
subject-02,1,334,0.710139036178589,keyboard,keyboard,c10,0333_con_s02_c10_keyboard_10_n03085013_1812.JPEG
subject-02,1,335,0.632258892059326,boat,boat,c100,0334_con_s02_c100_boat_10_n04612504_17309.JPEG
subject-02,1,336,0.882819890975952,oven,oven,c10,0335_con_s02_c10_oven_10_n04111531_12820.JPEG
subject-02,1,337,0.683014154434204,clock,cat,c03,0336_con_s02_c03_cat_10_n02124075_2884.JPEG
subject-02,1,338,0.757238149642944,cat,elephant,c01,0337_con_s02_c01_elephant_10_n02504013_21215.JPEG
subject-02,1,339,0.779402017593384,oven,cat,c01,0338_con_s02_c01_cat_10_n02125311_9356.JPEG
subject-02,1,340,0.732463836669922,car,car,c100,0339_con_s02_c100_car_10_n03100240_8206.JPEG
subject-02,1,341,1.21483206748962,bottle,oven,c50,0340_con_s02_c50_oven_10_n04111531_7421.JPEG
subject-02,1,342,1.45917510986328,car,truck,c10,0341_con_s02_c10_truck_10_n04467665_14623.JPEG
subject-02,1,343,1.18196296691895,elephant,chair,c15,0342_con_s02_c15_chair_10_n02791124_2611.JPEG
subject-02,1,344,0.888476133346558,keyboard,keyboard,c30,0343_con_s02_c30_keyboard_10_n03085013_23286.JPEG
subject-02,1,345,0.693562030792236,boat,clock,c05,0344_con_s02_c05_clock_10_n03196217_714.JPEG
subject-02,1,346,0.754300832748413,truck,truck,c50,0345_con_s02_c50_truck_10_n03417042_127.JPEG
subject-02,1,347,0.829319953918457,clock,bird,c03,0346_con_s02_c03_bird_10_n02009912_4179.JPEG
subject-02,1,348,1.03546190261841,oven,knife,c50,0347_con_s02_c50_knife_10_n03041632_29038.JPEG
subject-02,1,349,0.812043905258179,cat,keyboard,c01,0348_con_s02_c01_keyboard_10_n04505470_4440.JPEG
subject-02,1,350,0.888595819473267,bottle,bottle,c50,0349_con_s02_c50_bottle_10_n04560804_14781.JPEG
subject-02,1,351,0.80313515663147,boat,bird,c03,0350_con_s02_c03_bird_10_n01855032_326.JPEG
subject-02,1,352,0.923496007919312,truck,truck,c05,0351_con_s02_c05_truck_10_n03417042_22635.JPEG
subject-02,1,353,1.25426602363586,bicycle,bottle,c50,0352_con_s02_c50_bottle_10_n04560804_15674.JPEG
subject-02,1,354,0.936630010604858,dog,dog,c30,0353_con_s02_c30_dog_10_n02113023_14422.JPEG
subject-02,1,355,0.67097806930542,clock,clock,c100,0354_con_s02_c100_clock_10_n04548280_6493.JPEG
subject-02,1,356,1.02146697044373,keyboard,keyboard,c30,0355_con_s02_c30_keyboard_10_n04505470_1067.JPEG
subject-02,1,357,0.781842947006226,chair,chair,c100,0356_con_s02_c100_chair_10_n04099969_17056.JPEG
subject-02,1,358,1.0802698135376,cat,bird,c05,0357_con_s02_c05_bird_10_n01514859_4756.JPEG
subject-02,1,359,0.948076009750366,boat,dog,c03,0358_con_s02_c03_dog_10_n02091831_1634.JPEG
subject-02,1,360,1.17695593833923,cat,dog,c15,0359_con_s02_c15_dog_10_n02105251_7959.JPEG
subject-02,1,361,0.785176992416382,cat,cat,c15,0360_con_s02_c15_cat_10_n02123045_344.JPEG
subject-02,1,362,0.591604948043823,keyboard,keyboard,c15,0361_con_s02_c15_keyboard_10_n03085013_10984.JPEG
subject-02,1,363,0.927541017532349,keyboard,keyboard,c15,0362_con_s02_c15_keyboard_10_n04505470_8251.JPEG
subject-02,1,364,1.01008105278015,boat,chair,c01,0363_con_s02_c01_chair_10_n04099969_9194.JPEG
subject-02,1,365,0.694135904312134,boat,boat,c05,0364_con_s02_c05_boat_10_n04273569_16078.JPEG
subject-02,1,366,1.03883194923401,cat,bear,c05,0365_con_s02_c05_bear_10_n02134418_2569.JPEG
subject-02,1,367,0.928318977355957,truck,truck,c10,0366_con_s02_c10_truck_10_n03417042_15913.JPEG
subject-02,1,368,1.13970708847046,elephant,elephant,c10,0367_con_s02_c10_elephant_10_n02504013_16969.JPEG
subject-02,1,369,1.3844780921936,dog,dog,c15,0368_con_s02_c15_dog_10_n02106550_11624.JPEG
subject-02,1,370,0.68440580368042,keyboard,keyboard,c50,0369_con_s02_c50_keyboard_10_n03085013_24149.JPEG
subject-02,1,371,1.50018811225891,dog,truck,c03,0370_con_s02_c03_truck_10_n03796401_6928.JPEG
subject-02,1,372,0.810865163803101,bird,bird,c30,0371_con_s02_c30_bird_10_n01614925_3832.JPEG
subject-02,1,373,0.709038972854614,elephant,elephant,c10,0372_con_s02_c10_elephant_10_n02504013_15852.JPEG
subject-02,1,374,0.923659086227417,clock,bicycle,c03,0373_con_s02_c03_bicycle_10_n03792782_7438.JPEG
subject-02,1,375,0.715951919555664,elephant,elephant,c100,0374_con_s02_c100_elephant_10_n02504013_572.JPEG
subject-02,1,376,1.13658809661865,bird,bird,c15,0375_con_s02_c15_bird_10_n02009912_9921.JPEG
subject-02,1,377,0.8663330078125,bottle,bottle,c30,0376_con_s02_c30_bottle_10_n04560804_1357.JPEG
subject-02,1,378,1.1400191783905,knife,knife,c05,0377_con_s02_c05_knife_10_n03041632_46422.JPEG
subject-02,1,379,1.10671281814575,cat,car,c03,0378_con_s02_c03_car_10_n02814533_83215.JPEG
subject-02,1,380,1.29114890098572,truck,truck,c15,0379_con_s02_c15_truck_10_n03417042_4694.JPEG
subject-02,1,381,0.781023025512695,oven,bird,c01,0380_con_s02_c01_bird_10_n01833805_7476.JPEG
subject-02,1,382,1.00045394897461,bear,bear,c50,0381_con_s02_c50_bear_10_n02134418_4303.JPEG
subject-02,1,383,0.538815975189209,oven,airplane,c01,0382_con_s02_c01_airplane_10_n02690373_8444.JPEG
subject-02,1,384,0.683496952056885,clock,chair,c03,0383_con_s02_c03_chair_10_n04429376_21424.JPEG
subject-02,1,385,0.974143028259277,oven,knife,c100,0384_con_s02_c100_knife_10_n03041632_27709.JPEG
subject-02,1,386,0.88587212562561,chair,bicycle,c30,0385_con_s02_c30_bicycle_10_n02835271_9594.JPEG
subject-02,1,387,0.778872013092041,airplane,airplane,c15,0386_con_s02_c15_airplane_10_n02690373_19329.JPEG
subject-02,1,388,0.936851024627686,bear,bear,c15,0387_con_s02_c15_bear_10_n02132136_14346.JPEG
subject-02,1,389,0.913653135299683,cat,oven,c05,0388_con_s02_c05_oven_10_n04111531_9026.JPEG
subject-02,1,390,1.19593405723572,bird,elephant,c15,0389_con_s02_c15_elephant_10_n02504458_1712.JPEG
subject-02,1,391,0.9268479347229,boat,truck,c01,0390_con_s02_c01_truck_10_n03417042_3862.JPEG
subject-02,1,392,0.794503927230835,truck,truck,c15,0391_con_s02_c15_truck_10_n03417042_2386.JPEG
subject-02,1,393,1.50032901763916,cat,chair,c03,0392_con_s02_c03_chair_10_n04099969_7862.JPEG
subject-02,1,394,0.745707988739014,boat,chair,c03,0393_con_s02_c03_chair_10_n02791124_5268.JPEG
subject-02,1,395,1.37402820587158,dog,cat,c03,0394_con_s02_c03_cat_10_n02123394_2040.JPEG
subject-02,1,396,1.25933694839478,bicycle,boat,c100,0395_con_s02_c100_boat_10_n02951358_34163.JPEG
subject-02,1,397,1.1656699180603,clock,clock,c10,0396_con_s02_c10_clock_10_n04548280_1672.JPEG
subject-02,1,398,0.731128931045532,keyboard,keyboard,c50,0397_con_s02_c50_keyboard_10_n03085013_23834.JPEG
subject-02,1,399,1.06149792671204,knife,knife,c10,0398_con_s02_c10_knife_10_n03041632_56436.JPEG
subject-02,1,400,1.11427593231201,cat,bear,c15,0399_con_s02_c15_bear_10_n02134084_18955.JPEG
subject-02,1,401,0.812477111816406,boat,boat,c15,0400_con_s02_c15_boat_10_n02951358_34150.JPEG
subject-02,1,402,0.780962944030762,oven,chair,c03,0401_con_s02_c03_chair_10_n04429376_41755.JPEG
subject-02,1,403,0.695694923400879,oven,boat,c05,0402_con_s02_c05_boat_10_n04273569_4574.JPEG
subject-02,1,404,0.770173072814941,boat,boat,c10,0403_con_s02_c10_boat_10_n02951358_15730.JPEG
subject-02,1,405,0.806743860244751,clock,clock,c100,0404_con_s02_c100_clock_10_n04548280_4557.JPEG
subject-02,1,406,1.11319589614868,dog,dog,c100,0405_con_s02_c100_dog_10_n02086079_38919.JPEG
subject-02,1,407,0.77360987663269,airplane,airplane,c05,0406_con_s02_c05_airplane_10_n02690373_8770.JPEG
subject-02,1,408,1.01798605918884,elephant,elephant,c100,0407_con_s02_c100_elephant_10_n02504013_10368.JPEG
subject-02,1,409,0.91049599647522,knife,knife,c30,0408_con_s02_c30_knife_10_n03041632_26989.JPEG
subject-02,1,410,0.909014940261841,keyboard,keyboard,c10,0409_con_s02_c10_keyboard_10_n03085013_19051.JPEG
subject-02,1,411,0.97478985786438,knife,knife,c05,0410_con_s02_c05_knife_10_n03041632_40652.JPEG
subject-02,1,412,0.713375091552734,cat,truck,c01,0411_con_s02_c01_truck_10_n04467665_4894.JPEG
subject-02,1,413,0.696032047271729,boat,boat,c30,0412_con_s02_c30_boat_10_n03662601_6404.JPEG
subject-02,1,414,0.942516088485718,oven,knife,c03,0413_con_s02_c03_knife_10_n03041632_56172.JPEG
subject-02,1,415,0.817126035690308,bird,bird,c50,0414_con_s02_c50_bird_10_n01829413_5800.JPEG
subject-02,1,416,0.752640008926392,keyboard,keyboard,c15,0415_con_s02_c15_keyboard_10_n04505470_568.JPEG
subject-02,1,417,1.11324000358582,clock,car,c01,0416_con_s02_c01_car_10_n04285008_12138.JPEG
subject-02,1,418,0.873622179031372,boat,bear,c100,0417_con_s02_c100_bear_10_n02132136_4314.JPEG
subject-02,1,419,0.664168834686279,keyboard,keyboard,c30,0418_con_s02_c30_keyboard_10_n03085013_21447.JPEG
subject-02,1,420,1.24706697463989,clock,knife,c05,0419_con_s02_c05_knife_10_n03041632_4214.JPEG
subject-02,1,421,0.768646001815796,clock,clock,c50,0420_con_s02_c50_clock_10_n04548280_9738.JPEG
subject-02,1,422,0.837296962738037,boat,cat,c01,0421_con_s02_c01_cat_10_n02125311_22657.JPEG
subject-02,1,423,0.889981031417847,bottle,bicycle,c03,0422_con_s02_c03_bicycle_10_n02835271_3643.JPEG
subject-02,1,424,1.22388386726379,car,car,c10,0423_con_s02_c10_car_10_n03100240_18792.JPEG
subject-02,1,425,1.06220602989197,chair,chair,c50,0424_con_s02_c50_chair_10_n04099969_3699.JPEG
subject-02,1,426,0.768602848052979,chair,keyboard,c50,0425_con_s02_c50_keyboard_10_n03085013_18781.JPEG
subject-02,1,427,0.829068899154663,bicycle,bicycle,c15,0426_con_s02_c15_bicycle_10_n03792782_27435.JPEG
subject-02,1,428,0.919512987136841,bird,bird,c10,0427_con_s02_c10_bird_10_n02027492_461.JPEG
subject-02,1,429,1.27816486358643,dog,dog,c10,0428_con_s02_c10_dog_10_n02086240_5750.JPEG
subject-02,1,430,0.870564937591553,chair,bicycle,c03,0429_con_s02_c03_bicycle_10_n02835271_9055.JPEG
subject-02,1,431,0.753666877746582,boat,car,c05,0430_con_s02_c05_car_10_n03100240_1057.JPEG
subject-02,1,432,0.553808927536011,keyboard,keyboard,c50,0431_con_s02_c50_keyboard_10_n03085013_2676.JPEG
subject-02,1,433,0.866446018218994,keyboard,keyboard,c10,0432_con_s02_c10_keyboard_10_n04505470_5050.JPEG
subject-02,1,434,0.950814008712769,truck,truck,c05,0433_con_s02_c05_truck_10_n03417042_10908.JPEG
subject-02,1,435,1.07893013954163,oven,oven,c10,0434_con_s02_c10_oven_10_n04111531_12308.JPEG
subject-02,1,436,1.46136617660522,dog,knife,c03,0435_con_s02_c03_knife_10_n03041632_45270.JPEG
subject-02,1,437,0.705843925476074,keyboard,keyboard,c50,0436_con_s02_c50_keyboard_10_n04505470_4138.JPEG
subject-02,1,438,1.17405700683594,clock,clock,c10,0437_con_s02_c10_clock_10_n04548280_2641.JPEG
subject-02,1,439,0.842850208282471,oven,oven,c01,0438_con_s02_c01_oven_10_n04111531_1150.JPEG
subject-02,1,440,0.849212884902954,keyboard,keyboard,c15,0439_con_s02_c15_keyboard_10_n04505470_2921.JPEG
subject-02,1,441,1.23168206214905,keyboard,truck,c05,0440_con_s02_c05_truck_10_n03417042_10594.JPEG
subject-02,1,442,1.23758101463318,keyboard,oven,c03,0441_con_s02_c03_oven_10_n04111531_21911.JPEG
subject-02,1,443,0.981945991516113,dog,dog,c15,0442_con_s02_c15_dog_10_n02095889_2925.JPEG
subject-02,1,444,0.688539981842041,oven,oven,c01,0443_con_s02_c01_oven_10_n04111531_3159.JPEG
subject-02,1,445,0.702913045883179,chair,chair,c10,0444_con_s02_c10_chair_10_n04099969_14986.JPEG
subject-02,1,446,1.10960912704468,boat,bear,c05,0445_con_s02_c05_bear_10_n02134418_8928.JPEG
subject-02,1,447,1.13015389442444,chair,chair,c10,0446_con_s02_c10_chair_10_n02791124_3854.JPEG
subject-02,1,448,0.797850131988525,boat,bear,c30,0447_con_s02_c30_bear_10_n02132136_3740.JPEG
subject-02,1,449,1.18817496299744,car,car,c30,0448_con_s02_c30_car_10_n04285008_2382.JPEG
subject-02,1,450,0.602783203125,keyboard,keyboard,c30,0449_con_s02_c30_keyboard_10_n03085013_24416.JPEG
subject-02,1,451,1.12351703643799,bird,bird,c50,0450_con_s02_c50_bird_10_n01797886_15438.JPEG
subject-02,1,452,1.01576805114746,clock,clock,c100,0451_con_s02_c100_clock_10_n02708093_6216.JPEG
subject-02,1,453,0.821838140487671,boat,bicycle,c05,0452_con_s02_c05_bicycle_10_n02835271_20445.JPEG
subject-02,1,454,0.766499996185303,cat,cat,c10,0453_con_s02_c10_cat_10_n02124075_14704.JPEG
subject-02,1,455,0.902789831161499,car,car,c10,0454_con_s02_c10_car_10_n03100240_6913.JPEG
subject-02,1,456,0.901113986968994,cat,cat,c10,0455_con_s02_c10_cat_10_n02123159_8144.JPEG
subject-02,1,457,0.699544191360474,keyboard,keyboard,c15,0456_con_s02_c15_keyboard_10_n04505470_6682.JPEG
subject-02,1,458,1.37858486175537,boat,bottle,c01,0457_con_s02_c01_bottle_10_n03983396_1102.JPEG
subject-02,1,459,1.01692390441895,bird,knife,c15,0458_con_s02_c15_knife_10_n03041632_8540.JPEG
subject-02,1,460,1.31293416023254,dog,truck,c03,0459_con_s02_c03_truck_10_n04467665_34253.JPEG
subject-02,1,461,0.89703893661499,boat,bottle,c30,0460_con_s02_c30_bottle_10_n04591713_5543.JPEG
subject-02,1,462,0.74925708770752,car,car,c50,0461_con_s02_c50_car_10_n03100240_3753.JPEG
subject-02,1,463,0.818377017974854,cat,chair,c05,0462_con_s02_c05_chair_10_n03376595_17747.JPEG
subject-02,1,464,1.06290197372437,truck,truck,c100,0463_con_s02_c100_truck_10_n04467665_69171.JPEG
subject-02,1,465,0.845050811767578,boat,boat,c30,0464_con_s02_c30_boat_10_n04612504_12430.JPEG
subject-02,1,466,0.775774002075195,bird,bird,c10,0465_con_s02_c10_bird_10_n02028035_13728.JPEG
subject-02,1,467,0.674232006072998,clock,clock,c05,0466_con_s02_c05_clock_10_n03196217_6312.JPEG
subject-02,1,468,0.94888710975647,bicycle,bicycle,c100,0467_con_s02_c100_bicycle_10_n02835271_6157.JPEG
subject-02,1,469,1.17739796638489,airplane,airplane,c50,0468_con_s02_c50_airplane_10_n02690373_20326.JPEG
subject-02,1,470,0.93183708190918,airplane,airplane,c50,0469_con_s02_c50_airplane_10_n02690373_462.JPEG
subject-02,1,471,1.07623720169067,airplane,airplane,c30,0470_con_s02_c30_airplane_10_n02690373_2750.JPEG
subject-02,1,472,1.50027680397034,knife,knife,c15,0471_con_s02_c15_knife_10_n03041632_992.JPEG
subject-02,1,473,0.97369909286499,bird,bird,c30,0472_con_s02_c30_bird_10_n01855672_7976.JPEG
subject-02,1,474,1.06417107582092,boat,car,c15,0473_con_s02_c15_car_10_n04285008_7150.JPEG
subject-02,1,475,0.878471851348877,cat,cat,c100,0474_con_s02_c100_cat_10_n02124075_1426.JPEG
subject-02,1,476,0.701463937759399,oven,bird,c01,0475_con_s02_c01_bird_10_n01797886_12666.JPEG
subject-02,1,477,0.93696403503418,bicycle,bicycle,c15,0476_con_s02_c15_bicycle_10_n03792782_2246.JPEG
subject-02,1,478,0.964767932891846,boat,bicycle,c03,0477_con_s02_c03_bicycle_10_n02835271_20062.JPEG
subject-02,1,479,0.827368974685669,cat,chair,c01,0478_con_s02_c01_chair_10_n04099969_8021.JPEG
subject-02,1,480,0.769618988037109,cat,cat,c05,0479_con_s02_c05_cat_10_n02124075_2806.JPEG
subject-02,1,481,1.00008893013,chair,dog,c100,0480_con_s02_c100_dog_10_n02102040_1620.JPEG
subject-02,1,482,1.50027704238892,truck,truck,c100,0481_con_s02_c100_truck_10_n04467665_69176.JPEG
subject-02,1,483,0.797160148620605,bicycle,bicycle,c100,0482_con_s02_c100_bicycle_10_n02835271_3110.JPEG
subject-02,1,484,1.17435598373413,dog,dog,c05,0483_con_s02_c05_dog_10_n02086646_2706.JPEG
subject-02,1,485,0.818835020065308,boat,bear,c01,0484_con_s02_c01_bear_10_n02134418_5510.JPEG
subject-02,1,486,0.779478073120117,boat,boat,c100,0485_con_s02_c100_boat_10_n04273569_250.JPEG
subject-02,1,487,1.19898295402527,car,chair,c15,0486_con_s02_c15_chair_10_n02791124_2713.JPEG
subject-02,1,488,1.30557107925415,chair,bottle,c10,0487_con_s02_c10_bottle_10_n04579145_2191.JPEG
subject-02,1,489,0.787913084030151,clock,bicycle,c01,0488_con_s02_c01_bicycle_10_n03792782_4895.JPEG
subject-02,1,490,1.04014086723328,bicycle,bicycle,c50,0489_con_s02_c50_bicycle_10_n02835271_24230.JPEG
subject-02,1,491,0.816844940185547,knife,knife,c100,0490_con_s02_c100_knife_10_n03041632_17820.JPEG
subject-02,1,492,1.10710716247559,truck,truck,c30,0491_con_s02_c30_truck_10_n04467665_50648.JPEG
subject-02,1,493,1.05891394615173,bicycle,bicycle,c10,0492_con_s02_c10_bicycle_10_n02835271_10425.JPEG
subject-02,1,494,1.4332640171051,knife,knife,c10,0493_con_s02_c10_knife_10_n03041632_26933.JPEG
subject-02,1,495,0.947818994522095,bicycle,bicycle,c30,0494_con_s02_c30_bicycle_10_n02835271_19676.JPEG
subject-02,1,496,1.06001687049866,cat,dog,c100,0495_con_s02_c100_dog_10_n02113978_5488.JPEG
subject-02,1,497,0.78249192237854,boat,truck,c03,0496_con_s02_c03_truck_10_n04467665_56933.JPEG
subject-02,1,498,1.00473690032959,airplane,airplane,c100,0497_con_s02_c100_airplane_10_n02690373_4113.JPEG
subject-02,1,499,0.946771860122681,dog,dog,c15,0498_con_s02_c15_dog_10_n02097130_888.JPEG
subject-02,1,500,0.991039037704468,cat,cat,c30,0499_con_s02_c30_cat_10_n02123159_5656.JPEG
subject-02,1,501,1.0806519985199,bottle,bottle,c15,0500_con_s02_c15_bottle_10_n04557648_3305.JPEG
subject-02,1,502,1.07039785385132,bottle,oven,c01,0501_con_s02_c01_oven_10_n04111531_4795.JPEG
subject-02,1,503,0.73892617225647,clock,clock,c10,0502_con_s02_c10_clock_10_n02708093_2512.JPEG
subject-02,1,504,0.698890924453735,boat,car,c01,0503_con_s02_c01_car_10_n04285008_12573.JPEG
subject-02,1,505,0.756505966186523,boat,boat,c10,0504_con_s02_c10_boat_10_n02951358_17182.JPEG
subject-02,1,506,1.22294402122498,airplane,airplane,c10,0505_con_s02_c10_airplane_10_n02690373_4706.JPEG
subject-02,1,507,0.774796009063721,bottle,bottle,c50,0506_con_s02_c50_bottle_10_n03937543_9695.JPEG
subject-02,1,508,0.951220035552979,truck,truck,c05,0507_con_s02_c05_truck_10_n03796401_6675.JPEG
subject-02,1,509,1.26293110847473,elephant,oven,c15,0508_con_s02_c15_oven_10_n04111531_7072.JPEG
subject-02,1,510,1.17498707771301,keyboard,keyboard,c100,0509_con_s02_c100_keyboard_10_n04505470_1137.JPEG
subject-02,1,511,0.997622966766357,keyboard,bird,c01,0510_con_s02_c01_bird_10_n02017213_3118.JPEG
subject-02,1,512,0.833286046981812,keyboard,airplane,c01,0511_con_s02_c01_airplane_10_n02690373_2078.JPEG
subject-02,1,513,0.942390918731689,truck,truck,c10,0512_con_s02_c10_truck_10_n04467665_22838.JPEG
subject-02,1,514,0.99416184425354,boat,knife,c01,0513_con_s02_c01_knife_10_n03041632_12707.JPEG
subject-02,1,515,0.570927858352661,boat,clock,c01,0514_con_s02_c01_clock_10_n04548280_5631.JPEG
subject-02,1,516,0.590541124343872,keyboard,keyboard,c100,0515_con_s02_c100_keyboard_10_n03085013_16115.JPEG
subject-02,1,517,0.818438053131104,keyboard,truck,c01,0516_con_s02_c01_truck_10_n04467665_50746.JPEG
subject-02,1,518,0.623785018920898,car,car,c100,0517_con_s02_c100_car_10_n03100240_4198.JPEG
subject-02,1,519,0.673558950424194,oven,oven,c100,0518_con_s02_c100_oven_10_n04111531_14876.JPEG
subject-02,1,520,0.896179914474487,airplane,oven,c10,0519_con_s02_c10_oven_10_n04111531_9289.JPEG
subject-02,1,521,0.964960098266602,bird,bird,c100,0520_con_s02_c100_bird_10_n02037110_3288.JPEG
subject-02,1,522,0.892654895782471,cat,cat,c50,0521_con_s02_c50_cat_10_n02124075_5970.JPEG
subject-02,1,523,0.691004991531372,cat,cat,c05,0522_con_s02_c05_cat_10_n02123045_1389.JPEG
subject-02,1,524,1.15804409980774,dog,dog,c30,0523_con_s02_c30_dog_10_n02098286_1203.JPEG
subject-02,1,525,0.901985168457031,chair,chair,c15,0524_con_s02_c15_chair_10_n04099969_4041.JPEG
subject-02,1,526,0.908623933792114,chair,chair,c100,0525_con_s02_c100_chair_10_n03376595_955.JPEG
subject-02,1,527,0.739066123962402,boat,bicycle,c05,0526_con_s02_c05_bicycle_10_n02835271_9589.JPEG
subject-02,1,528,0.951637983322144,clock,airplane,c03,0527_con_s02_c03_airplane_10_n02690373_13591.JPEG
subject-02,1,529,0.927567005157471,boat,chair,c100,0528_con_s02_c100_chair_10_n02791124_2614.JPEG
subject-02,1,530,1.16221380233765,airplane,airplane,c03,0529_con_s02_c03_airplane_10_n02690373_7072.JPEG
subject-02,1,531,0.792136907577515,boat,boat,c01,0530_con_s02_c01_boat_10_n03344393_1027.JPEG
subject-02,1,532,0.836154937744141,keyboard,keyboard,c10,0531_con_s02_c10_keyboard_10_n03085013_24257.JPEG
subject-02,1,533,0.634289979934692,boat,boat,c03,0532_con_s02_c03_boat_10_n04612504_5650.JPEG
subject-02,1,534,1.00004911422729,knife,chair,c05,0533_con_s02_c05_chair_10_n03376595_10945.JPEG
subject-02,1,535,0.966475009918213,bear,bear,c10,0534_con_s02_c10_bear_10_n02134084_16618.JPEG
subject-02,1,536,0.97223687171936,bird,bird,c100,0535_con_s02_c100_bird_10_n01616318_853.JPEG
subject-02,1,537,0.779046058654785,boat,elephant,c05,0536_con_s02_c05_elephant_10_n02504013_2169.JPEG
subject-02,1,538,1.07481503486633,keyboard,keyboard,c05,0537_con_s02_c05_keyboard_10_n04505470_930.JPEG
subject-02,1,539,1.27867603302002,elephant,elephant,c15,0538_con_s02_c15_elephant_10_n02504013_21616.JPEG
subject-02,1,540,NaN,na,clock,c50,0539_con_s02_c50_clock_10_n03196217_886.JPEG
subject-02,1,541,0.961585998535156,clock,bottle,c30,0540_con_s02_c30_bottle_10_n03937543_1946.JPEG
subject-02,1,542,0.699946880340576,oven,oven,c30,0541_con_s02_c30_oven_10_n04111531_13101.JPEG
subject-02,1,543,0.727702140808105,boat,boat,c05,0542_con_s02_c05_boat_10_n03344393_4871.JPEG
subject-02,1,544,1.21025609970093,cat,cat,c50,0543_con_s02_c50_cat_10_n02124075_8617.JPEG
subject-02,1,545,0.854317188262939,bicycle,bicycle,c05,0544_con_s02_c05_bicycle_10_n03792782_15114.JPEG
subject-02,1,546,1.04490804672241,bicycle,oven,c01,0545_con_s02_c01_oven_10_n04111531_9702.JPEG
subject-02,1,547,1.1489200592041,clock,clock,c10,0546_con_s02_c10_clock_10_n04548280_6361.JPEG
subject-02,1,548,1.06380200386047,bicycle,bicycle,c100,0547_con_s02_c100_bicycle_10_n02835271_7476.JPEG
subject-02,1,549,NaN,na,dog,c03,0548_con_s02_c03_dog_10_n02111277_16810.JPEG
subject-02,1,550,0.86887788772583,elephant,elephant,c05,0549_con_s02_c05_elephant_10_n02504458_220.JPEG
subject-02,1,551,0.780722856521606,boat,truck,c01,0550_con_s02_c01_truck_10_n03417042_366.JPEG
subject-02,1,552,0.946933031082153,keyboard,keyboard,c30,0551_con_s02_c30_keyboard_10_n04505470_2825.JPEG
subject-02,1,553,1.25323104858398,truck,boat,c10,0552_con_s02_c10_boat_10_n04273569_12574.JPEG
subject-02,1,554,1.29736495018005,bird,bird,c05,0553_con_s02_c05_bird_10_n01795545_15065.JPEG
subject-02,1,555,0.708985090255737,clock,clock,c15,0554_con_s02_c15_clock_10_n04548280_2506.JPEG
subject-02,1,556,1.19188809394836,dog,bear,c01,0555_con_s02_c01_bear_10_n02133161_8679.JPEG
subject-02,1,557,0.875698089599609,truck,truck,c30,0556_con_s02_c30_truck_10_n04467665_1410.JPEG
subject-02,1,558,0.750258922576904,keyboard,keyboard,c50,0557_con_s02_c50_keyboard_10_n03085013_8714.JPEG
subject-02,1,559,1.04066586494446,dog,cat,c100,0558_con_s02_c100_cat_10_n02123394_4789.JPEG
subject-02,1,560,0.806312084197998,keyboard,oven,c30,0559_con_s02_c30_oven_10_n04111531_13296.JPEG
subject-02,1,561,0.736593008041382,keyboard,keyboard,c30,0560_con_s02_c30_keyboard_10_n04505470_6884.JPEG
subject-02,1,562,1.17292785644531,keyboard,truck,c05,0561_con_s02_c05_truck_10_n03417042_11475.JPEG
subject-02,1,563,0.779726028442383,chair,chair,c05,0562_con_s02_c05_chair_10_n02791124_7935.JPEG
subject-02,1,564,0.977950096130371,knife,knife,c50,0563_con_s02_c50_knife_10_n03041632_4057.JPEG
subject-02,1,565,1.01441311836243,boat,bottle,c03,0564_con_s02_c03_bottle_10_n04591713_3289.JPEG
subject-02,1,566,1.04285883903503,bottle,chair,c03,0565_con_s02_c03_chair_10_n04099969_12229.JPEG
subject-02,1,567,1.03354501724243,truck,truck,c100,0566_con_s02_c100_truck_10_n03796401_2784.JPEG
subject-02,1,568,0.601420879364014,oven,boat,c01,0567_con_s02_c01_boat_10_n02951358_6618.JPEG
subject-02,1,569,0.76740288734436,oven,oven,c50,0568_con_s02_c50_oven_10_n04111531_8193.JPEG
subject-02,1,570,0.827781915664673,airplane,airplane,c50,0569_con_s02_c50_airplane_10_n02690373_13604.JPEG
subject-02,1,571,0.734390020370483,oven,oven,c30,0570_con_s02_c30_oven_10_n04111531_716.JPEG
subject-02,1,572,0.808871030807495,boat,boat,c50,0571_con_s02_c50_boat_10_n03344393_806.JPEG
subject-02,1,573,1.07703685760498,boat,bicycle,c01,0572_con_s02_c01_bicycle_10_n02835271_5437.JPEG
subject-02,1,574,1.21405506134033,dog,cat,c50,0573_con_s02_c50_cat_10_n02123597_27292.JPEG
subject-02,1,575,0.695778131484985,oven,boat,c01,0574_con_s02_c01_boat_10_n03662601_8227.JPEG
subject-02,1,576,0.786514043807983,chair,chair,c30,0575_con_s02_c30_chair_10_n04099969_3551.JPEG
subject-02,1,577,0.784099102020264,cat,bicycle,c01,0576_con_s02_c01_bicycle_10_n03792782_29276.JPEG
subject-02,1,578,0.912757873535156,airplane,airplane,c10,0577_con_s02_c10_airplane_10_n02690373_18871.JPEG
subject-02,1,579,0.781414985656738,clock,truck,c01,0578_con_s02_c01_truck_10_n03417042_18745.JPEG
subject-02,1,580,1.07331800460815,car,car,c100,0579_con_s02_c100_car_10_n03100240_11168.JPEG
subject-02,1,581,0.841925859451294,bird,bottle,c05,0580_con_s02_c05_bottle_10_n04560804_10.JPEG
subject-02,1,582,0.732476949691772,boat,boat,c03,0581_con_s02_c03_boat_10_n02951358_32590.JPEG
subject-02,1,583,1.09095501899719,elephant,elephant,c30,0582_con_s02_c30_elephant_10_n02504013_2476.JPEG
subject-02,1,584,0.770908832550049,clock,chair,c03,0583_con_s02_c03_chair_10_n04099969_2337.JPEG
subject-02,1,585,1.14549803733826,knife,knife,c15,0584_con_s02_c15_knife_10_n03041632_36235.JPEG
subject-02,1,586,0.89028000831604,airplane,airplane,c100,0585_con_s02_c100_airplane_10_n02690373_3364.JPEG
subject-02,1,587,0.942920207977295,clock,elephant,c03,0586_con_s02_c03_elephant_10_n02504013_4386.JPEG
subject-02,1,588,1.05714702606201,cat,cat,c10,0587_con_s02_c10_cat_10_n02124075_14924.JPEG
subject-02,1,589,1.01570296287537,boat,boat,c50,0588_con_s02_c50_boat_10_n03662601_4671.JPEG
subject-02,1,590,0.61555290222168,oven,car,c01,0589_con_s02_c01_car_10_n03100240_4446.JPEG
subject-02,1,591,0.651441097259521,boat,bird,c01,0590_con_s02_c01_bird_10_n02002724_2137.JPEG
subject-02,1,592,0.810532093048096,car,car,c05,0591_con_s02_c05_car_10_n02814533_5899.JPEG
subject-02,1,593,0.854779005050659,boat,boat,c10,0592_con_s02_c10_boat_10_n03344393_584.JPEG
subject-02,1,594,0.620086908340454,keyboard,keyboard,c100,0593_con_s02_c100_keyboard_10_n03085013_20247.JPEG
subject-02,1,595,0.834731101989746,bottle,bottle,c30,0594_con_s02_c30_bottle_10_n03983396_100.JPEG
subject-02,1,596,0.671169996261597,boat,clock,c05,0595_con_s02_c05_clock_10_n04548280_2472.JPEG
subject-02,1,597,1.50026416778564,elephant,elephant,c15,0596_con_s02_c15_elephant_10_n02504013_9393.JPEG
subject-02,1,598,1.43590903282166,airplane,airplane,c05,0597_con_s02_c05_airplane_10_n02690373_2447.JPEG
subject-02,1,599,NaN,na,knife,c15,0598_con_s02_c15_knife_10_n03041632_29801.JPEG
subject-02,1,600,0.91128396987915,bottle,bottle,c05,0599_con_s02_c05_bottle_10_n03937543_1995.JPEG
subject-02,1,601,NaN,na,dog,c03,0600_con_s02_c03_dog_10_n02093428_9628.JPEG
subject-02,1,602,1.15142202377319,bird,bird,c100,0601_con_s02_c100_bird_10_n01582220_37788.JPEG
subject-02,1,603,0.949339151382446,boat,car,c01,0602_con_s02_c01_car_10_n02814533_39597.JPEG
subject-02,1,604,0.747647047042847,boat,airplane,c05,0603_con_s02_c05_airplane_10_n02690373_9743.JPEG
subject-02,1,605,0.608422040939331,boat,chair,c01,0604_con_s02_c01_chair_10_n02791124_15407.JPEG
subject-02,1,606,1.16704916954041,dog,dog,c15,0605_con_s02_c15_dog_10_n02098286_4539.JPEG
subject-02,1,607,0.811497926712036,boat,knife,c05,0606_con_s02_c05_knife_10_n03041632_26710.JPEG
subject-02,1,608,0.809529066085815,elephant,elephant,c15,0607_con_s02_c15_elephant_10_n02504458_13354.JPEG
subject-02,1,609,0.953970909118652,boat,oven,c30,0608_con_s02_c30_oven_10_n04111531_1549.JPEG
subject-02,1,610,1.34208607673645,truck,truck,c05,0609_con_s02_c05_truck_10_n03417042_8439.JPEG
subject-02,1,611,1.44878602027893,truck,knife,c01,0610_con_s02_c01_knife_10_n03041632_9256.JPEG
subject-02,1,612,0.995275020599365,cat,cat,c15,0611_con_s02_c15_cat_10_n02125311_20241.JPEG
subject-02,1,613,0.937839031219482,cat,bird,c03,0612_con_s02_c03_bird_10_n02006656_4047.JPEG
subject-02,1,614,0.889985084533691,truck,truck,c15,0613_con_s02_c15_truck_10_n03417042_2960.JPEG
subject-02,1,615,0.820517063140869,bear,bear,c100,0614_con_s02_c100_bear_10_n02133161_13441.JPEG
subject-02,1,616,1.14913606643677,bottle,bottle,c50,0615_con_s02_c50_bottle_10_n04591713_1121.JPEG
subject-02,1,617,1.20761108398438,cat,bottle,c50,0616_con_s02_c50_bottle_10_n04591713_6760.JPEG
subject-02,1,618,1.41424012184143,boat,clock,c03,0617_con_s02_c03_clock_10_n03196217_4970.JPEG
subject-02,1,619,0.950398921966553,car,bear,c01,0618_con_s02_c01_bear_10_n02134084_22384.JPEG
subject-02,1,620,1.04852604866028,car,car,c100,0619_con_s02_c100_car_10_n04285008_5006.JPEG
subject-02,1,621,0.906474113464355,keyboard,keyboard,c05,0620_con_s02_c05_keyboard_10_n04505470_2156.JPEG
subject-02,1,622,0.652879953384399,boat,boat,c100,0621_con_s02_c100_boat_10_n04612504_24691.JPEG
subject-02,1,623,0.943376064300537,bicycle,bicycle,c50,0622_con_s02_c50_bicycle_10_n03792782_13608.JPEG
subject-02,1,624,1.00987386703491,airplane,airplane,c10,0623_con_s02_c10_airplane_10_n02690373_7370.JPEG
subject-02,1,625,1.08466506004333,bear,dog,c10,0624_con_s02_c10_dog_10_n02111500_2057.JPEG
subject-02,1,626,1.04501485824585,clock,clock,c100,0625_con_s02_c100_clock_10_n02708093_228.JPEG
subject-02,1,627,1.20306611061096,truck,truck,c50,0626_con_s02_c50_truck_10_n04467665_74008.JPEG
subject-02,1,628,1.50003886222839,boat,boat,c01,0627_con_s02_c01_boat_10_n03344393_5566.JPEG
subject-02,1,629,1.07006502151489,chair,chair,c10,0628_con_s02_c10_chair_10_n04099969_9140.JPEG
subject-02,1,630,1.03644013404846,bear,bottle,c05,0629_con_s02_c05_bottle_10_n04579145_1407.JPEG
subject-02,1,631,0.834861040115356,cat,bicycle,c10,0630_con_s02_c10_bicycle_10_n02835271_9866.JPEG
subject-02,1,632,1.01765203475952,cat,cat,c100,0631_con_s02_c100_cat_10_n02123159_3184.JPEG
subject-02,1,633,1.04834318161011,bear,bear,c30,0632_con_s02_c30_bear_10_n02134084_389.JPEG
subject-02,1,634,1.12305593490601,bear,bear,c10,0633_con_s02_c10_bear_10_n02134084_3288.JPEG
subject-02,1,635,0.661664962768555,bear,bear,c100,0634_con_s02_c100_bear_10_n02134418_6256.JPEG
subject-02,1,636,0.958525896072388,truck,truck,c15,0635_con_s02_c15_truck_10_n04467665_68463.JPEG
subject-02,1,637,1.20276594161987,boat,boat,c03,0636_con_s02_c03_boat_10_n02951358_10778.JPEG
subject-02,1,638,0.801145076751709,boat,boat,c50,0637_con_s02_c50_boat_10_n03344393_3661.JPEG
subject-02,1,639,0.94494104385376,bird,bear,c30,0638_con_s02_c30_bear_10_n02133161_10715.JPEG
subject-02,1,640,1.20812296867371,car,car,c30,0639_con_s02_c30_car_10_n03100240_15626.JPEG
subject-02,1,641,0.882230997085571,clock,dog,c01,0640_con_s02_c01_dog_10_n02109525_7937.JPEG
subject-02,1,642,0.726709127426147,bottle,bottle,c50,0641_con_s02_c50_bottle_10_n03983396_9662.JPEG
subject-02,1,643,1.07919907569885,oven,chair,c05,0642_con_s02_c05_chair_10_n02791124_424.JPEG
subject-02,1,644,0.869372129440308,cat,cat,c100,0643_con_s02_c100_cat_10_n02125311_23118.JPEG
subject-02,1,645,0.873775005340576,car,keyboard,c03,0644_con_s02_c03_keyboard_10_n03085013_20157.JPEG
subject-02,1,646,0.672472953796387,boat,bear,c01,0645_con_s02_c01_bear_10_n02133161_1739.JPEG
subject-02,1,647,0.570708990097046,clock,clock,c05,0646_con_s02_c05_clock_10_n04548280_1016.JPEG
subject-02,1,648,1.20623683929443,cat,dog,c05,0647_con_s02_c05_dog_10_n02105641_13348.JPEG
subject-02,1,649,0.858821153640747,chair,chair,c15,0648_con_s02_c15_chair_10_n02791124_3801.JPEG
subject-02,1,650,0.603289127349854,boat,boat,c15,0649_con_s02_c15_boat_10_n03344393_6209.JPEG
subject-02,1,651,1.26183009147644,dog,dog,c100,0650_con_s02_c100_dog_10_n02096294_8433.JPEG
subject-02,1,652,1.21416902542114,dog,oven,c03,0651_con_s02_c03_oven_10_n04111531_23046.JPEG
subject-02,1,653,0.688961982727051,bicycle,bicycle,c100,0652_con_s02_c100_bicycle_10_n02835271_1394.JPEG
subject-02,1,654,0.757622003555298,oven,oven,c15,0653_con_s02_c15_oven_10_n04111531_20359.JPEG
subject-02,1,655,0.97812294960022,elephant,elephant,c10,0654_con_s02_c10_elephant_10_n02504013_6748.JPEG
subject-02,1,656,0.822719097137451,airplane,airplane,c100,0655_con_s02_c100_airplane_10_n02690373_7651.JPEG
subject-02,1,657,1.0532820224762,car,car,c10,0656_con_s02_c10_car_10_n03100240_8443.JPEG
subject-02,1,658,1.02006697654724,cat,bear,c50,0657_con_s02_c50_bear_10_n02134084_6271.JPEG
subject-02,1,659,1.09306502342224,airplane,airplane,c50,0658_con_s02_c50_airplane_10_n02690373_3753.JPEG
subject-02,1,660,0.899595022201538,boat,bear,c01,0659_con_s02_c01_bear_10_n02133161_9039.JPEG
subject-02,1,661,1.5002760887146,airplane,airplane,c30,0660_con_s02_c30_airplane_10_n02690373_9241.JPEG
subject-02,1,662,1.07288908958435,airplane,oven,c10,0661_con_s02_c10_oven_10_n04111531_19795.JPEG
subject-02,1,663,1.1173300743103,cat,cat,c15,0662_con_s02_c15_cat_10_n02125311_23426.JPEG
subject-02,1,664,1.16704797744751,elephant,elephant,c10,0663_con_s02_c10_elephant_10_n02504013_5749.JPEG
subject-02,1,665,1.18966317176819,oven,knife,c03,0664_con_s02_c03_knife_10_n03041632_42841.JPEG
subject-02,1,666,0.88017201423645,airplane,airplane,c50,0665_con_s02_c50_airplane_10_n02690373_5724.JPEG
subject-02,1,667,1.36056089401245,elephant,elephant,c10,0666_con_s02_c10_elephant_10_n02504013_1719.JPEG
subject-02,1,668,1.16722011566162,chair,chair,c15,0667_con_s02_c15_chair_10_n02791124_60.JPEG
subject-02,1,669,NaN,na,dog,c100,0668_con_s02_c100_dog_10_n02091831_9616.JPEG
subject-02,1,670,1.39306879043579,airplane,knife,c03,0669_con_s02_c03_knife_10_n03041632_10777.JPEG
subject-02,1,671,0.645718097686768,car,car,c50,0670_con_s02_c50_car_10_n02814533_42278.JPEG
subject-02,1,672,1.2120521068573,boat,bicycle,c05,0671_con_s02_c05_bicycle_10_n02835271_232.JPEG
subject-02,1,673,1.37263488769531,bear,bear,c100,0672_con_s02_c100_bear_10_n02134418_2162.JPEG
subject-02,1,674,1.15500497817993,elephant,elephant,c15,0673_con_s02_c15_elephant_10_n02504458_2135.JPEG
subject-02,1,675,1.35363698005676,oven,bird,c10,0674_con_s02_c10_bird_10_n02018795_6671.JPEG
subject-02,1,676,1.00330305099487,dog,dog,c50,0675_con_s02_c50_dog_10_n02099429_5556.JPEG
subject-02,1,677,0.64146614074707,oven,oven,c100,0676_con_s02_c100_oven_10_n04111531_8009.JPEG
subject-02,1,678,0.93277382850647,truck,truck,c100,0677_con_s02_c100_truck_10_n04467665_3500.JPEG
subject-02,1,679,1.39106178283691,dog,bear,c30,0678_con_s02_c30_bear_10_n02133161_11754.JPEG
subject-02,1,680,0.65208101272583,clock,clock,c100,0679_con_s02_c100_clock_10_n03196217_4232.JPEG
subject-02,1,681,1.33442807197571,bird,bird,c50,0680_con_s02_c50_bird_10_n01855672_5956.JPEG
subject-02,1,682,1.0330069065094,boat,bird,c03,0681_con_s02_c03_bird_10_n01820546_20883.JPEG
subject-02,1,683,0.853463888168335,cat,dog,c10,0682_con_s02_c10_dog_10_n02090622_8753.JPEG
subject-02,1,684,1.00596809387207,bottle,bottle,c30,0683_con_s02_c30_bottle_10_n04579145_110.JPEG
subject-02,1,685,0.942178010940552,cat,cat,c01,0684_con_s02_c01_cat_10_n02123045_7770.JPEG
subject-02,1,686,0.902801036834717,car,car,c50,0685_con_s02_c50_car_10_n02814533_68178.JPEG
subject-02,1,687,0.831579923629761,car,truck,c01,0686_con_s02_c01_truck_10_n03417042_18722.JPEG
subject-02,1,688,0.876404047012329,cat,bottle,c100,0687_con_s02_c100_bottle_10_n03983396_20368.JPEG
subject-02,1,689,0.612718820571899,cat,keyboard,c01,0688_con_s02_c01_keyboard_10_n03085013_24223.JPEG
subject-02,1,690,0.731980800628662,boat,knife,c10,0689_con_s02_c10_knife_10_n03041632_83472.JPEG
subject-02,1,691,0.667939901351929,oven,bird,c01,0690_con_s02_c01_bird_10_n01833805_8820.JPEG
subject-02,1,692,1.12662291526794,knife,knife,c50,0691_con_s02_c50_knife_10_n03041632_15431.JPEG
subject-02,1,693,0.923985004425049,elephant,elephant,c10,0692_con_s02_c10_elephant_10_n02504458_2086.JPEG
subject-02,1,694,NaN,na,dog,c15,0693_con_s02_c15_dog_10_n02088094_11745.JPEG
subject-02,1,695,1.12703704833984,airplane,bottle,c05,0694_con_s02_c05_bottle_10_n03937543_512.JPEG
subject-02,1,696,0.854568958282471,knife,knife,c30,0695_con_s02_c30_knife_10_n03041632_25512.JPEG
subject-02,1,697,1.11240983009338,chair,clock,c05,0696_con_s02_c05_clock_10_n02708093_852.JPEG
subject-02,1,698,0.751388072967529,airplane,airplane,c30,0697_con_s02_c30_airplane_10_n02690373_4552.JPEG
subject-02,1,699,1.38003301620483,airplane,cat,c03,0698_con_s02_c03_cat_10_n02125311_23201.JPEG
subject-02,1,700,0.76235294342041,knife,knife,c15,0699_con_s02_c15_knife_10_n03041632_29355.JPEG
subject-02,1,701,0.876881122589111,car,keyboard,c05,0700_con_s02_c05_keyboard_10_n04505470_4061.JPEG
subject-02,1,702,1.11845302581787,airplane,oven,c05,0701_con_s02_c05_oven_10_n04111531_18520.JPEG
subject-02,1,703,1.38457894325256,truck,truck,c100,0702_con_s02_c100_truck_10_n03796401_2796.JPEG
subject-02,1,704,1.36676907539368,truck,bird,c01,0703_con_s02_c01_bird_10_n01843383_3333.JPEG
subject-02,1,705,0.804587125778198,oven,truck,c10,0704_con_s02_c10_truck_10_n03417042_1311.JPEG
subject-02,1,706,0.941040992736816,oven,cat,c05,0705_con_s02_c05_cat_10_n02123159_4496.JPEG
subject-02,1,707,0.778091907501221,clock,clock,c05,0706_con_s02_c05_clock_10_n04548280_5088.JPEG
subject-02,1,708,0.781954050064087,clock,clock,c05,0707_con_s02_c05_clock_10_n04548280_3994.JPEG
subject-02,1,709,0.742205858230591,boat,boat,c100,0708_con_s02_c100_boat_10_n03662601_12323.JPEG
subject-02,1,710,0.740527868270874,chair,chair,c10,0709_con_s02_c10_chair_10_n02791124_1557.JPEG
subject-02,1,711,1.16662192344666,car,car,c10,0710_con_s02_c10_car_10_n04285008_11658.JPEG
subject-02,1,712,1.41057896614075,chair,oven,c50,0711_con_s02_c50_oven_10_n04111531_5792.JPEG
subject-02,1,713,0.793172121047974,boat,bicycle,c03,0712_con_s02_c03_bicycle_10_n02835271_19552.JPEG
subject-02,1,714,0.690590858459473,bear,bear,c15,0713_con_s02_c15_bear_10_n02134084_7077.JPEG
subject-02,1,715,1.0032970905304,bear,dog,c50,0714_con_s02_c50_dog_10_n02111129_2908.JPEG
subject-02,1,716,0.74194598197937,clock,clock,c30,0715_con_s02_c30_clock_10_n03196217_7634.JPEG
subject-02,1,717,1.41344118118286,bicycle,bicycle,c30,0716_con_s02_c30_bicycle_10_n02835271_5602.JPEG
subject-02,1,718,1.10469508171082,bird,bird,c100,0717_con_s02_c100_bird_10_n01818515_12405.JPEG
subject-02,1,719,0.870085000991821,car,car,c05,0718_con_s02_c05_car_10_n04285008_1809.JPEG
subject-02,1,720,1.14437103271484,car,elephant,c05,0719_con_s02_c05_elephant_10_n02504458_1271.JPEG
subject-02,1,721,1.34285712242126,truck,truck,c15,0720_con_s02_c15_truck_10_n03417042_6467.JPEG
subject-02,1,722,0.994966983795166,boat,chair,c05,0721_con_s02_c05_chair_10_n02791124_11512.JPEG
subject-02,1,723,1.0075569152832,keyboard,keyboard,c10,0722_con_s02_c10_keyboard_10_n03085013_24522.JPEG
subject-02,1,724,0.814296007156372,keyboard,dog,c01,0723_con_s02_c01_dog_10_n02109525_66480.JPEG
subject-02,1,725,1.43469190597534,cat,bird,c50,0724_con_s02_c50_bird_10_n01855032_7988.JPEG
subject-02,1,726,0.848282098770142,cat,bird,c10,0725_con_s02_c10_bird_10_n02006656_28226.JPEG
subject-02,1,727,0.709536075592041,bicycle,bicycle,c50,0726_con_s02_c50_bicycle_10_n02835271_22977.JPEG
subject-02,1,728,0.791061878204346,keyboard,keyboard,c50,0727_con_s02_c50_keyboard_10_n03085013_5054.JPEG
subject-02,1,729,1.21154499053955,keyboard,clock,c03,0728_con_s02_c03_clock_10_n04548280_8277.JPEG
subject-02,1,730,0.801877975463867,cat,cat,c15,0729_con_s02_c15_cat_10_n02124075_2068.JPEG
subject-02,1,731,0.638169050216675,boat,boat,c50,0730_con_s02_c50_boat_10_n03662601_20834.JPEG
subject-02,1,732,1.32088303565979,boat,knife,c03,0731_con_s02_c03_knife_10_n03041632_4279.JPEG
subject-02,1,733,0.619229793548584,cat,cat,c50,0732_con_s02_c50_cat_10_n02123045_9364.JPEG
subject-02,1,734,0.796365976333618,boat,truck,c03,0733_con_s02_c03_truck_10_n04467665_4422.JPEG
subject-02,1,735,0.631944179534912,car,car,c30,0734_con_s02_c30_car_10_n02814533_15976.JPEG
subject-02,1,736,NaN,na,knife,c100,0735_con_s02_c100_knife_10_n03041632_33268.JPEG
subject-02,1,737,1.01748514175415,airplane,cat,c05,0736_con_s02_c05_cat_10_n02123394_9032.JPEG
subject-02,1,738,1.13008904457092,knife,clock,c01,0737_con_s02_c01_clock_10_n02708093_2898.JPEG
subject-02,1,739,0.644803047180176,cat,dog,c50,0738_con_s02_c50_dog_10_n02110185_2946.JPEG
subject-02,1,740,0.994940042495728,knife,knife,c100,0739_con_s02_c100_knife_10_n03041632_28658.JPEG
subject-02,1,741,1.24774503707886,knife,bottle,c01,0740_con_s02_c01_bottle_10_n04557648_3653.JPEG
subject-02,1,742,1.0080771446228,knife,elephant,c03,0741_con_s02_c03_elephant_10_n02504013_7474.JPEG
subject-02,1,743,0.744493961334229,bottle,bottle,c30,0742_con_s02_c30_bottle_10_n02823428_3486.JPEG
subject-02,1,744,1.15663599967957,boat,clock,c01,0743_con_s02_c01_clock_10_n03196217_4879.JPEG
subject-02,1,745,0.83819580078125,bottle,bottle,c10,0744_con_s02_c10_bottle_10_n04591713_995.JPEG
subject-02,1,746,0.904681921005249,car,car,c03,0745_con_s02_c03_car_10_n02814533_34396.JPEG
subject-02,1,747,1.13310384750366,knife,knife,c10,0746_con_s02_c10_knife_10_n03041632_13478.JPEG
subject-02,1,748,0.825627088546753,bird,bird,c50,0747_con_s02_c50_bird_10_n01820546_322.JPEG
subject-02,1,749,0.878342151641846,boat,boat,c10,0748_con_s02_c10_boat_10_n04273569_28989.JPEG
subject-02,1,750,0.79874587059021,chair,chair,c50,0749_con_s02_c50_chair_10_n03376595_3912.JPEG
subject-02,1,751,1.13510394096375,chair,elephant,c01,0750_con_s02_c01_elephant_10_n02504013_494.JPEG
subject-02,1,752,0.930853843688965,bird,bird,c30,0751_con_s02_c30_bird_10_n02028035_10657.JPEG
subject-02,1,753,1.11397790908813,bird,boat,c03,0752_con_s02_c03_boat_10_n03344393_4701.JPEG
subject-02,1,754,0.630388021469116,bicycle,bicycle,c15,0753_con_s02_c15_bicycle_10_n03792782_50737.JPEG
subject-02,1,755,0.956717014312744,bicycle,oven,c03,0754_con_s02_c03_oven_10_n04111531_6756.JPEG
subject-02,1,756,0.955121994018555,airplane,airplane,c03,0755_con_s02_c03_airplane_10_n02690373_4964.JPEG
subject-02,1,757,0.690834045410156,boat,boat,c15,0756_con_s02_c15_boat_10_n04612504_9393.JPEG
subject-02,1,758,0.889333963394165,airplane,airplane,c15,0757_con_s02_c15_airplane_10_n02690373_4691.JPEG
subject-02,1,759,1.00146102905273,airplane,clock,c10,0758_con_s02_c10_clock_10_n02708093_6795.JPEG
subject-02,1,760,0.867856025695801,dog,dog,c100,0759_con_s02_c100_dog_10_n02093428_13699.JPEG
subject-02,1,761,0.766373872756958,car,car,c50,0760_con_s02_c50_car_10_n03100240_20584.JPEG
subject-02,1,762,0.743129968643188,clock,clock,c03,0761_con_s02_c03_clock_10_n04548280_7826.JPEG
subject-02,1,763,0.739662885665894,clock,chair,c05,0762_con_s02_c05_chair_10_n02791124_1774.JPEG
subject-02,1,764,1.50021600723267,bear,bear,c10,0763_con_s02_c10_bear_10_n02133161_1184.JPEG
subject-02,1,765,0.873934984207153,bear,dog,c01,0764_con_s02_c01_dog_10_n02092002_9985.JPEG
subject-02,1,766,1.22969007492065,dog,dog,c100,0765_con_s02_c100_dog_10_n02093991_4336.JPEG
subject-02,1,767,1.08207893371582,car,truck,c10,0766_con_s02_c10_truck_10_n04467665_58158.JPEG
subject-02,1,768,0.78869104385376,car,truck,c01,0767_con_s02_c01_truck_10_n03417042_9580.JPEG
subject-02,1,769,0.918905973434448,cat,keyboard,c03,0768_con_s02_c03_keyboard_10_n04505470_4537.JPEG
subject-02,1,770,1.50036907196045,dog,bear,c15,0769_con_s02_c15_bear_10_n02133161_13566.JPEG
subject-02,1,771,1.18943905830383,dog,chair,c01,0770_con_s02_c01_chair_10_n02791124_15869.JPEG
subject-02,1,772,1.03379702568054,keyboard,keyboard,c100,0771_con_s02_c100_keyboard_10_n03085013_24489.JPEG
subject-02,1,773,1.20764088630676,bottle,bottle,c10,0772_con_s02_c10_bottle_10_n04579145_5979.JPEG
subject-02,1,774,0.706315040588379,boat,boat,c10,0773_con_s02_c10_boat_10_n04273569_30203.JPEG
subject-02,1,775,0.650727033615112,boat,knife,c01,0774_con_s02_c01_knife_10_n03041632_56217.JPEG
subject-02,1,776,0.586277008056641,boat,bicycle,c01,0775_con_s02_c01_bicycle_10_n03792782_1955.JPEG
subject-02,1,777,1.17494010925293,bear,bear,c30,0776_con_s02_c30_bear_10_n02134418_3833.JPEG
subject-02,1,778,0.919069051742554,keyboard,keyboard,c50,0777_con_s02_c50_keyboard_10_n04505470_10337.JPEG
subject-02,1,779,0.959652900695801,chair,chair,c10,0778_con_s02_c10_chair_10_n02791124_10287.JPEG
subject-02,1,780,0.941109180450439,bear,bear,c10,0779_con_s02_c10_bear_10_n02133161_15374.JPEG
subject-02,1,781,1.03150010108948,bear,keyboard,c01,0780_con_s02_c01_keyboard_10_n03085013_18830.JPEG
subject-02,1,782,0.746297121047974,bear,bird,c03,0781_con_s02_c03_bird_10_n01558993_14082.JPEG
subject-02,1,783,0.858644962310791,bear,clock,c01,0782_con_s02_c01_clock_10_n03196217_11054.JPEG
subject-02,1,784,0.864921092987061,bear,clock,c03,0783_con_s02_c03_clock_10_n02708093_6595.JPEG
subject-02,1,785,0.869530916213989,boat,bicycle,c30,0784_con_s02_c30_bicycle_10_n03792782_10698.JPEG
subject-02,1,786,0.775518894195557,oven,oven,c100,0785_con_s02_c100_oven_10_n04111531_10336.JPEG
subject-02,1,787,0.749252080917358,oven,truck,c50,0786_con_s02_c50_truck_10_n03417042_14579.JPEG
subject-02,1,788,0.915879011154175,boat,boat,c15,0787_con_s02_c15_boat_10_n04612504_11661.JPEG
subject-02,1,789,0.828094959259033,boat,keyboard,c03,0788_con_s02_c03_keyboard_10_n03085013_18850.JPEG
subject-02,1,790,0.8645920753479,boat,bird,c30,0789_con_s02_c30_bird_10_n01592084_7528.JPEG
subject-02,1,791,0.586658000946045,boat,bottle,c01,0790_con_s02_c01_bottle_10_n04557648_5483.JPEG
subject-02,1,792,0.591641187667847,boat,keyboard,c05,0791_con_s02_c05_keyboard_10_n03085013_6834.JPEG
subject-02,1,793,1.07398414611816,elephant,elephant,c100,0792_con_s02_c100_elephant_10_n02504458_8341.JPEG
subject-02,1,794,1.17824721336365,elephant,oven,c03,0793_con_s02_c03_oven_10_n04111531_10093.JPEG
subject-02,1,795,0.946820020675659,elephant,car,c01,0794_con_s02_c01_car_10_n04285008_5788.JPEG
subject-02,1,796,1.29749798774719,elephant,oven,c03,0795_con_s02_c03_oven_10_n04111531_4332.JPEG
subject-02,1,797,0.96587610244751,elephant,elephant,c01,0796_con_s02_c01_elephant_10_n02504013_848.JPEG
subject-02,1,798,0.702427864074707,boat,boat,c05,0797_con_s02_c05_boat_10_n03662601_27589.JPEG
subject-02,1,799,0.750771999359131,chair,chair,c30,0798_con_s02_c30_chair_10_n02791124_4728.JPEG
subject-02,1,800,1.27858018875122,elephant,elephant,c15,0799_con_s02_c15_elephant_10_n02504458_5592.JPEG
subject-02,1,801,1.35121893882751,cat,cat,c10,0800_con_s02_c10_cat_10_n02123597_9648.JPEG
subject-02,1,802,1.31171107292175,boat,keyboard,c05,0801_con_s02_c05_keyboard_10_n03085013_2464.JPEG
subject-02,1,803,0.680320978164673,boat,knife,c01,0802_con_s02_c01_knife_10_n03041632_34769.JPEG
subject-02,1,804,0.800199031829834,airplane,airplane,c100,0803_con_s02_c100_airplane_10_n02690373_7676.JPEG
subject-02,1,805,0.890807867050171,airplane,elephant,c03,0804_con_s02_c03_elephant_10_n02504458_6736.JPEG
subject-02,1,806,0.902366876602173,chair,oven,c10,0805_con_s02_c10_oven_10_n04111531_2023.JPEG
subject-02,1,807,0.76041316986084,chair,chair,c10,0806_con_s02_c10_chair_10_n04429376_7050.JPEG
subject-02,1,808,1.08102107048035,chair,cat,c03,0807_con_s02_c03_cat_10_n02123394_1953.JPEG
subject-02,1,809,1.079421043396,chair,bear,c03,0808_con_s02_c03_bear_10_n02134084_16190.JPEG
subject-02,1,810,1.27779984474182,dog,dog,c100,0809_con_s02_c100_dog_10_n02091032_6131.JPEG
subject-02,1,811,0.722209930419922,boat,boat,c50,0810_con_s02_c50_boat_10_n03662601_10297.JPEG
subject-02,1,812,1.01281499862671,bird,bird,c50,0811_con_s02_c50_bird_10_n01817953_654.JPEG
subject-02,1,813,1.37945485115051,bottle,bottle,c15,0812_con_s02_c15_bottle_10_n04591713_7675.JPEG
subject-02,1,814,1.07788491249084,oven,oven,c15,0813_con_s02_c15_oven_10_n04111531_14269.JPEG
subject-02,1,815,0.960551977157593,oven,bear,c03,0814_con_s02_c03_bear_10_n02132136_22545.JPEG
subject-02,1,816,0.651034832000732,oven,dog,c01,0815_con_s02_c01_dog_10_n02113023_12511.JPEG
subject-02,1,817,1.32334804534912,bottle,bottle,c10,0816_con_s02_c10_bottle_10_n03937543_2859.JPEG
subject-02,1,818,1.48371887207031,dog,bear,c100,0817_con_s02_c100_bear_10_n02132136_1909.JPEG
subject-02,1,819,0.789752960205078,boat,bottle,c100,0818_con_s02_c100_bottle_10_n03937543_5896.JPEG
subject-02,1,820,0.648406982421875,clock,clock,c100,0819_con_s02_c100_clock_10_n02708093_7901.JPEG
subject-02,1,821,0.722765207290649,clock,car,c05,0820_con_s02_c05_car_10_n04285008_33.JPEG
subject-02,1,822,0.799730062484741,clock,boat,c03,0821_con_s02_c03_boat_10_n04612504_36022.JPEG
subject-02,1,823,0.673880100250244,clock,chair,c03,0822_con_s02_c03_chair_10_n04429376_5767.JPEG
subject-02,1,824,1.14889216423035,clock,dog,c05,0823_con_s02_c05_dog_10_n02109047_17524.JPEG
subject-02,1,825,0.801483154296875,bottle,bottle,c100,0824_con_s02_c100_bottle_10_n03983396_704.JPEG
subject-02,1,826,0.675528049468994,airplane,airplane,c05,0825_con_s02_c05_airplane_10_n02690373_8670.JPEG
subject-02,1,827,1.25602698326111,oven,oven,c50,0826_con_s02_c50_oven_10_n04111531_11225.JPEG
subject-02,1,828,0.992700099945068,truck,truck,c100,0827_con_s02_c100_truck_10_n03417042_8630.JPEG
subject-02,1,829,0.929312944412231,boat,oven,c50,0828_con_s02_c50_oven_10_n04111531_283.JPEG
subject-02,1,830,1.39583206176758,airplane,boat,c05,0829_con_s02_c05_boat_10_n04273569_3814.JPEG
subject-02,1,831,1.04340195655823,airplane,elephant,c05,0830_con_s02_c05_elephant_10_n02504458_43.JPEG
subject-02,1,832,0.685122013092041,bottle,bottle,c15,0831_con_s02_c15_bottle_10_n03937543_4863.JPEG
subject-02,1,833,0.708242893218994,bottle,dog,c10,0832_con_s02_c10_dog_10_n02086079_8641.JPEG
subject-02,1,834,1.06661200523376,elephant,bear,c30,0833_con_s02_c30_bear_10_n02133161_6896.JPEG
subject-02,1,835,0.819088935852051,bird,bird,c10,0834_con_s02_c10_bird_10_n02037110_5215.JPEG
subject-02,1,836,1.36980986595154,dog,dog,c15,0835_con_s02_c15_dog_10_n02093754_4125.JPEG
subject-02,1,837,1.40628910064697,dog,dog,c50,0836_con_s02_c50_dog_10_n02094433_6199.JPEG
subject-02,1,838,0.818572044372559,knife,knife,c10,0837_con_s02_c10_knife_10_n03041632_11969.JPEG
subject-02,1,839,1.16326713562012,keyboard,keyboard,c30,0838_con_s02_c30_keyboard_10_n04505470_2792.JPEG
subject-02,1,840,0.965804100036621,bird,cat,c05,0839_con_s02_c05_cat_10_n02123597_3036.JPEG
subject-02,1,841,0.718348026275635,airplane,airplane,c30,0840_con_s02_c30_airplane_10_n02690373_7281.JPEG
subject-02,1,842,0.89281702041626,airplane,car,c01,0841_con_s02_c01_car_10_n03100240_2667.JPEG
subject-02,1,843,1.15936589241028,airplane,car,c03,0842_con_s02_c03_car_10_n04285008_4763.JPEG
subject-02,1,844,0.689739942550659,bicycle,bicycle,c10,0843_con_s02_c10_bicycle_10_n02835271_696.JPEG
subject-02,1,845,0.734410047531128,bicycle,car,c01,0844_con_s02_c01_car_10_n03100240_3214.JPEG
subject-02,1,846,0.924928188323975,bird,bird,c100,0845_con_s02_c100_bird_10_n01860187_8632.JPEG
subject-02,1,847,1.01365900039673,truck,truck,c05,0846_con_s02_c05_truck_10_n04467665_21087.JPEG
subject-02,1,848,1.39502000808716,truck,keyboard,c01,0847_con_s02_c01_keyboard_10_n04505470_2093.JPEG
subject-02,1,849,1.02374005317688,bird,bird,c05,0848_con_s02_c05_bird_10_n01614925_9149.JPEG
subject-02,1,850,NaN,na,airplane,c05,0849_con_s02_c05_airplane_10_n02690373_3272.JPEG
subject-02,1,851,NaN,na,bottle,c15,0850_con_s02_c15_bottle_10_n03983396_5939.JPEG
subject-02,1,852,0.686675071716309,boat,boat,c05,0851_con_s02_c05_boat_10_n02951358_29334.JPEG
subject-02,1,853,0.966708183288574,boat,clock,c03,0852_con_s02_c03_clock_10_n02708093_7973.JPEG
subject-02,1,854,0.513407945632935,boat,bear,c01,0853_con_s02_c01_bear_10_n02134418_4460.JPEG
subject-02,1,855,0.76312518119812,boat,knife,c05,0854_con_s02_c05_knife_10_n03041632_7680.JPEG
subject-02,1,856,1.13531994819641,elephant,elephant,c30,0855_con_s02_c30_elephant_10_n02504458_298.JPEG
subject-02,1,857,0.827676057815552,truck,truck,c10,0856_con_s02_c10_truck_10_n03796401_30081.JPEG
subject-02,1,858,0.978132963180542,truck,cat,c01,0857_con_s02_c01_cat_10_n02124075_5183.JPEG
subject-02,1,859,0.954470872879028,truck,oven,c05,0858_con_s02_c05_oven_10_n04111531_1220.JPEG
subject-02,1,860,1.03727006912231,dog,dog,c30,0859_con_s02_c30_dog_10_n02092339_1830.JPEG
subject-02,1,861,0.84968113899231,chair,chair,c100,0860_con_s02_c100_chair_10_n02791124_3484.JPEG
subject-02,1,862,1.17823505401611,chair,knife,c10,0861_con_s02_c10_knife_10_n03041632_24950.JPEG
subject-02,1,863,0.89412784576416,truck,truck,c50,0862_con_s02_c50_truck_10_n04467665_63788.JPEG
subject-02,1,864,NaN,na,bear,c03,0863_con_s02_c03_bear_10_n02133161_1356.JPEG
subject-02,1,865,0.847095012664795,keyboard,keyboard,c10,0864_con_s02_c10_keyboard_10_n03085013_24794.JPEG
subject-02,1,866,1.29740619659424,dog,bear,c05,0865_con_s02_c05_bear_10_n02134084_22092.JPEG
subject-02,1,867,1.07141780853271,bear,elephant,c50,0866_con_s02_c50_elephant_10_n02504013_3810.JPEG
subject-02,1,868,1.0620698928833,bear,airplane,c01,0867_con_s02_c01_airplane_10_n02690373_18845.JPEG
subject-02,1,869,1.0284469127655,knife,knife,c10,0868_con_s02_c10_knife_10_n03041632_34676.JPEG
subject-02,1,870,1.02692604064941,knife,oven,c03,0869_con_s02_c03_oven_10_n04111531_1818.JPEG
subject-02,1,871,0.987958908081055,knife,keyboard,c03,0870_con_s02_c03_keyboard_10_n03085013_21558.JPEG
subject-02,1,872,0.900047063827515,bicycle,bicycle,c50,0871_con_s02_c50_bicycle_10_n02835271_20099.JPEG
subject-02,1,873,0.806726932525635,bottle,bottle,c15,0872_con_s02_c15_bottle_10_n04560804_14135.JPEG
subject-02,1,874,1.235191822052,cat,dog,c30,0873_con_s02_c30_dog_10_n02111500_2439.JPEG
subject-02,1,875,0.979737043380737,clock,clock,c100,0874_con_s02_c100_clock_10_n04548280_7794.JPEG
subject-02,1,876,0.769844055175781,clock,keyboard,c03,0875_con_s02_c03_keyboard_10_n04505470_4666.JPEG
subject-02,1,877,1.17416191101074,dog,dog,c15,0876_con_s02_c15_dog_10_n02091032_11270.JPEG
subject-02,1,878,0.9426589012146,car,car,c30,0877_con_s02_c30_car_10_n02814533_81246.JPEG
subject-02,1,879,1.00137805938721,oven,chair,c05,0878_con_s02_c05_chair_10_n03376595_5909.JPEG
subject-02,1,880,0.739786863327026,boat,bicycle,c10,0879_con_s02_c10_bicycle_10_n03792782_22057.JPEG
subject-02,1,881,0.786070108413696,oven,knife,c30,0880_con_s02_c30_knife_10_n03041632_42526.JPEG
subject-02,1,882,0.650658130645752,bicycle,bicycle,c30,0881_con_s02_c30_bicycle_10_n03792782_12751.JPEG
subject-02,1,883,0.955268859863281,clock,bottle,c03,0882_con_s02_c03_bottle_10_n04557648_9378.JPEG
subject-02,1,884,0.761940002441406,boat,boat,c05,0883_con_s02_c05_boat_10_n03662601_10466.JPEG
subject-02,1,885,0.590365886688232,boat,bicycle,c30,0884_con_s02_c30_bicycle_10_n03792782_15459.JPEG
subject-02,1,886,0.542704105377197,boat,truck,c03,0885_con_s02_c03_truck_10_n03417042_7547.JPEG
subject-02,1,887,1.06300401687622,chair,chair,c10,0886_con_s02_c10_chair_10_n02791124_6647.JPEG
subject-02,1,888,0.745913982391357,bicycle,bicycle,c30,0887_con_s02_c30_bicycle_10_n03792782_24085.JPEG
subject-02,1,889,1.46457195281982,bear,bear,c100,0888_con_s02_c100_bear_10_n02132136_783.JPEG
subject-02,1,890,1.03333282470703,bird,bird,c100,0889_con_s02_c100_bird_10_n02033041_5386.JPEG
subject-02,1,891,0.763674020767212,cat,bird,c03,0890_con_s02_c03_bird_10_n01833805_598.JPEG
subject-02,1,892,0.754250049591064,airplane,airplane,c15,0891_con_s02_c15_airplane_10_n02690373_7115.JPEG
subject-02,1,893,0.875020027160645,airplane,truck,c03,0892_con_s02_c03_truck_10_n03417042_17865.JPEG
subject-02,1,894,0.995477914810181,truck,truck,c30,0893_con_s02_c30_truck_10_n03417042_9152.JPEG
subject-02,1,895,1.17792105674744,clock,knife,c50,0894_con_s02_c50_knife_10_n03041632_2390.JPEG
subject-02,1,896,1.31213521957397,elephant,elephant,c50,0895_con_s02_c50_elephant_10_n02504013_2432.JPEG
subject-02,1,897,1.24792814254761,bird,bird,c15,0896_con_s02_c15_bird_10_n02002556_5222.JPEG
subject-02,1,898,0.654757022857666,boat,boat,c30,0897_con_s02_c30_boat_10_n04273569_15138.JPEG
subject-02,1,899,1.24732089042664,bird,airplane,c05,0898_con_s02_c05_airplane_10_n02690373_4269.JPEG
subject-02,1,900,0.823991060256958,boat,boat,c10,0899_con_s02_c10_boat_10_n03344393_6821.JPEG
subject-02,1,901,1.14357399940491,dog,cat,c03,0900_con_s02_c03_cat_10_n02124075_12286.JPEG
subject-02,1,902,0.687931060791016,chair,chair,c30,0901_con_s02_c30_chair_10_n02791124_821.JPEG
subject-02,1,903,0.654769897460938,cat,cat,c30,0902_con_s02_c30_cat_10_n02123159_5367.JPEG
subject-02,1,904,1.02110290527344,cat,elephant,c15,0903_con_s02_c15_elephant_10_n02504458_209.JPEG
subject-02,1,905,0.711536169052124,cat,dog,c03,0904_con_s02_c03_dog_10_n02096585_6650.JPEG
subject-02,1,906,0.671849012374878,airplane,airplane,c10,0905_con_s02_c10_airplane_10_n02690373_1986.JPEG
subject-02,1,907,0.944200038909912,airplane,car,c03,0906_con_s02_c03_car_10_n03100240_189.JPEG
subject-02,1,908,0.812731981277466,airplane,airplane,c50,0907_con_s02_c50_airplane_10_n02690373_8804.JPEG
subject-02,1,909,0.664927959442139,chair,chair,c05,0908_con_s02_c05_chair_10_n04099969_16512.JPEG
subject-02,1,910,0.861384868621826,chair,chair,c01,0909_con_s02_c01_chair_10_n04099969_12653.JPEG
subject-02,1,911,0.864970922470093,bottle,bottle,c05,0910_con_s02_c05_bottle_10_n02823428_12086.JPEG
subject-02,1,912,1.50009298324585,clock,clock,c30,0911_con_s02_c30_clock_10_n02708093_1134.JPEG
subject-02,1,913,1.1601231098175,chair,keyboard,c03,0912_con_s02_c03_keyboard_10_n03085013_19303.JPEG
subject-02,1,914,0.882827043533325,chair,cat,c01,0913_con_s02_c01_cat_10_n02123597_5692.JPEG
subject-02,1,915,1.03365302085876,car,truck,c30,0914_con_s02_c30_truck_10_n04467665_31090.JPEG
subject-02,1,916,0.809806823730469,boat,truck,c03,0915_con_s02_c03_truck_10_n04467665_35490.JPEG
subject-02,1,917,0.684159994125366,boat,oven,c03,0916_con_s02_c03_oven_10_n04111531_18223.JPEG
subject-02,1,918,0.742070913314819,elephant,elephant,c30,0917_con_s02_c30_elephant_10_n02504458_6097.JPEG
subject-02,1,919,0.982651948928833,bird,bear,c05,0918_con_s02_c05_bear_10_n02132136_10496.JPEG
subject-02,1,920,1.4032678604126,airplane,oven,c03,0919_con_s02_c03_oven_10_n04111531_13128.JPEG
subject-02,1,921,1.42384600639343,bird,bird,c10,0920_con_s02_c10_bird_10_n01622779_1803.JPEG
subject-02,1,922,0.846168994903564,airplane,airplane,c10,0921_con_s02_c10_airplane_10_n02690373_2408.JPEG
subject-02,1,923,0.635767936706543,clock,clock,c30,0922_con_s02_c30_clock_10_n04548280_5269.JPEG
subject-02,1,924,1.19970488548279,truck,truck,c50,0923_con_s02_c50_truck_10_n03796401_3486.JPEG
subject-02,1,925,0.752386093139648,clock,bottle,c03,0924_con_s02_c03_bottle_10_n02823428_4646.JPEG
subject-02,1,926,0.774751901626587,clock,clock,c05,0925_con_s02_c05_clock_10_n03196217_7012.JPEG
subject-02,1,927,0.670833826065063,airplane,airplane,c15,0926_con_s02_c15_airplane_10_n02690373_1442.JPEG
subject-02,1,928,0.778438806533813,bear,bear,c30,0927_con_s02_c30_bear_10_n02132136_5715.JPEG
subject-02,1,929,0.74465012550354,bicycle,bicycle,c50,0928_con_s02_c50_bicycle_10_n03792782_34545.JPEG
subject-02,1,930,1.00500798225403,bicycle,airplane,c03,0929_con_s02_c03_airplane_10_n02690373_6031.JPEG
subject-02,1,931,1.0096549987793,car,car,c100,0930_con_s02_c100_car_10_n04285008_12919.JPEG
subject-02,1,932,1.27569699287415,car,elephant,c01,0931_con_s02_c01_elephant_10_n02504013_7064.JPEG
subject-02,1,933,1.31253600120544,bird,bird,c15,0932_con_s02_c15_bird_10_n01828970_4711.JPEG
subject-02,1,934,1.28115487098694,bird,truck,c01,0933_con_s02_c01_truck_10_n04467665_40002.JPEG
subject-02,1,935,0.922960042953491,boat,oven,c15,0934_con_s02_c15_oven_10_n04111531_4988.JPEG
subject-02,1,936,0.930071115493774,bicycle,bicycle,c100,0935_con_s02_c100_bicycle_10_n02835271_10813.JPEG
subject-02,1,937,0.812200784683228,bottle,oven,c100,0936_con_s02_c100_oven_10_n04111531_14871.JPEG
subject-02,1,938,0.80243706703186,boat,keyboard,c30,0937_con_s02_c30_keyboard_10_n03085013_11110.JPEG
subject-02,1,939,0.83020281791687,car,car,c15,0938_con_s02_c15_car_10_n03100240_3969.JPEG
subject-02,1,940,1.27277898788452,chair,airplane,c01,0939_con_s02_c01_airplane_10_n02690373_4225.JPEG
subject-02,1,941,1.0393979549408,dog,dog,c50,0940_con_s02_c50_dog_10_n02085936_8458.JPEG
subject-02,1,942,1.13779091835022,cat,dog,c03,0941_con_s02_c03_dog_10_n02094258_6990.JPEG
subject-02,1,943,0.806189060211182,dog,bottle,c01,0942_con_s02_c01_bottle_10_n03937543_4362.JPEG
subject-02,1,944,0.818648815155029,car,keyboard,c03,0943_con_s02_c03_keyboard_10_n04505470_1118.JPEG
subject-02,1,945,1.00110387802124,cat,bird,c10,0944_con_s02_c10_bird_10_n01537544_8872.JPEG
subject-02,1,946,0.907871007919312,boat,bear,c50,0945_con_s02_c50_bear_10_n02133161_10925.JPEG
subject-02,1,947,0.682066917419434,keyboard,keyboard,c30,0946_con_s02_c30_keyboard_10_n04505470_5086.JPEG
subject-02,1,948,0.780050992965698,boat,boat,c15,0947_con_s02_c15_boat_10_n03662601_10236.JPEG
subject-02,1,949,0.930592060089111,bird,bird,c15,0948_con_s02_c15_bird_10_n02025239_3471.JPEG
subject-02,1,950,1.18295001983643,cat,bear,c50,0949_con_s02_c50_bear_10_n02133161_4960.JPEG
subject-02,1,951,0.956577062606812,car,car,c100,0950_con_s02_c100_car_10_n02814533_35279.JPEG
subject-02,1,952,0.785079002380371,car,car,c15,0951_con_s02_c15_car_10_n03100240_10953.JPEG
subject-02,1,953,1.17378211021423,car,elephant,c05,0952_con_s02_c05_elephant_10_n02504013_6865.JPEG
subject-02,1,954,0.682184934616089,car,chair,c01,0953_con_s02_c01_chair_10_n04099969_7571.JPEG
subject-02,1,955,0.956547975540161,elephant,elephant,c100,0954_con_s02_c100_elephant_10_n02504013_6127.JPEG
subject-02,1,956,1.00693297386169,clock,clock,c100,0955_con_s02_c100_clock_10_n02708093_1360.JPEG
subject-02,1,957,0.802459001541138,oven,oven,c15,0956_con_s02_c15_oven_10_n04111531_4549.JPEG
subject-02,1,958,0.594910860061646,oven,bicycle,c05,0957_con_s02_c05_bicycle_10_n02835271_17649.JPEG
subject-02,1,959,0.523046016693115,boat,boat,c100,0958_con_s02_c100_boat_10_n04273569_4613.JPEG
subject-02,1,960,0.927559852600098,bird,bird,c100,0959_con_s02_c100_bird_10_n01534433_9809.JPEG
subject-02,1,961,NaN,na,airplane,c100,0960_con_s02_c100_airplane_10_n02690373_2509.JPEG
subject-02,1,962,0.989911079406738,bottle,bottle,c100,0961_con_s02_c100_bottle_10_n03983396_10119.JPEG
subject-02,1,963,0.750519990921021,bottle,boat,c01,0962_con_s02_c01_boat_10_n03344393_7018.JPEG
subject-02,1,964,1.14580416679382,bird,bird,c15,0963_con_s02_c15_bird_10_n01560419_12411.JPEG
subject-02,1,965,1.31241297721863,airplane,airplane,c50,0964_con_s02_c50_airplane_10_n02690373_6491.JPEG
subject-02,1,966,0.981051921844482,car,car,c50,0965_con_s02_c50_car_10_n04285008_5321.JPEG
subject-02,1,967,1.01562118530273,bird,bird,c30,0966_con_s02_c30_bird_10_n01622779_22753.JPEG
subject-02,1,968,0.968113899230957,bird,knife,c01,0967_con_s02_c01_knife_10_n03041632_13194.JPEG
subject-02,1,969,0.582344055175781,clock,clock,c05,0968_con_s02_c05_clock_10_n02708093_204.JPEG
subject-02,1,970,0.865120887756348,knife,knife,c10,0969_con_s02_c10_knife_10_n03041632_33739.JPEG
subject-02,1,971,1.47493505477905,elephant,elephant,c10,0970_con_s02_c10_elephant_10_n02504458_3248.JPEG
subject-02,1,972,1.33571791648865,airplane,airplane,c05,0971_con_s02_c05_airplane_10_n02690373_3150.JPEG
subject-02,1,973,1.02600002288818,cat,cat,c100,0972_con_s02_c100_cat_10_n02123159_538.JPEG
subject-02,1,974,0.700767993927002,cat,bicycle,c10,0973_con_s02_c10_bicycle_10_n02835271_2815.JPEG
subject-02,1,975,0.890984058380127,boat,boat,c30,0974_con_s02_c30_boat_10_n04273569_12441.JPEG
subject-02,1,976,1.23283696174622,airplane,airplane,c10,0975_con_s02_c10_airplane_10_n02690373_3561.JPEG
subject-02,1,977,0.809773921966553,oven,chair,c15,0976_con_s02_c15_chair_10_n04429376_3248.JPEG
subject-02,1,978,0.959716081619263,oven,bottle,c50,0977_con_s02_c50_bottle_10_n04560804_15441.JPEG
subject-02,1,979,1.47238516807556,elephant,elephant,c50,0978_con_s02_c50_elephant_10_n02504013_1502.JPEG
subject-02,1,980,1.33824181556702,cat,dog,c03,0979_con_s02_c03_dog_10_n02102973_7371.JPEG
subject-02,1,981,1.14083313941956,dog,bicycle,c03,0980_con_s02_c03_bicycle_10_n03792782_70724.JPEG
subject-02,1,982,1.26136994361877,dog,truck,c03,0981_con_s02_c03_truck_10_n03796401_40.JPEG
subject-02,1,983,0.805907011032104,cat,cat,c30,0982_con_s02_c30_cat_10_n02123597_11492.JPEG
subject-02,1,984,0.625931978225708,car,car,c50,0983_con_s02_c50_car_10_n03100240_12065.JPEG
subject-02,1,985,0.67870306968689,clock,clock,c30,0984_con_s02_c30_clock_10_n03196217_5197.JPEG
subject-02,1,986,0.929376125335693,truck,truck,c30,0985_con_s02_c30_truck_10_n03796401_4791.JPEG
subject-02,1,987,1.17389988899231,truck,keyboard,c01,0986_con_s02_c01_keyboard_10_n03085013_23662.JPEG
subject-02,1,988,0.831457138061523,knife,knife,c100,0987_con_s02_c100_knife_10_n03041632_18995.JPEG
subject-02,1,989,0.843826770782471,clock,clock,c15,0988_con_s02_c15_clock_10_n03196217_7178.JPEG
subject-02,1,990,0.964411973953247,car,car,c50,0989_con_s02_c50_car_10_n03100240_9675.JPEG
subject-02,1,991,0.716815948486328,chair,chair,c30,0990_con_s02_c30_chair_10_n03376595_8964.JPEG
subject-02,1,992,0.921593904495239,chair,chair,c30,0991_con_s02_c30_chair_10_n02791124_4037.JPEG
subject-02,1,993,1.10371494293213,oven,oven,c100,0992_con_s02_c100_oven_10_n04111531_13801.JPEG
subject-02,1,994,1.22447514533997,airplane,oven,c05,0993_con_s02_c05_oven_10_n04111531_8077.JPEG
subject-02,1,995,1.2471718788147,boat,truck,c50,0994_con_s02_c50_truck_10_n04467665_25059.JPEG
subject-02,1,996,0.891752958297729,bird,bird,c15,0995_con_s02_c15_bird_10_n01819313_3638.JPEG
subject-02,1,997,1.3412880897522,truck,truck,c05,0996_con_s02_c05_truck_10_n03417042_3228.JPEG
subject-02,1,998,1.06978106498718,truck,cat,c05,0997_con_s02_c05_cat_10_n02123394_5180.JPEG
subject-02,1,999,0.806059122085571,bottle,bottle,c15,0998_con_s02_c15_bottle_10_n02823428_4727.JPEG
subject-02,1,1000,0.888956069946289,boat,boat,c15,0999_con_s02_c15_boat_10_n04612504_235.JPEG
subject-02,1,1001,0.665691137313843,boat,clock,c01,1000_con_s02_c01_clock_10_n03196217_2536.JPEG
subject-02,1,1002,0.700108051300049,boat,boat,c30,1001_con_s02_c30_boat_10_n03662601_10360.JPEG
subject-02,1,1003,0.958327054977417,dog,dog,c30,1002_con_s02_c30_dog_10_n02097298_9089.JPEG
subject-02,1,1004,0.964927196502686,dog,airplane,c03,1003_con_s02_c03_airplane_10_n02690373_4591.JPEG
subject-02,1,1005,0.985522031784058,keyboard,keyboard,c15,1004_con_s02_c15_keyboard_10_n04505470_4473.JPEG
subject-02,1,1006,1.11389684677124,elephant,elephant,c30,1005_con_s02_c30_elephant_10_n02504458_7512.JPEG
subject-02,1,1007,0.850353956222534,clock,clock,c15,1006_con_s02_c15_clock_10_n02708093_1701.JPEG
subject-02,1,1008,1.00897812843323,boat,boat,c50,1007_con_s02_c50_boat_10_n04612504_8284.JPEG
subject-02,1,1009,0.907705068588257,truck,truck,c10,1008_con_s02_c10_truck_10_n04467665_70844.JPEG
subject-02,1,1010,0.998495101928711,car,car,c05,1009_con_s02_c05_car_10_n02814533_40291.JPEG
subject-02,1,1011,0.94813084602356,chair,chair,c50,1010_con_s02_c50_chair_10_n04099969_10653.JPEG
subject-02,1,1012,1.32249188423157,chair,chair,c01,1011_con_s02_c01_chair_10_n04099969_13549.JPEG
subject-02,1,1013,NaN,na,dog,c30,1012_con_s02_c30_dog_10_n02105641_188.JPEG
subject-02,1,1014,0.765630960464478,airplane,airplane,c05,1013_con_s02_c05_airplane_10_n02690373_7536.JPEG
subject-02,1,1015,1.1540379524231,car,car,c10,1014_con_s02_c10_car_10_n04285008_4098.JPEG
subject-02,1,1016,0.938429117202759,bicycle,bicycle,c100,1015_con_s02_c100_bicycle_10_n03792782_1747.JPEG
subject-02,1,1017,1.21919918060303,airplane,airplane,c15,1016_con_s02_c15_airplane_10_n02690373_1732.JPEG
subject-02,1,1018,0.903501033782959,airplane,chair,c03,1017_con_s02_c03_chair_10_n04099969_18813.JPEG
subject-02,1,1019,0.978223085403442,cat,bear,c15,1018_con_s02_c15_bear_10_n02134084_4056.JPEG
subject-02,1,1020,0.914402961730957,dog,bicycle,c01,1019_con_s02_c01_bicycle_10_n02835271_2987.JPEG
subject-02,1,1021,0.84323787689209,car,car,c05,1020_con_s02_c05_car_10_n03100240_11566.JPEG
subject-02,1,1022,1.02267813682556,chair,oven,c05,1021_con_s02_c05_oven_10_n04111531_5570.JPEG
subject-02,1,1023,1.3731210231781,airplane,cat,c03,1022_con_s02_c03_cat_10_n02124075_15196.JPEG
subject-02,1,1024,0.895591974258423,airplane,dog,c01,1023_con_s02_c01_dog_10_n02097130_1052.JPEG
subject-02,1,1025,0.742341041564941,car,car,c10,1024_con_s02_c10_car_10_n04285008_13104.JPEG
subject-02,1,1026,0.624557971954346,car,car,c30,1025_con_s02_c30_car_10_n02814533_10069.JPEG
subject-02,1,1027,0.644788980484009,car,clock,c03,1026_con_s02_c03_clock_10_n03196217_3104.JPEG
subject-02,1,1028,0.740455150604248,bicycle,bicycle,c50,1027_con_s02_c50_bicycle_10_n03792782_17018.JPEG
subject-02,1,1029,0.784368991851807,bird,bird,c50,1028_con_s02_c50_bird_10_n01828970_10475.JPEG
subject-02,1,1030,0.707228899002075,bottle,bottle,c30,1029_con_s02_c30_bottle_10_n04560804_13861.JPEG
subject-02,1,1031,1.37890887260437,bird,elephant,c50,1030_con_s02_c50_elephant_10_n02504013_10580.JPEG
