subj,session,trial,rt,object_response,category,condition,imagename
subject-03,1,1,1.16327214241028,knife,knife,c05,0000_con_s03_c05_knife_10_n03041632_12130.JPEG
subject-03,1,2,1.12598395347595,cat,cat,c100,0001_con_s03_c100_cat_10_n02125311_9964.JPEG
subject-03,1,3,0.832468032836914,elephant,cat,c05,0002_con_s03_c05_cat_10_n02124075_7961.JPEG
subject-03,1,4,0.746991872787476,clock,dog,c01,0003_con_s03_c01_dog_10_n02110806_10630.JPEG
subject-03,1,5,0.823784112930298,car,car,c100,0004_con_s03_c100_car_10_n02814533_13612.JPEG
subject-03,1,6,1.29721188545227,knife,bicycle,c03,0005_con_s03_c03_bicycle_10_n02835271_2917.JPEG
subject-03,1,7,0.857582092285156,car,car,c10,0006_con_s03_c10_car_10_n02814533_58072.JPEG
subject-03,1,8,1.11006307601929,boat,boat,c100,0007_con_s03_c100_boat_10_n02951358_4939.JPEG
subject-03,1,9,0.639947891235352,airplane,airplane,c10,0008_con_s03_c10_airplane_10_n02690373_9.JPEG
subject-03,1,10,0.692445993423462,oven,airplane,c01,0009_con_s03_c01_airplane_10_n02690373_1986.JPEG
subject-03,1,11,0.920156002044678,knife,knife,c10,0010_con_s03_c10_knife_10_n03041632_87339.JPEG
subject-03,1,12,0.826416969299316,airplane,airplane,c30,0011_con_s03_c30_airplane_10_n02690373_8274.JPEG
subject-03,1,13,0.802657842636108,keyboard,car,c01,0012_con_s03_c01_car_10_n04285008_4760.JPEG
subject-03,1,14,NaN,na,airplane,c05,0013_con_s03_c05_airplane_10_n02690373_7401.JPEG
subject-03,1,15,0.921349048614502,airplane,airplane,c10,0014_con_s03_c10_airplane_10_n02690373_3988.JPEG
subject-03,1,16,1.4904990196228,cat,cat,c05,0015_con_s03_c05_cat_10_n02123159_12957.JPEG
subject-03,1,17,1.12063002586365,cat,cat,c03,0016_con_s03_c03_cat_10_n02124075_4559.JPEG
subject-03,1,18,0.727009057998657,boat,boat,c100,0017_con_s03_c100_boat_10_n03344393_5163.JPEG
subject-03,1,19,0.681684017181396,clock,bird,c03,0018_con_s03_c03_bird_10_n01820546_4054.JPEG
subject-03,1,20,0.763970136642456,keyboard,keyboard,c50,0019_con_s03_c50_keyboard_10_n03085013_15432.JPEG
subject-03,1,21,0.793872117996216,oven,oven,c15,0020_con_s03_c15_oven_10_n04111531_21896.JPEG
subject-03,1,22,0.72999095916748,clock,chair,c03,0021_con_s03_c03_chair_10_n03376595_10293.JPEG
subject-03,1,23,0.744547128677368,boat,clock,c01,0022_con_s03_c01_clock_10_n02708093_9.JPEG
subject-03,1,24,1.31088805198669,elephant,bear,c10,0023_con_s03_c10_bear_10_n02134418_1770.JPEG
subject-03,1,25,1.13335609436035,bottle,bottle,c05,0024_con_s03_c05_bottle_10_n04557648_3362.JPEG
subject-03,1,26,0.772109031677246,bottle,bottle,c10,0025_con_s03_c10_bottle_10_n03983396_7700.JPEG
subject-03,1,27,0.75425910949707,boat,truck,c03,0026_con_s03_c03_truck_10_n04467665_9812.JPEG
subject-03,1,28,0.76286506652832,clock,knife,c01,0027_con_s03_c01_knife_10_n03041632_2483.JPEG
subject-03,1,29,0.707303047180176,cat,cat,c15,0028_con_s03_c15_cat_10_n02125311_23095.JPEG
subject-03,1,30,0.821780204772949,boat,car,c01,0029_con_s03_c01_car_10_n02814533_1934.JPEG
subject-03,1,31,0.758358955383301,airplane,clock,c05,0030_con_s03_c05_clock_10_n03196217_1430.JPEG
subject-03,1,32,1.10096597671509,clock,oven,c50,0031_con_s03_c50_oven_10_n04111531_22120.JPEG
subject-03,1,33,0.917265892028809,cat,dog,c03,0032_con_s03_c03_dog_10_n02091032_1360.JPEG
subject-03,1,34,0.655765056610107,clock,clock,c15,0033_con_s03_c15_clock_10_n02708093_1430.JPEG
subject-03,1,35,0.854275941848755,cat,boat,c01,0034_con_s03_c01_boat_10_n03662601_27025.JPEG
subject-03,1,36,0.838999032974243,cat,cat,c10,0035_con_s03_c10_cat_10_n02123597_13552.JPEG
subject-03,1,37,0.791093826293945,car,car,c03,0036_con_s03_c03_car_10_n04285008_12794.JPEG
subject-03,1,38,0.857999801635742,cat,knife,c01,0037_con_s03_c01_knife_10_n03041632_7495.JPEG
subject-03,1,39,0.704887866973877,bicycle,bicycle,c05,0038_con_s03_c05_bicycle_10_n03792782_15833.JPEG
subject-03,1,40,0.871097803115845,airplane,airplane,c100,0039_con_s03_c100_airplane_10_n02690373_1733.JPEG
subject-03,1,41,0.82572078704834,clock,clock,c15,0040_con_s03_c15_clock_10_n03196217_1698.JPEG
subject-03,1,42,0.862450838088989,knife,knife,c10,0041_con_s03_c10_knife_10_n03041632_45312.JPEG
subject-03,1,43,1.03658890724182,chair,chair,c100,0042_con_s03_c100_chair_10_n03376595_5396.JPEG
subject-03,1,44,0.728633880615234,clock,clock,c05,0043_con_s03_c05_clock_10_n04548280_5933.JPEG
subject-03,1,45,0.935051918029785,chair,knife,c15,0044_con_s03_c15_knife_10_n03041632_96345.JPEG
subject-03,1,46,0.879732847213745,car,car,c30,0045_con_s03_c30_car_10_n03100240_7624.JPEG
subject-03,1,47,0.945539951324463,cat,bicycle,c05,0046_con_s03_c05_bicycle_10_n03792782_70555.JPEG
subject-03,1,48,0.721995115280151,oven,bottle,c10,0047_con_s03_c10_bottle_10_n02823428_7931.JPEG
subject-03,1,49,0.713135004043579,car,car,c30,0048_con_s03_c30_car_10_n04285008_7323.JPEG
subject-03,1,50,0.773462057113647,oven,keyboard,c01,0049_con_s03_c01_keyboard_10_n03085013_24316.JPEG
subject-03,1,51,1.16410398483276,dog,bear,c50,0050_con_s03_c50_bear_10_n02132136_6900.JPEG
subject-03,1,52,0.734379053115845,keyboard,keyboard,c15,0051_con_s03_c15_keyboard_10_n04505470_2698.JPEG
subject-03,1,53,0.847028017044067,oven,car,c15,0052_con_s03_c15_car_10_n03100240_2707.JPEG
subject-03,1,54,1.21557307243347,car,bird,c50,0053_con_s03_c50_bird_10_n01582220_4738.JPEG
subject-03,1,55,0.805219888687134,clock,knife,c50,0054_con_s03_c50_knife_10_n03041632_9635.JPEG
subject-03,1,56,1.23336410522461,knife,knife,c50,0055_con_s03_c50_knife_10_n03041632_11285.JPEG
subject-03,1,57,0.917764902114868,oven,bottle,c01,0056_con_s03_c01_bottle_10_n04557648_2052.JPEG
subject-03,1,58,0.932576894760132,chair,chair,c05,0057_con_s03_c05_chair_10_n04099969_14797.JPEG
subject-03,1,59,0.955322980880737,bottle,chair,c15,0058_con_s03_c15_chair_10_n04429376_74.JPEG
subject-03,1,60,0.623657941818237,boat,chair,c01,0059_con_s03_c01_chair_10_n03376595_6999.JPEG
subject-03,1,61,0.868305921554565,cat,bear,c01,0060_con_s03_c01_bear_10_n02134084_8089.JPEG
subject-03,1,62,0.988919019699097,bird,bird,c30,0061_con_s03_c30_bird_10_n01796340_9255.JPEG
subject-03,1,63,0.856921911239624,keyboard,keyboard,c05,0062_con_s03_c05_keyboard_10_n04505470_8789.JPEG
subject-03,1,64,1.34706091880798,bird,bird,c50,0063_con_s03_c50_bird_10_n02002724_3559.JPEG
subject-03,1,65,0.837751865386963,cat,dog,c15,0064_con_s03_c15_dog_10_n02100236_5945.JPEG
subject-03,1,66,0.651639938354492,airplane,airplane,c03,0065_con_s03_c03_airplane_10_n02690373_2796.JPEG
subject-03,1,67,0.898485898971558,cat,bird,c100,0066_con_s03_c100_bird_10_n02037110_8766.JPEG
subject-03,1,68,0.772986888885498,bottle,chair,c15,0067_con_s03_c15_chair_10_n02791124_666.JPEG
subject-03,1,69,0.8333740234375,airplane,airplane,c10,0068_con_s03_c10_airplane_10_n02690373_7409.JPEG
subject-03,1,70,0.694490909576416,cat,oven,c30,0069_con_s03_c30_oven_10_n04111531_7134.JPEG
subject-03,1,71,0.699563980102539,oven,oven,c100,0070_con_s03_c100_oven_10_n04111531_7252.JPEG
subject-03,1,72,0.798197984695435,boat,boat,c30,0071_con_s03_c30_boat_10_n03344393_3862.JPEG
subject-03,1,73,0.972677946090698,elephant,elephant,c05,0072_con_s03_c05_elephant_10_n02504013_277.JPEG
subject-03,1,74,0.657099962234497,oven,oven,c100,0073_con_s03_c100_oven_10_n04111531_22203.JPEG
subject-03,1,75,0.59343409538269,boat,boat,c15,0074_con_s03_c15_boat_10_n04612504_29348.JPEG
subject-03,1,76,0.737576961517334,clock,knife,c03,0075_con_s03_c03_knife_10_n03041632_52702.JPEG
subject-03,1,77,0.798579931259155,oven,bottle,c05,0076_con_s03_c05_bottle_10_n03937543_5982.JPEG
subject-03,1,78,0.629348039627075,oven,oven,c30,0077_con_s03_c30_oven_10_n04111531_13502.JPEG
subject-03,1,79,1.01199102401733,airplane,airplane,c10,0078_con_s03_c10_airplane_10_n02690373_5007.JPEG
subject-03,1,80,1.02657604217529,elephant,oven,c15,0079_con_s03_c15_oven_10_n04111531_797.JPEG
subject-03,1,81,0.778728008270264,bicycle,bicycle,c50,0080_con_s03_c50_bicycle_10_n03792782_19527.JPEG
subject-03,1,82,0.755561113357544,car,car,c30,0081_con_s03_c30_car_10_n02814533_27263.JPEG
subject-03,1,83,1.13551211357117,bear,bear,c100,0082_con_s03_c100_bear_10_n02132136_4802.JPEG
subject-03,1,84,0.790424108505249,chair,chair,c50,0083_con_s03_c50_chair_10_n04099969_8080.JPEG
subject-03,1,85,0.834728002548218,bird,bird,c15,0084_con_s03_c15_bird_10_n02028035_21462.JPEG
subject-03,1,86,0.80351996421814,bottle,bottle,c10,0085_con_s03_c10_bottle_10_n03937543_3725.JPEG
subject-03,1,87,0.680231094360352,car,truck,c15,0086_con_s03_c15_truck_10_n03417042_7376.JPEG
subject-03,1,88,1.03868508338928,knife,boat,c03,0087_con_s03_c03_boat_10_n02951358_4443.JPEG
subject-03,1,89,1.16104006767273,knife,bottle,c15,0088_con_s03_c15_bottle_10_n03983396_3164.JPEG
subject-03,1,90,0.989702939987183,boat,bird,c05,0089_con_s03_c05_bird_10_n01797886_10064.JPEG
subject-03,1,91,0.58203387260437,oven,oven,c15,0090_con_s03_c15_oven_10_n04111531_4116.JPEG
subject-03,1,92,1.11074185371399,truck,truck,c50,0091_con_s03_c50_truck_10_n03417042_20158.JPEG
subject-03,1,93,0.947299003601074,knife,knife,c15,0092_con_s03_c15_knife_10_n03041632_46185.JPEG
subject-03,1,94,0.815732955932617,oven,chair,c01,0093_con_s03_c01_chair_10_n04099969_8567.JPEG
subject-03,1,95,0.738430976867676,cat,clock,c03,0094_con_s03_c03_clock_10_n02708093_6966.JPEG
subject-03,1,96,1.05310392379761,bicycle,truck,c15,0095_con_s03_c15_truck_10_n03417042_18738.JPEG
subject-03,1,97,0.980990886688232,elephant,knife,c05,0096_con_s03_c05_knife_10_n03041632_24461.JPEG
subject-03,1,98,0.473826885223389,boat,boat,c15,0097_con_s03_c15_boat_10_n04612504_972.JPEG
subject-03,1,99,0.672578811645508,boat,boat,c05,0098_con_s03_c05_boat_10_n04612504_22353.JPEG
subject-03,1,100,0.670997142791748,oven,boat,c03,0099_con_s03_c03_boat_10_n03344393_3301.JPEG
subject-03,1,101,0.877801895141602,bicycle,bicycle,c05,0100_con_s03_c05_bicycle_10_n02835271_1530.JPEG
subject-03,1,102,0.930187940597534,car,car,c100,0101_con_s03_c100_car_10_n04285008_12169.JPEG
subject-03,1,103,0.704692125320435,oven,truck,c01,0102_con_s03_c01_truck_10_n03417042_21055.JPEG
subject-03,1,104,1.14934206008911,bear,bear,c100,0103_con_s03_c100_bear_10_n02133161_11517.JPEG
subject-03,1,105,0.655889987945557,oven,truck,c01,0104_con_s03_c01_truck_10_n04467665_4037.JPEG
subject-03,1,106,1.13279604911804,dog,bird,c10,0105_con_s03_c10_bird_10_n02051845_42500.JPEG
subject-03,1,107,0.631309986114502,oven,bicycle,c05,0106_con_s03_c05_bicycle_10_n02835271_25268.JPEG
subject-03,1,108,0.559806823730469,clock,truck,c01,0107_con_s03_c01_truck_10_n04467665_49282.JPEG
subject-03,1,109,0.990370035171509,bottle,clock,c05,0108_con_s03_c05_clock_10_n04548280_17802.JPEG
subject-03,1,110,0.588544130325317,clock,bear,c03,0109_con_s03_c03_bear_10_n02134418_4497.JPEG
subject-03,1,111,1.00898885726929,elephant,elephant,c03,0110_con_s03_c03_elephant_10_n02504013_347.JPEG
subject-03,1,112,0.623437881469727,boat,boat,c30,0111_con_s03_c30_boat_10_n04612504_652.JPEG
subject-03,1,113,0.846265077590942,boat,airplane,c05,0112_con_s03_c05_airplane_10_n02690373_9794.JPEG
subject-03,1,114,0.720537185668945,car,car,c100,0113_con_s03_c100_car_10_n02814533_83806.JPEG
subject-03,1,115,1.08704876899719,clock,oven,c100,0114_con_s03_c100_oven_10_n04111531_23046.JPEG
subject-03,1,116,0.604075908660889,car,car,c10,0115_con_s03_c10_car_10_n02814533_12779.JPEG
subject-03,1,117,0.664378881454468,keyboard,keyboard,c30,0116_con_s03_c30_keyboard_10_n04505470_142.JPEG
subject-03,1,118,1.00670003890991,truck,truck,c10,0117_con_s03_c10_truck_10_n03417042_18981.JPEG
subject-03,1,119,0.737534046173096,oven,oven,c05,0118_con_s03_c05_oven_10_n04111531_12788.JPEG
subject-03,1,120,0.721885919570923,cat,bottle,c15,0119_con_s03_c15_bottle_10_n03937543_4820.JPEG
subject-03,1,121,0.80461311340332,elephant,dog,c05,0120_con_s03_c05_dog_10_n02100877_863.JPEG
subject-03,1,122,1.02715992927551,elephant,elephant,c10,0121_con_s03_c10_elephant_10_n02504458_4841.JPEG
subject-03,1,123,1.34779214859009,clock,clock,c30,0122_con_s03_c30_clock_10_n02708093_2235.JPEG
subject-03,1,124,1.00009298324585,knife,knife,c10,0123_con_s03_c10_knife_10_n03041632_38433.JPEG
subject-03,1,125,0.751885890960693,bicycle,dog,c30,0124_con_s03_c30_dog_10_n02107683_3478.JPEG
subject-03,1,126,1.02613091468811,knife,knife,c15,0125_con_s03_c15_knife_10_n03041632_131.JPEG
subject-03,1,127,1.3407998085022,oven,bear,c30,0126_con_s03_c30_bear_10_n02134084_3697.JPEG
subject-03,1,128,0.833769083023071,bird,keyboard,c30,0127_con_s03_c30_keyboard_10_n03085013_22966.JPEG
subject-03,1,129,0.998190879821777,bottle,dog,c30,0128_con_s03_c30_dog_10_n02113712_4139.JPEG
subject-03,1,130,0.845110893249512,chair,chair,c15,0129_con_s03_c15_chair_10_n03376595_14563.JPEG
subject-03,1,131,0.805538892745972,oven,truck,c01,0130_con_s03_c01_truck_10_n03417042_9478.JPEG
subject-03,1,132,0.69585108757019,clock,clock,c50,0131_con_s03_c50_clock_10_n03196217_170.JPEG
subject-03,1,133,0.986608982086182,truck,truck,c100,0132_con_s03_c100_truck_10_n04467665_5874.JPEG
subject-03,1,134,0.783473014831543,bird,bird,c100,0133_con_s03_c100_bird_10_n02007558_3794.JPEG
subject-03,1,135,0.782027959823608,cat,bird,c05,0134_con_s03_c05_bird_10_n02006656_1991.JPEG
subject-03,1,136,0.96432089805603,bird,cat,c15,0135_con_s03_c15_cat_10_n02123597_13128.JPEG
subject-03,1,137,1.2390570640564,truck,truck,c30,0136_con_s03_c30_truck_10_n04467665_45326.JPEG
subject-03,1,138,1.26115298271179,bicycle,bicycle,c100,0137_con_s03_c100_bicycle_10_n03792782_4046.JPEG
subject-03,1,139,0.797511100769043,elephant,elephant,c100,0138_con_s03_c100_elephant_10_n02504013_3425.JPEG
subject-03,1,140,0.766172885894775,clock,clock,c50,0139_con_s03_c50_clock_10_n03196217_11980.JPEG
subject-03,1,141,0.880900144577026,bottle,bottle,c05,0140_con_s03_c05_bottle_10_n04560804_7644.JPEG
subject-03,1,142,0.809288024902344,oven,knife,c01,0141_con_s03_c01_knife_10_n03041632_11816.JPEG
subject-03,1,143,0.756295919418335,chair,chair,c100,0142_con_s03_c100_chair_10_n02791124_3190.JPEG
subject-03,1,144,0.714727878570557,oven,cat,c01,0143_con_s03_c01_cat_10_n02124075_7861.JPEG
subject-03,1,145,0.905045986175537,dog,dog,c100,0144_con_s03_c100_dog_10_n02086646_5505.JPEG
subject-03,1,146,0.797749042510986,cat,truck,c01,0145_con_s03_c01_truck_10_n04467665_78038.JPEG
subject-03,1,147,0.680076122283936,boat,airplane,c03,0146_con_s03_c03_airplane_10_n02690373_8746.JPEG
subject-03,1,148,0.694585084915161,boat,boat,c50,0147_con_s03_c50_boat_10_n03662601_2792.JPEG
subject-03,1,149,0.877136945724487,bicycle,boat,c10,0148_con_s03_c10_boat_10_n02951358_7112.JPEG
subject-03,1,150,0.962161064147949,clock,car,c01,0149_con_s03_c01_car_10_n02814533_46997.JPEG
subject-03,1,151,0.522485017776489,oven,clock,c01,0150_con_s03_c01_clock_10_n04548280_15867.JPEG
subject-03,1,152,0.813137054443359,bicycle,knife,c05,0151_con_s03_c05_knife_10_n03041632_18748.JPEG
subject-03,1,153,0.689882040023804,bottle,bottle,c50,0152_con_s03_c50_bottle_10_n04579145_3894.JPEG
subject-03,1,154,0.920467138290405,cat,cat,c100,0153_con_s03_c100_cat_10_n02124075_7652.JPEG
subject-03,1,155,0.732645988464355,cat,cat,c30,0154_con_s03_c30_cat_10_n02123159_9039.JPEG
subject-03,1,156,0.771337985992432,oven,keyboard,c05,0155_con_s03_c05_keyboard_10_n03085013_9146.JPEG
subject-03,1,157,0.969749212265015,keyboard,keyboard,c15,0156_con_s03_c15_keyboard_10_n03085013_6968.JPEG
subject-03,1,158,0.844168901443481,clock,clock,c10,0157_con_s03_c10_clock_10_n03196217_12152.JPEG
subject-03,1,159,1.11279606819153,car,keyboard,c03,0158_con_s03_c03_keyboard_10_n03085013_24272.JPEG
subject-03,1,160,0.824965000152588,boat,boat,c30,0159_con_s03_c30_boat_10_n03344393_9287.JPEG
subject-03,1,161,0.771650075912476,keyboard,keyboard,c30,0160_con_s03_c30_keyboard_10_n03085013_23619.JPEG
subject-03,1,162,0.808223962783813,cat,bottle,c01,0161_con_s03_c01_bottle_10_n04560804_3128.JPEG
subject-03,1,163,0.660741806030273,cat,cat,c10,0162_con_s03_c10_cat_10_n02123159_748.JPEG
subject-03,1,164,0.751170873641968,clock,clock,c100,0163_con_s03_c100_clock_10_n02708093_118.JPEG
subject-03,1,165,0.773535966873169,airplane,airplane,c15,0164_con_s03_c15_airplane_10_n02690373_9605.JPEG
subject-03,1,166,1.1181058883667,truck,truck,c05,0165_con_s03_c05_truck_10_n03417042_18932.JPEG
subject-03,1,167,0.99460506439209,oven,truck,c01,0166_con_s03_c01_truck_10_n04467665_71074.JPEG
subject-03,1,168,0.539687156677246,cat,cat,c01,0167_con_s03_c01_cat_10_n02123597_11650.JPEG
subject-03,1,169,0.930276870727539,bird,elephant,c03,0168_con_s03_c03_elephant_10_n02504013_5147.JPEG
subject-03,1,170,0.845211982727051,cat,dog,c15,0169_con_s03_c15_dog_10_n02111500_6045.JPEG
subject-03,1,171,0.643113136291504,keyboard,keyboard,c10,0170_con_s03_c10_keyboard_10_n04505470_4628.JPEG
subject-03,1,172,0.795871019363403,clock,bear,c01,0171_con_s03_c01_bear_10_n02134418_1306.JPEG
subject-03,1,173,0.832551002502441,bottle,bottle,c100,0172_con_s03_c100_bottle_10_n03937543_401.JPEG
subject-03,1,174,0.638839960098267,oven,chair,c10,0173_con_s03_c10_chair_10_n02791124_10834.JPEG
subject-03,1,175,0.753371000289917,cat,cat,c30,0174_con_s03_c30_cat_10_n02123045_10849.JPEG
subject-03,1,176,0.65201210975647,oven,oven,c03,0175_con_s03_c03_oven_10_n04111531_13247.JPEG
subject-03,1,177,0.788779973983765,cat,bear,c05,0176_con_s03_c05_bear_10_n02132136_23652.JPEG
subject-03,1,178,1.06335306167603,truck,car,c100,0177_con_s03_c100_car_10_n02814533_38775.JPEG
subject-03,1,179,0.66387414932251,chair,clock,c50,0178_con_s03_c50_clock_10_n04548280_9340.JPEG
subject-03,1,180,1.0461790561676,car,car,c30,0179_con_s03_c30_car_10_n02814533_75569.JPEG
subject-03,1,181,0.890744924545288,oven,oven,c10,0180_con_s03_c10_oven_10_n04111531_20511.JPEG
subject-03,1,182,0.927726030349731,oven,oven,c01,0181_con_s03_c01_oven_10_n04111531_9781.JPEG
subject-03,1,183,0.818195104598999,clock,bear,c03,0182_con_s03_c03_bear_10_n02134418_5480.JPEG
subject-03,1,184,0.79237699508667,oven,clock,c05,0183_con_s03_c05_clock_10_n03196217_8070.JPEG
subject-03,1,185,0.584616184234619,clock,cat,c01,0184_con_s03_c01_cat_10_n02125311_7883.JPEG
subject-03,1,186,0.75128698348999,oven,oven,c10,0185_con_s03_c10_oven_10_n04111531_16198.JPEG
subject-03,1,187,0.72763991355896,car,car,c10,0186_con_s03_c10_car_10_n04285008_3429.JPEG
subject-03,1,188,0.980729818344116,boat,boat,c15,0187_con_s03_c15_boat_10_n02951358_10121.JPEG
subject-03,1,189,0.979175806045532,oven,oven,c30,0188_con_s03_c30_oven_10_n04111531_22327.JPEG
subject-03,1,190,0.761547088623047,clock,airplane,c01,0189_con_s03_c01_airplane_10_n02690373_18304.JPEG
subject-03,1,191,1.01986217498779,elephant,elephant,c05,0190_con_s03_c05_elephant_10_n02504458_488.JPEG
subject-03,1,192,1.34292483329773,boat,bear,c03,0191_con_s03_c03_bear_10_n02134084_718.JPEG
subject-03,1,193,0.865462064743042,bicycle,bicycle,c05,0192_con_s03_c05_bicycle_10_n03792782_9156.JPEG
subject-03,1,194,0.800908088684082,oven,bird,c01,0193_con_s03_c01_bird_10_n01843383_7806.JPEG
subject-03,1,195,1.05931496620178,truck,truck,c30,0194_con_s03_c30_truck_10_n03417042_12235.JPEG
subject-03,1,196,0.651864051818848,airplane,airplane,c15,0195_con_s03_c15_airplane_10_n02690373_7118.JPEG
subject-03,1,197,0.934514045715332,boat,bird,c01,0196_con_s03_c01_bird_10_n02018207_9612.JPEG
subject-03,1,198,0.586782932281494,oven,knife,c01,0197_con_s03_c01_knife_10_n03041632_3005.JPEG
subject-03,1,199,0.723304986953735,airplane,car,c05,0198_con_s03_c05_car_10_n02814533_37256.JPEG
subject-03,1,200,1.22198486328125,dog,bird,c05,0199_con_s03_c05_bird_10_n01514859_3691.JPEG
subject-03,1,201,0.898352861404419,bottle,bottle,c50,0200_con_s03_c50_bottle_10_n03937543_4236.JPEG
subject-03,1,202,0.610953092575073,oven,bear,c03,0201_con_s03_c03_bear_10_n02132136_15525.JPEG
subject-03,1,203,1.32552409172058,bird,boat,c15,0202_con_s03_c15_boat_10_n02951358_1123.JPEG
subject-03,1,204,0.801959991455078,clock,elephant,c05,0203_con_s03_c05_elephant_10_n02504013_8308.JPEG
subject-03,1,205,0.775448083877563,bottle,bottle,c50,0204_con_s03_c50_bottle_10_n03937543_1363.JPEG
subject-03,1,206,0.804031133651733,clock,clock,c10,0205_con_s03_c10_clock_10_n03196217_5991.JPEG
subject-03,1,207,0.701172113418579,car,car,c100,0206_con_s03_c100_car_10_n02814533_42002.JPEG
subject-03,1,208,0.683986902236938,clock,truck,c10,0207_con_s03_c10_truck_10_n03417042_5665.JPEG
subject-03,1,209,0.898864030838013,car,car,c30,0208_con_s03_c30_car_10_n03100240_6661.JPEG
subject-03,1,210,0.75107479095459,cat,cat,c30,0209_con_s03_c30_cat_10_n02123597_8723.JPEG
subject-03,1,211,1.50019502639771,dog,dog,c100,0210_con_s03_c100_dog_10_n02091032_2170.JPEG
subject-03,1,212,0.756533145904541,oven,oven,c100,0211_con_s03_c100_oven_10_n04111531_2086.JPEG
subject-03,1,213,0.768886089324951,airplane,bird,c10,0212_con_s03_c10_bird_10_n01817953_9201.JPEG
subject-03,1,214,0.921523809432983,bird,bird,c30,0213_con_s03_c30_bird_10_n02018207_10148.JPEG
subject-03,1,215,0.982006072998047,knife,knife,c100,0214_con_s03_c100_knife_10_n03041632_20770.JPEG
subject-03,1,216,0.917426824569702,dog,cat,c10,0215_con_s03_c10_cat_10_n02125311_10174.JPEG
subject-03,1,217,0.66991400718689,cat,dog,c10,0216_con_s03_c10_dog_10_n02109047_10414.JPEG
subject-03,1,218,0.890321016311646,bottle,bottle,c15,0217_con_s03_c15_bottle_10_n04591713_5249.JPEG
subject-03,1,219,0.683080911636353,clock,chair,c05,0218_con_s03_c05_chair_10_n02791124_15407.JPEG
subject-03,1,220,0.665270090103149,car,truck,c100,0219_con_s03_c100_truck_10_n03417042_4665.JPEG
subject-03,1,221,0.747864007949829,clock,keyboard,c10,0220_con_s03_c10_keyboard_10_n03085013_24206.JPEG
subject-03,1,222,1.31497693061829,cat,airplane,c10,0221_con_s03_c10_airplane_10_n02690373_8846.JPEG
subject-03,1,223,0.745107889175415,elephant,elephant,c10,0222_con_s03_c10_elephant_10_n02504013_5948.JPEG
subject-03,1,224,0.949748992919922,airplane,bottle,c03,0223_con_s03_c03_bottle_10_n04591713_7489.JPEG
subject-03,1,225,0.994020938873291,airplane,airplane,c50,0224_con_s03_c50_airplane_10_n02690373_18506.JPEG
subject-03,1,226,0.824821949005127,airplane,airplane,c15,0225_con_s03_c15_airplane_10_n02690373_2632.JPEG
subject-03,1,227,0.915035963058472,bear,dog,c05,0226_con_s03_c05_dog_10_n02107142_36073.JPEG
subject-03,1,228,0.94376802444458,elephant,elephant,c03,0227_con_s03_c03_elephant_10_n02504013_6660.JPEG
subject-03,1,229,NaN,na,keyboard,c03,0228_con_s03_c03_keyboard_10_n04505470_2093.JPEG
subject-03,1,230,0.765210866928101,oven,oven,c50,0229_con_s03_c50_oven_10_n04111531_5906.JPEG
subject-03,1,231,NaN,na,cat,c05,0230_con_s03_c05_cat_10_n02123045_5378.JPEG
subject-03,1,232,0.768042087554932,car,car,c50,0231_con_s03_c50_car_10_n03100240_18967.JPEG
subject-03,1,233,0.644560098648071,clock,chair,c15,0232_con_s03_c15_chair_10_n04429376_36830.JPEG
subject-03,1,234,1.14081501960754,elephant,knife,c03,0233_con_s03_c03_knife_10_n03041632_32048.JPEG
subject-03,1,235,1.50017285346985,cat,bird,c15,0234_con_s03_c15_bird_10_n01622779_3605.JPEG
subject-03,1,236,0.693917036056519,clock,chair,c100,0235_con_s03_c100_chair_10_n04099969_42817.JPEG
subject-03,1,237,0.898797988891602,bird,oven,c05,0236_con_s03_c05_oven_10_n04111531_1009.JPEG
subject-03,1,238,1.02139592170715,elephant,elephant,c30,0237_con_s03_c30_elephant_10_n02504458_9870.JPEG
subject-03,1,239,0.689847946166992,cat,cat,c100,0238_con_s03_c100_cat_10_n02124075_4821.JPEG
subject-03,1,240,0.788399934768677,clock,clock,c15,0239_con_s03_c15_clock_10_n03196217_11913.JPEG
subject-03,1,241,0.624850988388062,clock,clock,c10,0240_con_s03_c10_clock_10_n04548280_5074.JPEG
subject-03,1,242,0.769426107406616,boat,car,c01,0241_con_s03_c01_car_10_n04285008_8519.JPEG
subject-03,1,243,1.11180400848389,truck,truck,c100,0242_con_s03_c100_truck_10_n04467665_37432.JPEG
subject-03,1,244,0.826312780380249,cat,chair,c01,0243_con_s03_c01_chair_10_n03376595_11572.JPEG
subject-03,1,245,1.29126596450806,dog,dog,c10,0244_con_s03_c10_dog_10_n02099267_4223.JPEG
subject-03,1,246,0.931675910949707,oven,chair,c30,0245_con_s03_c30_chair_10_n03376595_10035.JPEG
subject-03,1,247,0.767947912216187,car,car,c15,0246_con_s03_c15_car_10_n04285008_4142.JPEG
subject-03,1,248,0.988676071166992,elephant,elephant,c05,0247_con_s03_c05_elephant_10_n02504013_2085.JPEG
subject-03,1,249,0.795351982116699,bird,bird,c01,0248_con_s03_c01_bird_10_n01532829_3808.JPEG
subject-03,1,250,0.748095035552979,oven,clock,c01,0249_con_s03_c01_clock_10_n02708093_6957.JPEG
subject-03,1,251,0.938307046890259,truck,truck,c03,0250_con_s03_c03_truck_10_n03417042_234.JPEG
subject-03,1,252,1.28287410736084,bear,bear,c10,0251_con_s03_c10_bear_10_n02133161_4744.JPEG
subject-03,1,253,0.835487127304077,bird,bird,c50,0252_con_s03_c50_bird_10_n01817953_1.JPEG
subject-03,1,254,0.847944021224976,airplane,knife,c05,0253_con_s03_c05_knife_10_n03041632_49163.JPEG
subject-03,1,255,1.06244683265686,car,car,c10,0254_con_s03_c10_car_10_n04285008_783.JPEG
subject-03,1,256,0.745094060897827,bear,dog,c15,0255_con_s03_c15_dog_10_n02100877_11428.JPEG
subject-03,1,257,0.807586908340454,boat,bear,c01,0256_con_s03_c01_bear_10_n02134418_2539.JPEG
subject-03,1,258,0.722005844116211,clock,knife,c01,0257_con_s03_c01_knife_10_n03041632_4787.JPEG
subject-03,1,259,0.950567960739136,clock,keyboard,c03,0258_con_s03_c03_keyboard_10_n03085013_1193.JPEG
subject-03,1,260,0.711005926132202,oven,bicycle,c03,0259_con_s03_c03_bicycle_10_n03792782_18687.JPEG
subject-03,1,261,0.845664024353027,airplane,airplane,c05,0260_con_s03_c05_airplane_10_n02690373_4294.JPEG
subject-03,1,262,1.03658008575439,boat,clock,c01,0261_con_s03_c01_clock_10_n02708093_390.JPEG
subject-03,1,263,1.02103495597839,car,bicycle,c01,0262_con_s03_c01_bicycle_10_n02835271_1895.JPEG
subject-03,1,264,0.78156304359436,airplane,car,c05,0263_con_s03_c05_car_10_n02814533_90072.JPEG
subject-03,1,265,1.10209393501282,bicycle,knife,c30,0264_con_s03_c30_knife_10_n03041632_41493.JPEG
subject-03,1,266,0.884663820266724,chair,knife,c50,0265_con_s03_c50_knife_10_n03041632_93026.JPEG
subject-03,1,267,0.752794981002808,cat,elephant,c03,0266_con_s03_c03_elephant_10_n02504458_5331.JPEG
subject-03,1,268,0.889719009399414,truck,truck,c50,0267_con_s03_c50_truck_10_n04467665_33667.JPEG
subject-03,1,269,0.963872909545898,bottle,bottle,c10,0268_con_s03_c10_bottle_10_n04591713_5170.JPEG
subject-03,1,270,0.81667685508728,oven,elephant,c01,0269_con_s03_c01_elephant_10_n02504458_2013.JPEG
subject-03,1,271,1.00688004493713,car,truck,c03,0270_con_s03_c03_truck_10_n04467665_23071.JPEG
subject-03,1,272,0.85898494720459,bottle,chair,c05,0271_con_s03_c05_chair_10_n02791124_9414.JPEG
subject-03,1,273,0.9637451171875,bear,bear,c30,0272_con_s03_c30_bear_10_n02134418_9924.JPEG
subject-03,1,274,NaN,na,bird,c05,0273_con_s03_c05_bird_10_n01514859_9512.JPEG
subject-03,1,275,0.830846071243286,bottle,boat,c15,0274_con_s03_c15_boat_10_n03344393_5779.JPEG
subject-03,1,276,0.713418960571289,elephant,elephant,c10,0275_con_s03_c10_elephant_10_n02504458_10058.JPEG
subject-03,1,277,0.820141077041626,bird,dog,c05,0276_con_s03_c05_dog_10_n02107683_1857.JPEG
subject-03,1,278,0.748924016952515,cat,keyboard,c15,0277_con_s03_c15_keyboard_10_n03085013_8085.JPEG
subject-03,1,279,1.0775580406189,dog,knife,c05,0278_con_s03_c05_knife_10_n03041632_84869.JPEG
subject-03,1,280,0.859818935394287,bird,bird,c05,0279_con_s03_c05_bird_10_n01560419_1728.JPEG
subject-03,1,281,0.91215181350708,dog,bicycle,c03,0280_con_s03_c03_bicycle_10_n03792782_3349.JPEG
subject-03,1,282,0.949182987213135,bear,bear,c10,0281_con_s03_c10_bear_10_n02133161_6593.JPEG
subject-03,1,283,0.847860097885132,car,truck,c15,0282_con_s03_c15_truck_10_n04467665_37833.JPEG
subject-03,1,284,0.745851039886475,keyboard,keyboard,c30,0283_con_s03_c30_keyboard_10_n03085013_1830.JPEG
subject-03,1,285,0.944334983825684,bicycle,oven,c50,0284_con_s03_c50_oven_10_n04111531_30110.JPEG
subject-03,1,286,0.789171934127808,bottle,bottle,c15,0285_con_s03_c15_bottle_10_n03937543_2668.JPEG
subject-03,1,287,0.963859796524048,dog,dog,c100,0286_con_s03_c100_dog_10_n02088094_9895.JPEG
subject-03,1,288,0.729919195175171,bicycle,bicycle,c50,0287_con_s03_c50_bicycle_10_n02835271_4096.JPEG
subject-03,1,289,0.752892017364502,cat,chair,c03,0288_con_s03_c03_chair_10_n04429376_30926.JPEG
subject-03,1,290,0.689367055892944,bird,bicycle,c03,0289_con_s03_c03_bicycle_10_n03792782_48457.JPEG
subject-03,1,291,0.7881019115448,clock,keyboard,c01,0290_con_s03_c01_keyboard_10_n03085013_11110.JPEG
subject-03,1,292,0.73823618888855,elephant,elephant,c100,0291_con_s03_c100_elephant_10_n02504013_3739.JPEG
subject-03,1,293,NaN,na,chair,c15,0292_con_s03_c15_chair_10_n02791124_1325.JPEG
subject-03,1,294,1.11134195327759,bottle,bottle,c50,0293_con_s03_c50_bottle_10_n03983396_4300.JPEG
subject-03,1,295,0.764276027679443,keyboard,keyboard,c100,0294_con_s03_c100_keyboard_10_n03085013_24161.JPEG
subject-03,1,296,0.732684135437012,airplane,bird,c30,0295_con_s03_c30_bird_10_n02028035_12840.JPEG
subject-03,1,297,0.631416797637939,boat,boat,c30,0296_con_s03_c30_boat_10_n03662601_8533.JPEG
subject-03,1,298,0.675734996795654,boat,dog,c01,0297_con_s03_c01_dog_10_n02086646_6970.JPEG
subject-03,1,299,1.44814896583557,knife,clock,c05,0298_con_s03_c05_clock_10_n03196217_6376.JPEG
subject-03,1,300,0.832767963409424,clock,knife,c03,0299_con_s03_c03_knife_10_n03041632_20517.JPEG
subject-03,1,301,0.753265142440796,cat,airplane,c03,0300_con_s03_c03_airplane_10_n02690373_6812.JPEG
subject-03,1,302,1.17578196525574,boat,oven,c05,0301_con_s03_c05_oven_10_n04111531_2150.JPEG
subject-03,1,303,0.828610897064209,cat,cat,c15,0302_con_s03_c15_cat_10_n02124075_14568.JPEG
subject-03,1,304,0.995043992996216,car,boat,c10,0303_con_s03_c10_boat_10_n03662601_24208.JPEG
subject-03,1,305,1.09360098838806,knife,knife,c05,0304_con_s03_c05_knife_10_n03041632_29580.JPEG
subject-03,1,306,0.637868881225586,cat,elephant,c10,0305_con_s03_c10_elephant_10_n02504458_1131.JPEG
subject-03,1,307,0.668715000152588,cat,oven,c10,0306_con_s03_c10_oven_10_n04111531_7072.JPEG
subject-03,1,308,0.751092910766602,bird,bird,c15,0307_con_s03_c15_bird_10_n01817953_8245.JPEG
subject-03,1,309,0.879547119140625,airplane,airplane,c30,0308_con_s03_c30_airplane_10_n02690373_8417.JPEG
subject-03,1,310,0.954025030136108,keyboard,keyboard,c100,0309_con_s03_c100_keyboard_10_n03085013_22929.JPEG
subject-03,1,311,0.784783840179443,cat,dog,c30,0310_con_s03_c30_dog_10_n02097658_85.JPEG
subject-03,1,312,0.913689851760864,dog,dog,c100,0311_con_s03_c100_dog_10_n02090721_1949.JPEG
subject-03,1,313,0.873797178268433,elephant,elephant,c15,0312_con_s03_c15_elephant_10_n02504458_900.JPEG
subject-03,1,314,0.932437896728516,dog,cat,c10,0313_con_s03_c10_cat_10_n02123597_12354.JPEG
subject-03,1,315,0.868721008300781,bird,bird,c15,0314_con_s03_c15_bird_10_n01819313_1770.JPEG
subject-03,1,316,1.02940487861633,cat,elephant,c05,0315_con_s03_c05_elephant_10_n02504458_1489.JPEG
subject-03,1,317,0.881901979446411,elephant,elephant,c50,0316_con_s03_c50_elephant_10_n02504458_7631.JPEG
subject-03,1,318,0.776963949203491,elephant,elephant,c100,0317_con_s03_c100_elephant_10_n02504458_2200.JPEG
subject-03,1,319,1.05369520187378,elephant,bird,c01,0318_con_s03_c01_bird_10_n01798484_15198.JPEG
subject-03,1,320,0.828511953353882,chair,chair,c50,0319_con_s03_c50_chair_10_n04099969_16178.JPEG
subject-03,1,321,0.864779949188232,clock,clock,c50,0320_con_s03_c50_clock_10_n04548280_5072.JPEG
subject-03,1,322,0.641668081283569,clock,dog,c01,0321_con_s03_c01_dog_10_n02086079_3402.JPEG
subject-03,1,323,0.662106037139893,cat,dog,c05,0322_con_s03_c05_dog_10_n02100735_9576.JPEG
subject-03,1,324,NaN,na,oven,c01,0323_con_s03_c01_oven_10_n04111531_16463.JPEG
subject-03,1,325,0.84306001663208,cat,oven,c05,0324_con_s03_c05_oven_10_n04111531_4452.JPEG
subject-03,1,326,0.679656028747559,clock,chair,c50,0325_con_s03_c50_chair_10_n04429376_16372.JPEG
subject-03,1,327,0.778240919113159,bird,bird,c50,0326_con_s03_c50_bird_10_n01855032_5391.JPEG
subject-03,1,328,0.882529973983765,bird,boat,c05,0327_con_s03_c05_boat_10_n03344393_1599.JPEG
subject-03,1,329,0.734882116317749,clock,bicycle,c100,0328_con_s03_c100_bicycle_10_n02835271_3774.JPEG
subject-03,1,330,0.703372001647949,clock,dog,c01,0329_con_s03_c01_dog_10_n02110627_31127.JPEG
subject-03,1,331,0.79378604888916,elephant,elephant,c10,0330_con_s03_c10_elephant_10_n02504013_4081.JPEG
subject-03,1,332,0.638084173202515,airplane,airplane,c05,0331_con_s03_c05_airplane_10_n02690373_6212.JPEG
subject-03,1,333,0.996561050415039,chair,oven,c30,0332_con_s03_c30_oven_10_n04111531_46651.JPEG
subject-03,1,334,0.65684700012207,boat,elephant,c03,0333_con_s03_c03_elephant_10_n02504458_5978.JPEG
subject-03,1,335,0.731797933578491,car,bird,c03,0334_con_s03_c03_bird_10_n01817953_13504.JPEG
subject-03,1,336,1.08422613143921,clock,dog,c01,0335_con_s03_c01_dog_10_n02109961_490.JPEG
subject-03,1,337,0.690552949905396,cat,bird,c03,0336_con_s03_c03_bird_10_n02018795_4907.JPEG
subject-03,1,338,NaN,na,chair,c05,0337_con_s03_c05_chair_10_n04099969_1126.JPEG
subject-03,1,339,0.739802122116089,cat,cat,c10,0338_con_s03_c10_cat_10_n02124075_13685.JPEG
subject-03,1,340,0.960214138031006,elephant,elephant,c15,0339_con_s03_c15_elephant_10_n02504013_843.JPEG
subject-03,1,341,0.725611925125122,boat,car,c01,0340_con_s03_c01_car_10_n02814533_31384.JPEG
subject-03,1,342,0.846044063568115,bottle,bottle,c10,0341_con_s03_c10_bottle_10_n04591713_4409.JPEG
subject-03,1,343,0.630879878997803,oven,elephant,c15,0342_con_s03_c15_elephant_10_n02504013_7147.JPEG
subject-03,1,344,0.613269090652466,boat,oven,c05,0343_con_s03_c05_oven_10_n04111531_3353.JPEG
subject-03,1,345,0.573732852935791,oven,bear,c15,0344_con_s03_c15_bear_10_n02132136_6778.JPEG
subject-03,1,346,0.886198997497559,airplane,airplane,c50,0345_con_s03_c50_airplane_10_n02690373_614.JPEG
subject-03,1,347,0.968810081481934,chair,chair,c50,0346_con_s03_c50_chair_10_n03376595_5909.JPEG
subject-03,1,348,0.750502109527588,knife,knife,c100,0347_con_s03_c100_knife_10_n03041632_48071.JPEG
subject-03,1,349,0.809026956558228,airplane,bird,c15,0348_con_s03_c15_bird_10_n01855032_6638.JPEG
subject-03,1,350,0.947275161743164,car,truck,c50,0349_con_s03_c50_truck_10_n04467665_40513.JPEG
subject-03,1,351,0.797988176345825,bottle,bottle,c30,0350_con_s03_c30_bottle_10_n04579145_4182.JPEG
subject-03,1,352,1.15801310539246,dog,dog,c50,0351_con_s03_c50_dog_10_n02111277_6143.JPEG
subject-03,1,353,0.610724925994873,chair,chair,c03,0352_con_s03_c03_chair_10_n04099969_24708.JPEG
subject-03,1,354,1.06105303764343,cat,dog,c30,0353_con_s03_c30_dog_10_n02094433_3284.JPEG
subject-03,1,355,1.05163812637329,clock,dog,c03,0354_con_s03_c03_dog_10_n02086646_3935.JPEG
subject-03,1,356,0.911934852600098,chair,oven,c100,0355_con_s03_c100_oven_10_n04111531_7076.JPEG
subject-03,1,357,1.03264212608337,dog,dog,c100,0356_con_s03_c100_dog_10_n02088238_2967.JPEG
subject-03,1,358,0.769028902053833,cat,oven,c03,0357_con_s03_c03_oven_10_n04111531_1165.JPEG
subject-03,1,359,0.567583799362183,cat,cat,c50,0358_con_s03_c50_cat_10_n02124075_12686.JPEG
subject-03,1,360,0.819984197616577,bottle,bear,c05,0359_con_s03_c05_bear_10_n02133161_16114.JPEG
subject-03,1,361,0.808723926544189,knife,knife,c03,0360_con_s03_c03_knife_10_n03041632_42887.JPEG
subject-03,1,362,0.745217084884644,car,car,c10,0361_con_s03_c10_car_10_n03100240_23216.JPEG
subject-03,1,363,0.919639110565186,bottle,bottle,c03,0362_con_s03_c03_bottle_10_n04591713_5678.JPEG
subject-03,1,364,1.20206499099731,bear,bear,c100,0363_con_s03_c100_bear_10_n02134084_16525.JPEG
subject-03,1,365,0.824698209762573,boat,bicycle,c15,0364_con_s03_c15_bicycle_10_n03792782_8114.JPEG
subject-03,1,366,0.98297381401062,knife,knife,c15,0365_con_s03_c15_knife_10_n03041632_46103.JPEG
subject-03,1,367,0.927519083023071,truck,truck,c100,0366_con_s03_c100_truck_10_n03796401_14189.JPEG
subject-03,1,368,0.724050045013428,cat,bear,c01,0367_con_s03_c01_bear_10_n02132136_4111.JPEG
subject-03,1,369,1.23842191696167,clock,clock,c30,0368_con_s03_c30_clock_10_n02708093_3254.JPEG
subject-03,1,370,0.783107042312622,airplane,airplane,c05,0369_con_s03_c05_airplane_10_n02690373_17937.JPEG
subject-03,1,371,0.757538080215454,car,bicycle,c10,0370_con_s03_c10_bicycle_10_n02835271_6680.JPEG
subject-03,1,372,0.717966079711914,cat,dog,c03,0371_con_s03_c03_dog_10_n02108915_10554.JPEG
subject-03,1,373,0.984866857528687,bicycle,bicycle,c30,0372_con_s03_c30_bicycle_10_n03792782_9183.JPEG
subject-03,1,374,0.867258071899414,truck,truck,c30,0373_con_s03_c30_truck_10_n04467665_6687.JPEG
subject-03,1,375,0.833547115325928,cat,boat,c05,0374_con_s03_c05_boat_10_n03662601_33398.JPEG
subject-03,1,376,0.824595212936401,car,car,c30,0375_con_s03_c30_car_10_n02814533_44906.JPEG
subject-03,1,377,1.14497113227844,truck,truck,c15,0376_con_s03_c15_truck_10_n03796401_9514.JPEG
subject-03,1,378,0.629918813705444,oven,oven,c100,0377_con_s03_c100_oven_10_n04111531_20493.JPEG
subject-03,1,379,0.742237091064453,oven,knife,c50,0378_con_s03_c50_knife_10_n03041632_105080.JPEG
subject-03,1,380,1.03885293006897,knife,elephant,c50,0379_con_s03_c50_elephant_10_n02504458_5641.JPEG
subject-03,1,381,0.815212965011597,cat,dog,c10,0380_con_s03_c10_dog_10_n02093256_5001.JPEG
subject-03,1,382,0.943808794021606,boat,boat,c10,0381_con_s03_c10_boat_10_n04612504_20706.JPEG
subject-03,1,383,1.30205297470093,bear,bear,c05,0382_con_s03_c05_bear_10_n02134418_4754.JPEG
subject-03,1,384,0.724893093109131,car,car,c50,0383_con_s03_c50_car_10_n02814533_18129.JPEG
subject-03,1,385,0.964258909225464,car,car,c05,0384_con_s03_c05_car_10_n03100240_18679.JPEG
subject-03,1,386,0.947026014328003,car,car,c03,0385_con_s03_c03_car_10_n04285008_392.JPEG
subject-03,1,387,0.639585018157959,oven,knife,c10,0386_con_s03_c10_knife_10_n03041632_19571.JPEG
subject-03,1,388,0.622238159179688,oven,elephant,c50,0387_con_s03_c50_elephant_10_n02504458_1512.JPEG
subject-03,1,389,NaN,na,bear,c50,0388_con_s03_c50_bear_10_n02134084_22426.JPEG
subject-03,1,390,0.61689305305481,boat,boat,c30,0389_con_s03_c30_boat_10_n02951358_11271.JPEG
subject-03,1,391,0.645468950271606,oven,cat,c03,0390_con_s03_c03_cat_10_n02124075_5393.JPEG
subject-03,1,392,0.690176010131836,oven,cat,c50,0391_con_s03_c50_cat_10_n02123159_7719.JPEG
subject-03,1,393,0.710644006729126,cat,dog,c30,0392_con_s03_c30_dog_10_n02097474_6763.JPEG
subject-03,1,394,1.1233069896698,truck,truck,c30,0393_con_s03_c30_truck_10_n03796401_16264.JPEG
subject-03,1,395,0.716063976287842,bird,bird,c50,0394_con_s03_c50_bird_10_n01817953_7140.JPEG
subject-03,1,396,0.804541110992432,car,car,c15,0395_con_s03_c15_car_10_n04285008_12927.JPEG
subject-03,1,397,0.65090012550354,oven,dog,c03,0396_con_s03_c03_dog_10_n02102177_9117.JPEG
subject-03,1,398,0.847835063934326,boat,boat,c15,0397_con_s03_c15_boat_10_n04612504_18939.JPEG
subject-03,1,399,0.824145078659058,bottle,bottle,c30,0398_con_s03_c30_bottle_10_n04591713_7476.JPEG
subject-03,1,400,0.806725978851318,oven,oven,c100,0399_con_s03_c100_oven_10_n04111531_6567.JPEG
subject-03,1,401,1.14101004600525,elephant,elephant,c30,0400_con_s03_c30_elephant_10_n02504013_4997.JPEG
subject-03,1,402,0.963932037353516,dog,dog,c50,0401_con_s03_c50_dog_10_n02107574_3095.JPEG
subject-03,1,403,0.832046031951904,truck,truck,c30,0402_con_s03_c30_truck_10_n03417042_29836.JPEG
subject-03,1,404,1.02871799468994,clock,clock,c03,0403_con_s03_c03_clock_10_n02708093_8026.JPEG
subject-03,1,405,0.611302137374878,oven,chair,c05,0404_con_s03_c05_chair_10_n03376595_53.JPEG
subject-03,1,406,0.856128931045532,cat,cat,c01,0405_con_s03_c01_cat_10_n02123159_4333.JPEG
subject-03,1,407,0.754333972930908,boat,boat,c10,0406_con_s03_c10_boat_10_n03662601_28969.JPEG
subject-03,1,408,0.744804859161377,keyboard,keyboard,c10,0407_con_s03_c10_keyboard_10_n03085013_7536.JPEG
subject-03,1,409,0.941592931747437,bicycle,bicycle,c10,0408_con_s03_c10_bicycle_10_n02835271_12385.JPEG
subject-03,1,410,0.694098949432373,chair,chair,c30,0409_con_s03_c30_chair_10_n02791124_7466.JPEG
subject-03,1,411,1.00665307044983,cat,cat,c10,0410_con_s03_c10_cat_10_n02125311_12196.JPEG
subject-03,1,412,0.69910192489624,chair,oven,c05,0411_con_s03_c05_oven_10_n04111531_4671.JPEG
subject-03,1,413,0.657377958297729,clock,clock,c05,0412_con_s03_c05_clock_10_n04548280_9683.JPEG
subject-03,1,414,0.832015037536621,truck,truck,c50,0413_con_s03_c50_truck_10_n03417042_5098.JPEG
subject-03,1,415,0.884624004364014,airplane,airplane,c100,0414_con_s03_c100_airplane_10_n02690373_5160.JPEG
subject-03,1,416,1.11322402954102,chair,chair,c10,0415_con_s03_c10_chair_10_n02791124_13057.JPEG
subject-03,1,417,0.979699850082397,bicycle,bicycle,c50,0416_con_s03_c50_bicycle_10_n03792782_15679.JPEG
subject-03,1,418,0.678407192230225,boat,boat,c100,0417_con_s03_c100_boat_10_n03662601_5527.JPEG
subject-03,1,419,0.722955942153931,car,car,c10,0418_con_s03_c10_car_10_n03100240_3289.JPEG
subject-03,1,420,1.19736099243164,knife,bird,c10,0419_con_s03_c10_bird_10_n01616318_996.JPEG
subject-03,1,421,1.03425717353821,truck,truck,c05,0420_con_s03_c05_truck_10_n03796401_24227.JPEG
subject-03,1,422,0.694813013076782,elephant,elephant,c15,0421_con_s03_c15_elephant_10_n02504013_2212.JPEG
subject-03,1,423,0.968985080718994,cat,cat,c50,0422_con_s03_c50_cat_10_n02123045_1030.JPEG
subject-03,1,424,0.721657037734985,oven,chair,c03,0423_con_s03_c03_chair_10_n04099969_17069.JPEG
subject-03,1,425,0.712236881256104,clock,clock,c15,0424_con_s03_c15_clock_10_n04548280_11806.JPEG
subject-03,1,426,0.810835123062134,car,car,c05,0425_con_s03_c05_car_10_n02814533_9449.JPEG
subject-03,1,427,0.609199047088623,oven,keyboard,c05,0426_con_s03_c05_keyboard_10_n03085013_2500.JPEG
subject-03,1,428,0.682966947555542,oven,elephant,c15,0427_con_s03_c15_elephant_10_n02504458_8226.JPEG
subject-03,1,429,0.665311098098755,oven,bear,c10,0428_con_s03_c10_bear_10_n02134418_4365.JPEG
subject-03,1,430,1.21594619750977,keyboard,chair,c10,0429_con_s03_c10_chair_10_n02791124_5825.JPEG
subject-03,1,431,0.684317827224731,airplane,airplane,c15,0430_con_s03_c15_airplane_10_n02690373_6543.JPEG
subject-03,1,432,1.25870895385742,clock,bicycle,c01,0431_con_s03_c01_bicycle_10_n03792782_6894.JPEG
subject-03,1,433,0.965421915054321,bear,bear,c30,0432_con_s03_c30_bear_10_n02134084_2829.JPEG
subject-03,1,434,0.87796688079834,airplane,airplane,c30,0433_con_s03_c30_airplane_10_n02690373_17011.JPEG
subject-03,1,435,0.760421991348267,clock,clock,c03,0434_con_s03_c03_clock_10_n04548280_7828.JPEG
subject-03,1,436,0.666814088821411,cat,cat,c50,0435_con_s03_c50_cat_10_n02124075_18178.JPEG
subject-03,1,437,0.887756109237671,bottle,bottle,c15,0436_con_s03_c15_bottle_10_n04579145_2902.JPEG
subject-03,1,438,0.602277040481567,oven,oven,c15,0437_con_s03_c15_oven_10_n04111531_3955.JPEG
subject-03,1,439,0.722604990005493,airplane,airplane,c10,0438_con_s03_c10_airplane_10_n02690373_1933.JPEG
subject-03,1,440,0.713230133056641,keyboard,bottle,c10,0439_con_s03_c10_bottle_10_n04591713_6105.JPEG
subject-03,1,441,0.919751167297363,oven,oven,c30,0440_con_s03_c30_oven_10_n04111531_5950.JPEG
subject-03,1,442,NaN,na,keyboard,c10,0441_con_s03_c10_keyboard_10_n04505470_4348.JPEG
subject-03,1,443,0.822558164596558,bear,bear,c50,0442_con_s03_c50_bear_10_n02132136_3329.JPEG
subject-03,1,444,0.79704213142395,bottle,bottle,c50,0443_con_s03_c50_bottle_10_n02823428_3970.JPEG
subject-03,1,445,0.717736959457397,bicycle,bicycle,c15,0444_con_s03_c15_bicycle_10_n03792782_774.JPEG
subject-03,1,446,0.686266899108887,bicycle,bicycle,c100,0445_con_s03_c100_bicycle_10_n02835271_20542.JPEG
subject-03,1,447,0.84460711479187,elephant,elephant,c03,0446_con_s03_c03_elephant_10_n02504458_6226.JPEG
subject-03,1,448,0.82166576385498,bottle,bottle,c10,0447_con_s03_c10_bottle_10_n02823428_8257.JPEG
subject-03,1,449,0.695954084396362,airplane,airplane,c100,0448_con_s03_c100_airplane_10_n02690373_8770.JPEG
subject-03,1,450,0.708752870559692,oven,boat,c03,0449_con_s03_c03_boat_10_n03344393_6018.JPEG
subject-03,1,451,0.598904848098755,cat,cat,c100,0450_con_s03_c100_cat_10_n02123045_5695.JPEG
subject-03,1,452,1.00359106063843,airplane,airplane,c100,0451_con_s03_c100_airplane_10_n02690373_5980.JPEG
subject-03,1,453,0.588089942932129,boat,knife,c05,0452_con_s03_c05_knife_10_n03041632_16606.JPEG
subject-03,1,454,0.876379013061523,car,dog,c50,0453_con_s03_c50_dog_10_n02106550_4437.JPEG
subject-03,1,455,1.22954201698303,bird,bird,c10,0454_con_s03_c10_bird_10_n01582220_6269.JPEG
subject-03,1,456,NaN,na,chair,c01,0455_con_s03_c01_chair_10_n04099969_1717.JPEG
subject-03,1,457,0.51056694984436,oven,chair,c01,0456_con_s03_c01_chair_10_n04429376_16002.JPEG
subject-03,1,458,NaN,na,chair,c10,0457_con_s03_c10_chair_10_n04429376_3468.JPEG
subject-03,1,459,0.851502895355225,chair,chair,c100,0458_con_s03_c100_chair_10_n03376595_7009.JPEG
subject-03,1,460,1.26411986351013,elephant,bear,c05,0459_con_s03_c05_bear_10_n02133161_4043.JPEG
subject-03,1,461,0.662703037261963,oven,chair,c01,0460_con_s03_c01_chair_10_n03376595_9535.JPEG
subject-03,1,462,0.623219966888428,oven,oven,c100,0461_con_s03_c100_oven_10_n04111531_8414.JPEG
subject-03,1,463,0.973876953125,cat,bottle,c01,0462_con_s03_c01_bottle_10_n03983396_19635.JPEG
subject-03,1,464,0.818108797073364,bottle,bottle,c50,0463_con_s03_c50_bottle_10_n04591713_1658.JPEG
subject-03,1,465,0.770595073699951,knife,knife,c100,0464_con_s03_c100_knife_10_n03041632_29858.JPEG
subject-03,1,466,0.560678005218506,oven,clock,c30,0465_con_s03_c30_clock_10_n02708093_847.JPEG
subject-03,1,467,1.13578796386719,keyboard,keyboard,c30,0466_con_s03_c30_keyboard_10_n04505470_10129.JPEG
subject-03,1,468,0.910026073455811,keyboard,keyboard,c05,0467_con_s03_c05_keyboard_10_n03085013_18909.JPEG
subject-03,1,469,1.23872590065002,knife,chair,c03,0468_con_s03_c03_chair_10_n04429376_14967.JPEG
subject-03,1,470,0.483232975006104,cat,knife,c01,0469_con_s03_c01_knife_10_n03041632_17091.JPEG
subject-03,1,471,0.719850063323975,cat,cat,c100,0470_con_s03_c100_cat_10_n02123045_3442.JPEG
subject-03,1,472,0.648444890975952,oven,knife,c15,0471_con_s03_c15_knife_10_n03041632_18766.JPEG
subject-03,1,473,0.729676961898804,bicycle,bicycle,c30,0472_con_s03_c30_bicycle_10_n02835271_9288.JPEG
subject-03,1,474,0.896306991577148,dog,bear,c30,0473_con_s03_c30_bear_10_n02132136_3432.JPEG
subject-03,1,475,0.825103044509888,elephant,elephant,c100,0474_con_s03_c100_elephant_10_n02504458_522.JPEG
subject-03,1,476,0.661317825317383,boat,bear,c01,0475_con_s03_c01_bear_10_n02133161_9783.JPEG
subject-03,1,477,0.67598295211792,bicycle,bicycle,c30,0476_con_s03_c30_bicycle_10_n02835271_8902.JPEG
subject-03,1,478,0.688286066055298,oven,oven,c03,0477_con_s03_c03_oven_10_n04111531_15290.JPEG
subject-03,1,479,0.901340961456299,cat,cat,c30,0478_con_s03_c30_cat_10_n02123159_4868.JPEG
subject-03,1,480,0.583605051040649,boat,airplane,c01,0479_con_s03_c01_airplane_10_n02690373_17130.JPEG
subject-03,1,481,0.89814305305481,bicycle,bicycle,c05,0480_con_s03_c05_bicycle_10_n03792782_29108.JPEG
subject-03,1,482,0.602736949920654,oven,chair,c10,0481_con_s03_c10_chair_10_n02791124_3527.JPEG
subject-03,1,483,0.755259990692139,cat,dog,c03,0482_con_s03_c03_dog_10_n02093256_4335.JPEG
subject-03,1,484,0.926665067672729,truck,truck,c10,0483_con_s03_c10_truck_10_n04467665_4872.JPEG
subject-03,1,485,0.755386114120483,cat,bear,c01,0484_con_s03_c01_bear_10_n02134084_1080.JPEG
subject-03,1,486,0.583674907684326,oven,car,c03,0485_con_s03_c03_car_10_n03100240_9264.JPEG
subject-03,1,487,1.10409283638,knife,knife,c50,0486_con_s03_c50_knife_10_n03041632_42185.JPEG
subject-03,1,488,1.23285603523254,dog,bear,c10,0487_con_s03_c10_bear_10_n02132136_5872.JPEG
subject-03,1,489,0.76099705696106,knife,boat,c100,0488_con_s03_c100_boat_10_n02951358_6039.JPEG
subject-03,1,490,0.63022780418396,cat,cat,c30,0489_con_s03_c30_cat_10_n02123045_6773.JPEG
subject-03,1,491,0.942584037780762,boat,keyboard,c01,0490_con_s03_c01_keyboard_10_n03085013_19586.JPEG
subject-03,1,492,0.908987998962402,cat,clock,c50,0491_con_s03_c50_clock_10_n04548280_2606.JPEG
subject-03,1,493,0.837528944015503,bicycle,bicycle,c05,0492_con_s03_c05_bicycle_10_n03792782_5959.JPEG
subject-03,1,494,1.10391712188721,bear,bear,c100,0493_con_s03_c100_bear_10_n02132136_5767.JPEG
subject-03,1,495,0.553370952606201,clock,clock,c15,0494_con_s03_c15_clock_10_n03196217_4600.JPEG
subject-03,1,496,0.598154067993164,oven,bicycle,c01,0495_con_s03_c01_bicycle_10_n03792782_19198.JPEG
subject-03,1,497,0.726977109909058,bottle,bottle,c30,0496_con_s03_c30_bottle_10_n04557648_9345.JPEG
subject-03,1,498,0.701393127441406,bicycle,bicycle,c100,0497_con_s03_c100_bicycle_10_n02835271_3127.JPEG
subject-03,1,499,0.715688943862915,oven,bird,c01,0498_con_s03_c01_bird_10_n01824575_9916.JPEG
subject-03,1,500,0.798480033874512,bottle,dog,c03,0499_con_s03_c03_dog_10_n02109961_4566.JPEG
subject-03,1,501,0.856763124465942,knife,car,c05,0500_con_s03_c05_car_10_n03100240_18792.JPEG
subject-03,1,502,0.901407957077026,keyboard,keyboard,c100,0501_con_s03_c100_keyboard_10_n03085013_21795.JPEG
subject-03,1,503,0.691727876663208,oven,keyboard,c05,0502_con_s03_c05_keyboard_10_n04505470_1464.JPEG
subject-03,1,504,0.704445123672485,truck,truck,c50,0503_con_s03_c50_truck_10_n03417042_9023.JPEG
subject-03,1,505,0.695302963256836,boat,boat,c15,0504_con_s03_c15_boat_10_n04273569_25972.JPEG
subject-03,1,506,1.09968304634094,airplane,airplane,c100,0505_con_s03_c100_airplane_10_n02690373_10449.JPEG
subject-03,1,507,0.654227018356323,boat,keyboard,c03,0506_con_s03_c03_keyboard_10_n03085013_4281.JPEG
subject-03,1,508,0.734767198562622,boat,boat,c15,0507_con_s03_c15_boat_10_n03662601_32125.JPEG
subject-03,1,509,0.857125043869019,clock,clock,c100,0508_con_s03_c100_clock_10_n03196217_6293.JPEG
subject-03,1,510,0.823600053787231,bicycle,bicycle,c15,0509_con_s03_c15_bicycle_10_n03792782_12971.JPEG
subject-03,1,511,0.706363916397095,boat,dog,c05,0510_con_s03_c05_dog_10_n02094258_4618.JPEG
subject-03,1,512,0.78930401802063,clock,knife,c03,0511_con_s03_c03_knife_10_n03041632_48149.JPEG
subject-03,1,513,0.968984127044678,truck,truck,c10,0512_con_s03_c10_truck_10_n03417042_22.JPEG
subject-03,1,514,0.659054040908813,oven,cat,c01,0513_con_s03_c01_cat_10_n02123045_13192.JPEG
subject-03,1,515,0.615470170974731,boat,boat,c100,0514_con_s03_c100_boat_10_n02951358_2013.JPEG
subject-03,1,516,0.52789306640625,oven,bicycle,c03,0515_con_s03_c03_bicycle_10_n02835271_3611.JPEG
subject-03,1,517,0.648438930511475,clock,cat,c01,0516_con_s03_c01_cat_10_n02123045_10118.JPEG
subject-03,1,518,0.947510004043579,knife,knife,c15,0517_con_s03_c15_knife_10_n03041632_29276.JPEG
subject-03,1,519,NaN,na,bear,c15,0518_con_s03_c15_bear_10_n02132136_23971.JPEG
subject-03,1,520,0.742552995681763,airplane,airplane,c30,0519_con_s03_c30_airplane_10_n02690373_466.JPEG
subject-03,1,521,0.816653966903687,oven,boat,c03,0520_con_s03_c03_boat_10_n03662601_37095.JPEG
subject-03,1,522,0.63134503364563,bear,keyboard,c05,0521_con_s03_c05_keyboard_10_n04505470_7521.JPEG
subject-03,1,523,0.718435049057007,bottle,bottle,c100,0522_con_s03_c100_bottle_10_n02823428_8816.JPEG
subject-03,1,524,1.05520987510681,elephant,dog,c10,0523_con_s03_c10_dog_10_n02095570_8377.JPEG
subject-03,1,525,0.767548084259033,boat,bear,c100,0524_con_s03_c100_bear_10_n02132136_22717.JPEG
subject-03,1,526,0.766217947006226,cat,oven,c15,0525_con_s03_c15_oven_10_n04111531_2462.JPEG
subject-03,1,527,0.632309198379517,cat,keyboard,c03,0526_con_s03_c03_keyboard_10_n03085013_20496.JPEG
subject-03,1,528,NaN,na,car,c15,0527_con_s03_c15_car_10_n02814533_20044.JPEG
subject-03,1,529,1.00599503517151,keyboard,boat,c15,0528_con_s03_c15_boat_10_n03344393_3278.JPEG
subject-03,1,530,0.772713899612427,clock,clock,c03,0529_con_s03_c03_clock_10_n02708093_3453.JPEG
subject-03,1,531,0.787087917327881,car,car,c50,0530_con_s03_c50_car_10_n03100240_416.JPEG
subject-03,1,532,1.00002694129944,elephant,dog,c10,0531_con_s03_c10_dog_10_n02085936_12947.JPEG
subject-03,1,533,0.552670955657959,boat,bicycle,c01,0532_con_s03_c01_bicycle_10_n02835271_42320.JPEG
subject-03,1,534,0.840507030487061,airplane,airplane,c15,0533_con_s03_c15_airplane_10_n02690373_10001.JPEG
subject-03,1,535,0.585092067718506,boat,boat,c15,0534_con_s03_c15_boat_10_n03662601_13151.JPEG
subject-03,1,536,0.553618907928467,clock,oven,c15,0535_con_s03_c15_oven_10_n04111531_22834.JPEG
subject-03,1,537,0.620026111602783,oven,keyboard,c01,0536_con_s03_c01_keyboard_10_n03085013_24115.JPEG
subject-03,1,538,0.548647165298462,car,truck,c50,0537_con_s03_c50_truck_10_n03417042_26749.JPEG
subject-03,1,539,0.92337703704834,car,truck,c10,0538_con_s03_c10_truck_10_n03796401_8744.JPEG
subject-03,1,540,1.34106087684631,boat,bear,c10,0539_con_s03_c10_bear_10_n02134084_23594.JPEG
subject-03,1,541,0.77963399887085,chair,chair,c30,0540_con_s03_c30_chair_10_n04099969_8873.JPEG
subject-03,1,542,0.600202083587646,boat,oven,c05,0541_con_s03_c05_oven_10_n04111531_4.JPEG
subject-03,1,543,0.644311189651489,oven,chair,c01,0542_con_s03_c01_chair_10_n03376595_8302.JPEG
subject-03,1,544,0.827054977416992,airplane,boat,c03,0543_con_s03_c03_boat_10_n04273569_17671.JPEG
subject-03,1,545,0.73141884803772,oven,oven,c15,0544_con_s03_c15_oven_10_n04111531_21248.JPEG
subject-03,1,546,0.668128967285156,oven,bear,c01,0545_con_s03_c01_bear_10_n02134084_5582.JPEG
subject-03,1,547,0.504628896713257,boat,bottle,c01,0546_con_s03_c01_bottle_10_n04557648_777.JPEG
subject-03,1,548,0.671175956726074,bicycle,bicycle,c30,0547_con_s03_c30_bicycle_10_n02835271_14891.JPEG
subject-03,1,549,0.715471029281616,oven,elephant,c05,0548_con_s03_c05_elephant_10_n02504013_5351.JPEG
subject-03,1,550,0.858071088790894,clock,knife,c50,0549_con_s03_c50_knife_10_n03041632_1884.JPEG
subject-03,1,551,0.709851026535034,airplane,airplane,c30,0550_con_s03_c30_airplane_10_n02690373_6195.JPEG
subject-03,1,552,0.714230060577393,bear,truck,c30,0551_con_s03_c30_truck_10_n04467665_19132.JPEG
subject-03,1,553,0.62065601348877,oven,clock,c03,0552_con_s03_c03_clock_10_n03196217_1458.JPEG
subject-03,1,554,1.18707895278931,dog,dog,c100,0553_con_s03_c100_dog_10_n02106662_2978.JPEG
subject-03,1,555,0.745867013931274,boat,bicycle,c01,0554_con_s03_c01_bicycle_10_n03792782_176.JPEG
subject-03,1,556,0.922873973846436,dog,dog,c50,0555_con_s03_c50_dog_10_n02097130_310.JPEG
subject-03,1,557,0.881098031997681,dog,bottle,c30,0556_con_s03_c30_bottle_10_n04557648_9084.JPEG
subject-03,1,558,0.833621978759766,keyboard,clock,c30,0557_con_s03_c30_clock_10_n03196217_2628.JPEG
subject-03,1,559,0.976097822189331,elephant,elephant,c100,0558_con_s03_c100_elephant_10_n02504013_464.JPEG
subject-03,1,560,0.752629041671753,keyboard,keyboard,c10,0559_con_s03_c10_keyboard_10_n04505470_4369.JPEG
subject-03,1,561,0.513592004776001,boat,chair,c05,0560_con_s03_c05_chair_10_n03376595_16362.JPEG
subject-03,1,562,0.817755937576294,cat,cat,c50,0561_con_s03_c50_cat_10_n02123597_5181.JPEG
subject-03,1,563,0.70841383934021,keyboard,keyboard,c50,0562_con_s03_c50_keyboard_10_n03085013_2139.JPEG
subject-03,1,564,0.682650089263916,cat,cat,c10,0563_con_s03_c10_cat_10_n02123045_874.JPEG
subject-03,1,565,1.01938390731812,knife,bear,c03,0564_con_s03_c03_bear_10_n02133161_5616.JPEG
subject-03,1,566,0.755973100662231,bottle,bottle,c10,0565_con_s03_c10_bottle_10_n04560804_4236.JPEG
subject-03,1,567,0.754204988479614,boat,knife,c01,0566_con_s03_c01_knife_10_n03041632_8528.JPEG
subject-03,1,568,0.598992824554443,boat,bear,c03,0567_con_s03_c03_bear_10_n02134418_1081.JPEG
subject-03,1,569,0.735527992248535,airplane,airplane,c03,0568_con_s03_c03_airplane_10_n02690373_734.JPEG
subject-03,1,570,0.594286918640137,cat,dog,c05,0569_con_s03_c05_dog_10_n02095570_1487.JPEG
subject-03,1,571,0.890951871871948,bird,bird,c50,0570_con_s03_c50_bird_10_n01534433_15722.JPEG
subject-03,1,572,0.729140996932983,oven,chair,c15,0571_con_s03_c15_chair_10_n04429376_31962.JPEG
subject-03,1,573,0.695891857147217,truck,truck,c15,0572_con_s03_c15_truck_10_n03417042_8928.JPEG
subject-03,1,574,0.670312166213989,oven,clock,c03,0573_con_s03_c03_clock_10_n03196217_1374.JPEG
subject-03,1,575,0.920536041259766,truck,truck,c50,0574_con_s03_c50_truck_10_n03417042_3376.JPEG
subject-03,1,576,0.611278057098389,oven,boat,c01,0575_con_s03_c01_boat_10_n03662601_8291.JPEG
subject-03,1,577,0.593870878219604,boat,elephant,c50,0576_con_s03_c50_elephant_10_n02504013_64.JPEG
subject-03,1,578,0.622224807739258,oven,elephant,c01,0577_con_s03_c01_elephant_10_n02504458_6715.JPEG
subject-03,1,579,0.812991142272949,airplane,airplane,c03,0578_con_s03_c03_airplane_10_n02690373_5628.JPEG
subject-03,1,580,0.635817050933838,car,boat,c50,0579_con_s03_c50_boat_10_n02951358_10162.JPEG
subject-03,1,581,0.72644305229187,car,car,c15,0580_con_s03_c15_car_10_n04285008_8898.JPEG
subject-03,1,582,0.884702205657959,bird,bird,c30,0581_con_s03_c30_bird_10_n01855672_6812.JPEG
subject-03,1,583,0.783190965652466,clock,clock,c05,0582_con_s03_c05_clock_10_n04548280_7571.JPEG
subject-03,1,584,0.6496741771698,keyboard,keyboard,c50,0583_con_s03_c50_keyboard_10_n04505470_1914.JPEG
subject-03,1,585,0.832455158233643,bird,bird,c100,0584_con_s03_c100_bird_10_n01514859_9395.JPEG
subject-03,1,586,0.701112985610962,bicycle,bicycle,c100,0585_con_s03_c100_bicycle_10_n03792782_17796.JPEG
subject-03,1,587,0.7916579246521,oven,bicycle,c01,0586_con_s03_c01_bicycle_10_n02835271_24368.JPEG
subject-03,1,588,0.749906778335571,airplane,airplane,c10,0587_con_s03_c10_airplane_10_n02690373_111.JPEG
subject-03,1,589,1.03278684616089,dog,bear,c10,0588_con_s03_c10_bear_10_n02134084_20837.JPEG
subject-03,1,590,0.625777959823608,airplane,bottle,c15,0589_con_s03_c15_bottle_10_n04591713_7316.JPEG
subject-03,1,591,0.6840660572052,bear,elephant,c10,0590_con_s03_c10_elephant_10_n02504013_10521.JPEG
subject-03,1,592,0.790672063827515,bird,bird,c15,0591_con_s03_c15_bird_10_n02017213_4282.JPEG
subject-03,1,593,0.635082960128784,knife,knife,c30,0592_con_s03_c30_knife_10_n03041632_51766.JPEG
subject-03,1,594,0.547719955444336,oven,bottle,c01,0593_con_s03_c01_bottle_10_n03983396_4752.JPEG
subject-03,1,595,1.22211098670959,truck,truck,c10,0594_con_s03_c10_truck_10_n03417042_1907.JPEG
subject-03,1,596,NaN,na,knife,c15,0595_con_s03_c15_knife_10_n03041632_86251.JPEG
subject-03,1,597,0.611178874969482,bear,bear,c100,0596_con_s03_c100_bear_10_n02134084_3840.JPEG
subject-03,1,598,0.640182971954346,bicycle,bicycle,c10,0597_con_s03_c10_bicycle_10_n03792782_26552.JPEG
subject-03,1,599,NaN,na,cat,c01,0598_con_s03_c01_cat_10_n02125311_2686.JPEG
subject-03,1,600,0.897196054458618,bird,bird,c10,0599_con_s03_c10_bird_10_n02002724_1411.JPEG
subject-03,1,601,0.819593906402588,elephant,dog,c15,0600_con_s03_c15_dog_10_n02097474_6892.JPEG
subject-03,1,602,0.610144853591919,bear,elephant,c30,0601_con_s03_c30_elephant_10_n02504458_3628.JPEG
subject-03,1,603,0.754511117935181,keyboard,keyboard,c10,0602_con_s03_c10_keyboard_10_n04505470_6426.JPEG
subject-03,1,604,0.683025121688843,cat,keyboard,c01,0603_con_s03_c01_keyboard_10_n04505470_4805.JPEG
subject-03,1,605,0.697479963302612,airplane,bear,c15,0604_con_s03_c15_bear_10_n02134084_24140.JPEG
subject-03,1,606,NaN,na,bird,c30,0605_con_s03_c30_bird_10_n01560419_5993.JPEG
subject-03,1,607,1.02235198020935,bicycle,truck,c05,0606_con_s03_c05_truck_10_n03417042_9305.JPEG
subject-03,1,608,1.00382804870605,bear,oven,c30,0607_con_s03_c30_oven_10_n04111531_4327.JPEG
subject-03,1,609,0.686300992965698,cat,cat,c100,0608_con_s03_c100_cat_10_n02125311_36776.JPEG
subject-03,1,610,0.693387985229492,airplane,airplane,c100,0609_con_s03_c100_airplane_10_n02690373_6845.JPEG
subject-03,1,611,0.943818092346191,elephant,elephant,c03,0610_con_s03_c03_elephant_10_n02504013_15805.JPEG
subject-03,1,612,0.896125078201294,cat,cat,c50,0611_con_s03_c50_cat_10_n02125311_15274.JPEG
subject-03,1,613,0.610288143157959,oven,oven,c15,0612_con_s03_c15_oven_10_n04111531_4939.JPEG
subject-03,1,614,1.02336192131042,truck,truck,c05,0613_con_s03_c05_truck_10_n04467665_3038.JPEG
subject-03,1,615,0.851619005203247,keyboard,keyboard,c100,0614_con_s03_c100_keyboard_10_n03085013_3257.JPEG
subject-03,1,616,1.02623200416565,bicycle,keyboard,c30,0615_con_s03_c30_keyboard_10_n04505470_8828.JPEG
subject-03,1,617,0.686914920806885,oven,truck,c01,0616_con_s03_c01_truck_10_n03796401_2751.JPEG
subject-03,1,618,0.839544057846069,airplane,airplane,c15,0617_con_s03_c15_airplane_10_n02690373_13283.JPEG
subject-03,1,619,NaN,na,bottle,c01,0618_con_s03_c01_bottle_10_n03937543_5703.JPEG
subject-03,1,620,0.750523805618286,clock,clock,c30,0619_con_s03_c30_clock_10_n02708093_8038.JPEG
subject-03,1,621,0.841464996337891,keyboard,chair,c30,0620_con_s03_c30_chair_10_n03376595_17093.JPEG
subject-03,1,622,1.16197109222412,knife,oven,c15,0621_con_s03_c15_oven_10_n04111531_12080.JPEG
subject-03,1,623,0.944541215896606,boat,bicycle,c01,0622_con_s03_c01_bicycle_10_n02835271_10764.JPEG
subject-03,1,624,0.780961990356445,car,airplane,c01,0623_con_s03_c01_airplane_10_n02690373_17307.JPEG
subject-03,1,625,0.879239082336426,clock,clock,c30,0624_con_s03_c30_clock_10_n03196217_8198.JPEG
subject-03,1,626,1.29208016395569,bird,bear,c05,0625_con_s03_c05_bear_10_n02133161_8677.JPEG
subject-03,1,627,0.6059730052948,oven,truck,c03,0626_con_s03_c03_truck_10_n04467665_20185.JPEG
subject-03,1,628,0.8018639087677,bicycle,bicycle,c10,0627_con_s03_c10_bicycle_10_n02835271_6481.JPEG
subject-03,1,629,NaN,na,cat,c05,0628_con_s03_c05_cat_10_n02123597_62.JPEG
subject-03,1,630,NaN,na,bear,c10,0629_con_s03_c10_bear_10_n02134418_1249.JPEG
subject-03,1,631,0.955199003219604,bicycle,bicycle,c100,0630_con_s03_c100_bicycle_10_n02835271_10813.JPEG
subject-03,1,632,0.794173002243042,knife,knife,c03,0631_con_s03_c03_knife_10_n03041632_27848.JPEG
subject-03,1,633,0.876611948013306,bottle,bottle,c30,0632_con_s03_c30_bottle_10_n03983396_2150.JPEG
subject-03,1,634,0.827184915542603,elephant,elephant,c100,0633_con_s03_c100_elephant_10_n02504458_6109.JPEG
subject-03,1,635,0.817761182785034,cat,oven,c10,0634_con_s03_c10_oven_10_n04111531_7421.JPEG
subject-03,1,636,1.1760368347168,knife,knife,c100,0635_con_s03_c100_knife_10_n03041632_13130.JPEG
subject-03,1,637,0.560812950134277,cat,chair,c03,0636_con_s03_c03_chair_10_n02791124_992.JPEG
subject-03,1,638,0.781122922897339,boat,boat,c30,0637_con_s03_c30_boat_10_n04273569_3409.JPEG
subject-03,1,639,0.809727907180786,oven,dog,c03,0638_con_s03_c03_dog_10_n02105056_6316.JPEG
subject-03,1,640,0.58641791343689,cat,cat,c05,0639_con_s03_c05_cat_10_n02123394_2461.JPEG
subject-03,1,641,0.724545001983643,bear,bear,c15,0640_con_s03_c15_bear_10_n02134084_4716.JPEG
subject-03,1,642,0.723052978515625,bird,bird,c50,0641_con_s03_c50_bird_10_n01843065_7317.JPEG
subject-03,1,643,0.65164589881897,cat,bear,c15,0642_con_s03_c15_bear_10_n02134418_432.JPEG
subject-03,1,644,0.879781007766724,bird,bird,c100,0643_con_s03_c100_bird_10_n02002724_7067.JPEG
subject-03,1,645,0.762691974639893,bottle,bottle,c15,0644_con_s03_c15_bottle_10_n04557648_4428.JPEG
subject-03,1,646,1.06072187423706,bottle,knife,c30,0645_con_s03_c30_knife_10_n03041632_21723.JPEG
subject-03,1,647,0.719280004501343,bicycle,bicycle,c30,0646_con_s03_c30_bicycle_10_n02835271_3110.JPEG
subject-03,1,648,0.758187055587769,bear,bear,c50,0647_con_s03_c50_bear_10_n02134418_1969.JPEG
subject-03,1,649,0.656636953353882,oven,clock,c01,0648_con_s03_c01_clock_10_n04548280_3245.JPEG
subject-03,1,650,0.76913595199585,bicycle,bicycle,c100,0649_con_s03_c100_bicycle_10_n02835271_12597.JPEG
subject-03,1,651,0.551827907562256,oven,keyboard,c03,0650_con_s03_c03_keyboard_10_n04505470_6638.JPEG
subject-03,1,652,0.885013103485107,oven,chair,c05,0651_con_s03_c05_chair_10_n02791124_2286.JPEG
subject-03,1,653,0.921828031539917,boat,boat,c05,0652_con_s03_c05_boat_10_n03662601_3628.JPEG
subject-03,1,654,0.674178838729858,boat,boat,c10,0653_con_s03_c10_boat_10_n03662601_12649.JPEG
subject-03,1,655,0.853762865066528,elephant,elephant,c30,0654_con_s03_c30_elephant_10_n02504458_8526.JPEG
subject-03,1,656,1.15201902389526,elephant,elephant,c100,0655_con_s03_c100_elephant_10_n02504458_13382.JPEG
subject-03,1,657,0.704501152038574,airplane,airplane,c10,0656_con_s03_c10_airplane_10_n02690373_4893.JPEG
subject-03,1,658,0.779146909713745,airplane,oven,c05,0657_con_s03_c05_oven_10_n04111531_1708.JPEG
subject-03,1,659,0.69385290145874,boat,boat,c10,0658_con_s03_c10_boat_10_n02951358_13687.JPEG
subject-03,1,660,0.584347009658813,boat,car,c05,0659_con_s03_c05_car_10_n02814533_9936.JPEG
subject-03,1,661,0.943177938461304,bird,bird,c100,0660_con_s03_c100_bird_10_n01797886_23440.JPEG
subject-03,1,662,0.947319984436035,bird,bottle,c03,0661_con_s03_c03_bottle_10_n04591713_5749.JPEG
subject-03,1,663,0.590924978256226,oven,chair,c01,0662_con_s03_c01_chair_10_n03376595_12960.JPEG
subject-03,1,664,0.795444011688232,bottle,bottle,c100,0663_con_s03_c100_bottle_10_n03983396_5363.JPEG
subject-03,1,665,0.655786037445068,boat,boat,c05,0664_con_s03_c05_boat_10_n03344393_6128.JPEG
subject-03,1,666,0.71630597114563,clock,clock,c100,0665_con_s03_c100_clock_10_n02708093_3352.JPEG
subject-03,1,667,0.67533802986145,oven,dog,c01,0666_con_s03_c01_dog_10_n02099429_3213.JPEG
subject-03,1,668,0.749781847000122,clock,clock,c10,0667_con_s03_c10_clock_10_n03196217_66.JPEG
subject-03,1,669,0.634239912033081,oven,bottle,c50,0668_con_s03_c50_bottle_10_n02823428_4162.JPEG
subject-03,1,670,0.884675025939941,keyboard,keyboard,c15,0669_con_s03_c15_keyboard_10_n04505470_4138.JPEG
subject-03,1,671,1.08936309814453,dog,dog,c50,0670_con_s03_c50_dog_10_n02094433_4091.JPEG
subject-03,1,672,0.633740186691284,keyboard,keyboard,c15,0671_con_s03_c15_keyboard_10_n04505470_4400.JPEG
subject-03,1,673,0.670387983322144,cat,cat,c100,0672_con_s03_c100_cat_10_n02124075_3699.JPEG
subject-03,1,674,0.736741781234741,bird,bird,c05,0673_con_s03_c05_bird_10_n01828970_4857.JPEG
subject-03,1,675,0.667205095291138,cat,chair,c10,0674_con_s03_c10_chair_10_n04429376_27135.JPEG
subject-03,1,676,0.863248109817505,clock,bear,c10,0675_con_s03_c10_bear_10_n02134084_8153.JPEG
subject-03,1,677,1.15371894836426,bicycle,bicycle,c05,0676_con_s03_c05_bicycle_10_n02835271_29266.JPEG
subject-03,1,678,1.2122700214386,knife,chair,c05,0677_con_s03_c05_chair_10_n04429376_33792.JPEG
subject-03,1,679,0.756962060928345,keyboard,knife,c05,0678_con_s03_c05_knife_10_n03041632_18601.JPEG
subject-03,1,680,NaN,na,dog,c01,0679_con_s03_c01_dog_10_n02093256_1704.JPEG
subject-03,1,681,0.783803939819336,oven,bear,c30,0680_con_s03_c30_bear_10_n02134084_9307.JPEG
subject-03,1,682,0.766440868377686,clock,chair,c01,0681_con_s03_c01_chair_10_n04099969_18135.JPEG
subject-03,1,683,1.10285401344299,knife,boat,c03,0682_con_s03_c03_boat_10_n03662601_81.JPEG
subject-03,1,684,0.823318004608154,keyboard,keyboard,c50,0683_con_s03_c50_keyboard_10_n03085013_20303.JPEG
subject-03,1,685,0.621843099594116,boat,bottle,c05,0684_con_s03_c05_bottle_10_n03983396_11885.JPEG
subject-03,1,686,0.542248964309692,cat,bicycle,c03,0685_con_s03_c03_bicycle_10_n03792782_1769.JPEG
subject-03,1,687,1.00898098945618,clock,chair,c50,0686_con_s03_c50_chair_10_n04429376_10438.JPEG
subject-03,1,688,0.685386896133423,keyboard,keyboard,c10,0687_con_s03_c10_keyboard_10_n04505470_10076.JPEG
subject-03,1,689,0.835860013961792,airplane,oven,c10,0688_con_s03_c10_oven_10_n04111531_11221.JPEG
subject-03,1,690,0.710387945175171,boat,bottle,c01,0689_con_s03_c01_bottle_10_n04560804_450.JPEG
subject-03,1,691,0.592705011367798,cat,cat,c15,0690_con_s03_c15_cat_10_n02123394_2692.JPEG
subject-03,1,692,0.569195985794067,airplane,clock,c10,0691_con_s03_c10_clock_10_n04548280_7826.JPEG
subject-03,1,693,NaN,na,bear,c100,0692_con_s03_c100_bear_10_n02133161_4398.JPEG
subject-03,1,694,0.926419973373413,bear,bear,c50,0693_con_s03_c50_bear_10_n02134084_18945.JPEG
subject-03,1,695,0.939232110977173,car,car,c10,0694_con_s03_c10_car_10_n03100240_17202.JPEG
subject-03,1,696,0.697484970092773,oven,chair,c03,0695_con_s03_c03_chair_10_n02791124_15934.JPEG
subject-03,1,697,1.08012890815735,knife,clock,c03,0696_con_s03_c03_clock_10_n02708093_1015.JPEG
subject-03,1,698,1.12277817726135,airplane,airplane,c05,0697_con_s03_c05_airplane_10_n02690373_5565.JPEG
subject-03,1,699,1.02905321121216,car,car,c05,0698_con_s03_c05_car_10_n02814533_48575.JPEG
subject-03,1,700,0.72747278213501,oven,knife,c01,0699_con_s03_c01_knife_10_n03041632_51339.JPEG
subject-03,1,701,0.764157056808472,cat,cat,c30,0700_con_s03_c30_cat_10_n02123045_21147.JPEG
subject-03,1,702,0.876590013504028,truck,truck,c100,0701_con_s03_c100_truck_10_n04467665_10306.JPEG
subject-03,1,703,1.08140397071838,airplane,bicycle,c50,0702_con_s03_c50_bicycle_10_n03792782_14907.JPEG
subject-03,1,704,0.720211029052734,cat,bird,c03,0703_con_s03_c03_bird_10_n02009229_12346.JPEG
subject-03,1,705,1.11670112609863,cat,cat,c15,0704_con_s03_c15_cat_10_n02123394_6265.JPEG
subject-03,1,706,0.883308887481689,car,car,c05,0705_con_s03_c05_car_10_n03100240_22356.JPEG
subject-03,1,707,1.27386689186096,knife,clock,c50,0706_con_s03_c50_clock_10_n04548280_5405.JPEG
subject-03,1,708,0.772418975830078,cat,knife,c01,0707_con_s03_c01_knife_10_n03041632_5727.JPEG
subject-03,1,709,0.73761510848999,clock,boat,c10,0708_con_s03_c10_boat_10_n03662601_25914.JPEG
subject-03,1,710,0.874279975891113,knife,knife,c30,0709_con_s03_c30_knife_10_n03041632_11932.JPEG
subject-03,1,711,0.824811935424805,clock,knife,c100,0710_con_s03_c100_knife_10_n03041632_7982.JPEG
subject-03,1,712,0.601028919219971,cat,dog,c30,0711_con_s03_c30_dog_10_n02096585_10029.JPEG
subject-03,1,713,0.729889869689941,oven,knife,c01,0712_con_s03_c01_knife_10_n03041632_46091.JPEG
subject-03,1,714,0.59627890586853,oven,knife,c03,0713_con_s03_c03_knife_10_n03041632_37536.JPEG
subject-03,1,715,0.692528009414673,clock,knife,c50,0714_con_s03_c50_knife_10_n03041632_17100.JPEG
subject-03,1,716,1.05869221687317,knife,knife,c10,0715_con_s03_c10_knife_10_n03041632_15431.JPEG
subject-03,1,717,0.70350980758667,boat,bird,c30,0716_con_s03_c30_bird_10_n02028035_4441.JPEG
subject-03,1,718,0.756396055221558,boat,keyboard,c03,0717_con_s03_c03_keyboard_10_n04505470_4500.JPEG
subject-03,1,719,1.1906259059906,elephant,bear,c30,0718_con_s03_c30_bear_10_n02133161_12152.JPEG
subject-03,1,720,1.11009120941162,truck,truck,c100,0719_con_s03_c100_truck_10_n03417042_28700.JPEG
subject-03,1,721,0.717038869857788,cat,car,c01,0720_con_s03_c01_car_10_n03100240_5979.JPEG
subject-03,1,722,NaN,na,bird,c03,0721_con_s03_c03_bird_10_n01532829_298.JPEG
subject-03,1,723,0.68195104598999,clock,clock,c50,0722_con_s03_c50_clock_10_n04548280_2957.JPEG
subject-03,1,724,0.670577049255371,clock,clock,c50,0723_con_s03_c50_clock_10_n04548280_7539.JPEG
subject-03,1,725,0.853165149688721,boat,boat,c10,0724_con_s03_c10_boat_10_n04273569_27337.JPEG
subject-03,1,726,0.629292011260986,cat,airplane,c05,0725_con_s03_c05_airplane_10_n02690373_1087.JPEG
subject-03,1,727,0.588405132293701,clock,oven,c10,0726_con_s03_c10_oven_10_n04111531_121.JPEG
subject-03,1,728,0.700702905654907,clock,clock,c100,0727_con_s03_c100_clock_10_n02708093_320.JPEG
subject-03,1,729,0.783404111862183,boat,truck,c05,0728_con_s03_c05_truck_10_n03417042_3643.JPEG
subject-03,1,730,0.781952142715454,airplane,airplane,c30,0729_con_s03_c30_airplane_10_n02690373_2155.JPEG
subject-03,1,731,0.836839914321899,cat,cat,c03,0730_con_s03_c03_cat_10_n02123394_3714.JPEG
subject-03,1,732,0.873378038406372,oven,knife,c30,0731_con_s03_c30_knife_10_n03041632_33225.JPEG
subject-03,1,733,1.02612495422363,chair,bottle,c100,0732_con_s03_c100_bottle_10_n03937543_5619.JPEG
subject-03,1,734,0.554850101470947,boat,boat,c30,0733_con_s03_c30_boat_10_n03662601_16515.JPEG
subject-03,1,735,0.645066976547241,boat,airplane,c50,0734_con_s03_c50_airplane_10_n02690373_4982.JPEG
subject-03,1,736,0.850120782852173,clock,boat,c03,0735_con_s03_c03_boat_10_n02951358_15309.JPEG
subject-03,1,737,0.740594863891602,keyboard,keyboard,c100,0736_con_s03_c100_keyboard_10_n04505470_4685.JPEG
subject-03,1,738,NaN,na,oven,c01,0737_con_s03_c01_oven_10_n04111531_7821.JPEG
subject-03,1,739,0.505645990371704,boat,airplane,c01,0738_con_s03_c01_airplane_10_n02690373_3032.JPEG
subject-03,1,740,0.710363864898682,boat,bird,c01,0739_con_s03_c01_bird_10_n01537544_3424.JPEG
subject-03,1,741,0.900434970855713,dog,dog,c30,0740_con_s03_c30_dog_10_n02097209_7278.JPEG
subject-03,1,742,0.836908102035522,elephant,elephant,c10,0741_con_s03_c10_elephant_10_n02504013_10628.JPEG
subject-03,1,743,0.459443807601929,boat,truck,c01,0742_con_s03_c01_truck_10_n03417042_23445.JPEG
subject-03,1,744,0.91028904914856,knife,knife,c10,0743_con_s03_c10_knife_10_n03041632_18995.JPEG
subject-03,1,745,0.752891063690186,oven,oven,c03,0744_con_s03_c03_oven_10_n04111531_2006.JPEG
subject-03,1,746,0.743353128433228,airplane,airplane,c15,0745_con_s03_c15_airplane_10_n02690373_20690.JPEG
subject-03,1,747,0.77995777130127,bottle,knife,c03,0746_con_s03_c03_knife_10_n03041632_3781.JPEG
subject-03,1,748,0.792261123657227,clock,boat,c01,0747_con_s03_c01_boat_10_n04612504_10005.JPEG
subject-03,1,749,0.80463719367981,boat,boat,c50,0748_con_s03_c50_boat_10_n04273569_1469.JPEG
subject-03,1,750,0.824855089187622,bicycle,bicycle,c50,0749_con_s03_c50_bicycle_10_n03792782_63173.JPEG
subject-03,1,751,0.899538040161133,boat,boat,c100,0750_con_s03_c100_boat_10_n03662601_23130.JPEG
subject-03,1,752,0.79801607131958,airplane,airplane,c03,0751_con_s03_c03_airplane_10_n02690373_5075.JPEG
subject-03,1,753,0.704397916793823,bird,bird,c15,0752_con_s03_c15_bird_10_n02013706_17665.JPEG
subject-03,1,754,0.639214038848877,boat,boat,c50,0753_con_s03_c50_boat_10_n03344393_9697.JPEG
subject-03,1,755,0.661580085754395,clock,clock,c50,0754_con_s03_c50_clock_10_n04548280_8883.JPEG
subject-03,1,756,0.774152040481567,bottle,bottle,c10,0755_con_s03_c10_bottle_10_n02823428_13102.JPEG
subject-03,1,757,0.716535091400146,clock,cat,c03,0756_con_s03_c03_cat_10_n02125311_16955.JPEG
subject-03,1,758,0.85286808013916,elephant,elephant,c30,0757_con_s03_c30_elephant_10_n02504458_2662.JPEG
subject-03,1,759,0.535445928573608,boat,elephant,c01,0758_con_s03_c01_elephant_10_n02504013_10793.JPEG
subject-03,1,760,0.772064924240112,elephant,bottle,c03,0759_con_s03_c03_bottle_10_n03937543_5945.JPEG
subject-03,1,761,0.84637713432312,airplane,airplane,c10,0760_con_s03_c10_airplane_10_n02690373_1891.JPEG
subject-03,1,762,0.727098941802979,keyboard,keyboard,c50,0761_con_s03_c50_keyboard_10_n03085013_20462.JPEG
subject-03,1,763,0.64165997505188,clock,car,c01,0762_con_s03_c01_car_10_n04285008_2834.JPEG
subject-03,1,764,1.06838512420654,elephant,elephant,c10,0763_con_s03_c10_elephant_10_n02504013_23548.JPEG
subject-03,1,765,0.652846813201904,keyboard,keyboard,c50,0764_con_s03_c50_keyboard_10_n03085013_24172.JPEG
subject-03,1,766,0.781387090682983,dog,dog,c100,0765_con_s03_c100_dog_10_n02105855_4871.JPEG
subject-03,1,767,0.739696025848389,cat,cat,c03,0766_con_s03_c03_cat_10_n02123159_3198.JPEG
subject-03,1,768,1.04431295394897,dog,dog,c10,0767_con_s03_c10_dog_10_n02100236_4968.JPEG
subject-03,1,769,0.78801703453064,keyboard,keyboard,c10,0768_con_s03_c10_keyboard_10_n03085013_22686.JPEG
subject-03,1,770,0.655045986175537,oven,oven,c50,0769_con_s03_c50_oven_10_n04111531_3717.JPEG
subject-03,1,771,0.92936897277832,knife,knife,c10,0770_con_s03_c10_knife_10_n03041632_23803.JPEG
subject-03,1,772,1.08774614334106,bear,cat,c15,0771_con_s03_c15_cat_10_n02125311_37248.JPEG
subject-03,1,773,NaN,na,knife,c100,0772_con_s03_c100_knife_10_n03041632_11495.JPEG
subject-03,1,774,0.952752828598022,airplane,bird,c01,0773_con_s03_c01_bird_10_n02027492_3813.JPEG
subject-03,1,775,1.08139610290527,knife,bicycle,c10,0774_con_s03_c10_bicycle_10_n03792782_14262.JPEG
subject-03,1,776,0.931948900222778,keyboard,keyboard,c100,0775_con_s03_c100_keyboard_10_n03085013_11332.JPEG
subject-03,1,777,1.00045299530029,boat,truck,c50,0776_con_s03_c50_truck_10_n04467665_68020.JPEG
subject-03,1,778,0.942794799804688,airplane,car,c03,0777_con_s03_c03_car_10_n04285008_4525.JPEG
subject-03,1,779,0.779825925827026,keyboard,keyboard,c15,0778_con_s03_c15_keyboard_10_n04505470_186.JPEG
subject-03,1,780,0.932211875915527,bird,bird,c30,0779_con_s03_c30_bird_10_n01582220_10927.JPEG
subject-03,1,781,0.866780996322632,knife,knife,c30,0780_con_s03_c30_knife_10_n03041632_20697.JPEG
subject-03,1,782,0.886835098266602,clock,clock,c10,0781_con_s03_c10_clock_10_n04548280_280.JPEG
subject-03,1,783,0.631186008453369,keyboard,keyboard,c05,0782_con_s03_c05_keyboard_10_n04505470_9741.JPEG
subject-03,1,784,0.705847024917603,boat,boat,c30,0783_con_s03_c30_boat_10_n03344393_10284.JPEG
subject-03,1,785,0.504444122314453,oven,chair,c100,0784_con_s03_c100_chair_10_n02791124_4977.JPEG
subject-03,1,786,0.729419946670532,keyboard,chair,c50,0785_con_s03_c50_chair_10_n03376595_5294.JPEG
subject-03,1,787,0.642270088195801,car,car,c15,0786_con_s03_c15_car_10_n04285008_7375.JPEG
subject-03,1,788,0.76228404045105,boat,keyboard,c01,0787_con_s03_c01_keyboard_10_n04505470_4702.JPEG
subject-03,1,789,0.75291895866394,cat,bicycle,c05,0788_con_s03_c05_bicycle_10_n02835271_9296.JPEG
subject-03,1,790,0.734861135482788,bird,bird,c100,0789_con_s03_c100_bird_10_n01796340_2306.JPEG
subject-03,1,791,0.739389896392822,bottle,bottle,c15,0790_con_s03_c15_bottle_10_n03983396_14326.JPEG
subject-03,1,792,0.576020002365112,cat,cat,c50,0791_con_s03_c50_cat_10_n02123394_1964.JPEG
subject-03,1,793,0.688477993011475,dog,dog,c50,0792_con_s03_c50_dog_10_n02095314_1407.JPEG
subject-03,1,794,0.730860948562622,cat,bottle,c01,0793_con_s03_c01_bottle_10_n04560804_1695.JPEG
subject-03,1,795,0.645209074020386,car,car,c50,0794_con_s03_c50_car_10_n03100240_3267.JPEG
subject-03,1,796,0.671686887741089,cat,bird,c30,0795_con_s03_c30_bird_10_n02007558_9659.JPEG
subject-03,1,797,0.691873073577881,oven,oven,c50,0796_con_s03_c50_oven_10_n04111531_2943.JPEG
subject-03,1,798,0.558280944824219,airplane,airplane,c10,0797_con_s03_c10_airplane_10_n02690373_5689.JPEG
subject-03,1,799,NaN,na,bird,c01,0798_con_s03_c01_bird_10_n02018207_8876.JPEG
subject-03,1,800,1.32157611846924,truck,truck,c03,0799_con_s03_c03_truck_10_n03417042_9018.JPEG
subject-03,1,801,0.795933961868286,bird,bird,c50,0800_con_s03_c50_bird_10_n02009229_3559.JPEG
subject-03,1,802,0.810564994812012,bottle,bottle,c30,0801_con_s03_c30_bottle_10_n02823428_715.JPEG
subject-03,1,803,0.522922992706299,bird,bird,c10,0802_con_s03_c10_bird_10_n01601694_3221.JPEG
subject-03,1,804,0.62960410118103,cat,truck,c05,0803_con_s03_c05_truck_10_n03796401_25102.JPEG
subject-03,1,805,0.894231081008911,elephant,elephant,c30,0804_con_s03_c30_elephant_10_n02504013_5439.JPEG
subject-03,1,806,0.700639009475708,boat,boat,c100,0805_con_s03_c100_boat_10_n04273569_3430.JPEG
subject-03,1,807,0.843222141265869,bicycle,bicycle,c50,0806_con_s03_c50_bicycle_10_n02835271_5648.JPEG
subject-03,1,808,0.671704053878784,boat,boat,c30,0807_con_s03_c30_boat_10_n03662601_34152.JPEG
subject-03,1,809,0.692303895950317,chair,chair,c30,0808_con_s03_c30_chair_10_n04429376_20220.JPEG
subject-03,1,810,0.672425985336304,boat,elephant,c01,0809_con_s03_c01_elephant_10_n02504458_11270.JPEG
subject-03,1,811,0.771162033081055,cat,keyboard,c01,0810_con_s03_c01_keyboard_10_n04505470_2089.JPEG
subject-03,1,812,1.05425786972046,truck,truck,c10,0811_con_s03_c10_truck_10_n03796401_2447.JPEG
subject-03,1,813,0.666593074798584,boat,boat,c10,0812_con_s03_c10_boat_10_n03662601_5021.JPEG
subject-03,1,814,1.26278400421143,elephant,elephant,c05,0813_con_s03_c05_elephant_10_n02504013_1698.JPEG
subject-03,1,815,0.728792905807495,chair,chair,c50,0814_con_s03_c50_chair_10_n02791124_5415.JPEG
subject-03,1,816,0.749150037765503,chair,bear,c03,0815_con_s03_c03_bear_10_n02133161_6538.JPEG
subject-03,1,817,0.937180042266846,elephant,elephant,c100,0816_con_s03_c100_elephant_10_n02504013_3109.JPEG
subject-03,1,818,0.64969277381897,boat,elephant,c01,0817_con_s03_c01_elephant_10_n02504458_7857.JPEG
subject-03,1,819,1.18637299537659,car,car,c100,0818_con_s03_c100_car_10_n04285008_14119.JPEG
subject-03,1,820,0.977077007293701,chair,chair,c30,0819_con_s03_c30_chair_10_n02791124_367.JPEG
subject-03,1,821,0.727613925933838,boat,clock,c03,0820_con_s03_c03_clock_10_n04548280_5629.JPEG
subject-03,1,822,0.710105180740356,car,boat,c05,0821_con_s03_c05_boat_10_n04273569_17942.JPEG
subject-03,1,823,0.668622016906738,chair,knife,c15,0822_con_s03_c15_knife_10_n03041632_36806.JPEG
subject-03,1,824,0.69697904586792,bicycle,bicycle,c10,0823_con_s03_c10_bicycle_10_n02835271_13063.JPEG
subject-03,1,825,0.803929090499878,dog,dog,c05,0824_con_s03_c05_dog_10_n02104365_10032.JPEG
subject-03,1,826,0.922214984893799,elephant,elephant,c15,0825_con_s03_c15_elephant_10_n02504458_242.JPEG
subject-03,1,827,0.804837942123413,car,car,c05,0826_con_s03_c05_car_10_n03100240_7883.JPEG
subject-03,1,828,0.695189952850342,keyboard,keyboard,c50,0827_con_s03_c50_keyboard_10_n03085013_14279.JPEG
subject-03,1,829,0.921608209609985,keyboard,clock,c01,0828_con_s03_c01_clock_10_n04548280_584.JPEG
subject-03,1,830,1.34207701683044,dog,dog,c15,0829_con_s03_c15_dog_10_n02101556_58.JPEG
subject-03,1,831,0.710524797439575,boat,boat,c100,0830_con_s03_c100_boat_10_n04273569_17320.JPEG
subject-03,1,832,0.547297954559326,boat,oven,c01,0831_con_s03_c01_oven_10_n04111531_5102.JPEG
subject-03,1,833,1.03555083274841,knife,knife,c100,0832_con_s03_c100_knife_10_n03041632_32774.JPEG
subject-03,1,834,0.964527130126953,bear,bear,c05,0833_con_s03_c05_bear_10_n02134084_8039.JPEG
subject-03,1,835,0.822867155075073,bicycle,bicycle,c30,0834_con_s03_c30_bicycle_10_n02835271_13919.JPEG
subject-03,1,836,1.04939889907837,boat,airplane,c03,0835_con_s03_c03_airplane_10_n02690373_3511.JPEG
subject-03,1,837,NaN,na,clock,c01,0836_con_s03_c01_clock_10_n03196217_1194.JPEG
subject-03,1,838,0.567886829376221,boat,elephant,c05,0837_con_s03_c05_elephant_10_n02504458_2429.JPEG
subject-03,1,839,0.934165000915527,bird,bird,c30,0838_con_s03_c30_bird_10_n01601694_7633.JPEG
subject-03,1,840,1.03092217445374,elephant,bear,c05,0839_con_s03_c05_bear_10_n02132136_3331.JPEG
subject-03,1,841,0.721292018890381,clock,clock,c10,0840_con_s03_c10_clock_10_n02708093_7136.JPEG
subject-03,1,842,1.09410095214844,elephant,elephant,c100,0841_con_s03_c100_elephant_10_n02504458_7866.JPEG
subject-03,1,843,0.616779088973999,truck,truck,c30,0842_con_s03_c30_truck_10_n03417042_11439.JPEG
subject-03,1,844,0.675312995910645,bicycle,bicycle,c05,0843_con_s03_c05_bicycle_10_n02835271_8788.JPEG
subject-03,1,845,0.91764497756958,bird,bird,c100,0844_con_s03_c100_bird_10_n01558993_5573.JPEG
subject-03,1,846,1.3522961139679,dog,elephant,c03,0845_con_s03_c03_elephant_10_n02504458_12582.JPEG
subject-03,1,847,1.2268180847168,truck,truck,c100,0846_con_s03_c100_truck_10_n03417042_28261.JPEG
subject-03,1,848,0.955175876617432,cat,bear,c15,0847_con_s03_c15_bear_10_n02132136_5921.JPEG
subject-03,1,849,0.737686157226562,keyboard,knife,c100,0848_con_s03_c100_knife_10_n03041632_2386.JPEG
subject-03,1,850,0.924899816513062,elephant,elephant,c05,0849_con_s03_c05_elephant_10_n02504458_7456.JPEG
subject-03,1,851,0.753186941146851,car,car,c03,0850_con_s03_c03_car_10_n03100240_9354.JPEG
subject-03,1,852,1.1923348903656,keyboard,keyboard,c100,0851_con_s03_c100_keyboard_10_n04505470_1719.JPEG
subject-03,1,853,0.698724031448364,clock,oven,c03,0852_con_s03_c03_oven_10_n04111531_3570.JPEG
subject-03,1,854,0.895429134368896,knife,knife,c50,0853_con_s03_c50_knife_10_n03041632_7680.JPEG
subject-03,1,855,0.923942089080811,airplane,airplane,c50,0854_con_s03_c50_airplane_10_n02690373_4188.JPEG
subject-03,1,856,0.752396821975708,truck,truck,c03,0855_con_s03_c03_truck_10_n03417042_3066.JPEG
subject-03,1,857,0.703065156936646,elephant,elephant,c10,0856_con_s03_c10_elephant_10_n02504013_15219.JPEG
subject-03,1,858,1.031574010849,dog,dog,c10,0857_con_s03_c10_dog_10_n02092002_4728.JPEG
subject-03,1,859,1.04380488395691,dog,dog,c100,0858_con_s03_c100_dog_10_n02109961_1824.JPEG
subject-03,1,860,0.742440938949585,elephant,bottle,c05,0859_con_s03_c05_bottle_10_n04560804_265.JPEG
subject-03,1,861,0.731076002120972,airplane,airplane,c30,0860_con_s03_c30_airplane_10_n02690373_2856.JPEG
subject-03,1,862,0.722178936004639,boat,clock,c10,0861_con_s03_c10_clock_10_n03196217_5409.JPEG
subject-03,1,863,0.813017129898071,cat,bird,c03,0862_con_s03_c03_bird_10_n01855672_15448.JPEG
subject-03,1,864,0.779496908187866,clock,clock,c50,0863_con_s03_c50_clock_10_n03196217_2442.JPEG
subject-03,1,865,0.961829900741577,clock,elephant,c50,0864_con_s03_c50_elephant_10_n02504458_776.JPEG
subject-03,1,866,0.490445852279663,boat,oven,c01,0865_con_s03_c01_oven_10_n04111531_1580.JPEG
subject-03,1,867,0.694803953170776,oven,cat,c05,0866_con_s03_c05_cat_10_n02123394_6869.JPEG
subject-03,1,868,0.547443866729736,boat,knife,c05,0867_con_s03_c05_knife_10_n03041632_26340.JPEG
subject-03,1,869,0.56000804901123,boat,boat,c01,0868_con_s03_c01_boat_10_n02951358_14829.JPEG
subject-03,1,870,0.748687982559204,cat,chair,c05,0869_con_s03_c05_chair_10_n04099969_2758.JPEG
subject-03,1,871,1.09133005142212,dog,dog,c50,0870_con_s03_c50_dog_10_n02113978_9340.JPEG
subject-03,1,872,0.978807926177979,bird,bird,c10,0871_con_s03_c10_bird_10_n02002556_7624.JPEG
subject-03,1,873,0.669028043746948,cat,bear,c01,0872_con_s03_c01_bear_10_n02133161_66.JPEG
subject-03,1,874,0.720886945724487,cat,boat,c03,0873_con_s03_c03_boat_10_n04273569_14418.JPEG
subject-03,1,875,0.779705047607422,truck,truck,c30,0874_con_s03_c30_truck_10_n03796401_7778.JPEG
subject-03,1,876,1.18384695053101,cat,cat,c30,0875_con_s03_c30_cat_10_n02124075_8400.JPEG
subject-03,1,877,0.912377119064331,bicycle,bear,c50,0876_con_s03_c50_bear_10_n02133161_338.JPEG
subject-03,1,878,0.678873062133789,chair,chair,c50,0877_con_s03_c50_chair_10_n04099969_6435.JPEG
subject-03,1,879,0.861659049987793,car,car,c10,0878_con_s03_c10_car_10_n04285008_12682.JPEG
subject-03,1,880,0.643876791000366,chair,chair,c100,0879_con_s03_c100_chair_10_n03376595_1601.JPEG
subject-03,1,881,0.664893865585327,clock,bird,c01,0880_con_s03_c01_bird_10_n01833805_8450.JPEG
subject-03,1,882,0.937356948852539,bear,bottle,c10,0881_con_s03_c10_bottle_10_n03983396_5258.JPEG
subject-03,1,883,0.903900861740112,car,car,c100,0882_con_s03_c100_car_10_n03100240_18788.JPEG
subject-03,1,884,0.724295854568481,keyboard,keyboard,c50,0883_con_s03_c50_keyboard_10_n03085013_17455.JPEG
subject-03,1,885,0.857238054275513,bicycle,bicycle,c50,0884_con_s03_c50_bicycle_10_n02835271_4384.JPEG
subject-03,1,886,0.901834011077881,oven,bird,c03,0885_con_s03_c03_bird_10_n02018207_8271.JPEG
subject-03,1,887,0.776818037033081,oven,car,c01,0886_con_s03_c01_car_10_n02814533_26657.JPEG
subject-03,1,888,0.575267791748047,clock,dog,c01,0887_con_s03_c01_dog_10_n02101006_4135.JPEG
subject-03,1,889,1.10161995887756,elephant,elephant,c30,0888_con_s03_c30_elephant_10_n02504458_10188.JPEG
subject-03,1,890,0.760231018066406,bird,bird,c15,0889_con_s03_c15_bird_10_n02018207_12183.JPEG
subject-03,1,891,0.874830007553101,bicycle,knife,c15,0890_con_s03_c15_knife_10_n03041632_32177.JPEG
subject-03,1,892,1.13913893699646,cat,clock,c10,0891_con_s03_c10_clock_10_n02708093_1052.JPEG
subject-03,1,893,0.799553155899048,airplane,airplane,c100,0892_con_s03_c100_airplane_10_n02690373_19733.JPEG
subject-03,1,894,0.695677042007446,airplane,airplane,c30,0893_con_s03_c30_airplane_10_n02690373_8446.JPEG
subject-03,1,895,0.794142007827759,bicycle,bicycle,c10,0894_con_s03_c10_bicycle_10_n03792782_1609.JPEG
subject-03,1,896,1.03649210929871,clock,bicycle,c03,0895_con_s03_c03_bicycle_10_n02835271_16850.JPEG
subject-03,1,897,0.934034824371338,bear,elephant,c03,0896_con_s03_c03_elephant_10_n02504458_4553.JPEG
subject-03,1,898,0.878965854644775,clock,clock,c100,0897_con_s03_c100_clock_10_n04548280_10430.JPEG
subject-03,1,899,0.647960901260376,bottle,bottle,c50,0898_con_s03_c50_bottle_10_n04560804_12309.JPEG
subject-03,1,900,0.966271162033081,bear,bear,c05,0899_con_s03_c05_bear_10_n02134418_14313.JPEG
subject-03,1,901,0.519022941589355,oven,boat,c01,0900_con_s03_c01_boat_10_n02951358_34553.JPEG
subject-03,1,902,0.617218017578125,bottle,bottle,c05,0901_con_s03_c05_bottle_10_n02823428_6878.JPEG
subject-03,1,903,0.605978965759277,oven,oven,c30,0902_con_s03_c30_oven_10_n04111531_6622.JPEG
subject-03,1,904,1.00957298278809,elephant,elephant,c100,0903_con_s03_c100_elephant_10_n02504458_4988.JPEG
subject-03,1,905,0.770112991333008,car,car,c03,0904_con_s03_c03_car_10_n02814533_93092.JPEG
subject-03,1,906,0.712739944458008,oven,oven,c30,0905_con_s03_c30_oven_10_n04111531_19104.JPEG
subject-03,1,907,0.527194023132324,boat,bird,c03,0906_con_s03_c03_bird_10_n01622779_4482.JPEG
subject-03,1,908,0.707563161849976,car,truck,c05,0907_con_s03_c05_truck_10_n04467665_779.JPEG
subject-03,1,909,0.782084941864014,clock,clock,c15,0908_con_s03_c15_clock_10_n02708093_8229.JPEG
subject-03,1,910,0.702543020248413,oven,oven,c03,0909_con_s03_c03_oven_10_n04111531_14543.JPEG
subject-03,1,911,0.671103954315186,clock,chair,c01,0910_con_s03_c01_chair_10_n04099969_41686.JPEG
subject-03,1,912,0.697467088699341,cat,chair,c03,0911_con_s03_c03_chair_10_n04099969_25086.JPEG
subject-03,1,913,0.696053981781006,keyboard,keyboard,c15,0912_con_s03_c15_keyboard_10_n04505470_5050.JPEG
subject-03,1,914,0.868736028671265,oven,boat,c03,0913_con_s03_c03_boat_10_n02951358_10626.JPEG
subject-03,1,915,0.667052984237671,boat,truck,c03,0914_con_s03_c03_truck_10_n04467665_40226.JPEG
subject-03,1,916,0.826084852218628,car,car,c15,0915_con_s03_c15_car_10_n03100240_5527.JPEG
subject-03,1,917,1.1783971786499,bicycle,oven,c10,0916_con_s03_c10_oven_10_n04111531_22916.JPEG
subject-03,1,918,0.590768098831177,cat,keyboard,c03,0917_con_s03_c03_keyboard_10_n04505470_1904.JPEG
subject-03,1,919,0.843379020690918,bicycle,bird,c05,0918_con_s03_c05_bird_10_n01582220_91.JPEG
subject-03,1,920,0.701740026473999,bird,airplane,c01,0919_con_s03_c01_airplane_10_n02690373_5141.JPEG
subject-03,1,921,0.838492155075073,bottle,oven,c05,0920_con_s03_c05_oven_10_n04111531_22445.JPEG
subject-03,1,922,0.696771860122681,oven,bird,c03,0921_con_s03_c03_bird_10_n02002556_2438.JPEG
subject-03,1,923,1.13962292671204,car,truck,c15,0922_con_s03_c15_truck_10_n03417042_943.JPEG
subject-03,1,924,0.798058986663818,bird,dog,c30,0923_con_s03_c30_dog_10_n02091831_8332.JPEG
subject-03,1,925,1.05534601211548,knife,chair,c50,0924_con_s03_c50_chair_10_n04099969_7391.JPEG
subject-03,1,926,1.01397705078125,clock,clock,c30,0925_con_s03_c30_clock_10_n02708093_1344.JPEG
subject-03,1,927,0.941848993301392,bear,dog,c50,0926_con_s03_c50_dog_10_n02104029_2817.JPEG
subject-03,1,928,0.854048013687134,cat,chair,c50,0927_con_s03_c50_chair_10_n04429376_26336.JPEG
subject-03,1,929,0.690566062927246,chair,chair,c10,0928_con_s03_c10_chair_10_n02791124_3993.JPEG
subject-03,1,930,0.85683798789978,boat,dog,c15,0929_con_s03_c15_dog_10_n02100877_25323.JPEG
subject-03,1,931,0.631178855895996,airplane,airplane,c50,0930_con_s03_c50_airplane_10_n02690373_5415.JPEG
subject-03,1,932,0.594608068466187,cat,bear,c100,0931_con_s03_c100_bear_10_n02133161_2474.JPEG
subject-03,1,933,0.700843095779419,clock,clock,c10,0932_con_s03_c10_clock_10_n03196217_6706.JPEG
subject-03,1,934,0.58356785774231,oven,oven,c15,0933_con_s03_c15_oven_10_n04111531_14269.JPEG
subject-03,1,935,0.879901885986328,bear,bottle,c100,0934_con_s03_c100_bottle_10_n04560804_877.JPEG
subject-03,1,936,0.692684888839722,cat,car,c01,0935_con_s03_c01_car_10_n02814533_85971.JPEG
subject-03,1,937,0.72117805480957,car,car,c30,0936_con_s03_c30_car_10_n03100240_10502.JPEG
subject-03,1,938,0.649019956588745,cat,cat,c50,0937_con_s03_c50_cat_10_n02124075_12115.JPEG
subject-03,1,939,0.561114072799683,cat,oven,c01,0938_con_s03_c01_oven_10_n04111531_2371.JPEG
subject-03,1,940,0.603314876556396,oven,elephant,c01,0939_con_s03_c01_elephant_10_n02504458_6902.JPEG
subject-03,1,941,0.654011964797974,boat,keyboard,c01,0940_con_s03_c01_keyboard_10_n04505470_3110.JPEG
subject-03,1,942,1.00437307357788,bear,bear,c15,0941_con_s03_c15_bear_10_n02134084_6214.JPEG
subject-03,1,943,0.534810066223145,oven,boat,c50,0942_con_s03_c50_boat_10_n03344393_4143.JPEG
subject-03,1,944,0.785523891448975,boat,oven,c01,0943_con_s03_c01_oven_10_n04111531_4331.JPEG
subject-03,1,945,0.652084112167358,cat,knife,c03,0944_con_s03_c03_knife_10_n03041632_27960.JPEG
subject-03,1,946,0.842553853988647,chair,chair,c30,0945_con_s03_c30_chair_10_n04099969_499.JPEG
subject-03,1,947,0.739293813705444,airplane,airplane,c30,0946_con_s03_c30_airplane_10_n02690373_3000.JPEG
subject-03,1,948,0.959419965744019,elephant,elephant,c15,0947_con_s03_c15_elephant_10_n02504458_66.JPEG
subject-03,1,949,0.909847974777222,clock,bottle,c05,0948_con_s03_c05_bottle_10_n04560804_12363.JPEG
subject-03,1,950,0.916553020477295,car,car,c50,0949_con_s03_c50_car_10_n04285008_8113.JPEG
subject-03,1,951,0.805154800415039,oven,keyboard,c10,0950_con_s03_c10_keyboard_10_n03085013_20852.JPEG
subject-03,1,952,0.895718097686768,bicycle,bicycle,c10,0951_con_s03_c10_bicycle_10_n02835271_2333.JPEG
subject-03,1,953,0.932176113128662,bear,bear,c50,0952_con_s03_c50_bear_10_n02132136_5777.JPEG
subject-03,1,954,0.722729206085205,keyboard,keyboard,c100,0953_con_s03_c100_keyboard_10_n03085013_18643.JPEG
subject-03,1,955,0.735169887542725,car,car,c50,0954_con_s03_c50_car_10_n02814533_4697.JPEG
subject-03,1,956,0.709882974624634,oven,oven,c01,0955_con_s03_c01_oven_10_n04111531_22704.JPEG
subject-03,1,957,0.560137987136841,clock,clock,c15,0956_con_s03_c15_clock_10_n04548280_2170.JPEG
subject-03,1,958,0.634931087493896,boat,truck,c01,0957_con_s03_c01_truck_10_n03417042_1051.JPEG
subject-03,1,959,0.579369068145752,cat,cat,c10,0958_con_s03_c10_cat_10_n02123159_7373.JPEG
subject-03,1,960,0.699665069580078,clock,clock,c03,0959_con_s03_c03_clock_10_n04548280_8322.JPEG
subject-03,1,961,0.972019910812378,knife,bottle,c03,0960_con_s03_c03_bottle_10_n03937543_1920.JPEG
subject-03,1,962,0.708634853363037,airplane,airplane,c100,0961_con_s03_c100_airplane_10_n02690373_4691.JPEG
subject-03,1,963,0.675239086151123,keyboard,clock,c100,0962_con_s03_c100_clock_10_n03196217_6090.JPEG
subject-03,1,964,1.44177794456482,cat,clock,c30,0963_con_s03_c30_clock_10_n04548280_5096.JPEG
subject-03,1,965,0.945976972579956,cat,truck,c03,0964_con_s03_c03_truck_10_n03417042_19650.JPEG
subject-03,1,966,0.752810001373291,clock,car,c03,0965_con_s03_c03_car_10_n03100240_1397.JPEG
subject-03,1,967,0.689633131027222,chair,chair,c100,0966_con_s03_c100_chair_10_n03376595_14748.JPEG
subject-03,1,968,0.610052824020386,clock,clock,c15,0967_con_s03_c15_clock_10_n04548280_2535.JPEG
subject-03,1,969,1.15246486663818,knife,truck,c10,0968_con_s03_c10_truck_10_n03796401_11076.JPEG
subject-03,1,970,1.2247748374939,elephant,elephant,c15,0969_con_s03_c15_elephant_10_n02504458_7842.JPEG
subject-03,1,971,0.907263994216919,car,car,c100,0970_con_s03_c100_car_10_n03100240_4982.JPEG
subject-03,1,972,0.71410083770752,bird,bird,c50,0971_con_s03_c50_bird_10_n02033041_16313.JPEG
subject-03,1,973,0.872501134872437,bicycle,bicycle,c15,0972_con_s03_c15_bicycle_10_n03792782_8098.JPEG
subject-03,1,974,0.600979804992676,oven,truck,c03,0973_con_s03_c03_truck_10_n03417042_147.JPEG
subject-03,1,975,1.20535898208618,bear,cat,c30,0974_con_s03_c30_cat_10_n02125311_21953.JPEG
subject-03,1,976,NaN,na,bear,c01,0975_con_s03_c01_bear_10_n02132136_1665.JPEG
subject-03,1,977,1.28488302230835,dog,dog,c30,0976_con_s03_c30_dog_10_n02113712_16191.JPEG
subject-03,1,978,0.653775930404663,cat,cat,c100,0977_con_s03_c100_cat_10_n02125311_22459.JPEG
subject-03,1,979,0.612127065658569,cat,bird,c05,0978_con_s03_c05_bird_10_n01833805_7243.JPEG
subject-03,1,980,1.18233895301819,elephant,cat,c30,0979_con_s03_c30_cat_10_n02123394_7782.JPEG
subject-03,1,981,0.52707314491272,cat,bird,c01,0980_con_s03_c01_bird_10_n02011460_4262.JPEG
subject-03,1,982,0.845726013183594,cat,cat,c50,0981_con_s03_c50_cat_10_n02123159_4527.JPEG
subject-03,1,983,0.727869987487793,knife,knife,c30,0982_con_s03_c30_knife_10_n03041632_89912.JPEG
subject-03,1,984,1.10837197303772,truck,truck,c50,0983_con_s03_c50_truck_10_n03796401_19889.JPEG
subject-03,1,985,0.768784999847412,chair,chair,c100,0984_con_s03_c100_chair_10_n04429376_17171.JPEG
subject-03,1,986,1.00343680381775,knife,knife,c10,0985_con_s03_c10_knife_10_n03041632_31037.JPEG
subject-03,1,987,0.801832914352417,cat,bottle,c100,0986_con_s03_c100_bottle_10_n04557648_11099.JPEG
subject-03,1,988,NaN,na,airplane,c03,0987_con_s03_c03_airplane_10_n02690373_9849.JPEG
subject-03,1,989,0.691318035125732,airplane,airplane,c05,0988_con_s03_c05_airplane_10_n02690373_6929.JPEG
subject-03,1,990,0.696007966995239,car,car,c30,0989_con_s03_c30_car_10_n03100240_8256.JPEG
subject-03,1,991,0.570361137390137,oven,boat,c01,0990_con_s03_c01_boat_10_n03662601_13834.JPEG
subject-03,1,992,0.93437385559082,dog,dog,c30,0991_con_s03_c30_dog_10_n02109525_21801.JPEG
subject-03,1,993,1.31646609306335,bird,bird,c100,0992_con_s03_c100_bird_10_n01795545_6666.JPEG
subject-03,1,994,0.55298900604248,airplane,truck,c05,0993_con_s03_c05_truck_10_n03796401_5338.JPEG
subject-03,1,995,0.711678981781006,airplane,airplane,c15,0994_con_s03_c15_airplane_10_n02690373_6429.JPEG
subject-03,1,996,0.840054035186768,bird,bird,c50,0995_con_s03_c50_bird_10_n01828970_21837.JPEG
subject-03,1,997,0.998619794845581,bottle,bottle,c100,0996_con_s03_c100_bottle_10_n04591713_19169.JPEG
subject-03,1,998,1.3189651966095,bird,bird,c10,0997_con_s03_c10_bird_10_n02051845_7837.JPEG
subject-03,1,999,0.785786867141724,bird,bird,c15,0998_con_s03_c15_bird_10_n01843383_1996.JPEG
subject-03,1,1000,0.654472827911377,keyboard,keyboard,c30,0999_con_s03_c30_keyboard_10_n04505470_1384.JPEG
subject-03,1,1001,0.580720901489258,clock,cat,c03,1000_con_s03_c03_cat_10_n02123394_8826.JPEG
subject-03,1,1002,1.00132918357849,bicycle,dog,c03,1001_con_s03_c03_dog_10_n02108915_7851.JPEG
subject-03,1,1003,0.713824987411499,bear,bear,c100,1002_con_s03_c100_bear_10_n02132136_15174.JPEG
subject-03,1,1004,1.01881408691406,car,car,c10,1003_con_s03_c10_car_10_n02814533_7115.JPEG
subject-03,1,1005,0.747554779052734,oven,oven,c50,1004_con_s03_c50_oven_10_n04111531_4392.JPEG
subject-03,1,1006,1.13792395591736,elephant,bear,c50,1005_con_s03_c50_bear_10_n02134084_14505.JPEG
subject-03,1,1007,0.834576845169067,knife,knife,c30,1006_con_s03_c30_knife_10_n03041632_4590.JPEG
subject-03,1,1008,1.13925814628601,dog,dog,c15,1007_con_s03_c15_dog_10_n02113624_8920.JPEG
subject-03,1,1009,0.913039922714233,boat,boat,c100,1008_con_s03_c100_boat_10_n02951358_15750.JPEG
subject-03,1,1010,0.695192813873291,keyboard,keyboard,c30,1009_con_s03_c30_keyboard_10_n04505470_4742.JPEG
subject-03,1,1011,0.699923038482666,boat,oven,c01,1010_con_s03_c01_oven_10_n04111531_8934.JPEG
subject-03,1,1012,1.50030708312988,truck,truck,c15,1011_con_s03_c15_truck_10_n04467665_5951.JPEG
subject-03,1,1013,1.21668004989624,clock,clock,c05,1012_con_s03_c05_clock_10_n03196217_2128.JPEG
subject-03,1,1014,0.577244997024536,oven,knife,c05,1013_con_s03_c05_knife_10_n03041632_21477.JPEG
subject-03,1,1015,0.957873106002808,chair,chair,c15,1014_con_s03_c15_chair_10_n03376595_849.JPEG
subject-03,1,1016,0.872440814971924,bottle,knife,c30,1015_con_s03_c30_knife_10_n03041632_1607.JPEG
subject-03,1,1017,0.998809099197388,oven,keyboard,c15,1016_con_s03_c15_keyboard_10_n04505470_4741.JPEG
subject-03,1,1018,0.605329990386963,boat,keyboard,c01,1017_con_s03_c01_keyboard_10_n03085013_24149.JPEG
subject-03,1,1019,0.533878087997437,boat,boat,c50,1018_con_s03_c50_boat_10_n03344393_7433.JPEG
subject-03,1,1020,0.846458196640015,oven,clock,c30,1019_con_s03_c30_clock_10_n04548280_4947.JPEG
subject-03,1,1021,NaN,na,knife,c10,1020_con_s03_c10_knife_10_n03041632_14817.JPEG
subject-03,1,1022,0.595329999923706,car,car,c50,1021_con_s03_c50_car_10_n04285008_2942.JPEG
subject-03,1,1023,1.39816808700562,car,truck,c15,1022_con_s03_c15_truck_10_n04467665_12820.JPEG
subject-03,1,1024,1.08855104446411,bear,bear,c15,1023_con_s03_c15_bear_10_n02134084_18800.JPEG
subject-03,1,1025,0.693885087966919,bear,bear,c30,1024_con_s03_c30_bear_10_n02134418_18035.JPEG
subject-03,1,1026,1.35868906974792,cat,cat,c10,1025_con_s03_c10_cat_10_n02123045_2833.JPEG
subject-03,1,1027,1.04921317100525,airplane,clock,c05,1026_con_s03_c05_clock_10_n04548280_397.JPEG
subject-03,1,1028,0.448054075241089,boat,car,c01,1027_con_s03_c01_car_10_n02814533_84139.JPEG
subject-03,1,1029,0.644620180130005,oven,dog,c05,1028_con_s03_c05_dog_10_n02111129_6484.JPEG
subject-03,1,1030,0.79485297203064,truck,truck,c10,1029_con_s03_c10_truck_10_n03796401_23547.JPEG
subject-03,1,1031,0.601439952850342,bicycle,bicycle,c15,1030_con_s03_c15_bicycle_10_n03792782_5044.JPEG
subject-03,1,1032,0.66801118850708,cat,clock,c01,1031_con_s03_c01_clock_10_n02708093_2742.JPEG
