subj,session,trial,rt,object_response,category,condition,imagename
subject-05,1,1,0.634911060333252,boat,airplane,c03,0000_con_s05_c03_airplane_10_n02690373_10079.JPEG
subject-05,1,2,0.711764097213745,clock,chair,c01,0001_con_s05_c01_chair_10_n04429376_5220.JPEG
subject-05,1,3,0.764462947845459,oven,car,c03,0002_con_s05_c03_car_10_n02814533_39933.JPEG
subject-05,1,4,0.779169082641602,cat,cat,c01,0003_con_s05_c01_cat_10_n02123159_7950.JPEG
subject-05,1,5,0.739686965942383,boat,oven,c01,0004_con_s05_c01_oven_10_n04111531_11157.JPEG
subject-05,1,6,0.731940031051636,cat,cat,c30,0005_con_s05_c30_cat_10_n02123597_14535.JPEG
subject-05,1,7,0.808588981628418,boat,boat,c30,0006_con_s05_c30_boat_10_n02951358_30629.JPEG
subject-05,1,8,0.674378871917725,keyboard,keyboard,c50,0007_con_s05_c50_keyboard_10_n03085013_23546.JPEG
subject-05,1,9,0.834219932556152,oven,truck,c01,0008_con_s05_c01_truck_10_n03417042_5449.JPEG
subject-05,1,10,0.948980808258057,boat,bicycle,c05,0009_con_s05_c05_bicycle_10_n03792782_6613.JPEG
subject-05,1,11,0.963143825531006,airplane,oven,c01,0010_con_s05_c01_oven_10_n04111531_2381.JPEG
subject-05,1,12,0.645303010940552,clock,bottle,c03,0011_con_s05_c03_bottle_10_n04560804_15958.JPEG
subject-05,1,13,0.659785032272339,cat,bear,c05,0012_con_s05_c05_bear_10_n02134084_18494.JPEG
subject-05,1,14,0.698048114776611,boat,boat,c30,0013_con_s05_c30_boat_10_n03662601_20059.JPEG
subject-05,1,15,0.772377014160156,boat,airplane,c03,0014_con_s05_c03_airplane_10_n02690373_2128.JPEG
subject-05,1,16,0.664712905883789,cat,cat,c50,0015_con_s05_c50_cat_10_n02123159_1214.JPEG
subject-05,1,17,1.24734997749329,chair,bottle,c100,0016_con_s05_c100_bottle_10_n04557648_9352.JPEG
subject-05,1,18,0.977692127227783,truck,truck,c50,0017_con_s05_c50_truck_10_n03796401_7249.JPEG
subject-05,1,19,0.814454078674316,boat,bear,c03,0018_con_s05_c03_bear_10_n02134084_3306.JPEG
subject-05,1,20,0.782809019088745,bottle,bottle,c10,0019_con_s05_c10_bottle_10_n04560804_1557.JPEG
subject-05,1,21,1.11339116096497,keyboard,knife,c05,0020_con_s05_c05_knife_10_n03041632_8051.JPEG
subject-05,1,22,0.72776985168457,cat,knife,c01,0021_con_s05_c01_knife_10_n03041632_1671.JPEG
subject-05,1,23,0.733707189559937,bottle,bottle,c03,0022_con_s05_c03_bottle_10_n03983396_13070.JPEG
subject-05,1,24,1.0455048084259,truck,truck,c30,0023_con_s05_c30_truck_10_n04467665_74008.JPEG
subject-05,1,25,0.729377031326294,boat,boat,c50,0024_con_s05_c50_boat_10_n04273569_1771.JPEG
subject-05,1,26,0.874254941940308,truck,truck,c30,0025_con_s05_c30_truck_10_n04467665_31621.JPEG
subject-05,1,27,0.65026593208313,cat,bear,c05,0026_con_s05_c05_bear_10_n02132136_2807.JPEG
subject-05,1,28,0.664652109146118,boat,knife,c01,0027_con_s05_c01_knife_10_n03041632_11475.JPEG
subject-05,1,29,1.10119986534119,bicycle,chair,c01,0028_con_s05_c01_chair_10_n04429376_18649.JPEG
subject-05,1,30,0.823559045791626,bear,keyboard,c01,0029_con_s05_c01_keyboard_10_n03085013_14764.JPEG
subject-05,1,31,0.852139949798584,bird,bird,c30,0030_con_s05_c30_bird_10_n01829413_561.JPEG
subject-05,1,32,0.966031074523926,car,car,c10,0031_con_s05_c10_car_10_n04285008_10905.JPEG
subject-05,1,33,1.06495404243469,chair,knife,c10,0032_con_s05_c10_knife_10_n03041632_8321.JPEG
subject-05,1,34,1.3251678943634,bear,bear,c15,0033_con_s05_c15_bear_10_n02132136_33682.JPEG
subject-05,1,35,1.23940777778625,bottle,chair,c05,0034_con_s05_c05_chair_10_n02791124_3854.JPEG
subject-05,1,36,0.691118001937866,cat,dog,c01,0035_con_s05_c01_dog_10_n02101388_5562.JPEG
subject-05,1,37,0.868092775344849,clock,bicycle,c03,0036_con_s05_c03_bicycle_10_n03792782_3696.JPEG
subject-05,1,38,1.27249312400818,bird,bird,c03,0037_con_s05_c03_bird_10_n01843383_9762.JPEG
subject-05,1,39,0.849041938781738,boat,oven,c03,0038_con_s05_c03_oven_10_n04111531_326.JPEG
subject-05,1,40,0.671793937683105,cat,bear,c05,0039_con_s05_c05_bear_10_n02133161_11313.JPEG
subject-05,1,41,0.701963901519775,cat,knife,c50,0040_con_s05_c50_knife_10_n03041632_23129.JPEG
subject-05,1,42,1.03826308250427,oven,bottle,c10,0041_con_s05_c10_bottle_10_n03937543_4020.JPEG
subject-05,1,43,0.7446608543396,bottle,elephant,c10,0042_con_s05_c10_elephant_10_n02504013_6572.JPEG
subject-05,1,44,1.15906596183777,dog,dog,c30,0043_con_s05_c30_dog_10_n02109525_27626.JPEG
subject-05,1,45,0.773014068603516,chair,chair,c100,0044_con_s05_c100_chair_10_n03376595_2654.JPEG
subject-05,1,46,1.40201997756958,cat,dog,c100,0045_con_s05_c100_dog_10_n02096294_4180.JPEG
subject-05,1,47,0.832208871841431,car,car,c30,0046_con_s05_c30_car_10_n02814533_99123.JPEG
subject-05,1,48,1.03006792068481,elephant,elephant,c100,0047_con_s05_c100_elephant_10_n02504458_3105.JPEG
subject-05,1,49,1.50002098083496,truck,truck,c10,0048_con_s05_c10_truck_10_n03417042_8297.JPEG
subject-05,1,50,1.2053530216217,bird,knife,c30,0049_con_s05_c30_knife_10_n03041632_37618.JPEG
subject-05,1,51,0.719483137130737,chair,oven,c100,0050_con_s05_c100_oven_10_n04111531_615.JPEG
subject-05,1,52,NaN,na,bird,c15,0051_con_s05_c15_bird_10_n02013706_3523.JPEG
subject-05,1,53,0.956820964813232,bear,bear,c30,0052_con_s05_c30_bear_10_n02133161_2771.JPEG
subject-05,1,54,0.993319988250732,cat,cat,c15,0053_con_s05_c15_cat_10_n02123597_4443.JPEG
subject-05,1,55,0.869839906692505,cat,oven,c15,0054_con_s05_c15_oven_10_n04111531_8537.JPEG
subject-05,1,56,0.792685985565186,oven,oven,c01,0055_con_s05_c01_oven_10_n04111531_2209.JPEG
subject-05,1,57,0.812556028366089,airplane,airplane,c30,0056_con_s05_c30_airplane_10_n02690373_9376.JPEG
subject-05,1,58,0.86524486541748,clock,chair,c03,0057_con_s05_c03_chair_10_n02791124_5795.JPEG
subject-05,1,59,0.925672054290771,boat,bear,c03,0058_con_s05_c03_bear_10_n02134418_819.JPEG
subject-05,1,60,0.685941934585571,car,car,c30,0059_con_s05_c30_car_10_n02814533_9634.JPEG
subject-05,1,61,0.808866024017334,oven,cat,c03,0060_con_s05_c03_cat_10_n02124075_11142.JPEG
subject-05,1,62,1.50018787384033,bear,bicycle,c03,0061_con_s05_c03_bicycle_10_n03792782_30962.JPEG
subject-05,1,63,0.893487930297852,bear,bear,c100,0062_con_s05_c100_bear_10_n02132136_5157.JPEG
subject-05,1,64,0.616347074508667,clock,clock,c05,0063_con_s05_c05_clock_10_n02708093_1372.JPEG
subject-05,1,65,0.80098295211792,airplane,airplane,c100,0064_con_s05_c100_airplane_10_n02690373_5885.JPEG
subject-05,1,66,1.47507095336914,knife,knife,c100,0065_con_s05_c100_knife_10_n03041632_30196.JPEG
subject-05,1,67,0.720126867294312,cat,bicycle,c03,0066_con_s05_c03_bicycle_10_n02835271_10542.JPEG
subject-05,1,68,0.642606973648071,clock,clock,c10,0067_con_s05_c10_clock_10_n04548280_9513.JPEG
subject-05,1,69,0.848960161209106,oven,oven,c15,0068_con_s05_c15_oven_10_n04111531_11110.JPEG
subject-05,1,70,0.824909925460815,clock,clock,c05,0069_con_s05_c05_clock_10_n04548280_503.JPEG
subject-05,1,71,0.977630853652954,bicycle,clock,c01,0070_con_s05_c01_clock_10_n03196217_1746.JPEG
subject-05,1,72,0.830221176147461,bird,bird,c15,0071_con_s05_c15_bird_10_n01843065_9685.JPEG
subject-05,1,73,0.720512866973877,boat,bottle,c01,0072_con_s05_c01_bottle_10_n04591713_3955.JPEG
subject-05,1,74,1.0430748462677,truck,truck,c15,0073_con_s05_c15_truck_10_n03417042_27613.JPEG
subject-05,1,75,1.10944700241089,bear,chair,c05,0074_con_s05_c05_chair_10_n02791124_7625.JPEG
subject-05,1,76,0.694003105163574,oven,knife,c03,0075_con_s05_c03_knife_10_n03041632_14883.JPEG
subject-05,1,77,0.692668914794922,boat,bird,c01,0076_con_s05_c01_bird_10_n01534433_1061.JPEG
subject-05,1,78,0.799198150634766,airplane,airplane,c100,0077_con_s05_c100_airplane_10_n02690373_4107.JPEG
subject-05,1,79,0.713025093078613,clock,elephant,c03,0078_con_s05_c03_elephant_10_n02504458_776.JPEG
subject-05,1,80,0.702682971954346,bottle,bottle,c15,0079_con_s05_c15_bottle_10_n02823428_7556.JPEG
subject-05,1,81,1.45332384109497,boat,truck,c01,0080_con_s05_c01_truck_10_n03417042_8030.JPEG
subject-05,1,82,1.24601411819458,keyboard,keyboard,c10,0081_con_s05_c10_keyboard_10_n03085013_6432.JPEG
subject-05,1,83,1.50009393692017,keyboard,truck,c03,0082_con_s05_c03_truck_10_n03417042_25212.JPEG
subject-05,1,84,0.729043006896973,cat,clock,c01,0083_con_s05_c01_clock_10_n02708093_7935.JPEG
subject-05,1,85,1.15769386291504,bear,bicycle,c05,0084_con_s05_c05_bicycle_10_n03792782_7165.JPEG
subject-05,1,86,0.803946018218994,bird,bird,c03,0085_con_s05_c03_bird_10_n02002556_434.JPEG
subject-05,1,87,0.802670001983643,clock,airplane,c01,0086_con_s05_c01_airplane_10_n02690373_6682.JPEG
subject-05,1,88,0.885411977767944,bear,bear,c10,0087_con_s05_c10_bear_10_n02132136_22313.JPEG
subject-05,1,89,0.739695072174072,airplane,airplane,c15,0088_con_s05_c15_airplane_10_n02690373_4243.JPEG
subject-05,1,90,1.12822508811951,bird,bicycle,c03,0089_con_s05_c03_bicycle_10_n02835271_12346.JPEG
subject-05,1,91,0.842271089553833,dog,dog,c50,0090_con_s05_c50_dog_10_n02110958_8916.JPEG
subject-05,1,92,1.11664199829102,clock,knife,c10,0091_con_s05_c10_knife_10_n03041632_51339.JPEG
subject-05,1,93,0.838932037353516,keyboard,keyboard,c15,0092_con_s05_c15_keyboard_10_n04505470_4724.JPEG
subject-05,1,94,0.623524904251099,boat,boat,c15,0093_con_s05_c15_boat_10_n03662601_27069.JPEG
subject-05,1,95,1.40585684776306,clock,airplane,c03,0094_con_s05_c03_airplane_10_n02690373_12436.JPEG
subject-05,1,96,0.650413990020752,truck,truck,c50,0095_con_s05_c50_truck_10_n04467665_3710.JPEG
subject-05,1,97,1.03462791442871,truck,truck,c10,0096_con_s05_c10_truck_10_n03417042_7187.JPEG
subject-05,1,98,0.746963024139404,airplane,airplane,c10,0097_con_s05_c10_airplane_10_n02690373_1706.JPEG
subject-05,1,99,0.615550994873047,bear,bear,c15,0098_con_s05_c15_bear_10_n02134418_4536.JPEG
subject-05,1,100,0.913800954818726,keyboard,keyboard,c05,0099_con_s05_c05_keyboard_10_n04505470_5145.JPEG
subject-05,1,101,0.806296110153198,clock,elephant,c01,0100_con_s05_c01_elephant_10_n02504013_6645.JPEG
subject-05,1,102,0.964756965637207,knife,knife,c100,0101_con_s05_c100_knife_10_n03041632_21477.JPEG
subject-05,1,103,1.13172101974487,dog,dog,c05,0102_con_s05_c05_dog_10_n02099429_4289.JPEG
subject-05,1,104,0.723814010620117,cat,elephant,c03,0103_con_s05_c03_elephant_10_n02504458_2200.JPEG
subject-05,1,105,0.784507989883423,oven,dog,c01,0104_con_s05_c01_dog_10_n02087046_568.JPEG
subject-05,1,106,0.953044891357422,boat,bicycle,c01,0105_con_s05_c01_bicycle_10_n03792782_2358.JPEG
subject-05,1,107,1.3272180557251,chair,chair,c50,0106_con_s05_c50_chair_10_n02791124_15845.JPEG
subject-05,1,108,0.733967065811157,cat,boat,c03,0107_con_s05_c03_boat_10_n02951358_13490.JPEG
subject-05,1,109,0.786252975463867,boat,bottle,c01,0108_con_s05_c01_bottle_10_n03983396_2154.JPEG
subject-05,1,110,0.87089204788208,clock,airplane,c05,0109_con_s05_c05_airplane_10_n02690373_6223.JPEG
subject-05,1,111,0.677220106124878,bottle,bottle,c05,0110_con_s05_c05_bottle_10_n04557648_3624.JPEG
subject-05,1,112,1.41199493408203,boat,cat,c10,0111_con_s05_c10_cat_10_n02123045_8724.JPEG
subject-05,1,113,1.02649307250977,clock,knife,c03,0112_con_s05_c03_knife_10_n03041632_26405.JPEG
subject-05,1,114,0.586591958999634,keyboard,keyboard,c15,0113_con_s05_c15_keyboard_10_n04505470_4262.JPEG
subject-05,1,115,0.922930002212524,chair,chair,c03,0114_con_s05_c03_chair_10_n02791124_3671.JPEG
subject-05,1,116,0.661718130111694,oven,elephant,c03,0115_con_s05_c03_elephant_10_n02504013_4622.JPEG
subject-05,1,117,0.681885004043579,boat,boat,c30,0116_con_s05_c30_boat_10_n03344393_4739.JPEG
subject-05,1,118,0.742184162139893,clock,bird,c03,0117_con_s05_c03_bird_10_n01855032_3534.JPEG
subject-05,1,119,0.894766092300415,dog,dog,c10,0118_con_s05_c10_dog_10_n02107908_7407.JPEG
subject-05,1,120,1.03113889694214,cat,knife,c100,0119_con_s05_c100_knife_10_n03041632_24646.JPEG
subject-05,1,121,0.736976146697998,boat,boat,c30,0120_con_s05_c30_boat_10_n03344393_7109.JPEG
subject-05,1,122,1.21957302093506,bicycle,bicycle,c03,0121_con_s05_c03_bicycle_10_n03792782_27435.JPEG
subject-05,1,123,1.50003790855408,bear,bird,c50,0122_con_s05_c50_bird_10_n01843383_11674.JPEG
subject-05,1,124,1.18472695350647,car,car,c100,0123_con_s05_c100_car_10_n04285008_7428.JPEG
subject-05,1,125,1.35888981819153,boat,bird,c01,0124_con_s05_c01_bird_10_n02018207_6697.JPEG
subject-05,1,126,0.851559162139893,bear,bear,c10,0125_con_s05_c10_bear_10_n02134418_3458.JPEG
subject-05,1,127,0.865992069244385,boat,boat,c03,0126_con_s05_c03_boat_10_n04612504_8077.JPEG
subject-05,1,128,0.780550956726074,boat,boat,c50,0127_con_s05_c50_boat_10_n02951358_35150.JPEG
subject-05,1,129,0.721910953521729,car,car,c100,0128_con_s05_c100_car_10_n02814533_29367.JPEG
subject-05,1,130,0.928380012512207,cat,cat,c03,0129_con_s05_c03_cat_10_n02123045_10339.JPEG
subject-05,1,131,0.866796970367432,boat,boat,c100,0130_con_s05_c100_boat_10_n03662601_10262.JPEG
subject-05,1,132,0.919397115707397,bicycle,bicycle,c10,0131_con_s05_c10_bicycle_10_n02835271_29653.JPEG
subject-05,1,133,0.79400110244751,bird,bird,c30,0132_con_s05_c30_bird_10_n01843065_5848.JPEG
subject-05,1,134,0.807513952255249,elephant,elephant,c50,0133_con_s05_c50_elephant_10_n02504458_885.JPEG
subject-05,1,135,0.73829197883606,bird,bird,c15,0134_con_s05_c15_bird_10_n01843383_331.JPEG
subject-05,1,136,1.45065903663635,airplane,bird,c30,0135_con_s05_c30_bird_10_n01820546_11754.JPEG
subject-05,1,137,0.835115909576416,oven,oven,c50,0136_con_s05_c50_oven_10_n04111531_7106.JPEG
subject-05,1,138,0.611465930938721,boat,truck,c01,0137_con_s05_c01_truck_10_n03417042_19862.JPEG
subject-05,1,139,0.848324060440063,bear,bear,c15,0138_con_s05_c15_bear_10_n02133161_14031.JPEG
subject-05,1,140,0.870453119277954,elephant,elephant,c10,0139_con_s05_c10_elephant_10_n02504458_14537.JPEG
subject-05,1,141,0.860948085784912,clock,car,c01,0140_con_s05_c01_car_10_n03100240_15721.JPEG
subject-05,1,142,0.937746047973633,oven,bear,c01,0141_con_s05_c01_bear_10_n02132136_4696.JPEG
subject-05,1,143,0.990418910980225,airplane,airplane,c50,0142_con_s05_c50_airplane_10_n02690373_166.JPEG
subject-05,1,144,0.951056957244873,keyboard,keyboard,c50,0143_con_s05_c50_keyboard_10_n03085013_7605.JPEG
subject-05,1,145,0.857576131820679,clock,boat,c03,0144_con_s05_c03_boat_10_n02951358_33722.JPEG
subject-05,1,146,0.947837114334106,keyboard,keyboard,c10,0145_con_s05_c10_keyboard_10_n04505470_2250.JPEG
subject-05,1,147,0.908652067184448,boat,elephant,c01,0146_con_s05_c01_elephant_10_n02504013_22813.JPEG
subject-05,1,148,0.776946067810059,car,bottle,c01,0147_con_s05_c01_bottle_10_n04557648_2817.JPEG
subject-05,1,149,0.991629838943481,bird,bicycle,c05,0148_con_s05_c05_bicycle_10_n03792782_10179.JPEG
subject-05,1,150,NaN,na,oven,c50,0149_con_s05_c50_oven_10_n04111531_6704.JPEG
subject-05,1,151,0.83454704284668,elephant,elephant,c05,0150_con_s05_c05_elephant_10_n02504458_2719.JPEG
subject-05,1,152,0.83304500579834,knife,knife,c15,0151_con_s05_c15_knife_10_n03041632_94995.JPEG
subject-05,1,153,1.04726600646973,airplane,airplane,c50,0152_con_s05_c50_airplane_10_n02690373_10510.JPEG
subject-05,1,154,0.829647779464722,car,car,c30,0153_con_s05_c30_car_10_n02814533_16767.JPEG
subject-05,1,155,0.890255928039551,cat,dog,c05,0154_con_s05_c05_dog_10_n02095889_14547.JPEG
subject-05,1,156,0.874629020690918,airplane,airplane,c50,0155_con_s05_c50_airplane_10_n02690373_4358.JPEG
subject-05,1,157,0.894832134246826,oven,truck,c01,0156_con_s05_c01_truck_10_n03796401_1899.JPEG
subject-05,1,158,1.06341910362244,knife,knife,c03,0157_con_s05_c03_knife_10_n03041632_21723.JPEG
subject-05,1,159,0.815889120101929,boat,clock,c01,0158_con_s05_c01_clock_10_n02708093_3114.JPEG
subject-05,1,160,0.730676174163818,clock,elephant,c01,0159_con_s05_c01_elephant_10_n02504013_6466.JPEG
subject-05,1,161,0.782231092453003,cat,cat,c100,0160_con_s05_c100_cat_10_n02123597_14191.JPEG
subject-05,1,162,0.834389925003052,keyboard,keyboard,c50,0161_con_s05_c50_keyboard_10_n04505470_262.JPEG
subject-05,1,163,0.832644939422607,clock,clock,c30,0162_con_s05_c30_clock_10_n03196217_7121.JPEG
subject-05,1,164,1.03933906555176,chair,knife,c30,0163_con_s05_c30_knife_10_n03041632_932.JPEG
subject-05,1,165,0.876049995422363,boat,clock,c03,0164_con_s05_c03_clock_10_n04548280_23221.JPEG
subject-05,1,166,0.70634388923645,bird,bird,c10,0165_con_s05_c10_bird_10_n01824575_12664.JPEG
subject-05,1,167,0.697096109390259,cat,cat,c50,0166_con_s05_c50_cat_10_n02123159_2663.JPEG
subject-05,1,168,0.773502111434937,elephant,elephant,c10,0167_con_s05_c10_elephant_10_n02504458_4143.JPEG
subject-05,1,169,NaN,na,car,c03,0168_con_s05_c03_car_10_n04285008_6271.JPEG
subject-05,1,170,0.646632194519043,oven,knife,c03,0169_con_s05_c03_knife_10_n03041632_206.JPEG
subject-05,1,171,0.546830892562866,clock,dog,c05,0170_con_s05_c05_dog_10_n02102973_7074.JPEG
subject-05,1,172,0.728982210159302,boat,elephant,c03,0171_con_s05_c03_elephant_10_n02504458_8190.JPEG
subject-05,1,173,0.957374811172485,car,car,c15,0172_con_s05_c15_car_10_n04285008_4556.JPEG
subject-05,1,174,1.00996708869934,keyboard,keyboard,c30,0173_con_s05_c30_keyboard_10_n03085013_24109.JPEG
subject-05,1,175,0.754384994506836,oven,oven,c01,0174_con_s05_c01_oven_10_n04111531_5549.JPEG
subject-05,1,176,0.890843868255615,chair,chair,c100,0175_con_s05_c100_chair_10_n02791124_3306.JPEG
subject-05,1,177,0.789400100708008,cat,boat,c03,0176_con_s05_c03_boat_10_n03344393_7542.JPEG
subject-05,1,178,0.957603931427002,clock,clock,c10,0177_con_s05_c10_clock_10_n03196217_7274.JPEG
subject-05,1,179,0.702391147613525,bicycle,bicycle,c10,0178_con_s05_c10_bicycle_10_n03792782_54350.JPEG
subject-05,1,180,1.03283405303955,chair,knife,c100,0179_con_s05_c100_knife_10_n03041632_96345.JPEG
subject-05,1,181,1.03642606735229,truck,truck,c15,0180_con_s05_c15_truck_10_n03417042_2110.JPEG
subject-05,1,182,0.750943899154663,boat,boat,c05,0181_con_s05_c05_boat_10_n02951358_11450.JPEG
subject-05,1,183,0.673891067504883,cat,cat,c30,0182_con_s05_c30_cat_10_n02125311_54015.JPEG
subject-05,1,184,0.710472106933594,bird,bird,c30,0183_con_s05_c30_bird_10_n01796340_14749.JPEG
subject-05,1,185,0.816419124603271,cat,truck,c03,0184_con_s05_c03_truck_10_n03796401_322.JPEG
subject-05,1,186,0.993232011795044,boat,chair,c01,0185_con_s05_c01_chair_10_n02791124_1685.JPEG
subject-05,1,187,0.883509874343872,clock,cat,c03,0186_con_s05_c03_cat_10_n02124075_183.JPEG
subject-05,1,188,1.05823397636414,oven,bird,c05,0187_con_s05_c05_bird_10_n02033041_2031.JPEG
subject-05,1,189,0.70445704460144,cat,cat,c10,0188_con_s05_c10_cat_10_n02123394_89.JPEG
subject-05,1,190,1.15729188919067,oven,boat,c03,0189_con_s05_c03_boat_10_n02951358_11480.JPEG
subject-05,1,191,0.60978102684021,cat,cat,c10,0190_con_s05_c10_cat_10_n02123159_6719.JPEG
subject-05,1,192,0.69440484046936,boat,bear,c03,0191_con_s05_c03_bear_10_n02132136_20422.JPEG
subject-05,1,193,0.714784860610962,clock,clock,c05,0192_con_s05_c05_clock_10_n04548280_5305.JPEG
subject-05,1,194,0.863932847976685,oven,airplane,c03,0193_con_s05_c03_airplane_10_n02690373_2837.JPEG
subject-05,1,195,NaN,na,truck,c30,0194_con_s05_c30_truck_10_n03796401_10766.JPEG
subject-05,1,196,0.738892078399658,chair,oven,c100,0195_con_s05_c100_oven_10_n04111531_1220.JPEG
subject-05,1,197,0.631594896316528,boat,keyboard,c05,0196_con_s05_c05_keyboard_10_n03085013_18625.JPEG
subject-05,1,198,0.960468769073486,oven,knife,c05,0197_con_s05_c05_knife_10_n03041632_27960.JPEG
subject-05,1,199,0.623216867446899,car,car,c15,0198_con_s05_c15_car_10_n02814533_89559.JPEG
subject-05,1,200,0.819187164306641,boat,bottle,c01,0199_con_s05_c01_bottle_10_n03937543_7520.JPEG
subject-05,1,201,0.996124029159546,clock,keyboard,c01,0200_con_s05_c01_keyboard_10_n04505470_5127.JPEG
subject-05,1,202,0.772629022598267,clock,oven,c05,0201_con_s05_c05_oven_10_n04111531_21248.JPEG
subject-05,1,203,0.900470018386841,car,oven,c50,0202_con_s05_c50_oven_10_n04111531_3076.JPEG
subject-05,1,204,0.768925905227661,car,car,c10,0203_con_s05_c10_car_10_n02814533_82879.JPEG
subject-05,1,205,1.10460805892944,oven,bear,c03,0204_con_s05_c03_bear_10_n02132136_11933.JPEG
subject-05,1,206,0.889347076416016,bird,bird,c10,0205_con_s05_c10_bird_10_n01560419_8948.JPEG
subject-05,1,207,1.24769282341003,chair,clock,c50,0206_con_s05_c50_clock_10_n04548280_2826.JPEG
subject-05,1,208,1.04079484939575,clock,chair,c03,0207_con_s05_c03_chair_10_n04099969_250.JPEG
subject-05,1,209,1.07668685913086,car,truck,c03,0208_con_s05_c03_truck_10_n03417042_234.JPEG
subject-05,1,210,1.21773505210876,bear,bear,c50,0209_con_s05_c50_bear_10_n02134418_1984.JPEG
subject-05,1,211,0.780282974243164,bottle,bottle,c30,0210_con_s05_c30_bottle_10_n04560804_21795.JPEG
subject-05,1,212,0.900828838348389,truck,truck,c05,0211_con_s05_c05_truck_10_n03417042_27151.JPEG
subject-05,1,213,1.08541297912598,bicycle,bicycle,c30,0212_con_s05_c30_bicycle_10_n02835271_1974.JPEG
subject-05,1,214,0.913723945617676,elephant,elephant,c50,0213_con_s05_c50_elephant_10_n02504458_7331.JPEG
subject-05,1,215,0.874245882034302,bird,bird,c50,0214_con_s05_c50_bird_10_n02033041_2971.JPEG
subject-05,1,216,1.13182711601257,bird,bird,c30,0215_con_s05_c30_bird_10_n02033041_16258.JPEG
subject-05,1,217,1.34667682647705,dog,dog,c30,0216_con_s05_c30_dog_10_n02096585_3216.JPEG
subject-05,1,218,1.21482110023499,airplane,airplane,c30,0217_con_s05_c30_airplane_10_n02690373_6665.JPEG
subject-05,1,219,0.821238994598389,boat,boat,c15,0218_con_s05_c15_boat_10_n03662601_11920.JPEG
subject-05,1,220,0.77379584312439,car,car,c10,0219_con_s05_c10_car_10_n03100240_1696.JPEG
subject-05,1,221,1.49644899368286,boat,elephant,c05,0220_con_s05_c05_elephant_10_n02504013_7487.JPEG
subject-05,1,222,1.24129295349121,bear,bear,c15,0221_con_s05_c15_bear_10_n02132136_2203.JPEG
subject-05,1,223,0.847583055496216,bear,bear,c100,0222_con_s05_c100_bear_10_n02133161_8445.JPEG
subject-05,1,224,1.19214105606079,oven,bottle,c01,0223_con_s05_c01_bottle_10_n03983396_9355.JPEG
subject-05,1,225,0.638553142547607,bicycle,bicycle,c10,0224_con_s05_c10_bicycle_10_n02835271_22996.JPEG
subject-05,1,226,1.36721396446228,bear,bear,c10,0225_con_s05_c10_bear_10_n02133161_3622.JPEG
subject-05,1,227,0.865787982940674,bear,bear,c30,0226_con_s05_c30_bear_10_n02133161_12674.JPEG
subject-05,1,228,0.780200958251953,oven,oven,c03,0227_con_s05_c03_oven_10_n04111531_21068.JPEG
subject-05,1,229,0.770446062088013,boat,oven,c03,0228_con_s05_c03_oven_10_n04111531_15912.JPEG
subject-05,1,230,0.952105045318604,dog,dog,c10,0229_con_s05_c10_dog_10_n02091831_5654.JPEG
subject-05,1,231,0.52861499786377,clock,clock,c30,0230_con_s05_c30_clock_10_n02708093_3790.JPEG
subject-05,1,232,0.82749605178833,clock,clock,c100,0231_con_s05_c100_clock_10_n04548280_6430.JPEG
subject-05,1,233,0.902229070663452,dog,dog,c30,0232_con_s05_c30_dog_10_n02105855_10309.JPEG
subject-05,1,234,1.1464729309082,bird,bird,c05,0233_con_s05_c05_bird_10_n01820546_12715.JPEG
subject-05,1,235,1.15296196937561,clock,bicycle,c01,0234_con_s05_c01_bicycle_10_n03792782_586.JPEG
subject-05,1,236,0.836983919143677,airplane,airplane,c100,0235_con_s05_c100_airplane_10_n02690373_8350.JPEG
subject-05,1,237,0.905652046203613,elephant,elephant,c05,0236_con_s05_c05_elephant_10_n02504458_5940.JPEG
subject-05,1,238,0.972337961196899,clock,clock,c10,0237_con_s05_c10_clock_10_n02708093_6688.JPEG
subject-05,1,239,0.649066925048828,boat,boat,c30,0238_con_s05_c30_boat_10_n04612504_79.JPEG
subject-05,1,240,0.895454883575439,oven,elephant,c03,0239_con_s05_c03_elephant_10_n02504458_6171.JPEG
subject-05,1,241,0.632179021835327,cat,oven,c01,0240_con_s05_c01_oven_10_n04111531_10375.JPEG
subject-05,1,242,1.38468813896179,car,car,c100,0241_con_s05_c100_car_10_n03100240_1813.JPEG
subject-05,1,243,1.43730783462524,cat,bear,c15,0242_con_s05_c15_bear_10_n02134084_1821.JPEG
subject-05,1,244,0.68992805480957,car,car,c30,0243_con_s05_c30_car_10_n02814533_19745.JPEG
subject-05,1,245,1.064208984375,bear,elephant,c100,0244_con_s05_c100_elephant_10_n02504013_4220.JPEG
subject-05,1,246,0.724807024002075,keyboard,keyboard,c10,0245_con_s05_c10_keyboard_10_n04505470_2040.JPEG
subject-05,1,247,NaN,na,dog,c30,0246_con_s05_c30_dog_10_n02094433_2214.JPEG
subject-05,1,248,0.613723993301392,boat,boat,c10,0247_con_s05_c10_boat_10_n03344393_3163.JPEG
subject-05,1,249,0.790668964385986,keyboard,keyboard,c30,0248_con_s05_c30_keyboard_10_n03085013_23354.JPEG
subject-05,1,250,1.12680387496948,chair,chair,c15,0249_con_s05_c15_chair_10_n04099969_15060.JPEG
subject-05,1,251,0.903483867645264,airplane,airplane,c30,0250_con_s05_c30_airplane_10_n02690373_9322.JPEG
subject-05,1,252,1.42383790016174,cat,cat,c30,0251_con_s05_c30_cat_10_n02123045_9647.JPEG
subject-05,1,253,1.37674307823181,car,car,c10,0252_con_s05_c10_car_10_n02814533_76739.JPEG
subject-05,1,254,0.737087965011597,clock,truck,c03,0253_con_s05_c03_truck_10_n03417042_4994.JPEG
subject-05,1,255,0.759415149688721,car,car,c15,0254_con_s05_c15_car_10_n03100240_5479.JPEG
subject-05,1,256,0.890501022338867,clock,clock,c15,0255_con_s05_c15_clock_10_n04548280_4713.JPEG
subject-05,1,257,0.760158777236938,bicycle,bicycle,c15,0256_con_s05_c15_bicycle_10_n02835271_3529.JPEG
subject-05,1,258,0.796869993209839,oven,oven,c15,0257_con_s05_c15_oven_10_n04111531_1752.JPEG
subject-05,1,259,0.657141923904419,clock,knife,c05,0258_con_s05_c05_knife_10_n03041632_102764.JPEG
subject-05,1,260,0.826040029525757,bottle,bottle,c100,0259_con_s05_c100_bottle_10_n04560804_8188.JPEG
subject-05,1,261,1.38622617721558,cat,bird,c50,0260_con_s05_c50_bird_10_n01828970_5075.JPEG
subject-05,1,262,0.709052085876465,boat,bear,c01,0261_con_s05_c01_bear_10_n02134418_5730.JPEG
subject-05,1,263,0.929211854934692,chair,chair,c30,0262_con_s05_c30_chair_10_n04099969_7527.JPEG
subject-05,1,264,0.757309913635254,car,car,c15,0263_con_s05_c15_car_10_n04285008_12018.JPEG
subject-05,1,265,1.28776502609253,cat,cat,c30,0264_con_s05_c30_cat_10_n02123159_5553.JPEG
subject-05,1,266,0.940786838531494,truck,truck,c30,0265_con_s05_c30_truck_10_n03796401_17318.JPEG
subject-05,1,267,0.792920112609863,cat,dog,c30,0266_con_s05_c30_dog_10_n02110958_4299.JPEG
subject-05,1,268,0.769880056381226,car,car,c100,0267_con_s05_c100_car_10_n04285008_3316.JPEG
subject-05,1,269,0.676236867904663,keyboard,keyboard,c10,0268_con_s05_c10_keyboard_10_n04505470_4902.JPEG
subject-05,1,270,0.966584920883179,oven,chair,c03,0269_con_s05_c03_chair_10_n04429376_9053.JPEG
subject-05,1,271,0.764977931976318,dog,dog,c05,0270_con_s05_c05_dog_10_n02096437_6074.JPEG
subject-05,1,272,1.10928606987,bicycle,boat,c03,0271_con_s05_c03_boat_10_n03662601_34987.JPEG
subject-05,1,273,0.961802005767822,keyboard,keyboard,c10,0272_con_s05_c10_keyboard_10_n03085013_23022.JPEG
subject-05,1,274,0.814268112182617,chair,chair,c15,0273_con_s05_c15_chair_10_n03376595_5773.JPEG
subject-05,1,275,0.87473201751709,bird,bird,c15,0274_con_s05_c15_bird_10_n01819313_7394.JPEG
subject-05,1,276,1.01153182983398,bicycle,bicycle,c100,0275_con_s05_c100_bicycle_10_n03792782_71904.JPEG
subject-05,1,277,1.50024890899658,oven,oven,c30,0276_con_s05_c30_oven_10_n04111531_172.JPEG
subject-05,1,278,0.678379058837891,clock,bicycle,c05,0277_con_s05_c05_bicycle_10_n03792782_47426.JPEG
subject-05,1,279,0.946686029434204,bicycle,truck,c03,0278_con_s05_c03_truck_10_n04467665_2557.JPEG
subject-05,1,280,0.683365821838379,boat,boat,c50,0279_con_s05_c50_boat_10_n04612504_11079.JPEG
subject-05,1,281,0.905878067016602,cat,cat,c30,0280_con_s05_c30_cat_10_n02123045_10938.JPEG
subject-05,1,282,1.31036496162415,elephant,elephant,c10,0281_con_s05_c10_elephant_10_n02504458_4711.JPEG
subject-05,1,283,1.18670511245728,oven,bottle,c01,0282_con_s05_c01_bottle_10_n04579145_6435.JPEG
subject-05,1,284,0.725341796875,clock,clock,c10,0283_con_s05_c10_clock_10_n03196217_2983.JPEG
subject-05,1,285,0.731928110122681,oven,car,c03,0284_con_s05_c03_car_10_n03100240_6035.JPEG
subject-05,1,286,1.0444278717041,bear,bear,c05,0285_con_s05_c05_bear_10_n02134084_17302.JPEG
subject-05,1,287,1.25067400932312,cat,bicycle,c01,0286_con_s05_c01_bicycle_10_n03792782_3435.JPEG
subject-05,1,288,1.14154505729675,truck,truck,c50,0287_con_s05_c50_truck_10_n03417042_27278.JPEG
subject-05,1,289,0.947721004486084,cat,knife,c10,0288_con_s05_c10_knife_10_n03041632_87380.JPEG
subject-05,1,290,1.16290402412415,bear,bear,c15,0289_con_s05_c15_bear_10_n02133161_1728.JPEG
subject-05,1,291,0.885376930236816,boat,boat,c100,0290_con_s05_c100_boat_10_n04273569_247.JPEG
subject-05,1,292,0.745874881744385,clock,cat,c01,0291_con_s05_c01_cat_10_n02125311_34817.JPEG
subject-05,1,293,0.936291933059692,bottle,bottle,c15,0292_con_s05_c15_bottle_10_n04579145_4971.JPEG
subject-05,1,294,1.04286098480225,keyboard,keyboard,c15,0293_con_s05_c15_keyboard_10_n04505470_3002.JPEG
subject-05,1,295,1.18748497962952,elephant,elephant,c15,0294_con_s05_c15_elephant_10_n02504458_1231.JPEG
subject-05,1,296,0.63422703742981,truck,truck,c10,0295_con_s05_c10_truck_10_n03417042_6241.JPEG
subject-05,1,297,0.824708938598633,cat,knife,c10,0296_con_s05_c10_knife_10_n03041632_44212.JPEG
subject-05,1,298,0.652822017669678,airplane,airplane,c05,0297_con_s05_c05_airplane_10_n02690373_8592.JPEG
subject-05,1,299,0.645775079727173,bird,bird,c50,0298_con_s05_c50_bird_10_n01829413_506.JPEG
subject-05,1,300,0.91963005065918,airplane,airplane,c15,0299_con_s05_c15_airplane_10_n02690373_20074.JPEG
subject-05,1,301,0.842598915100098,clock,bear,c03,0300_con_s05_c03_bear_10_n02134418_2521.JPEG
subject-05,1,302,0.887153148651123,airplane,airplane,c30,0301_con_s05_c30_airplane_10_n02690373_10723.JPEG
subject-05,1,303,0.861697912216187,boat,oven,c03,0302_con_s05_c03_oven_10_n04111531_15635.JPEG
subject-05,1,304,1.19814395904541,car,car,c05,0303_con_s05_c05_car_10_n04285008_8866.JPEG
subject-05,1,305,0.758792161941528,cat,cat,c10,0304_con_s05_c10_cat_10_n02123045_3477.JPEG
subject-05,1,306,1.36523604393005,boat,boat,c01,0305_con_s05_c01_boat_10_n03662601_989.JPEG
subject-05,1,307,0.833914995193481,keyboard,keyboard,c10,0306_con_s05_c10_keyboard_10_n03085013_3178.JPEG
subject-05,1,308,1.14648199081421,elephant,elephant,c100,0307_con_s05_c100_elephant_10_n02504458_7472.JPEG
subject-05,1,309,1.04488515853882,airplane,airplane,c50,0308_con_s05_c50_airplane_10_n02690373_19118.JPEG
subject-05,1,310,0.73737096786499,clock,knife,c03,0309_con_s05_c03_knife_10_n03041632_33255.JPEG
subject-05,1,311,1.01190996170044,oven,truck,c01,0310_con_s05_c01_truck_10_n03417042_5235.JPEG
subject-05,1,312,0.696540117263794,cat,elephant,c03,0311_con_s05_c03_elephant_10_n02504013_3473.JPEG
subject-05,1,313,0.732686042785645,chair,chair,c100,0312_con_s05_c100_chair_10_n04099969_4100.JPEG
subject-05,1,314,0.877733945846558,cat,dog,c01,0313_con_s05_c01_dog_10_n02107312_29.JPEG
subject-05,1,315,0.997726917266846,cat,bicycle,c03,0314_con_s05_c03_bicycle_10_n03792782_5035.JPEG
subject-05,1,316,0.844612121582031,car,car,c30,0315_con_s05_c30_car_10_n04285008_13104.JPEG
subject-05,1,317,1.4497230052948,car,bottle,c100,0316_con_s05_c100_bottle_10_n04557648_25201.JPEG
subject-05,1,318,1.087730884552,oven,oven,c50,0317_con_s05_c50_oven_10_n04111531_10064.JPEG
subject-05,1,319,NaN,na,knife,c15,0318_con_s05_c15_knife_10_n03041632_13424.JPEG
subject-05,1,320,0.776835918426514,bear,bear,c50,0319_con_s05_c50_bear_10_n02134084_22684.JPEG
subject-05,1,321,0.97592306137085,bear,dog,c03,0320_con_s05_c03_dog_10_n02088094_5927.JPEG
subject-05,1,322,0.728315830230713,oven,bicycle,c01,0321_con_s05_c01_bicycle_10_n02835271_4480.JPEG
subject-05,1,323,0.809174060821533,car,car,c30,0322_con_s05_c30_car_10_n03100240_10861.JPEG
subject-05,1,324,0.884013175964355,bear,bear,c30,0323_con_s05_c30_bear_10_n02133161_6394.JPEG
subject-05,1,325,0.714213848114014,oven,airplane,c03,0324_con_s05_c03_airplane_10_n02690373_5838.JPEG
subject-05,1,326,0.751135110855103,cat,keyboard,c30,0325_con_s05_c30_keyboard_10_n03085013_23254.JPEG
subject-05,1,327,0.941699028015137,dog,dog,c100,0326_con_s05_c100_dog_10_n02093991_5397.JPEG
subject-05,1,328,0.710219144821167,keyboard,keyboard,c50,0327_con_s05_c50_keyboard_10_n03085013_22260.JPEG
subject-05,1,329,1.42254996299744,oven,bottle,c15,0328_con_s05_c15_bottle_10_n03983396_1487.JPEG
subject-05,1,330,0.997262001037598,bottle,bottle,c10,0329_con_s05_c10_bottle_10_n04591713_3575.JPEG
subject-05,1,331,0.989675998687744,cat,bicycle,c01,0330_con_s05_c01_bicycle_10_n02835271_6032.JPEG
subject-05,1,332,1.15619778633118,bottle,keyboard,c15,0331_con_s05_c15_keyboard_10_n04505470_3068.JPEG
subject-05,1,333,0.669852018356323,bicycle,bicycle,c15,0332_con_s05_c15_bicycle_10_n02835271_8764.JPEG
subject-05,1,334,1.06069302558899,truck,truck,c15,0333_con_s05_c15_truck_10_n03417042_29408.JPEG
subject-05,1,335,0.951092004776001,chair,chair,c50,0334_con_s05_c50_chair_10_n02791124_3370.JPEG
subject-05,1,336,1.30364489555359,chair,boat,c30,0335_con_s05_c30_boat_10_n04612504_2255.JPEG
subject-05,1,337,0.648020029067993,clock,clock,c30,0336_con_s05_c30_clock_10_n04548280_9755.JPEG
subject-05,1,338,1.01604104042053,boat,oven,c03,0337_con_s05_c03_oven_10_n04111531_8255.JPEG
subject-05,1,339,0.982501983642578,bicycle,bicycle,c05,0338_con_s05_c05_bicycle_10_n03792782_33413.JPEG
subject-05,1,340,1.50021696090698,keyboard,boat,c01,0339_con_s05_c01_boat_10_n03662601_6085.JPEG
subject-05,1,341,1.0799298286438,truck,truck,c03,0340_con_s05_c03_truck_10_n04467665_57380.JPEG
subject-05,1,342,0.848516941070557,knife,knife,c50,0341_con_s05_c50_knife_10_n03041632_2338.JPEG
subject-05,1,343,1.19371008872986,bottle,bottle,c15,0342_con_s05_c15_bottle_10_n03983396_971.JPEG
subject-05,1,344,0.907729864120483,keyboard,keyboard,c100,0343_con_s05_c100_keyboard_10_n03085013_18779.JPEG
subject-05,1,345,1.3584361076355,oven,bottle,c10,0344_con_s05_c10_bottle_10_n04560804_22719.JPEG
subject-05,1,346,1.24892616271973,boat,knife,c03,0345_con_s05_c03_knife_10_n03041632_30286.JPEG
subject-05,1,347,0.903467893600464,cat,airplane,c01,0346_con_s05_c01_airplane_10_n02690373_971.JPEG
subject-05,1,348,1.24569916725159,bicycle,bicycle,c30,0347_con_s05_c30_bicycle_10_n02835271_21490.JPEG
subject-05,1,349,0.822229862213135,bottle,bottle,c100,0348_con_s05_c100_bottle_10_n02823428_10584.JPEG
subject-05,1,350,1.0593478679657,chair,bottle,c100,0349_con_s05_c100_bottle_10_n03983396_4439.JPEG
subject-05,1,351,0.949611902236938,keyboard,keyboard,c05,0350_con_s05_c05_keyboard_10_n04505470_709.JPEG
subject-05,1,352,1.14826393127441,truck,truck,c15,0351_con_s05_c15_truck_10_n03796401_8206.JPEG
subject-05,1,353,0.816771984100342,keyboard,keyboard,c50,0352_con_s05_c50_keyboard_10_n03085013_22254.JPEG
subject-05,1,354,0.891136169433594,chair,chair,c15,0353_con_s05_c15_chair_10_n04099969_5364.JPEG
subject-05,1,355,1.19763517379761,keyboard,keyboard,c100,0354_con_s05_c100_keyboard_10_n04505470_4751.JPEG
subject-05,1,356,0.93428111076355,keyboard,keyboard,c50,0355_con_s05_c50_keyboard_10_n04505470_1187.JPEG
subject-05,1,357,1.14091300964355,bird,bird,c30,0356_con_s05_c30_bird_10_n02013706_298.JPEG
subject-05,1,358,0.759725093841553,boat,boat,c100,0357_con_s05_c100_boat_10_n02951358_11729.JPEG
subject-05,1,359,0.890589952468872,boat,car,c01,0358_con_s05_c01_car_10_n04285008_10893.JPEG
subject-05,1,360,0.74318790435791,clock,airplane,c03,0359_con_s05_c03_airplane_10_n02690373_1350.JPEG
subject-05,1,361,1.17176485061646,bird,bird,c03,0360_con_s05_c03_bird_10_n01622779_303.JPEG
subject-05,1,362,0.832393884658813,airplane,airplane,c10,0361_con_s05_c10_airplane_10_n02690373_1279.JPEG
subject-05,1,363,0.738771200180054,car,car,c100,0362_con_s05_c100_car_10_n03100240_18547.JPEG
subject-05,1,364,1.11333084106445,bird,bird,c50,0363_con_s05_c50_bird_10_n01829413_9190.JPEG
subject-05,1,365,1.08774590492249,car,car,c50,0364_con_s05_c50_car_10_n03100240_7342.JPEG
subject-05,1,366,0.872479915618896,bottle,bottle,c10,0365_con_s05_c10_bottle_10_n03983396_1866.JPEG
subject-05,1,367,0.563330888748169,cat,cat,c50,0366_con_s05_c50_cat_10_n02124075_9953.JPEG
subject-05,1,368,0.923521041870117,clock,oven,c05,0367_con_s05_c05_oven_10_n04111531_20407.JPEG
subject-05,1,369,NaN,na,clock,c30,0368_con_s05_c30_clock_10_n03196217_3558.JPEG
subject-05,1,370,1.01076292991638,airplane,oven,c05,0369_con_s05_c05_oven_10_n04111531_11794.JPEG
subject-05,1,371,0.963154077529907,oven,bear,c03,0370_con_s05_c03_bear_10_n02133161_1271.JPEG
subject-05,1,372,0.924077033996582,dog,dog,c05,0371_con_s05_c05_dog_10_n02097047_2534.JPEG
subject-05,1,373,0.86848783493042,car,car,c05,0372_con_s05_c05_car_10_n02814533_74915.JPEG
subject-05,1,374,0.690974950790405,boat,knife,c01,0373_con_s05_c01_knife_10_n03041632_27134.JPEG
subject-05,1,375,0.697592973709106,keyboard,keyboard,c100,0374_con_s05_c100_keyboard_10_n03085013_28150.JPEG
subject-05,1,376,0.687911033630371,cat,cat,c15,0375_con_s05_c15_cat_10_n02123045_12100.JPEG
subject-05,1,377,0.662467002868652,oven,oven,c100,0376_con_s05_c100_oven_10_n04111531_8681.JPEG
subject-05,1,378,0.760926961898804,oven,airplane,c05,0377_con_s05_c05_airplane_10_n02690373_9432.JPEG
subject-05,1,379,0.645555973052979,cat,cat,c50,0378_con_s05_c50_cat_10_n02124075_13216.JPEG
subject-05,1,380,0.673862934112549,airplane,airplane,c100,0379_con_s05_c100_airplane_10_n02690373_7686.JPEG
subject-05,1,381,0.926494121551514,chair,chair,c50,0380_con_s05_c50_chair_10_n02791124_14021.JPEG
subject-05,1,382,1.12343502044678,clock,clock,c03,0381_con_s05_c03_clock_10_n02708093_7032.JPEG
subject-05,1,383,0.753870964050293,bird,bird,c100,0382_con_s05_c100_bird_10_n01833805_1979.JPEG
subject-05,1,384,1.01456189155579,cat,clock,c03,0383_con_s05_c03_clock_10_n04548280_354.JPEG
subject-05,1,385,0.754783153533936,bird,bird,c100,0384_con_s05_c100_bird_10_n01558993_5122.JPEG
subject-05,1,386,0.491068124771118,clock,clock,c15,0385_con_s05_c15_clock_10_n03196217_7867.JPEG
subject-05,1,387,0.728150129318237,cat,cat,c05,0386_con_s05_c05_cat_10_n02124075_5874.JPEG
subject-05,1,388,1.21043014526367,bottle,bottle,c50,0387_con_s05_c50_bottle_10_n04560804_3555.JPEG
subject-05,1,389,0.855129957199097,chair,chair,c50,0388_con_s05_c50_chair_10_n02791124_958.JPEG
subject-05,1,390,0.911945104598999,bicycle,bicycle,c100,0389_con_s05_c100_bicycle_10_n02835271_8689.JPEG
subject-05,1,391,0.856500864028931,airplane,airplane,c10,0390_con_s05_c10_airplane_10_n02690373_6720.JPEG
subject-05,1,392,0.587486028671265,cat,cat,c50,0391_con_s05_c50_cat_10_n02124075_10190.JPEG
subject-05,1,393,0.846034049987793,chair,chair,c15,0392_con_s05_c15_chair_10_n03376595_642.JPEG
subject-05,1,394,0.698992967605591,car,car,c10,0393_con_s05_c10_car_10_n02814533_2170.JPEG
subject-05,1,395,0.788824796676636,cat,oven,c100,0394_con_s05_c100_oven_10_n04111531_12308.JPEG
subject-05,1,396,0.633247852325439,cat,chair,c03,0395_con_s05_c03_chair_10_n03376595_1652.JPEG
subject-05,1,397,0.831865072250366,boat,car,c01,0396_con_s05_c01_car_10_n04285008_1680.JPEG
subject-05,1,398,0.806121110916138,car,car,c50,0397_con_s05_c50_car_10_n02814533_26180.JPEG
subject-05,1,399,1.43463683128357,cat,bottle,c50,0398_con_s05_c50_bottle_10_n04560804_5222.JPEG
subject-05,1,400,0.773005962371826,airplane,airplane,c30,0399_con_s05_c30_airplane_10_n02690373_1615.JPEG
subject-05,1,401,1.15354418754578,bottle,dog,c01,0400_con_s05_c01_dog_10_n02112350_9656.JPEG
subject-05,1,402,0.845932006835938,truck,truck,c30,0401_con_s05_c30_truck_10_n03417042_28657.JPEG
subject-05,1,403,0.828553915023804,bicycle,bicycle,c50,0402_con_s05_c50_bicycle_10_n03792782_18884.JPEG
subject-05,1,404,0.964500904083252,clock,boat,c05,0403_con_s05_c05_boat_10_n03344393_2118.JPEG
subject-05,1,405,0.762389898300171,clock,clock,c30,0404_con_s05_c30_clock_10_n02708093_3454.JPEG
subject-05,1,406,0.92104697227478,car,car,c30,0405_con_s05_c30_car_10_n04285008_7375.JPEG
subject-05,1,407,0.973333120346069,bicycle,bicycle,c100,0406_con_s05_c100_bicycle_10_n03792782_4377.JPEG
subject-05,1,408,1.34038805961609,truck,truck,c30,0407_con_s05_c30_truck_10_n03417042_4560.JPEG
subject-05,1,409,0.976788997650146,boat,boat,c10,0408_con_s05_c10_boat_10_n03662601_1604.JPEG
subject-05,1,410,0.676975965499878,car,car,c50,0409_con_s05_c50_car_10_n04285008_14234.JPEG
subject-05,1,411,0.989436864852905,cat,bottle,c05,0410_con_s05_c05_bottle_10_n04591713_5501.JPEG
subject-05,1,412,1.45595812797546,boat,keyboard,c05,0411_con_s05_c05_keyboard_10_n04505470_5156.JPEG
subject-05,1,413,0.757067918777466,bear,bear,c10,0412_con_s05_c10_bear_10_n02132136_4817.JPEG
subject-05,1,414,0.993276119232178,car,car,c05,0413_con_s05_c05_car_10_n04285008_13471.JPEG
subject-05,1,415,0.959650993347168,boat,truck,c05,0414_con_s05_c05_truck_10_n03417042_19668.JPEG
subject-05,1,416,1.19624209403992,boat,bear,c05,0415_con_s05_c05_bear_10_n02133161_4493.JPEG
subject-05,1,417,0.940667152404785,chair,chair,c100,0416_con_s05_c100_chair_10_n04099969_6828.JPEG
subject-05,1,418,0.892737150192261,chair,chair,c10,0417_con_s05_c10_chair_10_n04429376_39754.JPEG
subject-05,1,419,0.951029062271118,oven,clock,c01,0418_con_s05_c01_clock_10_n02708093_6619.JPEG
subject-05,1,420,0.794373989105225,clock,airplane,c01,0419_con_s05_c01_airplane_10_n02690373_1071.JPEG
subject-05,1,421,0.654651880264282,car,car,c10,0420_con_s05_c10_car_10_n02814533_3055.JPEG
subject-05,1,422,0.65851902961731,clock,bear,c05,0421_con_s05_c05_bear_10_n02134418_5067.JPEG
subject-05,1,423,0.857038021087646,elephant,elephant,c50,0422_con_s05_c50_elephant_10_n02504013_2012.JPEG
subject-05,1,424,0.823791027069092,airplane,airplane,c50,0423_con_s05_c50_airplane_10_n02690373_9404.JPEG
subject-05,1,425,0.806097030639648,oven,truck,c05,0424_con_s05_c05_truck_10_n03417042_3952.JPEG
subject-05,1,426,0.766505002975464,oven,oven,c15,0425_con_s05_c15_oven_10_n04111531_1855.JPEG
subject-05,1,427,0.856956005096436,keyboard,bottle,c03,0426_con_s05_c03_bottle_10_n03983396_2763.JPEG
subject-05,1,428,0.985721111297607,airplane,knife,c05,0427_con_s05_c05_knife_10_n03041632_9635.JPEG
subject-05,1,429,1.48208904266357,car,car,c05,0428_con_s05_c05_car_10_n02814533_5404.JPEG
subject-05,1,430,0.950656890869141,car,car,c15,0429_con_s05_c15_car_10_n04285008_12508.JPEG
subject-05,1,431,1.0085129737854,bear,truck,c01,0430_con_s05_c01_truck_10_n03417042_3288.JPEG
subject-05,1,432,0.898668050765991,bird,bird,c05,0431_con_s05_c05_bird_10_n02027492_1554.JPEG
subject-05,1,433,0.667045116424561,keyboard,keyboard,c100,0432_con_s05_c100_keyboard_10_n04505470_4706.JPEG
subject-05,1,434,0.665508031845093,chair,chair,c30,0433_con_s05_c30_chair_10_n03376595_10318.JPEG
subject-05,1,435,0.970221996307373,car,car,c05,0434_con_s05_c05_car_10_n03100240_13601.JPEG
subject-05,1,436,0.882594108581543,cat,cat,c30,0435_con_s05_c30_cat_10_n02123394_1832.JPEG
subject-05,1,437,0.821377038955688,bottle,bottle,c03,0436_con_s05_c03_bottle_10_n04591713_4927.JPEG
subject-05,1,438,0.833684921264648,airplane,airplane,c30,0437_con_s05_c30_airplane_10_n02690373_5628.JPEG
subject-05,1,439,0.832455158233643,clock,bear,c01,0438_con_s05_c01_bear_10_n02132136_1405.JPEG
subject-05,1,440,1.09889221191406,truck,truck,c05,0439_con_s05_c05_truck_10_n04467665_59509.JPEG
subject-05,1,441,1.24344205856323,chair,chair,c05,0440_con_s05_c05_chair_10_n03376595_7172.JPEG
subject-05,1,442,0.67424488067627,boat,airplane,c01,0441_con_s05_c01_airplane_10_n02690373_7200.JPEG
subject-05,1,443,0.694646120071411,clock,oven,c03,0442_con_s05_c03_oven_10_n04111531_6500.JPEG
subject-05,1,444,0.839300870895386,bicycle,bicycle,c50,0443_con_s05_c50_bicycle_10_n02835271_17238.JPEG
subject-05,1,445,0.897748947143555,keyboard,keyboard,c15,0444_con_s05_c15_keyboard_10_n03085013_21084.JPEG
subject-05,1,446,0.912042140960693,elephant,elephant,c100,0445_con_s05_c100_elephant_10_n02504458_1661.JPEG
subject-05,1,447,0.832828044891357,bottle,bottle,c100,0446_con_s05_c100_bottle_10_n04560804_1487.JPEG
subject-05,1,448,0.763145923614502,chair,chair,c10,0447_con_s05_c10_chair_10_n04429376_17336.JPEG
subject-05,1,449,0.66218900680542,boat,boat,c05,0448_con_s05_c05_boat_10_n04273569_6637.JPEG
subject-05,1,450,0.798389911651611,elephant,oven,c15,0449_con_s05_c15_oven_10_n04111531_21208.JPEG
subject-05,1,451,0.696822881698608,chair,chair,c50,0450_con_s05_c50_chair_10_n02791124_2463.JPEG
subject-05,1,452,0.809668064117432,car,car,c15,0451_con_s05_c15_car_10_n03100240_24327.JPEG
subject-05,1,453,1.10587406158447,dog,dog,c15,0452_con_s05_c15_dog_10_n02093256_1566.JPEG
subject-05,1,454,1.48033881187439,bear,airplane,c01,0453_con_s05_c01_airplane_10_n02690373_7239.JPEG
subject-05,1,455,0.781239986419678,cat,truck,c01,0454_con_s05_c01_truck_10_n03417042_1279.JPEG
subject-05,1,456,0.855448961257935,keyboard,keyboard,c15,0455_con_s05_c15_keyboard_10_n03085013_20898.JPEG
subject-05,1,457,0.822013139724731,oven,oven,c30,0456_con_s05_c30_oven_10_n04111531_10358.JPEG
subject-05,1,458,0.712460994720459,oven,oven,c10,0457_con_s05_c10_oven_10_n04111531_18520.JPEG
subject-05,1,459,0.686964988708496,clock,clock,c15,0458_con_s05_c15_clock_10_n03196217_3063.JPEG
subject-05,1,460,1.05593919754028,bird,truck,c15,0459_con_s05_c15_truck_10_n03417042_28552.JPEG
subject-05,1,461,0.860173940658569,bear,bear,c15,0460_con_s05_c15_bear_10_n02134084_2929.JPEG
subject-05,1,462,0.974370002746582,knife,knife,c05,0461_con_s05_c05_knife_10_n03041632_11495.JPEG
subject-05,1,463,0.719322204589844,oven,cat,c03,0462_con_s05_c03_cat_10_n02124075_13719.JPEG
subject-05,1,464,0.664031028747559,keyboard,keyboard,c30,0463_con_s05_c30_keyboard_10_n03085013_25559.JPEG
subject-05,1,465,0.854652166366577,boat,chair,c01,0464_con_s05_c01_chair_10_n04429376_20220.JPEG
subject-05,1,466,0.766952991485596,bear,bear,c100,0465_con_s05_c100_bear_10_n02133161_2767.JPEG
subject-05,1,467,1.32550597190857,dog,elephant,c15,0466_con_s05_c15_elephant_10_n02504013_3433.JPEG
subject-05,1,468,0.964153051376343,airplane,airplane,c05,0467_con_s05_c05_airplane_10_n02690373_7748.JPEG
subject-05,1,469,0.968413114547729,bicycle,keyboard,c03,0468_con_s05_c03_keyboard_10_n04505470_5172.JPEG
subject-05,1,470,0.904623031616211,clock,clock,c30,0469_con_s05_c30_clock_10_n04548280_821.JPEG
subject-05,1,471,0.741767883300781,cat,bottle,c05,0470_con_s05_c05_bottle_10_n03983396_11885.JPEG
subject-05,1,472,0.939713001251221,keyboard,oven,c05,0471_con_s05_c05_oven_10_n04111531_11589.JPEG
subject-05,1,473,0.713873863220215,clock,boat,c01,0472_con_s05_c01_boat_10_n02951358_6414.JPEG
subject-05,1,474,0.820302963256836,boat,boat,c15,0473_con_s05_c15_boat_10_n04612504_10005.JPEG
subject-05,1,475,0.716660976409912,boat,boat,c10,0474_con_s05_c10_boat_10_n04612504_1336.JPEG
subject-05,1,476,0.760656118392944,cat,bottle,c05,0475_con_s05_c05_bottle_10_n04557648_5127.JPEG
subject-05,1,477,0.926846027374268,dog,dog,c100,0476_con_s05_c100_dog_10_n02088094_10882.JPEG
subject-05,1,478,1.36349892616272,bear,bird,c03,0477_con_s05_c03_bird_10_n01855672_13410.JPEG
subject-05,1,479,1.09835910797119,airplane,dog,c01,0478_con_s05_c01_dog_10_n02094258_1592.JPEG
subject-05,1,480,1.31089186668396,dog,dog,c100,0479_con_s05_c100_dog_10_n02104029_4727.JPEG
subject-05,1,481,0.64739203453064,cat,knife,c05,0480_con_s05_c05_knife_10_n03041632_7119.JPEG
subject-05,1,482,1.46820211410522,cat,bear,c50,0481_con_s05_c50_bear_10_n02134084_23332.JPEG
subject-05,1,483,0.92064905166626,bottle,bottle,c50,0482_con_s05_c50_bottle_10_n04579145_2004.JPEG
subject-05,1,484,0.713393926620483,keyboard,keyboard,c30,0483_con_s05_c30_keyboard_10_n03085013_3539.JPEG
subject-05,1,485,1.01796984672546,truck,truck,c10,0484_con_s05_c10_truck_10_n03417042_8912.JPEG
subject-05,1,486,0.862176179885864,oven,oven,c10,0485_con_s05_c10_oven_10_n04111531_9429.JPEG
subject-05,1,487,0.715020179748535,bicycle,bicycle,c100,0486_con_s05_c100_bicycle_10_n03792782_3410.JPEG
subject-05,1,488,0.659357070922852,cat,cat,c15,0487_con_s05_c15_cat_10_n02123159_1365.JPEG
subject-05,1,489,0.833777904510498,bicycle,bicycle,c15,0488_con_s05_c15_bicycle_10_n02835271_24851.JPEG
subject-05,1,490,1.20518779754639,keyboard,airplane,c03,0489_con_s05_c03_airplane_10_n02690373_3728.JPEG
subject-05,1,491,0.758347034454346,boat,cat,c30,0490_con_s05_c30_cat_10_n02123045_6440.JPEG
subject-05,1,492,1.17856812477112,cat,bear,c01,0491_con_s05_c01_bear_10_n02132136_6155.JPEG
subject-05,1,493,0.600760936737061,oven,oven,c100,0492_con_s05_c100_oven_10_n04111531_7340.JPEG
subject-05,1,494,0.813195943832397,bear,bear,c30,0493_con_s05_c30_bear_10_n02134084_14754.JPEG
subject-05,1,495,0.720340967178345,bird,bird,c100,0494_con_s05_c100_bird_10_n01582220_32242.JPEG
subject-05,1,496,0.573109149932861,oven,oven,c10,0495_con_s05_c10_oven_10_n04111531_16251.JPEG
subject-05,1,497,0.755589962005615,cat,airplane,c05,0496_con_s05_c05_airplane_10_n02690373_6929.JPEG
subject-05,1,498,0.9060959815979,truck,truck,c30,0497_con_s05_c30_truck_10_n04467665_40162.JPEG
subject-05,1,499,0.720649003982544,cat,cat,c50,0498_con_s05_c50_cat_10_n02123597_10950.JPEG
subject-05,1,500,1.50040411949158,bird,bird,c15,0499_con_s05_c15_bird_10_n02017213_7608.JPEG
subject-05,1,501,0.777627944946289,boat,boat,c50,0500_con_s05_c50_boat_10_n04273569_8888.JPEG
subject-05,1,502,1.02000308036804,keyboard,keyboard,c05,0501_con_s05_c05_keyboard_10_n04505470_5175.JPEG
subject-05,1,503,1.50017690658569,clock,bicycle,c05,0502_con_s05_c05_bicycle_10_n03792782_15431.JPEG
subject-05,1,504,0.808943033218384,bear,bear,c30,0503_con_s05_c30_bear_10_n02132136_9199.JPEG
subject-05,1,505,0.891927003860474,boat,keyboard,c01,0504_con_s05_c01_keyboard_10_n03085013_2594.JPEG
subject-05,1,506,0.636307001113892,clock,car,c03,0505_con_s05_c03_car_10_n04285008_2781.JPEG
subject-05,1,507,0.818613052368164,oven,bird,c01,0506_con_s05_c01_bird_10_n01817953_8763.JPEG
subject-05,1,508,0.747390031814575,cat,bird,c01,0507_con_s05_c01_bird_10_n02027492_6463.JPEG
subject-05,1,509,0.967690944671631,boat,keyboard,c01,0508_con_s05_c01_keyboard_10_n03085013_21166.JPEG
subject-05,1,510,1.12604904174805,cat,dog,c03,0509_con_s05_c03_dog_10_n02088466_11318.JPEG
subject-05,1,511,0.780817985534668,car,car,c100,0510_con_s05_c100_car_10_n03100240_20185.JPEG
subject-05,1,512,0.794147968292236,elephant,elephant,c10,0511_con_s05_c10_elephant_10_n02504013_945.JPEG
subject-05,1,513,0.82134485244751,cat,cat,c15,0512_con_s05_c15_cat_10_n02123159_3495.JPEG
subject-05,1,514,0.595890045166016,clock,clock,c10,0513_con_s05_c10_clock_10_n02708093_2260.JPEG
subject-05,1,515,0.702598810195923,car,truck,c50,0514_con_s05_c50_truck_10_n03796401_17673.JPEG
subject-05,1,516,0.65527081489563,boat,keyboard,c01,0515_con_s05_c01_keyboard_10_n03085013_23485.JPEG
subject-05,1,517,0.843854904174805,bicycle,bicycle,c50,0516_con_s05_c50_bicycle_10_n03792782_10526.JPEG
subject-05,1,518,1.50014710426331,clock,chair,c05,0517_con_s05_c05_chair_10_n03376595_9165.JPEG
subject-05,1,519,0.618769884109497,clock,clock,c05,0518_con_s05_c05_clock_10_n02708093_6768.JPEG
subject-05,1,520,0.647356033325195,oven,elephant,c01,0519_con_s05_c01_elephant_10_n02504458_1996.JPEG
subject-05,1,521,0.791834831237793,knife,knife,c30,0520_con_s05_c30_knife_10_n03041632_8468.JPEG
subject-05,1,522,0.704617977142334,car,car,c100,0521_con_s05_c100_car_10_n02814533_38308.JPEG
subject-05,1,523,1.49268698692322,dog,dog,c100,0522_con_s05_c100_dog_10_n02109961_21386.JPEG
subject-05,1,524,0.743428945541382,bear,bear,c30,0523_con_s05_c30_bear_10_n02133161_1976.JPEG
subject-05,1,525,0.70203685760498,boat,bird,c03,0524_con_s05_c03_bird_10_n02056570_8865.JPEG
subject-05,1,526,0.629791021347046,clock,clock,c01,0525_con_s05_c01_clock_10_n04548280_3323.JPEG
subject-05,1,527,1.21244788169861,oven,oven,c100,0526_con_s05_c100_oven_10_n04111531_2189.JPEG
subject-05,1,528,0.78703498840332,cat,bear,c05,0527_con_s05_c05_bear_10_n02133161_334.JPEG
subject-05,1,529,1.18525695800781,clock,clock,c10,0528_con_s05_c10_clock_10_n03196217_3862.JPEG
subject-05,1,530,0.921428918838501,airplane,airplane,c10,0529_con_s05_c10_airplane_10_n02690373_7210.JPEG
subject-05,1,531,0.827939987182617,boat,oven,c03,0530_con_s05_c03_oven_10_n04111531_2803.JPEG
subject-05,1,532,0.802335023880005,dog,dog,c100,0531_con_s05_c100_dog_10_n02085936_4474.JPEG
subject-05,1,533,0.846853017807007,chair,chair,c15,0532_con_s05_c15_chair_10_n03376595_5503.JPEG
subject-05,1,534,0.65987491607666,boat,boat,c10,0533_con_s05_c10_boat_10_n03344393_5054.JPEG
subject-05,1,535,0.642194986343384,clock,clock,c15,0534_con_s05_c15_clock_10_n03196217_4600.JPEG
subject-05,1,536,1.19467282295227,chair,oven,c50,0535_con_s05_c50_oven_10_n04111531_7076.JPEG
subject-05,1,537,1.11523699760437,knife,knife,c05,0536_con_s05_c05_knife_10_n03041632_10263.JPEG
subject-05,1,538,0.675748109817505,cat,bottle,c01,0537_con_s05_c01_bottle_10_n03983396_899.JPEG
subject-05,1,539,0.888200044631958,bear,bear,c05,0538_con_s05_c05_bear_10_n02133161_12304.JPEG
subject-05,1,540,NaN,na,bear,c10,0539_con_s05_c10_bear_10_n02134084_1921.JPEG
subject-05,1,541,1.05375194549561,dog,dog,c100,0540_con_s05_c100_dog_10_n02099601_1323.JPEG
subject-05,1,542,1.23609495162964,bottle,truck,c03,0541_con_s05_c03_truck_10_n03417042_7521.JPEG
subject-05,1,543,0.758646011352539,airplane,airplane,c15,0542_con_s05_c15_airplane_10_n02690373_20690.JPEG
subject-05,1,544,0.958560228347778,elephant,elephant,c05,0543_con_s05_c05_elephant_10_n02504013_24680.JPEG
subject-05,1,545,0.871093034744263,boat,bottle,c05,0544_con_s05_c05_bottle_10_n04579145_1597.JPEG
subject-05,1,546,0.778113126754761,clock,clock,c50,0545_con_s05_c50_clock_10_n02708093_2295.JPEG
subject-05,1,547,0.730049133300781,chair,chair,c30,0546_con_s05_c30_chair_10_n04099969_32019.JPEG
subject-05,1,548,0.826020002365112,oven,chair,c05,0547_con_s05_c05_chair_10_n04099969_10974.JPEG
subject-05,1,549,0.616731882095337,bear,bear,c10,0548_con_s05_c10_bear_10_n02134084_18810.JPEG
subject-05,1,550,0.99899697303772,truck,truck,c15,0549_con_s05_c15_truck_10_n03417042_6685.JPEG
subject-05,1,551,0.857380151748657,oven,oven,c10,0550_con_s05_c10_oven_10_n04111531_25647.JPEG
subject-05,1,552,0.701415061950684,truck,truck,c100,0551_con_s05_c100_truck_10_n04467665_33086.JPEG
subject-05,1,553,1.0760509967804,bicycle,bird,c01,0552_con_s05_c01_bird_10_n01582220_3769.JPEG
subject-05,1,554,0.652305126190186,chair,chair,c10,0553_con_s05_c10_chair_10_n04429376_7181.JPEG
subject-05,1,555,1.11070203781128,chair,knife,c50,0554_con_s05_c50_knife_10_n03041632_94155.JPEG
subject-05,1,556,0.801300048828125,elephant,elephant,c05,0555_con_s05_c05_elephant_10_n02504013_4295.JPEG
subject-05,1,557,1.15996289253235,bicycle,bicycle,c10,0556_con_s05_c10_bicycle_10_n02835271_18453.JPEG
subject-05,1,558,1.06628108024597,dog,dog,c10,0557_con_s05_c10_dog_10_n02086646_4148.JPEG
subject-05,1,559,0.526356935501099,airplane,airplane,c30,0558_con_s05_c30_airplane_10_n02690373_5524.JPEG
subject-05,1,560,1.46633195877075,car,oven,c30,0559_con_s05_c30_oven_10_n04111531_1295.JPEG
subject-05,1,561,0.737273931503296,clock,clock,c100,0560_con_s05_c100_clock_10_n04548280_4295.JPEG
subject-05,1,562,1.11786198616028,elephant,bird,c10,0561_con_s05_c10_bird_10_n01820546_2172.JPEG
subject-05,1,563,1.0245668888092,bicycle,elephant,c15,0562_con_s05_c15_elephant_10_n02504458_3843.JPEG
subject-05,1,564,0.769203901290894,dog,dog,c15,0563_con_s05_c15_dog_10_n02099267_6480.JPEG
subject-05,1,565,1.09787893295288,cat,chair,c50,0564_con_s05_c50_chair_10_n02791124_13072.JPEG
subject-05,1,566,0.774067878723145,elephant,elephant,c50,0565_con_s05_c50_elephant_10_n02504013_645.JPEG
subject-05,1,567,0.8247230052948,knife,knife,c30,0566_con_s05_c30_knife_10_n03041632_3005.JPEG
subject-05,1,568,0.885133981704712,car,car,c10,0567_con_s05_c10_car_10_n03100240_2335.JPEG
subject-05,1,569,1.13569498062134,chair,chair,c100,0568_con_s05_c100_chair_10_n02791124_17001.JPEG
subject-05,1,570,0.657719135284424,clock,clock,c30,0569_con_s05_c30_clock_10_n03196217_1687.JPEG
subject-05,1,571,1.27592802047729,dog,dog,c15,0570_con_s05_c15_dog_10_n02101556_4112.JPEG
subject-05,1,572,1.20649313926697,boat,bird,c01,0571_con_s05_c01_bird_10_n01820546_663.JPEG
subject-05,1,573,0.721143007278442,bicycle,bicycle,c30,0572_con_s05_c30_bicycle_10_n03792782_30354.JPEG
subject-05,1,574,1.47942686080933,car,car,c50,0573_con_s05_c50_car_10_n03100240_4519.JPEG
subject-05,1,575,1.16972899436951,bicycle,bicycle,c05,0574_con_s05_c05_bicycle_10_n03792782_975.JPEG
subject-05,1,576,1.03002309799194,bear,boat,c01,0575_con_s05_c01_boat_10_n02951358_17867.JPEG
subject-05,1,577,0.650668859481812,oven,truck,c01,0576_con_s05_c01_truck_10_n03796401_12028.JPEG
subject-05,1,578,0.911170959472656,car,car,c30,0577_con_s05_c30_car_10_n02814533_84523.JPEG
subject-05,1,579,1.02078890800476,dog,dog,c15,0578_con_s05_c15_dog_10_n02096437_1926.JPEG
subject-05,1,580,1.31151413917542,cat,chair,c01,0579_con_s05_c01_chair_10_n03376595_6514.JPEG
subject-05,1,581,1.16418814659119,knife,knife,c50,0580_con_s05_c50_knife_10_n03041632_94470.JPEG
subject-05,1,582,1.04581618309021,knife,knife,c10,0581_con_s05_c10_knife_10_n03041632_45270.JPEG
subject-05,1,583,0.760351181030273,clock,clock,c15,0582_con_s05_c15_clock_10_n04548280_8037.JPEG
subject-05,1,584,1.01016402244568,keyboard,keyboard,c05,0583_con_s05_c05_keyboard_10_n04505470_6656.JPEG
subject-05,1,585,1.36866307258606,bear,bear,c100,0584_con_s05_c100_bear_10_n02134084_833.JPEG
subject-05,1,586,NaN,na,truck,c10,0585_con_s05_c10_truck_10_n03417042_7547.JPEG
subject-05,1,587,0.719388961791992,car,car,c10,0586_con_s05_c10_car_10_n02814533_12010.JPEG
subject-05,1,588,0.901957035064697,bear,truck,c03,0587_con_s05_c03_truck_10_n04467665_54349.JPEG
subject-05,1,589,0.71457314491272,cat,elephant,c03,0588_con_s05_c03_elephant_10_n02504013_8980.JPEG
subject-05,1,590,0.482565879821777,clock,dog,c01,0589_con_s05_c01_dog_10_n02105251_2328.JPEG
subject-05,1,591,0.664659976959229,bear,bear,c50,0590_con_s05_c50_bear_10_n02134418_873.JPEG
subject-05,1,592,0.693099021911621,bird,bird,c15,0591_con_s05_c15_bird_10_n01817953_2714.JPEG
subject-05,1,593,0.913628101348877,cat,bird,c05,0592_con_s05_c05_bird_10_n01843383_4503.JPEG
subject-05,1,594,0.941592931747437,bottle,bottle,c30,0593_con_s05_c30_bottle_10_n02823428_198.JPEG
subject-05,1,595,0.686084985733032,keyboard,keyboard,c100,0594_con_s05_c100_keyboard_10_n04505470_989.JPEG
subject-05,1,596,0.514991998672485,boat,cat,c03,0595_con_s05_c03_cat_10_n02123597_9110.JPEG
subject-05,1,597,NaN,na,knife,c10,0596_con_s05_c10_knife_10_n03041632_31037.JPEG
subject-05,1,598,0.580092906951904,cat,oven,c01,0597_con_s05_c01_oven_10_n04111531_4050.JPEG
subject-05,1,599,0.686391830444336,truck,truck,c100,0598_con_s05_c100_truck_10_n03417042_4574.JPEG
subject-05,1,600,0.769597053527832,bear,bear,c100,0599_con_s05_c100_bear_10_n02132136_234.JPEG
subject-05,1,601,0.597656965255737,cat,cat,c15,0600_con_s05_c15_cat_10_n02124075_2565.JPEG
subject-05,1,602,0.971577882766724,airplane,airplane,c100,0601_con_s05_c100_airplane_10_n02690373_9743.JPEG
subject-05,1,603,0.968104124069214,bottle,bottle,c30,0602_con_s05_c30_bottle_10_n04591713_18281.JPEG
subject-05,1,604,0.691129922866821,keyboard,keyboard,c30,0603_con_s05_c30_keyboard_10_n03085013_22949.JPEG
subject-05,1,605,0.67343807220459,boat,boat,c01,0604_con_s05_c01_boat_10_n02951358_15271.JPEG
subject-05,1,606,0.860948085784912,knife,knife,c30,0605_con_s05_c30_knife_10_n03041632_22472.JPEG
subject-05,1,607,0.751364946365356,keyboard,keyboard,c50,0606_con_s05_c50_keyboard_10_n03085013_23571.JPEG
subject-05,1,608,1.14189696311951,clock,dog,c03,0607_con_s05_c03_dog_10_n02105641_14112.JPEG
subject-05,1,609,0.63257098197937,boat,knife,c01,0608_con_s05_c01_knife_10_n03041632_17091.JPEG
subject-05,1,610,1.43696689605713,elephant,elephant,c100,0609_con_s05_c100_elephant_10_n02504458_609.JPEG
subject-05,1,611,0.853970050811768,bear,car,c01,0610_con_s05_c01_car_10_n03100240_3461.JPEG
subject-05,1,612,0.736145973205566,truck,truck,c100,0611_con_s05_c100_truck_10_n03796401_14186.JPEG
subject-05,1,613,0.856822967529297,truck,truck,c50,0612_con_s05_c50_truck_10_n03796401_34.JPEG
subject-05,1,614,0.73149585723877,boat,knife,c01,0613_con_s05_c01_knife_10_n03041632_51766.JPEG
subject-05,1,615,0.65972900390625,cat,dog,c10,0614_con_s05_c10_dog_10_n02106550_5768.JPEG
subject-05,1,616,1.05069899559021,oven,boat,c03,0615_con_s05_c03_boat_10_n04273569_3437.JPEG
subject-05,1,617,0.489214181900024,boat,boat,c15,0616_con_s05_c15_boat_10_n03662601_19973.JPEG
subject-05,1,618,0.885560989379883,elephant,elephant,c05,0617_con_s05_c05_elephant_10_n02504458_4967.JPEG
subject-05,1,619,0.721824169158936,elephant,elephant,c05,0618_con_s05_c05_elephant_10_n02504013_4211.JPEG
subject-05,1,620,0.687757968902588,boat,boat,c10,0619_con_s05_c10_boat_10_n02951358_12357.JPEG
subject-05,1,621,1.08653879165649,car,car,c15,0620_con_s05_c15_car_10_n03100240_22466.JPEG
subject-05,1,622,1.39905285835266,bird,bird,c100,0621_con_s05_c100_bird_10_n01819313_1378.JPEG
subject-05,1,623,0.85965895652771,dog,chair,c05,0622_con_s05_c05_chair_10_n04099969_13105.JPEG
subject-05,1,624,0.557363986968994,boat,boat,c100,0623_con_s05_c100_boat_10_n03344393_9106.JPEG
subject-05,1,625,0.77813196182251,elephant,elephant,c50,0624_con_s05_c50_elephant_10_n02504458_1431.JPEG
subject-05,1,626,0.628469944000244,airplane,bicycle,c03,0625_con_s05_c03_bicycle_10_n02835271_269.JPEG
subject-05,1,627,0.764880895614624,bear,bird,c01,0626_con_s05_c01_bird_10_n01534433_4886.JPEG
subject-05,1,628,0.655642032623291,airplane,knife,c30,0627_con_s05_c30_knife_10_n03041632_13656.JPEG
subject-05,1,629,0.615864038467407,boat,boat,c01,0628_con_s05_c01_boat_10_n02951358_5673.JPEG
subject-05,1,630,1.04440999031067,dog,dog,c50,0629_con_s05_c50_dog_10_n02100877_16887.JPEG
subject-05,1,631,0.734951019287109,elephant,elephant,c50,0630_con_s05_c50_elephant_10_n02504458_8296.JPEG
subject-05,1,632,0.57157301902771,cat,bear,c01,0631_con_s05_c01_bear_10_n02133161_4051.JPEG
subject-05,1,633,0.524312019348145,boat,bird,c01,0632_con_s05_c01_bird_10_n02037110_5010.JPEG
subject-05,1,634,0.706604957580566,car,car,c50,0633_con_s05_c50_car_10_n03100240_7139.JPEG
subject-05,1,635,0.880867958068848,bottle,bottle,c30,0634_con_s05_c30_bottle_10_n04579145_749.JPEG
subject-05,1,636,0.855620145797729,knife,knife,c10,0635_con_s05_c10_knife_10_n03041632_18532.JPEG
subject-05,1,637,0.50832986831665,bicycle,cat,c01,0636_con_s05_c01_cat_10_n02123597_14821.JPEG
subject-05,1,638,0.766645908355713,keyboard,bear,c05,0637_con_s05_c05_bear_10_n02134084_17358.JPEG
subject-05,1,639,0.673804998397827,bottle,bottle,c03,0638_con_s05_c03_bottle_10_n04591713_2362.JPEG
subject-05,1,640,0.702214002609253,cat,elephant,c10,0639_con_s05_c10_elephant_10_n02504013_8992.JPEG
subject-05,1,641,0.822434902191162,keyboard,keyboard,c15,0640_con_s05_c15_keyboard_10_n03085013_5539.JPEG
subject-05,1,642,0.783355951309204,boat,boat,c05,0641_con_s05_c05_boat_10_n02951358_10834.JPEG
subject-05,1,643,0.665784120559692,clock,keyboard,c15,0642_con_s05_c15_keyboard_10_n04505470_1994.JPEG
subject-05,1,644,0.656331062316895,cat,boat,c05,0643_con_s05_c05_boat_10_n02951358_32415.JPEG
subject-05,1,645,0.824654102325439,bicycle,bicycle,c100,0644_con_s05_c100_bicycle_10_n03792782_4629.JPEG
subject-05,1,646,0.491137981414795,clock,clock,c50,0645_con_s05_c50_clock_10_n03196217_1275.JPEG
subject-05,1,647,0.80267596244812,oven,clock,c05,0646_con_s05_c05_clock_10_n03196217_3903.JPEG
subject-05,1,648,0.601294040679932,boat,boat,c03,0647_con_s05_c03_boat_10_n04612504_2471.JPEG
subject-05,1,649,0.661738872528076,cat,keyboard,c15,0648_con_s05_c15_keyboard_10_n03085013_23005.JPEG
subject-05,1,650,0.812402009963989,bear,boat,c01,0649_con_s05_c01_boat_10_n02951358_12636.JPEG
subject-05,1,651,0.726793050765991,boat,boat,c50,0650_con_s05_c50_boat_10_n03344393_1467.JPEG
subject-05,1,652,0.672066211700439,car,car,c50,0651_con_s05_c50_car_10_n02814533_95054.JPEG
subject-05,1,653,0.678860902786255,boat,clock,c03,0652_con_s05_c03_clock_10_n02708093_3621.JPEG
subject-05,1,654,0.777199983596802,keyboard,keyboard,c100,0653_con_s05_c100_keyboard_10_n03085013_18832.JPEG
subject-05,1,655,0.650995969772339,clock,clock,c100,0654_con_s05_c100_clock_10_n02708093_2843.JPEG
subject-05,1,656,0.855647087097168,bird,bird,c15,0655_con_s05_c15_bird_10_n01592084_261.JPEG
subject-05,1,657,0.608059883117676,boat,cat,c03,0656_con_s05_c03_cat_10_n02125311_19878.JPEG
subject-05,1,658,0.690287113189697,cat,chair,c30,0657_con_s05_c30_chair_10_n02791124_15934.JPEG
subject-05,1,659,0.927134037017822,bird,bird,c10,0658_con_s05_c10_bird_10_n01797886_5845.JPEG
subject-05,1,660,0.671343088150024,clock,chair,c50,0659_con_s05_c50_chair_10_n02791124_3221.JPEG
subject-05,1,661,0.537785053253174,cat,cat,c10,0660_con_s05_c10_cat_10_n02123394_4186.JPEG
subject-05,1,662,0.696457147598267,bear,dog,c30,0661_con_s05_c30_dog_10_n02094114_6771.JPEG
subject-05,1,663,1.0840630531311,cat,keyboard,c10,0662_con_s05_c10_keyboard_10_n03085013_20753.JPEG
subject-05,1,664,0.468690872192383,clock,clock,c30,0663_con_s05_c30_clock_10_n04548280_5544.JPEG
subject-05,1,665,0.951438188552856,bird,cat,c05,0664_con_s05_c05_cat_10_n02123159_1157.JPEG
subject-05,1,666,1.03994512557983,car,car,c30,0665_con_s05_c30_car_10_n04285008_8555.JPEG
subject-05,1,667,0.854516983032227,car,car,c05,0666_con_s05_c05_car_10_n04285008_4037.JPEG
subject-05,1,668,0.73680591583252,elephant,elephant,c50,0667_con_s05_c50_elephant_10_n02504013_1970.JPEG
subject-05,1,669,0.751062154769897,cat,cat,c100,0668_con_s05_c100_cat_10_n02125311_30036.JPEG
subject-05,1,670,0.663889169692993,bird,bird,c50,0669_con_s05_c50_bird_10_n02037110_16468.JPEG
subject-05,1,671,0.662209033966064,cat,cat,c03,0670_con_s05_c03_cat_10_n02123159_4098.JPEG
subject-05,1,672,0.723042964935303,keyboard,knife,c15,0671_con_s05_c15_knife_10_n03041632_55953.JPEG
subject-05,1,673,0.813752174377441,cat,cat,c05,0672_con_s05_c05_cat_10_n02124075_13142.JPEG
subject-05,1,674,0.749988079071045,bear,bear,c30,0673_con_s05_c30_bear_10_n02133161_10342.JPEG
subject-05,1,675,0.995003938674927,clock,clock,c01,0674_con_s05_c01_clock_10_n03196217_8251.JPEG
subject-05,1,676,0.669265985488892,boat,boat,c30,0675_con_s05_c30_boat_10_n02951358_31181.JPEG
subject-05,1,677,1.00582790374756,keyboard,oven,c15,0676_con_s05_c15_oven_10_n04111531_6851.JPEG
subject-05,1,678,0.904327154159546,car,car,c05,0677_con_s05_c05_car_10_n02814533_10815.JPEG
subject-05,1,679,1.05492186546326,car,car,c30,0678_con_s05_c30_car_10_n04285008_10901.JPEG
subject-05,1,680,1.10784220695496,boat,keyboard,c03,0679_con_s05_c03_keyboard_10_n03085013_23693.JPEG
subject-05,1,681,0.66836404800415,bicycle,bicycle,c50,0680_con_s05_c50_bicycle_10_n03792782_1041.JPEG
subject-05,1,682,0.751069068908691,oven,bird,c01,0681_con_s05_c01_bird_10_n02025239_7501.JPEG
subject-05,1,683,0.587571144104004,cat,bicycle,c01,0682_con_s05_c01_bicycle_10_n03792782_8184.JPEG
subject-05,1,684,0.848112106323242,bicycle,bicycle,c05,0683_con_s05_c05_bicycle_10_n02835271_12782.JPEG
subject-05,1,685,1.16035294532776,bear,elephant,c50,0684_con_s05_c50_elephant_10_n02504458_10326.JPEG
subject-05,1,686,0.967144966125488,bird,bird,c10,0685_con_s05_c10_bird_10_n01558993_9277.JPEG
subject-05,1,687,1.06350111961365,car,car,c100,0686_con_s05_c100_car_10_n04285008_1122.JPEG
subject-05,1,688,0.669848918914795,oven,car,c03,0687_con_s05_c03_car_10_n04285008_3053.JPEG
subject-05,1,689,0.800660133361816,bicycle,elephant,c10,0688_con_s05_c10_elephant_10_n02504458_11216.JPEG
subject-05,1,690,0.920753955841064,car,car,c15,0689_con_s05_c15_car_10_n04285008_3185.JPEG
subject-05,1,691,0.857124090194702,bottle,bottle,c30,0690_con_s05_c30_bottle_10_n03937543_10438.JPEG
subject-05,1,692,0.893539905548096,bottle,bottle,c05,0691_con_s05_c05_bottle_10_n02823428_7792.JPEG
subject-05,1,693,0.967671155929565,bottle,knife,c01,0692_con_s05_c01_knife_10_n03041632_13108.JPEG
subject-05,1,694,0.708481073379517,cat,bicycle,c15,0693_con_s05_c15_bicycle_10_n03792782_70690.JPEG
subject-05,1,695,0.906926155090332,keyboard,clock,c10,0694_con_s05_c10_clock_10_n03196217_3283.JPEG
subject-05,1,696,0.735473871231079,oven,elephant,c01,0695_con_s05_c01_elephant_10_n02504013_7005.JPEG
subject-05,1,697,0.825970888137817,bicycle,bicycle,c50,0696_con_s05_c50_bicycle_10_n02835271_5554.JPEG
subject-05,1,698,0.908364057540894,bear,bear,c50,0697_con_s05_c50_bear_10_n02132136_13018.JPEG
subject-05,1,699,0.768898010253906,cat,dog,c10,0698_con_s05_c10_dog_10_n02105162_5613.JPEG
subject-05,1,700,0.851523876190186,bottle,bottle,c50,0699_con_s05_c50_bottle_10_n02823428_4234.JPEG
subject-05,1,701,0.704243183135986,bird,dog,c01,0700_con_s05_c01_dog_10_n02091244_743.JPEG
subject-05,1,702,0.886322975158691,cat,cat,c30,0701_con_s05_c30_cat_10_n02125311_12428.JPEG
subject-05,1,703,1.4528660774231,chair,bird,c05,0702_con_s05_c05_bird_10_n02028035_32046.JPEG
subject-05,1,704,0.613332986831665,boat,boat,c100,0703_con_s05_c100_boat_10_n04612504_17854.JPEG
subject-05,1,705,1.05011701583862,bottle,bottle,c50,0704_con_s05_c50_bottle_10_n02823428_3985.JPEG
subject-05,1,706,1.33737897872925,keyboard,keyboard,c50,0705_con_s05_c50_keyboard_10_n04505470_5044.JPEG
subject-05,1,707,0.692043781280518,truck,truck,c100,0706_con_s05_c100_truck_10_n03417042_1651.JPEG
subject-05,1,708,0.628656148910522,oven,oven,c30,0707_con_s05_c30_oven_10_n04111531_15667.JPEG
subject-05,1,709,0.618988990783691,boat,boat,c10,0708_con_s05_c10_boat_10_n03662601_2576.JPEG
subject-05,1,710,0.685730934143066,bicycle,bicycle,c50,0709_con_s05_c50_bicycle_10_n02835271_1345.JPEG
subject-05,1,711,0.776227951049805,clock,clock,c05,0710_con_s05_c05_clock_10_n02708093_6560.JPEG
subject-05,1,712,0.65277099609375,oven,oven,c50,0711_con_s05_c50_oven_10_n04111531_4845.JPEG
subject-05,1,713,0.657375812530518,bird,bird,c30,0712_con_s05_c30_bird_10_n02013706_4014.JPEG
subject-05,1,714,1.04764819145203,boat,dog,c03,0713_con_s05_c03_dog_10_n02112018_6691.JPEG
subject-05,1,715,0.954287052154541,airplane,airplane,c15,0714_con_s05_c15_airplane_10_n02690373_10506.JPEG
subject-05,1,716,0.914645910263062,bottle,bottle,c50,0715_con_s05_c50_bottle_10_n03983396_6330.JPEG
subject-05,1,717,0.627254009246826,boat,keyboard,c03,0716_con_s05_c03_keyboard_10_n03085013_19483.JPEG
subject-05,1,718,0.74992299079895,bear,boat,c01,0717_con_s05_c01_boat_10_n03662601_10021.JPEG
subject-05,1,719,0.632771015167236,cat,cat,c10,0718_con_s05_c10_cat_10_n02123159_7485.JPEG
subject-05,1,720,0.777163982391357,oven,oven,c05,0719_con_s05_c05_oven_10_n04111531_1826.JPEG
subject-05,1,721,0.62977409362793,bird,bird,c30,0720_con_s05_c30_bird_10_n01558993_10575.JPEG
subject-05,1,722,0.880113124847412,dog,dog,c100,0721_con_s05_c100_dog_10_n02100735_1680.JPEG
subject-05,1,723,0.548475980758667,clock,chair,c03,0722_con_s05_c03_chair_10_n04429376_5891.JPEG
subject-05,1,724,0.66920018196106,boat,bottle,c03,0723_con_s05_c03_bottle_10_n03983396_2102.JPEG
subject-05,1,725,0.813744068145752,cat,bear,c05,0724_con_s05_c05_bear_10_n02134084_2004.JPEG
subject-05,1,726,0.696238994598389,oven,boat,c15,0725_con_s05_c15_boat_10_n03344393_3558.JPEG
subject-05,1,727,0.741010904312134,car,car,c10,0726_con_s05_c10_car_10_n02814533_89837.JPEG
subject-05,1,728,0.909188032150269,elephant,elephant,c100,0727_con_s05_c100_elephant_10_n02504013_6405.JPEG
subject-05,1,729,1.15242290496826,truck,truck,c05,0728_con_s05_c05_truck_10_n04467665_68841.JPEG
subject-05,1,730,0.699128866195679,cat,cat,c05,0729_con_s05_c05_cat_10_n02123394_2269.JPEG
subject-05,1,731,0.835304021835327,bird,bird,c15,0730_con_s05_c15_bird_10_n02027492_8404.JPEG
subject-05,1,732,0.794070959091187,chair,chair,c30,0731_con_s05_c30_chair_10_n03376595_9099.JPEG
subject-05,1,733,0.884746789932251,elephant,elephant,c100,0732_con_s05_c100_elephant_10_n02504013_4373.JPEG
subject-05,1,734,0.515192031860352,boat,keyboard,c01,0733_con_s05_c01_keyboard_10_n03085013_24653.JPEG
subject-05,1,735,0.605849027633667,clock,cat,c01,0734_con_s05_c01_cat_10_n02123597_7584.JPEG
subject-05,1,736,0.65024209022522,bear,keyboard,c01,0735_con_s05_c01_keyboard_10_n04505470_1632.JPEG
subject-05,1,737,0.816272020339966,cat,bear,c03,0736_con_s05_c03_bear_10_n02134084_645.JPEG
subject-05,1,738,0.990479946136475,elephant,elephant,c10,0737_con_s05_c10_elephant_10_n02504013_6712.JPEG
subject-05,1,739,0.80513596534729,keyboard,keyboard,c15,0738_con_s05_c15_keyboard_10_n04505470_2109.JPEG
subject-05,1,740,1.47145390510559,dog,dog,c05,0739_con_s05_c05_dog_10_n02088094_1506.JPEG
subject-05,1,741,1.32197403907776,car,car,c50,0740_con_s05_c50_car_10_n04285008_7822.JPEG
subject-05,1,742,1.50002598762512,oven,knife,c15,0741_con_s05_c15_knife_10_n03041632_24950.JPEG
subject-05,1,743,0.674970865249634,airplane,airplane,c10,0742_con_s05_c10_airplane_10_n02690373_3151.JPEG
subject-05,1,744,0.903403043746948,clock,clock,c15,0743_con_s05_c15_clock_10_n02708093_2943.JPEG
subject-05,1,745,0.840260982513428,bicycle,keyboard,c03,0744_con_s05_c03_keyboard_10_n03085013_8912.JPEG
subject-05,1,746,0.684822082519531,boat,chair,c03,0745_con_s05_c03_chair_10_n02791124_3211.JPEG
subject-05,1,747,0.750972032546997,cat,cat,c100,0746_con_s05_c100_cat_10_n02125311_5464.JPEG
subject-05,1,748,0.673730850219727,cat,cat,c05,0747_con_s05_c05_cat_10_n02123159_716.JPEG
subject-05,1,749,0.889278173446655,elephant,elephant,c30,0748_con_s05_c30_elephant_10_n02504013_3916.JPEG
subject-05,1,750,0.649989128112793,cat,cat,c10,0749_con_s05_c10_cat_10_n02123597_5764.JPEG
subject-05,1,751,0.808012008666992,bird,bird,c05,0750_con_s05_c05_bird_10_n02011460_4506.JPEG
subject-05,1,752,0.898311853408813,boat,elephant,c01,0751_con_s05_c01_elephant_10_n02504458_7070.JPEG
subject-05,1,753,0.613182067871094,cat,cat,c10,0752_con_s05_c10_cat_10_n02123045_12761.JPEG
subject-05,1,754,0.765337944030762,bear,keyboard,c01,0753_con_s05_c01_keyboard_10_n04505470_1687.JPEG
subject-05,1,755,0.985914945602417,elephant,elephant,c15,0754_con_s05_c15_elephant_10_n02504458_4359.JPEG
subject-05,1,756,1.00073790550232,elephant,elephant,c30,0755_con_s05_c30_elephant_10_n02504013_23998.JPEG
subject-05,1,757,NaN,na,bear,c15,0756_con_s05_c15_bear_10_n02134084_18382.JPEG
subject-05,1,758,0.773885011672974,cat,dog,c03,0757_con_s05_c03_dog_10_n02093647_524.JPEG
subject-05,1,759,0.718328952789307,airplane,airplane,c15,0758_con_s05_c15_airplane_10_n02690373_4213.JPEG
subject-05,1,760,0.864043951034546,chair,chair,c100,0759_con_s05_c100_chair_10_n04429376_602.JPEG
subject-05,1,761,1.15458106994629,elephant,elephant,c15,0760_con_s05_c15_elephant_10_n02504013_7725.JPEG
subject-05,1,762,0.815424919128418,bottle,bottle,c30,0761_con_s05_c30_bottle_10_n03983396_18508.JPEG
subject-05,1,763,1.18209886550903,bird,bird,c100,0762_con_s05_c100_bird_10_n02025239_4888.JPEG
subject-05,1,764,1.29658913612366,bird,dog,c50,0763_con_s05_c50_dog_10_n02095570_3095.JPEG
subject-05,1,765,0.787364959716797,truck,truck,c100,0764_con_s05_c100_truck_10_n03417042_1149.JPEG
subject-05,1,766,0.8716139793396,boat,car,c01,0765_con_s05_c01_car_10_n03100240_17073.JPEG
subject-05,1,767,0.77012300491333,elephant,elephant,c30,0766_con_s05_c30_elephant_10_n02504458_6702.JPEG
subject-05,1,768,0.652584075927734,clock,clock,c50,0767_con_s05_c50_clock_10_n04548280_1810.JPEG
subject-05,1,769,0.690457820892334,clock,clock,c05,0768_con_s05_c05_clock_10_n02708093_695.JPEG
subject-05,1,770,1.17276978492737,oven,oven,c30,0769_con_s05_c30_oven_10_n04111531_3886.JPEG
subject-05,1,771,0.617425918579102,cat,cat,c05,0770_con_s05_c05_cat_10_n02124075_1123.JPEG
subject-05,1,772,0.686033964157104,cat,cat,c05,0771_con_s05_c05_cat_10_n02124075_13437.JPEG
subject-05,1,773,0.692563056945801,boat,boat,c50,0772_con_s05_c50_boat_10_n02951358_34553.JPEG
subject-05,1,774,0.980442047119141,cat,bird,c03,0773_con_s05_c03_bird_10_n01530575_10597.JPEG
subject-05,1,775,0.626857995986938,boat,airplane,c01,0774_con_s05_c01_airplane_10_n02690373_10176.JPEG
subject-05,1,776,0.815355062484741,airplane,airplane,c10,0775_con_s05_c10_airplane_10_n02690373_8123.JPEG
subject-05,1,777,0.783930063247681,bicycle,bicycle,c30,0776_con_s05_c30_bicycle_10_n03792782_16122.JPEG
subject-05,1,778,0.866606950759888,elephant,elephant,c15,0777_con_s05_c15_elephant_10_n02504013_4892.JPEG
subject-05,1,779,0.819038867950439,boat,bottle,c05,0778_con_s05_c05_bottle_10_n03937543_4236.JPEG
subject-05,1,780,0.587658882141113,oven,oven,c50,0779_con_s05_c50_oven_10_n04111531_538.JPEG
subject-05,1,781,0.86188006401062,cat,chair,c03,0780_con_s05_c03_chair_10_n02791124_13026.JPEG
subject-05,1,782,0.936548948287964,knife,knife,c30,0781_con_s05_c30_knife_10_n03041632_21017.JPEG
subject-05,1,783,0.858983993530273,truck,truck,c30,0782_con_s05_c30_truck_10_n04467665_45202.JPEG
subject-05,1,784,0.719340085983276,dog,dog,c100,0783_con_s05_c100_dog_10_n02108915_12955.JPEG
subject-05,1,785,0.725937128067017,airplane,airplane,c05,0784_con_s05_c05_airplane_10_n02690373_15392.JPEG
subject-05,1,786,0.830432891845703,clock,clock,c100,0785_con_s05_c100_clock_10_n03196217_813.JPEG
subject-05,1,787,0.836928129196167,bird,bird,c50,0786_con_s05_c50_bird_10_n01582220_3156.JPEG
subject-05,1,788,0.751996994018555,boat,oven,c100,0787_con_s05_c100_oven_10_n04111531_690.JPEG
subject-05,1,789,0.722664833068848,airplane,airplane,c10,0788_con_s05_c10_airplane_10_n02690373_8950.JPEG
subject-05,1,790,0.899446964263916,keyboard,keyboard,c30,0789_con_s05_c30_keyboard_10_n03085013_21231.JPEG
subject-05,1,791,0.814104080200195,oven,car,c03,0790_con_s05_c03_car_10_n04285008_11973.JPEG
subject-05,1,792,0.680310010910034,boat,dog,c03,0791_con_s05_c03_dog_10_n02099601_10666.JPEG
subject-05,1,793,0.832705020904541,bear,bear,c50,0792_con_s05_c50_bear_10_n02134418_12172.JPEG
subject-05,1,794,0.901762962341309,boat,boat,c05,0793_con_s05_c05_boat_10_n03662601_2577.JPEG
subject-05,1,795,1.01630783081055,oven,oven,c100,0794_con_s05_c100_oven_10_n04111531_12952.JPEG
subject-05,1,796,1.16677308082581,dog,dog,c50,0795_con_s05_c50_dog_10_n02092002_6041.JPEG
subject-05,1,797,NaN,na,dog,c03,0796_con_s05_c03_dog_10_n02109047_10022.JPEG
subject-05,1,798,0.687805891036987,oven,oven,c30,0797_con_s05_c30_oven_10_n04111531_18052.JPEG
subject-05,1,799,0.848026990890503,elephant,elephant,c100,0798_con_s05_c100_elephant_10_n02504458_1726.JPEG
subject-05,1,800,0.55675482749939,boat,boat,c100,0799_con_s05_c100_boat_10_n02951358_3155.JPEG
subject-05,1,801,1.12521696090698,chair,chair,c50,0800_con_s05_c50_chair_10_n04099969_2233.JPEG
subject-05,1,802,0.73173189163208,boat,boat,c05,0801_con_s05_c05_boat_10_n02951358_3451.JPEG
subject-05,1,803,0.922372817993164,bear,bear,c30,0802_con_s05_c30_bear_10_n02134084_16084.JPEG
subject-05,1,804,1.12685608863831,oven,oven,c10,0803_con_s05_c10_oven_10_n04111531_5533.JPEG
subject-05,1,805,0.695043087005615,boat,boat,c100,0804_con_s05_c100_boat_10_n04273569_216.JPEG
subject-05,1,806,1.16982984542847,truck,truck,c05,0805_con_s05_c05_truck_10_n03796401_27963.JPEG
subject-05,1,807,0.592887878417969,cat,cat,c15,0806_con_s05_c15_cat_10_n02123394_5104.JPEG
subject-05,1,808,0.699378967285156,boat,oven,c03,0807_con_s05_c03_oven_10_n04111531_9939.JPEG
subject-05,1,809,0.810914993286133,chair,chair,c30,0808_con_s05_c30_chair_10_n02791124_5071.JPEG
subject-05,1,810,1.26914191246033,clock,clock,c05,0809_con_s05_c05_clock_10_n03196217_8740.JPEG
subject-05,1,811,1.10764002799988,cat,dog,c15,0810_con_s05_c15_dog_10_n02105162_6459.JPEG
subject-05,1,812,0.920347213745117,knife,knife,c50,0811_con_s05_c50_knife_10_n03041632_45569.JPEG
subject-05,1,813,0.759006023406982,bird,bird,c30,0812_con_s05_c30_bird_10_n02028035_20039.JPEG
subject-05,1,814,NaN,na,airplane,c50,0813_con_s05_c50_airplane_10_n02690373_5149.JPEG
subject-05,1,815,0.731734991073608,boat,airplane,c01,0814_con_s05_c01_airplane_10_n02690373_7409.JPEG
subject-05,1,816,1.00620198249817,bird,bird,c15,0815_con_s05_c15_bird_10_n01798484_13611.JPEG
subject-05,1,817,0.75885796546936,cat,cat,c50,0816_con_s05_c50_cat_10_n02123159_6745.JPEG
subject-05,1,818,0.827745914459229,boat,knife,c05,0817_con_s05_c05_knife_10_n03041632_3516.JPEG
subject-05,1,819,0.724117994308472,airplane,elephant,c03,0818_con_s05_c03_elephant_10_n02504458_13406.JPEG
subject-05,1,820,NaN,na,truck,c05,0819_con_s05_c05_truck_10_n03417042_411.JPEG
subject-05,1,821,1.10497689247131,chair,chair,c100,0820_con_s05_c100_chair_10_n03376595_120.JPEG
subject-05,1,822,1.21977806091309,clock,clock,c15,0821_con_s05_c15_clock_10_n02708093_6982.JPEG
subject-05,1,823,0.871915102005005,airplane,airplane,c30,0822_con_s05_c30_airplane_10_n02690373_15966.JPEG
subject-05,1,824,1.19252991676331,bottle,oven,c10,0823_con_s05_c10_oven_10_n04111531_6412.JPEG
subject-05,1,825,0.690263032913208,airplane,airplane,c100,0824_con_s05_c100_airplane_10_n02690373_5724.JPEG
subject-05,1,826,0.656750917434692,cat,cat,c100,0825_con_s05_c100_cat_10_n02123394_647.JPEG
subject-05,1,827,0.80147385597229,bicycle,bicycle,c50,0826_con_s05_c50_bicycle_10_n03792782_8725.JPEG
subject-05,1,828,0.86198902130127,elephant,elephant,c30,0827_con_s05_c30_elephant_10_n02504013_10229.JPEG
subject-05,1,829,0.852308988571167,dog,dog,c05,0828_con_s05_c05_dog_10_n02086079_3493.JPEG
subject-05,1,830,1.13494801521301,bicycle,dog,c05,0829_con_s05_c05_dog_10_n02092002_9696.JPEG
subject-05,1,831,0.770810127258301,chair,chair,c05,0830_con_s05_c05_chair_10_n02791124_1126.JPEG
subject-05,1,832,0.639809846878052,boat,boat,c50,0831_con_s05_c50_boat_10_n04612504_23408.JPEG
subject-05,1,833,0.898713111877441,clock,elephant,c05,0832_con_s05_c05_elephant_10_n02504458_1693.JPEG
subject-05,1,834,0.713120937347412,oven,knife,c05,0833_con_s05_c05_knife_10_n03041632_3326.JPEG
subject-05,1,835,0.74165415763855,car,car,c15,0834_con_s05_c15_car_10_n04285008_15637.JPEG
subject-05,1,836,0.632112979888916,cat,cat,c50,0835_con_s05_c50_cat_10_n02123394_5753.JPEG
subject-05,1,837,0.622314214706421,boat,boat,c10,0836_con_s05_c10_boat_10_n03344393_3845.JPEG
subject-05,1,838,0.945104122161865,dog,dog,c15,0837_con_s05_c15_dog_10_n02107312_4383.JPEG
subject-05,1,839,1.30276799201965,chair,clock,c100,0838_con_s05_c100_clock_10_n03196217_2346.JPEG
subject-05,1,840,0.709208965301514,airplane,airplane,c30,0839_con_s05_c30_airplane_10_n02690373_181.JPEG
subject-05,1,841,0.769902944564819,bottle,bottle,c05,0840_con_s05_c05_bottle_10_n02823428_8160.JPEG
subject-05,1,842,0.674132108688354,knife,knife,c15,0841_con_s05_c15_knife_10_n03041632_965.JPEG
subject-05,1,843,0.896700859069824,truck,truck,c50,0842_con_s05_c50_truck_10_n04467665_33099.JPEG
subject-05,1,844,0.899950981140137,chair,chair,c10,0843_con_s05_c10_chair_10_n02791124_10108.JPEG
subject-05,1,845,0.866529941558838,bear,bear,c100,0844_con_s05_c100_bear_10_n02134084_3479.JPEG
subject-05,1,846,0.651282072067261,clock,clock,c100,0845_con_s05_c100_clock_10_n03196217_5165.JPEG
subject-05,1,847,0.701740980148315,cat,dog,c10,0846_con_s05_c10_dog_10_n02088466_5212.JPEG
subject-05,1,848,0.685964107513428,bicycle,bicycle,c100,0847_con_s05_c100_bicycle_10_n03792782_11609.JPEG
subject-05,1,849,0.906810998916626,car,car,c05,0848_con_s05_c05_car_10_n03100240_5595.JPEG
subject-05,1,850,0.965658187866211,cat,oven,c30,0849_con_s05_c30_oven_10_n04111531_7741.JPEG
subject-05,1,851,0.688020944595337,clock,boat,c03,0850_con_s05_c03_boat_10_n03344393_4485.JPEG
subject-05,1,852,0.818634986877441,truck,truck,c100,0851_con_s05_c100_truck_10_n03796401_6574.JPEG
subject-05,1,853,0.855134010314941,bear,dog,c01,0852_con_s05_c01_dog_10_n02087046_11684.JPEG
subject-05,1,854,0.745970010757446,chair,chair,c15,0853_con_s05_c15_chair_10_n02791124_1137.JPEG
subject-05,1,855,0.786724090576172,dog,dog,c100,0854_con_s05_c100_dog_10_n02090622_9693.JPEG
subject-05,1,856,0.615415096282959,boat,oven,c01,0855_con_s05_c01_oven_10_n04111531_891.JPEG
subject-05,1,857,0.889978885650635,keyboard,bottle,c03,0856_con_s05_c03_bottle_10_n02823428_13746.JPEG
subject-05,1,858,0.896299123764038,clock,clock,c05,0857_con_s05_c05_clock_10_n04548280_8071.JPEG
subject-05,1,859,1.24080896377563,bird,bird,c30,0858_con_s05_c30_bird_10_n01829413_8418.JPEG
subject-05,1,860,0.631773948669434,boat,elephant,c15,0859_con_s05_c15_elephant_10_n02504458_5457.JPEG
subject-05,1,861,1.16805791854858,chair,chair,c10,0860_con_s05_c10_chair_10_n03376595_2657.JPEG
subject-05,1,862,0.950902938842773,bird,bird,c05,0861_con_s05_c05_bird_10_n01614925_1994.JPEG
subject-05,1,863,0.973104000091553,chair,chair,c15,0862_con_s05_c15_chair_10_n02791124_13720.JPEG
subject-05,1,864,0.825857877731323,elephant,elephant,c30,0863_con_s05_c30_elephant_10_n02504013_3600.JPEG
subject-05,1,865,0.654664039611816,oven,oven,c100,0864_con_s05_c100_oven_10_n04111531_11993.JPEG
subject-05,1,866,0.80615496635437,bird,bird,c10,0865_con_s05_c10_bird_10_n01622779_3603.JPEG
subject-05,1,867,0.864535093307495,boat,bicycle,c01,0866_con_s05_c01_bicycle_10_n03792782_19295.JPEG
subject-05,1,868,0.832785844802856,bottle,bottle,c15,0867_con_s05_c15_bottle_10_n04557648_777.JPEG
subject-05,1,869,NaN,na,dog,c30,0868_con_s05_c30_dog_10_n02104029_7869.JPEG
subject-05,1,870,0.689984798431396,elephant,elephant,c50,0869_con_s05_c50_elephant_10_n02504013_10304.JPEG
subject-05,1,871,0.688515186309814,bear,bear,c100,0870_con_s05_c100_bear_10_n02134084_8112.JPEG
subject-05,1,872,0.741067886352539,boat,boat,c15,0871_con_s05_c15_boat_10_n03344393_806.JPEG
subject-05,1,873,0.685574769973755,oven,oven,c30,0872_con_s05_c30_oven_10_n04111531_3191.JPEG
subject-05,1,874,0.860235214233398,oven,truck,c01,0873_con_s05_c01_truck_10_n03796401_14490.JPEG
subject-05,1,875,0.690644979476929,clock,bottle,c01,0874_con_s05_c01_bottle_10_n04557648_3766.JPEG
subject-05,1,876,0.66551399230957,boat,knife,c01,0875_con_s05_c01_knife_10_n03041632_11932.JPEG
subject-05,1,877,1.50016498565674,car,car,c05,0876_con_s05_c05_car_10_n04285008_10884.JPEG
subject-05,1,878,0.703742027282715,bottle,bottle,c10,0877_con_s05_c10_bottle_10_n04591713_5928.JPEG
subject-05,1,879,0.824188232421875,bear,cat,c05,0878_con_s05_c05_cat_10_n02123597_3498.JPEG
subject-05,1,880,0.73623514175415,boat,boat,c15,0879_con_s05_c15_boat_10_n04273569_10292.JPEG
subject-05,1,881,0.704629898071289,bicycle,bicycle,c15,0880_con_s05_c15_bicycle_10_n03792782_16443.JPEG
subject-05,1,882,0.611334800720215,clock,bottle,c01,0881_con_s05_c01_bottle_10_n03983396_10087.JPEG
subject-05,1,883,1.01586198806763,airplane,airplane,c50,0882_con_s05_c50_airplane_10_n02690373_4440.JPEG
subject-05,1,884,0.506381034851074,boat,elephant,c01,0883_con_s05_c01_elephant_10_n02504458_7322.JPEG
subject-05,1,885,0.666908025741577,cat,cat,c15,0884_con_s05_c15_cat_10_n02123159_7972.JPEG
subject-05,1,886,0.789561986923218,bicycle,bicycle,c10,0885_con_s05_c10_bicycle_10_n03792782_7344.JPEG
subject-05,1,887,0.772165060043335,cat,cat,c10,0886_con_s05_c10_cat_10_n02123045_2033.JPEG
subject-05,1,888,0.808593034744263,clock,bird,c01,0887_con_s05_c01_bird_10_n02017213_4796.JPEG
subject-05,1,889,0.861195087432861,boat,boat,c03,0888_con_s05_c03_boat_10_n04612504_22060.JPEG
subject-05,1,890,0.697652101516724,bottle,bottle,c50,0889_con_s05_c50_bottle_10_n03983396_2669.JPEG
subject-05,1,891,0.895884037017822,bottle,bottle,c30,0890_con_s05_c30_bottle_10_n04560804_15111.JPEG
subject-05,1,892,0.848771095275879,bottle,bottle,c10,0891_con_s05_c10_bottle_10_n04579145_2290.JPEG
subject-05,1,893,0.685251951217651,boat,airplane,c01,0892_con_s05_c01_airplane_10_n02690373_4108.JPEG
subject-05,1,894,0.959693908691406,truck,truck,c100,0893_con_s05_c100_truck_10_n03796401_3222.JPEG
subject-05,1,895,0.866415977478027,bird,bird,c15,0894_con_s05_c15_bird_10_n02018795_3702.JPEG
subject-05,1,896,0.932868957519531,bicycle,boat,c01,0895_con_s05_c01_boat_10_n02951358_30635.JPEG
subject-05,1,897,0.771924018859863,knife,knife,c100,0896_con_s05_c100_knife_10_n03041632_22286.JPEG
subject-05,1,898,0.813987016677856,clock,car,c03,0897_con_s05_c03_car_10_n02814533_428.JPEG
subject-05,1,899,0.704439163208008,boat,clock,c03,0898_con_s05_c03_clock_10_n03196217_2639.JPEG
subject-05,1,900,0.602713108062744,bear,keyboard,c01,0899_con_s05_c01_keyboard_10_n03085013_23118.JPEG
subject-05,1,901,0.838520050048828,elephant,elephant,c15,0900_con_s05_c15_elephant_10_n02504458_4997.JPEG
subject-05,1,902,0.704962968826294,bicycle,bicycle,c10,0901_con_s05_c10_bicycle_10_n03792782_1831.JPEG
subject-05,1,903,0.73375391960144,keyboard,keyboard,c100,0902_con_s05_c100_keyboard_10_n04505470_186.JPEG
subject-05,1,904,0.93234395980835,knife,knife,c50,0903_con_s05_c50_knife_10_n03041632_7279.JPEG
subject-05,1,905,1.02294683456421,chair,chair,c100,0904_con_s05_c100_chair_10_n04429376_18590.JPEG
subject-05,1,906,0.837996959686279,bottle,bottle,c30,0905_con_s05_c30_bottle_10_n02823428_5798.JPEG
subject-05,1,907,0.812564134597778,bicycle,bicycle,c10,0906_con_s05_c10_bicycle_10_n02835271_785.JPEG
subject-05,1,908,0.796913862228394,bear,bear,c01,0907_con_s05_c01_bear_10_n02134418_2263.JPEG
subject-05,1,909,0.717343091964722,cat,knife,c10,0908_con_s05_c10_knife_10_n03041632_32177.JPEG
subject-05,1,910,0.723920822143555,chair,chair,c100,0909_con_s05_c100_chair_10_n04429376_24615.JPEG
subject-05,1,911,0.606603860855103,boat,boat,c10,0910_con_s05_c10_boat_10_n02951358_3898.JPEG
subject-05,1,912,NaN,na,keyboard,c03,0911_con_s05_c03_keyboard_10_n03085013_20843.JPEG
subject-05,1,913,0.70074200630188,cat,bear,c10,0912_con_s05_c10_bear_10_n02133161_12944.JPEG
subject-05,1,914,0.929661989212036,bottle,bottle,c100,0913_con_s05_c100_bottle_10_n04557648_10221.JPEG
subject-05,1,915,1.38213300704956,bottle,bottle,c50,0914_con_s05_c50_bottle_10_n02823428_14023.JPEG
subject-05,1,916,0.664765119552612,bear,bear,c50,0915_con_s05_c50_bear_10_n02133161_13139.JPEG
subject-05,1,917,0.708902835845947,chair,knife,c30,0916_con_s05_c30_knife_10_n03041632_1407.JPEG
subject-05,1,918,0.691648960113525,clock,bottle,c01,0917_con_s05_c01_bottle_10_n04579145_3078.JPEG
subject-05,1,919,0.906213998794556,truck,truck,c15,0918_con_s05_c15_truck_10_n03796401_7495.JPEG
subject-05,1,920,0.840476036071777,clock,clock,c30,0919_con_s05_c30_clock_10_n04548280_5957.JPEG
subject-05,1,921,0.739238977432251,bottle,bottle,c15,0920_con_s05_c15_bottle_10_n04557648_928.JPEG
subject-05,1,922,1.06684684753418,clock,bottle,c03,0921_con_s05_c03_bottle_10_n04591713_1257.JPEG
subject-05,1,923,1.05741095542908,airplane,truck,c50,0922_con_s05_c50_truck_10_n04467665_80493.JPEG
subject-05,1,924,0.916018009185791,bear,bear,c10,0923_con_s05_c10_bear_10_n02132136_1621.JPEG
subject-05,1,925,1.02825498580933,airplane,bird,c03,0924_con_s05_c03_bird_10_n01592084_7772.JPEG
subject-05,1,926,0.980836868286133,bicycle,bicycle,c30,0925_con_s05_c30_bicycle_10_n03792782_13950.JPEG
subject-05,1,927,0.871268033981323,boat,cat,c01,0926_con_s05_c01_cat_10_n02123159_6002.JPEG
subject-05,1,928,0.899721145629883,bird,bird,c100,0927_con_s05_c100_bird_10_n02007558_8815.JPEG
subject-05,1,929,0.7519690990448,boat,elephant,c01,0928_con_s05_c01_elephant_10_n02504458_5379.JPEG
subject-05,1,930,0.758916854858398,car,elephant,c01,0929_con_s05_c01_elephant_10_n02504458_6906.JPEG
subject-05,1,931,1.02534699440002,clock,oven,c05,0930_con_s05_c05_oven_10_n04111531_3689.JPEG
subject-05,1,932,0.753735065460205,oven,cat,c05,0931_con_s05_c05_cat_10_n02123159_3307.JPEG
subject-05,1,933,1.02043390274048,airplane,airplane,c15,0932_con_s05_c15_airplane_10_n02690373_7355.JPEG
subject-05,1,934,1.01881694793701,chair,bottle,c15,0933_con_s05_c15_bottle_10_n04560804_5048.JPEG
subject-05,1,935,0.696290969848633,cat,chair,c01,0934_con_s05_c01_chair_10_n04429376_8355.JPEG
subject-05,1,936,1.00869989395142,dog,dog,c50,0935_con_s05_c50_dog_10_n02108422_2814.JPEG
subject-05,1,937,0.777230978012085,elephant,elephant,c30,0936_con_s05_c30_elephant_10_n02504458_10603.JPEG
subject-05,1,938,0.881906986236572,knife,knife,c50,0937_con_s05_c50_knife_10_n03041632_29125.JPEG
subject-05,1,939,0.7501060962677,bird,bird,c100,0938_con_s05_c100_bird_10_n02018207_853.JPEG
subject-05,1,940,0.976788997650146,knife,knife,c100,0939_con_s05_c100_knife_10_n03041632_11741.JPEG
subject-05,1,941,1.17539405822754,truck,truck,c03,0940_con_s05_c03_truck_10_n03417042_18329.JPEG
subject-05,1,942,0.865676879882812,elephant,elephant,c15,0941_con_s05_c15_elephant_10_n02504013_6999.JPEG
subject-05,1,943,0.780379056930542,cat,cat,c03,0942_con_s05_c03_cat_10_n02123394_2129.JPEG
subject-05,1,944,0.955079078674316,airplane,bicycle,c10,0943_con_s05_c10_bicycle_10_n02835271_3313.JPEG
subject-05,1,945,0.929605960845947,bicycle,elephant,c01,0944_con_s05_c01_elephant_10_n02504013_21215.JPEG
subject-05,1,946,0.702815055847168,bicycle,bicycle,c15,0945_con_s05_c15_bicycle_10_n02835271_358.JPEG
subject-05,1,947,1.00649499893188,truck,truck,c05,0946_con_s05_c05_truck_10_n04467665_67922.JPEG
subject-05,1,948,1.18911385536194,knife,knife,c50,0947_con_s05_c50_knife_10_n03041632_90407.JPEG
subject-05,1,949,0.701605081558228,chair,chair,c15,0948_con_s05_c15_chair_10_n02791124_2233.JPEG
subject-05,1,950,0.678063154220581,cat,cat,c100,0949_con_s05_c100_cat_10_n02125311_25814.JPEG
subject-05,1,951,0.682372093200684,bottle,bottle,c30,0950_con_s05_c30_bottle_10_n03983396_1157.JPEG
subject-05,1,952,0.935051918029785,boat,boat,c30,0951_con_s05_c30_boat_10_n02951358_15422.JPEG
subject-05,1,953,0.947613000869751,bear,knife,c01,0952_con_s05_c01_knife_10_n03041632_30565.JPEG
subject-05,1,954,0.954063177108765,truck,truck,c05,0953_con_s05_c05_truck_10_n03417042_7621.JPEG
subject-05,1,955,0.750540018081665,bottle,bottle,c100,0954_con_s05_c100_bottle_10_n03983396_5026.JPEG
subject-05,1,956,0.765093803405762,airplane,airplane,c100,0955_con_s05_c100_airplane_10_n02690373_848.JPEG
subject-05,1,957,0.939587831497192,clock,truck,c03,0956_con_s05_c03_truck_10_n03417042_15179.JPEG
subject-05,1,958,0.805893898010254,boat,clock,c01,0957_con_s05_c01_clock_10_n04548280_7872.JPEG
subject-05,1,959,0.728950977325439,knife,knife,c100,0958_con_s05_c100_knife_10_n03041632_32197.JPEG
subject-05,1,960,0.917482137680054,truck,truck,c50,0959_con_s05_c50_truck_10_n03417042_2253.JPEG
subject-05,1,961,0.900028944015503,boat,boat,c10,0960_con_s05_c10_boat_10_n03344393_3473.JPEG
subject-05,1,962,0.936182975769043,cat,car,c01,0961_con_s05_c01_car_10_n02814533_1120.JPEG
subject-05,1,963,1.2191219329834,keyboard,keyboard,c100,0962_con_s05_c100_keyboard_10_n03085013_2300.JPEG
subject-05,1,964,0.479038953781128,boat,boat,c50,0963_con_s05_c50_boat_10_n02951358_14224.JPEG
subject-05,1,965,1.02958393096924,elephant,elephant,c50,0964_con_s05_c50_elephant_10_n02504013_1333.JPEG
subject-05,1,966,0.610630989074707,clock,truck,c50,0965_con_s05_c50_truck_10_n04467665_42414.JPEG
subject-05,1,967,0.792922973632812,bear,bear,c30,0966_con_s05_c30_bear_10_n02132136_5715.JPEG
subject-05,1,968,1.05980896949768,car,car,c15,0967_con_s05_c15_car_10_n04285008_12457.JPEG
subject-05,1,969,0.588246822357178,cat,cat,c30,0968_con_s05_c30_cat_10_n02123597_6972.JPEG
subject-05,1,970,1.08673286437988,bear,bear,c03,0969_con_s05_c03_bear_10_n02134418_2019.JPEG
subject-05,1,971,0.761362791061401,bird,bird,c05,0970_con_s05_c05_bird_10_n01622779_2991.JPEG
subject-05,1,972,0.875859975814819,bird,bird,c10,0971_con_s05_c10_bird_10_n02018207_924.JPEG
subject-05,1,973,NaN,na,oven,c15,0972_con_s05_c15_oven_10_n04111531_9123.JPEG
subject-05,1,974,1.45509910583496,car,truck,c15,0973_con_s05_c15_truck_10_n04467665_8443.JPEG
subject-05,1,975,1.09926199913025,airplane,airplane,c10,0974_con_s05_c10_airplane_10_n02690373_10006.JPEG
subject-05,1,976,0.606059074401855,boat,dog,c10,0975_con_s05_c10_dog_10_n02093991_2860.JPEG
subject-05,1,977,0.954896926879883,truck,truck,c15,0976_con_s05_c15_truck_10_n03417042_15045.JPEG
subject-05,1,978,0.853756904602051,clock,keyboard,c30,0977_con_s05_c30_keyboard_10_n03085013_22942.JPEG
subject-05,1,979,0.674236059188843,oven,bottle,c05,0978_con_s05_c05_bottle_10_n03983396_6073.JPEG
subject-05,1,980,0.872825860977173,cat,oven,c10,0979_con_s05_c10_oven_10_n04111531_164.JPEG
subject-05,1,981,0.625606060028076,boat,dog,c01,0980_con_s05_c01_dog_10_n02097474_537.JPEG
subject-05,1,982,1.34603190422058,bear,clock,c01,0981_con_s05_c01_clock_10_n04548280_1199.JPEG
subject-05,1,983,0.914572954177856,oven,oven,c50,0982_con_s05_c50_oven_10_n04111531_19631.JPEG
subject-05,1,984,0.635334968566895,car,car,c100,0983_con_s05_c100_car_10_n02814533_22824.JPEG
subject-05,1,985,0.855661869049072,cat,bear,c15,0984_con_s05_c15_bear_10_n02134084_1369.JPEG
subject-05,1,986,0.808192014694214,bicycle,bicycle,c30,0985_con_s05_c30_bicycle_10_n03792782_17796.JPEG
subject-05,1,987,1.11266803741455,bottle,oven,c05,0986_con_s05_c05_oven_10_n04111531_10216.JPEG
subject-05,1,988,1.12367582321167,airplane,airplane,c100,0987_con_s05_c100_airplane_10_n02690373_20071.JPEG
subject-05,1,989,0.768512964248657,clock,clock,c30,0988_con_s05_c30_clock_10_n03196217_3289.JPEG
subject-05,1,990,1.01124715805054,bird,bird,c100,0989_con_s05_c100_bird_10_n02009912_278.JPEG
subject-05,1,991,0.86370587348938,airplane,airplane,c30,0990_con_s05_c30_airplane_10_n02690373_19742.JPEG
subject-05,1,992,0.784313917160034,cat,bicycle,c03,0991_con_s05_c03_bicycle_10_n03792782_66837.JPEG
subject-05,1,993,1.07444000244141,elephant,elephant,c30,0992_con_s05_c30_elephant_10_n02504458_5851.JPEG
subject-05,1,994,0.635017156600952,boat,boat,c05,0993_con_s05_c05_boat_10_n03344393_3189.JPEG
subject-05,1,995,0.731177091598511,oven,oven,c100,0994_con_s05_c100_oven_10_n04111531_21460.JPEG
subject-05,1,996,0.792014122009277,truck,truck,c30,0995_con_s05_c30_truck_10_n03417042_12588.JPEG
subject-05,1,997,0.774302005767822,bear,bear,c10,0996_con_s05_c10_bear_10_n02133161_14423.JPEG
subject-05,1,998,0.778698921203613,bottle,bottle,c15,0997_con_s05_c15_bottle_10_n02823428_1767.JPEG
subject-05,1,999,1.09139490127563,dog,dog,c15,0998_con_s05_c15_dog_10_n02096294_7299.JPEG
subject-05,1,1000,0.765135049819946,cat,oven,c01,0999_con_s05_c01_oven_10_n04111531_585.JPEG
subject-05,1,1001,0.793414115905762,bear,elephant,c10,1000_con_s05_c10_elephant_10_n02504458_4280.JPEG
subject-05,1,1002,0.83799409866333,keyboard,keyboard,c30,1001_con_s05_c30_keyboard_10_n03085013_8325.JPEG
subject-05,1,1003,1.35647702217102,chair,knife,c10,1002_con_s05_c10_knife_10_n03041632_21818.JPEG
subject-05,1,1004,0.687067985534668,airplane,airplane,c10,1003_con_s05_c10_airplane_10_n02690373_3736.JPEG
subject-05,1,1005,0.761471033096313,bird,bird,c10,1004_con_s05_c10_bird_10_n02009229_2304.JPEG
subject-05,1,1006,1.05991005897522,airplane,airplane,c15,1005_con_s05_c15_airplane_10_n02690373_4402.JPEG
subject-05,1,1007,0.98044490814209,boat,dog,c03,1006_con_s05_c03_dog_10_n02099849_3705.JPEG
subject-05,1,1008,NaN,na,cat,c01,1007_con_s05_c01_cat_10_n02125311_47461.JPEG
subject-05,1,1009,0.745672941207886,bicycle,bicycle,c30,1008_con_s05_c30_bicycle_10_n03792782_12991.JPEG
subject-05,1,1010,NaN,na,knife,c15,1009_con_s05_c15_knife_10_n03041632_19098.JPEG
subject-05,1,1011,0.865126848220825,keyboard,keyboard,c100,1010_con_s05_c100_keyboard_10_n04505470_5161.JPEG
subject-05,1,1012,0.663676977157593,boat,bird,c03,1011_con_s05_c03_bird_10_n01798484_17541.JPEG
subject-05,1,1013,1.02225494384766,bicycle,bicycle,c15,1012_con_s05_c15_bicycle_10_n02835271_12597.JPEG
subject-05,1,1014,0.660879850387573,cat,dog,c10,1013_con_s05_c10_dog_10_n02107908_1520.JPEG
subject-05,1,1015,1.18765687942505,bird,oven,c50,1014_con_s05_c50_oven_10_n04111531_4331.JPEG
subject-05,1,1016,0.626092910766602,boat,car,c03,1015_con_s05_c03_car_10_n02814533_27504.JPEG
subject-05,1,1017,0.700490951538086,oven,bicycle,c10,1016_con_s05_c10_bicycle_10_n02835271_14504.JPEG
subject-05,1,1018,0.820880889892578,bottle,bottle,c10,1017_con_s05_c10_bottle_10_n04557648_6523.JPEG
subject-05,1,1019,1.1713490486145,bottle,chair,c10,1018_con_s05_c10_chair_10_n02791124_1443.JPEG
subject-05,1,1020,1.0840208530426,car,car,c03,1019_con_s05_c03_car_10_n02814533_36898.JPEG
subject-05,1,1021,1.03665018081665,bottle,bottle,c15,1020_con_s05_c15_bottle_10_n04557648_376.JPEG
subject-05,1,1022,0.573174953460693,cat,truck,c10,1021_con_s05_c10_truck_10_n04467665_23112.JPEG
subject-05,1,1023,0.58743691444397,boat,keyboard,c03,1022_con_s05_c03_keyboard_10_n04505470_4784.JPEG
subject-05,1,1024,0.554311037063599,bicycle,bicycle,c100,1023_con_s05_c100_bicycle_10_n02835271_13748.JPEG
subject-05,1,1025,0.756237983703613,clock,bear,c01,1024_con_s05_c01_bear_10_n02134084_41194.JPEG
subject-05,1,1026,1.12276482582092,clock,clock,c15,1025_con_s05_c15_clock_10_n04548280_3292.JPEG
subject-05,1,1027,0.567821025848389,boat,boat,c100,1026_con_s05_c100_boat_10_n04273569_8985.JPEG
subject-05,1,1028,0.866004943847656,oven,cat,c05,1027_con_s05_c05_cat_10_n02123597_8866.JPEG
subject-05,1,1029,0.532845973968506,cat,cat,c100,1028_con_s05_c100_cat_10_n02123159_7856.JPEG
subject-05,1,1030,0.67746901512146,clock,bicycle,c05,1029_con_s05_c05_bicycle_10_n03792782_90.JPEG
subject-05,1,1031,NaN,na,elephant,c05,1030_con_s05_c05_elephant_10_n02504013_7303.JPEG
