subj,session,trial,rt,object_response,category,condition,imagename
subject-06,1,1,0.803786993026733,clock,bottle,c01,0000_con_s06_c01_bottle_10_n04579145_1124.JPEG
subject-06,1,2,0.728397846221924,knife,knife,c10,0001_con_s06_c10_knife_10_n03041632_39952.JPEG
subject-06,1,3,1.24503493309021,keyboard,elephant,c03,0002_con_s06_c03_elephant_10_n02504013_6252.JPEG
subject-06,1,4,0.985424995422363,bird,oven,c01,0003_con_s06_c01_oven_10_n04111531_18154.JPEG
subject-06,1,5,1.10261487960815,dog,bear,c10,0004_con_s06_c10_bear_10_n02134084_12841.JPEG
subject-06,1,6,1.05865406990051,car,bird,c01,0005_con_s06_c01_bird_10_n02017213_2872.JPEG
subject-06,1,7,0.635522842407227,chair,chair,c10,0006_con_s06_c10_chair_10_n03376595_9885.JPEG
subject-06,1,8,0.937739133834839,elephant,elephant,c100,0007_con_s06_c100_elephant_10_n02504013_10429.JPEG
subject-06,1,9,0.994269132614136,clock,chair,c15,0008_con_s06_c15_chair_10_n04429376_45613.JPEG
subject-06,1,10,0.949053049087524,dog,dog,c50,0009_con_s06_c50_dog_10_n02110063_13413.JPEG
subject-06,1,11,0.943143129348755,bird,clock,c01,0010_con_s06_c01_clock_10_n04548280_2343.JPEG
subject-06,1,12,0.575971126556396,keyboard,keyboard,c10,0011_con_s06_c10_keyboard_10_n03085013_2594.JPEG
subject-06,1,13,0.792564153671265,elephant,elephant,c30,0012_con_s06_c30_elephant_10_n02504013_4485.JPEG
subject-06,1,14,0.847366809844971,car,car,c30,0013_con_s06_c30_car_10_n04285008_1767.JPEG
subject-06,1,15,1.0579571723938,boat,dog,c01,0014_con_s06_c01_dog_10_n02108422_11504.JPEG
subject-06,1,16,1.31125998497009,bird,bear,c15,0015_con_s06_c15_bear_10_n02134418_3942.JPEG
subject-06,1,17,1.50002193450928,bear,bear,c30,0016_con_s06_c30_bear_10_n02134084_22092.JPEG
subject-06,1,18,1.50035810470581,chair,oven,c10,0017_con_s06_c10_oven_10_n04111531_13862.JPEG
subject-06,1,19,0.7515709400177,bird,bird,c15,0018_con_s06_c15_bird_10_n02018795_10690.JPEG
subject-06,1,20,1.35097980499268,airplane,car,c03,0019_con_s06_c03_car_10_n04285008_8818.JPEG
subject-06,1,21,1.09907102584839,truck,truck,c100,0020_con_s06_c100_truck_10_n03417042_19596.JPEG
subject-06,1,22,NaN,na,bird,c30,0021_con_s06_c30_bird_10_n01820546_6834.JPEG
subject-06,1,23,1.00671315193176,oven,oven,c15,0022_con_s06_c15_oven_10_n04111531_9613.JPEG
subject-06,1,24,0.793078899383545,chair,truck,c05,0023_con_s06_c05_truck_10_n03796401_1150.JPEG
subject-06,1,25,1.49273920059204,clock,knife,c50,0024_con_s06_c50_knife_10_n03041632_36806.JPEG
subject-06,1,26,1.44423890113831,car,oven,c01,0025_con_s06_c01_oven_10_n04111531_16198.JPEG
subject-06,1,27,NaN,na,dog,c03,0026_con_s06_c03_dog_10_n02092339_3202.JPEG
subject-06,1,28,0.58345103263855,bird,bird,c10,0027_con_s06_c10_bird_10_n02018795_5174.JPEG
subject-06,1,29,0.769606113433838,keyboard,oven,c03,0028_con_s06_c03_oven_10_n04111531_22466.JPEG
subject-06,1,30,1.14529395103455,bear,bear,c30,0029_con_s06_c30_bear_10_n02133161_588.JPEG
subject-06,1,31,0.793500900268555,bear,bear,c50,0030_con_s06_c50_bear_10_n02134084_12136.JPEG
subject-06,1,32,0.710140943527222,bird,bird,c50,0031_con_s06_c50_bird_10_n01601694_14590.JPEG
subject-06,1,33,0.855535984039307,bear,bear,c100,0032_con_s06_c100_bear_10_n02134084_17572.JPEG
subject-06,1,34,1.1338529586792,dog,bicycle,c03,0033_con_s06_c03_bicycle_10_n02835271_8747.JPEG
subject-06,1,35,NaN,na,bear,c15,0034_con_s06_c15_bear_10_n02134418_2029.JPEG
subject-06,1,36,0.874210119247437,bottle,knife,c15,0035_con_s06_c15_knife_10_n03041632_99460.JPEG
subject-06,1,37,1.21187019348145,knife,knife,c100,0036_con_s06_c100_knife_10_n03041632_99875.JPEG
subject-06,1,38,0.827861070632935,boat,cat,c01,0037_con_s06_c01_cat_10_n02123045_4086.JPEG
subject-06,1,39,0.760110139846802,bird,dog,c05,0038_con_s06_c05_dog_10_n02105251_1147.JPEG
subject-06,1,40,0.852025985717773,truck,truck,c50,0039_con_s06_c50_truck_10_n04467665_6746.JPEG
subject-06,1,41,0.746677160263062,dog,dog,c100,0040_con_s06_c100_dog_10_n02112350_8560.JPEG
subject-06,1,42,1.06848692893982,airplane,bottle,c01,0041_con_s06_c01_bottle_10_n04557648_2622.JPEG
subject-06,1,43,NaN,na,knife,c10,0042_con_s06_c10_knife_10_n03041632_51256.JPEG
subject-06,1,44,0.546808958053589,clock,clock,c03,0043_con_s06_c03_clock_10_n03196217_12380.JPEG
subject-06,1,45,0.849561929702759,bottle,bottle,c100,0044_con_s06_c100_bottle_10_n03983396_486.JPEG
subject-06,1,46,1.31986784934998,oven,cat,c01,0045_con_s06_c01_cat_10_n02125311_13476.JPEG
subject-06,1,47,0.887781858444214,oven,oven,c50,0046_con_s06_c50_oven_10_n04111531_6412.JPEG
subject-06,1,48,0.804066896438599,chair,chair,c50,0047_con_s06_c50_chair_10_n03376595_3940.JPEG
subject-06,1,49,1.31146001815796,car,boat,c03,0048_con_s06_c03_boat_10_n02951358_1752.JPEG
subject-06,1,50,0.951607942581177,boat,boat,c15,0049_con_s06_c15_boat_10_n04612504_13034.JPEG
subject-06,1,51,0.52975606918335,clock,clock,c30,0050_con_s06_c30_clock_10_n04548280_467.JPEG
subject-06,1,52,NaN,na,knife,c01,0051_con_s06_c01_knife_10_n03041632_8321.JPEG
subject-06,1,53,0.813639879226685,chair,chair,c10,0052_con_s06_c10_chair_10_n02791124_1224.JPEG
subject-06,1,54,1.07523703575134,boat,cat,c03,0053_con_s06_c03_cat_10_n02123597_1423.JPEG
subject-06,1,55,0.492033004760742,cat,cat,c100,0054_con_s06_c100_cat_10_n02123159_899.JPEG
subject-06,1,56,0.632460117340088,cat,cat,c50,0055_con_s06_c50_cat_10_n02123045_5973.JPEG
subject-06,1,57,1.1106219291687,keyboard,airplane,c01,0056_con_s06_c01_airplane_10_n02690373_2433.JPEG
subject-06,1,58,0.502556085586548,boat,boat,c100,0057_con_s06_c100_boat_10_n03662601_10589.JPEG
subject-06,1,59,0.656771898269653,bicycle,bicycle,c50,0058_con_s06_c50_bicycle_10_n03792782_12504.JPEG
subject-06,1,60,0.705272197723389,bear,bear,c30,0059_con_s06_c30_bear_10_n02134418_10937.JPEG
subject-06,1,61,1.02998304367065,chair,chair,c50,0060_con_s06_c50_chair_10_n04429376_3193.JPEG
subject-06,1,62,0.836976051330566,cat,oven,c10,0061_con_s06_c10_oven_10_n04111531_15582.JPEG
subject-06,1,63,1.07532000541687,bear,elephant,c05,0062_con_s06_c05_elephant_10_n02504458_6738.JPEG
subject-06,1,64,0.766294956207275,elephant,elephant,c50,0063_con_s06_c50_elephant_10_n02504013_2233.JPEG
subject-06,1,65,0.606014013290405,airplane,airplane,c15,0064_con_s06_c15_airplane_10_n02690373_1492.JPEG
subject-06,1,66,0.790529012680054,chair,chair,c15,0065_con_s06_c15_chair_10_n04099969_34580.JPEG
subject-06,1,67,0.522420167922974,boat,boat,c100,0066_con_s06_c100_boat_10_n03662601_12670.JPEG
subject-06,1,68,1.06101489067078,bird,bird,c100,0067_con_s06_c100_bird_10_n01622779_1961.JPEG
subject-06,1,69,1.07936477661133,knife,bicycle,c03,0068_con_s06_c03_bicycle_10_n02835271_13328.JPEG
subject-06,1,70,1.24956393241882,knife,dog,c03,0069_con_s06_c03_dog_10_n02086240_6149.JPEG
subject-06,1,71,NaN,na,bicycle,c100,0070_con_s06_c100_bicycle_10_n03792782_4076.JPEG
subject-06,1,72,0.774589061737061,bicycle,bicycle,c50,0071_con_s06_c50_bicycle_10_n02835271_3677.JPEG
subject-06,1,73,0.80649995803833,bottle,bottle,c15,0072_con_s06_c15_bottle_10_n03983396_4798.JPEG
subject-06,1,74,0.692917108535767,clock,clock,c15,0073_con_s06_c15_clock_10_n04548280_9426.JPEG
subject-06,1,75,0.668499946594238,chair,chair,c30,0074_con_s06_c30_chair_10_n04099969_1879.JPEG
subject-06,1,76,0.771090984344482,boat,boat,c05,0075_con_s06_c05_boat_10_n04612504_8636.JPEG
subject-06,1,77,0.709176063537598,oven,clock,c03,0076_con_s06_c03_clock_10_n04548280_7930.JPEG
subject-06,1,78,0.787793159484863,keyboard,keyboard,c05,0077_con_s06_c05_keyboard_10_n04505470_5086.JPEG
subject-06,1,79,NaN,na,keyboard,c05,0078_con_s06_c05_keyboard_10_n03085013_20837.JPEG
subject-06,1,80,0.544369220733643,bicycle,bicycle,c100,0079_con_s06_c100_bicycle_10_n03792782_11597.JPEG
subject-06,1,81,1.13963389396667,knife,keyboard,c03,0080_con_s06_c03_keyboard_10_n03085013_23418.JPEG
subject-06,1,82,0.761490106582642,clock,clock,c30,0081_con_s06_c30_clock_10_n02708093_204.JPEG
subject-06,1,83,0.701035976409912,keyboard,keyboard,c50,0082_con_s06_c50_keyboard_10_n03085013_17606.JPEG
subject-06,1,84,0.91752815246582,bird,oven,c15,0083_con_s06_c15_oven_10_n04111531_3181.JPEG
subject-06,1,85,0.985048055648804,boat,oven,c05,0084_con_s06_c05_oven_10_n04111531_11499.JPEG
subject-06,1,86,0.662755012512207,chair,chair,c50,0085_con_s06_c50_chair_10_n04429376_12965.JPEG
subject-06,1,87,1.03277897834778,bottle,chair,c03,0086_con_s06_c03_chair_10_n03376595_6986.JPEG
subject-06,1,88,0.711321115493774,bottle,oven,c15,0087_con_s06_c15_oven_10_n04111531_627.JPEG
subject-06,1,89,1.33303499221802,oven,oven,c05,0088_con_s06_c05_oven_10_n04111531_23046.JPEG
subject-06,1,90,0.819646120071411,bird,dog,c03,0089_con_s06_c03_dog_10_n02111277_45532.JPEG
subject-06,1,91,NaN,na,elephant,c100,0090_con_s06_c100_elephant_10_n02504013_6410.JPEG
subject-06,1,92,0.900753974914551,bird,bird,c100,0091_con_s06_c100_bird_10_n01592084_5262.JPEG
subject-06,1,93,0.985126972198486,bird,boat,c03,0092_con_s06_c03_boat_10_n04612504_2805.JPEG
subject-06,1,94,0.709609985351562,bottle,bottle,c15,0093_con_s06_c15_bottle_10_n04591713_6597.JPEG
subject-06,1,95,0.550230979919434,dog,dog,c100,0094_con_s06_c100_dog_10_n02091831_6436.JPEG
subject-06,1,96,0.667076110839844,dog,bottle,c30,0095_con_s06_c30_bottle_10_n04557648_3345.JPEG
subject-06,1,97,0.658543109893799,bottle,bottle,c100,0096_con_s06_c100_bottle_10_n03983396_5982.JPEG
subject-06,1,98,1.01246094703674,bear,elephant,c30,0097_con_s06_c30_elephant_10_n02504458_5181.JPEG
subject-06,1,99,0.636977910995483,car,car,c50,0098_con_s06_c50_car_10_n03100240_2337.JPEG
subject-06,1,100,0.53098201751709,clock,clock,c100,0099_con_s06_c100_clock_10_n03196217_3600.JPEG
subject-06,1,101,0.794222116470337,bird,oven,c100,0100_con_s06_c100_oven_10_n04111531_13172.JPEG
subject-06,1,102,0.718605041503906,dog,dog,c05,0101_con_s06_c05_dog_10_n02104029_7664.JPEG
subject-06,1,103,0.683105945587158,airplane,car,c03,0102_con_s06_c03_car_10_n02814533_94425.JPEG
subject-06,1,104,0.750411033630371,airplane,airplane,c100,0103_con_s06_c100_airplane_10_n02690373_7192.JPEG
subject-06,1,105,0.536298990249634,dog,dog,c50,0104_con_s06_c50_dog_10_n02100877_7315.JPEG
subject-06,1,106,0.706350088119507,keyboard,chair,c10,0105_con_s06_c10_chair_10_n03376595_5112.JPEG
subject-06,1,107,0.709229230880737,bicycle,bicycle,c30,0106_con_s06_c30_bicycle_10_n03792782_3060.JPEG
subject-06,1,108,1.27663207054138,bicycle,bicycle,c30,0107_con_s06_c30_bicycle_10_n02835271_1357.JPEG
subject-06,1,109,1.06328392028809,dog,bear,c100,0108_con_s06_c100_bear_10_n02134418_4364.JPEG
subject-06,1,110,0.557788848876953,cat,cat,c15,0109_con_s06_c15_cat_10_n02123597_10419.JPEG
subject-06,1,111,1.49999284744263,bird,bicycle,c05,0110_con_s06_c05_bicycle_10_n02835271_1432.JPEG
subject-06,1,112,0.787463903427124,boat,boat,c50,0111_con_s06_c50_boat_10_n03344393_11806.JPEG
subject-06,1,113,0.740680932998657,car,car,c50,0112_con_s06_c50_car_10_n03100240_9143.JPEG
subject-06,1,114,0.934366941452026,car,car,c50,0113_con_s06_c50_car_10_n03100240_977.JPEG
subject-06,1,115,0.621156215667725,chair,chair,c30,0114_con_s06_c30_chair_10_n02791124_3926.JPEG
subject-06,1,116,0.759880065917969,oven,keyboard,c15,0115_con_s06_c15_keyboard_10_n03085013_24088.JPEG
subject-06,1,117,0.621294021606445,bird,bird,c100,0116_con_s06_c100_bird_10_n02028035_25647.JPEG
subject-06,1,118,0.61577296257019,clock,clock,c10,0117_con_s06_c10_clock_10_n04548280_5087.JPEG
subject-06,1,119,1.17788004875183,keyboard,truck,c01,0118_con_s06_c01_truck_10_n03796401_14104.JPEG
subject-06,1,120,1.01666808128357,bottle,bottle,c10,0119_con_s06_c10_bottle_10_n04591713_3370.JPEG
subject-06,1,121,1.2652530670166,chair,oven,c05,0120_con_s06_c05_oven_10_n04111531_21309.JPEG
subject-06,1,122,0.841300964355469,bird,bird,c10,0121_con_s06_c10_bird_10_n01829413_3300.JPEG
subject-06,1,123,0.77405309677124,airplane,airplane,c100,0122_con_s06_c100_airplane_10_n02690373_3415.JPEG
subject-06,1,124,1.02568507194519,oven,bird,c01,0123_con_s06_c01_bird_10_n01592084_1809.JPEG
subject-06,1,125,1.36322498321533,elephant,dog,c05,0124_con_s06_c05_dog_10_n02088466_9383.JPEG
subject-06,1,126,1.2556939125061,car,bicycle,c01,0125_con_s06_c01_bicycle_10_n02835271_14123.JPEG
subject-06,1,127,0.733865022659302,boat,keyboard,c01,0126_con_s06_c01_keyboard_10_n03085013_19376.JPEG
subject-06,1,128,0.757462024688721,cat,clock,c05,0127_con_s06_c05_clock_10_n04548280_5204.JPEG
subject-06,1,129,0.807932138442993,bird,bird,c30,0128_con_s06_c30_bird_10_n01860187_27127.JPEG
subject-06,1,130,1.50004005432129,bear,bear,c05,0129_con_s06_c05_bear_10_n02134418_4099.JPEG
subject-06,1,131,0.573235034942627,clock,clock,c50,0130_con_s06_c50_clock_10_n03196217_3763.JPEG
subject-06,1,132,0.613883018493652,oven,car,c01,0131_con_s06_c01_car_10_n04285008_3864.JPEG
subject-06,1,133,0.552193880081177,car,car,c10,0132_con_s06_c10_car_10_n02814533_68219.JPEG
subject-06,1,134,0.638684034347534,keyboard,keyboard,c50,0133_con_s06_c50_keyboard_10_n03085013_23485.JPEG
subject-06,1,135,0.754762887954712,cat,chair,c05,0134_con_s06_c05_chair_10_n04429376_8902.JPEG
subject-06,1,136,0.654345035552979,airplane,airplane,c05,0135_con_s06_c05_airplane_10_n02690373_3698.JPEG
subject-06,1,137,1.03854393959045,oven,knife,c50,0136_con_s06_c50_knife_10_n03041632_18468.JPEG
subject-06,1,138,1.40078592300415,boat,bird,c05,0137_con_s06_c05_bird_10_n02006656_13875.JPEG
subject-06,1,139,0.541018009185791,chair,chair,c30,0138_con_s06_c30_chair_10_n02791124_7653.JPEG
subject-06,1,140,1.37853693962097,bicycle,oven,c30,0139_con_s06_c30_oven_10_n04111531_12147.JPEG
subject-06,1,141,0.986142158508301,keyboard,keyboard,c10,0140_con_s06_c10_keyboard_10_n03085013_21649.JPEG
subject-06,1,142,1.50014591217041,bird,boat,c03,0141_con_s06_c03_boat_10_n03344393_5801.JPEG
subject-06,1,143,0.776340007781982,bird,bird,c100,0142_con_s06_c100_bird_10_n02017213_6234.JPEG
subject-06,1,144,0.698284149169922,airplane,airplane,c03,0143_con_s06_c03_airplane_10_n02690373_9241.JPEG
subject-06,1,145,0.63071608543396,boat,boat,c100,0144_con_s06_c100_boat_10_n03662601_1187.JPEG
subject-06,1,146,0.979854106903076,bear,bear,c10,0145_con_s06_c10_bear_10_n02132136_9306.JPEG
subject-06,1,147,0.77998685836792,airplane,airplane,c03,0146_con_s06_c03_airplane_10_n02690373_10449.JPEG
subject-06,1,148,0.704044103622437,boat,boat,c30,0147_con_s06_c30_boat_10_n03344393_5183.JPEG
subject-06,1,149,0.750432014465332,dog,dog,c10,0148_con_s06_c10_dog_10_n02090622_831.JPEG
subject-06,1,150,NaN,na,boat,c05,0149_con_s06_c05_boat_10_n03344393_4333.JPEG
subject-06,1,151,1.05276989936829,clock,bear,c03,0150_con_s06_c03_bear_10_n02132136_2210.JPEG
subject-06,1,152,0.931341171264648,cat,bird,c05,0151_con_s06_c05_bird_10_n02025239_4507.JPEG
subject-06,1,153,0.769767045974731,bird,bird,c30,0152_con_s06_c30_bird_10_n01537544_8540.JPEG
subject-06,1,154,0.817596912384033,chair,chair,c30,0153_con_s06_c30_chair_10_n04429376_4379.JPEG
subject-06,1,155,0.75511908531189,cat,cat,c10,0154_con_s06_c10_cat_10_n02124075_7068.JPEG
subject-06,1,156,0.546679019927979,clock,clock,c30,0155_con_s06_c30_clock_10_n04548280_983.JPEG
subject-06,1,157,0.641300916671753,dog,dog,c50,0156_con_s06_c50_dog_10_n02107908_1602.JPEG
subject-06,1,158,1.14117908477783,boat,bear,c05,0157_con_s06_c05_bear_10_n02134084_3958.JPEG
subject-06,1,159,0.541703939437866,dog,dog,c100,0158_con_s06_c100_dog_10_n02111277_38451.JPEG
subject-06,1,160,1.11227893829346,truck,truck,c10,0159_con_s06_c10_truck_10_n04467665_70584.JPEG
subject-06,1,161,0.961313962936401,truck,truck,c10,0160_con_s06_c10_truck_10_n04467665_40886.JPEG
subject-06,1,162,1.0560290813446,knife,keyboard,c03,0161_con_s06_c03_keyboard_10_n03085013_7440.JPEG
subject-06,1,163,1.09419202804565,knife,elephant,c03,0162_con_s06_c03_elephant_10_n02504458_1067.JPEG
subject-06,1,164,0.848176956176758,elephant,elephant,c10,0163_con_s06_c10_elephant_10_n02504013_1854.JPEG
subject-06,1,165,0.880502939224243,clock,cat,c05,0164_con_s06_c05_cat_10_n02123394_2984.JPEG
subject-06,1,166,1.21330499649048,car,bicycle,c01,0165_con_s06_c01_bicycle_10_n03792782_16896.JPEG
subject-06,1,167,0.577717065811157,elephant,elephant,c15,0166_con_s06_c15_elephant_10_n02504013_6118.JPEG
subject-06,1,168,0.823305130004883,cat,clock,c01,0167_con_s06_c01_clock_10_n04548280_5544.JPEG
subject-06,1,169,NaN,na,bear,c30,0168_con_s06_c30_bear_10_n02134418_28023.JPEG
subject-06,1,170,1.0777440071106,bear,bear,c10,0169_con_s06_c10_bear_10_n02134418_2746.JPEG
subject-06,1,171,1.5002019405365,car,truck,c05,0170_con_s06_c05_truck_10_n03417042_5682.JPEG
subject-06,1,172,0.888576984405518,cat,knife,c01,0171_con_s06_c01_knife_10_n03041632_90125.JPEG
subject-06,1,173,0.889407873153687,truck,boat,c01,0172_con_s06_c01_boat_10_n02951358_1279.JPEG
subject-06,1,174,0.829789876937866,boat,boat,c50,0173_con_s06_c50_boat_10_n02951358_33559.JPEG
subject-06,1,175,0.638280868530273,oven,truck,c03,0174_con_s06_c03_truck_10_n03417042_14574.JPEG
subject-06,1,176,0.824785947799683,bird,bird,c05,0175_con_s06_c05_bird_10_n01795545_18499.JPEG
subject-06,1,177,1.34597396850586,cat,bottle,c03,0176_con_s06_c03_bottle_10_n04557648_12541.JPEG
subject-06,1,178,0.540132999420166,keyboard,keyboard,c50,0177_con_s06_c50_keyboard_10_n03085013_20881.JPEG
subject-06,1,179,0.818758964538574,airplane,airplane,c100,0178_con_s06_c100_airplane_10_n02690373_4183.JPEG
subject-06,1,180,1.50036120414734,chair,car,c03,0179_con_s06_c03_car_10_n04285008_10462.JPEG
subject-06,1,181,0.736072063446045,bicycle,bicycle,c100,0180_con_s06_c100_bicycle_10_n03792782_24042.JPEG
subject-06,1,182,0.522922039031982,bottle,bottle,c15,0181_con_s06_c15_bottle_10_n03937543_3196.JPEG
subject-06,1,183,0.579277992248535,cat,cat,c30,0182_con_s06_c30_cat_10_n02123394_6114.JPEG
subject-06,1,184,0.671838045120239,cat,bear,c15,0183_con_s06_c15_bear_10_n02134084_9083.JPEG
subject-06,1,185,1.11213302612305,chair,keyboard,c05,0184_con_s06_c05_keyboard_10_n03085013_24612.JPEG
subject-06,1,186,1.21277403831482,bear,knife,c05,0185_con_s06_c05_knife_10_n03041632_1884.JPEG
subject-06,1,187,0.723461866378784,bear,bear,c10,0186_con_s06_c10_bear_10_n02132136_12616.JPEG
subject-06,1,188,0.762103080749512,cat,cat,c15,0187_con_s06_c15_cat_10_n02123394_1979.JPEG
subject-06,1,189,0.62663197517395,truck,truck,c50,0188_con_s06_c50_truck_10_n03417042_8241.JPEG
subject-06,1,190,1.50015211105347,knife,elephant,c01,0189_con_s06_c01_elephant_10_n02504013_4325.JPEG
subject-06,1,191,0.664279937744141,chair,chair,c50,0190_con_s06_c50_chair_10_n04429376_3072.JPEG
subject-06,1,192,0.784554958343506,elephant,elephant,c15,0191_con_s06_c15_elephant_10_n02504013_6823.JPEG
subject-06,1,193,0.701316118240356,cat,dog,c100,0192_con_s06_c100_dog_10_n02092002_15399.JPEG
subject-06,1,194,0.696146011352539,bottle,bottle,c30,0193_con_s06_c30_bottle_10_n04557648_11070.JPEG
subject-06,1,195,0.812744855880737,bottle,bottle,c15,0194_con_s06_c15_bottle_10_n02823428_908.JPEG
subject-06,1,196,0.729070901870728,chair,chair,c05,0195_con_s06_c05_chair_10_n04099969_16270.JPEG
subject-06,1,197,1.09376907348633,cat,bear,c100,0196_con_s06_c100_bear_10_n02134418_559.JPEG
subject-06,1,198,0.756151914596558,bird,oven,c10,0197_con_s06_c10_oven_10_n04111531_9322.JPEG
subject-06,1,199,1.32656693458557,car,cat,c01,0198_con_s06_c01_cat_10_n02123597_7933.JPEG
subject-06,1,200,0.559345006942749,keyboard,keyboard,c100,0199_con_s06_c100_keyboard_10_n04505470_4854.JPEG
subject-06,1,201,0.59766411781311,boat,boat,c30,0200_con_s06_c30_boat_10_n02951358_11190.JPEG
subject-06,1,202,0.724266052246094,oven,chair,c05,0201_con_s06_c05_chair_10_n02791124_6550.JPEG
subject-06,1,203,1.16251015663147,chair,knife,c05,0202_con_s06_c05_knife_10_n03041632_18995.JPEG
subject-06,1,204,NaN,na,bear,c100,0203_con_s06_c100_bear_10_n02134418_1105.JPEG
subject-06,1,205,0.611096143722534,keyboard,keyboard,c50,0204_con_s06_c50_keyboard_10_n03085013_4673.JPEG
subject-06,1,206,0.749009847640991,bird,bird,c50,0205_con_s06_c50_bird_10_n01798484_2364.JPEG
subject-06,1,207,0.856872797012329,boat,car,c03,0206_con_s06_c03_car_10_n02814533_27588.JPEG
subject-06,1,208,0.751394033432007,bird,bird,c100,0207_con_s06_c100_bird_10_n01622779_16878.JPEG
subject-06,1,209,0.605839014053345,oven,bottle,c30,0208_con_s06_c30_bottle_10_n04560804_13922.JPEG
subject-06,1,210,0.868715047836304,cat,elephant,c01,0209_con_s06_c01_elephant_10_n02504013_21387.JPEG
subject-06,1,211,0.762777090072632,clock,cat,c10,0210_con_s06_c10_cat_10_n02123597_5836.JPEG
subject-06,1,212,NaN,na,oven,c15,0211_con_s06_c15_oven_10_n04111531_3353.JPEG
subject-06,1,213,0.92618203163147,elephant,elephant,c30,0212_con_s06_c30_elephant_10_n02504013_2997.JPEG
subject-06,1,214,0.626698970794678,truck,truck,c15,0213_con_s06_c15_truck_10_n04467665_39411.JPEG
subject-06,1,215,0.91359281539917,car,car,c05,0214_con_s06_c05_car_10_n03100240_13410.JPEG
subject-06,1,216,0.678106069564819,keyboard,keyboard,c30,0215_con_s06_c30_keyboard_10_n03085013_25181.JPEG
subject-06,1,217,0.655081987380981,bird,bird,c50,0216_con_s06_c50_bird_10_n02018207_6413.JPEG
subject-06,1,218,0.841464042663574,knife,elephant,c01,0217_con_s06_c01_elephant_10_n02504458_2498.JPEG
subject-06,1,219,0.96626091003418,bottle,bottle,c05,0218_con_s06_c05_bottle_10_n03983396_19635.JPEG
subject-06,1,220,1.19840693473816,oven,oven,c30,0219_con_s06_c30_oven_10_n04111531_12053.JPEG
subject-06,1,221,0.906346082687378,boat,elephant,c01,0220_con_s06_c01_elephant_10_n02504458_7762.JPEG
subject-06,1,222,0.690464973449707,car,car,c15,0221_con_s06_c15_car_10_n03100240_13908.JPEG
subject-06,1,223,1.0308849811554,knife,chair,c03,0222_con_s06_c03_chair_10_n02791124_6075.JPEG
subject-06,1,224,0.877403974533081,bear,bear,c10,0223_con_s06_c10_bear_10_n02134418_1236.JPEG
subject-06,1,225,0.564053058624268,dog,dog,c10,0224_con_s06_c10_dog_10_n02093859_455.JPEG
subject-06,1,226,1.27282905578613,bird,dog,c10,0225_con_s06_c10_dog_10_n02106166_20322.JPEG
subject-06,1,227,1.08946490287781,truck,truck,c03,0226_con_s06_c03_truck_10_n03417042_27278.JPEG
subject-06,1,228,1.23561382293701,cat,elephant,c03,0227_con_s06_c03_elephant_10_n02504013_1743.JPEG
subject-06,1,229,0.613410949707031,boat,boat,c100,0228_con_s06_c100_boat_10_n03344393_10595.JPEG
subject-06,1,230,0.575631856918335,chair,chair,c03,0229_con_s06_c03_chair_10_n04099969_635.JPEG
subject-06,1,231,1.23830103874207,bear,elephant,c100,0230_con_s06_c100_elephant_10_n02504458_3172.JPEG
subject-06,1,232,0.891535997390747,clock,clock,c15,0231_con_s06_c15_clock_10_n04548280_17907.JPEG
subject-06,1,233,0.738209009170532,car,car,c10,0232_con_s06_c10_car_10_n02814533_85971.JPEG
subject-06,1,234,0.516622066497803,keyboard,keyboard,c10,0233_con_s06_c10_keyboard_10_n03085013_24462.JPEG
subject-06,1,235,0.633563041687012,chair,chair,c50,0234_con_s06_c50_chair_10_n04099969_6911.JPEG
subject-06,1,236,0.982116937637329,knife,knife,c50,0235_con_s06_c50_knife_10_n03041632_3210.JPEG
subject-06,1,237,0.82853102684021,airplane,airplane,c05,0236_con_s06_c05_airplane_10_n02690373_2253.JPEG
subject-06,1,238,0.661035060882568,chair,chair,c10,0237_con_s06_c10_chair_10_n04429376_3955.JPEG
subject-06,1,239,0.631480932235718,airplane,airplane,c10,0238_con_s06_c10_airplane_10_n02690373_4136.JPEG
subject-06,1,240,0.888153791427612,bird,dog,c03,0239_con_s06_c03_dog_10_n02088466_8605.JPEG
subject-06,1,241,1.50033712387085,bear,bear,c30,0240_con_s06_c30_bear_10_n02134084_749.JPEG
subject-06,1,242,0.545343160629272,bottle,bottle,c50,0241_con_s06_c50_bottle_10_n04557648_3305.JPEG
subject-06,1,243,0.684075832366943,car,car,c10,0242_con_s06_c10_car_10_n02814533_43585.JPEG
subject-06,1,244,0.538441181182861,bottle,bottle,c15,0243_con_s06_c15_bottle_10_n02823428_3772.JPEG
subject-06,1,245,0.654676914215088,car,car,c100,0244_con_s06_c100_car_10_n04285008_3650.JPEG
subject-06,1,246,1.32564401626587,chair,knife,c15,0245_con_s06_c15_knife_10_n03041632_12242.JPEG
subject-06,1,247,1.5003490447998,dog,knife,c05,0246_con_s06_c05_knife_10_n03041632_14883.JPEG
subject-06,1,248,0.566251993179321,bird,clock,c03,0247_con_s06_c03_clock_10_n04548280_7347.JPEG
subject-06,1,249,0.890298128128052,chair,chair,c10,0248_con_s06_c10_chair_10_n02791124_7003.JPEG
subject-06,1,250,0.636529922485352,airplane,airplane,c100,0249_con_s06_c100_airplane_10_n02690373_3729.JPEG
subject-06,1,251,0.753074884414673,keyboard,oven,c15,0250_con_s06_c15_oven_10_n04111531_2456.JPEG
subject-06,1,252,1.15358400344849,bird,dog,c03,0251_con_s06_c03_dog_10_n02097130_2258.JPEG
subject-06,1,253,0.678430080413818,car,truck,c01,0252_con_s06_c01_truck_10_n04467665_23905.JPEG
subject-06,1,254,1.14016795158386,truck,truck,c30,0253_con_s06_c30_truck_10_n03417042_9128.JPEG
subject-06,1,255,1.0272068977356,clock,dog,c01,0254_con_s06_c01_dog_10_n02111129_6600.JPEG
subject-06,1,256,0.680477142333984,keyboard,keyboard,c15,0255_con_s06_c15_keyboard_10_n04505470_4974.JPEG
subject-06,1,257,1.29568910598755,clock,dog,c05,0256_con_s06_c05_dog_10_n02112018_2288.JPEG
subject-06,1,258,0.581778049468994,chair,bottle,c10,0257_con_s06_c10_bottle_10_n04591713_7474.JPEG
subject-06,1,259,1.02021503448486,bear,bottle,c03,0258_con_s06_c03_bottle_10_n03983396_20540.JPEG
subject-06,1,260,1.04444694519043,clock,keyboard,c30,0259_con_s06_c30_keyboard_10_n03085013_3815.JPEG
subject-06,1,261,0.615357160568237,boat,boat,c30,0260_con_s06_c30_boat_10_n03662601_4787.JPEG
subject-06,1,262,1.16090607643127,car,dog,c01,0261_con_s06_c01_dog_10_n02100877_5081.JPEG
subject-06,1,263,0.78553295135498,bear,bear,c03,0262_con_s06_c03_bear_10_n02133161_9844.JPEG
subject-06,1,264,0.715916156768799,airplane,airplane,c03,0263_con_s06_c03_airplane_10_n02690373_7487.JPEG
subject-06,1,265,0.670552968978882,clock,clock,c15,0264_con_s06_c15_clock_10_n04548280_6287.JPEG
subject-06,1,266,0.848428964614868,bottle,bottle,c30,0265_con_s06_c30_bottle_10_n03983396_770.JPEG
subject-06,1,267,0.764961004257202,elephant,elephant,c50,0266_con_s06_c50_elephant_10_n02504458_8226.JPEG
subject-06,1,268,0.770695924758911,bird,bear,c01,0267_con_s06_c01_bear_10_n02132136_9055.JPEG
subject-06,1,269,0.703613996505737,chair,knife,c15,0268_con_s06_c15_knife_10_n03041632_2468.JPEG
subject-06,1,270,0.727973937988281,bear,bear,c10,0269_con_s06_c10_bear_10_n02132136_3207.JPEG
subject-06,1,271,0.78250789642334,bicycle,bottle,c01,0270_con_s06_c01_bottle_10_n04557648_1898.JPEG
subject-06,1,272,NaN,na,knife,c100,0271_con_s06_c100_knife_10_n03041632_10999.JPEG
subject-06,1,273,0.874635934829712,bird,bird,c50,0272_con_s06_c50_bird_10_n01860187_707.JPEG
subject-06,1,274,1.50015711784363,bear,bear,c03,0273_con_s06_c03_bear_10_n02134084_4406.JPEG
subject-06,1,275,0.676793098449707,bear,bear,c15,0274_con_s06_c15_bear_10_n02133161_19341.JPEG
subject-06,1,276,0.706986904144287,chair,knife,c100,0275_con_s06_c100_knife_10_n03041632_3504.JPEG
subject-06,1,277,1.3911919593811,oven,knife,c05,0276_con_s06_c05_knife_10_n03041632_1407.JPEG
subject-06,1,278,0.547921895980835,oven,oven,c10,0277_con_s06_c10_oven_10_n04111531_9962.JPEG
subject-06,1,279,0.948325872421265,bear,cat,c50,0278_con_s06_c50_cat_10_n02123159_7205.JPEG
subject-06,1,280,1.02704095840454,boat,boat,c30,0279_con_s06_c30_boat_10_n03344393_1422.JPEG
subject-06,1,281,0.589749813079834,chair,chair,c10,0280_con_s06_c10_chair_10_n02791124_4002.JPEG
subject-06,1,282,0.690082788467407,car,car,c30,0281_con_s06_c30_car_10_n04285008_8880.JPEG
subject-06,1,283,0.66898512840271,airplane,airplane,c10,0282_con_s06_c10_airplane_10_n02690373_6992.JPEG
subject-06,1,284,0.639777183532715,cat,cat,c10,0283_con_s06_c10_cat_10_n02123159_1416.JPEG
subject-06,1,285,1.49407196044922,elephant,elephant,c50,0284_con_s06_c50_elephant_10_n02504013_1879.JPEG
subject-06,1,286,1.14829015731812,bird,truck,c05,0285_con_s06_c05_truck_10_n04467665_21542.JPEG
subject-06,1,287,0.612610101699829,bicycle,bicycle,c10,0286_con_s06_c10_bicycle_10_n03792782_1432.JPEG
subject-06,1,288,0.74319314956665,boat,bear,c05,0287_con_s06_c05_bear_10_n02134084_717.JPEG
subject-06,1,289,0.659834861755371,keyboard,keyboard,c10,0288_con_s06_c10_keyboard_10_n04505470_3675.JPEG
subject-06,1,290,0.73052191734314,bird,bird,c01,0289_con_s06_c01_bird_10_n02018207_3879.JPEG
subject-06,1,291,0.54905891418457,keyboard,keyboard,c30,0290_con_s06_c30_keyboard_10_n04505470_10705.JPEG
subject-06,1,292,0.795622110366821,cat,cat,c100,0291_con_s06_c100_cat_10_n02123394_4385.JPEG
subject-06,1,293,0.61188817024231,keyboard,keyboard,c30,0292_con_s06_c30_keyboard_10_n03085013_22489.JPEG
subject-06,1,294,0.604557991027832,bottle,bottle,c05,0293_con_s06_c05_bottle_10_n04591713_1604.JPEG
subject-06,1,295,0.637008190155029,boat,bear,c05,0294_con_s06_c05_bear_10_n02132136_16010.JPEG
subject-06,1,296,0.49946117401123,cat,cat,c10,0295_con_s06_c10_cat_10_n02124075_20092.JPEG
subject-06,1,297,0.592232942581177,cat,cat,c30,0296_con_s06_c30_cat_10_n02123597_6434.JPEG
subject-06,1,298,0.99218487739563,truck,bicycle,c01,0297_con_s06_c01_bicycle_10_n03792782_5672.JPEG
subject-06,1,299,0.592545986175537,airplane,airplane,c50,0298_con_s06_c50_airplane_10_n02690373_5160.JPEG
subject-06,1,300,0.725055932998657,keyboard,keyboard,c15,0299_con_s06_c15_keyboard_10_n03085013_1704.JPEG
subject-06,1,301,0.725609064102173,bicycle,bicycle,c30,0300_con_s06_c30_bicycle_10_n02835271_11974.JPEG
subject-06,1,302,0.988112926483154,oven,keyboard,c03,0301_con_s06_c03_keyboard_10_n03085013_22698.JPEG
subject-06,1,303,0.528784990310669,clock,clock,c100,0302_con_s06_c100_clock_10_n03196217_7816.JPEG
subject-06,1,304,1.15922403335571,bear,bear,c100,0303_con_s06_c100_bear_10_n02133161_3479.JPEG
subject-06,1,305,0.605453014373779,bicycle,bicycle,c15,0304_con_s06_c15_bicycle_10_n03792782_1099.JPEG
subject-06,1,306,1.37595915794373,keyboard,chair,c30,0305_con_s06_c30_chair_10_n03376595_2924.JPEG
subject-06,1,307,0.72255802154541,airplane,truck,c15,0306_con_s06_c15_truck_10_n04467665_21603.JPEG
subject-06,1,308,0.777117013931274,boat,boat,c10,0307_con_s06_c10_boat_10_n03344393_4083.JPEG
subject-06,1,309,0.677632093429565,truck,truck,c30,0308_con_s06_c30_truck_10_n04467665_20622.JPEG
subject-06,1,310,1.27998900413513,oven,oven,c100,0309_con_s06_c100_oven_10_n04111531_2796.JPEG
subject-06,1,311,0.450510025024414,boat,boat,c50,0310_con_s06_c50_boat_10_n03344393_9560.JPEG
subject-06,1,312,0.696717977523804,dog,dog,c10,0311_con_s06_c10_dog_10_n02106166_4653.JPEG
subject-06,1,313,0.865507841110229,chair,bottle,c10,0312_con_s06_c10_bottle_10_n03983396_5934.JPEG
subject-06,1,314,0.619561910629272,clock,oven,c05,0313_con_s06_c05_oven_10_n04111531_1556.JPEG
subject-06,1,315,1.11463117599487,bicycle,bicycle,c03,0314_con_s06_c03_bicycle_10_n02835271_3989.JPEG
subject-06,1,316,0.831141948699951,knife,boat,c05,0315_con_s06_c05_boat_10_n02951358_32590.JPEG
subject-06,1,317,1.13159990310669,knife,knife,c50,0316_con_s06_c50_knife_10_n03041632_28009.JPEG
subject-06,1,318,0.740327835083008,boat,boat,c03,0317_con_s06_c03_boat_10_n04612504_1692.JPEG
subject-06,1,319,1.39052700996399,chair,bicycle,c10,0318_con_s06_c10_bicycle_10_n02835271_8266.JPEG
subject-06,1,320,0.691138029098511,bicycle,bicycle,c10,0319_con_s06_c10_bicycle_10_n03792782_4295.JPEG
subject-06,1,321,1.28599500656128,elephant,elephant,c50,0320_con_s06_c50_elephant_10_n02504458_4841.JPEG
subject-06,1,322,1.10021185874939,cat,dog,c100,0321_con_s06_c100_dog_10_n02092339_7702.JPEG
subject-06,1,323,0.570658922195435,bicycle,bicycle,c15,0322_con_s06_c15_bicycle_10_n02835271_1630.JPEG
subject-06,1,324,1.10344791412354,airplane,cat,c03,0323_con_s06_c03_cat_10_n02123159_1598.JPEG
subject-06,1,325,NaN,na,bird,c05,0324_con_s06_c05_bird_10_n01798484_3762.JPEG
subject-06,1,326,0.750452995300293,bird,bird,c05,0325_con_s06_c05_bird_10_n02037110_26858.JPEG
subject-06,1,327,0.666487216949463,clock,clock,c03,0326_con_s06_c03_clock_10_n04548280_2687.JPEG
subject-06,1,328,0.675075054168701,cat,elephant,c01,0327_con_s06_c01_elephant_10_n02504458_5774.JPEG
subject-06,1,329,0.613592863082886,cat,dog,c10,0328_con_s06_c10_dog_10_n02086079_9756.JPEG
subject-06,1,330,1.15878915786743,bear,car,c01,0329_con_s06_c01_car_10_n02814533_6217.JPEG
subject-06,1,331,0.828866004943848,oven,oven,c10,0330_con_s06_c10_oven_10_n04111531_14279.JPEG
subject-06,1,332,0.758323907852173,elephant,elephant,c03,0331_con_s06_c03_elephant_10_n02504458_6713.JPEG
subject-06,1,333,0.696717977523804,elephant,elephant,c100,0332_con_s06_c100_elephant_10_n02504013_1758.JPEG
subject-06,1,334,1.26460003852844,bicycle,knife,c30,0333_con_s06_c30_knife_10_n03041632_33255.JPEG
subject-06,1,335,0.68897008895874,airplane,airplane,c15,0334_con_s06_c15_airplane_10_n02690373_19438.JPEG
subject-06,1,336,0.775316953659058,truck,truck,c03,0335_con_s06_c03_truck_10_n03796401_19845.JPEG
subject-06,1,337,0.583768129348755,chair,chair,c05,0336_con_s06_c05_chair_10_n04429376_10054.JPEG
subject-06,1,338,1.09783506393433,clock,clock,c10,0337_con_s06_c10_clock_10_n02708093_1669.JPEG
subject-06,1,339,0.80641508102417,bear,bear,c15,0338_con_s06_c15_bear_10_n02132136_22604.JPEG
subject-06,1,340,0.585020065307617,boat,car,c03,0339_con_s06_c03_car_10_n04285008_12438.JPEG
subject-06,1,341,0.793410062789917,dog,dog,c30,0340_con_s06_c30_dog_10_n02102177_3524.JPEG
subject-06,1,342,1.31593894958496,dog,bear,c100,0341_con_s06_c100_bear_10_n02134418_134.JPEG
subject-06,1,343,0.732517004013062,cat,chair,c03,0342_con_s06_c03_chair_10_n02791124_359.JPEG
subject-06,1,344,1.00767493247986,elephant,elephant,c50,0343_con_s06_c50_elephant_10_n02504458_2928.JPEG
subject-06,1,345,0.67025899887085,airplane,airplane,c50,0344_con_s06_c50_airplane_10_n02690373_17011.JPEG
subject-06,1,346,1.47006106376648,cat,cat,c100,0345_con_s06_c100_cat_10_n02123394_2227.JPEG
subject-06,1,347,0.486310005187988,bicycle,bicycle,c50,0346_con_s06_c50_bicycle_10_n02835271_9116.JPEG
subject-06,1,348,0.71666693687439,truck,truck,c50,0347_con_s06_c50_truck_10_n03796401_4079.JPEG
subject-06,1,349,0.603111028671265,clock,clock,c100,0348_con_s06_c100_clock_10_n02708093_2625.JPEG
subject-06,1,350,0.741621971130371,truck,truck,c30,0349_con_s06_c30_truck_10_n04467665_22838.JPEG
subject-06,1,351,1.01181602478027,chair,chair,c10,0350_con_s06_c10_chair_10_n02791124_1335.JPEG
subject-06,1,352,0.817814111709595,elephant,elephant,c05,0351_con_s06_c05_elephant_10_n02504013_4995.JPEG
subject-06,1,353,0.720162153244019,airplane,airplane,c15,0352_con_s06_c15_airplane_10_n02690373_9059.JPEG
subject-06,1,354,1.31808614730835,bicycle,dog,c01,0353_con_s06_c01_dog_10_n02097298_7907.JPEG
subject-06,1,355,0.588387966156006,cat,cat,c30,0354_con_s06_c30_cat_10_n02123597_1835.JPEG
subject-06,1,356,0.859127998352051,knife,bear,c01,0355_con_s06_c01_bear_10_n02133161_2226.JPEG
subject-06,1,357,0.767637014389038,car,oven,c01,0356_con_s06_c01_oven_10_n04111531_2024.JPEG
subject-06,1,358,0.544021844863892,chair,chair,c50,0357_con_s06_c50_chair_10_n03376595_2333.JPEG
subject-06,1,359,0.652703046798706,clock,clock,c30,0358_con_s06_c30_clock_10_n04548280_2018.JPEG
subject-06,1,360,0.623229026794434,clock,clock,c05,0359_con_s06_c05_clock_10_n04548280_4390.JPEG
subject-06,1,361,0.947518825531006,knife,knife,c30,0360_con_s06_c30_knife_10_n03041632_36280.JPEG
subject-06,1,362,0.836883068084717,bear,car,c01,0361_con_s06_c01_car_10_n02814533_40700.JPEG
subject-06,1,363,0.737700939178467,bird,bird,c15,0362_con_s06_c15_bird_10_n01530575_7365.JPEG
subject-06,1,364,0.845638990402222,knife,knife,c05,0363_con_s06_c05_knife_10_n03041632_4806.JPEG
subject-06,1,365,0.754456043243408,oven,bird,c03,0364_con_s06_c03_bird_10_n01820546_3311.JPEG
subject-06,1,366,0.740931987762451,keyboard,oven,c05,0365_con_s06_c05_oven_10_n04111531_9411.JPEG
subject-06,1,367,0.716658115386963,keyboard,keyboard,c50,0366_con_s06_c50_keyboard_10_n04505470_1632.JPEG
subject-06,1,368,0.824965953826904,car,bird,c03,0367_con_s06_c03_bird_10_n01828970_23627.JPEG
subject-06,1,369,0.517547130584717,keyboard,keyboard,c100,0368_con_s06_c100_keyboard_10_n04505470_4724.JPEG
subject-06,1,370,1.06348705291748,bird,oven,c100,0369_con_s06_c100_oven_10_n04111531_3702.JPEG
subject-06,1,371,1.19356203079224,oven,boat,c01,0370_con_s06_c01_boat_10_n02951358_836.JPEG
subject-06,1,372,0.655370950698853,bird,bird,c10,0371_con_s06_c10_bird_10_n02018795_5369.JPEG
subject-06,1,373,0.67788290977478,boat,bicycle,c01,0372_con_s06_c01_bicycle_10_n02835271_8596.JPEG
subject-06,1,374,0.578162908554077,airplane,airplane,c100,0373_con_s06_c100_airplane_10_n02690373_4133.JPEG
subject-06,1,375,0.610172986984253,truck,truck,c100,0374_con_s06_c100_truck_10_n04467665_48429.JPEG
subject-06,1,376,0.811020135879517,keyboard,clock,c03,0375_con_s06_c03_clock_10_n03196217_1908.JPEG
subject-06,1,377,0.804286956787109,cat,cat,c30,0376_con_s06_c30_cat_10_n02123597_7357.JPEG
subject-06,1,378,0.582113027572632,keyboard,chair,c05,0377_con_s06_c05_chair_10_n02791124_3491.JPEG
subject-06,1,379,1.50009894371033,chair,chair,c10,0378_con_s06_c10_chair_10_n03376595_6791.JPEG
subject-06,1,380,0.658498048782349,dog,dog,c50,0379_con_s06_c50_dog_10_n02096294_3899.JPEG
subject-06,1,381,0.674925804138184,chair,clock,c01,0380_con_s06_c01_clock_10_n03196217_212.JPEG
subject-06,1,382,0.521371841430664,clock,clock,c03,0381_con_s06_c03_clock_10_n02708093_564.JPEG
subject-06,1,383,0.642772912979126,cat,bird,c03,0382_con_s06_c03_bird_10_n01614925_3387.JPEG
subject-06,1,384,0.835272073745728,car,car,c15,0383_con_s06_c15_car_10_n02814533_36898.JPEG
subject-06,1,385,0.627060890197754,elephant,elephant,c50,0384_con_s06_c50_elephant_10_n02504013_2234.JPEG
subject-06,1,386,0.765466928482056,boat,keyboard,c01,0385_con_s06_c01_keyboard_10_n03085013_19547.JPEG
subject-06,1,387,0.636002063751221,car,car,c100,0386_con_s06_c100_car_10_n02814533_70322.JPEG
subject-06,1,388,0.904802083969116,truck,truck,c100,0387_con_s06_c100_truck_10_n03417042_22709.JPEG
subject-06,1,389,0.891063928604126,truck,truck,c50,0388_con_s06_c50_truck_10_n03417042_24785.JPEG
subject-06,1,390,0.629846096038818,cat,cat,c100,0389_con_s06_c100_cat_10_n02124075_9269.JPEG
subject-06,1,391,1.03538608551025,airplane,truck,c01,0390_con_s06_c01_truck_10_n03796401_5043.JPEG
subject-06,1,392,0.614353895187378,car,car,c05,0391_con_s06_c05_car_10_n02814533_93476.JPEG
subject-06,1,393,0.622764825820923,boat,boat,c100,0392_con_s06_c100_boat_10_n02951358_7254.JPEG
subject-06,1,394,0.739073991775513,car,car,c10,0393_con_s06_c10_car_10_n02814533_34713.JPEG
subject-06,1,395,0.907891988754272,cat,dog,c03,0394_con_s06_c03_dog_10_n02109961_57667.JPEG
subject-06,1,396,0.678208112716675,chair,clock,c05,0395_con_s06_c05_clock_10_n04548280_1325.JPEG
subject-06,1,397,0.933018922805786,dog,dog,c30,0396_con_s06_c30_dog_10_n02107312_6683.JPEG
subject-06,1,398,0.771322965621948,cat,cat,c03,0397_con_s06_c03_cat_10_n02123159_3251.JPEG
subject-06,1,399,0.733744144439697,boat,bird,c01,0398_con_s06_c01_bird_10_n02017213_7443.JPEG
subject-06,1,400,0.558420896530151,keyboard,keyboard,c03,0399_con_s06_c03_keyboard_10_n04505470_1186.JPEG
subject-06,1,401,0.605041980743408,car,car,c50,0400_con_s06_c50_car_10_n04285008_10278.JPEG
subject-06,1,402,0.659712076187134,boat,boat,c50,0401_con_s06_c50_boat_10_n02951358_14915.JPEG
subject-06,1,403,0.873421192169189,oven,keyboard,c15,0402_con_s06_c15_keyboard_10_n03085013_23398.JPEG
subject-06,1,404,0.697849035263062,bear,bear,c30,0403_con_s06_c30_bear_10_n02133161_12580.JPEG
subject-06,1,405,0.860865116119385,car,bottle,c03,0404_con_s06_c03_bottle_10_n03983396_4694.JPEG
subject-06,1,406,0.583163022994995,cat,cat,c03,0405_con_s06_c03_cat_10_n02123159_775.JPEG
subject-06,1,407,0.829797983169556,bottle,knife,c30,0406_con_s06_c30_knife_10_n03041632_25257.JPEG
subject-06,1,408,0.730139017105103,airplane,car,c03,0407_con_s06_c03_car_10_n02814533_71946.JPEG
subject-06,1,409,0.722727060317993,dog,dog,c03,0408_con_s06_c03_dog_10_n02109525_10332.JPEG
subject-06,1,410,0.538876056671143,airplane,airplane,c03,0409_con_s06_c03_airplane_10_n02690373_6872.JPEG
subject-06,1,411,0.794046878814697,bicycle,boat,c01,0410_con_s06_c01_boat_10_n02951358_13043.JPEG
subject-06,1,412,1.17053389549255,bear,elephant,c10,0411_con_s06_c10_elephant_10_n02504458_3094.JPEG
subject-06,1,413,0.703084945678711,truck,truck,c10,0412_con_s06_c10_truck_10_n03417042_13325.JPEG
subject-06,1,414,0.665933847427368,dog,dog,c100,0413_con_s06_c100_dog_10_n02100583_22960.JPEG
subject-06,1,415,0.855087041854858,bird,boat,c01,0414_con_s06_c01_boat_10_n04273569_9576.JPEG
subject-06,1,416,0.725543975830078,knife,keyboard,c01,0415_con_s06_c01_keyboard_10_n04505470_2828.JPEG
subject-06,1,417,0.742017984390259,airplane,airplane,c30,0416_con_s06_c30_airplane_10_n02690373_1044.JPEG
subject-06,1,418,1.50010895729065,elephant,elephant,c50,0417_con_s06_c50_elephant_10_n02504013_4438.JPEG
subject-06,1,419,0.557193994522095,cat,dog,c15,0418_con_s06_c15_dog_10_n02094433_5663.JPEG
subject-06,1,420,0.603437185287476,oven,oven,c100,0419_con_s06_c100_oven_10_n04111531_23215.JPEG
subject-06,1,421,1.15841388702393,airplane,airplane,c05,0420_con_s06_c05_airplane_10_n02690373_17262.JPEG
subject-06,1,422,0.567085027694702,car,car,c03,0421_con_s06_c03_car_10_n03100240_6827.JPEG
subject-06,1,423,0.751501798629761,oven,bird,c01,0422_con_s06_c01_bird_10_n01843383_7733.JPEG
subject-06,1,424,0.738105058670044,bottle,bottle,c03,0423_con_s06_c03_bottle_10_n03983396_4587.JPEG
subject-06,1,425,0.809202909469604,chair,car,c01,0424_con_s06_c01_car_10_n02814533_7632.JPEG
subject-06,1,426,0.59337306022644,clock,clock,c100,0425_con_s06_c100_clock_10_n04548280_5013.JPEG
subject-06,1,427,0.509858846664429,boat,boat,c15,0426_con_s06_c15_boat_10_n03662601_17714.JPEG
subject-06,1,428,0.586456060409546,bicycle,bicycle,c100,0427_con_s06_c100_bicycle_10_n02835271_20195.JPEG
subject-06,1,429,0.717008113861084,chair,chair,c100,0428_con_s06_c100_chair_10_n04429376_30823.JPEG
subject-06,1,430,0.801697969436646,keyboard,keyboard,c10,0429_con_s06_c10_keyboard_10_n04505470_1286.JPEG
subject-06,1,431,1.07989192008972,bottle,bottle,c100,0430_con_s06_c100_bottle_10_n04579145_1818.JPEG
subject-06,1,432,0.556504964828491,bicycle,bicycle,c50,0431_con_s06_c50_bicycle_10_n02835271_703.JPEG
subject-06,1,433,1.4653959274292,dog,oven,c15,0432_con_s06_c15_oven_10_n04111531_22715.JPEG
subject-06,1,434,0.641217947006226,bottle,bottle,c50,0433_con_s06_c50_bottle_10_n03937543_464.JPEG
subject-06,1,435,0.525524139404297,truck,truck,c50,0434_con_s06_c50_truck_10_n04467665_71278.JPEG
subject-06,1,436,1.41719603538513,dog,dog,c10,0435_con_s06_c10_dog_10_n02113978_1823.JPEG
subject-06,1,437,0.639240980148315,dog,dog,c100,0436_con_s06_c100_dog_10_n02111277_21487.JPEG
subject-06,1,438,0.723801136016846,bicycle,bicycle,c15,0437_con_s06_c15_bicycle_10_n03792782_16212.JPEG
subject-06,1,439,0.731791973114014,oven,boat,c03,0438_con_s06_c03_boat_10_n04612504_4660.JPEG
subject-06,1,440,0.816019058227539,cat,bear,c05,0439_con_s06_c05_bear_10_n02133161_1268.JPEG
subject-06,1,441,0.746594905853271,airplane,airplane,c05,0440_con_s06_c05_airplane_10_n02690373_6891.JPEG
subject-06,1,442,0.693228960037231,clock,clock,c50,0441_con_s06_c50_clock_10_n03196217_368.JPEG
subject-06,1,443,0.601876974105835,truck,clock,c50,0442_con_s06_c50_clock_10_n03196217_3086.JPEG
subject-06,1,444,0.856243848800659,bear,bear,c50,0443_con_s06_c50_bear_10_n02134418_5925.JPEG
subject-06,1,445,0.702935934066772,car,car,c30,0444_con_s06_c30_car_10_n04285008_5641.JPEG
subject-06,1,446,0.74909496307373,truck,truck,c15,0445_con_s06_c15_truck_10_n03796401_27514.JPEG
subject-06,1,447,0.97960901260376,car,truck,c03,0446_con_s06_c03_truck_10_n03417042_12560.JPEG
subject-06,1,448,1.02611184120178,keyboard,oven,c03,0447_con_s06_c03_oven_10_n04111531_27.JPEG
subject-06,1,449,0.804841041564941,bear,bear,c100,0448_con_s06_c100_bear_10_n02132136_17498.JPEG
subject-06,1,450,0.719055891036987,elephant,elephant,c15,0449_con_s06_c15_elephant_10_n02504013_10948.JPEG
subject-06,1,451,0.643444061279297,truck,oven,c30,0450_con_s06_c30_oven_10_n04111531_4146.JPEG
subject-06,1,452,0.890332937240601,cat,dog,c10,0451_con_s06_c10_dog_10_n02107312_7495.JPEG
subject-06,1,453,NaN,na,elephant,c30,0452_con_s06_c30_elephant_10_n02504458_716.JPEG
subject-06,1,454,0.553568840026855,bicycle,bicycle,c30,0453_con_s06_c30_bicycle_10_n03792782_6504.JPEG
subject-06,1,455,0.613214015960693,truck,truck,c30,0454_con_s06_c30_truck_10_n03417042_8891.JPEG
subject-06,1,456,NaN,na,chair,c01,0455_con_s06_c01_chair_10_n02791124_974.JPEG
subject-06,1,457,0.75261402130127,cat,dog,c05,0456_con_s06_c05_dog_10_n02097209_5245.JPEG
subject-06,1,458,1.27392101287842,car,truck,c05,0457_con_s06_c05_truck_10_n03417042_7633.JPEG
subject-06,1,459,0.743911027908325,keyboard,keyboard,c05,0458_con_s06_c05_keyboard_10_n04505470_4202.JPEG
subject-06,1,460,0.828442096710205,airplane,airplane,c03,0459_con_s06_c03_airplane_10_n02690373_15392.JPEG
subject-06,1,461,0.736849069595337,clock,clock,c50,0460_con_s06_c50_clock_10_n04548280_22406.JPEG
subject-06,1,462,0.751657962799072,bear,bear,c50,0461_con_s06_c50_bear_10_n02132136_7206.JPEG
subject-06,1,463,1.06005501747131,knife,keyboard,c01,0462_con_s06_c01_keyboard_10_n04505470_4827.JPEG
subject-06,1,464,0.852560997009277,chair,chair,c15,0463_con_s06_c15_chair_10_n04429376_18590.JPEG
subject-06,1,465,1.20651817321777,clock,truck,c01,0464_con_s06_c01_truck_10_n03417042_6187.JPEG
subject-06,1,466,0.745134830474854,oven,oven,c50,0465_con_s06_c50_oven_10_n04111531_505.JPEG
subject-06,1,467,0.732722043991089,car,car,c30,0466_con_s06_c30_car_10_n02814533_2754.JPEG
subject-06,1,468,0.649274110794067,chair,chair,c30,0467_con_s06_c30_chair_10_n03376595_14970.JPEG
subject-06,1,469,0.688598871231079,bird,bird,c100,0468_con_s06_c100_bird_10_n01824575_548.JPEG
subject-06,1,470,1.08907389640808,bird,cat,c05,0469_con_s06_c05_cat_10_n02123159_6721.JPEG
subject-06,1,471,0.597557067871094,knife,knife,c50,0470_con_s06_c50_knife_10_n03041632_9963.JPEG
subject-06,1,472,0.597452878952026,elephant,elephant,c100,0471_con_s06_c100_elephant_10_n02504458_7033.JPEG
subject-06,1,473,NaN,na,truck,c15,0472_con_s06_c15_truck_10_n03417042_12936.JPEG
subject-06,1,474,0.920631885528564,keyboard,keyboard,c30,0473_con_s06_c30_keyboard_10_n03085013_2061.JPEG
subject-06,1,475,0.991255044937134,dog,chair,c03,0474_con_s06_c03_chair_10_n03376595_6652.JPEG
subject-06,1,476,0.683723211288452,bear,bear,c15,0475_con_s06_c15_bear_10_n02134084_6992.JPEG
subject-06,1,477,0.813893795013428,truck,truck,c100,0476_con_s06_c100_truck_10_n03417042_13806.JPEG
subject-06,1,478,0.81675910949707,bear,elephant,c30,0477_con_s06_c30_elephant_10_n02504013_18036.JPEG
subject-06,1,479,0.763245105743408,bottle,bottle,c15,0478_con_s06_c15_bottle_10_n04579145_2485.JPEG
subject-06,1,480,0.747740983963013,cat,cat,c30,0479_con_s06_c30_cat_10_n02123159_10200.JPEG
subject-06,1,481,1.14013886451721,elephant,elephant,c05,0480_con_s06_c05_elephant_10_n02504458_4163.JPEG
subject-06,1,482,0.986306190490723,keyboard,keyboard,c10,0481_con_s06_c10_keyboard_10_n03085013_20914.JPEG
subject-06,1,483,1.00866508483887,clock,knife,c50,0482_con_s06_c50_knife_10_n03041632_31632.JPEG
subject-06,1,484,0.90867280960083,bear,elephant,c15,0483_con_s06_c15_elephant_10_n02504013_11135.JPEG
subject-06,1,485,0.810604095458984,airplane,airplane,c15,0484_con_s06_c15_airplane_10_n02690373_4042.JPEG
subject-06,1,486,0.625582933425903,boat,boat,c30,0485_con_s06_c30_boat_10_n04273569_113.JPEG
subject-06,1,487,0.833599090576172,boat,boat,c100,0486_con_s06_c100_boat_10_n02951358_29666.JPEG
subject-06,1,488,0.771405935287476,airplane,boat,c05,0487_con_s06_c05_boat_10_n03662601_2962.JPEG
subject-06,1,489,0.755919933319092,oven,oven,c100,0488_con_s06_c100_oven_10_n04111531_11279.JPEG
subject-06,1,490,0.745625019073486,bottle,clock,c01,0489_con_s06_c01_clock_10_n03196217_6891.JPEG
subject-06,1,491,NaN,na,keyboard,c01,0490_con_s06_c01_keyboard_10_n03085013_19818.JPEG
subject-06,1,492,0.846554040908813,bear,knife,c05,0491_con_s06_c05_knife_10_n03041632_30602.JPEG
subject-06,1,493,0.76301097869873,bird,cat,c03,0492_con_s06_c03_cat_10_n02124075_13475.JPEG
subject-06,1,494,0.801651954650879,dog,elephant,c01,0493_con_s06_c01_elephant_10_n02504013_11144.JPEG
subject-06,1,495,1.39382410049438,bicycle,bicycle,c10,0494_con_s06_c10_bicycle_10_n02835271_4138.JPEG
subject-06,1,496,0.577797889709473,boat,boat,c15,0495_con_s06_c15_boat_10_n04273569_4418.JPEG
subject-06,1,497,0.600125074386597,bird,bird,c10,0496_con_s06_c10_bird_10_n02002724_5358.JPEG
subject-06,1,498,0.64692497253418,bicycle,bicycle,c100,0497_con_s06_c100_bicycle_10_n02835271_12123.JPEG
subject-06,1,499,1.33106994628906,cat,clock,c01,0498_con_s06_c01_clock_10_n04548280_5337.JPEG
subject-06,1,500,0.671838998794556,oven,bird,c03,0499_con_s06_c03_bird_10_n01829413_7089.JPEG
subject-06,1,501,1.21028184890747,dog,dog,c30,0500_con_s06_c30_dog_10_n02113624_4112.JPEG
subject-06,1,502,0.664742946624756,bear,bear,c100,0501_con_s06_c100_bear_10_n02133161_444.JPEG
subject-06,1,503,0.64907693862915,clock,clock,c30,0502_con_s06_c30_clock_10_n03196217_2488.JPEG
subject-06,1,504,0.557677984237671,bottle,bottle,c30,0503_con_s06_c30_bottle_10_n04579145_2891.JPEG
subject-06,1,505,0.713635206222534,keyboard,bottle,c01,0504_con_s06_c01_bottle_10_n04591713_6761.JPEG
subject-06,1,506,0.838233947753906,car,car,c15,0505_con_s06_c15_car_10_n03100240_8901.JPEG
subject-06,1,507,0.552361965179443,cat,cat,c15,0506_con_s06_c15_cat_10_n02124075_11529.JPEG
subject-06,1,508,0.606827974319458,knife,knife,c15,0507_con_s06_c15_knife_10_n03041632_45312.JPEG
subject-06,1,509,0.668693780899048,boat,knife,c01,0508_con_s06_c01_knife_10_n03041632_52929.JPEG
subject-06,1,510,0.469835042953491,bird,elephant,c10,0509_con_s06_c10_elephant_10_n02504013_3757.JPEG
subject-06,1,511,0.494220972061157,airplane,airplane,c30,0510_con_s06_c30_airplane_10_n02690373_4992.JPEG
subject-06,1,512,0.632582187652588,clock,clock,c05,0511_con_s06_c05_clock_10_n04548280_1960.JPEG
subject-06,1,513,0.640881061553955,knife,knife,c05,0512_con_s06_c05_knife_10_n03041632_55083.JPEG
subject-06,1,514,1.09532809257507,airplane,bear,c05,0513_con_s06_c05_bear_10_n02134084_10839.JPEG
subject-06,1,515,0.64195990562439,cat,knife,c01,0514_con_s06_c01_knife_10_n03041632_86783.JPEG
subject-06,1,516,0.687448978424072,dog,bear,c15,0515_con_s06_c15_bear_10_n02134084_15016.JPEG
subject-06,1,517,0.750313997268677,truck,truck,c05,0516_con_s06_c05_truck_10_n04467665_53416.JPEG
subject-06,1,518,0.61249303817749,cat,cat,c15,0517_con_s06_c15_cat_10_n02123597_13616.JPEG
subject-06,1,519,0.811229944229126,car,keyboard,c05,0518_con_s06_c05_keyboard_10_n03085013_92.JPEG
subject-06,1,520,0.559141874313354,clock,clock,c30,0519_con_s06_c30_clock_10_n03196217_1430.JPEG
subject-06,1,521,0.619019031524658,cat,cat,c05,0520_con_s06_c05_cat_10_n02123159_5441.JPEG
subject-06,1,522,0.627831935882568,elephant,elephant,c05,0521_con_s06_c05_elephant_10_n02504458_3140.JPEG
subject-06,1,523,0.498611927032471,car,car,c100,0522_con_s06_c100_car_10_n04285008_6313.JPEG
subject-06,1,524,0.507826089859009,clock,clock,c15,0523_con_s06_c15_clock_10_n02708093_2742.JPEG
subject-06,1,525,0.519599914550781,truck,truck,c50,0524_con_s06_c50_truck_10_n03417042_8374.JPEG
subject-06,1,526,0.679596900939941,boat,bird,c01,0525_con_s06_c01_bird_10_n02027492_3150.JPEG
subject-06,1,527,0.558526992797852,bicycle,bicycle,c100,0526_con_s06_c100_bicycle_10_n02835271_8531.JPEG
subject-06,1,528,0.459357023239136,bottle,bottle,c100,0527_con_s06_c100_bottle_10_n03983396_12225.JPEG
subject-06,1,529,NaN,na,dog,c10,0528_con_s06_c10_dog_10_n02107574_5240.JPEG
subject-06,1,530,0.892909049987793,bottle,bottle,c30,0529_con_s06_c30_bottle_10_n03937543_3294.JPEG
subject-06,1,531,0.539150953292847,chair,chair,c15,0530_con_s06_c15_chair_10_n03376595_13364.JPEG
subject-06,1,532,0.631011009216309,oven,oven,c10,0531_con_s06_c10_oven_10_n04111531_9688.JPEG
subject-06,1,533,0.607479095458984,boat,boat,c30,0532_con_s06_c30_boat_10_n04273569_24927.JPEG
subject-06,1,534,0.40248703956604,cat,cat,c100,0533_con_s06_c100_cat_10_n02124075_2476.JPEG
subject-06,1,535,1.07914805412292,bird,bear,c03,0534_con_s06_c03_bear_10_n02134418_5594.JPEG
subject-06,1,536,0.80129599571228,oven,oven,c03,0535_con_s06_c03_oven_10_n04111531_4665.JPEG
subject-06,1,537,0.647638082504272,dog,dog,c15,0536_con_s06_c15_dog_10_n02091831_4859.JPEG
subject-06,1,538,0.448243856430054,clock,clock,c100,0537_con_s06_c100_clock_10_n03196217_2853.JPEG
subject-06,1,539,0.580358982086182,boat,boat,c100,0538_con_s06_c100_boat_10_n04612504_10799.JPEG
subject-06,1,540,0.672960996627808,keyboard,airplane,c05,0539_con_s06_c05_airplane_10_n02690373_5056.JPEG
subject-06,1,541,0.533124923706055,clock,clock,c100,0540_con_s06_c100_clock_10_n04548280_10459.JPEG
subject-06,1,542,0.771546840667725,truck,truck,c50,0541_con_s06_c50_truck_10_n03417042_16389.JPEG
subject-06,1,543,0.533176183700562,clock,clock,c50,0542_con_s06_c50_clock_10_n03196217_10677.JPEG
subject-06,1,544,0.77118706703186,elephant,elephant,c15,0543_con_s06_c15_elephant_10_n02504013_15219.JPEG
subject-06,1,545,0.647420883178711,car,car,c10,0544_con_s06_c10_car_10_n04285008_16705.JPEG
subject-06,1,546,0.606913089752197,clock,bottle,c01,0545_con_s06_c01_bottle_10_n04557648_1938.JPEG
subject-06,1,547,0.660674095153809,boat,boat,c03,0546_con_s06_c03_boat_10_n03662601_8709.JPEG
subject-06,1,548,0.66116189956665,boat,boat,c10,0547_con_s06_c10_boat_10_n03662601_15998.JPEG
subject-06,1,549,0.96772289276123,bicycle,bicycle,c30,0548_con_s06_c30_bicycle_10_n03792782_19590.JPEG
subject-06,1,550,0.600471973419189,oven,oven,c10,0549_con_s06_c10_oven_10_n04111531_9113.JPEG
subject-06,1,551,0.514165163040161,bottle,bottle,c100,0550_con_s06_c100_bottle_10_n04560804_7460.JPEG
subject-06,1,552,0.630498886108398,knife,knife,c100,0551_con_s06_c100_knife_10_n03041632_45775.JPEG
subject-06,1,553,1.12268400192261,bird,knife,c03,0552_con_s06_c03_knife_10_n03041632_25603.JPEG
subject-06,1,554,0.753489971160889,bird,bird,c30,0553_con_s06_c30_bird_10_n02033041_4448.JPEG
subject-06,1,555,0.869656085968018,bear,bear,c30,0554_con_s06_c30_bear_10_n02134084_3542.JPEG
subject-06,1,556,0.846341133117676,cat,dog,c15,0555_con_s06_c15_dog_10_n02097474_17050.JPEG
subject-06,1,557,0.799579858779907,car,bear,c03,0556_con_s06_c03_bear_10_n02132136_3759.JPEG
subject-06,1,558,0.753789186477661,airplane,oven,c01,0557_con_s06_c01_oven_10_n04111531_21011.JPEG
subject-06,1,559,0.76850700378418,chair,knife,c01,0558_con_s06_c01_knife_10_n03041632_24113.JPEG
subject-06,1,560,1.03060102462769,bottle,knife,c03,0559_con_s06_c03_knife_10_n03041632_29338.JPEG
subject-06,1,561,0.739511966705322,cat,keyboard,c30,0560_con_s06_c30_keyboard_10_n03085013_1200.JPEG
subject-06,1,562,0.845583915710449,airplane,bear,c01,0561_con_s06_c01_bear_10_n02132136_14166.JPEG
subject-06,1,563,0.607286930084229,bottle,bottle,c10,0562_con_s06_c10_bottle_10_n04560804_685.JPEG
subject-06,1,564,0.630050897598267,truck,truck,c30,0563_con_s06_c30_truck_10_n04467665_7180.JPEG
subject-06,1,565,0.584775924682617,bicycle,bicycle,c03,0564_con_s06_c03_bicycle_10_n02835271_20104.JPEG
subject-06,1,566,0.630037069320679,bottle,clock,c50,0565_con_s06_c50_clock_10_n02708093_7081.JPEG
subject-06,1,567,0.728228092193604,dog,dog,c50,0566_con_s06_c50_dog_10_n02105251_1952.JPEG
subject-06,1,568,0.636652946472168,boat,bear,c03,0567_con_s06_c03_bear_10_n02134084_19407.JPEG
subject-06,1,569,0.574462890625,bicycle,bicycle,c30,0568_con_s06_c30_bicycle_10_n03792782_9156.JPEG
subject-06,1,570,1.28072595596313,clock,knife,c03,0569_con_s06_c03_knife_10_n03041632_11887.JPEG
subject-06,1,571,NaN,na,airplane,c10,0570_con_s06_c10_airplane_10_n02690373_6853.JPEG
subject-06,1,572,1.26512289047241,dog,dog,c15,0571_con_s06_c15_dog_10_n02097209_1054.JPEG
subject-06,1,573,1.44373893737793,bottle,car,c03,0572_con_s06_c03_car_10_n03100240_16727.JPEG
subject-06,1,574,1.11216998100281,elephant,elephant,c30,0573_con_s06_c30_elephant_10_n02504013_459.JPEG
subject-06,1,575,0.958647012710571,knife,knife,c10,0574_con_s06_c10_knife_10_n03041632_13108.JPEG
subject-06,1,576,1.20517683029175,airplane,airplane,c15,0575_con_s06_c15_airplane_10_n02690373_3263.JPEG
subject-06,1,577,0.775700092315674,elephant,elephant,c30,0576_con_s06_c30_elephant_10_n02504458_4708.JPEG
subject-06,1,578,0.522099018096924,truck,truck,c50,0577_con_s06_c50_truck_10_n04467665_57786.JPEG
subject-06,1,579,1.10685706138611,bicycle,car,c01,0578_con_s06_c01_car_10_n02814533_4446.JPEG
subject-06,1,580,0.907642126083374,knife,knife,c50,0579_con_s06_c50_knife_10_n03041632_31483.JPEG
subject-06,1,581,0.570180892944336,chair,chair,c30,0580_con_s06_c30_chair_10_n02791124_6936.JPEG
subject-06,1,582,0.96310019493103,car,car,c01,0581_con_s06_c01_car_10_n04285008_11411.JPEG
subject-06,1,583,0.895529985427856,car,car,c05,0582_con_s06_c05_car_10_n03100240_1140.JPEG
subject-06,1,584,0.687955141067505,chair,clock,c15,0583_con_s06_c15_clock_10_n04548280_9340.JPEG
subject-06,1,585,0.87218189239502,keyboard,elephant,c01,0584_con_s06_c01_elephant_10_n02504013_4386.JPEG
subject-06,1,586,0.596773862838745,bottle,bottle,c50,0585_con_s06_c50_bottle_10_n04557648_3308.JPEG
subject-06,1,587,0.727417230606079,airplane,airplane,c05,0586_con_s06_c05_airplane_10_n02690373_7971.JPEG
subject-06,1,588,0.758025169372559,dog,dog,c15,0587_con_s06_c15_dog_10_n02108551_835.JPEG
subject-06,1,589,0.796314001083374,boat,boat,c50,0588_con_s06_c50_boat_10_n03344393_4380.JPEG
subject-06,1,590,0.62089204788208,keyboard,clock,c10,0589_con_s06_c10_clock_10_n03196217_72.JPEG
subject-06,1,591,0.559539079666138,car,car,c15,0590_con_s06_c15_car_10_n04285008_15284.JPEG
subject-06,1,592,0.513957023620605,chair,chair,c100,0591_con_s06_c100_chair_10_n02791124_7467.JPEG
subject-06,1,593,0.868468999862671,airplane,airplane,c50,0592_con_s06_c50_airplane_10_n02690373_3408.JPEG
subject-06,1,594,0.96915602684021,keyboard,keyboard,c05,0593_con_s06_c05_keyboard_10_n03085013_22996.JPEG
subject-06,1,595,1.01574993133545,clock,boat,c05,0594_con_s06_c05_boat_10_n03344393_3163.JPEG
subject-06,1,596,0.954050064086914,truck,truck,c100,0595_con_s06_c100_truck_10_n04467665_33667.JPEG
subject-06,1,597,0.738564014434814,airplane,airplane,c30,0596_con_s06_c30_airplane_10_n02690373_4608.JPEG
subject-06,1,598,0.884247064590454,keyboard,keyboard,c03,0597_con_s06_c03_keyboard_10_n03085013_24061.JPEG
subject-06,1,599,0.859807968139648,airplane,airplane,c03,0598_con_s06_c03_airplane_10_n02690373_4465.JPEG
subject-06,1,600,1.42057776451111,knife,knife,c100,0599_con_s06_c100_knife_10_n03041632_43436.JPEG
subject-06,1,601,0.603020906448364,keyboard,keyboard,c50,0600_con_s06_c50_keyboard_10_n04505470_524.JPEG
subject-06,1,602,1.00467300415039,cat,bird,c10,0601_con_s06_c10_bird_10_n01622779_2484.JPEG
subject-06,1,603,1.09674882888794,car,car,c05,0602_con_s06_c05_car_10_n03100240_961.JPEG
subject-06,1,604,1.09687995910645,oven,oven,c50,0603_con_s06_c50_oven_10_n04111531_22291.JPEG
subject-06,1,605,1.43248295783997,airplane,dog,c01,0604_con_s06_c01_dog_10_n02110063_15303.JPEG
subject-06,1,606,0.924916982650757,keyboard,bottle,c03,0605_con_s06_c03_bottle_10_n03937543_10543.JPEG
subject-06,1,607,1.24200201034546,chair,knife,c01,0606_con_s06_c01_knife_10_n03041632_52371.JPEG
subject-06,1,608,0.879777193069458,bottle,cat,c01,0607_con_s06_c01_cat_10_n02123159_1011.JPEG
subject-06,1,609,0.779989957809448,bird,bird,c100,0608_con_s06_c100_bird_10_n02027492_10286.JPEG
subject-06,1,610,0.956879138946533,bird,bird,c15,0609_con_s06_c15_bird_10_n01860187_4267.JPEG
subject-06,1,611,1.36534905433655,car,car,c30,0610_con_s06_c30_car_10_n04285008_13267.JPEG
subject-06,1,612,0.565860033035278,clock,clock,c15,0611_con_s06_c15_clock_10_n02708093_386.JPEG
subject-06,1,613,0.771656036376953,bicycle,bicycle,c100,0612_con_s06_c100_bicycle_10_n02835271_20657.JPEG
subject-06,1,614,0.618051052093506,keyboard,keyboard,c100,0613_con_s06_c100_keyboard_10_n04505470_5127.JPEG
subject-06,1,615,0.650928974151611,chair,chair,c100,0614_con_s06_c100_chair_10_n02791124_16010.JPEG
subject-06,1,616,0.89731502532959,car,cat,c01,0615_con_s06_c01_cat_10_n02123394_3152.JPEG
subject-06,1,617,0.773695945739746,elephant,elephant,c50,0616_con_s06_c50_elephant_10_n02504458_3432.JPEG
subject-06,1,618,0.798808097839355,clock,elephant,c03,0617_con_s06_c03_elephant_10_n02504013_1338.JPEG
subject-06,1,619,0.828811168670654,car,truck,c05,0618_con_s06_c05_truck_10_n03796401_21949.JPEG
subject-06,1,620,0.661271095275879,clock,clock,c50,0619_con_s06_c50_clock_10_n03196217_2179.JPEG
subject-06,1,621,0.713836908340454,bear,bear,c50,0620_con_s06_c50_bear_10_n02132136_17756.JPEG
subject-06,1,622,0.576184988021851,cat,cat,c05,0621_con_s06_c05_cat_10_n02123394_6265.JPEG
subject-06,1,623,1.50020003318787,clock,chair,c03,0622_con_s06_c03_chair_10_n04429376_20941.JPEG
subject-06,1,624,1.2201521396637,oven,bicycle,c01,0623_con_s06_c01_bicycle_10_n03792782_11342.JPEG
subject-06,1,625,1.27451586723328,bear,bicycle,c05,0624_con_s06_c05_bicycle_10_n03792782_10179.JPEG
subject-06,1,626,0.85940408706665,bird,knife,c05,0625_con_s06_c05_knife_10_n03041632_9759.JPEG
subject-06,1,627,0.533596992492676,bicycle,bicycle,c05,0626_con_s06_c05_bicycle_10_n03792782_7299.JPEG
subject-06,1,628,0.483585834503174,bottle,bottle,c50,0627_con_s06_c50_bottle_10_n04579145_6348.JPEG
subject-06,1,629,0.60592794418335,keyboard,keyboard,c100,0628_con_s06_c100_keyboard_10_n04505470_5266.JPEG
subject-06,1,630,0.774357080459595,car,truck,c03,0629_con_s06_c03_truck_10_n03796401_1082.JPEG
subject-06,1,631,0.920888185501099,chair,truck,c15,0630_con_s06_c15_truck_10_n03796401_7179.JPEG
subject-06,1,632,0.842164993286133,knife,knife,c100,0631_con_s06_c100_knife_10_n03041632_12537.JPEG
subject-06,1,633,0.734477996826172,car,car,c15,0632_con_s06_c15_car_10_n03100240_7715.JPEG
subject-06,1,634,0.748066902160645,boat,boat,c100,0633_con_s06_c100_boat_10_n04273569_15735.JPEG
subject-06,1,635,0.724713087081909,chair,chair,c10,0634_con_s06_c10_chair_10_n02791124_5617.JPEG
subject-06,1,636,0.694953203201294,cat,bottle,c05,0635_con_s06_c05_bottle_10_n02823428_12139.JPEG
subject-06,1,637,0.825007915496826,boat,boat,c05,0636_con_s06_c05_boat_10_n04612504_30742.JPEG
subject-06,1,638,0.608355045318604,keyboard,keyboard,c15,0637_con_s06_c15_keyboard_10_n03085013_23810.JPEG
subject-06,1,639,0.676878929138184,bicycle,bicycle,c50,0638_con_s06_c50_bicycle_10_n02835271_6055.JPEG
subject-06,1,640,1.06941103935242,cat,chair,c03,0639_con_s06_c03_chair_10_n03376595_10838.JPEG
subject-06,1,641,0.782306909561157,chair,chair,c10,0640_con_s06_c10_chair_10_n04099969_1775.JPEG
subject-06,1,642,0.690663814544678,car,knife,c01,0641_con_s06_c01_knife_10_n03041632_56217.JPEG
subject-06,1,643,0.629252910614014,clock,truck,c03,0642_con_s06_c03_truck_10_n04467665_69087.JPEG
subject-06,1,644,0.529636859893799,boat,cat,c03,0643_con_s06_c03_cat_10_n02123159_3034.JPEG
subject-06,1,645,0.624568939208984,bicycle,bicycle,c10,0644_con_s06_c10_bicycle_10_n03792782_6083.JPEG
subject-06,1,646,0.923260927200317,airplane,cat,c01,0645_con_s06_c01_cat_10_n02123159_6997.JPEG
subject-06,1,647,0.539252996444702,bird,bird,c50,0646_con_s06_c50_bird_10_n01817953_5998.JPEG
subject-06,1,648,0.7309730052948,bottle,bottle,c15,0647_con_s06_c15_bottle_10_n03983396_4948.JPEG
subject-06,1,649,0.861474990844727,car,car,c15,0648_con_s06_c15_car_10_n04285008_7811.JPEG
subject-06,1,650,0.653308153152466,cat,cat,c15,0649_con_s06_c15_cat_10_n02123159_5270.JPEG
subject-06,1,651,0.653539180755615,chair,chair,c30,0650_con_s06_c30_chair_10_n02791124_8940.JPEG
subject-06,1,652,0.608208179473877,airplane,airplane,c30,0651_con_s06_c30_airplane_10_n02690373_5015.JPEG
subject-06,1,653,0.746789932250977,bird,bird,c30,0652_con_s06_c30_bird_10_n01592084_4779.JPEG
subject-06,1,654,1.36038303375244,elephant,elephant,c30,0653_con_s06_c30_elephant_10_n02504458_4711.JPEG
subject-06,1,655,0.760699987411499,car,car,c10,0654_con_s06_c10_car_10_n03100240_5406.JPEG
subject-06,1,656,0.477312803268433,cat,cat,c50,0655_con_s06_c50_cat_10_n02123394_474.JPEG
subject-06,1,657,0.532005071640015,oven,oven,c50,0656_con_s06_c50_oven_10_n04111531_13691.JPEG
subject-06,1,658,0.591572999954224,oven,oven,c50,0657_con_s06_c50_oven_10_n04111531_9304.JPEG
subject-06,1,659,0.783380031585693,boat,dog,c30,0658_con_s06_c30_dog_10_n02099849_975.JPEG
subject-06,1,660,0.675910949707031,bear,bear,c100,0659_con_s06_c100_bear_10_n02134418_3415.JPEG
subject-06,1,661,0.660549879074097,car,car,c30,0660_con_s06_c30_car_10_n03100240_3244.JPEG
subject-06,1,662,0.531055927276611,chair,chair,c15,0661_con_s06_c15_chair_10_n04099969_1163.JPEG
subject-06,1,663,0.539429903030396,bottle,bottle,c100,0662_con_s06_c100_bottle_10_n03983396_4605.JPEG
subject-06,1,664,0.570165157318115,bottle,bottle,c30,0663_con_s06_c30_bottle_10_n02823428_10612.JPEG
subject-06,1,665,0.740664005279541,bottle,oven,c30,0664_con_s06_c30_oven_10_n04111531_11669.JPEG
subject-06,1,666,0.985245943069458,bird,knife,c50,0665_con_s06_c50_knife_10_n03041632_21345.JPEG
subject-06,1,667,0.887767791748047,bird,bird,c05,0666_con_s06_c05_bird_10_n01616318_6647.JPEG
subject-06,1,668,0.634316921234131,oven,elephant,c100,0667_con_s06_c100_elephant_10_n02504458_5457.JPEG
subject-06,1,669,0.648183822631836,car,car,c03,0668_con_s06_c03_car_10_n02814533_83588.JPEG
subject-06,1,670,1.01868391036987,truck,truck,c100,0669_con_s06_c100_truck_10_n03417042_5886.JPEG
subject-06,1,671,1.07350707054138,bird,bear,c15,0670_con_s06_c15_bear_10_n02133161_3090.JPEG
subject-06,1,672,0.711781978607178,clock,keyboard,c01,0671_con_s06_c01_keyboard_10_n04505470_4971.JPEG
subject-06,1,673,0.612697124481201,keyboard,keyboard,c30,0672_con_s06_c30_keyboard_10_n03085013_23635.JPEG
subject-06,1,674,0.821088075637817,keyboard,keyboard,c10,0673_con_s06_c10_keyboard_10_n04505470_1043.JPEG
subject-06,1,675,0.751878976821899,chair,chair,c50,0674_con_s06_c50_chair_10_n02791124_3817.JPEG
subject-06,1,676,0.71428108215332,boat,bicycle,c03,0675_con_s06_c03_bicycle_10_n03792782_8725.JPEG
subject-06,1,677,0.538625001907349,cat,boat,c05,0676_con_s06_c05_boat_10_n04612504_16137.JPEG
subject-06,1,678,0.552596092224121,bird,cat,c15,0677_con_s06_c15_cat_10_n02123597_8846.JPEG
subject-06,1,679,0.582453012466431,boat,boat,c15,0678_con_s06_c15_boat_10_n02951358_4479.JPEG
subject-06,1,680,0.582160949707031,airplane,airplane,c05,0679_con_s06_c05_airplane_10_n02690373_6491.JPEG
subject-06,1,681,1.08286118507385,knife,knife,c10,0680_con_s06_c10_knife_10_n03041632_38996.JPEG
subject-06,1,682,0.613136053085327,airplane,truck,c05,0681_con_s06_c05_truck_10_n04467665_34811.JPEG
subject-06,1,683,0.667297124862671,cat,cat,c10,0682_con_s06_c10_cat_10_n02123159_3534.JPEG
subject-06,1,684,0.65179705619812,boat,boat,c15,0683_con_s06_c15_boat_10_n03344393_661.JPEG
subject-06,1,685,0.714421033859253,clock,truck,c01,0684_con_s06_c01_truck_10_n03417042_3390.JPEG
subject-06,1,686,0.99088716506958,dog,dog,c15,0685_con_s06_c15_dog_10_n02093991_2944.JPEG
subject-06,1,687,0.729590892791748,keyboard,keyboard,c05,0686_con_s06_c05_keyboard_10_n04505470_4843.JPEG
subject-06,1,688,0.738429069519043,knife,knife,c15,0687_con_s06_c15_knife_10_n03041632_46422.JPEG
subject-06,1,689,0.778915166854858,cat,airplane,c03,0688_con_s06_c03_airplane_10_n02690373_19733.JPEG
subject-06,1,690,0.563709020614624,boat,truck,c01,0689_con_s06_c01_truck_10_n03796401_5113.JPEG
subject-06,1,691,0.547717809677124,airplane,airplane,c30,0690_con_s06_c30_airplane_10_n02690373_7489.JPEG
subject-06,1,692,1.34030199050903,dog,dog,c50,0691_con_s06_c50_dog_10_n02102177_3468.JPEG
subject-06,1,693,1.05665802955627,bird,airplane,c01,0692_con_s06_c01_airplane_10_n02690373_3709.JPEG
subject-06,1,694,0.549293041229248,chair,chair,c30,0693_con_s06_c30_chair_10_n03376595_678.JPEG
subject-06,1,695,0.557461023330688,clock,clock,c100,0694_con_s06_c100_clock_10_n03196217_813.JPEG
subject-06,1,696,0.718341827392578,dog,dog,c50,0695_con_s06_c50_dog_10_n02091467_4427.JPEG
subject-06,1,697,1.02651715278625,dog,dog,c30,0696_con_s06_c30_dog_10_n02110806_4152.JPEG
subject-06,1,698,0.718363046646118,keyboard,chair,c15,0697_con_s06_c15_chair_10_n04429376_6390.JPEG
subject-06,1,699,0.740992784500122,airplane,bottle,c03,0698_con_s06_c03_bottle_10_n04560804_28265.JPEG
subject-06,1,700,0.571590900421143,boat,knife,c01,0699_con_s06_c01_knife_10_n03041632_81630.JPEG
subject-06,1,701,0.795903921127319,car,car,c50,0700_con_s06_c50_car_10_n03100240_12906.JPEG
subject-06,1,702,1.02635788917542,airplane,keyboard,c15,0701_con_s06_c15_keyboard_10_n04505470_9473.JPEG
subject-06,1,703,0.634227991104126,bicycle,bicycle,c30,0702_con_s06_c30_bicycle_10_n02835271_13674.JPEG
subject-06,1,704,0.794877052307129,elephant,elephant,c10,0703_con_s06_c10_elephant_10_n02504458_7200.JPEG
subject-06,1,705,1.43347096443176,bear,oven,c30,0704_con_s06_c30_oven_10_n04111531_21248.JPEG
subject-06,1,706,0.750099897384644,bird,bird,c10,0705_con_s06_c10_bird_10_n02007558_6172.JPEG
subject-06,1,707,0.688574075698853,clock,bicycle,c01,0706_con_s06_c01_bicycle_10_n03792782_7696.JPEG
subject-06,1,708,0.605127811431885,airplane,airplane,c15,0707_con_s06_c15_airplane_10_n02690373_1732.JPEG
subject-06,1,709,0.689963817596436,oven,bottle,c05,0708_con_s06_c05_bottle_10_n02823428_3295.JPEG
subject-06,1,710,1.10656118392944,oven,cat,c03,0709_con_s06_c03_cat_10_n02123394_4845.JPEG
subject-06,1,711,0.630824089050293,boat,car,c01,0710_con_s06_c01_car_10_n02814533_7769.JPEG
subject-06,1,712,0.531477928161621,bicycle,bicycle,c05,0711_con_s06_c05_bicycle_10_n02835271_2525.JPEG
subject-06,1,713,0.837814807891846,bicycle,knife,c03,0712_con_s06_c03_knife_10_n03041632_20433.JPEG
subject-06,1,714,0.676174879074097,airplane,car,c01,0713_con_s06_c01_car_10_n02814533_84139.JPEG
subject-06,1,715,0.616522073745728,bottle,bottle,c15,0714_con_s06_c15_bottle_10_n04591713_4506.JPEG
subject-06,1,716,1.4071409702301,knife,knife,c30,0715_con_s06_c30_knife_10_n03041632_85416.JPEG
subject-06,1,717,0.609472036361694,cat,elephant,c05,0716_con_s06_c05_elephant_10_n02504458_1338.JPEG
subject-06,1,718,0.724462032318115,bird,bird,c15,0717_con_s06_c15_bird_10_n01601694_13680.JPEG
subject-06,1,719,0.724831104278564,keyboard,bear,c05,0718_con_s06_c05_bear_10_n02132136_6266.JPEG
subject-06,1,720,0.857720851898193,keyboard,oven,c05,0719_con_s06_c05_oven_10_n04111531_7097.JPEG
subject-06,1,721,0.626368045806885,bottle,bottle,c10,0720_con_s06_c10_bottle_10_n04560804_2507.JPEG
subject-06,1,722,0.566717147827148,bird,bird,c15,0721_con_s06_c15_bird_10_n02009912_3999.JPEG
subject-06,1,723,0.629564046859741,boat,truck,c01,0722_con_s06_c01_truck_10_n04467665_35170.JPEG
subject-06,1,724,0.435582160949707,clock,clock,c10,0723_con_s06_c10_clock_10_n02708093_5803.JPEG
subject-06,1,725,0.860076904296875,clock,clock,c10,0724_con_s06_c10_clock_10_n02708093_6657.JPEG
subject-06,1,726,0.582329034805298,cat,knife,c03,0725_con_s06_c03_knife_10_n03041632_33584.JPEG
subject-06,1,727,0.567050933837891,oven,cat,c05,0726_con_s06_c05_cat_10_n02123394_1879.JPEG
subject-06,1,728,0.68359899520874,bird,bird,c50,0727_con_s06_c50_bird_10_n01537544_1417.JPEG
subject-06,1,729,0.591845035552979,keyboard,keyboard,c15,0728_con_s06_c15_keyboard_10_n04505470_4521.JPEG
subject-06,1,730,0.599570989608765,boat,boat,c30,0729_con_s06_c30_boat_10_n04273569_3805.JPEG
subject-06,1,731,0.851899862289429,clock,oven,c01,0730_con_s06_c01_oven_10_n04111531_1128.JPEG
subject-06,1,732,0.630435943603516,bear,bear,c01,0731_con_s06_c01_bear_10_n02132136_3090.JPEG
subject-06,1,733,0.627588033676147,bicycle,keyboard,c01,0732_con_s06_c01_keyboard_10_n03085013_5349.JPEG
subject-06,1,734,0.67388391494751,boat,chair,c05,0733_con_s06_c05_chair_10_n02791124_4538.JPEG
subject-06,1,735,0.48242712020874,bicycle,bicycle,c15,0734_con_s06_c15_bicycle_10_n02835271_9440.JPEG
subject-06,1,736,1.12925601005554,bird,cat,c10,0735_con_s06_c10_cat_10_n02125311_25357.JPEG
subject-06,1,737,0.588881015777588,keyboard,keyboard,c30,0736_con_s06_c30_keyboard_10_n03085013_9123.JPEG
subject-06,1,738,1.50018095970154,elephant,elephant,c50,0737_con_s06_c50_elephant_10_n02504013_593.JPEG
subject-06,1,739,0.705351829528809,boat,cat,c01,0738_con_s06_c01_cat_10_n02124075_15158.JPEG
subject-06,1,740,0.536320924758911,keyboard,keyboard,c05,0739_con_s06_c05_keyboard_10_n03085013_24399.JPEG
subject-06,1,741,1.48241710662842,bird,boat,c03,0740_con_s06_c03_boat_10_n02951358_23334.JPEG
subject-06,1,742,0.545048952102661,keyboard,keyboard,c30,0741_con_s06_c30_keyboard_10_n03085013_20357.JPEG
subject-06,1,743,0.637641906738281,bottle,bottle,c05,0742_con_s06_c05_bottle_10_n04560804_2085.JPEG
subject-06,1,744,0.630214214324951,airplane,airplane,c10,0743_con_s06_c10_airplane_10_n02690373_852.JPEG
subject-06,1,745,0.806838035583496,keyboard,keyboard,c10,0744_con_s06_c10_keyboard_10_n04505470_2243.JPEG
subject-06,1,746,0.668610095977783,clock,clock,c15,0745_con_s06_c15_clock_10_n02708093_3691.JPEG
subject-06,1,747,0.606729030609131,bottle,bottle,c05,0746_con_s06_c05_bottle_10_n04557648_10081.JPEG
subject-06,1,748,0.585498809814453,bicycle,boat,c01,0747_con_s06_c01_boat_10_n04273569_6408.JPEG
subject-06,1,749,1.17018795013428,airplane,keyboard,c03,0748_con_s06_c03_keyboard_10_n03085013_4012.JPEG
subject-06,1,750,0.924450159072876,clock,clock,c01,0749_con_s06_c01_clock_10_n02708093_451.JPEG
subject-06,1,751,0.893301010131836,boat,boat,c10,0750_con_s06_c10_boat_10_n03662601_8171.JPEG
subject-06,1,752,0.955611944198608,elephant,elephant,c10,0751_con_s06_c10_elephant_10_n02504013_2881.JPEG
subject-06,1,753,0.840379953384399,car,car,c05,0752_con_s06_c05_car_10_n03100240_12605.JPEG
subject-06,1,754,0.94103217124939,bear,bird,c03,0753_con_s06_c03_bird_10_n01817953_12357.JPEG
subject-06,1,755,0.765358924865723,knife,knife,c10,0754_con_s06_c10_knife_10_n03041632_34505.JPEG
subject-06,1,756,0.695961952209473,airplane,airplane,c10,0755_con_s06_c10_airplane_10_n02690373_20690.JPEG
subject-06,1,757,0.550480842590332,clock,boat,c01,0756_con_s06_c01_boat_10_n03344393_6356.JPEG
subject-06,1,758,0.574964046478271,boat,bicycle,c15,0757_con_s06_c15_bicycle_10_n03792782_1979.JPEG
subject-06,1,759,0.634536027908325,cat,cat,c15,0758_con_s06_c15_cat_10_n02123159_7907.JPEG
subject-06,1,760,0.703361034393311,car,car,c50,0759_con_s06_c50_car_10_n03100240_15345.JPEG
subject-06,1,761,0.657972812652588,cat,cat,c05,0760_con_s06_c05_cat_10_n02123045_2908.JPEG
subject-06,1,762,0.990350008010864,keyboard,oven,c03,0761_con_s06_c03_oven_10_n04111531_13906.JPEG
subject-06,1,763,1.15064311027527,oven,oven,c15,0762_con_s06_c15_oven_10_n04111531_21173.JPEG
subject-06,1,764,0.591257810592651,keyboard,keyboard,c50,0763_con_s06_c50_keyboard_10_n04505470_2055.JPEG
subject-06,1,765,1.41953301429749,elephant,elephant,c05,0764_con_s06_c05_elephant_10_n02504458_12777.JPEG
subject-06,1,766,0.468246936798096,cat,cat,c03,0765_con_s06_c03_cat_10_n02123045_12746.JPEG
subject-06,1,767,0.514806985855103,bottle,bottle,c30,0766_con_s06_c30_bottle_10_n04579145_5921.JPEG
subject-06,1,768,0.56126880645752,boat,boat,c10,0767_con_s06_c10_boat_10_n03662601_35289.JPEG
subject-06,1,769,1.35796904563904,car,car,c100,0768_con_s06_c100_car_10_n03100240_5718.JPEG
subject-06,1,770,0.666306972503662,car,truck,c05,0769_con_s06_c05_truck_10_n04467665_10245.JPEG
subject-06,1,771,0.734528064727783,airplane,bicycle,c01,0770_con_s06_c01_bicycle_10_n03792782_7975.JPEG
subject-06,1,772,0.656492948532104,oven,oven,c10,0771_con_s06_c10_oven_10_n04111531_5533.JPEG
subject-06,1,773,0.643136978149414,truck,truck,c50,0772_con_s06_c50_truck_10_n03417042_23888.JPEG
subject-06,1,774,0.857620000839233,knife,knife,c10,0773_con_s06_c10_knife_10_n03041632_29886.JPEG
subject-06,1,775,0.581993103027344,elephant,elephant,c30,0774_con_s06_c30_elephant_10_n02504013_8758.JPEG
subject-06,1,776,1.31250810623169,airplane,truck,c15,0775_con_s06_c15_truck_10_n04467665_3876.JPEG
subject-06,1,777,0.867331981658936,bear,bear,c15,0776_con_s06_c15_bear_10_n02134418_2649.JPEG
subject-06,1,778,0.973404884338379,clock,clock,c10,0777_con_s06_c10_clock_10_n03196217_4417.JPEG
subject-06,1,779,0.62804102897644,boat,cat,c01,0778_con_s06_c01_cat_10_n02123394_4633.JPEG
subject-06,1,780,0.453727960586548,keyboard,keyboard,c30,0779_con_s06_c30_keyboard_10_n04505470_5056.JPEG
subject-06,1,781,0.583916902542114,bottle,bottle,c100,0780_con_s06_c100_bottle_10_n04579145_2949.JPEG
subject-06,1,782,1.09242391586304,cat,dog,c05,0781_con_s06_c05_dog_10_n02113023_11627.JPEG
subject-06,1,783,0.709092140197754,dog,bottle,c01,0782_con_s06_c01_bottle_10_n04579145_5897.JPEG
subject-06,1,784,0.547567844390869,cat,cat,c05,0783_con_s06_c05_cat_10_n02124075_6510.JPEG
subject-06,1,785,1.3618049621582,cat,cat,c05,0784_con_s06_c05_cat_10_n02123394_6603.JPEG
subject-06,1,786,1.16241216659546,knife,knife,c100,0785_con_s06_c100_knife_10_n03041632_20662.JPEG
subject-06,1,787,0.755141973495483,truck,truck,c10,0786_con_s06_c10_truck_10_n03417042_16403.JPEG
subject-06,1,788,0.67955493927002,clock,clock,c03,0787_con_s06_c03_clock_10_n02708093_2062.JPEG
subject-06,1,789,0.556180953979492,bird,bird,c30,0788_con_s06_c30_bird_10_n02037110_5781.JPEG
subject-06,1,790,0.772804975509644,keyboard,bottle,c01,0789_con_s06_c01_bottle_10_n02823428_2725.JPEG
subject-06,1,791,0.749315023422241,airplane,boat,c05,0790_con_s06_c05_boat_10_n04273569_24921.JPEG
subject-06,1,792,1.05797004699707,cat,cat,c100,0791_con_s06_c100_cat_10_n02125311_22959.JPEG
subject-06,1,793,0.588598966598511,oven,bear,c01,0792_con_s06_c01_bear_10_n02134084_6561.JPEG
subject-06,1,794,0.458463907241821,boat,clock,c01,0793_con_s06_c01_clock_10_n03196217_3647.JPEG
subject-06,1,795,0.619054079055786,bird,bird,c10,0794_con_s06_c10_bird_10_n01514859_2497.JPEG
subject-06,1,796,0.711327791213989,bicycle,bicycle,c100,0795_con_s06_c100_bicycle_10_n03792782_7092.JPEG
subject-06,1,797,0.682064056396484,car,car,c10,0796_con_s06_c10_car_10_n03100240_22356.JPEG
subject-06,1,798,1.13427495956421,airplane,bottle,c15,0797_con_s06_c15_bottle_10_n04560804_5756.JPEG
subject-06,1,799,0.636749982833862,oven,elephant,c05,0798_con_s06_c05_elephant_10_n02504458_4137.JPEG
subject-06,1,800,0.591849088668823,cat,cat,c50,0799_con_s06_c50_cat_10_n02123159_4315.JPEG
subject-06,1,801,0.69020414352417,elephant,dog,c15,0800_con_s06_c15_dog_10_n02086240_5891.JPEG
subject-06,1,802,0.960709095001221,elephant,elephant,c10,0801_con_s06_c10_elephant_10_n02504458_5687.JPEG
subject-06,1,803,0.537209033966064,boat,boat,c10,0802_con_s06_c10_boat_10_n03344393_8181.JPEG
subject-06,1,804,1.28342986106873,car,car,c30,0803_con_s06_c30_car_10_n04285008_12045.JPEG
subject-06,1,805,0.637948036193848,bird,bird,c50,0804_con_s06_c50_bird_10_n02018207_8730.JPEG
subject-06,1,806,0.600456953048706,clock,clock,c100,0805_con_s06_c100_clock_10_n02708093_6624.JPEG
subject-06,1,807,0.646881103515625,elephant,elephant,c100,0806_con_s06_c100_elephant_10_n02504458_5978.JPEG
subject-06,1,808,0.761301040649414,dog,dog,c05,0807_con_s06_c05_dog_10_n02096585_8203.JPEG
subject-06,1,809,1.08328700065613,knife,knife,c03,0808_con_s06_c03_knife_10_n03041632_1671.JPEG
subject-06,1,810,0.805370092391968,keyboard,keyboard,c50,0809_con_s06_c50_keyboard_10_n03085013_2272.JPEG
subject-06,1,811,0.721610069274902,knife,knife,c15,0810_con_s06_c15_knife_10_n03041632_22472.JPEG
subject-06,1,812,0.698212146759033,boat,oven,c03,0811_con_s06_c03_oven_10_n04111531_6590.JPEG
subject-06,1,813,0.760650157928467,bicycle,bicycle,c05,0812_con_s06_c05_bicycle_10_n02835271_9288.JPEG
subject-06,1,814,0.999170064926147,airplane,airplane,c05,0813_con_s06_c05_airplane_10_n02690373_12984.JPEG
subject-06,1,815,0.599987030029297,car,car,c10,0814_con_s06_c10_car_10_n03100240_2197.JPEG
subject-06,1,816,1.03040099143982,bird,bird,c15,0815_con_s06_c15_bird_10_n02013706_2914.JPEG
subject-06,1,817,0.660665988922119,bicycle,bicycle,c05,0816_con_s06_c05_bicycle_10_n03792782_50743.JPEG
subject-06,1,818,0.685421943664551,boat,boat,c10,0817_con_s06_c10_boat_10_n04273569_4437.JPEG
subject-06,1,819,0.639872074127197,clock,oven,c03,0818_con_s06_c03_oven_10_n04111531_4.JPEG
subject-06,1,820,0.49414587020874,cat,cat,c10,0819_con_s06_c10_cat_10_n02123045_3818.JPEG
subject-06,1,821,0.624809980392456,airplane,airplane,c30,0820_con_s06_c30_airplane_10_n02690373_10510.JPEG
subject-06,1,822,0.457669019699097,cat,cat,c50,0821_con_s06_c50_cat_10_n02123045_9143.JPEG
subject-06,1,823,0.933951139450073,clock,bottle,c03,0822_con_s06_c03_bottle_10_n03937543_299.JPEG
subject-06,1,824,0.864635944366455,dog,dog,c03,0823_con_s06_c03_dog_10_n02110063_3158.JPEG
subject-06,1,825,1.38059496879578,truck,truck,c10,0824_con_s06_c10_truck_10_n03417042_7469.JPEG
subject-06,1,826,0.651632070541382,bicycle,bicycle,c30,0825_con_s06_c30_bicycle_10_n02835271_20975.JPEG
subject-06,1,827,0.720044851303101,airplane,keyboard,c01,0826_con_s06_c01_keyboard_10_n04505470_1537.JPEG
subject-06,1,828,0.804673194885254,oven,oven,c100,0827_con_s06_c100_oven_10_n04111531_6958.JPEG
subject-06,1,829,0.551131010055542,bottle,bottle,c100,0828_con_s06_c100_bottle_10_n02823428_6095.JPEG
subject-06,1,830,0.475427150726318,airplane,airplane,c30,0829_con_s06_c30_airplane_10_n02690373_1615.JPEG
subject-06,1,831,0.843890905380249,bear,bear,c30,0830_con_s06_c30_bear_10_n02134418_25492.JPEG
subject-06,1,832,0.444767951965332,oven,oven,c15,0831_con_s06_c15_oven_10_n04111531_20429.JPEG
subject-06,1,833,0.561177968978882,airplane,airplane,c50,0832_con_s06_c50_airplane_10_n02690373_4753.JPEG
subject-06,1,834,0.598871946334839,car,car,c05,0833_con_s06_c05_car_10_n04285008_3316.JPEG
subject-06,1,835,0.62162709236145,car,car,c05,0834_con_s06_c05_car_10_n03100240_15620.JPEG
subject-06,1,836,0.929312944412231,dog,dog,c05,0835_con_s06_c05_dog_10_n02110063_5412.JPEG
subject-06,1,837,0.767623901367188,clock,clock,c15,0836_con_s06_c15_clock_10_n04548280_578.JPEG
subject-06,1,838,0.644112110137939,bear,bear,c50,0837_con_s06_c50_bear_10_n02134084_24187.JPEG
subject-06,1,839,0.436715841293335,cat,cat,c100,0838_con_s06_c100_cat_10_n02124075_4605.JPEG
subject-06,1,840,0.599087953567505,truck,truck,c10,0839_con_s06_c10_truck_10_n04467665_44528.JPEG
subject-06,1,841,0.490687847137451,keyboard,keyboard,c100,0840_con_s06_c100_keyboard_10_n04505470_2804.JPEG
subject-06,1,842,0.796551942825317,airplane,clock,c01,0841_con_s06_c01_clock_10_n02708093_2676.JPEG
subject-06,1,843,0.713449954986572,airplane,airplane,c50,0842_con_s06_c50_airplane_10_n02690373_283.JPEG
subject-06,1,844,0.698817014694214,bicycle,oven,c01,0843_con_s06_c01_oven_10_n04111531_2650.JPEG
subject-06,1,845,0.576480150222778,oven,knife,c15,0844_con_s06_c15_knife_10_n03041632_48062.JPEG
subject-06,1,846,0.821150064468384,car,boat,c03,0845_con_s06_c03_boat_10_n03662601_8230.JPEG
subject-06,1,847,0.607496976852417,boat,bicycle,c03,0846_con_s06_c03_bicycle_10_n02835271_3856.JPEG
subject-06,1,848,0.50032901763916,cat,oven,c03,0847_con_s06_c03_oven_10_n04111531_9915.JPEG
subject-06,1,849,0.692675113677979,dog,dog,c100,0848_con_s06_c100_dog_10_n02107312_1709.JPEG
subject-06,1,850,0.731436014175415,clock,knife,c15,0849_con_s06_c15_knife_10_n03041632_31363.JPEG
subject-06,1,851,0.753643989562988,airplane,bottle,c03,0850_con_s06_c03_bottle_10_n04560804_6246.JPEG
subject-06,1,852,0.631900787353516,airplane,airplane,c15,0851_con_s06_c15_airplane_10_n02690373_1416.JPEG
subject-06,1,853,0.648696899414062,clock,clock,c05,0852_con_s06_c05_clock_10_n03196217_3272.JPEG
subject-06,1,854,0.579368114471436,cat,elephant,c03,0853_con_s06_c03_elephant_10_n02504458_5376.JPEG
subject-06,1,855,0.449800968170166,bicycle,bicycle,c10,0854_con_s06_c10_bicycle_10_n02835271_6094.JPEG
subject-06,1,856,0.618537187576294,boat,boat,c100,0855_con_s06_c100_boat_10_n03662601_10425.JPEG
subject-06,1,857,0.842838048934937,oven,dog,c01,0856_con_s06_c01_dog_10_n02090622_9089.JPEG
subject-06,1,858,1.50016307830811,elephant,bear,c03,0857_con_s06_c03_bear_10_n02134084_6806.JPEG
subject-06,1,859,0.732505083084106,airplane,airplane,c50,0858_con_s06_c50_airplane_10_n02690373_5786.JPEG
subject-06,1,860,0.778958082199097,chair,knife,c01,0859_con_s06_c01_knife_10_n03041632_26989.JPEG
subject-06,1,861,0.703639030456543,chair,bird,c01,0860_con_s06_c01_bird_10_n01824575_2719.JPEG
subject-06,1,862,0.788032054901123,knife,knife,c100,0861_con_s06_c100_knife_10_n03041632_20517.JPEG
subject-06,1,863,0.543099164962769,dog,dog,c30,0862_con_s06_c30_dog_10_n02102040_5756.JPEG
subject-06,1,864,NaN,na,bird,c03,0863_con_s06_c03_bird_10_n02007558_16935.JPEG
subject-06,1,865,1.00680088996887,keyboard,clock,c30,0864_con_s06_c30_clock_10_n03196217_7141.JPEG
subject-06,1,866,0.583225965499878,clock,clock,c10,0865_con_s06_c10_clock_10_n03196217_4947.JPEG
subject-06,1,867,1.13772702217102,oven,oven,c100,0866_con_s06_c100_oven_10_n04111531_2260.JPEG
subject-06,1,868,0.99235200881958,dog,dog,c50,0867_con_s06_c50_dog_10_n02100877_2383.JPEG
subject-06,1,869,0.722975969314575,boat,boat,c15,0868_con_s06_c15_boat_10_n03344393_8502.JPEG
subject-06,1,870,0.42317795753479,chair,chair,c100,0869_con_s06_c100_chair_10_n03376595_3624.JPEG
subject-06,1,871,0.536993980407715,airplane,airplane,c15,0870_con_s06_c15_airplane_10_n02690373_2607.JPEG
subject-06,1,872,0.423676013946533,cat,cat,c30,0871_con_s06_c30_cat_10_n02123597_29640.JPEG
subject-06,1,873,0.467366218566895,truck,truck,c100,0872_con_s06_c100_truck_10_n03417042_16038.JPEG
subject-06,1,874,0.992311954498291,dog,dog,c03,0873_con_s06_c03_dog_10_n02099267_6255.JPEG
subject-06,1,875,1.29845499992371,chair,bottle,c03,0874_con_s06_c03_bottle_10_n04560804_14463.JPEG
subject-06,1,876,1.1311240196228,bottle,chair,c01,0875_con_s06_c01_chair_10_n03376595_18810.JPEG
subject-06,1,877,0.970207929611206,dog,dog,c50,0876_con_s06_c50_dog_10_n02099712_527.JPEG
subject-06,1,878,0.800443887710571,airplane,airplane,c10,0877_con_s06_c10_airplane_10_n02690373_9712.JPEG
subject-06,1,879,0.671151876449585,oven,oven,c50,0878_con_s06_c50_oven_10_n04111531_8963.JPEG
subject-06,1,880,0.77152681350708,car,car,c50,0879_con_s06_c50_car_10_n04285008_12423.JPEG
subject-06,1,881,1.03228116035461,bottle,bottle,c100,0880_con_s06_c100_bottle_10_n04557648_3283.JPEG
subject-06,1,882,1.17044186592102,bicycle,boat,c01,0881_con_s06_c01_boat_10_n03662601_17647.JPEG
subject-06,1,883,0.725455045700073,dog,oven,c03,0882_con_s06_c03_oven_10_n04111531_10974.JPEG
subject-06,1,884,0.880213975906372,dog,dog,c15,0883_con_s06_c15_dog_10_n02105056_1402.JPEG
subject-06,1,885,1.19700980186462,bird,dog,c10,0884_con_s06_c10_dog_10_n02107312_988.JPEG
subject-06,1,886,0.548741102218628,cat,chair,c03,0885_con_s06_c03_chair_10_n04429376_10449.JPEG
subject-06,1,887,1.03275179862976,dog,elephant,c05,0886_con_s06_c05_elephant_10_n02504458_2190.JPEG
subject-06,1,888,0.663260936737061,keyboard,keyboard,c100,0887_con_s06_c100_keyboard_10_n03085013_18909.JPEG
subject-06,1,889,1.09560513496399,keyboard,keyboard,c100,0888_con_s06_c100_keyboard_10_n03085013_21097.JPEG
subject-06,1,890,1.0024950504303,elephant,elephant,c10,0889_con_s06_c10_elephant_10_n02504458_6185.JPEG
subject-06,1,891,1.06542778015137,airplane,cat,c01,0890_con_s06_c01_cat_10_n02123045_3575.JPEG
subject-06,1,892,0.765068054199219,cat,cat,c03,0891_con_s06_c03_cat_10_n02123597_2509.JPEG
subject-06,1,893,1.0030529499054,airplane,airplane,c30,0892_con_s06_c30_airplane_10_n02690373_8214.JPEG
subject-06,1,894,0.703664064407349,elephant,elephant,c10,0893_con_s06_c10_elephant_10_n02504458_5507.JPEG
subject-06,1,895,0.534337997436523,cat,cat,c100,0894_con_s06_c100_cat_10_n02123597_14032.JPEG
subject-06,1,896,0.542741060256958,airplane,airplane,c50,0895_con_s06_c50_airplane_10_n02690373_7573.JPEG
subject-06,1,897,0.992732048034668,truck,truck,c100,0896_con_s06_c100_truck_10_n03417042_17513.JPEG
subject-06,1,898,0.706250905990601,knife,knife,c15,0897_con_s06_c15_knife_10_n03041632_14774.JPEG
subject-06,1,899,0.885071039199829,airplane,airplane,c50,0898_con_s06_c50_airplane_10_n02690373_4706.JPEG
subject-06,1,900,1.07772183418274,bear,bear,c05,0899_con_s06_c05_bear_10_n02133161_16054.JPEG
subject-06,1,901,0.924345970153809,elephant,bicycle,c05,0900_con_s06_c05_bicycle_10_n02835271_1733.JPEG
subject-06,1,902,0.645773887634277,boat,boat,c10,0901_con_s06_c10_boat_10_n02951358_34807.JPEG
subject-06,1,903,0.584342002868652,dog,dog,c30,0902_con_s06_c30_dog_10_n02108000_1445.JPEG
subject-06,1,904,0.622915983200073,keyboard,keyboard,c100,0903_con_s06_c100_keyboard_10_n04505470_5009.JPEG
subject-06,1,905,0.607299089431763,airplane,airplane,c10,0904_con_s06_c10_airplane_10_n02690373_18603.JPEG
subject-06,1,906,0.686819076538086,clock,clock,c10,0905_con_s06_c10_clock_10_n04548280_574.JPEG
subject-06,1,907,0.756829977035522,truck,truck,c30,0906_con_s06_c30_truck_10_n04467665_3007.JPEG
subject-06,1,908,0.741219997406006,bicycle,bicycle,c15,0907_con_s06_c15_bicycle_10_n02835271_6906.JPEG
subject-06,1,909,0.595943927764893,clock,clock,c05,0908_con_s06_c05_clock_10_n04548280_1105.JPEG
subject-06,1,910,0.909584999084473,dog,dog,c30,0909_con_s06_c30_dog_10_n02090622_7160.JPEG
subject-06,1,911,0.480419158935547,bicycle,bicycle,c30,0910_con_s06_c30_bicycle_10_n03792782_8832.JPEG
subject-06,1,912,0.994922161102295,dog,oven,c30,0911_con_s06_c30_oven_10_n04111531_9370.JPEG
subject-06,1,913,1.50005292892456,boat,boat,c50,0912_con_s06_c50_boat_10_n03662601_6965.JPEG
subject-06,1,914,1.33886814117432,bird,airplane,c01,0913_con_s06_c01_airplane_10_n02690373_2619.JPEG
subject-06,1,915,0.609457015991211,bottle,bottle,c30,0914_con_s06_c30_bottle_10_n02823428_270.JPEG
subject-06,1,916,0.893723011016846,knife,boat,c03,0915_con_s06_c03_boat_10_n04273569_661.JPEG
subject-06,1,917,1.31055498123169,bear,bear,c10,0916_con_s06_c10_bear_10_n02133161_299.JPEG
subject-06,1,918,1.02429008483887,truck,truck,c30,0917_con_s06_c30_truck_10_n03796401_13378.JPEG
subject-06,1,919,0.510656118392944,clock,clock,c15,0918_con_s06_c15_clock_10_n02708093_8002.JPEG
subject-06,1,920,0.541285991668701,bottle,oven,c10,0919_con_s06_c10_oven_10_n04111531_7252.JPEG
subject-06,1,921,1.11786699295044,keyboard,chair,c01,0920_con_s06_c01_chair_10_n04099969_2738.JPEG
subject-06,1,922,0.842164993286133,bear,elephant,c05,0921_con_s06_c05_elephant_10_n02504458_2317.JPEG
subject-06,1,923,1.39355516433716,chair,bear,c01,0922_con_s06_c01_bear_10_n02134418_280.JPEG
subject-06,1,924,0.578190088272095,bottle,bottle,c50,0923_con_s06_c50_bottle_10_n04560804_15679.JPEG
subject-06,1,925,0.732795000076294,knife,knife,c100,0924_con_s06_c100_knife_10_n03041632_13465.JPEG
subject-06,1,926,0.67153000831604,cat,cat,c50,0925_con_s06_c50_cat_10_n02123597_871.JPEG
subject-06,1,927,1.22597002983093,dog,dog,c15,0926_con_s06_c15_dog_10_n02100735_8630.JPEG
subject-06,1,928,0.734381914138794,car,car,c15,0927_con_s06_c15_car_10_n02814533_45804.JPEG
subject-06,1,929,0.580930948257446,chair,chair,c100,0928_con_s06_c100_chair_10_n03376595_2165.JPEG
subject-06,1,930,0.573659896850586,cat,cat,c30,0929_con_s06_c30_cat_10_n02124075_20323.JPEG
subject-06,1,931,0.874009847640991,bird,bird,c30,0930_con_s06_c30_bird_10_n02037110_9612.JPEG
subject-06,1,932,0.636377096176147,knife,knife,c30,0931_con_s06_c30_knife_10_n03041632_4269.JPEG
subject-06,1,933,0.604291915893555,truck,truck,c10,0932_con_s06_c10_truck_10_n04467665_12049.JPEG
subject-06,1,934,0.566689014434814,bird,bird,c100,0933_con_s06_c100_bird_10_n01601694_18432.JPEG
subject-06,1,935,0.672866106033325,boat,boat,c05,0934_con_s06_c05_boat_10_n03344393_671.JPEG
subject-06,1,936,0.865289211273193,dog,dog,c10,0935_con_s06_c10_dog_10_n02110958_6087.JPEG
subject-06,1,937,0.758275032043457,bear,bear,c05,0936_con_s06_c05_bear_10_n02132136_7647.JPEG
subject-06,1,938,1.37274217605591,dog,dog,c100,0937_con_s06_c100_dog_10_n02091032_8109.JPEG
subject-06,1,939,NaN,na,chair,c05,0938_con_s06_c05_chair_10_n04429376_2915.JPEG
subject-06,1,940,0.605616807937622,bottle,bottle,c10,0939_con_s06_c10_bottle_10_n03983396_822.JPEG
subject-06,1,941,1.13644599914551,chair,chair,c05,0940_con_s06_c05_chair_10_n04429376_10113.JPEG
subject-06,1,942,0.566964149475098,car,car,c15,0941_con_s06_c15_car_10_n03100240_1836.JPEG
subject-06,1,943,1.19113779067993,elephant,elephant,c100,0942_con_s06_c100_elephant_10_n02504013_5201.JPEG
subject-06,1,944,0.612773895263672,truck,truck,c30,0943_con_s06_c30_truck_10_n04467665_3220.JPEG
subject-06,1,945,0.69717812538147,clock,clock,c05,0944_con_s06_c05_clock_10_n04548280_8322.JPEG
subject-06,1,946,0.610962152481079,bottle,bottle,c10,0945_con_s06_c10_bottle_10_n02823428_4503.JPEG
subject-06,1,947,0.644017934799194,keyboard,keyboard,c05,0946_con_s06_c05_keyboard_10_n04505470_5128.JPEG
subject-06,1,948,0.606689929962158,bird,bird,c50,0947_con_s06_c50_bird_10_n01818515_4613.JPEG
subject-06,1,949,0.528371095657349,keyboard,keyboard,c50,0948_con_s06_c50_keyboard_10_n03085013_23086.JPEG
subject-06,1,950,1.09704399108887,dog,dog,c05,0949_con_s06_c05_dog_10_n02090622_632.JPEG
subject-06,1,951,0.68959903717041,chair,chair,c30,0950_con_s06_c30_chair_10_n04429376_8105.JPEG
subject-06,1,952,0.538110971450806,keyboard,keyboard,c15,0951_con_s06_c15_keyboard_10_n04505470_2601.JPEG
subject-06,1,953,1.4359929561615,cat,cat,c50,0952_con_s06_c50_cat_10_n02123597_1016.JPEG
subject-06,1,954,0.552758932113647,clock,clock,c03,0953_con_s06_c03_clock_10_n04548280_4686.JPEG
subject-06,1,955,0.481917858123779,car,car,c100,0954_con_s06_c100_car_10_n02814533_51647.JPEG
subject-06,1,956,1.2720000743866,bicycle,car,c01,0955_con_s06_c01_car_10_n04285008_8666.JPEG
subject-06,1,957,0.979598045349121,airplane,airplane,c10,0956_con_s06_c10_airplane_10_n02690373_18936.JPEG
subject-06,1,958,0.496168851852417,bird,bird,c50,0957_con_s06_c50_bird_10_n02027492_13853.JPEG
subject-06,1,959,0.57269287109375,cat,cat,c15,0958_con_s06_c15_cat_10_n02123045_13023.JPEG
subject-06,1,960,0.611324071884155,knife,knife,c30,0959_con_s06_c30_knife_10_n03041632_29125.JPEG
subject-06,1,961,0.56519889831543,bottle,bottle,c100,0960_con_s06_c100_bottle_10_n04560804_7375.JPEG
subject-06,1,962,0.665605068206787,oven,keyboard,c03,0961_con_s06_c03_keyboard_10_n03085013_9244.JPEG
subject-06,1,963,0.579982995986938,clock,clock,c05,0962_con_s06_c05_clock_10_n02708093_5624.JPEG
subject-06,1,964,1.31091499328613,elephant,elephant,c100,0963_con_s06_c100_elephant_10_n02504458_1441.JPEG
subject-06,1,965,1.50005197525024,airplane,elephant,c03,0964_con_s06_c03_elephant_10_n02504013_6865.JPEG
subject-06,1,966,0.527765989303589,cat,bicycle,c05,0965_con_s06_c05_bicycle_10_n03792782_19116.JPEG
subject-06,1,967,1.36274290084839,car,dog,c01,0966_con_s06_c01_dog_10_n02087046_16086.JPEG
subject-06,1,968,0.795399904251099,bear,bear,c50,0967_con_s06_c50_bear_10_n02133161_6121.JPEG
subject-06,1,969,0.749587059020996,bicycle,bicycle,c05,0968_con_s06_c05_bicycle_10_n03792782_17134.JPEG
subject-06,1,970,0.959842205047607,dog,oven,c50,0969_con_s06_c50_oven_10_n04111531_24065.JPEG
subject-06,1,971,0.627125978469849,knife,knife,c30,0970_con_s06_c30_knife_10_n03041632_42841.JPEG
subject-06,1,972,0.765943050384521,oven,oven,c15,0971_con_s06_c15_oven_10_n04111531_5126.JPEG
subject-06,1,973,1.0196259021759,bird,boat,c01,0972_con_s06_c01_boat_10_n03662601_2980.JPEG
subject-06,1,974,0.603886127471924,airplane,airplane,c30,0973_con_s06_c30_airplane_10_n02690373_5967.JPEG
subject-06,1,975,0.802321910858154,chair,chair,c50,0974_con_s06_c50_chair_10_n04429376_18585.JPEG
subject-06,1,976,0.726094007492065,clock,clock,c03,0975_con_s06_c03_clock_10_n03196217_3922.JPEG
subject-06,1,977,0.585916996002197,bear,bear,c50,0976_con_s06_c50_bear_10_n02134418_249.JPEG
subject-06,1,978,NaN,na,elephant,c10,0977_con_s06_c10_elephant_10_n02504013_19831.JPEG
subject-06,1,979,0.983707189559937,knife,bird,c01,0978_con_s06_c01_bird_10_n01828970_4857.JPEG
subject-06,1,980,0.776269197463989,car,bear,c01,0979_con_s06_c01_bear_10_n02132136_24194.JPEG
subject-06,1,981,0.57707405090332,clock,chair,c03,0980_con_s06_c03_chair_10_n04429376_22745.JPEG
subject-06,1,982,0.815484046936035,airplane,bird,c03,0981_con_s06_c03_bird_10_n01833805_2576.JPEG
subject-06,1,983,0.632306098937988,truck,truck,c10,0982_con_s06_c10_truck_10_n03417042_6250.JPEG
subject-06,1,984,0.870486974716187,chair,chair,c15,0983_con_s06_c15_chair_10_n04429376_7416.JPEG
subject-06,1,985,0.687391996383667,bird,bird,c15,0984_con_s06_c15_bird_10_n02018795_1486.JPEG
subject-06,1,986,0.947838068008423,knife,knife,c50,0985_con_s06_c50_knife_10_n03041632_25656.JPEG
subject-06,1,987,0.872208833694458,oven,oven,c10,0986_con_s06_c10_oven_10_n04111531_21896.JPEG
subject-06,1,988,0.585828065872192,cat,chair,c01,0987_con_s06_c01_chair_10_n02791124_7232.JPEG
subject-06,1,989,1.12406206130981,bottle,chair,c01,0988_con_s06_c01_chair_10_n04099969_1976.JPEG
subject-06,1,990,0.586612939834595,chair,bicycle,c01,0989_con_s06_c01_bicycle_10_n03792782_43279.JPEG
subject-06,1,991,0.877132892608643,keyboard,chair,c01,0990_con_s06_c01_chair_10_n02791124_2725.JPEG
subject-06,1,992,0.710267066955566,boat,airplane,c01,0991_con_s06_c01_airplane_10_n02690373_4486.JPEG
subject-06,1,993,1.38632917404175,clock,bicycle,c03,0992_con_s06_c03_bicycle_10_n02835271_12599.JPEG
subject-06,1,994,0.71884298324585,clock,clock,c30,0993_con_s06_c30_clock_10_n04548280_1645.JPEG
subject-06,1,995,0.832672834396362,car,bottle,c01,0994_con_s06_c01_bottle_10_n04591713_3894.JPEG
subject-06,1,996,0.988971948623657,car,chair,c01,0995_con_s06_c01_chair_10_n04099969_51294.JPEG
subject-06,1,997,0.60533595085144,clock,clock,c05,0996_con_s06_c05_clock_10_n02708093_3500.JPEG
subject-06,1,998,0.790075063705444,bottle,clock,c10,0997_con_s06_c10_clock_10_n03196217_5120.JPEG
subject-06,1,999,0.728250026702881,boat,boat,c15,0998_con_s06_c15_boat_10_n03344393_12083.JPEG
subject-06,1,1000,1.50024580955505,car,car,c30,0999_con_s06_c30_car_10_n03100240_8898.JPEG
subject-06,1,1001,0.872246980667114,bear,bear,c03,1000_con_s06_c03_bear_10_n02134418_607.JPEG
subject-06,1,1002,1.0130980014801,car,car,c50,1001_con_s06_c50_car_10_n04285008_7871.JPEG
subject-06,1,1003,0.911400079727173,cat,dog,c03,1002_con_s06_c03_dog_10_n02092002_12394.JPEG
subject-06,1,1004,0.557224988937378,bear,bear,c30,1003_con_s06_c30_bear_10_n02133161_1134.JPEG
subject-06,1,1005,0.743936061859131,airplane,bird,c03,1004_con_s06_c03_bird_10_n01532829_35744.JPEG
subject-06,1,1006,1.11252808570862,knife,knife,c10,1005_con_s06_c10_knife_10_n03041632_24376.JPEG
subject-06,1,1007,0.574195146560669,car,car,c100,1006_con_s06_c100_car_10_n04285008_3241.JPEG
subject-06,1,1008,0.512890100479126,airplane,airplane,c100,1007_con_s06_c100_airplane_10_n02690373_18479.JPEG
subject-06,1,1009,0.735697031021118,bicycle,bicycle,c10,1008_con_s06_c10_bicycle_10_n02835271_2651.JPEG
subject-06,1,1010,0.622557878494263,cat,bird,c05,1009_con_s06_c05_bird_10_n01817953_5544.JPEG
subject-06,1,1011,0.606421947479248,clock,bottle,c01,1010_con_s06_c01_bottle_10_n04591713_3673.JPEG
subject-06,1,1012,0.73676609992981,car,car,c30,1011_con_s06_c30_car_10_n03100240_13345.JPEG
subject-06,1,1013,0.923861026763916,cat,oven,c05,1012_con_s06_c05_oven_10_n04111531_15290.JPEG
subject-06,1,1014,0.700150012969971,cat,oven,c50,1013_con_s06_c50_oven_10_n04111531_11110.JPEG
subject-06,1,1015,0.532920837402344,bicycle,bicycle,c50,1014_con_s06_c50_bicycle_10_n02835271_3710.JPEG
subject-06,1,1016,0.981032848358154,dog,elephant,c03,1015_con_s06_c03_elephant_10_n02504013_2149.JPEG
subject-06,1,1017,0.665833950042725,cat,cat,c50,1016_con_s06_c50_cat_10_n02124075_11778.JPEG
subject-06,1,1018,0.522197961807251,airplane,airplane,c50,1017_con_s06_c50_airplane_10_n02690373_6090.JPEG
subject-06,1,1019,0.758009195327759,airplane,airplane,c10,1018_con_s06_c10_airplane_10_n02690373_7311.JPEG
subject-06,1,1020,0.612133026123047,car,car,c50,1019_con_s06_c50_car_10_n04285008_12029.JPEG
subject-06,1,1021,1.05042505264282,cat,knife,c10,1020_con_s06_c10_knife_10_n03041632_32208.JPEG
subject-06,1,1022,0.537490844726562,boat,boat,c50,1021_con_s06_c50_boat_10_n04273569_3639.JPEG
subject-06,1,1023,0.705899000167847,bottle,bottle,c10,1022_con_s06_c10_bottle_10_n04591713_3107.JPEG
subject-06,1,1024,1.30323195457458,dog,dog,c30,1023_con_s06_c30_dog_10_n02093754_586.JPEG
subject-06,1,1025,0.630685091018677,bird,bird,c05,1024_con_s06_c05_bird_10_n01616318_12507.JPEG
subject-06,1,1026,0.82309889793396,bear,car,c05,1025_con_s06_c05_car_10_n04285008_4834.JPEG
subject-06,1,1027,0.623501062393188,clock,chair,c50,1026_con_s06_c50_chair_10_n04429376_10453.JPEG
subject-06,1,1028,0.761884927749634,bird,bird,c100,1027_con_s06_c100_bird_10_n01532829_1372.JPEG
subject-06,1,1029,0.508736848831177,oven,chair,c01,1028_con_s06_c01_chair_10_n04429376_15153.JPEG
subject-06,1,1030,0.608943939208984,airplane,airplane,c05,1029_con_s06_c05_airplane_10_n02690373_8641.JPEG
