subj,session,trial,rt,object_response,category,condition,imagename
subject-01,1,1,0.539902925491333,oven,oven,c50,0000_con_s01_c50_oven_10_n04111531_4963.JPEG
subject-01,1,2,0.675720930099487,boat,boat,c05,0001_con_s01_c05_boat_10_n04612504_17854.JPEG
subject-01,1,3,0.863182783126831,cat,bottle,c10,0002_con_s01_c10_bottle_10_n03937543_2494.JPEG
subject-01,1,4,1.37561821937561,airplane,chair,c03,0003_con_s01_c03_chair_10_n04099969_9713.JPEG
subject-01,1,5,0.584101915359497,cat,cat,c50,0004_con_s01_c50_cat_10_n02123597_13272.JPEG
subject-01,1,6,1.03994393348694,clock,knife,c15,0005_con_s01_c15_knife_10_n03041632_4787.JPEG
subject-01,1,7,0.837666034698486,oven,oven,c100,0006_con_s01_c100_oven_10_n04111531_6181.JPEG
subject-01,1,8,0.814903020858765,car,bottle,c05,0007_con_s01_c05_bottle_10_n03983396_11137.JPEG
subject-01,1,9,1.02289795875549,dog,bear,c50,0008_con_s01_c50_bear_10_n02133161_4954.JPEG
subject-01,1,10,1.12763905525208,bear,elephant,c05,0009_con_s01_c05_elephant_10_n02504013_7633.JPEG
subject-01,1,11,0.963340044021606,cat,elephant,c15,0010_con_s01_c15_elephant_10_n02504458_6206.JPEG
subject-01,1,12,0.63937520980835,car,boat,c01,0011_con_s01_c01_boat_10_n02951358_20960.JPEG
subject-01,1,13,0.591943979263306,cat,cat,c50,0012_con_s01_c50_cat_10_n02123394_8592.JPEG
subject-01,1,14,0.674495220184326,car,car,c100,0013_con_s01_c100_car_10_n03100240_1794.JPEG
subject-01,1,15,1.02460598945618,elephant,knife,c03,0014_con_s01_c03_knife_10_n03041632_4260.JPEG
subject-01,1,16,0.72219705581665,clock,clock,c30,0015_con_s01_c30_clock_10_n03196217_3877.JPEG
subject-01,1,17,0.702178001403809,knife,knife,c30,0016_con_s01_c30_knife_10_n03041632_4590.JPEG
subject-01,1,18,0.767395973205566,keyboard,keyboard,c50,0017_con_s01_c50_keyboard_10_n03085013_19161.JPEG
subject-01,1,19,0.749937057495117,keyboard,keyboard,c100,0018_con_s01_c100_keyboard_10_n04505470_375.JPEG
subject-01,1,20,0.788656949996948,boat,boat,c100,0019_con_s01_c100_boat_10_n03344393_1131.JPEG
subject-01,1,21,0.754400968551636,bear,bear,c100,0020_con_s01_c100_bear_10_n02134084_21207.JPEG
subject-01,1,22,0.798819065093994,truck,truck,c30,0021_con_s01_c30_truck_10_n04467665_71074.JPEG
subject-01,1,23,0.835481882095337,chair,truck,c03,0022_con_s01_c03_truck_10_n03796401_23550.JPEG
subject-01,1,24,1.10169196128845,chair,chair,c30,0023_con_s01_c30_chair_10_n02791124_4109.JPEG
subject-01,1,25,0.629693031311035,boat,boat,c15,0024_con_s01_c15_boat_10_n03662601_16412.JPEG
subject-01,1,26,0.627454996109009,cat,cat,c03,0025_con_s01_c03_cat_10_n02123597_1965.JPEG
subject-01,1,27,0.847929954528809,bird,bicycle,c01,0026_con_s01_c01_bicycle_10_n03792782_19040.JPEG
subject-01,1,28,0.976502895355225,knife,knife,c03,0027_con_s01_c03_knife_10_n03041632_11358.JPEG
subject-01,1,29,0.790194034576416,keyboard,keyboard,c50,0028_con_s01_c50_keyboard_10_n04505470_1047.JPEG
subject-01,1,30,1.01002311706543,car,bird,c01,0029_con_s01_c01_bird_10_n02013706_3748.JPEG
subject-01,1,31,0.930625915527344,bear,bear,c50,0030_con_s01_c50_bear_10_n02132136_1132.JPEG
subject-01,1,32,1.2581889629364,bear,bear,c15,0031_con_s01_c15_bear_10_n02132136_11339.JPEG
subject-01,1,33,1.30838012695312,cat,dog,c100,0032_con_s01_c100_dog_10_n02090622_5881.JPEG
subject-01,1,34,1.43884301185608,airplane,boat,c01,0033_con_s01_c01_boat_10_n04273569_3112.JPEG
subject-01,1,35,1.33532309532166,elephant,elephant,c05,0034_con_s01_c05_elephant_10_n02504458_6880.JPEG
subject-01,1,36,0.727784872055054,oven,oven,c10,0035_con_s01_c10_oven_10_n04111531_20429.JPEG
subject-01,1,37,0.517701148986816,oven,oven,c100,0036_con_s01_c100_oven_10_n04111531_23264.JPEG
subject-01,1,38,0.776076793670654,car,car,c50,0037_con_s01_c50_car_10_n03100240_4971.JPEG
subject-01,1,39,0.85859489440918,bottle,bottle,c05,0038_con_s01_c05_bottle_10_n03937543_6014.JPEG
subject-01,1,40,1.06493496894836,chair,cat,c03,0039_con_s01_c03_cat_10_n02124075_12430.JPEG
subject-01,1,41,1.10130906105042,cat,dog,c100,0040_con_s01_c100_dog_10_n02107312_7422.JPEG
subject-01,1,42,0.823585987091064,oven,bicycle,c05,0041_con_s01_c05_bicycle_10_n03792782_8057.JPEG
subject-01,1,43,1.17464303970337,elephant,elephant,c30,0042_con_s01_c30_elephant_10_n02504013_6501.JPEG
subject-01,1,44,0.889089107513428,clock,clock,c100,0043_con_s01_c100_clock_10_n03196217_1275.JPEG
subject-01,1,45,0.925674915313721,airplane,oven,c01,0044_con_s01_c01_oven_10_n04111531_9963.JPEG
subject-01,1,46,0.870121002197266,keyboard,clock,c03,0045_con_s01_c03_clock_10_n04548280_4582.JPEG
subject-01,1,47,0.724396944046021,oven,keyboard,c03,0046_con_s01_c03_keyboard_10_n03085013_6313.JPEG
subject-01,1,48,0.783114194869995,clock,clock,c100,0047_con_s01_c100_clock_10_n04548280_2383.JPEG
subject-01,1,49,0.483978986740112,cat,cat,c100,0048_con_s01_c100_cat_10_n02123045_9583.JPEG
subject-01,1,50,0.679598093032837,bird,bird,c30,0049_con_s01_c30_bird_10_n01796340_10024.JPEG
subject-01,1,51,0.699527978897095,car,car,c15,0050_con_s01_c15_car_10_n03100240_11107.JPEG
subject-01,1,52,0.698255062103271,bicycle,bicycle,c50,0051_con_s01_c50_bicycle_10_n03792782_66048.JPEG
subject-01,1,53,0.682455778121948,car,car,c10,0052_con_s01_c10_car_10_n02814533_1480.JPEG
subject-01,1,54,1.41712880134583,bottle,bottle,c30,0053_con_s01_c30_bottle_10_n04560804_1010.JPEG
subject-01,1,55,1.26391792297363,chair,chair,c15,0054_con_s01_c15_chair_10_n02791124_5706.JPEG
subject-01,1,56,1.42460703849792,keyboard,keyboard,c01,0055_con_s01_c01_keyboard_10_n03085013_24442.JPEG
subject-01,1,57,0.593015909194946,oven,boat,c03,0056_con_s01_c03_boat_10_n02951358_10488.JPEG
subject-01,1,58,0.659632921218872,cat,clock,c01,0057_con_s01_c01_clock_10_n04548280_2374.JPEG
subject-01,1,59,0.727983951568604,elephant,elephant,c100,0058_con_s01_c100_elephant_10_n02504458_99.JPEG
subject-01,1,60,0.810576915740967,clock,oven,c03,0059_con_s01_c03_oven_10_n04111531_14611.JPEG
subject-01,1,61,0.931084871292114,bear,bear,c15,0060_con_s01_c15_bear_10_n02132136_1574.JPEG
subject-01,1,62,0.56921911239624,clock,clock,c100,0061_con_s01_c100_clock_10_n03196217_9197.JPEG
subject-01,1,63,0.928075075149536,bottle,knife,c05,0062_con_s01_c05_knife_10_n03041632_13612.JPEG
subject-01,1,64,0.730806827545166,bear,bear,c30,0063_con_s01_c30_bear_10_n02134084_10839.JPEG
subject-01,1,65,0.833337068557739,elephant,elephant,c15,0064_con_s01_c15_elephant_10_n02504458_8936.JPEG
subject-01,1,66,1.01010513305664,bird,knife,c05,0065_con_s01_c05_knife_10_n03041632_7279.JPEG
subject-01,1,67,0.913908004760742,dog,dog,c30,0066_con_s01_c30_dog_10_n02101388_8775.JPEG
subject-01,1,68,0.958199977874756,elephant,elephant,c100,0067_con_s01_c100_elephant_10_n02504458_8615.JPEG
subject-01,1,69,0.718664884567261,bicycle,bicycle,c30,0068_con_s01_c30_bicycle_10_n03792782_20190.JPEG
subject-01,1,70,0.95503306388855,knife,knife,c30,0069_con_s01_c30_knife_10_n03041632_11495.JPEG
subject-01,1,71,0.807752847671509,car,dog,c03,0070_con_s01_c03_dog_10_n02091467_9499.JPEG
subject-01,1,72,0.789627075195312,elephant,elephant,c05,0071_con_s01_c05_elephant_10_n02504013_8162.JPEG
subject-01,1,73,0.688096046447754,car,car,c30,0072_con_s01_c30_car_10_n02814533_18148.JPEG
subject-01,1,74,0.994704008102417,truck,oven,c01,0073_con_s01_c01_oven_10_n04111531_14690.JPEG
subject-01,1,75,0.985576868057251,car,elephant,c05,0074_con_s01_c05_elephant_10_n02504458_1496.JPEG
subject-01,1,76,0.975725173950195,boat,chair,c10,0075_con_s01_c10_chair_10_n02791124_1018.JPEG
subject-01,1,77,0.836555957794189,clock,oven,c03,0076_con_s01_c03_oven_10_n04111531_21460.JPEG
subject-01,1,78,0.919336080551147,dog,dog,c50,0077_con_s01_c50_dog_10_n02113023_4391.JPEG
subject-01,1,79,0.795392990112305,chair,chair,c50,0078_con_s01_c50_chair_10_n03376595_5304.JPEG
subject-01,1,80,1.06130409240723,car,dog,c01,0079_con_s01_c01_dog_10_n02104365_1123.JPEG
subject-01,1,81,1.06569981575012,truck,bird,c03,0080_con_s01_c03_bird_10_n02017213_689.JPEG
subject-01,1,82,0.833688020706177,chair,clock,c03,0081_con_s01_c03_clock_10_n04548280_4286.JPEG
subject-01,1,83,0.786633014678955,bottle,clock,c03,0082_con_s01_c03_clock_10_n02708093_3468.JPEG
subject-01,1,84,1.04734396934509,dog,dog,c15,0083_con_s01_c15_dog_10_n02102318_11746.JPEG
subject-01,1,85,0.821542024612427,bird,bird,c100,0084_con_s01_c100_bird_10_n01616318_5417.JPEG
subject-01,1,86,0.806077003479004,car,bird,c03,0085_con_s01_c03_bird_10_n02025239_660.JPEG
subject-01,1,87,1.21303009986877,knife,knife,c100,0086_con_s01_c100_knife_10_n03041632_50034.JPEG
subject-01,1,88,1.09550905227661,airplane,bicycle,c01,0087_con_s01_c01_bicycle_10_n03792782_5437.JPEG
subject-01,1,89,1.03997302055359,chair,chair,c100,0088_con_s01_c100_chair_10_n04099969_28072.JPEG
subject-01,1,90,0.77640700340271,car,car,c100,0089_con_s01_c100_car_10_n03100240_5569.JPEG
subject-01,1,91,0.923308134078979,elephant,elephant,c50,0090_con_s01_c50_elephant_10_n02504458_4580.JPEG
subject-01,1,92,0.943595886230469,boat,boat,c05,0091_con_s01_c05_boat_10_n04273569_7312.JPEG
subject-01,1,93,0.974236965179443,cat,cat,c50,0092_con_s01_c50_cat_10_n02124075_10976.JPEG
subject-01,1,94,0.956759929656982,chair,chair,c15,0093_con_s01_c15_chair_10_n02791124_11404.JPEG
subject-01,1,95,1.16891193389893,knife,knife,c15,0094_con_s01_c15_knife_10_n03041632_51766.JPEG
subject-01,1,96,1.14551281929016,knife,knife,c05,0095_con_s01_c05_knife_10_n03041632_34676.JPEG
subject-01,1,97,0.736389875411987,cat,knife,c10,0096_con_s01_c10_knife_10_n03041632_24326.JPEG
subject-01,1,98,1.08131384849548,boat,knife,c01,0097_con_s01_c01_knife_10_n03041632_47234.JPEG
subject-01,1,99,0.779461860656738,boat,boat,c10,0098_con_s01_c10_boat_10_n03344393_14897.JPEG
subject-01,1,100,0.740186929702759,oven,oven,c50,0099_con_s01_c50_oven_10_n04111531_3126.JPEG
subject-01,1,101,0.724702835083008,keyboard,keyboard,c50,0100_con_s01_c50_keyboard_10_n04505470_5109.JPEG
subject-01,1,102,1.22929096221924,chair,oven,c30,0101_con_s01_c30_oven_10_n04111531_6500.JPEG
subject-01,1,103,0.951492071151733,bird,bird,c50,0102_con_s01_c50_bird_10_n02033041_6046.JPEG
subject-01,1,104,0.688088178634644,airplane,airplane,c100,0103_con_s01_c100_airplane_10_n02690373_736.JPEG
subject-01,1,105,0.816637992858887,knife,knife,c30,0104_con_s01_c30_knife_10_n03041632_48071.JPEG
subject-01,1,106,1.24495601654053,airplane,chair,c03,0105_con_s01_c03_chair_10_n04429376_31331.JPEG
subject-01,1,107,0.967804908752441,car,car,c10,0106_con_s01_c10_car_10_n04285008_10073.JPEG
subject-01,1,108,1.05847096443176,truck,cat,c03,0107_con_s01_c03_cat_10_n02123394_2632.JPEG
subject-01,1,109,0.880806922912598,chair,clock,c01,0108_con_s01_c01_clock_10_n02708093_7929.JPEG
subject-01,1,110,0.84135913848877,oven,oven,c05,0109_con_s01_c05_oven_10_n04111531_2923.JPEG
subject-01,1,111,0.748085021972656,boat,boat,c03,0110_con_s01_c03_boat_10_n02951358_34234.JPEG
subject-01,1,112,1.00631499290466,bottle,boat,c01,0111_con_s01_c01_boat_10_n03344393_8761.JPEG
subject-01,1,113,NaN,na,boat,c03,0112_con_s01_c03_boat_10_n03344393_2676.JPEG
subject-01,1,114,0.879384994506836,dog,dog,c10,0113_con_s01_c10_dog_10_n02108422_2739.JPEG
subject-01,1,115,0.694166898727417,car,car,c50,0114_con_s01_c50_car_10_n03100240_21982.JPEG
subject-01,1,116,0.662737131118774,oven,oven,c100,0115_con_s01_c100_oven_10_n04111531_6567.JPEG
subject-01,1,117,1.41311407089233,chair,chair,c10,0116_con_s01_c10_chair_10_n04429376_311.JPEG
subject-01,1,118,1.0118510723114,elephant,elephant,c15,0117_con_s01_c15_elephant_10_n02504013_2479.JPEG
subject-01,1,119,1.1104109287262,keyboard,keyboard,c50,0118_con_s01_c50_keyboard_10_n03085013_20682.JPEG
subject-01,1,120,1.07948303222656,car,dog,c01,0119_con_s01_c01_dog_10_n02098105_2086.JPEG
subject-01,1,121,0.823128938674927,oven,oven,c05,0120_con_s01_c05_oven_10_n04111531_4944.JPEG
subject-01,1,122,1.00583100318909,bottle,knife,c15,0121_con_s01_c15_knife_10_n03041632_3326.JPEG
subject-01,1,123,1.18075299263,bear,truck,c01,0122_con_s01_c01_truck_10_n03796401_2226.JPEG
subject-01,1,124,1.05697202682495,bicycle,oven,c01,0123_con_s01_c01_oven_10_n04111531_797.JPEG
subject-01,1,125,0.815331935882568,airplane,bicycle,c03,0124_con_s01_c03_bicycle_10_n02835271_3832.JPEG
subject-01,1,126,0.784095048904419,clock,clock,c30,0125_con_s01_c30_clock_10_n03196217_3780.JPEG
subject-01,1,127,0.714594125747681,clock,clock,c10,0126_con_s01_c10_clock_10_n03196217_1271.JPEG
subject-01,1,128,0.756166934967041,car,car,c15,0127_con_s01_c15_car_10_n03100240_10096.JPEG
subject-01,1,129,1.30347490310669,dog,dog,c10,0128_con_s01_c10_dog_10_n02110806_642.JPEG
subject-01,1,130,1.15577507019043,keyboard,elephant,c01,0129_con_s01_c01_elephant_10_n02504458_7207.JPEG
subject-01,1,131,0.91641902923584,knife,knife,c05,0130_con_s01_c05_knife_10_n03041632_52371.JPEG
subject-01,1,132,0.90674901008606,airplane,knife,c03,0131_con_s01_c03_knife_10_n03041632_41381.JPEG
subject-01,1,133,0.919210910797119,dog,dog,c100,0132_con_s01_c100_dog_10_n02109047_14207.JPEG
subject-01,1,134,1.24758291244507,clock,clock,c50,0133_con_s01_c50_clock_10_n02708093_596.JPEG
subject-01,1,135,0.846366882324219,car,cat,c01,0134_con_s01_c01_cat_10_n02125311_28331.JPEG
subject-01,1,136,1.1986289024353,cat,bicycle,c15,0135_con_s01_c15_bicycle_10_n03792782_9651.JPEG
subject-01,1,137,0.650943994522095,boat,boat,c30,0136_con_s01_c30_boat_10_n04273569_1709.JPEG
subject-01,1,138,1.31761288642883,car,car,c03,0137_con_s01_c03_car_10_n04285008_296.JPEG
subject-01,1,139,1.33995914459229,bird,bird,c50,0138_con_s01_c50_bird_10_n01860187_810.JPEG
subject-01,1,140,0.876601934432983,keyboard,keyboard,c50,0139_con_s01_c50_keyboard_10_n03085013_661.JPEG
subject-01,1,141,0.729105949401855,oven,oven,c100,0140_con_s01_c100_oven_10_n04111531_9867.JPEG
subject-01,1,142,1.21158599853516,bottle,bottle,c50,0141_con_s01_c50_bottle_10_n02823428_5288.JPEG
subject-01,1,143,0.893863916397095,bottle,boat,c01,0142_con_s01_c01_boat_10_n04612504_19983.JPEG
subject-01,1,144,1.0707540512085,bottle,chair,c03,0143_con_s01_c03_chair_10_n02791124_1333.JPEG
subject-01,1,145,0.768452882766724,clock,clock,c05,0144_con_s01_c05_clock_10_n04548280_4758.JPEG
subject-01,1,146,0.688737869262695,cat,cat,c100,0145_con_s01_c100_cat_10_n02123394_2984.JPEG
subject-01,1,147,0.995323896408081,boat,boat,c30,0146_con_s01_c30_boat_10_n03344393_4583.JPEG
subject-01,1,148,0.956433057785034,clock,clock,c100,0147_con_s01_c100_clock_10_n04548280_2588.JPEG
subject-01,1,149,0.838891983032227,oven,dog,c10,0148_con_s01_c10_dog_10_n02111129_932.JPEG
subject-01,1,150,0.913309097290039,truck,truck,c05,0149_con_s01_c05_truck_10_n04467665_11609.JPEG
subject-01,1,151,0.819864988327026,bear,bear,c10,0150_con_s01_c10_bear_10_n02132136_10514.JPEG
subject-01,1,152,0.742581844329834,clock,clock,c10,0151_con_s01_c10_clock_10_n03196217_11471.JPEG
subject-01,1,153,1.10879492759705,bear,elephant,c10,0152_con_s01_c10_elephant_10_n02504458_7817.JPEG
subject-01,1,154,1.04550099372864,cat,knife,c10,0153_con_s01_c10_knife_10_n03041632_31037.JPEG
subject-01,1,155,0.775654077529907,boat,boat,c100,0154_con_s01_c100_boat_10_n02951358_3087.JPEG
subject-01,1,156,0.782632112503052,bottle,bottle,c100,0155_con_s01_c100_bottle_10_n03983396_2182.JPEG
subject-01,1,157,0.794910907745361,car,car,c30,0156_con_s01_c30_car_10_n02814533_5183.JPEG
subject-01,1,158,1.05589890480042,keyboard,keyboard,c05,0157_con_s01_c05_keyboard_10_n04505470_6080.JPEG
subject-01,1,159,1.13029003143311,bird,truck,c01,0158_con_s01_c01_truck_10_n04467665_3720.JPEG
subject-01,1,160,0.958446979522705,airplane,airplane,c30,0159_con_s01_c30_airplane_10_n02690373_8789.JPEG
subject-01,1,161,0.956847906112671,knife,bird,c03,0160_con_s01_c03_bird_10_n02006656_2496.JPEG
subject-01,1,162,1.14774203300476,bicycle,clock,c01,0161_con_s01_c01_clock_10_n02708093_6957.JPEG
subject-01,1,163,1.27038407325745,bear,boat,c03,0162_con_s01_c03_boat_10_n03662601_18803.JPEG
subject-01,1,164,1.15309286117554,dog,dog,c10,0163_con_s01_c10_dog_10_n02109961_14816.JPEG
subject-01,1,165,1.21943593025208,airplane,boat,c50,0164_con_s01_c50_boat_10_n03662601_20110.JPEG
subject-01,1,166,0.888197898864746,dog,dog,c100,0165_con_s01_c100_dog_10_n02091831_4110.JPEG
subject-01,1,167,1.06486487388611,car,keyboard,c01,0166_con_s01_c01_keyboard_10_n04505470_4950.JPEG
subject-01,1,168,0.893120050430298,bird,bear,c01,0167_con_s01_c01_bear_10_n02133161_789.JPEG
subject-01,1,169,0.999544858932495,bird,bird,c30,0168_con_s01_c30_bird_10_n01514859_8317.JPEG
subject-01,1,170,0.928109884262085,chair,elephant,c01,0169_con_s01_c01_elephant_10_n02504458_4244.JPEG
subject-01,1,171,0.734341859817505,bottle,airplane,c01,0170_con_s01_c01_airplane_10_n02690373_3492.JPEG
subject-01,1,172,0.900866031646729,bear,bear,c15,0171_con_s01_c15_bear_10_n02134084_1689.JPEG
subject-01,1,173,0.874989986419678,boat,airplane,c03,0172_con_s01_c03_airplane_10_n02690373_9317.JPEG
subject-01,1,174,0.881256103515625,clock,clock,c15,0173_con_s01_c15_clock_10_n02708093_2025.JPEG
subject-01,1,175,0.9096519947052,car,car,c30,0174_con_s01_c30_car_10_n03100240_3499.JPEG
subject-01,1,176,0.885978937149048,keyboard,keyboard,c15,0175_con_s01_c15_keyboard_10_n03085013_13615.JPEG
subject-01,1,177,1.25202393531799,chair,knife,c03,0176_con_s01_c03_knife_10_n03041632_26236.JPEG
subject-01,1,178,0.988922834396362,bird,bird,c30,0177_con_s01_c30_bird_10_n01592084_1228.JPEG
subject-01,1,179,1.20311093330383,knife,knife,c10,0178_con_s01_c10_knife_10_n03041632_11741.JPEG
subject-01,1,180,1.13984990119934,knife,knife,c50,0179_con_s01_c50_knife_10_n03041632_50423.JPEG
subject-01,1,181,0.954271078109741,truck,dog,c01,0180_con_s01_c01_dog_10_n02097658_6391.JPEG
subject-01,1,182,0.78252911567688,chair,chair,c10,0181_con_s01_c10_chair_10_n04099969_4009.JPEG
subject-01,1,183,1.15713095664978,keyboard,keyboard,c30,0182_con_s01_c30_keyboard_10_n04505470_4803.JPEG
subject-01,1,184,0.709540128707886,clock,clock,c15,0183_con_s01_c15_clock_10_n03196217_2447.JPEG
subject-01,1,185,0.670327186584473,bicycle,bicycle,c10,0184_con_s01_c10_bicycle_10_n02835271_12764.JPEG
subject-01,1,186,1.06085801124573,airplane,airplane,c15,0185_con_s01_c15_airplane_10_n02690373_9712.JPEG
subject-01,1,187,0.675023794174194,boat,boat,c50,0186_con_s01_c50_boat_10_n03662601_12226.JPEG
subject-01,1,188,1.1408360004425,car,car,c03,0187_con_s01_c03_car_10_n04285008_2460.JPEG
subject-01,1,189,0.90929913520813,keyboard,dog,c05,0188_con_s01_c05_dog_10_n02111129_2245.JPEG
subject-01,1,190,1.00575804710388,elephant,elephant,c05,0189_con_s01_c05_elephant_10_n02504013_648.JPEG
subject-01,1,191,1.31181788444519,elephant,dog,c05,0190_con_s01_c05_dog_10_n02108422_4529.JPEG
subject-01,1,192,0.902425050735474,truck,truck,c15,0191_con_s01_c15_truck_10_n04467665_80098.JPEG
subject-01,1,193,0.692336082458496,clock,clock,c15,0192_con_s01_c15_clock_10_n02708093_5429.JPEG
subject-01,1,194,0.707298994064331,cat,cat,c100,0193_con_s01_c100_cat_10_n02123394_2755.JPEG
subject-01,1,195,0.62958812713623,boat,chair,c15,0194_con_s01_c15_chair_10_n02791124_15853.JPEG
subject-01,1,196,0.820044994354248,chair,chair,c100,0195_con_s01_c100_chair_10_n03376595_16212.JPEG
subject-01,1,197,0.748265027999878,bear,bear,c50,0196_con_s01_c50_bear_10_n02134084_21462.JPEG
subject-01,1,198,0.84677791595459,bird,chair,c01,0197_con_s01_c01_chair_10_n03376595_1364.JPEG
subject-01,1,199,1.46739912033081,bird,bird,c50,0198_con_s01_c50_bird_10_n01616318_603.JPEG
subject-01,1,200,0.727813959121704,car,car,c100,0199_con_s01_c100_car_10_n03100240_9019.JPEG
subject-01,1,201,1.06458520889282,truck,bottle,c05,0200_con_s01_c05_bottle_10_n03937543_2873.JPEG
subject-01,1,202,0.832941055297852,airplane,airplane,c100,0201_con_s01_c100_airplane_10_n02690373_9322.JPEG
subject-01,1,203,0.831357955932617,oven,oven,c05,0202_con_s01_c05_oven_10_n04111531_8181.JPEG
subject-01,1,204,0.791397094726562,bird,bird,c15,0203_con_s01_c15_bird_10_n02009229_6149.JPEG
subject-01,1,205,0.920013189315796,chair,chair,c03,0204_con_s01_c03_chair_10_n04099969_3804.JPEG
subject-01,1,206,0.956421852111816,chair,bottle,c15,0205_con_s01_c15_bottle_10_n04557648_1634.JPEG
subject-01,1,207,0.931082010269165,bottle,bicycle,c01,0206_con_s01_c01_bicycle_10_n02835271_1436.JPEG
subject-01,1,208,0.795933961868286,bird,bird,c100,0207_con_s01_c100_bird_10_n01797886_465.JPEG
subject-01,1,209,0.732290029525757,boat,boat,c30,0208_con_s01_c30_boat_10_n04273569_3085.JPEG
subject-01,1,210,1.15489816665649,cat,dog,c100,0209_con_s01_c100_dog_10_n02090622_4585.JPEG
subject-01,1,211,0.753733158111572,chair,chair,c30,0210_con_s01_c30_chair_10_n03376595_1024.JPEG
subject-01,1,212,1.32025694847107,boat,oven,c01,0211_con_s01_c01_oven_10_n04111531_22120.JPEG
subject-01,1,213,1.164705991745,dog,dog,c15,0212_con_s01_c15_dog_10_n02085782_6792.JPEG
subject-01,1,214,0.83313512802124,bear,bear,c30,0213_con_s01_c30_bear_10_n02133161_4091.JPEG
subject-01,1,215,0.663683891296387,boat,boat,c50,0214_con_s01_c50_boat_10_n02951358_8285.JPEG
subject-01,1,216,0.814291000366211,bicycle,bicycle,c100,0215_con_s01_c100_bicycle_10_n03792782_18190.JPEG
subject-01,1,217,0.980024099349976,car,boat,c03,0216_con_s01_c03_boat_10_n02951358_15072.JPEG
subject-01,1,218,1.04796004295349,car,car,c05,0217_con_s01_c05_car_10_n03100240_8591.JPEG
subject-01,1,219,1.14398097991943,knife,airplane,c01,0218_con_s01_c01_airplane_10_n02690373_1797.JPEG
subject-01,1,220,0.89659595489502,bottle,bottle,c100,0219_con_s01_c100_bottle_10_n02823428_6050.JPEG
subject-01,1,221,0.832959175109863,chair,cat,c03,0220_con_s01_c03_cat_10_n02124075_12797.JPEG
subject-01,1,222,0.639405012130737,boat,boat,c100,0221_con_s01_c100_boat_10_n04273569_24747.JPEG
subject-01,1,223,0.892102956771851,bottle,bottle,c50,0222_con_s01_c50_bottle_10_n02823428_6731.JPEG
subject-01,1,224,0.890490055084229,truck,chair,c03,0223_con_s01_c03_chair_10_n04099969_27865.JPEG
subject-01,1,225,0.772978067398071,clock,clock,c100,0224_con_s01_c100_clock_10_n03196217_7199.JPEG
subject-01,1,226,0.893369913101196,clock,clock,c05,0225_con_s01_c05_clock_10_n02708093_4798.JPEG
subject-01,1,227,0.670008897781372,boat,bear,c30,0226_con_s01_c30_bear_10_n02134084_14775.JPEG
subject-01,1,228,0.69853401184082,boat,boat,c30,0227_con_s01_c30_boat_10_n02951358_29825.JPEG
subject-01,1,229,1.23455715179443,keyboard,keyboard,c50,0228_con_s01_c50_keyboard_10_n03085013_18907.JPEG
subject-01,1,230,0.847206830978394,elephant,elephant,c100,0229_con_s01_c100_elephant_10_n02504013_2340.JPEG
subject-01,1,231,0.883178949356079,bear,bear,c50,0230_con_s01_c50_bear_10_n02134084_7250.JPEG
subject-01,1,232,1.01968908309937,boat,bicycle,c15,0231_con_s01_c15_bicycle_10_n03792782_7331.JPEG
subject-01,1,233,0.804040908813477,car,truck,c05,0232_con_s01_c05_truck_10_n03796401_3509.JPEG
subject-01,1,234,0.938961982727051,elephant,elephant,c05,0233_con_s01_c05_elephant_10_n02504013_7005.JPEG
subject-01,1,235,0.715435981750488,keyboard,keyboard,c100,0234_con_s01_c100_keyboard_10_n03085013_21534.JPEG
subject-01,1,236,0.905729055404663,boat,airplane,c30,0235_con_s01_c30_airplane_10_n02690373_9175.JPEG
subject-01,1,237,1.31821918487549,truck,truck,c100,0236_con_s01_c100_truck_10_n04467665_52409.JPEG
subject-01,1,238,1.16280102729797,bottle,airplane,c03,0237_con_s01_c03_airplane_10_n02690373_1996.JPEG
subject-01,1,239,0.799221038818359,car,car,c05,0238_con_s01_c05_car_10_n04285008_12539.JPEG
subject-01,1,240,0.836071014404297,chair,chair,c05,0239_con_s01_c05_chair_10_n03376595_8953.JPEG
subject-01,1,241,1.20296597480774,bottle,truck,c03,0240_con_s01_c03_truck_10_n03417042_751.JPEG
subject-01,1,242,1.10090517997742,bird,oven,c03,0241_con_s01_c03_oven_10_n04111531_5659.JPEG
subject-01,1,243,0.731327056884766,cat,cat,c15,0242_con_s01_c15_cat_10_n02123045_20719.JPEG
subject-01,1,244,0.973721027374268,keyboard,keyboard,c10,0243_con_s01_c10_keyboard_10_n03085013_7286.JPEG
subject-01,1,245,0.772276878356934,airplane,airplane,c03,0244_con_s01_c03_airplane_10_n02690373_166.JPEG
subject-01,1,246,0.856561899185181,keyboard,keyboard,c03,0245_con_s01_c03_keyboard_10_n04505470_9663.JPEG
subject-01,1,247,0.844690084457397,cat,bicycle,c15,0246_con_s01_c15_bicycle_10_n03792782_12884.JPEG
subject-01,1,248,1.02917098999023,bird,oven,c05,0247_con_s01_c05_oven_10_n04111531_9297.JPEG
subject-01,1,249,1.01771903038025,boat,bird,c03,0248_con_s01_c03_bird_10_n01860187_728.JPEG
subject-01,1,250,1.00799894332886,knife,bicycle,c01,0249_con_s01_c01_bicycle_10_n02835271_10283.JPEG
subject-01,1,251,0.860415935516357,bird,bird,c05,0250_con_s01_c05_bird_10_n02027492_3072.JPEG
subject-01,1,252,0.766932964324951,clock,clock,c30,0251_con_s01_c30_clock_10_n04548280_5278.JPEG
subject-01,1,253,0.879266023635864,bear,bear,c100,0252_con_s01_c100_bear_10_n02132136_14778.JPEG
subject-01,1,254,1.03184795379639,dog,dog,c30,0253_con_s01_c30_dog_10_n02094258_1334.JPEG
subject-01,1,255,0.875543117523193,airplane,airplane,c100,0254_con_s01_c100_airplane_10_n02690373_13078.JPEG
subject-01,1,256,0.711967945098877,car,bear,c01,0255_con_s01_c01_bear_10_n02134084_4477.JPEG
subject-01,1,257,0.866722822189331,clock,bottle,c50,0256_con_s01_c50_bottle_10_n04560804_5756.JPEG
subject-01,1,258,0.962425947189331,airplane,airplane,c30,0257_con_s01_c30_airplane_10_n02690373_18848.JPEG
subject-01,1,259,0.99028205871582,car,boat,c10,0258_con_s01_c10_boat_10_n03344393_6638.JPEG
subject-01,1,260,1.15079283714294,car,bear,c05,0259_con_s01_c05_bear_10_n02134084_13014.JPEG
subject-01,1,261,0.9950270652771,knife,knife,c05,0260_con_s01_c05_knife_10_n03041632_3247.JPEG
subject-01,1,262,1.10713410377502,keyboard,keyboard,c50,0261_con_s01_c50_keyboard_10_n03085013_14279.JPEG
subject-01,1,263,1.15969085693359,truck,clock,c05,0262_con_s01_c05_clock_10_n04548280_10066.JPEG
subject-01,1,264,0.766332864761353,boat,boat,c30,0263_con_s01_c30_boat_10_n02951358_2013.JPEG
subject-01,1,265,0.923892021179199,boat,elephant,c15,0264_con_s01_c15_elephant_10_n02504013_1792.JPEG
subject-01,1,266,0.983964920043945,cat,knife,c10,0265_con_s01_c10_knife_10_n03041632_14916.JPEG
subject-01,1,267,0.812780857086182,chair,bicycle,c01,0266_con_s01_c01_bicycle_10_n02835271_8212.JPEG
subject-01,1,268,1.04837799072266,clock,clock,c05,0267_con_s01_c05_clock_10_n02708093_3750.JPEG
subject-01,1,269,1.15412783622742,chair,chair,c30,0268_con_s01_c30_chair_10_n02791124_7207.JPEG
subject-01,1,270,1.06075000762939,elephant,dog,c03,0269_con_s01_c03_dog_10_n02094433_9787.JPEG
subject-01,1,271,0.696607828140259,boat,boat,c15,0270_con_s01_c15_boat_10_n03662601_1667.JPEG
subject-01,1,272,0.616866111755371,clock,clock,c30,0271_con_s01_c30_clock_10_n03196217_6814.JPEG
subject-01,1,273,1.15278506278992,bird,bird,c100,0272_con_s01_c100_bird_10_n01558993_5185.JPEG
subject-01,1,274,0.721755027770996,airplane,airplane,c05,0273_con_s01_c05_airplane_10_n02690373_6002.JPEG
subject-01,1,275,0.979722023010254,chair,keyboard,c50,0274_con_s01_c50_keyboard_10_n03085013_24111.JPEG
subject-01,1,276,0.877923965454102,truck,truck,c100,0275_con_s01_c100_truck_10_n04467665_27096.JPEG
subject-01,1,277,0.838034152984619,dog,boat,c01,0276_con_s01_c01_boat_10_n03344393_2838.JPEG
subject-01,1,278,0.850316047668457,chair,chair,c100,0277_con_s01_c100_chair_10_n04099969_9017.JPEG
subject-01,1,279,1.13819289207458,oven,oven,c15,0278_con_s01_c15_oven_10_n04111531_6094.JPEG
subject-01,1,280,0.776643037796021,boat,boat,c03,0279_con_s01_c03_boat_10_n03344393_4213.JPEG
subject-01,1,281,0.929227113723755,bird,elephant,c03,0280_con_s01_c03_elephant_10_n02504013_11033.JPEG
subject-01,1,282,0.85001015663147,car,knife,c01,0281_con_s01_c01_knife_10_n03041632_81630.JPEG
subject-01,1,283,0.656641006469727,clock,clock,c15,0282_con_s01_c15_clock_10_n04548280_5519.JPEG
subject-01,1,284,0.76246190071106,bottle,bottle,c100,0283_con_s01_c100_bottle_10_n04557648_2052.JPEG
subject-01,1,285,1.09914207458496,car,chair,c05,0284_con_s01_c05_chair_10_n02791124_1371.JPEG
subject-01,1,286,0.881922960281372,truck,truck,c03,0285_con_s01_c03_truck_10_n04467665_28988.JPEG
subject-01,1,287,0.71762490272522,chair,chair,c30,0286_con_s01_c30_chair_10_n02791124_3370.JPEG
subject-01,1,288,1.36221504211426,truck,truck,c10,0287_con_s01_c10_truck_10_n03417042_14261.JPEG
subject-01,1,289,0.998509883880615,clock,clock,c05,0288_con_s01_c05_clock_10_n03196217_10641.JPEG
subject-01,1,290,0.94253396987915,dog,bear,c100,0289_con_s01_c100_bear_10_n02134084_19791.JPEG
subject-01,1,291,1.10877394676208,elephant,bear,c01,0290_con_s01_c01_bear_10_n02132136_10428.JPEG
subject-01,1,292,1.49999809265137,bicycle,bicycle,c50,0291_con_s01_c50_bicycle_10_n02835271_5751.JPEG
subject-01,1,293,0.759967088699341,bird,bird,c50,0292_con_s01_c50_bird_10_n01855032_1815.JPEG
subject-01,1,294,0.925863981246948,bottle,dog,c15,0293_con_s01_c15_dog_10_n02108000_4202.JPEG
subject-01,1,295,0.918476819992065,clock,truck,c03,0294_con_s01_c03_truck_10_n04467665_9266.JPEG
subject-01,1,296,0.968955993652344,elephant,elephant,c10,0295_con_s01_c10_elephant_10_n02504458_4997.JPEG
subject-01,1,297,1.05133199691772,bicycle,bicycle,c10,0296_con_s01_c10_bicycle_10_n03792782_68259.JPEG
subject-01,1,298,0.881164073944092,knife,knife,c30,0297_con_s01_c30_knife_10_n03041632_24561.JPEG
subject-01,1,299,0.785613059997559,car,bird,c03,0298_con_s01_c03_bird_10_n01855672_14214.JPEG
subject-01,1,300,0.961752891540527,car,car,c15,0299_con_s01_c15_car_10_n04285008_628.JPEG
subject-01,1,301,0.811804056167603,bottle,bottle,c05,0300_con_s01_c05_bottle_10_n04591713_6975.JPEG
subject-01,1,302,0.856240034103394,truck,chair,c01,0301_con_s01_c01_chair_10_n03376595_6173.JPEG
subject-01,1,303,0.80327582359314,bird,airplane,c01,0302_con_s01_c01_airplane_10_n02690373_5266.JPEG
subject-01,1,304,1.01557207107544,oven,oven,c50,0303_con_s01_c50_oven_10_n04111531_5801.JPEG
subject-01,1,305,0.713846921920776,boat,car,c01,0304_con_s01_c01_car_10_n04285008_7325.JPEG
subject-01,1,306,0.742598056793213,elephant,elephant,c30,0305_con_s01_c30_elephant_10_n02504458_3225.JPEG
subject-01,1,307,0.832832098007202,elephant,elephant,c50,0306_con_s01_c50_elephant_10_n02504013_6552.JPEG
subject-01,1,308,1.19374489784241,cat,cat,c05,0307_con_s01_c05_cat_10_n02124075_1382.JPEG
subject-01,1,309,1.13013696670532,dog,bear,c10,0308_con_s01_c10_bear_10_n02133161_15177.JPEG
subject-01,1,310,0.774749994277954,bicycle,bicycle,c05,0309_con_s01_c05_bicycle_10_n03792782_38641.JPEG
subject-01,1,311,0.773135900497437,car,car,c01,0310_con_s01_c01_car_10_n03100240_3289.JPEG
subject-01,1,312,1.01729798316956,keyboard,keyboard,c05,0311_con_s01_c05_keyboard_10_n03085013_12399.JPEG
subject-01,1,313,0.975841045379639,airplane,clock,c03,0312_con_s01_c03_clock_10_n04548280_750.JPEG
subject-01,1,314,1.00668096542358,truck,knife,c01,0313_con_s01_c01_knife_10_n03041632_13846.JPEG
subject-01,1,315,0.897051095962524,clock,clock,c50,0314_con_s01_c50_clock_10_n03196217_6257.JPEG
subject-01,1,316,0.817738056182861,bottle,bottle,c30,0315_con_s01_c30_bottle_10_n04579145_466.JPEG
subject-01,1,317,0.748360872268677,bird,bird,c50,0316_con_s01_c50_bird_10_n01829413_14594.JPEG
subject-01,1,318,1.23671913146973,chair,chair,c01,0317_con_s01_c01_chair_10_n03376595_9603.JPEG
subject-01,1,319,1.15715503692627,boat,truck,c05,0318_con_s01_c05_truck_10_n04467665_8955.JPEG
subject-01,1,320,0.957519054412842,chair,chair,c30,0319_con_s01_c30_chair_10_n02791124_3850.JPEG
subject-01,1,321,0.747900009155273,oven,oven,c30,0320_con_s01_c30_oven_10_n04111531_8235.JPEG
subject-01,1,322,1.24446511268616,cat,car,c03,0321_con_s01_c03_car_10_n02814533_2236.JPEG
subject-01,1,323,0.791141986846924,truck,truck,c05,0322_con_s01_c05_truck_10_n03796401_20641.JPEG
subject-01,1,324,0.841336011886597,cat,cat,c15,0323_con_s01_c15_cat_10_n02123045_11224.JPEG
subject-01,1,325,0.855985879898071,dog,dog,c50,0324_con_s01_c50_dog_10_n02093991_6192.JPEG
subject-01,1,326,0.791712045669556,knife,dog,c01,0325_con_s01_c01_dog_10_n02090622_1126.JPEG
subject-01,1,327,0.996981143951416,keyboard,bird,c01,0326_con_s01_c01_bird_10_n01820546_1616.JPEG
subject-01,1,328,1.15691208839417,keyboard,keyboard,c15,0327_con_s01_c15_keyboard_10_n04505470_5057.JPEG
subject-01,1,329,0.76946496963501,elephant,dog,c01,0328_con_s01_c01_dog_10_n02111500_8079.JPEG
subject-01,1,330,0.722394943237305,car,car,c05,0329_con_s01_c05_car_10_n02814533_4491.JPEG
subject-01,1,331,0.712772846221924,keyboard,keyboard,c05,0330_con_s01_c05_keyboard_10_n04505470_1929.JPEG
subject-01,1,332,0.83535099029541,elephant,elephant,c100,0331_con_s01_c100_elephant_10_n02504458_6611.JPEG
subject-01,1,333,0.71842098236084,cat,car,c01,0332_con_s01_c01_car_10_n02814533_32835.JPEG
subject-01,1,334,0.738428831100464,cat,dog,c30,0333_con_s01_c30_dog_10_n02110958_15843.JPEG
subject-01,1,335,0.874680995941162,elephant,elephant,c30,0334_con_s01_c30_elephant_10_n02504013_6211.JPEG
subject-01,1,336,0.71354603767395,boat,boat,c15,0335_con_s01_c15_boat_10_n02951358_1678.JPEG
subject-01,1,337,0.850238084793091,bird,elephant,c03,0336_con_s01_c03_elephant_10_n02504013_7467.JPEG
subject-01,1,338,0.68682599067688,oven,oven,c50,0337_con_s01_c50_oven_10_n04111531_5126.JPEG
subject-01,1,339,0.869159936904907,cat,cat,c05,0338_con_s01_c05_cat_10_n02123045_390.JPEG
subject-01,1,340,1.1356680393219,cat,cat,c10,0339_con_s01_c10_cat_10_n02123159_6932.JPEG
subject-01,1,341,0.612239122390747,cat,cat,c100,0340_con_s01_c100_cat_10_n02123045_9845.JPEG
subject-01,1,342,0.900273084640503,car,oven,c03,0341_con_s01_c03_oven_10_n04111531_4795.JPEG
subject-01,1,343,0.768208980560303,chair,chair,c03,0342_con_s01_c03_chair_10_n04099969_3536.JPEG
subject-01,1,344,0.964914083480835,keyboard,keyboard,c30,0343_con_s01_c30_keyboard_10_n03085013_24103.JPEG
subject-01,1,345,0.67150092124939,cat,cat,c15,0344_con_s01_c15_cat_10_n02123597_10086.JPEG
subject-01,1,346,0.916172981262207,bicycle,bicycle,c100,0345_con_s01_c100_bicycle_10_n03792782_4474.JPEG
subject-01,1,347,0.930335998535156,oven,truck,c01,0346_con_s01_c01_truck_10_n04467665_13193.JPEG
subject-01,1,348,1.18917322158813,elephant,elephant,c05,0347_con_s01_c05_elephant_10_n02504458_1816.JPEG
subject-01,1,349,0.986978054046631,bear,bear,c10,0348_con_s01_c10_bear_10_n02132136_8975.JPEG
subject-01,1,350,1.1069610118866,car,bird,c03,0349_con_s01_c03_bird_10_n01592084_5936.JPEG
subject-01,1,351,0.805631160736084,chair,knife,c03,0350_con_s01_c03_knife_10_n03041632_8321.JPEG
subject-01,1,352,1.23222184181213,cat,dog,c50,0351_con_s01_c50_dog_10_n02104029_2132.JPEG
subject-01,1,353,0.67851996421814,airplane,airplane,c100,0352_con_s01_c100_airplane_10_n02690373_220.JPEG
subject-01,1,354,0.821255922317505,dog,truck,c03,0353_con_s01_c03_truck_10_n04467665_22358.JPEG
subject-01,1,355,1.02738904953003,knife,knife,c01,0354_con_s01_c01_knife_10_n03041632_50332.JPEG
subject-01,1,356,1.2314760684967,car,car,c05,0355_con_s01_c05_car_10_n03100240_9011.JPEG
subject-01,1,357,0.916011095046997,boat,boat,c10,0356_con_s01_c10_boat_10_n03344393_5511.JPEG
subject-01,1,358,1.02069902420044,bicycle,bicycle,c15,0357_con_s01_c15_bicycle_10_n03792782_5557.JPEG
subject-01,1,359,0.805076837539673,boat,boat,c100,0358_con_s01_c100_boat_10_n02951358_1541.JPEG
subject-01,1,360,0.633466958999634,boat,keyboard,c30,0359_con_s01_c30_keyboard_10_n03085013_18945.JPEG
subject-01,1,361,0.992131948471069,chair,truck,c01,0360_con_s01_c01_truck_10_n04467665_13231.JPEG
subject-01,1,362,0.960661888122559,elephant,elephant,c30,0361_con_s01_c30_elephant_10_n02504013_4295.JPEG
subject-01,1,363,0.8349769115448,keyboard,knife,c01,0362_con_s01_c01_knife_10_n03041632_1964.JPEG
subject-01,1,364,1.05572485923767,chair,dog,c03,0363_con_s01_c03_dog_10_n02097474_9129.JPEG
subject-01,1,365,1.38382506370544,chair,oven,c05,0364_con_s01_c05_oven_10_n04111531_6628.JPEG
subject-01,1,366,NaN,na,knife,c05,0365_con_s01_c05_knife_10_n03041632_32774.JPEG
subject-01,1,367,0.848796844482422,oven,elephant,c03,0366_con_s01_c03_elephant_10_n02504458_5320.JPEG
subject-01,1,368,0.884468078613281,cat,cat,c10,0367_con_s01_c10_cat_10_n02125311_32129.JPEG
subject-01,1,369,1.18909692764282,car,chair,c01,0368_con_s01_c01_chair_10_n02791124_2597.JPEG
subject-01,1,370,0.803534984588623,airplane,airplane,c30,0369_con_s01_c30_airplane_10_n02690373_5146.JPEG
subject-01,1,371,0.978048801422119,bird,bird,c100,0370_con_s01_c100_bird_10_n01819313_7109.JPEG
subject-01,1,372,0.854928970336914,car,bear,c01,0371_con_s01_c01_bear_10_n02132136_17669.JPEG
subject-01,1,373,0.945188045501709,dog,dog,c50,0372_con_s01_c50_dog_10_n02102177_5341.JPEG
subject-01,1,374,0.749753952026367,airplane,airplane,c05,0373_con_s01_c05_airplane_10_n02690373_1169.JPEG
subject-01,1,375,1.2546010017395,bicycle,truck,c30,0374_con_s01_c30_truck_10_n03796401_15097.JPEG
subject-01,1,376,1.2143931388855,bear,bear,c10,0375_con_s01_c10_bear_10_n02134418_128.JPEG
subject-01,1,377,0.867166996002197,bottle,bear,c30,0376_con_s01_c30_bear_10_n02133161_5365.JPEG
subject-01,1,378,0.833523988723755,airplane,airplane,c10,0377_con_s01_c10_airplane_10_n02690373_4375.JPEG
subject-01,1,379,0.74535608291626,cat,cat,c30,0378_con_s01_c30_cat_10_n02123159_5257.JPEG
subject-01,1,380,0.913806915283203,oven,oven,c50,0379_con_s01_c50_oven_10_n04111531_15743.JPEG
subject-01,1,381,0.704190969467163,airplane,airplane,c50,0380_con_s01_c50_airplane_10_n02690373_5382.JPEG
subject-01,1,382,0.903481960296631,car,car,c03,0381_con_s01_c03_car_10_n04285008_1453.JPEG
subject-01,1,383,0.723559856414795,cat,bird,c03,0382_con_s01_c03_bird_10_n02011460_2886.JPEG
subject-01,1,384,1.21187090873718,keyboard,keyboard,c05,0383_con_s01_c05_keyboard_10_n04505470_8822.JPEG
subject-01,1,385,0.844132900238037,bear,bear,c100,0384_con_s01_c100_bear_10_n02134418_4372.JPEG
subject-01,1,386,0.720698118209839,cat,cat,c50,0385_con_s01_c50_cat_10_n02123159_6132.JPEG
subject-01,1,387,0.895062923431396,elephant,elephant,c30,0386_con_s01_c30_elephant_10_n02504013_476.JPEG
subject-01,1,388,0.801789999008179,bottle,bottle,c30,0387_con_s01_c30_bottle_10_n03983396_6287.JPEG
subject-01,1,389,1.20618891716003,bird,oven,c03,0388_con_s01_c03_oven_10_n04111531_14951.JPEG
subject-01,1,390,1.32650399208069,car,elephant,c03,0389_con_s01_c03_elephant_10_n02504458_6972.JPEG
subject-01,1,391,0.9410560131073,bird,bird,c10,0390_con_s01_c10_bird_10_n01622779_684.JPEG
subject-01,1,392,0.878071069717407,airplane,bird,c01,0391_con_s01_c01_bird_10_n02037110_12288.JPEG
subject-01,1,393,0.684577941894531,boat,boat,c100,0392_con_s01_c100_boat_10_n02951358_14528.JPEG
subject-01,1,394,0.753184080123901,bird,bird,c100,0393_con_s01_c100_bird_10_n01530575_34173.JPEG
subject-01,1,395,1.20345592498779,car,car,c50,0394_con_s01_c50_car_10_n03100240_977.JPEG
subject-01,1,396,0.710233926773071,bird,bird,c30,0395_con_s01_c30_bird_10_n01534433_3428.JPEG
subject-01,1,397,0.946881055831909,car,car,c50,0396_con_s01_c50_car_10_n02814533_71838.JPEG
subject-01,1,398,0.64542293548584,keyboard,keyboard,c30,0397_con_s01_c30_keyboard_10_n03085013_21399.JPEG
subject-01,1,399,1.11955189704895,knife,keyboard,c100,0398_con_s01_c100_keyboard_10_n03085013_2808.JPEG
subject-01,1,400,NaN,na,dog,c50,0399_con_s01_c50_dog_10_n02097209_1658.JPEG
subject-01,1,401,1.48470401763916,knife,bear,c30,0400_con_s01_c30_bear_10_n02134084_20142.JPEG
subject-01,1,402,0.774896860122681,keyboard,oven,c01,0401_con_s01_c01_oven_10_n04111531_5102.JPEG
subject-01,1,403,0.811378002166748,bird,bird,c100,0402_con_s01_c100_bird_10_n02027492_10246.JPEG
subject-01,1,404,0.856034994125366,bird,bird,c05,0403_con_s01_c05_bird_10_n02025239_3669.JPEG
subject-01,1,405,0.754497051239014,bicycle,bicycle,c30,0404_con_s01_c30_bicycle_10_n02835271_8881.JPEG
subject-01,1,406,0.991034984588623,cat,cat,c05,0405_con_s01_c05_cat_10_n02123159_6590.JPEG
subject-01,1,407,0.680575847625732,clock,clock,c100,0406_con_s01_c100_clock_10_n03196217_4947.JPEG
subject-01,1,408,0.617364883422852,boat,clock,c15,0407_con_s01_c15_clock_10_n03196217_1458.JPEG
subject-01,1,409,0.621397018432617,boat,boat,c50,0408_con_s01_c50_boat_10_n04273569_4380.JPEG
subject-01,1,410,0.973678827285767,bird,chair,c05,0409_con_s01_c05_chair_10_n04099969_3686.JPEG
subject-01,1,411,0.824018001556396,dog,bottle,c03,0410_con_s01_c03_bottle_10_n03937543_4916.JPEG
subject-01,1,412,0.792447090148926,airplane,airplane,c05,0411_con_s01_c05_airplane_10_n02690373_4402.JPEG
subject-01,1,413,0.883502960205078,oven,oven,c05,0412_con_s01_c05_oven_10_n04111531_7097.JPEG
subject-01,1,414,0.865724086761475,car,bottle,c03,0413_con_s01_c03_bottle_10_n03983396_7378.JPEG
subject-01,1,415,0.726530075073242,chair,dog,c01,0414_con_s01_c01_dog_10_n02106550_660.JPEG
subject-01,1,416,1.19897699356079,bottle,car,c01,0415_con_s01_c01_car_10_n04285008_4868.JPEG
subject-01,1,417,1.39725589752197,cat,dog,c50,0416_con_s01_c50_dog_10_n02087046_4421.JPEG
subject-01,1,418,0.903932094573975,elephant,elephant,c100,0417_con_s01_c100_elephant_10_n02504458_5561.JPEG
subject-01,1,419,0.756367921829224,keyboard,knife,c03,0418_con_s01_c03_knife_10_n03041632_3171.JPEG
subject-01,1,420,0.830857038497925,keyboard,cat,c03,0419_con_s01_c03_cat_10_n02124075_2751.JPEG
subject-01,1,421,0.813738822937012,oven,knife,c01,0420_con_s01_c01_knife_10_n03041632_27022.JPEG
subject-01,1,422,0.636161804199219,chair,clock,c01,0421_con_s01_c01_clock_10_n04548280_1325.JPEG
subject-01,1,423,0.726729869842529,oven,oven,c10,0422_con_s01_c10_oven_10_n04111531_8309.JPEG
subject-01,1,424,1.08512592315674,elephant,elephant,c50,0423_con_s01_c50_elephant_10_n02504458_209.JPEG
subject-01,1,425,1.3676450252533,knife,knife,c03,0424_con_s01_c03_knife_10_n03041632_89912.JPEG
subject-01,1,426,0.833863019943237,car,car,c05,0425_con_s01_c05_car_10_n03100240_5718.JPEG
subject-01,1,427,0.970553159713745,bear,bear,c100,0426_con_s01_c100_bear_10_n02133161_741.JPEG
subject-01,1,428,0.88493800163269,bicycle,bicycle,c50,0427_con_s01_c50_bicycle_10_n02835271_7958.JPEG
subject-01,1,429,0.707068920135498,bottle,bottle,c50,0428_con_s01_c50_bottle_10_n03983396_105.JPEG
subject-01,1,430,0.849893093109131,car,car,c30,0429_con_s01_c30_car_10_n02814533_5155.JPEG
subject-01,1,431,1.4463369846344,airplane,boat,c10,0430_con_s01_c10_boat_10_n03344393_8869.JPEG
subject-01,1,432,0.854840040206909,airplane,airplane,c10,0431_con_s01_c10_airplane_10_n02690373_8804.JPEG
subject-01,1,433,0.759349822998047,oven,elephant,c01,0432_con_s01_c01_elephant_10_n02504458_5483.JPEG
subject-01,1,434,0.941834926605225,chair,elephant,c03,0433_con_s01_c03_elephant_10_n02504458_1328.JPEG
subject-01,1,435,0.677751064300537,oven,cat,c05,0434_con_s01_c05_cat_10_n02123597_13769.JPEG
subject-01,1,436,0.822204828262329,airplane,airplane,c15,0435_con_s01_c15_airplane_10_n02690373_2643.JPEG
subject-01,1,437,0.744753122329712,oven,bottle,c05,0436_con_s01_c05_bottle_10_n04560804_21795.JPEG
subject-01,1,438,1.10357308387756,knife,knife,c30,0437_con_s01_c30_knife_10_n03041632_11285.JPEG
subject-01,1,439,1.01006698608398,chair,chair,c50,0438_con_s01_c50_chair_10_n04099969_48172.JPEG
subject-01,1,440,0.784482002258301,oven,elephant,c03,0439_con_s01_c03_elephant_10_n02504013_3739.JPEG
subject-01,1,441,1.01245284080505,bear,dog,c05,0440_con_s01_c05_dog_10_n02086079_37199.JPEG
subject-01,1,442,0.809287071228027,truck,dog,c03,0441_con_s01_c03_dog_10_n02088632_747.JPEG
subject-01,1,443,0.961586952209473,dog,dog,c100,0442_con_s01_c100_dog_10_n02107908_3490.JPEG
subject-01,1,444,1.13579988479614,cat,elephant,c10,0443_con_s01_c10_elephant_10_n02504013_2128.JPEG
subject-01,1,445,0.742059946060181,airplane,airplane,c30,0444_con_s01_c30_airplane_10_n02690373_7401.JPEG
subject-01,1,446,0.692763090133667,cat,cat,c15,0445_con_s01_c15_cat_10_n02123045_5200.JPEG
subject-01,1,447,0.96710991859436,elephant,elephant,c100,0446_con_s01_c100_elephant_10_n02504013_7248.JPEG
subject-01,1,448,0.605735063552856,boat,boat,c15,0447_con_s01_c15_boat_10_n03344393_6363.JPEG
subject-01,1,449,0.932522773742676,car,car,c50,0448_con_s01_c50_car_10_n04285008_507.JPEG
subject-01,1,450,1.00104904174805,bottle,bottle,c05,0449_con_s01_c05_bottle_10_n04591713_4019.JPEG
subject-01,1,451,0.799665927886963,keyboard,keyboard,c100,0450_con_s01_c100_keyboard_10_n03085013_12175.JPEG
subject-01,1,452,1.02812385559082,clock,chair,c03,0451_con_s01_c03_chair_10_n04099969_2472.JPEG
subject-01,1,453,0.856371879577637,bear,bear,c01,0452_con_s01_c01_bear_10_n02133161_16808.JPEG
subject-01,1,454,0.823539972305298,car,car,c03,0453_con_s01_c03_car_10_n02814533_33602.JPEG
subject-01,1,455,0.951885938644409,bear,bear,c15,0454_con_s01_c15_bear_10_n02134418_2175.JPEG
subject-01,1,456,0.771373987197876,bird,bird,c05,0455_con_s01_c05_bird_10_n01797886_12811.JPEG
subject-01,1,457,0.723901033401489,cat,truck,c30,0456_con_s01_c30_truck_10_n03796401_7699.JPEG
subject-01,1,458,0.928282976150513,bottle,bird,c01,0457_con_s01_c01_bird_10_n01601694_11888.JPEG
subject-01,1,459,0.850974082946777,chair,chair,c100,0458_con_s01_c100_chair_10_n04099969_1490.JPEG
subject-01,1,460,0.741269111633301,keyboard,keyboard,c15,0459_con_s01_c15_keyboard_10_n04505470_4761.JPEG
subject-01,1,461,1.35975003242493,cat,airplane,c10,0460_con_s01_c10_airplane_10_n02690373_6549.JPEG
subject-01,1,462,0.628287076950073,bicycle,bicycle,c100,0461_con_s01_c100_bicycle_10_n03792782_5966.JPEG
subject-01,1,463,0.604603052139282,cat,cat,c05,0462_con_s01_c05_cat_10_n02125311_22459.JPEG
subject-01,1,464,0.985355138778687,airplane,airplane,c10,0463_con_s01_c10_airplane_10_n02690373_7408.JPEG
subject-01,1,465,0.92979097366333,cat,cat,c15,0464_con_s01_c15_cat_10_n02123159_7607.JPEG
subject-01,1,466,1.25848507881165,car,chair,c05,0465_con_s01_c05_chair_10_n02791124_2611.JPEG
subject-01,1,467,0.735046863555908,oven,knife,c05,0466_con_s01_c05_knife_10_n03041632_46112.JPEG
subject-01,1,468,0.771652936935425,keyboard,elephant,c03,0467_con_s01_c03_elephant_10_n02504013_6426.JPEG
subject-01,1,469,1.06808805465698,keyboard,keyboard,c05,0468_con_s01_c05_keyboard_10_n03085013_22929.JPEG
subject-01,1,470,1.07240700721741,truck,truck,c05,0469_con_s01_c05_truck_10_n03417042_19958.JPEG
subject-01,1,471,0.963042020797729,bottle,bicycle,c50,0470_con_s01_c50_bicycle_10_n03792782_15138.JPEG
subject-01,1,472,0.839363813400269,car,car,c15,0471_con_s01_c15_car_10_n02814533_3117.JPEG
subject-01,1,473,1.17385601997375,cat,chair,c10,0472_con_s01_c10_chair_10_n04429376_4391.JPEG
subject-01,1,474,1.1103880405426,cat,bear,c100,0473_con_s01_c100_bear_10_n02134418_3073.JPEG
subject-01,1,475,1.06257581710815,car,clock,c50,0474_con_s01_c50_clock_10_n02708093_404.JPEG
subject-01,1,476,1.29943418502808,bird,bird,c15,0475_con_s01_c15_bird_10_n01860187_38598.JPEG
subject-01,1,477,0.973540067672729,boat,boat,c50,0476_con_s01_c50_boat_10_n03344393_4243.JPEG
subject-01,1,478,0.804409980773926,bicycle,bicycle,c10,0477_con_s01_c10_bicycle_10_n02835271_19143.JPEG
subject-01,1,479,0.97078800201416,truck,truck,c15,0478_con_s01_c15_truck_10_n04467665_66065.JPEG
subject-01,1,480,1.02313780784607,chair,cat,c01,0479_con_s01_c01_cat_10_n02123394_7700.JPEG
subject-01,1,481,0.943511009216309,bottle,oven,c01,0480_con_s01_c01_oven_10_n04111531_6993.JPEG
subject-01,1,482,0.804199934005737,cat,bird,c05,0481_con_s01_c05_bird_10_n02056570_13462.JPEG
subject-01,1,483,1.00864005088806,elephant,elephant,c15,0482_con_s01_c15_elephant_10_n02504013_5439.JPEG
subject-01,1,484,0.869268894195557,bottle,bottle,c30,0483_con_s01_c30_bottle_10_n03983396_10229.JPEG
subject-01,1,485,0.835541009902954,cat,bear,c05,0484_con_s01_c05_bear_10_n02134418_3579.JPEG
subject-01,1,486,0.926392078399658,chair,oven,c10,0485_con_s01_c10_oven_10_n04111531_13255.JPEG
subject-01,1,487,0.900540113449097,car,truck,c01,0486_con_s01_c01_truck_10_n03417042_23038.JPEG
subject-01,1,488,1.06678986549377,elephant,bear,c10,0487_con_s01_c10_bear_10_n02133161_14945.JPEG
subject-01,1,489,1.00332093238831,keyboard,keyboard,c10,0488_con_s01_c10_keyboard_10_n04505470_1692.JPEG
subject-01,1,490,0.985796928405762,bear,bear,c05,0489_con_s01_c05_bear_10_n02132136_1726.JPEG
subject-01,1,491,0.79246997833252,airplane,airplane,c05,0490_con_s01_c05_airplane_10_n02690373_8746.JPEG
subject-01,1,492,0.950730085372925,elephant,elephant,c10,0491_con_s01_c10_elephant_10_n02504013_2616.JPEG
subject-01,1,493,1.24728894233704,keyboard,chair,c10,0492_con_s01_c10_chair_10_n04429376_56624.JPEG
subject-01,1,494,1.29179406166077,elephant,bear,c05,0493_con_s01_c05_bear_10_n02133161_313.JPEG
subject-01,1,495,0.874264001846313,airplane,airplane,c30,0494_con_s01_c30_airplane_10_n02690373_9718.JPEG
subject-01,1,496,0.810802221298218,cat,cat,c03,0495_con_s01_c03_cat_10_n02123045_840.JPEG
subject-01,1,497,1.20922112464905,bird,cat,c01,0496_con_s01_c01_cat_10_n02123597_8052.JPEG
subject-01,1,498,1.33553409576416,truck,truck,c05,0497_con_s01_c05_truck_10_n03417042_13806.JPEG
subject-01,1,499,1.2663471698761,truck,truck,c100,0498_con_s01_c100_truck_10_n03796401_3608.JPEG
subject-01,1,500,1.01887106895447,car,clock,c01,0499_con_s01_c01_clock_10_n02708093_2574.JPEG
subject-01,1,501,1.06925702095032,oven,oven,c15,0500_con_s01_c15_oven_10_n04111531_7034.JPEG
subject-01,1,502,0.799511194229126,airplane,airplane,c05,0501_con_s01_c05_airplane_10_n02690373_1773.JPEG
subject-01,1,503,0.787871122360229,oven,cat,c30,0502_con_s01_c30_cat_10_n02123045_11032.JPEG
subject-01,1,504,0.856471061706543,bottle,bottle,c100,0503_con_s01_c100_bottle_10_n04557648_988.JPEG
subject-01,1,505,1.16082406044006,bottle,keyboard,c01,0504_con_s01_c01_keyboard_10_n03085013_23005.JPEG
subject-01,1,506,0.859241962432861,knife,knife,c10,0505_con_s01_c10_knife_10_n03041632_24646.JPEG
subject-01,1,507,0.941676139831543,airplane,oven,c01,0506_con_s01_c01_oven_10_n04111531_5533.JPEG
subject-01,1,508,0.840210914611816,boat,dog,c03,0507_con_s01_c03_dog_10_n02102480_7875.JPEG
subject-01,1,509,0.71484112739563,car,car,c100,0508_con_s01_c100_car_10_n04285008_12446.JPEG
subject-01,1,510,0.689376831054688,airplane,airplane,c50,0509_con_s01_c50_airplane_10_n02690373_848.JPEG
subject-01,1,511,1.50023198127747,knife,knife,c10,0510_con_s01_c10_knife_10_n03041632_38996.JPEG
subject-01,1,512,0.924398183822632,clock,clock,c15,0511_con_s01_c15_clock_10_n04548280_5087.JPEG
subject-01,1,513,0.861931085586548,airplane,airplane,c100,0512_con_s01_c100_airplane_10_n02690373_5007.JPEG
subject-01,1,514,1.2442421913147,knife,knife,c100,0513_con_s01_c100_knife_10_n03041632_10263.JPEG
subject-01,1,515,0.921005010604858,oven,keyboard,c03,0514_con_s01_c03_keyboard_10_n04505470_4797.JPEG
subject-01,1,516,1.02755498886108,airplane,airplane,c15,0515_con_s01_c15_airplane_10_n02690373_5869.JPEG
subject-01,1,517,0.679733037948608,clock,clock,c50,0516_con_s01_c50_clock_10_n04548280_3586.JPEG
subject-01,1,518,0.838104963302612,bear,bear,c50,0517_con_s01_c50_bear_10_n02134084_33007.JPEG
subject-01,1,519,0.93641209602356,bear,bear,c15,0518_con_s01_c15_bear_10_n02132136_6352.JPEG
subject-01,1,520,0.918736934661865,chair,chair,c50,0519_con_s01_c50_chair_10_n02791124_5824.JPEG
subject-01,1,521,0.809154033660889,car,car,c30,0520_con_s01_c30_car_10_n03100240_11693.JPEG
subject-01,1,522,1.22188806533813,bottle,bottle,c10,0521_con_s01_c10_bottle_10_n04557648_818.JPEG
subject-01,1,523,0.966234922409058,bear,bear,c03,0522_con_s01_c03_bear_10_n02134084_169.JPEG
subject-01,1,524,1.11853790283203,oven,truck,c50,0523_con_s01_c50_truck_10_n03417042_3952.JPEG
subject-01,1,525,0.778990030288696,knife,knife,c100,0524_con_s01_c100_knife_10_n03041632_46720.JPEG
subject-01,1,526,1.02369713783264,airplane,bird,c05,0525_con_s01_c05_bird_10_n01534433_14198.JPEG
subject-01,1,527,0.919654846191406,bicycle,bicycle,c30,0526_con_s01_c30_bicycle_10_n02835271_4677.JPEG
subject-01,1,528,0.996637105941772,bottle,bottle,c15,0527_con_s01_c15_bottle_10_n02823428_780.JPEG
subject-01,1,529,1.16336989402771,car,car,c100,0528_con_s01_c100_car_10_n02814533_26369.JPEG
subject-01,1,530,0.839608907699585,keyboard,keyboard,c30,0529_con_s01_c30_keyboard_10_n04505470_709.JPEG
subject-01,1,531,1.2981858253479,car,car,c10,0530_con_s01_c10_car_10_n03100240_3373.JPEG
subject-01,1,532,1.05862498283386,elephant,elephant,c10,0531_con_s01_c10_elephant_10_n02504013_1833.JPEG
subject-01,1,533,1.25702381134033,clock,clock,c05,0532_con_s01_c05_clock_10_n04548280_8322.JPEG
subject-01,1,534,1.03162097930908,elephant,elephant,c30,0533_con_s01_c30_elephant_10_n02504458_5337.JPEG
subject-01,1,535,0.984354972839355,keyboard,keyboard,c30,0534_con_s01_c30_keyboard_10_n03085013_2272.JPEG
subject-01,1,536,0.958552122116089,bottle,bottle,c30,0535_con_s01_c30_bottle_10_n02823428_4387.JPEG
subject-01,1,537,1.48702597618103,bicycle,bottle,c03,0536_con_s01_c03_bottle_10_n03937543_5257.JPEG
subject-01,1,538,0.777416229248047,keyboard,keyboard,c10,0537_con_s01_c10_keyboard_10_n03085013_19818.JPEG
subject-01,1,539,0.837811946868896,elephant,elephant,c30,0538_con_s01_c30_elephant_10_n02504458_3409.JPEG
subject-01,1,540,1.2662558555603,keyboard,keyboard,c03,0539_con_s01_c03_keyboard_10_n04505470_5022.JPEG
subject-01,1,541,1.31889700889587,oven,bird,c30,0540_con_s01_c30_bird_10_n01843383_296.JPEG
subject-01,1,542,0.733104944229126,car,truck,c50,0541_con_s01_c50_truck_10_n03796401_296.JPEG
subject-01,1,543,1.00760006904602,truck,truck,c10,0542_con_s01_c10_truck_10_n03417042_25458.JPEG
subject-01,1,544,0.966179847717285,bicycle,bicycle,c50,0543_con_s01_c50_bicycle_10_n03792782_17571.JPEG
subject-01,1,545,0.988826990127563,cat,cat,c100,0544_con_s01_c100_cat_10_n02124075_5186.JPEG
subject-01,1,546,1.10955882072449,chair,chair,c01,0545_con_s01_c01_chair_10_n04099969_6913.JPEG
subject-01,1,547,0.931931018829346,boat,boat,c15,0546_con_s01_c15_boat_10_n02951358_4972.JPEG
subject-01,1,548,1.40682005882263,cat,oven,c15,0547_con_s01_c15_oven_10_n04111531_11634.JPEG
subject-01,1,549,1.32090616226196,dog,dog,c03,0548_con_s01_c03_dog_10_n02099429_1992.JPEG
subject-01,1,550,0.849331855773926,dog,dog,c30,0549_con_s01_c30_dog_10_n02093991_9672.JPEG
subject-01,1,551,0.993745088577271,truck,truck,c05,0550_con_s01_c05_truck_10_n03796401_21407.JPEG
subject-01,1,552,0.76216983795166,bicycle,bicycle,c100,0551_con_s01_c100_bicycle_10_n02835271_22549.JPEG
subject-01,1,553,1.20714402198792,keyboard,keyboard,c15,0552_con_s01_c15_keyboard_10_n04505470_725.JPEG
subject-01,1,554,0.851646900177002,cat,cat,c100,0553_con_s01_c100_cat_10_n02123597_6972.JPEG
subject-01,1,555,0.796144962310791,airplane,airplane,c100,0554_con_s01_c100_airplane_10_n02690373_9720.JPEG
subject-01,1,556,1.13290810585022,knife,knife,c100,0555_con_s01_c100_knife_10_n03041632_7495.JPEG
subject-01,1,557,0.823451042175293,oven,bear,c15,0556_con_s01_c15_bear_10_n02134084_24140.JPEG
subject-01,1,558,0.913955926895142,chair,chair,c10,0557_con_s01_c10_chair_10_n02791124_1358.JPEG
subject-01,1,559,0.996582984924316,bicycle,car,c01,0558_con_s01_c01_car_10_n02814533_3590.JPEG
subject-01,1,560,0.756551027297974,bear,cat,c01,0559_con_s01_c01_cat_10_n02124075_13792.JPEG
subject-01,1,561,0.893411874771118,dog,dog,c15,0560_con_s01_c15_dog_10_n02094114_8231.JPEG
subject-01,1,562,0.729381084442139,bottle,bottle,c10,0561_con_s01_c10_bottle_10_n04579145_784.JPEG
subject-01,1,563,0.789760828018188,car,elephant,c01,0562_con_s01_c01_elephant_10_n02504458_5331.JPEG
subject-01,1,564,0.963942050933838,bird,bird,c01,0563_con_s01_c01_bird_10_n02017213_2183.JPEG
subject-01,1,565,0.746572017669678,keyboard,cat,c01,0564_con_s01_c01_cat_10_n02123045_6066.JPEG
subject-01,1,566,0.752730131149292,dog,dog,c100,0565_con_s01_c100_dog_10_n02102177_988.JPEG
subject-01,1,567,1.19514012336731,elephant,dog,c10,0566_con_s01_c10_dog_10_n02105251_7686.JPEG
subject-01,1,568,0.687796831130981,chair,bear,c03,0567_con_s01_c03_bear_10_n02134418_1102.JPEG
subject-01,1,569,0.778479099273682,bird,bird,c10,0568_con_s01_c10_bird_10_n02009229_263.JPEG
subject-01,1,570,1.19888496398926,bicycle,bicycle,c10,0569_con_s01_c10_bicycle_10_n03792782_7182.JPEG
subject-01,1,571,0.965801954269409,bear,bear,c05,0570_con_s01_c05_bear_10_n02133161_467.JPEG
subject-01,1,572,0.788048028945923,cat,knife,c15,0571_con_s01_c15_knife_10_n03041632_27709.JPEG
subject-01,1,573,0.840467929840088,knife,knife,c50,0572_con_s01_c50_knife_10_n03041632_41310.JPEG
subject-01,1,574,1.02330088615417,car,truck,c01,0573_con_s01_c01_truck_10_n03796401_21335.JPEG
subject-01,1,575,0.721772193908691,chair,chair,c50,0574_con_s01_c50_chair_10_n04429376_15534.JPEG
subject-01,1,576,1.01998615264893,dog,cat,c15,0575_con_s01_c15_cat_10_n02125311_24985.JPEG
subject-01,1,577,0.933266162872314,dog,dog,c15,0576_con_s01_c15_dog_10_n02091032_3390.JPEG
subject-01,1,578,0.792698860168457,truck,truck,c10,0577_con_s01_c10_truck_10_n04467665_56815.JPEG
subject-01,1,579,1.22939109802246,knife,knife,c30,0578_con_s01_c30_knife_10_n03041632_51339.JPEG
subject-01,1,580,1.1280300617218,dog,cat,c100,0579_con_s01_c100_cat_10_n02123597_14032.JPEG
subject-01,1,581,1.08569097518921,keyboard,bicycle,c03,0580_con_s01_c03_bicycle_10_n02835271_1573.JPEG
subject-01,1,582,1.00622510910034,clock,clock,c10,0581_con_s01_c10_clock_10_n04548280_183.JPEG
subject-01,1,583,0.728680849075317,keyboard,keyboard,c30,0582_con_s01_c30_keyboard_10_n03085013_20462.JPEG
subject-01,1,584,0.981080055236816,airplane,airplane,c03,0583_con_s01_c03_airplane_10_n02690373_12929.JPEG
subject-01,1,585,0.77160906791687,cat,cat,c50,0584_con_s01_c50_cat_10_n02124075_10241.JPEG
subject-01,1,586,1.10019302368164,dog,dog,c03,0585_con_s01_c03_dog_10_n02096437_6849.JPEG
subject-01,1,587,0.936734914779663,dog,dog,c15,0586_con_s01_c15_dog_10_n02102177_835.JPEG
subject-01,1,588,1.14903903007507,dog,elephant,c30,0587_con_s01_c30_elephant_10_n02504013_7539.JPEG
subject-01,1,589,1.193519115448,chair,chair,c50,0588_con_s01_c50_chair_10_n02791124_2173.JPEG
subject-01,1,590,0.583508014678955,boat,boat,c100,0589_con_s01_c100_boat_10_n02951358_14624.JPEG
subject-01,1,591,0.966695785522461,car,boat,c01,0590_con_s01_c01_boat_10_n04273569_15906.JPEG
subject-01,1,592,0.864647150039673,boat,bottle,c10,0591_con_s01_c10_bottle_10_n04557648_2904.JPEG
subject-01,1,593,0.765742063522339,cat,airplane,c01,0592_con_s01_c01_airplane_10_n02690373_20042.JPEG
subject-01,1,594,0.723198890686035,chair,bottle,c01,0593_con_s01_c01_bottle_10_n04591713_6164.JPEG
subject-01,1,595,0.705826044082642,oven,oven,c100,0594_con_s01_c100_oven_10_n04111531_13560.JPEG
subject-01,1,596,1.01245188713074,chair,chair,c30,0595_con_s01_c30_chair_10_n04099969_9891.JPEG
subject-01,1,597,0.978502035140991,chair,truck,c03,0596_con_s01_c03_truck_10_n04467665_276.JPEG
subject-01,1,598,0.992892026901245,knife,knife,c50,0597_con_s01_c50_knife_10_n03041632_17859.JPEG
subject-01,1,599,1.1213550567627,keyboard,bottle,c01,0598_con_s01_c01_bottle_10_n03937543_10092.JPEG
subject-01,1,600,0.75797700881958,clock,clock,c30,0599_con_s01_c30_clock_10_n04548280_2283.JPEG
subject-01,1,601,0.647801876068115,cat,cat,c30,0600_con_s01_c30_cat_10_n02123045_1484.JPEG
subject-01,1,602,0.800033807754517,bicycle,bicycle,c05,0601_con_s01_c05_bicycle_10_n03792782_5284.JPEG
subject-01,1,603,0.958930015563965,airplane,airplane,c100,0602_con_s01_c100_airplane_10_n02690373_5141.JPEG
subject-01,1,604,0.989230871200562,truck,truck,c30,0603_con_s01_c30_truck_10_n04467665_2199.JPEG
subject-01,1,605,1.18000411987305,bird,bear,c01,0604_con_s01_c01_bear_10_n02133161_9134.JPEG
subject-01,1,606,1.43022584915161,truck,oven,c30,0605_con_s01_c30_oven_10_n04111531_10710.JPEG
subject-01,1,607,1.19060516357422,bicycle,bicycle,c50,0606_con_s01_c50_bicycle_10_n03792782_4826.JPEG
subject-01,1,608,0.927178859710693,keyboard,bear,c01,0607_con_s01_c01_bear_10_n02134084_5031.JPEG
subject-01,1,609,1.21165013313293,chair,chair,c15,0608_con_s01_c15_chair_10_n03376595_9482.JPEG
subject-01,1,610,1.1021511554718,airplane,clock,c01,0609_con_s01_c01_clock_10_n02708093_7998.JPEG
subject-01,1,611,0.700815200805664,bicycle,bicycle,c100,0610_con_s01_c100_bicycle_10_n03792782_10437.JPEG
subject-01,1,612,0.79905891418457,oven,oven,c15,0611_con_s01_c15_oven_10_n04111531_22403.JPEG
subject-01,1,613,1.15776896476746,airplane,airplane,c50,0612_con_s01_c50_airplane_10_n02690373_9059.JPEG
subject-01,1,614,0.780203104019165,boat,oven,c03,0613_con_s01_c03_oven_10_n04111531_8658.JPEG
subject-01,1,615,0.563172101974487,oven,oven,c100,0614_con_s01_c100_oven_10_n04111531_2758.JPEG
subject-01,1,616,0.899672985076904,truck,truck,c100,0615_con_s01_c100_truck_10_n03796401_26620.JPEG
subject-01,1,617,1.08963680267334,elephant,elephant,c100,0616_con_s01_c100_elephant_10_n02504458_1138.JPEG
subject-01,1,618,0.942190885543823,clock,clock,c30,0617_con_s01_c30_clock_10_n03196217_2307.JPEG
subject-01,1,619,0.726728916168213,bird,bird,c15,0618_con_s01_c15_bird_10_n02013706_8336.JPEG
subject-01,1,620,0.947406053543091,bird,bird,c30,0619_con_s01_c30_bird_10_n02011460_11838.JPEG
subject-01,1,621,0.7916100025177,airplane,airplane,c50,0620_con_s01_c50_airplane_10_n02690373_8539.JPEG
subject-01,1,622,0.966046094894409,oven,airplane,c03,0621_con_s01_c03_airplane_10_n02690373_8783.JPEG
subject-01,1,623,0.626553058624268,boat,boat,c50,0622_con_s01_c50_boat_10_n04273569_26139.JPEG
subject-01,1,624,0.963274002075195,oven,knife,c100,0623_con_s01_c100_knife_10_n03041632_35116.JPEG
subject-01,1,625,0.839876890182495,keyboard,keyboard,c100,0624_con_s01_c100_keyboard_10_n04505470_5068.JPEG
subject-01,1,626,0.66811203956604,boat,boat,c10,0625_con_s01_c10_boat_10_n04273569_14373.JPEG
subject-01,1,627,0.820513963699341,bear,bear,c10,0626_con_s01_c10_bear_10_n02134084_1346.JPEG
subject-01,1,628,1.2330060005188,chair,truck,c10,0627_con_s01_c10_truck_10_n03417042_7530.JPEG
subject-01,1,629,1.46177101135254,cat,bear,c05,0628_con_s01_c05_bear_10_n02132136_22602.JPEG
subject-01,1,630,1.18412303924561,knife,bicycle,c01,0629_con_s01_c01_bicycle_10_n02835271_5437.JPEG
subject-01,1,631,0.758646011352539,airplane,airplane,c10,0630_con_s01_c10_airplane_10_n02690373_9642.JPEG
subject-01,1,632,0.835446119308472,oven,knife,c50,0631_con_s01_c50_knife_10_n03041632_37274.JPEG
subject-01,1,633,1.14003992080688,chair,dog,c03,0632_con_s01_c03_dog_10_n02093991_247.JPEG
subject-01,1,634,0.770546197891235,bicycle,bicycle,c05,0633_con_s01_c05_bicycle_10_n03792782_26306.JPEG
subject-01,1,635,0.936834812164307,elephant,elephant,c15,0634_con_s01_c15_elephant_10_n02504013_3459.JPEG
subject-01,1,636,1.2573299407959,bottle,bottle,c15,0635_con_s01_c15_bottle_10_n04557648_6060.JPEG
subject-01,1,637,1.39401578903198,airplane,truck,c15,0636_con_s01_c15_truck_10_n04467665_67969.JPEG
subject-01,1,638,1.08648896217346,chair,chair,c100,0637_con_s01_c100_chair_10_n02791124_12707.JPEG
subject-01,1,639,0.784851789474487,boat,boat,c100,0638_con_s01_c100_boat_10_n04273569_12214.JPEG
subject-01,1,640,0.813497066497803,airplane,oven,c10,0639_con_s01_c10_oven_10_n04111531_13862.JPEG
subject-01,1,641,0.976909875869751,airplane,airplane,c10,0640_con_s01_c10_airplane_10_n02690373_5344.JPEG
subject-01,1,642,1.12130403518677,clock,clock,c30,0641_con_s01_c30_clock_10_n02708093_442.JPEG
subject-01,1,643,1.20386600494385,elephant,bear,c05,0642_con_s01_c05_bear_10_n02134084_6223.JPEG
subject-01,1,644,1.11855101585388,bottle,dog,c30,0643_con_s01_c30_dog_10_n02107312_860.JPEG
subject-01,1,645,0.992835998535156,bear,elephant,c10,0644_con_s01_c10_elephant_10_n02504013_1970.JPEG
subject-01,1,646,0.683263063430786,boat,boat,c100,0645_con_s01_c100_boat_10_n03344393_646.JPEG
subject-01,1,647,0.689736843109131,airplane,airplane,c50,0646_con_s01_c50_airplane_10_n02690373_2544.JPEG
subject-01,1,648,0.718348979949951,chair,chair,c100,0647_con_s01_c100_chair_10_n04099969_2502.JPEG
subject-01,1,649,1.44710111618042,bird,bottle,c01,0648_con_s01_c01_bottle_10_n04557648_11142.JPEG
subject-01,1,650,0.73186206817627,truck,truck,c30,0649_con_s01_c30_truck_10_n03417042_5346.JPEG
subject-01,1,651,0.65233588218689,oven,oven,c100,0650_con_s01_c100_oven_10_n04111531_6536.JPEG
subject-01,1,652,0.902738809585571,airplane,boat,c05,0651_con_s01_c05_boat_10_n02951358_15858.JPEG
subject-01,1,653,1.3474440574646,car,chair,c01,0652_con_s01_c01_chair_10_n02791124_2773.JPEG
subject-01,1,654,0.832064867019653,chair,chair,c15,0653_con_s01_c15_chair_10_n02791124_9757.JPEG
subject-01,1,655,0.976808071136475,bottle,knife,c10,0654_con_s01_c10_knife_10_n03041632_13108.JPEG
subject-01,1,656,0.872675895690918,chair,bottle,c03,0655_con_s01_c03_bottle_10_n04560804_15840.JPEG
subject-01,1,657,0.611379146575928,boat,boat,c50,0656_con_s01_c50_boat_10_n04612504_11939.JPEG
subject-01,1,658,1.03762197494507,knife,knife,c50,0657_con_s01_c50_knife_10_n03041632_1006.JPEG
subject-01,1,659,1.1362829208374,car,elephant,c10,0658_con_s01_c10_elephant_10_n02504013_4654.JPEG
subject-01,1,660,0.742876052856445,bottle,bottle,c10,0659_con_s01_c10_bottle_10_n04557648_2426.JPEG
subject-01,1,661,1.07138085365295,bicycle,bicycle,c100,0660_con_s01_c100_bicycle_10_n03792782_11297.JPEG
subject-01,1,662,1.19222784042358,dog,dog,c10,0661_con_s01_c10_dog_10_n02093428_592.JPEG
subject-01,1,663,0.75252103805542,bear,bear,c10,0662_con_s01_c10_bear_10_n02133161_546.JPEG
subject-01,1,664,0.934937953948975,truck,truck,c15,0663_con_s01_c15_truck_10_n03796401_4154.JPEG
subject-01,1,665,0.865823030471802,keyboard,keyboard,c03,0664_con_s01_c03_keyboard_10_n04505470_432.JPEG
subject-01,1,666,0.794319868087769,keyboard,keyboard,c15,0665_con_s01_c15_keyboard_10_n04505470_1236.JPEG
subject-01,1,667,0.83885383605957,car,car,c30,0666_con_s01_c30_car_10_n03100240_17245.JPEG
subject-01,1,668,0.813235998153687,cat,bottle,c100,0667_con_s01_c100_bottle_10_n03937543_2123.JPEG
subject-01,1,669,1.05763411521912,truck,truck,c15,0668_con_s01_c15_truck_10_n04467665_1015.JPEG
subject-01,1,670,0.755935907363892,bird,bird,c50,0669_con_s01_c50_bird_10_n01614925_1908.JPEG
subject-01,1,671,0.73883318901062,bird,bird,c30,0670_con_s01_c30_bird_10_n02013706_19220.JPEG
subject-01,1,672,1.12156105041504,dog,dog,c10,0671_con_s01_c10_dog_10_n02087394_9693.JPEG
subject-01,1,673,1.20401191711426,dog,dog,c100,0672_con_s01_c100_dog_10_n02101556_2504.JPEG
subject-01,1,674,0.858457803726196,boat,boat,c15,0673_con_s01_c15_boat_10_n03662601_6289.JPEG
subject-01,1,675,0.694880962371826,oven,oven,c30,0674_con_s01_c30_oven_10_n04111531_5776.JPEG
subject-01,1,676,0.815036058425903,boat,boat,c30,0675_con_s01_c30_boat_10_n03662601_5575.JPEG
subject-01,1,677,0.835434913635254,car,car,c05,0676_con_s01_c05_car_10_n03100240_159.JPEG
subject-01,1,678,0.849740982055664,bear,bear,c30,0677_con_s01_c30_bear_10_n02134418_76.JPEG
subject-01,1,679,0.832460880279541,bicycle,bicycle,c03,0678_con_s01_c03_bicycle_10_n03792782_27510.JPEG
subject-01,1,680,1.50032687187195,chair,bicycle,c03,0679_con_s01_c03_bicycle_10_n02835271_12405.JPEG
subject-01,1,681,0.621265888214111,boat,boat,c10,0680_con_s01_c10_boat_10_n03344393_4485.JPEG
subject-01,1,682,1.03600001335144,airplane,airplane,c30,0681_con_s01_c30_airplane_10_n02690373_7676.JPEG
subject-01,1,683,1.30851221084595,bottle,bottle,c15,0682_con_s01_c15_bottle_10_n03937543_3726.JPEG
subject-01,1,684,1.49069499969482,keyboard,keyboard,c10,0683_con_s01_c10_keyboard_10_n03085013_18649.JPEG
subject-01,1,685,1.20521211624146,oven,oven,c03,0684_con_s01_c03_oven_10_n04111531_8793.JPEG
subject-01,1,686,0.74993896484375,boat,boat,c10,0685_con_s01_c10_boat_10_n04273569_10292.JPEG
subject-01,1,687,0.664478063583374,car,car,c100,0686_con_s01_c100_car_10_n03100240_13707.JPEG
subject-01,1,688,0.809409856796265,oven,oven,c100,0687_con_s01_c100_oven_10_n04111531_14095.JPEG
subject-01,1,689,0.99959397315979,bear,elephant,c05,0688_con_s01_c05_elephant_10_n02504458_10243.JPEG
subject-01,1,690,0.665812015533447,boat,boat,c05,0689_con_s01_c05_boat_10_n03344393_5636.JPEG
subject-01,1,691,0.794080018997192,chair,knife,c100,0690_con_s01_c100_knife_10_n03041632_1143.JPEG
subject-01,1,692,0.770688056945801,bottle,bottle,c15,0691_con_s01_c15_bottle_10_n03983396_5559.JPEG
subject-01,1,693,0.674970865249634,boat,boat,c30,0692_con_s01_c30_boat_10_n03662601_12670.JPEG
subject-01,1,694,0.851349115371704,knife,knife,c15,0693_con_s01_c15_knife_10_n03041632_2058.JPEG
subject-01,1,695,0.818057060241699,bird,bird,c15,0694_con_s01_c15_bird_10_n01592084_4764.JPEG
subject-01,1,696,1.1088171005249,bottle,elephant,c15,0695_con_s01_c15_elephant_10_n02504458_4010.JPEG
subject-01,1,697,NaN,na,knife,c03,0696_con_s01_c03_knife_10_n03041632_31932.JPEG
subject-01,1,698,1.15685391426086,chair,chair,c05,0697_con_s01_c05_chair_10_n04429376_55163.JPEG
subject-01,1,699,1.06317090988159,bottle,bottle,c100,0698_con_s01_c100_bottle_10_n04557648_14715.JPEG
subject-01,1,700,1.01362299919128,bottle,knife,c50,0699_con_s01_c50_knife_10_n03041632_24950.JPEG
subject-01,1,701,1.17412805557251,knife,bird,c10,0700_con_s01_c10_bird_10_n02007558_45529.JPEG
subject-01,1,702,1.17869782447815,dog,dog,c30,0701_con_s01_c30_dog_10_n02097474_5234.JPEG
subject-01,1,703,0.817103147506714,knife,knife,c50,0702_con_s01_c50_knife_10_n03041632_39836.JPEG
subject-01,1,704,0.945551872253418,airplane,airplane,c30,0703_con_s01_c30_airplane_10_n02690373_5247.JPEG
subject-01,1,705,0.74928879737854,bird,bird,c100,0704_con_s01_c100_bird_10_n02028035_15091.JPEG
subject-01,1,706,0.717669010162354,boat,car,c05,0705_con_s01_c05_car_10_n02814533_872.JPEG
subject-01,1,707,1.2002649307251,car,bicycle,c05,0706_con_s01_c05_bicycle_10_n03792782_19774.JPEG
subject-01,1,708,0.782563924789429,airplane,airplane,c100,0707_con_s01_c100_airplane_10_n02690373_871.JPEG
subject-01,1,709,0.735289096832275,chair,chair,c05,0708_con_s01_c05_chair_10_n02791124_5191.JPEG
subject-01,1,710,0.987920999526978,bear,airplane,c03,0709_con_s01_c03_airplane_10_n02690373_13318.JPEG
subject-01,1,711,1.1541440486908,bird,bird,c50,0710_con_s01_c50_bird_10_n01592084_9643.JPEG
subject-01,1,712,0.882421016693115,car,car,c15,0711_con_s01_c15_car_10_n03100240_1856.JPEG
subject-01,1,713,0.897051095962524,chair,chair,c100,0712_con_s01_c100_chair_10_n03376595_7824.JPEG
subject-01,1,714,0.779510021209717,truck,truck,c15,0713_con_s01_c15_truck_10_n04467665_58158.JPEG
subject-01,1,715,1.0076630115509,truck,truck,c100,0714_con_s01_c100_truck_10_n03796401_1777.JPEG
subject-01,1,716,0.814566135406494,bird,bear,c10,0715_con_s01_c10_bear_10_n02134418_9289.JPEG
subject-01,1,717,0.934775114059448,truck,truck,c50,0716_con_s01_c50_truck_10_n03417042_9327.JPEG
subject-01,1,718,1.27920985221863,cat,bottle,c05,0717_con_s01_c05_bottle_10_n04579145_2910.JPEG
subject-01,1,719,0.707893848419189,keyboard,keyboard,c100,0718_con_s01_c100_keyboard_10_n04505470_3825.JPEG
subject-01,1,720,1.05224585533142,dog,dog,c100,0719_con_s01_c100_dog_10_n02104029_4704.JPEG
subject-01,1,721,0.812779188156128,airplane,airplane,c05,0720_con_s01_c05_airplane_10_n02690373_4945.JPEG
subject-01,1,722,0.681646108627319,cat,cat,c30,0721_con_s01_c30_cat_10_n02124075_11970.JPEG
subject-01,1,723,1.42398381233215,bottle,bottle,c15,0722_con_s01_c15_bottle_10_n04579145_6880.JPEG
subject-01,1,724,1.21436595916748,elephant,elephant,c50,0723_con_s01_c50_elephant_10_n02504458_3684.JPEG
subject-01,1,725,1.01298809051514,bicycle,bicycle,c50,0724_con_s01_c50_bicycle_10_n02835271_1701.JPEG
subject-01,1,726,0.74137806892395,keyboard,keyboard,c10,0725_con_s01_c10_keyboard_10_n03085013_24648.JPEG
subject-01,1,727,0.786067962646484,truck,truck,c50,0726_con_s01_c50_truck_10_n03417042_10993.JPEG
subject-01,1,728,0.808253049850464,bear,bear,c30,0727_con_s01_c30_bear_10_n02132136_4157.JPEG
subject-01,1,729,1.0527868270874,cat,bottle,c15,0728_con_s01_c15_bottle_10_n04591713_6842.JPEG
subject-01,1,730,1.5002110004425,truck,keyboard,c05,0729_con_s01_c05_keyboard_10_n03085013_1824.JPEG
subject-01,1,731,0.925735950469971,airplane,airplane,c50,0730_con_s01_c50_airplane_10_n02690373_911.JPEG
subject-01,1,732,1.01634383201599,clock,clock,c15,0731_con_s01_c15_clock_10_n02708093_118.JPEG
subject-01,1,733,1.17457103729248,airplane,boat,c05,0732_con_s01_c05_boat_10_n04273569_6586.JPEG
subject-01,1,734,0.927061080932617,truck,truck,c10,0733_con_s01_c10_truck_10_n04467665_2505.JPEG
subject-01,1,735,1.00927400588989,bird,bird,c10,0734_con_s01_c10_bird_10_n01532829_560.JPEG
subject-01,1,736,0.786067008972168,cat,cat,c30,0735_con_s01_c30_cat_10_n02123394_2285.JPEG
subject-01,1,737,0.836372852325439,bicycle,bicycle,c15,0736_con_s01_c15_bicycle_10_n03792782_20193.JPEG
subject-01,1,738,0.796777963638306,chair,chair,c50,0737_con_s01_c50_chair_10_n04099969_25664.JPEG
subject-01,1,739,1.23367881774902,airplane,car,c03,0738_con_s01_c03_car_10_n04285008_6325.JPEG
subject-01,1,740,0.87774395942688,truck,truck,c30,0739_con_s01_c30_truck_10_n03417042_3659.JPEG
subject-01,1,741,1.02861881256104,truck,truck,c100,0740_con_s01_c100_truck_10_n04467665_52762.JPEG
subject-01,1,742,0.688723087310791,clock,clock,c10,0741_con_s01_c10_clock_10_n03196217_4527.JPEG
subject-01,1,743,0.733292102813721,cat,dog,c01,0742_con_s01_c01_dog_10_n02107908_12294.JPEG
subject-01,1,744,0.83987283706665,airplane,airplane,c05,0743_con_s01_c05_airplane_10_n02690373_10657.JPEG
subject-01,1,745,1.12205600738525,dog,dog,c30,0744_con_s01_c30_dog_10_n02113799_18413.JPEG
subject-01,1,746,1.02094793319702,bird,boat,c03,0745_con_s01_c03_boat_10_n03662601_6462.JPEG
subject-01,1,747,1.00311207771301,dog,dog,c05,0746_con_s01_c05_dog_10_n02099849_6384.JPEG
subject-01,1,748,0.768709897994995,clock,clock,c50,0747_con_s01_c50_clock_10_n03196217_4526.JPEG
subject-01,1,749,1.0293869972229,truck,truck,c05,0748_con_s01_c05_truck_10_n04467665_70237.JPEG
subject-01,1,750,0.925591945648193,cat,cat,c15,0749_con_s01_c15_cat_10_n02125311_17613.JPEG
subject-01,1,751,1.19993019104004,bottle,boat,c01,0750_con_s01_c01_boat_10_n03344393_8143.JPEG
subject-01,1,752,0.730272054672241,oven,oven,c05,0751_con_s01_c05_oven_10_n04111531_21351.JPEG
subject-01,1,753,0.937119960784912,dog,dog,c15,0752_con_s01_c15_dog_10_n02090379_4952.JPEG
subject-01,1,754,0.965676069259644,oven,bear,c05,0753_con_s01_c05_bear_10_n02134418_6252.JPEG
subject-01,1,755,1.27798104286194,keyboard,keyboard,c03,0754_con_s01_c03_keyboard_10_n03085013_7858.JPEG
subject-01,1,756,1.05230689048767,oven,bottle,c10,0755_con_s01_c10_bottle_10_n03937543_2336.JPEG
subject-01,1,757,0.858807802200317,airplane,cat,c05,0756_con_s01_c05_cat_10_n02125311_37322.JPEG
subject-01,1,758,0.995609998703003,car,car,c03,0757_con_s01_c03_car_10_n02814533_87871.JPEG
subject-01,1,759,1.29997801780701,elephant,elephant,c30,0758_con_s01_c30_elephant_10_n02504013_1258.JPEG
subject-01,1,760,0.77628493309021,chair,chair,c03,0759_con_s01_c03_chair_10_n02791124_3245.JPEG
subject-01,1,761,0.888842821121216,bird,bottle,c01,0760_con_s01_c01_bottle_10_n02823428_4245.JPEG
subject-01,1,762,0.69510293006897,chair,chair,c15,0761_con_s01_c15_chair_10_n03376595_1961.JPEG
subject-01,1,763,1.03971695899963,oven,oven,c10,0762_con_s01_c10_oven_10_n04111531_10077.JPEG
subject-01,1,764,0.900104999542236,chair,cat,c03,0763_con_s01_c03_cat_10_n02123394_4164.JPEG
subject-01,1,765,0.76100492477417,oven,oven,c100,0764_con_s01_c100_oven_10_n04111531_114.JPEG
subject-01,1,766,1.16533994674683,cat,dog,c05,0765_con_s01_c05_dog_10_n02105162_8899.JPEG
subject-01,1,767,0.609824180603027,oven,bottle,c03,0766_con_s01_c03_bottle_10_n03937543_1840.JPEG
subject-01,1,768,0.832343101501465,bottle,bottle,c100,0767_con_s01_c100_bottle_10_n02823428_10933.JPEG
subject-01,1,769,0.867485046386719,boat,boat,c15,0768_con_s01_c15_boat_10_n03662601_3011.JPEG
subject-01,1,770,0.97225022315979,car,car,c15,0769_con_s01_c15_car_10_n03100240_2235.JPEG
subject-01,1,771,1.20842289924622,bicycle,knife,c01,0770_con_s01_c01_knife_10_n03041632_22570.JPEG
subject-01,1,772,1.23107004165649,chair,oven,c01,0771_con_s01_c01_oven_10_n04111531_21248.JPEG
subject-01,1,773,0.913376092910767,boat,car,c03,0772_con_s01_c03_car_10_n04285008_3193.JPEG
subject-01,1,774,0.981802940368652,cat,bird,c15,0773_con_s01_c15_bird_10_n02011460_2417.JPEG
subject-01,1,775,0.84870982170105,airplane,boat,c05,0774_con_s01_c05_boat_10_n04273569_20587.JPEG
subject-01,1,776,0.641556978225708,bear,bear,c50,0775_con_s01_c50_bear_10_n02132136_27823.JPEG
subject-01,1,777,0.723713874816895,airplane,airplane,c15,0776_con_s01_c15_airplane_10_n02690373_4866.JPEG
subject-01,1,778,0.773842096328735,bottle,bottle,c30,0777_con_s01_c30_bottle_10_n03983396_5545.JPEG
subject-01,1,779,0.688471794128418,car,car,c30,0778_con_s01_c30_car_10_n02814533_5147.JPEG
subject-01,1,780,0.917053937911987,bottle,oven,c05,0779_con_s01_c05_oven_10_n04111531_13277.JPEG
subject-01,1,781,1.11556005477905,keyboard,keyboard,c05,0780_con_s01_c05_keyboard_10_n04505470_3207.JPEG
subject-01,1,782,1.18200397491455,truck,clock,c03,0781_con_s01_c03_clock_10_n03196217_5079.JPEG
subject-01,1,783,0.788681030273438,clock,clock,c50,0782_con_s01_c50_clock_10_n02708093_7081.JPEG
subject-01,1,784,0.818938970565796,bottle,keyboard,c03,0783_con_s01_c03_keyboard_10_n03085013_21447.JPEG
subject-01,1,785,0.93971586227417,truck,truck,c15,0784_con_s01_c15_truck_10_n03796401_14189.JPEG
subject-01,1,786,0.853899002075195,airplane,airplane,c03,0785_con_s01_c03_airplane_10_n02690373_8743.JPEG
subject-01,1,787,0.674565076828003,cat,cat,c10,0786_con_s01_c10_cat_10_n02124075_1576.JPEG
subject-01,1,788,0.826782941818237,truck,truck,c100,0787_con_s01_c100_truck_10_n04467665_4239.JPEG
subject-01,1,789,0.80972695350647,bird,bear,c01,0788_con_s01_c01_bear_10_n02132136_27682.JPEG
subject-01,1,790,1.16780495643616,airplane,boat,c15,0789_con_s01_c15_boat_10_n04273569_16295.JPEG
subject-01,1,791,1.12839484214783,airplane,bird,c05,0790_con_s01_c05_bird_10_n01616318_57023.JPEG
subject-01,1,792,1.16506791114807,oven,clock,c10,0791_con_s01_c10_clock_10_n03196217_4232.JPEG
subject-01,1,793,0.963347911834717,car,bicycle,c03,0792_con_s01_c03_bicycle_10_n02835271_7969.JPEG
subject-01,1,794,0.861958026885986,truck,truck,c15,0793_con_s01_c15_truck_10_n03417042_8654.JPEG
subject-01,1,795,1.35028195381165,chair,oven,c15,0794_con_s01_c15_oven_10_n04111531_4918.JPEG
subject-01,1,796,1.46495008468628,bottle,elephant,c15,0795_con_s01_c15_elephant_10_n02504013_1028.JPEG
subject-01,1,797,0.887916088104248,cat,cat,c10,0796_con_s01_c10_cat_10_n02123597_4357.JPEG
subject-01,1,798,0.954143047332764,cat,oven,c03,0797_con_s01_c03_oven_10_n04111531_2796.JPEG
subject-01,1,799,0.746647119522095,airplane,airplane,c15,0798_con_s01_c15_airplane_10_n02690373_1837.JPEG
subject-01,1,800,1.13521504402161,chair,chair,c100,0799_con_s01_c100_chair_10_n04429376_10597.JPEG
subject-01,1,801,1.0639340877533,boat,boat,c50,0800_con_s01_c50_boat_10_n02951358_22332.JPEG
subject-01,1,802,0.793873071670532,car,airplane,c03,0801_con_s01_c03_airplane_10_n02690373_5524.JPEG
subject-01,1,803,1.24953889846802,bicycle,airplane,c01,0802_con_s01_c01_airplane_10_n02690373_5917.JPEG
subject-01,1,804,1.16421699523926,chair,boat,c05,0803_con_s01_c05_boat_10_n03662601_4246.JPEG
subject-01,1,805,0.848206043243408,cat,bear,c30,0804_con_s01_c30_bear_10_n02134418_4717.JPEG
subject-01,1,806,0.96134090423584,truck,bird,c03,0805_con_s01_c03_bird_10_n01798484_8189.JPEG
subject-01,1,807,1.50010895729065,bottle,oven,c50,0806_con_s01_c50_oven_10_n04111531_891.JPEG
subject-01,1,808,1.36406707763672,bicycle,bicycle,c03,0807_con_s01_c03_bicycle_10_n02835271_3841.JPEG
subject-01,1,809,0.908593893051147,oven,truck,c100,0808_con_s01_c100_truck_10_n03417042_4420.JPEG
subject-01,1,810,0.877041816711426,oven,boat,c05,0809_con_s01_c05_boat_10_n02951358_33807.JPEG
subject-01,1,811,0.843652963638306,keyboard,keyboard,c100,0810_con_s01_c100_keyboard_10_n03085013_19065.JPEG
subject-01,1,812,0.96617603302002,airplane,bicycle,c01,0811_con_s01_c01_bicycle_10_n03792782_19053.JPEG
subject-01,1,813,0.925230979919434,bottle,knife,c03,0812_con_s01_c03_knife_10_n03041632_29684.JPEG
subject-01,1,814,1.04484009742737,bicycle,bicycle,c15,0813_con_s01_c15_bicycle_10_n03792782_13002.JPEG
subject-01,1,815,1.20542097091675,chair,chair,c30,0814_con_s01_c30_chair_10_n02791124_5401.JPEG
subject-01,1,816,1.12585592269897,clock,clock,c05,0815_con_s01_c05_clock_10_n04548280_2559.JPEG
subject-01,1,817,1.15425395965576,bicycle,bicycle,c03,0816_con_s01_c03_bicycle_10_n02835271_7355.JPEG
subject-01,1,818,1.46060395240784,cat,cat,c03,0817_con_s01_c03_cat_10_n02123597_14713.JPEG
subject-01,1,819,0.796853065490723,airplane,airplane,c15,0818_con_s01_c15_airplane_10_n02690373_4728.JPEG
subject-01,1,820,1.12786889076233,clock,clock,c50,0819_con_s01_c50_clock_10_n03196217_3006.JPEG
subject-01,1,821,0.602202892303467,chair,chair,c30,0820_con_s01_c30_chair_10_n04099969_34525.JPEG
subject-01,1,822,0.925112962722778,car,bird,c01,0821_con_s01_c01_bird_10_n02002724_627.JPEG
subject-01,1,823,0.929635047912598,cat,dog,c10,0822_con_s01_c10_dog_10_n02096294_1043.JPEG
subject-01,1,824,1.11396193504333,dog,bicycle,c10,0823_con_s01_c10_bicycle_10_n03792782_77949.JPEG
subject-01,1,825,0.742656946182251,cat,cat,c10,0824_con_s01_c10_cat_10_n02124075_9716.JPEG
subject-01,1,826,0.679066896438599,bicycle,bicycle,c30,0825_con_s01_c30_bicycle_10_n02835271_2764.JPEG
subject-01,1,827,1.12387895584106,car,car,c03,0826_con_s01_c03_car_10_n04285008_7950.JPEG
subject-01,1,828,0.992069005966187,car,car,c05,0827_con_s01_c05_car_10_n03100240_13410.JPEG
subject-01,1,829,1.01283407211304,cat,cat,c10,0828_con_s01_c10_cat_10_n02123597_488.JPEG
subject-01,1,830,0.911018133163452,cat,cat,c05,0829_con_s01_c05_cat_10_n02123045_15474.JPEG
subject-01,1,831,0.915075063705444,bicycle,bicycle,c30,0830_con_s01_c30_bicycle_10_n03792782_8847.JPEG
subject-01,1,832,0.767586946487427,bottle,bottle,c50,0831_con_s01_c50_bottle_10_n04557648_10265.JPEG
subject-01,1,833,0.836280822753906,bicycle,bicycle,c10,0832_con_s01_c10_bicycle_10_n02835271_2553.JPEG
subject-01,1,834,0.964607000350952,bear,bear,c100,0833_con_s01_c100_bear_10_n02134418_1218.JPEG
subject-01,1,835,1.06330704689026,elephant,bottle,c01,0834_con_s01_c01_bottle_10_n03983396_751.JPEG
subject-01,1,836,1.04588413238525,chair,elephant,c50,0835_con_s01_c50_elephant_10_n02504458_3182.JPEG
subject-01,1,837,0.928455114364624,car,car,c15,0836_con_s01_c15_car_10_n04285008_12909.JPEG
subject-01,1,838,0.864625930786133,boat,boat,c10,0837_con_s01_c10_boat_10_n04612504_17514.JPEG
subject-01,1,839,1.38530802726746,airplane,truck,c03,0838_con_s01_c03_truck_10_n04467665_52595.JPEG
subject-01,1,840,1.22388482093811,car,car,c15,0839_con_s01_c15_car_10_n04285008_5208.JPEG
subject-01,1,841,0.660178184509277,oven,oven,c30,0840_con_s01_c30_oven_10_n04111531_8934.JPEG
subject-01,1,842,0.834577083587646,chair,chair,c10,0841_con_s01_c10_chair_10_n04099969_10458.JPEG
subject-01,1,843,0.911184787750244,bear,dog,c05,0842_con_s01_c05_dog_10_n02105641_416.JPEG
subject-01,1,844,0.815751791000366,airplane,airplane,c15,0843_con_s01_c15_airplane_10_n02690373_4921.JPEG
subject-01,1,845,1.50005102157593,bottle,cat,c05,0844_con_s01_c05_cat_10_n02123394_8524.JPEG
subject-01,1,846,1.04289603233337,bear,elephant,c30,0845_con_s01_c30_elephant_10_n02504458_14308.JPEG
subject-01,1,847,1.31661796569824,cat,knife,c50,0846_con_s01_c50_knife_10_n03041632_32785.JPEG
subject-01,1,848,0.974873065948486,airplane,airplane,c100,0847_con_s01_c100_airplane_10_n02690373_1489.JPEG
subject-01,1,849,1.36510300636292,dog,bird,c10,0848_con_s01_c10_bird_10_n02018207_9697.JPEG
subject-01,1,850,1.00678706169128,elephant,elephant,c100,0849_con_s01_c100_elephant_10_n02504458_12217.JPEG
subject-01,1,851,0.891409873962402,truck,truck,c50,0850_con_s01_c50_truck_10_n04467665_30901.JPEG
subject-01,1,852,1.33399820327759,truck,keyboard,c05,0851_con_s01_c05_keyboard_10_n04505470_5155.JPEG
subject-01,1,853,0.910470008850098,bicycle,bicycle,c30,0852_con_s01_c30_bicycle_10_n03792782_13324.JPEG
subject-01,1,854,1.13105702400208,bear,elephant,c50,0853_con_s01_c50_elephant_10_n02504458_5600.JPEG
subject-01,1,855,1.38129687309265,airplane,airplane,c10,0854_con_s01_c10_airplane_10_n02690373_6223.JPEG
subject-01,1,856,1.3789689540863,car,car,c50,0855_con_s01_c50_car_10_n03100240_2528.JPEG
subject-01,1,857,0.907379150390625,elephant,elephant,c50,0856_con_s01_c50_elephant_10_n02504458_2875.JPEG
subject-01,1,858,0.829773187637329,car,car,c10,0857_con_s01_c10_car_10_n03100240_52.JPEG
subject-01,1,859,0.866336107254028,chair,cat,c01,0858_con_s01_c01_cat_10_n02123045_7334.JPEG
subject-01,1,860,1.20299816131592,bottle,bird,c03,0859_con_s01_c03_bird_10_n02002724_13195.JPEG
subject-01,1,861,0.771649122238159,bird,bird,c50,0860_con_s01_c50_bird_10_n01560419_6583.JPEG
subject-01,1,862,0.816313028335571,boat,bicycle,c01,0861_con_s01_c01_bicycle_10_n02835271_10741.JPEG
subject-01,1,863,0.752762079238892,clock,dog,c03,0862_con_s01_c03_dog_10_n02113799_653.JPEG
subject-01,1,864,1.14912700653076,boat,boat,c50,0863_con_s01_c50_boat_10_n03662601_28046.JPEG
subject-01,1,865,0.841739177703857,elephant,elephant,c15,0864_con_s01_c15_elephant_10_n02504458_8923.JPEG
subject-01,1,866,0.770110130310059,chair,chair,c15,0865_con_s01_c15_chair_10_n04099969_7325.JPEG
subject-01,1,867,1.20700597763062,bird,bird,c10,0866_con_s01_c10_bird_10_n01843065_4020.JPEG
subject-01,1,868,NaN,na,bear,c01,0867_con_s01_c01_bear_10_n02134084_6113.JPEG
subject-01,1,869,1.36372208595276,bear,dog,c05,0868_con_s01_c05_dog_10_n02108551_3425.JPEG
subject-01,1,870,1.50003814697266,bicycle,bear,c03,0869_con_s01_c03_bear_10_n02134084_6840.JPEG
subject-01,1,871,0.613771915435791,clock,bottle,c50,0870_con_s01_c50_bottle_10_n03937543_4425.JPEG
subject-01,1,872,1.08062100410461,car,chair,c03,0871_con_s01_c03_chair_10_n03376595_6540.JPEG
subject-01,1,873,1.16317391395569,bird,elephant,c03,0872_con_s01_c03_elephant_10_n02504013_1879.JPEG
subject-01,1,874,1.46708106994629,dog,dog,c50,0873_con_s01_c50_dog_10_n02105056_951.JPEG
subject-01,1,875,0.989346981048584,truck,truck,c100,0874_con_s01_c100_truck_10_n03417042_7365.JPEG
subject-01,1,876,1.01775097846985,airplane,knife,c03,0875_con_s01_c03_knife_10_n03041632_56172.JPEG
subject-01,1,877,0.816389083862305,knife,elephant,c01,0876_con_s01_c01_elephant_10_n02504013_3409.JPEG
subject-01,1,878,1.1228199005127,bicycle,bicycle,c50,0877_con_s01_c50_bicycle_10_n02835271_3383.JPEG
subject-01,1,879,0.666965961456299,boat,boat,c30,0878_con_s01_c30_boat_10_n04612504_14669.JPEG
subject-01,1,880,0.586917877197266,bottle,bottle,c10,0879_con_s01_c10_bottle_10_n02823428_2504.JPEG
subject-01,1,881,1.50008988380432,dog,dog,c50,0880_con_s01_c50_dog_10_n02092002_1139.JPEG
subject-01,1,882,1.11160492897034,cat,cat,c30,0881_con_s01_c30_cat_10_n02123394_5466.JPEG
subject-01,1,883,1.03435611724854,elephant,boat,c01,0882_con_s01_c01_boat_10_n03662601_5639.JPEG
subject-01,1,884,0.694429874420166,cat,cat,c50,0883_con_s01_c50_cat_10_n02123159_7647.JPEG
subject-01,1,885,0.793596982955933,bird,bird,c10,0884_con_s01_c10_bird_10_n02002556_9804.JPEG
subject-01,1,886,0.891956090927124,elephant,chair,c15,0885_con_s01_c15_chair_10_n02791124_5268.JPEG
subject-01,1,887,1.17172193527222,knife,knife,c100,0886_con_s01_c100_knife_10_n03041632_86338.JPEG
subject-01,1,888,0.762030124664307,oven,chair,c01,0887_con_s01_c01_chair_10_n02791124_3204.JPEG
subject-01,1,889,1.1065981388092,bird,bird,c30,0888_con_s01_c30_bird_10_n01855032_7567.JPEG
subject-01,1,890,0.789093971252441,airplane,airplane,c100,0889_con_s01_c100_airplane_10_n02690373_139.JPEG
subject-01,1,891,0.641116142272949,clock,clock,c10,0890_con_s01_c10_clock_10_n02708093_8340.JPEG
subject-01,1,892,0.97826099395752,chair,chair,c10,0891_con_s01_c10_chair_10_n04429376_5337.JPEG
subject-01,1,893,1.35253190994263,knife,knife,c50,0892_con_s01_c50_knife_10_n03041632_15174.JPEG
subject-01,1,894,0.75111198425293,bottle,bottle,c100,0893_con_s01_c100_bottle_10_n04560804_14130.JPEG
subject-01,1,895,0.992748022079468,car,bear,c03,0894_con_s01_c03_bear_10_n02133161_14164.JPEG
subject-01,1,896,1.34505891799927,oven,truck,c01,0895_con_s01_c01_truck_10_n04467665_22414.JPEG
subject-01,1,897,0.772956848144531,oven,clock,c01,0896_con_s01_c01_clock_10_n02708093_2318.JPEG
subject-01,1,898,1.07728385925293,car,car,c30,0897_con_s01_c30_car_10_n04285008_11323.JPEG
subject-01,1,899,0.991365909576416,truck,truck,c05,0898_con_s01_c05_truck_10_n03417042_4752.JPEG
subject-01,1,900,0.641314029693604,bear,bear,c30,0899_con_s01_c30_bear_10_n02132136_915.JPEG
subject-01,1,901,1.00196814537048,bird,bicycle,c05,0900_con_s01_c05_bicycle_10_n02835271_6481.JPEG
subject-01,1,902,1.07016396522522,bottle,knife,c01,0901_con_s01_c01_knife_10_n03041632_30666.JPEG
subject-01,1,903,1.24482703208923,knife,clock,c05,0902_con_s01_c05_clock_10_n03196217_3605.JPEG
subject-01,1,904,0.835170030593872,cat,dog,c30,0903_con_s01_c30_dog_10_n02102480_3679.JPEG
subject-01,1,905,1.14963603019714,dog,dog,c15,0904_con_s01_c15_dog_10_n02111129_6267.JPEG
subject-01,1,906,1.0018470287323,keyboard,keyboard,c100,0905_con_s01_c100_keyboard_10_n03085013_31238.JPEG
subject-01,1,907,1.04654407501221,elephant,cat,c01,0906_con_s01_c01_cat_10_n02123597_23389.JPEG
subject-01,1,908,0.804862022399902,chair,chair,c05,0907_con_s01_c05_chair_10_n02791124_1737.JPEG
subject-01,1,909,0.727768898010254,airplane,airplane,c15,0908_con_s01_c15_airplane_10_n02690373_1952.JPEG
subject-01,1,910,0.850161075592041,bottle,bottle,c50,0909_con_s01_c50_bottle_10_n04560804_2942.JPEG
subject-01,1,911,0.84864616394043,elephant,dog,c10,0910_con_s01_c10_dog_10_n02108422_9533.JPEG
subject-01,1,912,0.614444971084595,bottle,bottle,c50,0911_con_s01_c50_bottle_10_n03983396_11506.JPEG
subject-01,1,913,1.0590078830719,keyboard,clock,c10,0912_con_s01_c10_clock_10_n03196217_8020.JPEG
subject-01,1,914,1.0633270740509,airplane,car,c01,0913_con_s01_c01_car_10_n02814533_83665.JPEG
subject-01,1,915,1.49101901054382,elephant,elephant,c10,0914_con_s01_c10_elephant_10_n02504458_6470.JPEG
subject-01,1,916,1.03583788871765,truck,clock,c03,0915_con_s01_c03_clock_10_n04548280_4841.JPEG
subject-01,1,917,0.712102174758911,keyboard,clock,c10,0916_con_s01_c10_clock_10_n03196217_1814.JPEG
subject-01,1,918,0.68061089515686,airplane,airplane,c15,0917_con_s01_c15_airplane_10_n02690373_10399.JPEG
subject-01,1,919,0.793147087097168,boat,bottle,c03,0918_con_s01_c03_bottle_10_n04557648_10944.JPEG
subject-01,1,920,0.821599960327148,car,car,c50,0919_con_s01_c50_car_10_n04285008_2483.JPEG
subject-01,1,921,1.02846384048462,bottle,clock,c01,0920_con_s01_c01_clock_10_n02708093_2721.JPEG
subject-01,1,922,0.742913007736206,keyboard,keyboard,c30,0921_con_s01_c30_keyboard_10_n04505470_8754.JPEG
subject-01,1,923,0.871193885803223,bicycle,bicycle,c30,0922_con_s01_c30_bicycle_10_n03792782_10526.JPEG
subject-01,1,924,0.762068033218384,bird,bird,c100,0923_con_s01_c100_bird_10_n02025239_10194.JPEG
subject-01,1,925,0.822638034820557,truck,truck,c50,0924_con_s01_c50_truck_10_n03796401_10519.JPEG
subject-01,1,926,0.651158809661865,bottle,bottle,c30,0925_con_s01_c30_bottle_10_n04560804_11350.JPEG
subject-01,1,927,0.633308887481689,bird,bird,c100,0926_con_s01_c100_bird_10_n01855672_9451.JPEG
subject-01,1,928,0.76350212097168,chair,chair,c50,0927_con_s01_c50_chair_10_n03376595_12602.JPEG
subject-01,1,929,0.599887132644653,car,car,c50,0928_con_s01_c50_car_10_n04285008_12662.JPEG
subject-01,1,930,0.906682968139648,car,car,c50,0929_con_s01_c50_car_10_n04285008_3010.JPEG
subject-01,1,931,0.873070955276489,dog,bicycle,c01,0930_con_s01_c01_bicycle_10_n03792782_126.JPEG
subject-01,1,932,0.579517841339111,oven,oven,c50,0931_con_s01_c50_oven_10_n04111531_452.JPEG
subject-01,1,933,1.22198081016541,dog,cat,c10,0932_con_s01_c10_cat_10_n02125311_14569.JPEG
subject-01,1,934,0.552592039108276,cat,cat,c30,0933_con_s01_c30_cat_10_n02123597_29513.JPEG
subject-01,1,935,1.07220792770386,knife,car,c01,0934_con_s01_c01_car_10_n03100240_17587.JPEG
subject-01,1,936,0.865056037902832,chair,chair,c50,0935_con_s01_c50_chair_10_n03376595_9247.JPEG
subject-01,1,937,0.817664861679077,keyboard,keyboard,c03,0936_con_s01_c03_keyboard_10_n03085013_29941.JPEG
subject-01,1,938,0.924447059631348,bicycle,cat,c03,0937_con_s01_c03_cat_10_n02124075_11759.JPEG
subject-01,1,939,0.644865989685059,bear,bird,c01,0938_con_s01_c01_bird_10_n01829413_6393.JPEG
subject-01,1,940,0.688807964324951,keyboard,keyboard,c15,0939_con_s01_c15_keyboard_10_n03085013_3665.JPEG
subject-01,1,941,0.90922212600708,truck,knife,c05,0940_con_s01_c05_knife_10_n03041632_20832.JPEG
subject-01,1,942,0.609595060348511,bottle,bottle,c15,0941_con_s01_c15_bottle_10_n03983396_1629.JPEG
subject-01,1,943,1.15988993644714,bear,bear,c05,0942_con_s01_c05_bear_10_n02132136_22835.JPEG
subject-01,1,944,0.698968887329102,bicycle,bicycle,c15,0943_con_s01_c15_bicycle_10_n02835271_5193.JPEG
subject-01,1,945,0.665304899215698,cat,boat,c01,0944_con_s01_c01_boat_10_n04273569_661.JPEG
subject-01,1,946,0.763960123062134,truck,truck,c15,0945_con_s01_c15_truck_10_n03796401_7381.JPEG
subject-01,1,947,0.802196979522705,car,bear,c01,0946_con_s01_c01_bear_10_n02134418_4114.JPEG
subject-01,1,948,0.868738889694214,cat,knife,c05,0947_con_s01_c05_knife_10_n03041632_29886.JPEG
subject-01,1,949,0.945482969284058,bird,keyboard,c01,0948_con_s01_c01_keyboard_10_n04505470_4440.JPEG
subject-01,1,950,0.522006034851074,cat,airplane,c01,0949_con_s01_c01_airplane_10_n02690373_4793.JPEG
subject-01,1,951,0.780243873596191,truck,truck,c50,0950_con_s01_c50_truck_10_n04467665_69176.JPEG
subject-01,1,952,0.7083420753479,knife,bird,c05,0951_con_s01_c05_bird_10_n02002556_1437.JPEG
subject-01,1,953,0.793233871459961,bear,bear,c10,0952_con_s01_c10_bear_10_n02132136_4101.JPEG
subject-01,1,954,0.578307151794434,cat,bird,c05,0953_con_s01_c05_bird_10_n01616318_2700.JPEG
subject-01,1,955,0.644190073013306,bird,bird,c50,0954_con_s01_c50_bird_10_n02002724_7019.JPEG
subject-01,1,956,0.835229873657227,car,elephant,c03,0955_con_s01_c03_elephant_10_n02504013_3634.JPEG
subject-01,1,957,0.640905141830444,oven,chair,c10,0956_con_s01_c10_chair_10_n04429376_30621.JPEG
subject-01,1,958,0.976912021636963,chair,truck,c01,0957_con_s01_c01_truck_10_n03417042_17645.JPEG
subject-01,1,959,0.959580183029175,chair,chair,c15,0958_con_s01_c15_chair_10_n04429376_16378.JPEG
subject-01,1,960,0.871485948562622,airplane,airplane,c03,0959_con_s01_c03_airplane_10_n02690373_891.JPEG
subject-01,1,961,0.861870050430298,chair,chair,c03,0960_con_s01_c03_chair_10_n04099969_2610.JPEG
subject-01,1,962,0.462278127670288,clock,clock,c100,0961_con_s01_c100_clock_10_n03196217_8618.JPEG
subject-01,1,963,0.766999006271362,bear,keyboard,c01,0962_con_s01_c01_keyboard_10_n04505470_763.JPEG
subject-01,1,964,0.61927604675293,boat,boat,c30,0963_con_s01_c30_boat_10_n04273569_17045.JPEG
subject-01,1,965,0.801401853561401,keyboard,keyboard,c15,0964_con_s01_c15_keyboard_10_n04505470_3941.JPEG
subject-01,1,966,0.807799100875854,boat,boat,c30,0965_con_s01_c30_boat_10_n03662601_3741.JPEG
subject-01,1,967,0.936192035675049,bird,bird,c10,0966_con_s01_c10_bird_10_n01820546_2924.JPEG
subject-01,1,968,0.574563980102539,boat,boat,c10,0967_con_s01_c10_boat_10_n04612504_2472.JPEG
subject-01,1,969,0.757250070571899,cat,cat,c100,0968_con_s01_c100_cat_10_n02125311_21377.JPEG
subject-01,1,970,0.639332056045532,bicycle,bicycle,c100,0969_con_s01_c100_bicycle_10_n03792782_19937.JPEG
subject-01,1,971,1.09192204475403,truck,bicycle,c03,0970_con_s01_c03_bicycle_10_n03792782_4844.JPEG
subject-01,1,972,0.920660018920898,bird,bird,c30,0971_con_s01_c30_bird_10_n02007558_2518.JPEG
subject-01,1,973,0.797120094299316,airplane,airplane,c30,0972_con_s01_c30_airplane_10_n02690373_12984.JPEG
subject-01,1,974,1.2419810295105,cat,bottle,c05,0973_con_s01_c05_bottle_10_n04591713_105.JPEG
subject-01,1,975,0.639997005462646,clock,clock,c100,0974_con_s01_c100_clock_10_n04548280_7539.JPEG
subject-01,1,976,0.530491828918457,boat,boat,c15,0975_con_s01_c15_boat_10_n04273569_28333.JPEG
subject-01,1,977,0.866976022720337,clock,clock,c50,0976_con_s01_c50_clock_10_n02708093_616.JPEG
subject-01,1,978,1.07361483573914,knife,elephant,c01,0977_con_s01_c01_elephant_10_n02504458_4864.JPEG
subject-01,1,979,1.11826109886169,clock,clock,c15,0978_con_s01_c15_clock_10_n02708093_3743.JPEG
subject-01,1,980,0.992594003677368,bicycle,bird,c01,0979_con_s01_c01_bird_10_n01592084_9625.JPEG
subject-01,1,981,0.661522150039673,chair,keyboard,c01,0980_con_s01_c01_keyboard_10_n04505470_1904.JPEG
subject-01,1,982,0.867933034896851,oven,oven,c10,0981_con_s01_c10_oven_10_n04111531_9026.JPEG
subject-01,1,983,1.07255291938782,airplane,car,c01,0982_con_s01_c01_car_10_n03100240_3205.JPEG
subject-01,1,984,0.641149997711182,bear,bear,c100,0983_con_s01_c100_bear_10_n02134084_1207.JPEG
subject-01,1,985,1.29955196380615,bear,bear,c15,0984_con_s01_c15_bear_10_n02132136_2791.JPEG
subject-01,1,986,1.2519907951355,car,keyboard,c10,0985_con_s01_c10_keyboard_10_n03085013_16359.JPEG
subject-01,1,987,0.628977060317993,boat,keyboard,c01,0986_con_s01_c01_keyboard_10_n04505470_6327.JPEG
subject-01,1,988,1.12732005119324,airplane,airplane,c05,0987_con_s01_c05_airplane_10_n02690373_4364.JPEG
subject-01,1,989,0.625699043273926,oven,knife,c15,0988_con_s01_c15_knife_10_n03041632_24384.JPEG
subject-01,1,990,1.00839400291443,truck,bird,c01,0989_con_s01_c01_bird_10_n01537544_22049.JPEG
subject-01,1,991,1.16873502731323,car,car,c10,0990_con_s01_c10_car_10_n03100240_13929.JPEG
subject-01,1,992,0.799206018447876,keyboard,keyboard,c100,0991_con_s01_c100_keyboard_10_n03085013_11332.JPEG
subject-01,1,993,0.889878988265991,cat,cat,c10,0992_con_s01_c10_cat_10_n02123159_5945.JPEG
subject-01,1,994,0.496306896209717,clock,clock,c30,0993_con_s01_c30_clock_10_n03196217_11290.JPEG
subject-01,1,995,1.23879194259644,truck,bear,c03,0994_con_s01_c03_bear_10_n02132136_10309.JPEG
subject-01,1,996,0.882340908050537,cat,bear,c100,0995_con_s01_c100_bear_10_n02133161_223.JPEG
subject-01,1,997,1.15701985359192,bicycle,bicycle,c15,0996_con_s01_c15_bicycle_10_n03792782_43279.JPEG
subject-01,1,998,1.20941591262817,keyboard,keyboard,c10,0997_con_s01_c10_keyboard_10_n04505470_4061.JPEG
subject-01,1,999,1.01011991500854,airplane,dog,c01,0998_con_s01_c01_dog_10_n02110627_20194.JPEG
subject-01,1,1000,1.11658692359924,knife,knife,c10,0999_con_s01_c10_knife_10_n03041632_16020.JPEG
subject-01,1,1001,0.652605056762695,cat,cat,c10,1000_con_s01_c10_cat_10_n02123159_4856.JPEG
subject-01,1,1002,0.667051076889038,bear,bottle,c03,1001_con_s01_c03_bottle_10_n04557648_8700.JPEG
subject-01,1,1003,0.717818021774292,chair,chair,c100,1002_con_s01_c100_chair_10_n04429376_6308.JPEG
subject-01,1,1004,0.962446928024292,chair,clock,c03,1003_con_s01_c03_clock_10_n02708093_3761.JPEG
subject-01,1,1005,0.769006967544556,car,bicycle,c50,1004_con_s01_c50_bicycle_10_n02835271_25718.JPEG
subject-01,1,1006,0.767401933670044,oven,oven,c50,1005_con_s01_c50_oven_10_n04111531_7106.JPEG
subject-01,1,1007,0.660377025604248,truck,truck,c30,1006_con_s01_c30_truck_10_n03417042_26885.JPEG
subject-01,1,1008,0.596988916397095,cat,bird,c01,1007_con_s01_c01_bird_10_n01601694_10802.JPEG
subject-01,1,1009,0.541462182998657,cat,cat,c50,1008_con_s01_c50_cat_10_n02123045_455.JPEG
subject-01,1,1010,0.746034860610962,car,bottle,c01,1009_con_s01_c01_bottle_10_n04560804_24166.JPEG
subject-01,1,1011,0.638406038284302,car,oven,c01,1010_con_s01_c01_oven_10_n04111531_4901.JPEG
subject-01,1,1012,0.65079402923584,cat,elephant,c05,1011_con_s01_c05_elephant_10_n02504013_8347.JPEG
subject-01,1,1013,0.911502838134766,bottle,bottle,c01,1012_con_s01_c01_bottle_10_n04591713_5364.JPEG
subject-01,1,1014,0.69393515586853,cat,bear,c15,1013_con_s01_c15_bear_10_n02134418_1259.JPEG
subject-01,1,1015,0.692672967910767,cat,car,c03,1014_con_s01_c03_car_10_n04285008_8213.JPEG
subject-01,1,1016,0.58509087562561,cat,oven,c30,1015_con_s01_c30_oven_10_n04111531_1662.JPEG
subject-01,1,1017,0.835739135742188,chair,chair,c05,1016_con_s01_c05_chair_10_n02791124_5995.JPEG
subject-01,1,1018,0.863981008529663,truck,truck,c100,1017_con_s01_c100_truck_10_n03417042_3338.JPEG
subject-01,1,1019,0.76276707649231,bottle,bottle,c30,1018_con_s01_c30_bottle_10_n02823428_4468.JPEG
subject-01,1,1020,0.968927145004272,chair,chair,c05,1019_con_s01_c05_chair_10_n02791124_4519.JPEG
subject-01,1,1021,0.913933038711548,car,car,c10,1020_con_s01_c10_car_10_n04285008_1619.JPEG
subject-01,1,1022,0.82036280632019,airplane,airplane,c10,1021_con_s01_c10_airplane_10_n02690373_2217.JPEG
subject-01,1,1023,0.702849149703979,oven,oven,c30,1022_con_s01_c30_oven_10_n04111531_14269.JPEG
subject-01,1,1024,0.624900102615356,chair,car,c01,1023_con_s01_c01_car_10_n02814533_89472.JPEG
subject-01,1,1025,0.647550106048584,bicycle,bicycle,c100,1024_con_s01_c100_bicycle_10_n02835271_4887.JPEG
subject-01,1,1026,1.05204105377197,boat,bicycle,c100,1025_con_s01_c100_bicycle_10_n03792782_1363.JPEG
subject-01,1,1027,0.944952011108398,clock,elephant,c01,1026_con_s01_c01_elephant_10_n02504013_3864.JPEG
subject-01,1,1028,0.60525918006897,clock,knife,c30,1027_con_s01_c30_knife_10_n03041632_35764.JPEG
