subj,session,trial,rt,object_response,category,condition,imagename
subject-02,1,1,0.703688859939575,oven,oven,bw,0000_cl_s02_bw_oven_40_n04111531_2872.JPEG
subject-02,1,2,0.709979057312012,bird,bird,cr,0001_cl_s02_cr_bird_40_n02027492_2004.JPEG
subject-02,1,3,0.983583927154541,dog,dog,cr,0002_cl_s02_cr_dog_40_n02102040_4103.JPEG
subject-02,1,4,1.12179398536682,bottle,bottle,bw,0003_cl_s02_bw_bottle_40_n02823428_5024.JPEG
subject-02,1,5,0.88990306854248,truck,truck,bw,0004_cl_s02_bw_truck_40_n03417042_3101.JPEG
subject-02,1,6,0.703237056732178,bottle,bottle,cr,0005_cl_s02_cr_bottle_40_n04591713_2024.JPEG
subject-02,1,7,0.909029960632324,bear,bear,bw,0006_cl_s02_bw_bear_40_n02134084_7169.JPEG
subject-02,1,8,0.763887882232666,keyboard,keyboard,cr,0007_cl_s02_cr_keyboard_40_n03085013_22013.JPEG
subject-02,1,9,1.06995487213135,boat,boat,bw,0008_cl_s02_bw_boat_40_n04612504_7566.JPEG
subject-02,1,10,0.868036985397339,car,car,bw,0009_cl_s02_bw_car_40_n02814533_28856.JPEG
subject-02,1,11,0.903347969055176,cat,cat,cr,0010_cl_s02_cr_cat_40_n02123045_13884.JPEG
subject-02,1,12,1.07995581626892,elephant,elephant,cr,0011_cl_s02_cr_elephant_40_n02504458_1998.JPEG
subject-02,1,13,0.980388164520264,dog,dog,bw,0012_cl_s02_bw_dog_40_n02088238_6532.JPEG
subject-02,1,14,1.23206615447998,bottle,bottle,cr,0013_cl_s02_cr_bottle_40_n04591713_595.JPEG
subject-02,1,15,NaN,na,keyboard,bw,0014_cl_s02_bw_keyboard_40_n03085013_3231.JPEG
subject-02,1,16,NaN,na,airplane,bw,0015_cl_s02_bw_airplane_40_n02690373_9535.JPEG
subject-02,1,17,1.4455738067627,bear,bear,bw,0016_cl_s02_bw_bear_40_n02132136_1029.JPEG
subject-02,1,18,0.875610113143921,clock,clock,bw,0017_cl_s02_bw_clock_40_n04548280_5013.JPEG
subject-02,1,19,1.15235590934753,airplane,airplane,cr,0018_cl_s02_cr_airplane_40_n02690373_349.JPEG
subject-02,1,20,0.714596033096313,cat,cat,cr,0019_cl_s02_cr_cat_40_n02124075_20957.JPEG
subject-02,1,21,0.935003042221069,oven,oven,cr,0020_cl_s02_cr_oven_40_n04111531_10011.JPEG
subject-02,1,22,0.635863065719604,clock,clock,bw,0021_cl_s02_bw_clock_40_n02708093_3695.JPEG
subject-02,1,23,0.711348056793213,clock,clock,bw,0022_cl_s02_bw_clock_40_n04548280_5752.JPEG
subject-02,1,24,0.787540912628174,chair,chair,cr,0023_cl_s02_cr_chair_40_n03376595_7285.JPEG
subject-02,1,25,0.999119997024536,airplane,airplane,cr,0024_cl_s02_cr_airplane_40_n02690373_18693.JPEG
subject-02,1,26,1.21335315704346,clock,clock,bw,0025_cl_s02_bw_clock_40_n03196217_5910.JPEG
subject-02,1,27,1.34384608268738,truck,truck,bw,0026_cl_s02_bw_truck_40_n04467665_70939.JPEG
subject-02,1,28,0.714853048324585,elephant,elephant,bw,0027_cl_s02_bw_elephant_40_n02504013_4646.JPEG
subject-02,1,29,0.766654968261719,bear,bear,cr,0028_cl_s02_cr_bear_40_n02132136_3169.JPEG
subject-02,1,30,1.06528902053833,keyboard,keyboard,bw,0029_cl_s02_bw_keyboard_40_n03085013_805.JPEG
subject-02,1,31,0.957561016082764,oven,oven,cr,0030_cl_s02_cr_oven_40_n04111531_6993.JPEG
subject-02,1,32,0.996069192886353,clock,chair,bw,0031_cl_s02_bw_chair_40_n03376595_7247.JPEG
subject-02,1,33,0.794955015182495,car,car,bw,0032_cl_s02_bw_car_40_n04285008_4935.JPEG
subject-02,1,34,0.756859064102173,clock,clock,bw,0033_cl_s02_bw_clock_40_n04548280_3038.JPEG
subject-02,1,35,0.755741119384766,boat,boat,bw,0034_cl_s02_bw_boat_40_n04273569_15916.JPEG
subject-02,1,36,1.32366991043091,chair,chair,bw,0035_cl_s02_bw_chair_40_n03376595_3863.JPEG
subject-02,1,37,1.08386015892029,keyboard,keyboard,cr,0036_cl_s02_cr_keyboard_40_n03085013_19436.JPEG
subject-02,1,38,0.900298833847046,truck,truck,bw,0037_cl_s02_bw_truck_40_n03417042_3669.JPEG
subject-02,1,39,1.17471694946289,dog,dog,cr,0038_cl_s02_cr_dog_40_n02097130_9583.JPEG
subject-02,1,40,0.929025888442993,bicycle,bicycle,bw,0039_cl_s02_bw_bicycle_40_n02835271_13311.JPEG
subject-02,1,41,1.11161494255066,cat,cat,bw,0040_cl_s02_bw_cat_40_n02125311_34035.JPEG
subject-02,1,42,0.690119981765747,oven,oven,bw,0041_cl_s02_bw_oven_40_n04111531_17922.JPEG
subject-02,1,43,0.880701065063477,keyboard,keyboard,bw,0042_cl_s02_bw_keyboard_40_n04505470_4513.JPEG
subject-02,1,44,1.50017881393433,bird,bird,bw,0043_cl_s02_bw_bird_40_n01855672_6577.JPEG
subject-02,1,45,1.26357293128967,clock,bicycle,cr,0044_cl_s02_cr_bicycle_40_n02835271_6921.JPEG
subject-02,1,46,0.793497085571289,bird,bird,cr,0045_cl_s02_cr_bird_40_n01860187_6891.JPEG
subject-02,1,47,1.37593102455139,dog,dog,cr,0046_cl_s02_cr_dog_40_n02102480_5031.JPEG
subject-02,1,48,0.743339061737061,boat,boat,cr,0047_cl_s02_cr_boat_40_n04273569_10962.JPEG
subject-02,1,49,0.673959016799927,keyboard,keyboard,bw,0048_cl_s02_bw_keyboard_40_n03085013_19096.JPEG
subject-02,1,50,1.04257678985596,airplane,airplane,bw,0049_cl_s02_bw_airplane_40_n02690373_20074.JPEG
subject-02,1,51,0.904793977737427,truck,truck,cr,0050_cl_s02_cr_truck_40_n04467665_30226.JPEG
subject-02,1,52,0.55674409866333,elephant,elephant,cr,0051_cl_s02_cr_elephant_40_n02504013_19694.JPEG
subject-02,1,53,1.50011086463928,keyboard,clock,cr,0052_cl_s02_cr_clock_40_n03196217_2919.JPEG
subject-02,1,54,1.0854320526123,knife,knife,bw,0053_cl_s02_bw_knife_40_n03041632_18959.JPEG
subject-02,1,55,1.0700249671936,bicycle,bicycle,bw,0054_cl_s02_bw_bicycle_40_n02835271_12097.JPEG
subject-02,1,56,0.899838924407959,airplane,airplane,cr,0055_cl_s02_cr_airplane_40_n02690373_4728.JPEG
subject-02,1,57,1.4607880115509,dog,dog,bw,0056_cl_s02_bw_dog_40_n02106662_116690.JPEG
subject-02,1,58,0.598628044128418,bicycle,bicycle,cr,0057_cl_s02_cr_bicycle_40_n02835271_15038.JPEG
subject-02,1,59,1.38093090057373,chair,chair,cr,0058_cl_s02_cr_chair_40_n04099969_20900.JPEG
subject-02,1,60,0.719487190246582,oven,oven,bw,0059_cl_s02_bw_oven_40_n04111531_2575.JPEG
subject-02,1,61,0.881897211074829,truck,truck,bw,0060_cl_s02_bw_truck_40_n04467665_30208.JPEG
subject-02,1,62,1.44813394546509,dog,dog,bw,0061_cl_s02_bw_dog_40_n02113712_1933.JPEG
subject-02,1,63,1.10280299186707,knife,knife,bw,0062_cl_s02_bw_knife_40_n03041632_424.JPEG
subject-02,1,64,0.879297018051147,dog,dog,bw,0063_cl_s02_bw_dog_40_n02086079_59775.JPEG
subject-02,1,65,1.00232410430908,keyboard,keyboard,bw,0064_cl_s02_bw_keyboard_40_n03085013_24294.JPEG
subject-02,1,66,NaN,na,bear,cr,0065_cl_s02_cr_bear_40_n02134418_6083.JPEG
subject-02,1,67,1.40056920051575,dog,dog,bw,0066_cl_s02_bw_dog_40_n02092339_6138.JPEG
subject-02,1,68,0.671229839324951,chair,chair,cr,0067_cl_s02_cr_chair_40_n04099969_16549.JPEG
subject-02,1,69,0.845863103866577,elephant,elephant,cr,0068_cl_s02_cr_elephant_40_n02504013_10462.JPEG
subject-02,1,70,0.975816011428833,truck,truck,bw,0069_cl_s02_bw_truck_40_n03796401_197.JPEG
subject-02,1,71,0.722506999969482,bicycle,bicycle,cr,0070_cl_s02_cr_bicycle_40_n02835271_276.JPEG
subject-02,1,72,0.928312063217163,oven,oven,cr,0071_cl_s02_cr_oven_40_n04111531_2371.JPEG
subject-02,1,73,1.04281187057495,bicycle,bicycle,cr,0072_cl_s02_cr_bicycle_40_n03792782_33855.JPEG
subject-02,1,74,1.01870512962341,knife,knife,cr,0073_cl_s02_cr_knife_40_n03041632_15444.JPEG
subject-02,1,75,1.24155807495117,car,car,bw,0074_cl_s02_bw_car_40_n04285008_1912.JPEG
subject-02,1,76,1.50016498565674,airplane,airplane,bw,0075_cl_s02_bw_airplane_40_n02690373_9059.JPEG
subject-02,1,77,0.702716112136841,chair,chair,bw,0076_cl_s02_bw_chair_40_n04099969_7714.JPEG
subject-02,1,78,1.44661903381348,bird,bird,bw,0077_cl_s02_bw_bird_40_n01622779_7006.JPEG
subject-02,1,79,1.45345592498779,bird,keyboard,bw,0078_cl_s02_bw_keyboard_40_n04505470_2608.JPEG
subject-02,1,80,0.892215967178345,chair,chair,bw,0079_cl_s02_bw_chair_40_n03376595_5074.JPEG
subject-02,1,81,0.814574003219604,keyboard,keyboard,cr,0080_cl_s02_cr_keyboard_40_n03085013_6038.JPEG
subject-02,1,82,0.853190898895264,bird,bird,bw,0081_cl_s02_bw_bird_40_n01558993_6027.JPEG
subject-02,1,83,0.667351007461548,knife,knife,cr,0082_cl_s02_cr_knife_40_n03041632_25022.JPEG
subject-02,1,84,1.05198001861572,elephant,elephant,cr,0083_cl_s02_cr_elephant_40_n02504013_5027.JPEG
subject-02,1,85,1.19596695899963,airplane,airplane,cr,0084_cl_s02_cr_airplane_40_n02690373_8740.JPEG
subject-02,1,86,1.03368997573853,bicycle,bicycle,bw,0085_cl_s02_bw_bicycle_40_n03792782_20028.JPEG
subject-02,1,87,1.09445190429688,truck,truck,cr,0086_cl_s02_cr_truck_40_n04467665_67165.JPEG
subject-02,1,88,1.19193696975708,bird,bird,bw,0087_cl_s02_bw_bird_40_n01560419_3427.JPEG
subject-02,1,89,1.2982611656189,chair,chair,cr,0088_cl_s02_cr_chair_40_n03376595_4469.JPEG
subject-02,1,90,1.3987729549408,knife,knife,cr,0089_cl_s02_cr_knife_40_n03041632_8051.JPEG
subject-02,1,91,0.882873058319092,clock,clock,cr,0090_cl_s02_cr_clock_40_n03196217_585.JPEG
subject-02,1,92,1.04371190071106,airplane,airplane,cr,0091_cl_s02_cr_airplane_40_n02690373_8789.JPEG
subject-02,1,93,0.712218999862671,chair,chair,cr,0092_cl_s02_cr_chair_40_n03376595_8302.JPEG
subject-02,1,94,1.09665703773499,clock,clock,bw,0093_cl_s02_bw_clock_40_n02708093_3759.JPEG
subject-02,1,95,NaN,na,knife,bw,0094_cl_s02_bw_knife_40_n03041632_13612.JPEG
subject-02,1,96,0.670861005783081,oven,oven,cr,0095_cl_s02_cr_oven_40_n04111531_1229.JPEG
subject-02,1,97,0.963306188583374,dog,cat,cr,0096_cl_s02_cr_cat_40_n02123394_1602.JPEG
subject-02,1,98,1.06212711334229,bird,bird,bw,0097_cl_s02_bw_bird_40_n02018207_2627.JPEG
subject-02,1,99,0.638621091842651,cat,cat,cr,0098_cl_s02_cr_cat_40_n02123159_3330.JPEG
subject-02,1,100,0.801439046859741,oven,keyboard,bw,0099_cl_s02_bw_keyboard_40_n03085013_21266.JPEG
subject-02,1,101,1.09988403320312,bottle,bottle,cr,0100_cl_s02_cr_bottle_40_n03937543_443.JPEG
subject-02,1,102,0.776205062866211,car,car,bw,0101_cl_s02_bw_car_40_n03100240_19014.JPEG
subject-02,1,103,0.88972282409668,knife,knife,cr,0102_cl_s02_cr_knife_40_n03041632_11797.JPEG
subject-02,1,104,1.00399708747864,elephant,elephant,cr,0103_cl_s02_cr_elephant_40_n02504013_8385.JPEG
subject-02,1,105,1.3156840801239,airplane,airplane,cr,0104_cl_s02_cr_airplane_40_n02690373_6856.JPEG
subject-02,1,106,1.11611986160278,knife,knife,bw,0105_cl_s02_bw_knife_40_n03041632_24100.JPEG
subject-02,1,107,1.46914100646973,bear,bear,cr,0106_cl_s02_cr_bear_40_n02134418_4041.JPEG
subject-02,1,108,1.191251039505,bicycle,bicycle,cr,0107_cl_s02_cr_bicycle_40_n03792782_52601.JPEG
subject-02,1,109,1.33772301673889,boat,boat,cr,0108_cl_s02_cr_boat_40_n02951358_32429.JPEG
subject-02,1,110,0.783807039260864,bear,bear,cr,0109_cl_s02_cr_bear_40_n02133161_1498.JPEG
subject-02,1,111,0.965616941452026,chair,chair,cr,0110_cl_s02_cr_chair_40_n02791124_4538.JPEG
subject-02,1,112,0.849867105484009,keyboard,keyboard,cr,0111_cl_s02_cr_keyboard_40_n03085013_21025.JPEG
subject-02,1,113,0.810707807540894,bottle,bottle,bw,0112_cl_s02_bw_bottle_40_n04591713_1976.JPEG
subject-02,1,114,0.916884183883667,boat,boat,cr,0113_cl_s02_cr_boat_40_n04612504_30742.JPEG
subject-02,1,115,1.07009506225586,truck,truck,cr,0114_cl_s02_cr_truck_40_n03796401_17504.JPEG
subject-02,1,116,0.977777004241943,airplane,airplane,bw,0115_cl_s02_bw_airplane_40_n02690373_8141.JPEG
subject-02,1,117,1.09146904945374,keyboard,keyboard,cr,0116_cl_s02_cr_keyboard_40_n04505470_3947.JPEG
subject-02,1,118,1.09766697883606,bicycle,bicycle,cr,0117_cl_s02_cr_bicycle_40_n03792782_47774.JPEG
subject-02,1,119,0.981882810592651,truck,truck,cr,0118_cl_s02_cr_truck_40_n03417042_12133.JPEG
subject-02,1,120,1.42676186561584,bird,bear,bw,0119_cl_s02_bw_bear_40_n02133161_3233.JPEG
subject-02,1,121,0.718897104263306,bear,bear,cr,0120_cl_s02_cr_bear_40_n02132136_1934.JPEG
subject-02,1,122,0.817072868347168,boat,boat,cr,0121_cl_s02_cr_boat_40_n04273569_12756.JPEG
subject-02,1,123,0.739640951156616,keyboard,keyboard,cr,0122_cl_s02_cr_keyboard_40_n04505470_6272.JPEG
subject-02,1,124,1.13834810256958,clock,clock,cr,0123_cl_s02_cr_clock_40_n02708093_1513.JPEG
subject-02,1,125,1.00562691688538,keyboard,keyboard,cr,0124_cl_s02_cr_keyboard_40_n04505470_4486.JPEG
subject-02,1,126,0.98275899887085,chair,chair,bw,0125_cl_s02_bw_chair_40_n04099969_2502.JPEG
subject-02,1,127,1.21873903274536,airplane,airplane,bw,0126_cl_s02_bw_airplane_40_n02690373_5003.JPEG
subject-02,1,128,1.22729802131653,boat,boat,cr,0127_cl_s02_cr_boat_40_n03344393_5625.JPEG
subject-02,1,129,0.787666082382202,clock,clock,cr,0128_cl_s02_cr_clock_40_n04548280_3997.JPEG
subject-02,1,130,1.13142895698547,airplane,airplane,cr,0129_cl_s02_cr_airplane_40_n02690373_7944.JPEG
subject-02,1,131,0.916482925415039,airplane,airplane,bw,0130_cl_s02_bw_airplane_40_n02690373_7686.JPEG
subject-02,1,132,0.870654106140137,truck,truck,bw,0131_cl_s02_bw_truck_40_n03417042_29083.JPEG
subject-02,1,133,1.19954609870911,boat,bottle,cr,0132_cl_s02_cr_bottle_40_n04557648_23050.JPEG
subject-02,1,134,0.946238040924072,elephant,elephant,bw,0133_cl_s02_bw_elephant_40_n02504013_8007.JPEG
subject-02,1,135,0.960460186004639,keyboard,keyboard,cr,0134_cl_s02_cr_keyboard_40_n03085013_24577.JPEG
subject-02,1,136,0.944722890853882,chair,chair,bw,0135_cl_s02_bw_chair_40_n02791124_5893.JPEG
subject-02,1,137,0.667140960693359,boat,boat,cr,0136_cl_s02_cr_boat_40_n02951358_15424.JPEG
subject-02,1,138,0.843513011932373,bear,bear,bw,0137_cl_s02_bw_bear_40_n02132136_8046.JPEG
subject-02,1,139,1.24972200393677,bird,bird,cr,0138_cl_s02_cr_bird_40_n02056570_9553.JPEG
subject-02,1,140,1.47793412208557,oven,oven,cr,0139_cl_s02_cr_oven_40_n04111531_23340.JPEG
subject-02,1,141,1.46256613731384,car,car,bw,0140_cl_s02_bw_car_40_n02814533_3573.JPEG
subject-02,1,142,1.37684106826782,clock,bottle,cr,0141_cl_s02_cr_bottle_40_n04560804_15225.JPEG
subject-02,1,143,0.991291046142578,airplane,airplane,bw,0142_cl_s02_bw_airplane_40_n02690373_2700.JPEG
subject-02,1,144,0.529652118682861,cat,cat,bw,0143_cl_s02_bw_cat_40_n02123394_1139.JPEG
subject-02,1,145,0.627539157867432,clock,clock,cr,0144_cl_s02_cr_clock_40_n02708093_3006.JPEG
subject-02,1,146,0.973685026168823,bird,bird,cr,0145_cl_s02_cr_bird_40_n02018795_7163.JPEG
subject-02,1,147,1.09646201133728,car,car,cr,0146_cl_s02_cr_car_40_n02814533_75974.JPEG
subject-02,1,148,1.50038409233093,chair,knife,cr,0147_cl_s02_cr_knife_40_n03041632_23087.JPEG
subject-02,1,149,0.825586080551147,bicycle,bicycle,bw,0148_cl_s02_bw_bicycle_40_n02835271_2505.JPEG
subject-02,1,150,1.46967506408691,bicycle,bottle,bw,0149_cl_s02_bw_bottle_40_n02823428_6123.JPEG
subject-02,1,151,1.2217071056366,bear,bear,cr,0150_cl_s02_cr_bear_40_n02132136_7206.JPEG
subject-02,1,152,1.03070116043091,oven,oven,bw,0151_cl_s02_bw_oven_40_n04111531_20429.JPEG
subject-02,1,153,0.90659499168396,car,car,cr,0152_cl_s02_cr_car_40_n02814533_27150.JPEG
subject-02,1,154,1.08924198150635,truck,truck,bw,0153_cl_s02_bw_truck_40_n04467665_20700.JPEG
subject-02,1,155,1.35758996009827,dog,dog,cr,0154_cl_s02_cr_dog_40_n02099712_5781.JPEG
subject-02,1,156,1.0954909324646,truck,truck,bw,0155_cl_s02_bw_truck_40_n03417042_5110.JPEG
subject-02,1,157,0.924072027206421,knife,knife,cr,0156_cl_s02_cr_knife_40_n03041632_3210.JPEG
subject-02,1,158,0.71654486656189,bird,bird,bw,0157_cl_s02_bw_bird_40_n02011460_15966.JPEG
subject-02,1,159,1.16149091720581,dog,dog,cr,0158_cl_s02_cr_dog_40_n02098286_5684.JPEG
subject-02,1,160,0.906333923339844,chair,chair,cr,0159_cl_s02_cr_chair_40_n04099969_14851.JPEG
subject-02,1,161,0.745759010314941,oven,oven,cr,0160_cl_s02_cr_oven_40_n04111531_9490.JPEG
subject-02,1,162,1.15203499794006,dog,bear,bw,0161_cl_s02_bw_bear_40_n02132136_31133.JPEG
subject-02,1,163,1.18029880523682,boat,boat,bw,0162_cl_s02_bw_boat_40_n04273569_4380.JPEG
subject-02,1,164,NaN,na,airplane,cr,0163_cl_s02_cr_airplane_40_n02690373_101.JPEG
subject-02,1,165,NaN,na,cat,cr,0164_cl_s02_cr_cat_40_n02124075_7488.JPEG
subject-02,1,166,NaN,na,car,cr,0165_cl_s02_cr_car_40_n03100240_7567.JPEG
subject-02,1,167,0.753446102142334,bear,bear,cr,0166_cl_s02_cr_bear_40_n02134084_2004.JPEG
subject-02,1,168,0.721791982650757,elephant,elephant,cr,0167_cl_s02_cr_elephant_40_n02504458_5176.JPEG
subject-02,1,169,1.14196395874023,chair,chair,cr,0168_cl_s02_cr_chair_40_n03376595_6837.JPEG
subject-02,1,170,0.664731979370117,clock,clock,bw,0169_cl_s02_bw_clock_40_n02708093_3598.JPEG
subject-02,1,171,1.43317198753357,airplane,airplane,bw,0170_cl_s02_bw_airplane_40_n02690373_9346.JPEG
subject-02,1,172,1.50028395652771,car,car,cr,0171_cl_s02_cr_car_40_n02814533_82925.JPEG
subject-02,1,173,0.646299123764038,oven,oven,bw,0172_cl_s02_bw_oven_40_n04111531_49.JPEG
subject-02,1,174,0.852205991744995,cat,cat,cr,0173_cl_s02_cr_cat_40_n02123159_6505.JPEG
subject-02,1,175,NaN,na,bear,bw,0174_cl_s02_bw_bear_40_n02134084_2076.JPEG
subject-02,1,176,0.805371046066284,knife,knife,bw,0175_cl_s02_bw_knife_40_n03041632_20662.JPEG
subject-02,1,177,0.849709987640381,oven,oven,cr,0176_cl_s02_cr_oven_40_n04111531_1778.JPEG
subject-02,1,178,0.809896945953369,airplane,airplane,bw,0177_cl_s02_bw_airplane_40_n02690373_19104.JPEG
subject-02,1,179,1.04637694358826,keyboard,keyboard,cr,0178_cl_s02_cr_keyboard_40_n03085013_1483.JPEG
subject-02,1,180,0.860260009765625,knife,knife,cr,0179_cl_s02_cr_knife_40_n03041632_31909.JPEG
subject-02,1,181,1.03693819046021,bear,bear,bw,0180_cl_s02_bw_bear_40_n02134418_3846.JPEG
subject-02,1,182,0.843486070632935,boat,boat,cr,0181_cl_s02_cr_boat_40_n03662601_18953.JPEG
subject-02,1,183,0.817784070968628,dog,dog,cr,0182_cl_s02_cr_dog_40_n02097130_1834.JPEG
subject-02,1,184,1.19447302818298,dog,dog,bw,0183_cl_s02_bw_dog_40_n02095889_14455.JPEG
subject-02,1,185,1.07656979560852,dog,dog,bw,0184_cl_s02_bw_dog_40_n02094433_8389.JPEG
subject-02,1,186,0.652428865432739,oven,oven,cr,0185_cl_s02_cr_oven_40_n04111531_5950.JPEG
subject-02,1,187,0.888936042785645,bicycle,bicycle,bw,0186_cl_s02_bw_bicycle_40_n03792782_6982.JPEG
subject-02,1,188,0.935039043426514,clock,clock,cr,0187_cl_s02_cr_clock_40_n04548280_7490.JPEG
subject-02,1,189,0.909795999526978,dog,dog,bw,0188_cl_s02_bw_dog_40_n02091467_11966.JPEG
subject-02,1,190,0.77012300491333,cat,cat,cr,0189_cl_s02_cr_cat_40_n02124075_3533.JPEG
subject-02,1,191,0.784286975860596,dog,dog,cr,0190_cl_s02_cr_dog_40_n02088632_2814.JPEG
subject-02,1,192,1.50031399726868,chair,car,cr,0191_cl_s02_cr_car_40_n03100240_2277.JPEG
subject-02,1,193,1.11027908325195,cat,dog,bw,0192_cl_s02_bw_dog_40_n02096585_1203.JPEG
subject-02,1,194,NaN,na,cat,cr,0193_cl_s02_cr_cat_40_n02123597_6560.JPEG
subject-02,1,195,0.863715887069702,elephant,elephant,cr,0194_cl_s02_cr_elephant_40_n02504013_6660.JPEG
subject-02,1,196,1.31618189811707,truck,truck,bw,0195_cl_s02_bw_truck_40_n03796401_3148.JPEG
subject-02,1,197,0.822482824325562,bicycle,bicycle,bw,0196_cl_s02_bw_bicycle_40_n02835271_1706.JPEG
subject-02,1,198,0.837101936340332,chair,chair,bw,0197_cl_s02_bw_chair_40_n04099969_7664.JPEG
subject-02,1,199,0.77544093132019,keyboard,keyboard,cr,0198_cl_s02_cr_keyboard_40_n03085013_6828.JPEG
subject-02,1,200,0.982070922851562,bicycle,bicycle,bw,0199_cl_s02_bw_bicycle_40_n02835271_8426.JPEG
subject-02,1,201,1.21030807495117,clock,clock,cr,0200_cl_s02_cr_clock_40_n03196217_21.JPEG
subject-02,1,202,0.816947937011719,bird,bird,bw,0201_cl_s02_bw_bird_40_n01828970_7806.JPEG
subject-02,1,203,0.909489154815674,cat,cat,bw,0202_cl_s02_bw_cat_40_n02123045_10847.JPEG
subject-02,1,204,1.26929807662964,dog,dog,cr,0203_cl_s02_cr_dog_40_n02106382_14862.JPEG
subject-02,1,205,0.776212930679321,cat,cat,bw,0204_cl_s02_bw_cat_40_n02123394_267.JPEG
subject-02,1,206,0.660658836364746,oven,oven,cr,0205_cl_s02_cr_oven_40_n04111531_14611.JPEG
subject-02,1,207,1.34040117263794,bird,bird,cr,0206_cl_s02_cr_bird_40_n01532829_22520.JPEG
subject-02,1,208,NaN,na,bear,cr,0207_cl_s02_cr_bear_40_n02134418_6123.JPEG
subject-02,1,209,0.98466682434082,chair,chair,cr,0208_cl_s02_cr_chair_40_n04429376_8395.JPEG
subject-02,1,210,0.799788951873779,keyboard,keyboard,bw,0209_cl_s02_bw_keyboard_40_n03085013_24144.JPEG
subject-02,1,211,0.829758167266846,elephant,elephant,bw,0210_cl_s02_bw_elephant_40_n02504013_1251.JPEG
subject-02,1,212,0.882323026657104,bear,bear,bw,0211_cl_s02_bw_bear_40_n02132136_1901.JPEG
subject-02,1,213,0.842928886413574,dog,dog,cr,0212_cl_s02_cr_dog_40_n02110806_16707.JPEG
subject-02,1,214,1.20327496528625,knife,knife,cr,0213_cl_s02_cr_knife_40_n03041632_32177.JPEG
subject-02,1,215,1.21567988395691,elephant,elephant,bw,0214_cl_s02_bw_elephant_40_n02504458_7269.JPEG
subject-02,1,216,1.14660811424255,airplane,airplane,bw,0215_cl_s02_bw_airplane_40_n02690373_17063.JPEG
subject-02,1,217,1.10576200485229,truck,truck,bw,0216_cl_s02_bw_truck_40_n03417042_6581.JPEG
subject-02,1,218,0.850497007369995,bicycle,bicycle,bw,0217_cl_s02_bw_bicycle_40_n03792782_13552.JPEG
subject-02,1,219,0.672501087188721,chair,chair,cr,0218_cl_s02_cr_chair_40_n04429376_5067.JPEG
subject-02,1,220,1.28471398353577,car,car,cr,0219_cl_s02_cr_car_40_n02814533_2307.JPEG
subject-02,1,221,1.25352191925049,car,dog,bw,0220_cl_s02_bw_dog_40_n02111500_4666.JPEG
subject-02,1,222,1.10577702522278,elephant,elephant,bw,0221_cl_s02_bw_elephant_40_n02504013_1673.JPEG
subject-02,1,223,0.820065021514893,clock,clock,cr,0222_cl_s02_cr_clock_40_n04548280_282.JPEG
subject-02,1,224,1.47814297676086,bear,bear,cr,0223_cl_s02_cr_bear_40_n02133161_15472.JPEG
subject-02,1,225,1.34058904647827,cat,bottle,bw,0224_cl_s02_bw_bottle_40_n04557648_3352.JPEG
subject-02,1,226,1.40759897232056,bottle,bottle,bw,0225_cl_s02_bw_bottle_40_n03937543_8875.JPEG
subject-02,1,227,0.77023983001709,truck,truck,bw,0226_cl_s02_bw_truck_40_n03796401_19153.JPEG
subject-02,1,228,0.63041090965271,keyboard,keyboard,cr,0227_cl_s02_cr_keyboard_40_n04505470_2115.JPEG
subject-02,1,229,1.31280517578125,cat,bottle,bw,0228_cl_s02_bw_bottle_40_n03937543_4642.JPEG
subject-02,1,230,0.680868864059448,car,car,cr,0229_cl_s02_cr_car_40_n03100240_735.JPEG
subject-02,1,231,0.96352219581604,bottle,bottle,cr,0230_cl_s02_cr_bottle_40_n04557648_413.JPEG
subject-02,1,232,0.769160032272339,clock,clock,bw,0231_cl_s02_bw_clock_40_n02708093_6822.JPEG
subject-02,1,233,0.824268817901611,bird,bird,cr,0232_cl_s02_cr_bird_40_n02025239_22501.JPEG
subject-02,1,234,0.914865970611572,truck,truck,cr,0233_cl_s02_cr_truck_40_n03417042_11.JPEG
subject-02,1,235,0.788948774337769,keyboard,keyboard,bw,0234_cl_s02_bw_keyboard_40_n03085013_23693.JPEG
subject-02,1,236,1.05730390548706,boat,boat,bw,0235_cl_s02_bw_boat_40_n03662601_17275.JPEG
subject-02,1,237,1.13377499580383,cat,cat,cr,0236_cl_s02_cr_cat_40_n02123045_964.JPEG
subject-02,1,238,0.885465860366821,elephant,elephant,bw,0237_cl_s02_bw_elephant_40_n02504458_4226.JPEG
subject-02,1,239,0.784761905670166,cat,cat,cr,0238_cl_s02_cr_cat_40_n02123045_9341.JPEG
subject-02,1,240,1.26109218597412,oven,oven,bw,0239_cl_s02_bw_oven_40_n04111531_2006.JPEG
subject-02,1,241,0.843435049057007,oven,oven,cr,0240_cl_s02_cr_oven_40_n04111531_15649.JPEG
subject-02,1,242,NaN,na,airplane,cr,0241_cl_s02_cr_airplane_40_n02690373_4202.JPEG
subject-02,1,243,0.572229146957397,keyboard,keyboard,bw,0242_cl_s02_bw_keyboard_40_n03085013_19316.JPEG
subject-02,1,244,1.00908899307251,chair,chair,bw,0243_cl_s02_bw_chair_40_n04099969_5868.JPEG
subject-02,1,245,1.5001540184021,airplane,airplane,bw,0244_cl_s02_bw_airplane_40_n02690373_2569.JPEG
subject-02,1,246,0.821605205535889,keyboard,oven,bw,0245_cl_s02_bw_oven_40_n04111531_2331.JPEG
subject-02,1,247,0.72816801071167,cat,bear,bw,0246_cl_s02_bw_bear_40_n02132136_9815.JPEG
subject-02,1,248,0.837042808532715,boat,boat,bw,0247_cl_s02_bw_boat_40_n03662601_20887.JPEG
subject-02,1,249,0.559349060058594,keyboard,keyboard,bw,0248_cl_s02_bw_keyboard_40_n04505470_1043.JPEG
subject-02,1,250,0.933773040771484,car,car,bw,0249_cl_s02_bw_car_40_n02814533_29484.JPEG
subject-02,1,251,1.25678396224976,bird,bird,bw,0250_cl_s02_bw_bird_40_n01558993_3768.JPEG
subject-02,1,252,1.21704506874084,chair,chair,cr,0251_cl_s02_cr_chair_40_n03376595_4309.JPEG
subject-02,1,253,1.27727389335632,knife,knife,cr,0252_cl_s02_cr_knife_40_n03041632_24114.JPEG
subject-02,1,254,0.975419044494629,truck,truck,cr,0253_cl_s02_cr_truck_40_n03417042_23440.JPEG
subject-02,1,255,1.50025200843811,truck,truck,bw,0254_cl_s02_bw_truck_40_n03796401_6681.JPEG
subject-02,1,256,0.62008810043335,keyboard,keyboard,cr,0255_cl_s02_cr_keyboard_40_n04505470_6684.JPEG
subject-02,1,257,0.868431091308594,oven,oven,bw,0256_cl_s02_bw_oven_40_n04111531_13691.JPEG
subject-02,1,258,0.637273073196411,elephant,elephant,bw,0257_cl_s02_bw_elephant_40_n02504458_8621.JPEG
subject-02,1,259,0.683199882507324,bird,bird,cr,0258_cl_s02_cr_bird_40_n01530575_4260.JPEG
subject-02,1,260,0.619717836380005,bear,bear,cr,0259_cl_s02_cr_bear_40_n02134084_34728.JPEG
subject-02,1,261,0.780291080474854,bear,bear,cr,0260_cl_s02_cr_bear_40_n02134418_703.JPEG
subject-02,1,262,1.31664490699768,oven,oven,bw,0261_cl_s02_bw_oven_40_n04111531_4749.JPEG
subject-02,1,263,1.11484599113464,dog,dog,cr,0262_cl_s02_cr_dog_40_n02102318_11816.JPEG
subject-02,1,264,0.553227186203003,clock,clock,bw,0263_cl_s02_bw_clock_40_n03196217_6984.JPEG
subject-02,1,265,0.951820850372314,oven,oven,cr,0264_cl_s02_cr_oven_40_n04111531_1054.JPEG
subject-02,1,266,0.643795013427734,boat,boat,bw,0265_cl_s02_bw_boat_40_n02951358_4391.JPEG
subject-02,1,267,0.880207061767578,bird,bird,bw,0266_cl_s02_bw_bird_40_n02007558_6954.JPEG
subject-02,1,268,1.01703596115112,bird,knife,cr,0267_cl_s02_cr_knife_40_n03041632_32896.JPEG
subject-02,1,269,0.723274946212769,elephant,elephant,bw,0268_cl_s02_bw_elephant_40_n02504013_3661.JPEG
subject-02,1,270,0.791695117950439,knife,knife,cr,0269_cl_s02_cr_knife_40_n03041632_26340.JPEG
subject-02,1,271,0.843435049057007,bear,bear,cr,0270_cl_s02_cr_bear_40_n02134084_316.JPEG
subject-02,1,272,0.736317873001099,bird,bird,cr,0271_cl_s02_cr_bird_40_n01560419_7488.JPEG
subject-02,1,273,0.802374124526978,truck,truck,bw,0272_cl_s02_bw_truck_40_n03417042_5807.JPEG
subject-02,1,274,0.833236932754517,bird,bird,bw,0273_cl_s02_bw_bird_40_n02002724_3275.JPEG
subject-02,1,275,0.777447938919067,bicycle,bicycle,cr,0274_cl_s02_cr_bicycle_40_n02835271_8081.JPEG
subject-02,1,276,0.792322874069214,clock,clock,bw,0275_cl_s02_bw_clock_40_n04548280_6394.JPEG
subject-02,1,277,1.07642912864685,truck,truck,bw,0276_cl_s02_bw_truck_40_n04467665_5665.JPEG
subject-02,1,278,0.750985860824585,clock,clock,bw,0277_cl_s02_bw_clock_40_n04548280_7159.JPEG
subject-02,1,279,0.973788976669312,bicycle,bicycle,bw,0278_cl_s02_bw_bicycle_40_n03792782_33636.JPEG
subject-02,1,280,1.15813803672791,bear,bear,cr,0279_cl_s02_cr_bear_40_n02134418_2343.JPEG
subject-02,1,281,0.764578104019165,car,car,bw,0280_cl_s02_bw_car_40_n03100240_1066.JPEG
subject-02,1,282,0.732730865478516,car,car,cr,0281_cl_s02_cr_car_40_n03100240_7300.JPEG
subject-02,1,283,1.45325899124146,elephant,elephant,cr,0282_cl_s02_cr_elephant_40_n02504013_3569.JPEG
subject-02,1,284,0.78393292427063,bottle,bottle,bw,0283_cl_s02_bw_bottle_40_n04557648_6076.JPEG
subject-02,1,285,1.40406203269958,dog,knife,cr,0284_cl_s02_cr_knife_40_n03041632_10796.JPEG
subject-02,1,286,0.636944055557251,boat,boat,cr,0285_cl_s02_cr_boat_40_n02951358_34051.JPEG
subject-02,1,287,0.827322006225586,boat,boat,bw,0286_cl_s02_bw_boat_40_n03662601_10228.JPEG
subject-02,1,288,1.35583996772766,bird,bird,cr,0287_cl_s02_cr_bird_40_n01558993_8777.JPEG
subject-02,1,289,0.940423011779785,elephant,elephant,bw,0288_cl_s02_bw_elephant_40_n02504458_11511.JPEG
subject-02,1,290,0.900858879089355,car,car,cr,0289_cl_s02_cr_car_40_n02814533_8128.JPEG
subject-02,1,291,1.11559009552002,bicycle,bicycle,bw,0290_cl_s02_bw_bicycle_40_n03792782_5317.JPEG
subject-02,1,292,0.989449977874756,cat,cat,bw,0291_cl_s02_bw_cat_40_n02124075_12620.JPEG
subject-02,1,293,0.790387153625488,truck,truck,bw,0292_cl_s02_bw_truck_40_n03417042_18554.JPEG
subject-02,1,294,1.25675702095032,bicycle,bicycle,cr,0293_cl_s02_cr_bicycle_40_n03792782_3467.JPEG
subject-02,1,295,1.33838200569153,car,car,cr,0294_cl_s02_cr_car_40_n02814533_83068.JPEG
subject-02,1,296,0.714807987213135,elephant,elephant,cr,0295_cl_s02_cr_elephant_40_n02504013_474.JPEG
subject-02,1,297,0.991014957427979,elephant,elephant,bw,0296_cl_s02_bw_elephant_40_n02504458_3059.JPEG
subject-02,1,298,1.25963401794434,oven,knife,cr,0297_cl_s02_cr_knife_40_n03041632_105581.JPEG
subject-02,1,299,0.904104948043823,elephant,elephant,bw,0298_cl_s02_bw_elephant_40_n02504458_1575.JPEG
subject-02,1,300,0.664273023605347,cat,cat,bw,0299_cl_s02_bw_cat_40_n02123394_2159.JPEG
subject-02,1,301,0.756438016891479,chair,chair,cr,0300_cl_s02_cr_chair_40_n04429376_42324.JPEG
subject-02,1,302,0.801368951797485,elephant,elephant,cr,0301_cl_s02_cr_elephant_40_n02504458_3140.JPEG
subject-02,1,303,0.753387928009033,truck,truck,bw,0302_cl_s02_bw_truck_40_n03796401_1023.JPEG
subject-02,1,304,1.15939998626709,bird,bird,cr,0303_cl_s02_cr_bird_40_n01537544_2772.JPEG
subject-02,1,305,1.2416980266571,bear,bear,bw,0304_cl_s02_bw_bear_40_n02132136_19488.JPEG
subject-02,1,306,0.893899917602539,keyboard,keyboard,cr,0305_cl_s02_cr_keyboard_40_n03085013_22929.JPEG
subject-02,1,307,1.13770604133606,bottle,keyboard,cr,0306_cl_s02_cr_keyboard_40_n04505470_1187.JPEG
subject-02,1,308,0.79224419593811,elephant,elephant,bw,0307_cl_s02_bw_elephant_40_n02504458_11596.JPEG
subject-02,1,309,1.21254014968872,bear,bear,cr,0308_cl_s02_cr_bear_40_n02133161_2137.JPEG
subject-02,1,310,0.950822114944458,knife,knife,bw,0309_cl_s02_bw_knife_40_n03041632_12748.JPEG
subject-02,1,311,1.28756093978882,bird,bird,bw,0310_cl_s02_bw_bird_40_n01860187_8561.JPEG
subject-02,1,312,1.06373596191406,cat,dog,bw,0311_cl_s02_bw_dog_40_n02096585_1813.JPEG
subject-02,1,313,1.03787899017334,car,car,cr,0312_cl_s02_cr_car_40_n03100240_15503.JPEG
subject-02,1,314,1.13664317131042,elephant,elephant,cr,0313_cl_s02_cr_elephant_40_n02504013_7035.JPEG
subject-02,1,315,0.967282056808472,elephant,elephant,cr,0314_cl_s02_cr_elephant_40_n02504013_4187.JPEG
subject-02,1,316,0.827270984649658,bicycle,bicycle,cr,0315_cl_s02_cr_bicycle_40_n03792782_692.JPEG
subject-02,1,317,1.15507197380066,bear,bear,bw,0316_cl_s02_bw_bear_40_n02132136_11107.JPEG
subject-02,1,318,0.907088041305542,car,car,cr,0317_cl_s02_cr_car_40_n04285008_5562.JPEG
subject-02,1,319,0.975394010543823,knife,knife,cr,0318_cl_s02_cr_knife_40_n03041632_4808.JPEG
subject-02,1,320,0.989771127700806,cat,keyboard,bw,0319_cl_s02_bw_keyboard_40_n03085013_2255.JPEG
subject-02,1,321,0.663535833358765,cat,cat,cr,0320_cl_s02_cr_cat_40_n02124075_8754.JPEG
subject-02,1,322,0.709939956665039,boat,boat,cr,0321_cl_s02_cr_boat_40_n03344393_2433.JPEG
subject-02,1,323,0.754305124282837,clock,clock,cr,0322_cl_s02_cr_clock_40_n03196217_5252.JPEG
subject-02,1,324,0.807091951370239,keyboard,oven,bw,0323_cl_s02_bw_oven_40_n04111531_10375.JPEG
subject-02,1,325,0.751481056213379,truck,truck,bw,0324_cl_s02_bw_truck_40_n03417042_3351.JPEG
subject-02,1,326,0.811663866043091,elephant,elephant,cr,0325_cl_s02_cr_elephant_40_n02504013_3087.JPEG
subject-02,1,327,1.00155091285706,boat,boat,bw,0326_cl_s02_bw_boat_40_n04273569_14634.JPEG
subject-02,1,328,1.50028109550476,bird,bird,bw,0327_cl_s02_bw_bird_40_n01843383_7232.JPEG
subject-02,1,329,0.814600944519043,bicycle,bicycle,bw,0328_cl_s02_bw_bicycle_40_n03792782_41394.JPEG
subject-02,1,330,1.33708381652832,airplane,airplane,bw,0329_cl_s02_bw_airplane_40_n02690373_6090.JPEG
subject-02,1,331,0.605355978012085,bird,bird,cr,0330_cl_s02_cr_bird_40_n01532829_2119.JPEG
subject-02,1,332,0.917510032653809,knife,knife,cr,0331_cl_s02_cr_knife_40_n03041632_14224.JPEG
subject-02,1,333,1.4476330280304,clock,knife,bw,0332_cl_s02_bw_knife_40_n03041632_2468.JPEG
subject-02,1,334,1.02444815635681,truck,truck,bw,0333_cl_s02_bw_truck_40_n04467665_2790.JPEG
subject-02,1,335,0.860249042510986,cat,cat,cr,0334_cl_s02_cr_cat_40_n02124075_9716.JPEG
subject-02,1,336,0.750688076019287,keyboard,keyboard,bw,0335_cl_s02_bw_keyboard_40_n04505470_9788.JPEG
subject-02,1,337,0.940861940383911,bear,bear,bw,0336_cl_s02_bw_bear_40_n02133161_9371.JPEG
subject-02,1,338,1.25548505783081,truck,truck,bw,0337_cl_s02_bw_truck_40_n04467665_68331.JPEG
subject-02,1,339,0.945745229721069,oven,oven,cr,0338_cl_s02_cr_oven_40_n04111531_704.JPEG
subject-02,1,340,0.722086191177368,bottle,bottle,cr,0339_cl_s02_cr_bottle_40_n02823428_633.JPEG
subject-02,1,341,0.982284784317017,cat,cat,bw,0340_cl_s02_bw_cat_40_n02123394_8240.JPEG
subject-02,1,342,1.00421714782715,truck,truck,cr,0341_cl_s02_cr_truck_40_n03417042_12560.JPEG
subject-02,1,343,1.5002110004425,airplane,airplane,cr,0342_cl_s02_cr_airplane_40_n02690373_1161.JPEG
subject-02,1,344,1.09918808937073,bear,bear,cr,0343_cl_s02_cr_bear_40_n02134084_19407.JPEG
subject-02,1,345,1.05305600166321,truck,truck,cr,0344_cl_s02_cr_truck_40_n03796401_14381.JPEG
subject-02,1,346,1.26538705825806,elephant,elephant,cr,0345_cl_s02_cr_elephant_40_n02504013_6731.JPEG
subject-02,1,347,0.787702083587646,truck,truck,bw,0346_cl_s02_bw_truck_40_n03796401_16586.JPEG
subject-02,1,348,0.856442928314209,clock,clock,cr,0347_cl_s02_cr_clock_40_n03196217_5478.JPEG
subject-02,1,349,1.22505903244019,elephant,elephant,cr,0348_cl_s02_cr_elephant_40_n02504013_9099.JPEG
subject-02,1,350,0.769404888153076,bicycle,bicycle,bw,0349_cl_s02_bw_bicycle_40_n03792782_12074.JPEG
subject-02,1,351,0.930246114730835,car,car,bw,0350_cl_s02_bw_car_40_n04285008_3367.JPEG
subject-02,1,352,0.968644857406616,boat,boat,bw,0351_cl_s02_bw_boat_40_n03662601_18100.JPEG
subject-02,1,353,0.70473313331604,oven,oven,bw,0352_cl_s02_bw_oven_40_n04111531_9113.JPEG
subject-02,1,354,0.689123153686523,clock,clock,bw,0353_cl_s02_bw_clock_40_n04548280_2327.JPEG
subject-02,1,355,0.887892007827759,boat,boat,cr,0354_cl_s02_cr_boat_40_n03662601_7324.JPEG
subject-02,1,356,0.94805908203125,bottle,bottle,bw,0355_cl_s02_bw_bottle_40_n03937543_2077.JPEG
subject-02,1,357,0.855044841766357,airplane,airplane,bw,0356_cl_s02_bw_airplane_40_n02690373_8527.JPEG
subject-02,1,358,0.715569019317627,cat,cat,bw,0357_cl_s02_bw_cat_40_n02123597_7289.JPEG
subject-02,1,359,1.00003004074097,boat,boat,bw,0358_cl_s02_bw_boat_40_n02951358_33108.JPEG
subject-02,1,360,0.814195871353149,keyboard,keyboard,bw,0359_cl_s02_bw_keyboard_40_n04505470_4832.JPEG
subject-02,1,361,0.774701118469238,bird,bird,bw,0360_cl_s02_bw_bird_40_n01530575_5882.JPEG
subject-02,1,362,0.943575859069824,boat,boat,bw,0361_cl_s02_bw_boat_40_n03662601_6549.JPEG
subject-02,1,363,1.50026607513428,dog,dog,bw,0362_cl_s02_bw_dog_40_n02091635_721.JPEG
subject-02,1,364,0.755774021148682,elephant,elephant,cr,0363_cl_s02_cr_elephant_40_n02504458_1844.JPEG
subject-02,1,365,0.754248142242432,bear,bear,bw,0364_cl_s02_bw_bear_40_n02132136_4956.JPEG
subject-02,1,366,0.820547103881836,bear,bear,bw,0365_cl_s02_bw_bear_40_n02134418_6089.JPEG
subject-02,1,367,0.858608961105347,airplane,airplane,cr,0366_cl_s02_cr_airplane_40_n02690373_19152.JPEG
subject-02,1,368,0.82503604888916,bicycle,bicycle,bw,0367_cl_s02_bw_bicycle_40_n02835271_15196.JPEG
subject-02,1,369,1.20949792861938,car,car,cr,0368_cl_s02_cr_car_40_n04285008_1313.JPEG
subject-02,1,370,NaN,na,dog,bw,0369_cl_s02_bw_dog_40_n02110185_9882.JPEG
subject-02,1,371,0.722658157348633,keyboard,keyboard,bw,0370_cl_s02_bw_keyboard_40_n03085013_23718.JPEG
subject-02,1,372,0.85079288482666,clock,bottle,cr,0371_cl_s02_cr_bottle_40_n04591713_5290.JPEG
subject-02,1,373,0.804712057113647,truck,truck,bw,0372_cl_s02_bw_truck_40_n03417042_265.JPEG
subject-02,1,374,0.974305868148804,car,truck,bw,0373_cl_s02_bw_truck_40_n03796401_7507.JPEG
subject-02,1,375,0.710731029510498,keyboard,keyboard,cr,0374_cl_s02_cr_keyboard_40_n03085013_17762.JPEG
subject-02,1,376,0.862805128097534,oven,oven,cr,0375_cl_s02_cr_oven_40_n04111531_13247.JPEG
subject-02,1,377,1.03924202919006,boat,airplane,cr,0376_cl_s02_cr_airplane_40_n02690373_7748.JPEG
subject-02,1,378,1.1674919128418,truck,truck,bw,0377_cl_s02_bw_truck_40_n04467665_19574.JPEG
subject-02,1,379,1.1042959690094,dog,dog,bw,0378_cl_s02_bw_dog_40_n02108551_4738.JPEG
subject-02,1,380,1.38869285583496,dog,dog,cr,0379_cl_s02_cr_dog_40_n02105855_9345.JPEG
subject-02,1,381,0.894587993621826,elephant,elephant,cr,0380_cl_s02_cr_elephant_40_n02504013_1916.JPEG
subject-02,1,382,0.746723175048828,clock,clock,cr,0381_cl_s02_cr_clock_40_n04548280_7221.JPEG
subject-02,1,383,1.06920719146729,elephant,elephant,bw,0382_cl_s02_bw_elephant_40_n02504013_7010.JPEG
subject-02,1,384,1.01380515098572,clock,clock,bw,0383_cl_s02_bw_clock_40_n03196217_6090.JPEG
subject-02,1,385,1.19072580337524,bear,cat,bw,0384_cl_s02_bw_cat_40_n02125311_34567.JPEG
subject-02,1,386,1.03475499153137,car,car,cr,0385_cl_s02_cr_car_40_n03100240_18019.JPEG
subject-02,1,387,0.924518823623657,bicycle,bicycle,cr,0386_cl_s02_cr_bicycle_40_n02835271_20714.JPEG
subject-02,1,388,1.00190496444702,car,car,bw,0387_cl_s02_bw_car_40_n03100240_15156.JPEG
subject-02,1,389,1.42460703849792,clock,bottle,bw,0388_cl_s02_bw_bottle_40_n03937543_534.JPEG
subject-02,1,390,0.885213851928711,airplane,airplane,bw,0389_cl_s02_bw_airplane_40_n02690373_3334.JPEG
subject-02,1,391,0.975631952285767,bottle,bottle,bw,0390_cl_s02_bw_bottle_40_n04579145_7608.JPEG
subject-02,1,392,0.930293083190918,bear,bear,bw,0391_cl_s02_bw_bear_40_n02134418_11580.JPEG
subject-02,1,393,0.896749973297119,airplane,airplane,cr,0392_cl_s02_cr_airplane_40_n02690373_7053.JPEG
subject-02,1,394,1.24889612197876,bottle,bottle,bw,0393_cl_s02_bw_bottle_40_n03937543_10543.JPEG
subject-02,1,395,0.778674840927124,airplane,airplane,bw,0394_cl_s02_bw_airplane_40_n02690373_1171.JPEG
subject-02,1,396,0.861868858337402,cat,dog,bw,0395_cl_s02_bw_dog_40_n02091831_11276.JPEG
subject-02,1,397,0.829916000366211,chair,chair,cr,0396_cl_s02_cr_chair_40_n04099969_13056.JPEG
subject-02,1,398,0.920713901519775,dog,dog,cr,0397_cl_s02_cr_dog_40_n02090721_1456.JPEG
subject-02,1,399,0.913625955581665,airplane,airplane,bw,0398_cl_s02_bw_airplane_40_n02690373_1044.JPEG
subject-02,1,400,0.957452058792114,car,car,cr,0399_cl_s02_cr_car_40_n04285008_88.JPEG
subject-02,1,401,1.03146815299988,bottle,bottle,cr,0400_cl_s02_cr_bottle_40_n04560804_12278.JPEG
subject-02,1,402,NaN,na,bird,cr,0401_cl_s02_cr_bird_40_n01795545_6069.JPEG
subject-02,1,403,0.998274803161621,cat,cat,cr,0402_cl_s02_cr_cat_40_n02123159_2684.JPEG
subject-02,1,404,1.10235500335693,keyboard,keyboard,cr,0403_cl_s02_cr_keyboard_40_n03085013_6978.JPEG
subject-02,1,405,0.771152973175049,bear,bear,bw,0404_cl_s02_bw_bear_40_n02134418_2923.JPEG
subject-02,1,406,0.698486089706421,clock,clock,cr,0405_cl_s02_cr_clock_40_n02708093_386.JPEG
subject-02,1,407,0.913177967071533,dog,dog,cr,0406_cl_s02_cr_dog_40_n02100877_20916.JPEG
subject-02,1,408,0.681635856628418,keyboard,keyboard,bw,0407_cl_s02_bw_keyboard_40_n04505470_4521.JPEG
subject-02,1,409,0.894214153289795,knife,knife,bw,0408_cl_s02_bw_knife_40_n03041632_29684.JPEG
subject-02,1,410,1.05398988723755,keyboard,oven,cr,0409_cl_s02_cr_oven_40_n04111531_2752.JPEG
subject-02,1,411,1.0605320930481,chair,chair,cr,0410_cl_s02_cr_chair_40_n02791124_2470.JPEG
subject-02,1,412,NaN,na,bottle,bw,0411_cl_s02_bw_bottle_40_n04557648_496.JPEG
subject-02,1,413,0.93334698677063,chair,chair,bw,0412_cl_s02_bw_chair_40_n04099969_5876.JPEG
subject-02,1,414,1.38556408882141,bear,elephant,bw,0413_cl_s02_bw_elephant_40_n02504458_4014.JPEG
subject-02,1,415,0.870260000228882,chair,chair,bw,0414_cl_s02_bw_chair_40_n02791124_755.JPEG
subject-02,1,416,0.944903135299683,chair,chair,bw,0415_cl_s02_bw_chair_40_n03376595_10370.JPEG
subject-02,1,417,0.658988952636719,keyboard,keyboard,bw,0416_cl_s02_bw_keyboard_40_n04505470_8603.JPEG
subject-02,1,418,0.941457033157349,truck,truck,cr,0417_cl_s02_cr_truck_40_n04467665_1077.JPEG
subject-02,1,419,1.21025514602661,elephant,elephant,bw,0418_cl_s02_bw_elephant_40_n02504458_3464.JPEG
subject-02,1,420,0.878170013427734,dog,dog,cr,0419_cl_s02_cr_dog_40_n02105056_328.JPEG
subject-02,1,421,0.922723054885864,bottle,keyboard,cr,0420_cl_s02_cr_keyboard_40_n03085013_24612.JPEG
subject-02,1,422,1.30540609359741,airplane,airplane,cr,0421_cl_s02_cr_airplane_40_n02690373_4243.JPEG
subject-02,1,423,0.781702041625977,clock,clock,bw,0422_cl_s02_bw_clock_40_n03196217_6519.JPEG
subject-02,1,424,1.3398220539093,bicycle,bicycle,cr,0423_cl_s02_cr_bicycle_40_n03792782_4921.JPEG
subject-02,1,425,NaN,na,airplane,cr,0424_cl_s02_cr_airplane_40_n02690373_3216.JPEG
subject-02,1,426,1.09781694412231,keyboard,keyboard,cr,0425_cl_s02_cr_keyboard_40_n03085013_14643.JPEG
subject-02,1,427,0.696156024932861,car,car,bw,0426_cl_s02_bw_car_40_n03100240_6311.JPEG
subject-02,1,428,1.50045490264893,airplane,airplane,bw,0427_cl_s02_bw_airplane_40_n02690373_17937.JPEG
subject-02,1,429,0.960552930831909,bicycle,bicycle,cr,0428_cl_s02_cr_bicycle_40_n02835271_9862.JPEG
subject-02,1,430,0.860997915267944,bottle,bottle,bw,0429_cl_s02_bw_bottle_40_n02823428_765.JPEG
subject-02,1,431,0.789924144744873,clock,clock,bw,0430_cl_s02_bw_clock_40_n04548280_4475.JPEG
subject-02,1,432,NaN,na,elephant,cr,0431_cl_s02_cr_elephant_40_n02504013_10394.JPEG
subject-02,1,433,1.18695402145386,bear,clock,cr,0432_cl_s02_cr_clock_40_n03196217_10677.JPEG
subject-02,1,434,1.19355082511902,cat,dog,bw,0433_cl_s02_bw_dog_40_n02088094_419.JPEG
subject-02,1,435,1.44544219970703,truck,truck,cr,0434_cl_s02_cr_truck_40_n04467665_52003.JPEG
subject-02,1,436,0.822041988372803,clock,clock,cr,0435_cl_s02_cr_clock_40_n04548280_711.JPEG
subject-02,1,437,0.704861879348755,oven,oven,bw,0436_cl_s02_bw_oven_40_n04111531_627.JPEG
subject-02,1,438,1.06301999092102,keyboard,keyboard,bw,0437_cl_s02_bw_keyboard_40_n03085013_8932.JPEG
subject-02,1,439,1.50025200843811,car,car,bw,0438_cl_s02_bw_car_40_n03100240_6738.JPEG
subject-02,1,440,1.10040092468262,bird,bird,cr,0439_cl_s02_cr_bird_40_n01819313_3073.JPEG
subject-02,1,441,1.06933879852295,truck,truck,bw,0440_cl_s02_bw_truck_40_n03417042_8054.JPEG
subject-02,1,442,0.683555841445923,cat,cat,cr,0441_cl_s02_cr_cat_40_n02123045_2025.JPEG
subject-02,1,443,0.836002111434937,dog,dog,bw,0442_cl_s02_bw_dog_40_n02105251_2964.JPEG
subject-02,1,444,0.902263879776001,cat,bird,cr,0443_cl_s02_cr_bird_40_n01514859_246.JPEG
subject-02,1,445,0.900531053543091,boat,boat,bw,0444_cl_s02_bw_boat_40_n03344393_3773.JPEG
subject-02,1,446,0.745213031768799,bottle,bottle,bw,0445_cl_s02_bw_bottle_40_n04579145_106.JPEG
subject-02,1,447,0.789560794830322,bear,bear,cr,0446_cl_s02_cr_bear_40_n02134418_832.JPEG
subject-02,1,448,0.811861991882324,boat,boat,bw,0447_cl_s02_bw_boat_40_n02951358_10047.JPEG
subject-02,1,449,0.994174003601074,dog,dog,bw,0448_cl_s02_bw_dog_40_n02111277_16693.JPEG
subject-02,1,450,0.784382104873657,chair,chair,cr,0449_cl_s02_cr_chair_40_n03376595_2001.JPEG
subject-02,1,451,0.720583915710449,boat,airplane,cr,0450_cl_s02_cr_airplane_40_n02690373_12756.JPEG
subject-02,1,452,0.997171878814697,elephant,elephant,cr,0451_cl_s02_cr_elephant_40_n02504458_6635.JPEG
subject-02,1,453,1.01759195327759,bottle,bottle,cr,0452_cl_s02_cr_bottle_40_n04560804_32398.JPEG
subject-02,1,454,0.86252498626709,truck,truck,cr,0453_cl_s02_cr_truck_40_n03417042_10043.JPEG
subject-02,1,455,0.884738206863403,bottle,bottle,cr,0454_cl_s02_cr_bottle_40_n03983396_11761.JPEG
subject-02,1,456,0.699188947677612,airplane,airplane,cr,0455_cl_s02_cr_airplane_40_n02690373_6231.JPEG
subject-02,1,457,0.667623996734619,bottle,bottle,bw,0456_cl_s02_bw_bottle_40_n04579145_564.JPEG
subject-02,1,458,1.05594611167908,bicycle,bicycle,cr,0457_cl_s02_cr_bicycle_40_n03792782_14216.JPEG
subject-02,1,459,0.870890855789185,bear,bear,cr,0458_cl_s02_cr_bear_40_n02133161_547.JPEG
subject-02,1,460,0.815268993377686,clock,knife,bw,0459_cl_s02_bw_knife_40_n03041632_17100.JPEG
subject-02,1,461,0.837573051452637,elephant,elephant,bw,0460_cl_s02_bw_elephant_40_n02504458_98.JPEG
subject-02,1,462,0.797709941864014,boat,boat,cr,0461_cl_s02_cr_boat_40_n04273569_16519.JPEG
subject-02,1,463,0.80439305305481,clock,clock,bw,0462_cl_s02_bw_clock_40_n03196217_10936.JPEG
subject-02,1,464,0.732847929000854,bird,bird,cr,0463_cl_s02_cr_bird_40_n01531178_8282.JPEG
subject-02,1,465,0.815000057220459,oven,oven,bw,0464_cl_s02_bw_oven_40_n04111531_1298.JPEG
subject-02,1,466,1.10518503189087,keyboard,keyboard,cr,0465_cl_s02_cr_keyboard_40_n03085013_24455.JPEG
subject-02,1,467,1.08194899559021,car,car,bw,0466_cl_s02_bw_car_40_n04285008_5976.JPEG
subject-02,1,468,1.00991606712341,boat,boat,cr,0467_cl_s02_cr_boat_40_n02951358_31835.JPEG
subject-02,1,469,1.04631185531616,elephant,elephant,cr,0468_cl_s02_cr_elephant_40_n02504458_1735.JPEG
subject-02,1,470,1.1364209651947,bicycle,bicycle,cr,0469_cl_s02_cr_bicycle_40_n03792782_3047.JPEG
subject-02,1,471,1.27248120307922,dog,dog,bw,0470_cl_s02_bw_dog_40_n02102318_9424.JPEG
subject-02,1,472,0.816742897033691,boat,boat,cr,0471_cl_s02_cr_boat_40_n03662601_1424.JPEG
subject-02,1,473,1.3696448802948,knife,knife,bw,0472_cl_s02_bw_knife_40_n03041632_48151.JPEG
subject-02,1,474,1.22941303253174,boat,truck,cr,0473_cl_s02_cr_truck_40_n04467665_34915.JPEG
subject-02,1,475,0.881878137588501,oven,oven,cr,0474_cl_s02_cr_oven_40_n04111531_4.JPEG
subject-02,1,476,0.942517042160034,bird,bird,bw,0475_cl_s02_bw_bird_40_n01582220_520.JPEG
subject-02,1,477,0.987135887145996,dog,dog,bw,0476_cl_s02_bw_dog_40_n02105855_10619.JPEG
subject-02,1,478,1.23127007484436,car,car,bw,0477_cl_s02_bw_car_40_n02814533_6297.JPEG
subject-02,1,479,1.50019884109497,knife,knife,bw,0478_cl_s02_bw_knife_40_n03041632_82878.JPEG
subject-02,1,480,0.752150058746338,bear,bear,bw,0479_cl_s02_bw_bear_40_n02133161_14841.JPEG
subject-02,1,481,0.912719011306763,bear,bear,bw,0480_cl_s02_bw_bear_40_n02132136_10990.JPEG
subject-02,1,482,1.20922303199768,airplane,airplane,cr,0481_cl_s02_cr_airplane_40_n02690373_1071.JPEG
subject-02,1,483,1.50014805793762,dog,dog,cr,0482_cl_s02_cr_dog_40_n02096437_6439.JPEG
subject-02,1,484,1.05123805999756,airplane,airplane,bw,0483_cl_s02_bw_airplane_40_n02690373_3313.JPEG
subject-02,1,485,1.07151699066162,knife,knife,cr,0484_cl_s02_cr_knife_40_n03041632_24181.JPEG
subject-02,1,486,0.963623046875,airplane,airplane,bw,0485_cl_s02_bw_airplane_40_n02690373_3709.JPEG
subject-02,1,487,0.783884048461914,cat,cat,cr,0486_cl_s02_cr_cat_40_n02123597_5017.JPEG
subject-02,1,488,1.0364511013031,airplane,airplane,bw,0487_cl_s02_bw_airplane_40_n02690373_5164.JPEG
subject-02,1,489,0.813316822052002,car,car,bw,0488_cl_s02_bw_car_40_n03100240_3024.JPEG
subject-02,1,490,1.27171301841736,oven,oven,bw,0489_cl_s02_bw_oven_40_n04111531_8984.JPEG
subject-02,1,491,0.902540922164917,bird,bird,bw,0490_cl_s02_bw_bird_40_n02033041_3150.JPEG
subject-02,1,492,1.1467559337616,clock,clock,bw,0491_cl_s02_bw_clock_40_n04548280_9125.JPEG
subject-02,1,493,1.34526014328003,elephant,elephant,bw,0492_cl_s02_bw_elephant_40_n02504013_4457.JPEG
subject-02,1,494,0.865396022796631,clock,clock,cr,0493_cl_s02_cr_clock_40_n04548280_11068.JPEG
subject-02,1,495,1.11825084686279,car,car,bw,0494_cl_s02_bw_car_40_n02814533_89376.JPEG
subject-02,1,496,1.07865309715271,chair,chair,bw,0495_cl_s02_bw_chair_40_n04429376_26765.JPEG
subject-02,1,497,1.08499312400818,chair,bottle,cr,0496_cl_s02_cr_bottle_40_n03937543_349.JPEG
subject-02,1,498,0.791275978088379,cat,cat,cr,0497_cl_s02_cr_cat_40_n02123159_3226.JPEG
subject-02,1,499,0.765995025634766,boat,boat,bw,0498_cl_s02_bw_boat_40_n02951358_13562.JPEG
subject-02,1,500,0.811146020889282,airplane,airplane,bw,0499_cl_s02_bw_airplane_40_n02690373_3840.JPEG
subject-02,1,501,1.37739300727844,airplane,airplane,cr,0500_cl_s02_cr_airplane_40_n02690373_5266.JPEG
subject-02,1,502,0.769470930099487,keyboard,keyboard,cr,0501_cl_s02_cr_keyboard_40_n03085013_4160.JPEG
subject-02,1,503,0.822052955627441,chair,chair,bw,0502_cl_s02_bw_chair_40_n03376595_16202.JPEG
subject-02,1,504,0.53433895111084,boat,boat,cr,0503_cl_s02_cr_boat_40_n02951358_5053.JPEG
subject-02,1,505,0.778445959091187,bicycle,bicycle,cr,0504_cl_s02_cr_bicycle_40_n03792782_5901.JPEG
subject-02,1,506,1.46140217781067,keyboard,keyboard,bw,0505_cl_s02_bw_keyboard_40_n04505470_1253.JPEG
subject-02,1,507,0.897569179534912,truck,truck,bw,0506_cl_s02_bw_truck_40_n04467665_18665.JPEG
subject-02,1,508,0.796229124069214,boat,boat,bw,0507_cl_s02_bw_boat_40_n04273569_13641.JPEG
subject-02,1,509,0.864450931549072,bear,bear,cr,0508_cl_s02_cr_bear_40_n02132136_5184.JPEG
subject-02,1,510,0.969444036483765,airplane,airplane,cr,0509_cl_s02_cr_airplane_40_n02690373_6853.JPEG
subject-02,1,511,0.71541690826416,bottle,bottle,cr,0510_cl_s02_cr_bottle_40_n04557648_2026.JPEG
subject-02,1,512,1.09788012504578,oven,oven,bw,0511_cl_s02_bw_oven_40_n04111531_7965.JPEG
subject-02,1,513,0.824537038803101,chair,chair,cr,0512_cl_s02_cr_chair_40_n03376595_7547.JPEG
subject-02,1,514,0.552191019058228,clock,clock,cr,0513_cl_s02_cr_clock_40_n02708093_3459.JPEG
subject-02,1,515,0.675113201141357,elephant,elephant,bw,0514_cl_s02_bw_elephant_40_n02504458_5869.JPEG
subject-02,1,516,0.757179021835327,boat,boat,bw,0515_cl_s02_bw_boat_40_n04612504_9825.JPEG
subject-02,1,517,0.901447057723999,bear,bear,bw,0516_cl_s02_bw_bear_40_n02134418_1229.JPEG
subject-02,1,518,0.723426818847656,knife,knife,bw,0517_cl_s02_bw_knife_40_n03041632_29037.JPEG
subject-02,1,519,0.784061908721924,elephant,elephant,bw,0518_cl_s02_bw_elephant_40_n02504458_787.JPEG
subject-02,1,520,1.16632103919983,dog,dog,cr,0519_cl_s02_cr_dog_40_n02105056_9209.JPEG
subject-02,1,521,0.743321895599365,boat,boat,bw,0520_cl_s02_bw_boat_40_n03662601_35751.JPEG
subject-02,1,522,1.13368988037109,cat,knife,cr,0521_cl_s02_cr_knife_40_n03041632_47703.JPEG
subject-02,1,523,1.49399995803833,cat,bird,bw,0522_cl_s02_bw_bird_40_n01818515_427.JPEG
subject-02,1,524,0.886561870574951,truck,truck,cr,0523_cl_s02_cr_truck_40_n04467665_7341.JPEG
subject-02,1,525,0.655119895935059,boat,boat,cr,0524_cl_s02_cr_boat_40_n04612504_7166.JPEG
subject-02,1,526,0.74545693397522,knife,knife,cr,0525_cl_s02_cr_knife_40_n03041632_24277.JPEG
subject-02,1,527,1.00441384315491,cat,bear,bw,0526_cl_s02_bw_bear_40_n02133161_4968.JPEG
subject-02,1,528,0.672464847564697,bottle,bottle,cr,0527_cl_s02_cr_bottle_40_n04560804_9813.JPEG
subject-02,1,529,0.903526067733765,car,car,bw,0528_cl_s02_bw_car_40_n03100240_21971.JPEG
subject-02,1,530,1.44531011581421,airplane,airplane,cr,0529_cl_s02_cr_airplane_40_n02690373_2435.JPEG
subject-02,1,531,1.30561685562134,cat,cat,cr,0530_cl_s02_cr_cat_40_n02125311_4340.JPEG
subject-02,1,532,0.83598804473877,knife,knife,cr,0531_cl_s02_cr_knife_40_n03041632_11285.JPEG
subject-02,1,533,0.966737985610962,knife,knife,cr,0532_cl_s02_cr_knife_40_n03041632_48071.JPEG
subject-02,1,534,1.32693696022034,dog,dog,bw,0533_cl_s02_bw_dog_40_n02108000_4646.JPEG
subject-02,1,535,0.817385911941528,cat,cat,bw,0534_cl_s02_bw_cat_40_n02123159_615.JPEG
subject-02,1,536,0.785997152328491,clock,clock,bw,0535_cl_s02_bw_clock_40_n02708093_2622.JPEG
subject-02,1,537,0.716611862182617,boat,boat,cr,0536_cl_s02_cr_boat_40_n04273569_10496.JPEG
subject-02,1,538,0.923192024230957,bird,bird,cr,0537_cl_s02_cr_bird_40_n01530575_6098.JPEG
subject-02,1,539,0.743162870407104,bear,bear,cr,0538_cl_s02_cr_bear_40_n02132136_6787.JPEG
subject-02,1,540,0.643597841262817,keyboard,keyboard,bw,0539_cl_s02_bw_keyboard_40_n03085013_18832.JPEG
subject-02,1,541,0.896182060241699,knife,knife,bw,0540_cl_s02_bw_knife_40_n03041632_23968.JPEG
subject-02,1,542,1.07850003242493,truck,truck,cr,0541_cl_s02_cr_truck_40_n03417042_3657.JPEG
subject-02,1,543,0.722594022750854,clock,clock,bw,0542_cl_s02_bw_clock_40_n04548280_8914.JPEG
subject-02,1,544,0.721006870269775,bicycle,bicycle,cr,0543_cl_s02_cr_bicycle_40_n03792782_11609.JPEG
subject-02,1,545,1.28179597854614,dog,dog,cr,0544_cl_s02_cr_dog_40_n02112018_370.JPEG
subject-02,1,546,1.15879511833191,oven,oven,bw,0545_cl_s02_bw_oven_40_n04111531_12725.JPEG
subject-02,1,547,1.50003004074097,bottle,bottle,bw,0546_cl_s02_bw_bottle_40_n04591713_3501.JPEG
subject-02,1,548,0.662374973297119,oven,oven,cr,0547_cl_s02_cr_oven_40_n04111531_21973.JPEG
subject-02,1,549,1.09124302864075,knife,knife,cr,0548_cl_s02_cr_knife_40_n03041632_32785.JPEG
subject-02,1,550,0.975384950637817,bicycle,bicycle,cr,0549_cl_s02_cr_bicycle_40_n03792782_1344.JPEG
subject-02,1,551,0.99523401260376,bicycle,bicycle,bw,0550_cl_s02_bw_bicycle_40_n02835271_9396.JPEG
subject-02,1,552,1.11006593704224,airplane,airplane,bw,0551_cl_s02_bw_airplane_40_n02690373_13317.JPEG
subject-02,1,553,0.786589860916138,chair,chair,bw,0552_cl_s02_bw_chair_40_n04099969_4146.JPEG
subject-02,1,554,1.29814696311951,boat,boat,cr,0553_cl_s02_cr_boat_40_n03662601_12134.JPEG
subject-02,1,555,0.682797908782959,clock,clock,bw,0554_cl_s02_bw_clock_40_n02708093_3365.JPEG
subject-02,1,556,0.867251873016357,bear,bear,bw,0555_cl_s02_bw_bear_40_n02133161_1262.JPEG
subject-02,1,557,1.09560489654541,bicycle,bicycle,bw,0556_cl_s02_bw_bicycle_40_n03792782_1661.JPEG
subject-02,1,558,0.742163896560669,clock,clock,cr,0557_cl_s02_cr_clock_40_n02708093_1431.JPEG
subject-02,1,559,0.572844982147217,cat,cat,bw,0558_cl_s02_bw_cat_40_n02124075_1947.JPEG
subject-02,1,560,0.847018003463745,dog,dog,bw,0559_cl_s02_bw_dog_40_n02111277_5165.JPEG
subject-02,1,561,0.731299161911011,cat,cat,cr,0560_cl_s02_cr_cat_40_n02123394_2364.JPEG
subject-02,1,562,0.759928941726685,truck,truck,cr,0561_cl_s02_cr_truck_40_n03417042_6893.JPEG
subject-02,1,563,1.41182899475098,bird,bird,bw,0562_cl_s02_bw_bird_40_n02017213_5019.JPEG
subject-02,1,564,0.750499963760376,car,car,cr,0563_cl_s02_cr_car_40_n02814533_37548.JPEG
subject-02,1,565,1.25655603408813,knife,chair,bw,0564_cl_s02_bw_chair_40_n02791124_3326.JPEG
subject-02,1,566,1.30003190040588,dog,dog,cr,0565_cl_s02_cr_dog_40_n02104029_3004.JPEG
subject-02,1,567,0.84411096572876,clock,clock,cr,0566_cl_s02_cr_clock_40_n03196217_2507.JPEG
subject-02,1,568,1.02660608291626,truck,truck,cr,0567_cl_s02_cr_truck_40_n03417042_18601.JPEG
subject-02,1,569,0.826750993728638,elephant,elephant,bw,0568_cl_s02_bw_elephant_40_n02504013_394.JPEG
subject-02,1,570,1.01768088340759,truck,truck,cr,0569_cl_s02_cr_truck_40_n03796401_15756.JPEG
subject-02,1,571,1.03160405158997,boat,boat,cr,0570_cl_s02_cr_boat_40_n02951358_12866.JPEG
subject-02,1,572,1.06765794754028,elephant,elephant,cr,0571_cl_s02_cr_elephant_40_n02504458_5187.JPEG
subject-02,1,573,1.17399597167969,car,car,bw,0572_cl_s02_bw_car_40_n03100240_1194.JPEG
subject-02,1,574,1.16619801521301,elephant,elephant,bw,0573_cl_s02_bw_elephant_40_n02504013_2295.JPEG
subject-02,1,575,0.926794052124023,bird,bird,bw,0574_cl_s02_bw_bird_40_n01798484_13201.JPEG
subject-02,1,576,1.19554114341736,knife,knife,bw,0575_cl_s02_bw_knife_40_n03041632_81630.JPEG
subject-02,1,577,1.13216090202332,cat,cat,bw,0576_cl_s02_bw_cat_40_n02123394_2034.JPEG
subject-02,1,578,0.923890829086304,truck,truck,cr,0577_cl_s02_cr_truck_40_n03796401_27963.JPEG
subject-02,1,579,0.890190124511719,bottle,bottle,cr,0578_cl_s02_cr_bottle_40_n04560804_15228.JPEG
subject-02,1,580,0.798435926437378,cat,cat,cr,0579_cl_s02_cr_cat_40_n02123045_8774.JPEG
subject-02,1,581,1.44088387489319,bicycle,clock,bw,0580_cl_s02_bw_clock_40_n03196217_1698.JPEG
subject-02,1,582,1.23368096351624,dog,dog,bw,0581_cl_s02_bw_dog_40_n02088238_10562.JPEG
subject-02,1,583,1.36980795860291,bird,bird,bw,0582_cl_s02_bw_bird_40_n01824575_2244.JPEG
subject-02,1,584,1.10816812515259,knife,knife,cr,0583_cl_s02_cr_knife_40_n03041632_47410.JPEG
subject-02,1,585,0.922415971755981,oven,oven,bw,0584_cl_s02_bw_oven_40_n04111531_8309.JPEG
subject-02,1,586,0.682784080505371,keyboard,keyboard,cr,0585_cl_s02_cr_keyboard_40_n03085013_25181.JPEG
subject-02,1,587,0.748953819274902,elephant,elephant,cr,0586_cl_s02_cr_elephant_40_n02504013_277.JPEG
subject-02,1,588,0.663106918334961,clock,clock,cr,0587_cl_s02_cr_clock_40_n04548280_8971.JPEG
subject-02,1,589,NaN,na,airplane,cr,0588_cl_s02_cr_airplane_40_n02690373_4233.JPEG
subject-02,1,590,0.667695999145508,car,car,cr,0589_cl_s02_cr_car_40_n02814533_18458.JPEG
subject-02,1,591,0.644092082977295,chair,chair,cr,0590_cl_s02_cr_chair_40_n04429376_294.JPEG
subject-02,1,592,1.03430700302124,keyboard,keyboard,bw,0591_cl_s02_bw_keyboard_40_n03085013_4814.JPEG
subject-02,1,593,1.13541007041931,clock,clock,bw,0592_cl_s02_bw_clock_40_n04548280_4042.JPEG
subject-02,1,594,0.833526134490967,bottle,bottle,bw,0593_cl_s02_bw_bottle_40_n04557648_24567.JPEG
subject-02,1,595,0.685683965682983,clock,clock,cr,0594_cl_s02_cr_clock_40_n04548280_2717.JPEG
subject-02,1,596,0.878652811050415,chair,chair,bw,0595_cl_s02_bw_chair_40_n04099969_9891.JPEG
subject-02,1,597,0.662677049636841,knife,knife,bw,0596_cl_s02_bw_knife_40_n03041632_29580.JPEG
subject-02,1,598,1.03717398643494,clock,clock,bw,0597_cl_s02_bw_clock_40_n03196217_5149.JPEG
subject-02,1,599,0.851414918899536,bottle,bottle,bw,0598_cl_s02_bw_bottle_40_n02823428_8600.JPEG
subject-02,1,600,0.957648992538452,elephant,elephant,bw,0599_cl_s02_bw_elephant_40_n02504013_4536.JPEG
subject-02,1,601,0.679996967315674,clock,clock,cr,0600_cl_s02_cr_clock_40_n02708093_8047.JPEG
subject-02,1,602,0.970110177993774,bottle,bottle,cr,0601_cl_s02_cr_bottle_40_n04557648_1092.JPEG
subject-02,1,603,0.668632030487061,boat,boat,cr,0602_cl_s02_cr_boat_40_n03344393_4739.JPEG
subject-02,1,604,1.41237902641296,car,car,bw,0603_cl_s02_bw_car_40_n02814533_6660.JPEG
subject-02,1,605,0.874723196029663,oven,oven,cr,0604_cl_s02_cr_oven_40_n04111531_7034.JPEG
subject-02,1,606,0.602735996246338,car,car,cr,0605_cl_s02_cr_car_40_n02814533_39958.JPEG
subject-02,1,607,0.955262899398804,cat,cat,bw,0606_cl_s02_bw_cat_40_n02123159_8240.JPEG
subject-02,1,608,1.12903308868408,elephant,elephant,cr,0607_cl_s02_cr_elephant_40_n02504458_3953.JPEG
subject-02,1,609,0.797715902328491,bear,bear,bw,0608_cl_s02_bw_bear_40_n02132136_1591.JPEG
subject-02,1,610,1.12040495872498,cat,cat,bw,0609_cl_s02_bw_cat_40_n02125311_6399.JPEG
subject-02,1,611,0.826716899871826,airplane,airplane,bw,0610_cl_s02_bw_airplane_40_n02690373_3377.JPEG
subject-02,1,612,0.702050924301147,clock,clock,bw,0611_cl_s02_bw_clock_40_n04548280_3308.JPEG
subject-02,1,613,0.925537109375,boat,boat,cr,0612_cl_s02_cr_boat_40_n04273569_3977.JPEG
subject-02,1,614,0.5938720703125,oven,oven,cr,0613_cl_s02_cr_oven_40_n04111531_10306.JPEG
subject-02,1,615,0.762117862701416,knife,knife,cr,0614_cl_s02_cr_knife_40_n03041632_105081.JPEG
subject-02,1,616,0.86030387878418,oven,oven,bw,0615_cl_s02_bw_oven_40_n04111531_4322.JPEG
subject-02,1,617,1.2050199508667,bird,bird,bw,0616_cl_s02_bw_bird_40_n02018207_12980.JPEG
subject-02,1,618,0.865241050720215,bicycle,bicycle,cr,0617_cl_s02_cr_bicycle_40_n03792782_4249.JPEG
subject-02,1,619,1.17982006072998,dog,dog,cr,0618_cl_s02_cr_dog_40_n02101388_2075.JPEG
subject-02,1,620,0.716929197311401,clock,clock,cr,0619_cl_s02_cr_clock_40_n04548280_1327.JPEG
subject-02,1,621,0.670285940170288,boat,boat,cr,0620_cl_s02_cr_boat_40_n03662601_16418.JPEG
subject-02,1,622,1.17451500892639,airplane,airplane,cr,0621_cl_s02_cr_airplane_40_n02690373_2024.JPEG
subject-02,1,623,0.980041980743408,oven,oven,bw,0622_cl_s02_bw_oven_40_n04111531_12769.JPEG
subject-02,1,624,0.810470104217529,truck,truck,bw,0623_cl_s02_bw_truck_40_n03417042_7116.JPEG
subject-02,1,625,0.649019002914429,keyboard,keyboard,bw,0624_cl_s02_bw_keyboard_40_n03085013_5812.JPEG
subject-02,1,626,0.95513391494751,boat,boat,cr,0625_cl_s02_cr_boat_40_n02951358_2853.JPEG
subject-02,1,627,1.06958389282227,airplane,airplane,bw,0626_cl_s02_bw_airplane_40_n02690373_2758.JPEG
subject-02,1,628,0.813844919204712,bicycle,bicycle,cr,0627_cl_s02_cr_bicycle_40_n02835271_1299.JPEG
subject-02,1,629,0.882274866104126,boat,boat,cr,0628_cl_s02_cr_boat_40_n04612504_14852.JPEG
subject-02,1,630,0.780555009841919,elephant,elephant,bw,0629_cl_s02_bw_elephant_40_n02504458_326.JPEG
subject-02,1,631,0.832948923110962,keyboard,keyboard,bw,0630_cl_s02_bw_keyboard_40_n04505470_142.JPEG
subject-02,1,632,NaN,na,bear,cr,0631_cl_s02_cr_bear_40_n02134084_24136.JPEG
subject-02,1,633,0.969813823699951,car,car,cr,0632_cl_s02_cr_car_40_n03100240_418.JPEG
subject-02,1,634,1.05903697013855,dog,dog,cr,0633_cl_s02_cr_dog_40_n02097130_7069.JPEG
subject-02,1,635,1.38672614097595,oven,oven,cr,0634_cl_s02_cr_oven_40_n04111531_11530.JPEG
subject-02,1,636,0.964102029800415,truck,truck,bw,0635_cl_s02_bw_truck_40_n03417042_8996.JPEG
subject-02,1,637,0.901753902435303,bicycle,bicycle,bw,0636_cl_s02_bw_bicycle_40_n02835271_22994.JPEG
subject-02,1,638,1.0600278377533,dog,dog,bw,0637_cl_s02_bw_dog_40_n02099267_1256.JPEG
subject-02,1,639,1.09869503974915,car,car,bw,0638_cl_s02_bw_car_40_n03100240_8327.JPEG
subject-02,1,640,0.77507495880127,chair,chair,bw,0639_cl_s02_bw_chair_40_n02791124_3331.JPEG
subject-02,1,641,0.827823877334595,chair,chair,bw,0640_cl_s02_bw_chair_40_n04099969_7065.JPEG
subject-02,1,642,0.650247097015381,clock,clock,bw,0641_cl_s02_bw_clock_40_n03196217_5339.JPEG
subject-02,1,643,0.872549057006836,boat,boat,bw,0642_cl_s02_bw_boat_40_n04273569_16740.JPEG
subject-02,1,644,1.02570009231567,bird,bird,bw,0643_cl_s02_bw_bird_40_n01622779_5706.JPEG
subject-02,1,645,0.848051071166992,elephant,elephant,cr,0644_cl_s02_cr_elephant_40_n02504458_7013.JPEG
subject-02,1,646,0.724810838699341,car,truck,cr,0645_cl_s02_cr_truck_40_n03796401_21480.JPEG
subject-02,1,647,0.768845081329346,cat,keyboard,cr,0646_cl_s02_cr_keyboard_40_n03085013_26449.JPEG
subject-02,1,648,0.799199104309082,bottle,bottle,cr,0647_cl_s02_cr_bottle_40_n04560804_11601.JPEG
subject-02,1,649,1.28967690467834,knife,knife,cr,0648_cl_s02_cr_knife_40_n03041632_25498.JPEG
subject-02,1,650,0.83564281463623,elephant,elephant,cr,0649_cl_s02_cr_elephant_40_n02504013_2861.JPEG
subject-02,1,651,1.25647401809692,clock,knife,bw,0650_cl_s02_bw_knife_40_n03041632_33488.JPEG
subject-02,1,652,1.24089312553406,bicycle,bicycle,bw,0651_cl_s02_bw_bicycle_40_n02835271_17677.JPEG
subject-02,1,653,NaN,na,car,bw,0652_cl_s02_bw_car_40_n02814533_24801.JPEG
subject-02,1,654,0.945202827453613,dog,dog,bw,0653_cl_s02_bw_dog_40_n02092002_6472.JPEG
subject-02,1,655,1.16748905181885,car,car,cr,0654_cl_s02_cr_car_40_n02814533_89061.JPEG
subject-02,1,656,1.25779104232788,cat,cat,cr,0655_cl_s02_cr_cat_40_n02125311_115.JPEG
subject-02,1,657,1.10998487472534,knife,knife,cr,0656_cl_s02_cr_knife_40_n03041632_11475.JPEG
subject-02,1,658,1.01599788665771,cat,dog,bw,0657_cl_s02_bw_dog_40_n02096585_6428.JPEG
subject-02,1,659,0.96225905418396,dog,dog,bw,0658_cl_s02_bw_dog_40_n02094258_6166.JPEG
subject-02,1,660,1.16113710403442,oven,oven,bw,0659_cl_s02_bw_oven_40_n04111531_5888.JPEG
subject-02,1,661,0.76682186126709,bird,bird,bw,0660_cl_s02_bw_bird_40_n01828970_2269.JPEG
subject-02,1,662,1.34156513214111,knife,car,bw,0661_cl_s02_bw_car_40_n04285008_4059.JPEG
subject-02,1,663,0.603852987289429,bottle,bottle,cr,0662_cl_s02_cr_bottle_40_n04560804_472.JPEG
subject-02,1,664,1.10821890830994,dog,cat,bw,0663_cl_s02_bw_cat_40_n02123159_2455.JPEG
subject-02,1,665,1.30014681816101,elephant,elephant,cr,0664_cl_s02_cr_elephant_40_n02504013_868.JPEG
subject-02,1,666,1.35252904891968,airplane,airplane,cr,0665_cl_s02_cr_airplane_40_n02690373_1416.JPEG
subject-02,1,667,0.767136096954346,bottle,bottle,bw,0666_cl_s02_bw_bottle_40_n03983396_3248.JPEG
subject-02,1,668,0.911475896835327,bottle,bottle,bw,0667_cl_s02_bw_bottle_40_n04560804_15534.JPEG
subject-02,1,669,0.770996809005737,keyboard,keyboard,cr,0668_cl_s02_cr_keyboard_40_n03085013_21155.JPEG
subject-02,1,670,0.816567897796631,cat,cat,bw,0669_cl_s02_bw_cat_40_n02124075_951.JPEG
subject-02,1,671,1.08410501480103,cat,cat,cr,0670_cl_s02_cr_cat_40_n02125311_1934.JPEG
subject-02,1,672,0.768467903137207,car,car,cr,0671_cl_s02_cr_car_40_n04285008_9470.JPEG
subject-02,1,673,1.07278299331665,chair,chair,cr,0672_cl_s02_cr_chair_40_n03376595_2566.JPEG
subject-02,1,674,0.849333047866821,boat,boat,bw,0673_cl_s02_bw_boat_40_n03662601_22477.JPEG
subject-02,1,675,1.40226197242737,elephant,elephant,bw,0674_cl_s02_bw_elephant_40_n02504458_8161.JPEG
subject-02,1,676,1.24821090698242,car,chair,bw,0675_cl_s02_bw_chair_40_n02791124_6315.JPEG
subject-02,1,677,1.21436715126038,car,car,bw,0676_cl_s02_bw_car_40_n04285008_14963.JPEG
subject-02,1,678,0.798933982849121,car,car,cr,0677_cl_s02_cr_car_40_n02814533_44901.JPEG
subject-02,1,679,0.607590913772583,keyboard,keyboard,cr,0678_cl_s02_cr_keyboard_40_n04505470_4400.JPEG
subject-02,1,680,0.896887063980103,bird,bird,bw,0679_cl_s02_bw_bird_40_n01860187_37784.JPEG
subject-02,1,681,0.780078172683716,bird,bird,cr,0680_cl_s02_cr_bird_40_n02006656_4850.JPEG
subject-02,1,682,0.734524011611938,boat,boat,cr,0681_cl_s02_cr_boat_40_n02951358_14612.JPEG
subject-02,1,683,0.98684287071228,bear,bear,bw,0682_cl_s02_bw_bear_40_n02133161_2065.JPEG
subject-02,1,684,1.50043201446533,airplane,airplane,bw,0683_cl_s02_bw_airplane_40_n02690373_1773.JPEG
subject-02,1,685,0.875194072723389,elephant,elephant,cr,0684_cl_s02_cr_elephant_40_n02504458_7408.JPEG
subject-02,1,686,1.04389500617981,bird,bird,bw,0685_cl_s02_bw_bird_40_n01531178_21662.JPEG
subject-02,1,687,0.9411461353302,bicycle,bicycle,cr,0686_cl_s02_cr_bicycle_40_n03792782_18180.JPEG
subject-02,1,688,1.03984093666077,boat,bird,cr,0687_cl_s02_cr_bird_40_n01796340_1901.JPEG
subject-02,1,689,1.02411293983459,knife,knife,cr,0688_cl_s02_cr_knife_40_n03041632_24113.JPEG
subject-02,1,690,1.42896199226379,knife,knife,cr,0689_cl_s02_cr_knife_40_n03041632_16104.JPEG
subject-02,1,691,1.10722303390503,bicycle,bicycle,bw,0690_cl_s02_bw_bicycle_40_n03792782_41992.JPEG
subject-02,1,692,1.14366888999939,oven,clock,cr,0691_cl_s02_cr_clock_40_n03196217_2503.JPEG
subject-02,1,693,0.803766965866089,car,car,cr,0692_cl_s02_cr_car_40_n03100240_15531.JPEG
subject-02,1,694,0.74184513092041,elephant,elephant,cr,0693_cl_s02_cr_elephant_40_n02504458_9255.JPEG
subject-02,1,695,1.10885190963745,keyboard,keyboard,bw,0694_cl_s02_bw_keyboard_40_n04505470_1903.JPEG
subject-02,1,696,0.746294021606445,bear,bear,cr,0695_cl_s02_cr_bear_40_n02133161_2010.JPEG
subject-02,1,697,0.768940925598145,car,car,cr,0696_cl_s02_cr_car_40_n04285008_3280.JPEG
subject-02,1,698,0.935111999511719,bottle,bottle,cr,0697_cl_s02_cr_bottle_40_n04557648_840.JPEG
subject-02,1,699,0.903717994689941,elephant,elephant,bw,0698_cl_s02_bw_elephant_40_n02504013_7961.JPEG
subject-02,1,700,0.696185827255249,clock,clock,cr,0699_cl_s02_cr_clock_40_n03196217_6809.JPEG
subject-02,1,701,0.832036018371582,bicycle,bicycle,cr,0700_cl_s02_cr_bicycle_40_n02835271_7873.JPEG
subject-02,1,702,0.83870792388916,elephant,elephant,cr,0701_cl_s02_cr_elephant_40_n02504458_7144.JPEG
subject-02,1,703,1.01467990875244,truck,truck,cr,0702_cl_s02_cr_truck_40_n04467665_11776.JPEG
subject-02,1,704,0.897444009780884,bottle,bottle,bw,0703_cl_s02_bw_bottle_40_n03937543_2042.JPEG
subject-02,1,705,NaN,na,keyboard,cr,0704_cl_s02_cr_keyboard_40_n03085013_23350.JPEG
subject-02,1,706,1.30160188674927,truck,truck,bw,0705_cl_s02_bw_truck_40_n04467665_9645.JPEG
subject-02,1,707,1.49999308586121,airplane,airplane,cr,0706_cl_s02_cr_airplane_40_n02690373_5714.JPEG
subject-02,1,708,0.624225854873657,cat,cat,bw,0707_cl_s02_bw_cat_40_n02123394_8318.JPEG
subject-02,1,709,0.636527061462402,keyboard,keyboard,cr,0708_cl_s02_cr_keyboard_40_n04505470_4906.JPEG
subject-02,1,710,0.774718046188354,cat,cat,bw,0709_cl_s02_bw_cat_40_n02123597_13519.JPEG
subject-02,1,711,1.14293503761292,cat,bear,cr,0710_cl_s02_cr_bear_40_n02132136_3466.JPEG
subject-02,1,712,0.757396936416626,clock,oven,bw,0711_cl_s02_bw_oven_40_n04111531_5965.JPEG
subject-02,1,713,0.863662004470825,bottle,bottle,bw,0712_cl_s02_bw_bottle_40_n04591713_6923.JPEG
subject-02,1,714,0.732725143432617,chair,chair,bw,0713_cl_s02_bw_chair_40_n04099969_2038.JPEG
subject-02,1,715,0.676537036895752,clock,clock,cr,0714_cl_s02_cr_clock_40_n03196217_5493.JPEG
subject-02,1,716,0.668884992599487,boat,boat,cr,0715_cl_s02_cr_boat_40_n04273569_13091.JPEG
subject-02,1,717,1.34343910217285,truck,truck,cr,0716_cl_s02_cr_truck_40_n04467665_50932.JPEG
subject-02,1,718,0.841477155685425,cat,cat,bw,0717_cl_s02_bw_cat_40_n02123159_7684.JPEG
subject-02,1,719,1.31061887741089,elephant,elephant,bw,0718_cl_s02_bw_elephant_40_n02504013_21387.JPEG
subject-02,1,720,0.971004009246826,boat,oven,cr,0719_cl_s02_cr_oven_40_n04111531_845.JPEG
subject-02,1,721,0.947268009185791,car,car,cr,0720_cl_s02_cr_car_40_n04285008_10287.JPEG
subject-02,1,722,0.83961296081543,bicycle,bicycle,bw,0721_cl_s02_bw_bicycle_40_n03792782_4207.JPEG
subject-02,1,723,1.1142590045929,chair,chair,cr,0722_cl_s02_cr_chair_40_n02791124_141.JPEG
subject-02,1,724,0.79065990447998,boat,boat,bw,0723_cl_s02_bw_boat_40_n04273569_27906.JPEG
subject-02,1,725,0.759190082550049,elephant,elephant,bw,0724_cl_s02_bw_elephant_40_n02504458_5271.JPEG
subject-02,1,726,1.06554985046387,oven,oven,cr,0725_cl_s02_cr_oven_40_n04111531_18592.JPEG
subject-02,1,727,0.573676109313965,boat,boat,cr,0726_cl_s02_cr_boat_40_n02951358_1545.JPEG
subject-02,1,728,0.780179977416992,boat,boat,cr,0727_cl_s02_cr_boat_40_n02951358_19768.JPEG
subject-02,1,729,0.807210922241211,cat,cat,bw,0728_cl_s02_bw_cat_40_n02123159_4973.JPEG
subject-02,1,730,1.33909606933594,airplane,airplane,bw,0729_cl_s02_bw_airplane_40_n02690373_8765.JPEG
subject-02,1,731,1.09095001220703,cat,bear,cr,0730_cl_s02_cr_bear_40_n02132136_8386.JPEG
subject-02,1,732,0.943256139755249,bird,bird,bw,0731_cl_s02_bw_bird_40_n01828970_22833.JPEG
subject-02,1,733,1.07991290092468,chair,chair,cr,0732_cl_s02_cr_chair_40_n02791124_3250.JPEG
subject-02,1,734,1.20217800140381,clock,airplane,bw,0733_cl_s02_bw_airplane_40_n02690373_9175.JPEG
subject-02,1,735,0.832785129547119,bicycle,bicycle,cr,0734_cl_s02_cr_bicycle_40_n02835271_3711.JPEG
subject-02,1,736,0.925389051437378,chair,chair,bw,0735_cl_s02_bw_chair_40_n04429376_1366.JPEG
subject-02,1,737,1.03976106643677,cat,cat,cr,0736_cl_s02_cr_cat_40_n02123597_3037.JPEG
subject-02,1,738,1.30617690086365,bird,cat,bw,0737_cl_s02_bw_cat_40_n02123597_2061.JPEG
subject-02,1,739,1.09930419921875,cat,bicycle,bw,0738_cl_s02_bw_bicycle_40_n03792782_6761.JPEG
subject-02,1,740,0.767852067947388,oven,oven,bw,0739_cl_s02_bw_oven_40_n04111531_12729.JPEG
subject-02,1,741,0.91941499710083,dog,dog,cr,0740_cl_s02_cr_dog_40_n02108000_324.JPEG
subject-02,1,742,0.747854948043823,keyboard,keyboard,cr,0741_cl_s02_cr_keyboard_40_n04505470_1820.JPEG
subject-02,1,743,NaN,na,dog,cr,0742_cl_s02_cr_dog_40_n02102177_1760.JPEG
subject-02,1,744,NaN,na,airplane,bw,0743_cl_s02_bw_airplane_40_n02690373_5300.JPEG
subject-02,1,745,0.907562017440796,elephant,elephant,cr,0744_cl_s02_cr_elephant_40_n02504013_816.JPEG
subject-02,1,746,1.0139479637146,car,truck,cr,0745_cl_s02_cr_truck_40_n03796401_2949.JPEG
subject-02,1,747,0.890285968780518,car,car,bw,0746_cl_s02_bw_car_40_n02814533_85368.JPEG
subject-02,1,748,0.65017294883728,bottle,bottle,cr,0747_cl_s02_cr_bottle_40_n04591713_2718.JPEG
subject-02,1,749,0.796691179275513,elephant,elephant,cr,0748_cl_s02_cr_elephant_40_n02504458_4954.JPEG
subject-02,1,750,1.38767600059509,bird,dog,bw,0749_cl_s02_bw_dog_40_n02087394_17008.JPEG
subject-02,1,751,0.677588939666748,keyboard,keyboard,cr,0750_cl_s02_cr_keyboard_40_n03085013_7440.JPEG
subject-02,1,752,0.754059076309204,chair,chair,bw,0751_cl_s02_bw_chair_40_n02791124_3491.JPEG
subject-02,1,753,1.06844997406006,keyboard,clock,bw,0752_cl_s02_bw_clock_40_n02708093_7160.JPEG
subject-02,1,754,NaN,na,car,cr,0753_cl_s02_cr_car_40_n03100240_1507.JPEG
subject-02,1,755,0.904968976974487,clock,chair,bw,0754_cl_s02_bw_chair_40_n04429376_22344.JPEG
subject-02,1,756,0.86581015586853,knife,knife,bw,0755_cl_s02_bw_knife_40_n03041632_30553.JPEG
subject-02,1,757,1.38749003410339,cat,cat,cr,0756_cl_s02_cr_cat_40_n02124075_8351.JPEG
subject-02,1,758,0.831940889358521,keyboard,keyboard,cr,0757_cl_s02_cr_keyboard_40_n04505470_1430.JPEG
subject-02,1,759,0.862409114837646,car,car,bw,0758_cl_s02_bw_car_40_n03100240_6526.JPEG
subject-02,1,760,0.893476963043213,clock,clock,bw,0759_cl_s02_bw_clock_40_n04548280_5012.JPEG
subject-02,1,761,1.34583902359009,oven,bird,cr,0760_cl_s02_cr_bird_40_n01531178_2609.JPEG
subject-02,1,762,1.38441801071167,dog,dog,bw,0761_cl_s02_bw_dog_40_n02097298_8425.JPEG
subject-02,1,763,1.41509819030762,truck,truck,cr,0762_cl_s02_cr_truck_40_n03796401_4495.JPEG
subject-02,1,764,1.18962502479553,oven,oven,bw,0763_cl_s02_bw_oven_40_n04111531_1165.JPEG
subject-02,1,765,0.81158709526062,bottle,bottle,bw,0764_cl_s02_bw_bottle_40_n04579145_254.JPEG
subject-02,1,766,0.820297002792358,oven,oven,cr,0765_cl_s02_cr_oven_40_n04111531_2930.JPEG
subject-02,1,767,0.780529022216797,truck,truck,cr,0766_cl_s02_cr_truck_40_n03417042_19905.JPEG
subject-02,1,768,0.917257070541382,oven,oven,cr,0767_cl_s02_cr_oven_40_n04111531_9712.JPEG
subject-02,1,769,NaN,na,dog,cr,0768_cl_s02_cr_dog_40_n02090721_6212.JPEG
subject-02,1,770,0.84737491607666,bird,bird,bw,0769_cl_s02_bw_bird_40_n02007558_6416.JPEG
subject-02,1,771,0.775507926940918,boat,boat,bw,0770_cl_s02_bw_boat_40_n03662601_14049.JPEG
subject-02,1,772,0.730098009109497,knife,knife,bw,0771_cl_s02_bw_knife_40_n03041632_51617.JPEG
subject-02,1,773,0.596270084381104,bird,bird,cr,0772_cl_s02_cr_bird_40_n02009912_7935.JPEG
subject-02,1,774,0.588376998901367,clock,clock,bw,0773_cl_s02_bw_clock_40_n02708093_167.JPEG
subject-02,1,775,0.657217025756836,boat,boat,bw,0774_cl_s02_bw_boat_40_n03344393_10907.JPEG
subject-02,1,776,0.67940092086792,airplane,airplane,bw,0775_cl_s02_bw_airplane_40_n02690373_8783.JPEG
subject-02,1,777,1.09229612350464,bottle,bottle,cr,0776_cl_s02_cr_bottle_40_n04591713_4064.JPEG
subject-02,1,778,0.862297058105469,knife,knife,bw,0777_cl_s02_bw_knife_40_n03041632_8618.JPEG
subject-02,1,779,0.685019016265869,boat,boat,bw,0778_cl_s02_bw_boat_40_n03344393_2299.JPEG
subject-02,1,780,0.791566848754883,oven,oven,cr,0779_cl_s02_cr_oven_40_n04111531_6400.JPEG
subject-02,1,781,0.889766931533813,bicycle,bicycle,bw,0780_cl_s02_bw_bicycle_40_n02835271_19935.JPEG
subject-02,1,782,0.782310962677002,bird,bird,cr,0781_cl_s02_cr_bird_40_n01616318_1849.JPEG
subject-02,1,783,0.818271160125732,oven,oven,cr,0782_cl_s02_cr_oven_40_n04111531_6094.JPEG
subject-02,1,784,0.748998880386353,bird,bird,bw,0783_cl_s02_bw_bird_40_n01855672_9876.JPEG
subject-02,1,785,0.809179067611694,chair,chair,bw,0784_cl_s02_bw_chair_40_n02791124_2605.JPEG
subject-02,1,786,0.778052806854248,cat,cat,bw,0785_cl_s02_bw_cat_40_n02123597_32226.JPEG
subject-02,1,787,0.96808910369873,boat,oven,bw,0786_cl_s02_bw_oven_40_n04111531_1009.JPEG
subject-02,1,788,0.745293855667114,boat,boat,bw,0787_cl_s02_bw_boat_40_n03662601_3100.JPEG
subject-02,1,789,0.705424070358276,chair,chair,bw,0788_cl_s02_bw_chair_40_n04099969_12913.JPEG
subject-02,1,790,0.973945140838623,chair,chair,cr,0789_cl_s02_cr_chair_40_n02791124_4640.JPEG
subject-02,1,791,1.03453302383423,bottle,bottle,cr,0790_cl_s02_cr_bottle_40_n04557648_214.JPEG
subject-02,1,792,0.578713893890381,bicycle,bicycle,cr,0791_cl_s02_cr_bicycle_40_n02835271_15925.JPEG
subject-02,1,793,0.884930849075317,bird,bird,cr,0792_cl_s02_cr_bird_40_n01601694_13334.JPEG
subject-02,1,794,0.715611219406128,clock,clock,cr,0793_cl_s02_cr_clock_40_n02708093_2843.JPEG
subject-02,1,795,1.02759194374084,dog,dog,bw,0794_cl_s02_bw_dog_40_n02090721_3793.JPEG
subject-02,1,796,0.803632020950317,truck,truck,cr,0795_cl_s02_cr_truck_40_n03417042_12486.JPEG
subject-02,1,797,1.21029806137085,bicycle,bicycle,cr,0796_cl_s02_cr_bicycle_40_n02835271_2594.JPEG
subject-02,1,798,0.824880838394165,knife,knife,bw,0797_cl_s02_bw_knife_40_n03041632_104379.JPEG
subject-02,1,799,1.37695622444153,elephant,knife,cr,0798_cl_s02_cr_knife_40_n03041632_80829.JPEG
subject-02,1,800,1.29946708679199,car,car,bw,0799_cl_s02_bw_car_40_n04285008_12539.JPEG
subject-02,1,801,1.12780594825745,clock,clock,cr,0800_cl_s02_cr_clock_40_n04548280_2518.JPEG
subject-02,1,802,0.758219957351685,clock,clock,bw,0801_cl_s02_bw_clock_40_n03196217_4834.JPEG
subject-02,1,803,0.972207069396973,car,car,bw,0802_cl_s02_bw_car_40_n02814533_5947.JPEG
subject-02,1,804,0.957195043563843,boat,boat,bw,0803_cl_s02_bw_boat_40_n04612504_4302.JPEG
subject-02,1,805,0.977381944656372,bottle,bottle,cr,0804_cl_s02_cr_bottle_40_n03983396_4843.JPEG
subject-02,1,806,0.837435960769653,keyboard,keyboard,cr,0805_cl_s02_cr_keyboard_40_n04505470_2570.JPEG
subject-02,1,807,1.398118019104,cat,cat,bw,0806_cl_s02_bw_cat_40_n02123394_210.JPEG
subject-02,1,808,0.736240148544312,chair,chair,cr,0807_cl_s02_cr_chair_40_n04099969_2267.JPEG
subject-02,1,809,0.901814937591553,bear,bear,cr,0808_cl_s02_cr_bear_40_n02134418_21460.JPEG
subject-02,1,810,0.792624950408936,bottle,bottle,bw,0809_cl_s02_bw_bottle_40_n04560804_16363.JPEG
subject-02,1,811,1.20666098594666,bicycle,bicycle,cr,0810_cl_s02_cr_bicycle_40_n03792782_5232.JPEG
subject-02,1,812,0.912585973739624,chair,chair,cr,0811_cl_s02_cr_chair_40_n04429376_18127.JPEG
subject-02,1,813,0.740732908248901,truck,truck,bw,0812_cl_s02_bw_truck_40_n03796401_25181.JPEG
subject-02,1,814,1.377445936203,cat,cat,bw,0813_cl_s02_bw_cat_40_n02125311_13627.JPEG
subject-02,1,815,NaN,na,airplane,cr,0814_cl_s02_cr_airplane_40_n02690373_6212.JPEG
subject-02,1,816,0.959765911102295,bicycle,bicycle,cr,0815_cl_s02_cr_bicycle_40_n03792782_5209.JPEG
subject-02,1,817,0.814627170562744,boat,boat,cr,0816_cl_s02_cr_boat_40_n03344393_5343.JPEG
subject-02,1,818,0.942898988723755,elephant,elephant,bw,0817_cl_s02_bw_elephant_40_n02504458_4979.JPEG
subject-02,1,819,1.14158201217651,boat,boat,bw,0818_cl_s02_bw_boat_40_n03662601_5232.JPEG
subject-02,1,820,0.774602890014648,bicycle,bicycle,bw,0819_cl_s02_bw_bicycle_40_n03792782_11625.JPEG
subject-02,1,821,1.14842391014099,car,car,bw,0820_cl_s02_bw_car_40_n04285008_7224.JPEG
subject-02,1,822,0.98496413230896,bicycle,bicycle,cr,0821_cl_s02_cr_bicycle_40_n03792782_1030.JPEG
subject-02,1,823,0.885247945785522,bird,bird,bw,0822_cl_s02_bw_bird_40_n01820546_6785.JPEG
subject-02,1,824,1.07559394836426,bird,bird,bw,0823_cl_s02_bw_bird_40_n02033041_7355.JPEG
subject-02,1,825,1.07426500320435,airplane,airplane,bw,0824_cl_s02_bw_airplane_40_n02690373_283.JPEG
subject-02,1,826,1.30462408065796,dog,cat,cr,0825_cl_s02_cr_cat_40_n02123597_1534.JPEG
subject-02,1,827,1.33974313735962,airplane,airplane,cr,0826_cl_s02_cr_airplane_40_n02690373_3874.JPEG
subject-02,1,828,1.13871598243713,chair,chair,bw,0827_cl_s02_bw_chair_40_n04429376_9165.JPEG
subject-02,1,829,0.569063901901245,boat,boat,bw,0828_cl_s02_bw_boat_40_n04612504_37165.JPEG
subject-02,1,830,1.16751790046692,cat,cat,bw,0829_cl_s02_bw_cat_40_n02123159_2426.JPEG
subject-02,1,831,0.773438930511475,oven,oven,cr,0830_cl_s02_cr_oven_40_n04111531_986.JPEG
subject-02,1,832,1.12608909606934,bear,bear,bw,0831_cl_s02_bw_bear_40_n02133161_7032.JPEG
subject-02,1,833,1.02464699745178,car,car,cr,0832_cl_s02_cr_car_40_n03100240_17143.JPEG
subject-02,1,834,0.900946140289307,knife,knife,bw,0833_cl_s02_bw_knife_40_n03041632_81943.JPEG
subject-02,1,835,0.962277173995972,bicycle,bicycle,cr,0834_cl_s02_cr_bicycle_40_n03792782_3631.JPEG
subject-02,1,836,0.838024139404297,bottle,bottle,bw,0835_cl_s02_bw_bottle_40_n03983396_16316.JPEG
subject-02,1,837,0.560516119003296,clock,clock,bw,0836_cl_s02_bw_clock_40_n03196217_182.JPEG
subject-02,1,838,0.775375127792358,cat,cat,bw,0837_cl_s02_bw_cat_40_n02123394_5075.JPEG
subject-02,1,839,0.803720951080322,bottle,bottle,bw,0838_cl_s02_bw_bottle_40_n04560804_2432.JPEG
subject-02,1,840,1.50029802322388,truck,truck,bw,0839_cl_s02_bw_truck_40_n03796401_10576.JPEG
subject-02,1,841,1.33061003684998,bird,bird,bw,0840_cl_s02_bw_bird_40_n02011460_5735.JPEG
subject-02,1,842,1.09100890159607,truck,truck,cr,0841_cl_s02_cr_truck_40_n03417042_25947.JPEG
subject-02,1,843,1.11330795288086,airplane,airplane,cr,0842_cl_s02_cr_airplane_40_n02690373_2648.JPEG
subject-02,1,844,0.957427978515625,bear,bear,bw,0843_cl_s02_bw_bear_40_n02132136_17346.JPEG
subject-02,1,845,0.717789173126221,dog,dog,cr,0844_cl_s02_cr_dog_40_n02098105_1796.JPEG
subject-02,1,846,1.23817610740662,cat,bear,cr,0845_cl_s02_cr_bear_40_n02134418_1314.JPEG
subject-02,1,847,1.16020202636719,bicycle,bicycle,cr,0846_cl_s02_cr_bicycle_40_n03792782_11597.JPEG
subject-02,1,848,0.974853992462158,knife,knife,cr,0847_cl_s02_cr_knife_40_n03041632_25603.JPEG
subject-02,1,849,1.05117607116699,clock,clock,bw,0848_cl_s02_bw_clock_40_n03196217_6083.JPEG
subject-02,1,850,0.73659086227417,bottle,bottle,bw,0849_cl_s02_bw_bottle_40_n02823428_11441.JPEG
subject-02,1,851,0.88831090927124,bottle,bottle,bw,0850_cl_s02_bw_bottle_40_n04557648_140.JPEG
subject-02,1,852,0.703161001205444,clock,clock,bw,0851_cl_s02_bw_clock_40_n02708093_870.JPEG
subject-02,1,853,NaN,na,knife,bw,0852_cl_s02_bw_knife_40_n03041632_49363.JPEG
subject-02,1,854,0.639752864837646,car,car,cr,0853_cl_s02_cr_car_40_n03100240_9598.JPEG
subject-02,1,855,1.21436500549316,clock,oven,bw,0854_cl_s02_bw_oven_40_n04111531_13809.JPEG
subject-02,1,856,0.882927894592285,bear,bear,cr,0855_cl_s02_cr_bear_40_n02133161_10314.JPEG
subject-02,1,857,0.796970844268799,bicycle,bicycle,bw,0856_cl_s02_bw_bicycle_40_n02835271_5607.JPEG
subject-02,1,858,1.28004193305969,knife,knife,bw,0857_cl_s02_bw_knife_40_n03041632_40283.JPEG
subject-02,1,859,1.23284482955933,dog,dog,cr,0858_cl_s02_cr_dog_40_n02105162_6340.JPEG
subject-02,1,860,1.22457218170166,car,car,bw,0859_cl_s02_bw_car_40_n03100240_381.JPEG
subject-02,1,861,1.40960693359375,truck,truck,bw,0860_cl_s02_bw_truck_40_n04467665_47560.JPEG
subject-02,1,862,1.50042796134949,airplane,airplane,cr,0861_cl_s02_cr_airplane_40_n02690373_1837.JPEG
subject-02,1,863,1.16816806793213,bicycle,bicycle,bw,0862_cl_s02_bw_bicycle_40_n03792782_52549.JPEG
subject-02,1,864,1.33672285079956,airplane,airplane,bw,0863_cl_s02_bw_airplane_40_n02690373_19131.JPEG
subject-02,1,865,1.34326696395874,dog,bear,cr,0864_cl_s02_cr_bear_40_n02134418_9848.JPEG
subject-02,1,866,1.07363200187683,cat,cat,bw,0865_cl_s02_bw_cat_40_n02123394_1292.JPEG
subject-02,1,867,0.849874019622803,truck,truck,bw,0866_cl_s02_bw_truck_40_n03417042_28394.JPEG
subject-02,1,868,1.08603310585022,knife,knife,cr,0867_cl_s02_cr_knife_40_n03041632_47743.JPEG
subject-02,1,869,1.21413087844849,bottle,bottle,cr,0868_cl_s02_cr_bottle_40_n04579145_1302.JPEG
subject-02,1,870,1.08239603042603,bird,bird,bw,0869_cl_s02_bw_bird_40_n01531178_2323.JPEG
subject-02,1,871,0.950288057327271,bird,bird,cr,0870_cl_s02_cr_bird_40_n01534433_6401.JPEG
subject-02,1,872,0.794767141342163,car,car,cr,0871_cl_s02_cr_car_40_n04285008_2789.JPEG
subject-02,1,873,1.05513215065002,car,car,cr,0872_cl_s02_cr_car_40_n03100240_5489.JPEG
subject-02,1,874,1.32323002815247,truck,truck,bw,0873_cl_s02_bw_truck_40_n03796401_5071.JPEG
subject-02,1,875,0.66200590133667,clock,clock,bw,0874_cl_s02_bw_clock_40_n02708093_4798.JPEG
subject-02,1,876,1.34386706352234,bear,bear,bw,0875_cl_s02_bw_bear_40_n02134418_557.JPEG
subject-02,1,877,1.09845304489136,bottle,bottle,bw,0876_cl_s02_bw_bottle_40_n03937543_10618.JPEG
subject-02,1,878,1.13476014137268,chair,chair,cr,0877_cl_s02_cr_chair_40_n04429376_19101.JPEG
subject-02,1,879,0.886836051940918,bottle,bottle,cr,0878_cl_s02_cr_bottle_40_n04591713_5754.JPEG
subject-02,1,880,1.50036287307739,airplane,airplane,bw,0879_cl_s02_bw_airplane_40_n02690373_21731.JPEG
subject-02,1,881,1.26942300796509,clock,chair,cr,0880_cl_s02_cr_chair_40_n04429376_61.JPEG
subject-02,1,882,0.775820970535278,chair,chair,bw,0881_cl_s02_bw_chair_40_n04099969_10014.JPEG
subject-02,1,883,0.72802209854126,oven,oven,cr,0882_cl_s02_cr_oven_40_n04111531_498.JPEG
subject-02,1,884,0.750512838363647,boat,bicycle,bw,0883_cl_s02_bw_bicycle_40_n03792782_12663.JPEG
subject-02,1,885,1.09454202651978,knife,knife,bw,0884_cl_s02_bw_knife_40_n03041632_20595.JPEG
subject-02,1,886,1.48766899108887,car,car,bw,0885_cl_s02_bw_car_40_n02814533_35156.JPEG
subject-02,1,887,1.05599284172058,clock,clock,bw,0886_cl_s02_bw_clock_40_n02708093_2670.JPEG
subject-02,1,888,0.686446905136108,oven,oven,bw,0887_cl_s02_bw_oven_40_n04111531_5828.JPEG
subject-02,1,889,0.770997047424316,bicycle,bicycle,bw,0888_cl_s02_bw_bicycle_40_n03792782_26168.JPEG
subject-02,1,890,0.953023910522461,dog,cat,cr,0889_cl_s02_cr_cat_40_n02123597_11624.JPEG
subject-02,1,891,1.28371596336365,car,car,bw,0890_cl_s02_bw_car_40_n02814533_96791.JPEG
subject-02,1,892,1.2580349445343,chair,knife,bw,0891_cl_s02_bw_knife_40_n03041632_102887.JPEG
subject-02,1,893,0.821120023727417,keyboard,keyboard,cr,0892_cl_s02_cr_keyboard_40_n03085013_23192.JPEG
subject-02,1,894,1.05776286125183,clock,clock,bw,0893_cl_s02_bw_clock_40_n03196217_592.JPEG
subject-02,1,895,1.07200193405151,bear,bear,bw,0894_cl_s02_bw_bear_40_n02133161_4899.JPEG
subject-02,1,896,0.948671102523804,bicycle,bicycle,bw,0895_cl_s02_bw_bicycle_40_n03792782_1225.JPEG
subject-02,1,897,0.778657913208008,cat,cat,cr,0896_cl_s02_cr_cat_40_n02125311_16840.JPEG
subject-02,1,898,1.03927898406982,cat,cat,cr,0897_cl_s02_cr_cat_40_n02123159_5429.JPEG
subject-02,1,899,1.00787496566772,bicycle,bicycle,bw,0898_cl_s02_bw_bicycle_40_n02835271_1175.JPEG
subject-02,1,900,0.868366956710815,oven,oven,bw,0899_cl_s02_bw_oven_40_n04111531_11265.JPEG
subject-02,1,901,1.05067896842957,dog,dog,cr,0900_cl_s02_cr_dog_40_n02094258_2602.JPEG
subject-02,1,902,1.12724995613098,truck,truck,bw,0901_cl_s02_bw_truck_40_n04467665_9941.JPEG
subject-02,1,903,0.803256034851074,chair,chair,cr,0902_cl_s02_cr_chair_40_n04099969_16330.JPEG
subject-02,1,904,0.771885871887207,boat,elephant,bw,0903_cl_s02_bw_elephant_40_n02504013_10543.JPEG
subject-02,1,905,1.40037608146667,dog,dog,bw,0904_cl_s02_bw_dog_40_n02107142_17111.JPEG
subject-02,1,906,1.1849160194397,truck,truck,cr,0905_cl_s02_cr_truck_40_n03417042_14000.JPEG
subject-02,1,907,1.11313080787659,chair,chair,cr,0906_cl_s02_cr_chair_40_n04429376_3620.JPEG
subject-02,1,908,0.859775066375732,boat,boat,cr,0907_cl_s02_cr_boat_40_n04273569_1141.JPEG
subject-02,1,909,0.804309844970703,elephant,elephant,cr,0908_cl_s02_cr_elephant_40_n02504458_8615.JPEG
subject-02,1,910,1.04326796531677,chair,chair,bw,0909_cl_s02_bw_chair_40_n04429376_20906.JPEG
subject-02,1,911,0.95535683631897,dog,bird,cr,0910_cl_s02_cr_bird_40_n01817953_8260.JPEG
subject-02,1,912,0.915070056915283,dog,dog,cr,0911_cl_s02_cr_dog_40_n02107142_1550.JPEG
subject-02,1,913,0.499001026153564,clock,clock,cr,0912_cl_s02_cr_clock_40_n03196217_4974.JPEG
subject-02,1,914,1.08060097694397,airplane,airplane,cr,0913_cl_s02_cr_airplane_40_n02690373_3993.JPEG
subject-02,1,915,1.30110597610474,cat,cat,cr,0914_cl_s02_cr_cat_40_n02123597_2360.JPEG
subject-02,1,916,0.793515920639038,bear,bear,cr,0915_cl_s02_cr_bear_40_n02134418_4895.JPEG
subject-02,1,917,NaN,na,oven,cr,0916_cl_s02_cr_oven_40_n04111531_11110.JPEG
subject-02,1,918,1.09799313545227,car,car,bw,0917_cl_s02_bw_car_40_n02814533_14771.JPEG
subject-02,1,919,NaN,na,cat,bw,0918_cl_s02_bw_cat_40_n02124075_10611.JPEG
subject-02,1,920,1.31944298744202,chair,chair,cr,0919_cl_s02_cr_chair_40_n04099969_2398.JPEG
subject-02,1,921,0.916714906692505,oven,oven,cr,0920_cl_s02_cr_oven_40_n04111531_9844.JPEG
subject-02,1,922,0.925223112106323,knife,knife,bw,0921_cl_s02_bw_knife_40_n03041632_9406.JPEG
subject-02,1,923,1.48364305496216,dog,bear,bw,0922_cl_s02_bw_bear_40_n02134084_5004.JPEG
subject-02,1,924,1.25191688537598,clock,dog,bw,0923_cl_s02_bw_dog_40_n02111129_6679.JPEG
subject-02,1,925,0.90590500831604,elephant,elephant,bw,0924_cl_s02_bw_elephant_40_n02504458_6902.JPEG
subject-02,1,926,0.77504301071167,knife,knife,bw,0925_cl_s02_bw_knife_40_n03041632_38610.JPEG
subject-02,1,927,0.756776809692383,chair,chair,cr,0926_cl_s02_cr_chair_40_n04429376_10128.JPEG
subject-02,1,928,0.88709282875061,knife,knife,bw,0927_cl_s02_bw_knife_40_n03041632_86251.JPEG
subject-02,1,929,NaN,na,elephant,bw,0928_cl_s02_bw_elephant_40_n02504458_1519.JPEG
subject-02,1,930,1.13058710098267,bear,bear,bw,0929_cl_s02_bw_bear_40_n02134084_7729.JPEG
subject-02,1,931,0.79877495765686,boat,boat,cr,0930_cl_s02_cr_boat_40_n02951358_4826.JPEG
subject-02,1,932,0.975337982177734,elephant,elephant,cr,0931_cl_s02_cr_elephant_40_n02504458_4336.JPEG
subject-02,1,933,0.821574926376343,cat,dog,cr,0932_cl_s02_cr_dog_40_n02091831_8827.JPEG
subject-02,1,934,0.848650932312012,bottle,bottle,cr,0933_cl_s02_cr_bottle_40_n04579145_54.JPEG
subject-02,1,935,0.688173055648804,oven,oven,cr,0934_cl_s02_cr_oven_40_n04111531_4750.JPEG
subject-02,1,936,0.718569040298462,keyboard,keyboard,bw,0935_cl_s02_bw_keyboard_40_n03085013_1070.JPEG
subject-02,1,937,1.20885300636292,dog,dog,cr,0936_cl_s02_cr_dog_40_n02112706_2952.JPEG
subject-02,1,938,1.0073881149292,knife,knife,bw,0937_cl_s02_bw_knife_40_n03041632_10802.JPEG
subject-02,1,939,1.30540013313293,bird,bird,cr,0938_cl_s02_cr_bird_40_n01558993_11379.JPEG
subject-02,1,940,0.998101949691772,clock,clock,bw,0939_cl_s02_bw_clock_40_n04548280_8348.JPEG
subject-02,1,941,1.10196089744568,truck,truck,cr,0940_cl_s02_cr_truck_40_n03417042_4574.JPEG
subject-02,1,942,0.840137004852295,elephant,elephant,bw,0941_cl_s02_bw_elephant_40_n02504458_7914.JPEG
subject-02,1,943,0.638633012771606,boat,boat,cr,0942_cl_s02_cr_boat_40_n02951358_10893.JPEG
subject-02,1,944,1.16870999336243,boat,boat,bw,0943_cl_s02_bw_boat_40_n04612504_11214.JPEG
subject-02,1,945,0.691090822219849,bottle,bottle,cr,0944_cl_s02_cr_bottle_40_n02823428_825.JPEG
subject-02,1,946,1.22720313072205,bottle,bottle,cr,0945_cl_s02_cr_bottle_40_n03983396_3164.JPEG
subject-02,1,947,0.857869148254395,truck,truck,bw,0946_cl_s02_bw_truck_40_n03417042_3307.JPEG
subject-02,1,948,0.956384181976318,bird,bird,cr,0947_cl_s02_cr_bird_40_n02018795_1573.JPEG
subject-02,1,949,0.856877088546753,car,car,cr,0948_cl_s02_cr_car_40_n03100240_12995.JPEG
subject-02,1,950,0.72523307800293,bottle,dog,cr,0949_cl_s02_cr_dog_40_n02100735_2525.JPEG
subject-02,1,951,0.807622909545898,boat,boat,cr,0950_cl_s02_cr_boat_40_n04612504_8942.JPEG
subject-02,1,952,1.28429985046387,bear,bear,bw,0951_cl_s02_bw_bear_40_n02134084_22603.JPEG
subject-02,1,953,1.26618194580078,cat,cat,cr,0952_cl_s02_cr_cat_40_n02123394_2903.JPEG
subject-02,1,954,1.11268186569214,bird,bird,cr,0953_cl_s02_cr_bird_40_n02037110_11551.JPEG
subject-02,1,955,1.11087799072266,boat,boat,bw,0954_cl_s02_bw_boat_40_n04273569_12917.JPEG
subject-02,1,956,1.00098514556885,cat,bear,bw,0955_cl_s02_bw_bear_40_n02134084_22862.JPEG
subject-02,1,957,1.02237701416016,bicycle,bicycle,cr,0956_cl_s02_cr_bicycle_40_n03792782_9396.JPEG
subject-02,1,958,0.752372026443481,chair,chair,cr,0957_cl_s02_cr_chair_40_n02791124_9124.JPEG
subject-02,1,959,0.867646932601929,bear,bear,cr,0958_cl_s02_cr_bear_40_n02132136_11149.JPEG
subject-02,1,960,1.48808002471924,dog,dog,cr,0959_cl_s02_cr_dog_40_n02101556_7442.JPEG
subject-02,1,961,0.734725952148438,bear,bear,bw,0960_cl_s02_bw_bear_40_n02133161_2880.JPEG
subject-02,1,962,0.754764080047607,chair,chair,cr,0961_cl_s02_cr_chair_40_n03376595_820.JPEG
subject-02,1,963,0.939289093017578,airplane,airplane,cr,0962_cl_s02_cr_airplane_40_n02690373_5462.JPEG
subject-02,1,964,1.29967713356018,bicycle,bicycle,cr,0963_cl_s02_cr_bicycle_40_n02835271_5403.JPEG
subject-02,1,965,0.822443962097168,bicycle,bicycle,cr,0964_cl_s02_cr_bicycle_40_n02835271_31431.JPEG
subject-02,1,966,1.02043199539185,cat,cat,cr,0965_cl_s02_cr_cat_40_n02123394_8250.JPEG
subject-02,1,967,0.85890007019043,cat,cat,cr,0966_cl_s02_cr_cat_40_n02125311_26497.JPEG
subject-02,1,968,0.686918020248413,bear,bear,cr,0967_cl_s02_cr_bear_40_n02134084_6343.JPEG
subject-02,1,969,0.725354194641113,boat,boat,cr,0968_cl_s02_cr_boat_40_n04612504_20553.JPEG
subject-02,1,970,0.709283113479614,boat,oven,bw,0969_cl_s02_bw_oven_40_n04111531_7600.JPEG
subject-02,1,971,0.899831056594849,clock,clock,cr,0970_cl_s02_cr_clock_40_n04548280_596.JPEG
subject-02,1,972,1.32857179641724,knife,knife,bw,0971_cl_s02_bw_knife_40_n03041632_7448.JPEG
subject-02,1,973,1.10460901260376,car,car,bw,0972_cl_s02_bw_car_40_n03100240_7113.JPEG
subject-02,1,974,0.967773914337158,chair,bottle,bw,0973_cl_s02_bw_bottle_40_n04557648_9903.JPEG
subject-02,1,975,0.703892946243286,truck,truck,cr,0974_cl_s02_cr_truck_40_n03796401_4309.JPEG
subject-02,1,976,0.850058078765869,elephant,elephant,cr,0975_cl_s02_cr_elephant_40_n02504013_3141.JPEG
subject-02,1,977,1.40269899368286,knife,knife,bw,0976_cl_s02_bw_knife_40_n03041632_21017.JPEG
subject-02,1,978,0.747013092041016,dog,dog,bw,0977_cl_s02_bw_dog_40_n02086910_6630.JPEG
subject-02,1,979,0.547177791595459,airplane,airplane,cr,0978_cl_s02_cr_airplane_40_n02690373_6999.JPEG
subject-02,1,980,0.861832857131958,cat,cat,cr,0979_cl_s02_cr_cat_40_n02124075_862.JPEG
subject-02,1,981,1.14415693283081,clock,elephant,bw,0980_cl_s02_bw_elephant_40_n02504458_4763.JPEG
subject-02,1,982,0.920629978179932,keyboard,keyboard,bw,0981_cl_s02_bw_keyboard_40_n04505470_8148.JPEG
subject-02,1,983,1.43511414527893,dog,bear,bw,0982_cl_s02_bw_bear_40_n02132136_1661.JPEG
subject-02,1,984,0.805837869644165,car,car,cr,0983_cl_s02_cr_car_40_n04285008_10825.JPEG
subject-02,1,985,0.825767040252686,chair,chair,cr,0984_cl_s02_cr_chair_40_n04429376_10628.JPEG
subject-02,1,986,1.46450686454773,bicycle,bicycle,bw,0985_cl_s02_bw_bicycle_40_n02835271_695.JPEG
subject-02,1,987,0.78726601600647,oven,oven,bw,0986_cl_s02_bw_oven_40_n04111531_2042.JPEG
subject-02,1,988,1.33931398391724,knife,knife,cr,0987_cl_s02_cr_knife_40_n03041632_83826.JPEG
subject-02,1,989,0.701859951019287,oven,oven,cr,0988_cl_s02_cr_oven_40_n04111531_17006.JPEG
subject-02,1,990,0.684337139129639,oven,oven,bw,0989_cl_s02_bw_oven_40_n04111531_1992.JPEG
subject-02,1,991,0.800566911697388,car,car,bw,0990_cl_s02_bw_car_40_n02814533_82574.JPEG
subject-02,1,992,0.82082200050354,cat,cat,cr,0991_cl_s02_cr_cat_40_n02125311_34817.JPEG
subject-02,1,993,1.12663102149963,bottle,bottle,cr,0992_cl_s02_cr_bottle_40_n03937543_3759.JPEG
subject-02,1,994,1.11871790885925,cat,bear,cr,0993_cl_s02_cr_bear_40_n02134084_23062.JPEG
subject-02,1,995,0.895439147949219,chair,chair,bw,0994_cl_s02_bw_chair_40_n02791124_1135.JPEG
subject-02,1,996,1.30166506767273,bird,bird,cr,0995_cl_s02_cr_bird_40_n01819313_3893.JPEG
subject-02,1,997,0.877769947052002,keyboard,keyboard,bw,0996_cl_s02_bw_keyboard_40_n03085013_25568.JPEG
subject-02,1,998,1.10867619514465,truck,truck,cr,0997_cl_s02_cr_truck_40_n03417042_28078.JPEG
subject-02,1,999,0.81468391418457,airplane,airplane,cr,0998_cl_s02_cr_airplane_40_n02690373_5870.JPEG
subject-02,1,1000,0.767037868499756,boat,boat,cr,0999_cl_s02_cr_boat_40_n03344393_6758.JPEG
subject-02,1,1001,0.75666618347168,cat,cat,cr,1000_cl_s02_cr_cat_40_n02123159_1677.JPEG
subject-02,1,1002,1.14837408065796,airplane,airplane,cr,1001_cl_s02_cr_airplane_40_n02690373_3912.JPEG
subject-02,1,1003,1.3237030506134,truck,truck,bw,1002_cl_s02_bw_truck_40_n04467665_23905.JPEG
subject-02,1,1004,0.761981964111328,elephant,elephant,cr,1003_cl_s02_cr_elephant_40_n02504013_13422.JPEG
subject-02,1,1005,1.42991900444031,clock,airplane,cr,1004_cl_s02_cr_airplane_40_n02690373_9662.JPEG
subject-02,1,1006,1.12027907371521,cat,cat,bw,1005_cl_s02_bw_cat_40_n02125311_17890.JPEG
subject-02,1,1007,1.2805449962616,truck,truck,cr,1006_cl_s02_cr_truck_40_n04467665_16069.JPEG
subject-02,1,1008,1.14301800727844,bird,bird,bw,1007_cl_s02_bw_bird_40_n01855032_4926.JPEG
subject-02,1,1009,1.41763591766357,keyboard,keyboard,bw,1008_cl_s02_bw_keyboard_40_n04505470_4086.JPEG
subject-02,1,1010,0.94190788269043,bicycle,bicycle,cr,1009_cl_s02_cr_bicycle_40_n02835271_8273.JPEG
subject-02,1,1011,0.739894151687622,clock,clock,cr,1010_cl_s02_cr_clock_40_n02708093_6672.JPEG
subject-02,1,1012,1.06817412376404,bear,bear,cr,1011_cl_s02_cr_bear_40_n02134084_10224.JPEG
subject-02,1,1013,1.00652194023132,bottle,bottle,bw,1012_cl_s02_bw_bottle_40_n03983396_20197.JPEG
subject-02,1,1014,1.29647898674011,dog,dog,cr,1013_cl_s02_cr_dog_40_n02110185_335.JPEG
subject-02,1,1015,1.37346196174622,dog,dog,bw,1014_cl_s02_bw_dog_40_n02093754_7261.JPEG
subject-02,1,1016,0.803889989852905,boat,boat,bw,1015_cl_s02_bw_boat_40_n02951358_6147.JPEG
subject-02,1,1017,1.01015901565552,dog,dog,cr,1016_cl_s02_cr_dog_40_n02113624_1203.JPEG
subject-02,1,1018,1.27141308784485,knife,knife,bw,1017_cl_s02_bw_knife_40_n03041632_35116.JPEG
subject-02,1,1019,0.762605905532837,chair,chair,cr,1018_cl_s02_cr_chair_40_n03376595_12440.JPEG
subject-02,1,1020,1.31350302696228,dog,dog,cr,1019_cl_s02_cr_dog_40_n02105855_10004.JPEG
subject-02,1,1021,1.24303197860718,cat,cat,bw,1020_cl_s02_bw_cat_40_n02123394_6869.JPEG
subject-02,1,1022,1.01452493667603,boat,boat,bw,1021_cl_s02_bw_boat_40_n02951358_30269.JPEG
subject-02,1,1023,0.836755037307739,bird,bird,cr,1022_cl_s02_cr_bird_40_n01843383_8077.JPEG
subject-02,1,1024,0.810687065124512,airplane,airplane,cr,1023_cl_s02_cr_airplane_40_n02690373_2070.JPEG
subject-02,1,1025,0.661097049713135,keyboard,keyboard,cr,1024_cl_s02_cr_keyboard_40_n04505470_1833.JPEG
subject-02,1,1026,0.758167028427124,bottle,bottle,cr,1025_cl_s02_cr_bottle_40_n03983396_899.JPEG
subject-02,1,1027,0.911090135574341,cat,cat,bw,1026_cl_s02_bw_cat_40_n02123597_7740.JPEG
subject-02,1,1028,0.735621929168701,oven,oven,bw,1027_cl_s02_bw_oven_40_n04111531_4785.JPEG
subject-02,1,1029,0.934257030487061,car,car,bw,1028_cl_s02_bw_car_40_n03100240_14193.JPEG
subject-02,1,1030,0.702965021133423,chair,chair,cr,1029_cl_s02_cr_chair_40_n03376595_2898.JPEG
subject-02,1,1031,1.03344416618347,keyboard,keyboard,bw,1030_cl_s02_bw_keyboard_40_n03085013_5141.JPEG
subject-02,1,1032,0.971477031707764,boat,boat,cr,1031_cl_s02_cr_boat_40_n03344393_8499.JPEG
subject-02,1,1033,0.90046501159668,truck,truck,bw,1032_cl_s02_bw_truck_40_n03417042_4774.JPEG
subject-02,1,1034,0.900173902511597,elephant,elephant,bw,1033_cl_s02_bw_elephant_40_n02504013_3540.JPEG
subject-02,1,1035,0.821898937225342,truck,truck,cr,1034_cl_s02_cr_truck_40_n04467665_37526.JPEG
subject-02,1,1036,1.39639401435852,bear,bear,bw,1035_cl_s02_bw_bear_40_n02133161_1823.JPEG
subject-02,1,1037,0.988718032836914,keyboard,keyboard,bw,1036_cl_s02_bw_keyboard_40_n04505470_2055.JPEG
subject-02,1,1038,0.949048042297363,car,car,cr,1037_cl_s02_cr_car_40_n02814533_32461.JPEG
subject-02,1,1039,1.1306300163269,oven,oven,bw,1038_cl_s02_bw_oven_40_n04111531_21055.JPEG
subject-02,1,1040,NaN,na,bear,cr,1039_cl_s02_cr_bear_40_n02133161_5177.JPEG
subject-02,1,1041,1.12949705123901,airplane,airplane,bw,1040_cl_s02_bw_airplane_40_n02690373_2787.JPEG
subject-02,1,1042,0.754155874252319,elephant,elephant,bw,1041_cl_s02_bw_elephant_40_n02504013_6811.JPEG
subject-02,1,1043,0.744771003723145,clock,clock,cr,1042_cl_s02_cr_clock_40_n04548280_1438.JPEG
subject-02,1,1044,0.67490291595459,oven,oven,cr,1043_cl_s02_cr_oven_40_n04111531_18645.JPEG
subject-02,1,1045,1.18723702430725,clock,chair,cr,1044_cl_s02_cr_chair_40_n04429376_31768.JPEG
subject-02,1,1046,0.925632953643799,bottle,bottle,bw,1045_cl_s02_bw_bottle_40_n04560804_16115.JPEG
subject-02,1,1047,1.08598899841309,bird,bird,cr,1046_cl_s02_cr_bird_40_n01537544_15048.JPEG
subject-02,1,1048,0.677887916564941,boat,boat,cr,1047_cl_s02_cr_boat_40_n02951358_5718.JPEG
subject-02,1,1049,1.20853304862976,bird,cat,bw,1048_cl_s02_bw_cat_40_n02125311_34158.JPEG
subject-02,1,1050,1.36151385307312,knife,chair,bw,1049_cl_s02_bw_chair_40_n02791124_1734.JPEG
subject-02,1,1051,1.46751499176025,knife,airplane,cr,1050_cl_s02_cr_airplane_40_n02690373_1912.JPEG
subject-02,1,1052,1.07593703269958,knife,knife,bw,1051_cl_s02_bw_knife_40_n03041632_16826.JPEG
subject-02,1,1053,0.858313083648682,keyboard,keyboard,cr,1052_cl_s02_cr_keyboard_40_n03085013_7992.JPEG
subject-02,1,1054,1.35899496078491,car,bottle,bw,1053_cl_s02_bw_bottle_40_n04557648_373.JPEG
subject-02,1,1055,0.664216041564941,cat,cat,cr,1054_cl_s02_cr_cat_40_n02124075_14094.JPEG
subject-02,1,1056,0.754539012908936,bicycle,bicycle,cr,1055_cl_s02_cr_bicycle_40_n02835271_13131.JPEG
subject-02,1,1057,0.762994050979614,cat,cat,cr,1056_cl_s02_cr_cat_40_n02125311_74009.JPEG
subject-02,1,1058,0.585474014282227,clock,clock,cr,1057_cl_s02_cr_clock_40_n03196217_3943.JPEG
subject-02,1,1059,1.50027179718018,truck,truck,cr,1058_cl_s02_cr_truck_40_n04467665_71927.JPEG
subject-02,1,1060,0.875995874404907,boat,boat,bw,1059_cl_s02_bw_boat_40_n03344393_2387.JPEG
subject-02,1,1061,0.752335071563721,clock,clock,bw,1060_cl_s02_bw_clock_40_n02708093_7535.JPEG
subject-02,1,1062,1.28922820091248,knife,knife,bw,1061_cl_s02_bw_knife_40_n03041632_39952.JPEG
subject-02,1,1063,0.667716026306152,chair,chair,bw,1062_cl_s02_bw_chair_40_n04099969_4662.JPEG
subject-02,1,1064,1.38773202896118,boat,airplane,bw,1063_cl_s02_bw_airplane_40_n02690373_13324.JPEG
subject-02,1,1065,0.75023889541626,cat,cat,bw,1064_cl_s02_bw_cat_40_n02123597_6956.JPEG
subject-02,1,1066,0.780881881713867,bicycle,bicycle,cr,1065_cl_s02_cr_bicycle_40_n03792782_17337.JPEG
subject-02,1,1067,1.19514393806458,cat,bird,cr,1066_cl_s02_cr_bird_40_n01798484_14529.JPEG
subject-02,1,1068,0.848824977874756,bottle,bottle,bw,1067_cl_s02_bw_bottle_40_n04560804_9504.JPEG
