subj,session,trial,rt,object_response,category,condition,imagename
subject-01,1,1,0.741573095321655,boat,boat,bw,0000_cl_s01_bw_boat_40_n02951358_5952.JPEG
subject-01,1,2,0.525771856307983,bottle,bottle,bw,0001_cl_s01_bw_bottle_40_n02823428_3049.JPEG
subject-01,1,3,0.634964942932129,chair,chair,cr,0002_cl_s01_cr_chair_40_n03376595_3169.JPEG
subject-01,1,4,0.673916101455688,car,car,bw,0003_cl_s01_bw_car_40_n04285008_8784.JPEG
subject-01,1,5,0.8661789894104,chair,chair,bw,0004_cl_s01_bw_chair_40_n03376595_2924.JPEG
subject-01,1,6,0.935362100601196,bear,bear,bw,0005_cl_s01_bw_bear_40_n02134418_4157.JPEG
subject-01,1,7,0.573801040649414,boat,boat,bw,0006_cl_s01_bw_boat_40_n03344393_7659.JPEG
subject-01,1,8,0.728101968765259,knife,knife,bw,0007_cl_s01_bw_knife_40_n03041632_11327.JPEG
subject-01,1,9,0.912754058837891,dog,dog,bw,0008_cl_s01_bw_dog_40_n02092002_10760.JPEG
subject-01,1,10,0.705517053604126,bottle,bottle,cr,0009_cl_s01_cr_bottle_40_n02823428_765.JPEG
subject-01,1,11,0.813493013381958,bottle,bottle,cr,0010_cl_s01_cr_bottle_40_n04560804_545.JPEG
subject-01,1,12,0.966276884078979,bottle,clock,bw,0011_cl_s01_bw_clock_40_n04548280_7384.JPEG
subject-01,1,13,0.782780885696411,knife,knife,bw,0012_cl_s01_bw_knife_40_n03041632_10000.JPEG
subject-01,1,14,0.767583847045898,elephant,elephant,cr,0013_cl_s01_cr_elephant_40_n02504013_4288.JPEG
subject-01,1,15,0.712188959121704,knife,knife,cr,0014_cl_s01_cr_knife_40_n03041632_9759.JPEG
subject-01,1,16,0.796499967575073,dog,bear,bw,0015_cl_s01_bw_bear_40_n02132136_390.JPEG
subject-01,1,17,1.08106589317322,dog,dog,bw,0016_cl_s01_bw_dog_40_n02110063_16336.JPEG
subject-01,1,18,0.743405103683472,bird,bird,bw,0017_cl_s01_bw_bird_40_n01601694_13054.JPEG
subject-01,1,19,1.07445597648621,elephant,bottle,bw,0018_cl_s01_bw_bottle_40_n04591713_3896.JPEG
subject-01,1,20,0.682633876800537,boat,boat,cr,0019_cl_s01_cr_boat_40_n03344393_4496.JPEG
subject-01,1,21,1.04325008392334,elephant,oven,bw,0020_cl_s01_bw_oven_40_n04111531_19000.JPEG
subject-01,1,22,0.803882122039795,bottle,bottle,cr,0021_cl_s01_cr_bottle_40_n04560804_1703.JPEG
subject-01,1,23,0.99643611907959,elephant,elephant,bw,0022_cl_s01_bw_elephant_40_n02504458_2556.JPEG
subject-01,1,24,0.674527883529663,keyboard,keyboard,bw,0023_cl_s01_bw_keyboard_40_n04505470_3957.JPEG
subject-01,1,25,0.85929799079895,oven,bottle,bw,0024_cl_s01_bw_bottle_40_n04557648_5665.JPEG
subject-01,1,26,0.741849899291992,keyboard,keyboard,cr,0025_cl_s01_cr_keyboard_40_n04505470_2889.JPEG
subject-01,1,27,0.804314851760864,bird,bird,bw,0026_cl_s01_bw_bird_40_n01843383_5962.JPEG
subject-01,1,28,0.872675895690918,knife,knife,cr,0027_cl_s01_cr_knife_40_n03041632_94620.JPEG
subject-01,1,29,0.711426019668579,boat,boat,cr,0028_cl_s01_cr_boat_40_n02951358_8456.JPEG
subject-01,1,30,0.895767211914062,airplane,airplane,cr,0029_cl_s01_cr_airplane_40_n02690373_8650.JPEG
subject-01,1,31,0.818477869033813,keyboard,keyboard,cr,0030_cl_s01_cr_keyboard_40_n03085013_17305.JPEG
subject-01,1,32,0.895249843597412,knife,knife,bw,0031_cl_s01_bw_knife_40_n03041632_96714.JPEG
subject-01,1,33,0.771623849868774,clock,clock,bw,0032_cl_s01_bw_clock_40_n04548280_1202.JPEG
subject-01,1,34,0.625777006149292,oven,oven,cr,0033_cl_s01_cr_oven_40_n04111531_12929.JPEG
subject-01,1,35,0.886067867279053,elephant,elephant,cr,0034_cl_s01_cr_elephant_40_n02504458_5788.JPEG
subject-01,1,36,0.616865158081055,bicycle,bicycle,bw,0035_cl_s01_bw_bicycle_40_n02835271_12926.JPEG
subject-01,1,37,1.03938484191895,bear,bear,cr,0036_cl_s01_cr_bear_40_n02134084_6669.JPEG
subject-01,1,38,0.815664052963257,dog,cat,bw,0037_cl_s01_bw_cat_40_n02123394_4877.JPEG
subject-01,1,39,0.824621915817261,bird,bird,cr,0038_cl_s01_cr_bird_40_n01817953_10964.JPEG
subject-01,1,40,0.793026924133301,dog,dog,cr,0039_cl_s01_cr_dog_40_n02100583_1267.JPEG
subject-01,1,41,1.16968297958374,oven,oven,cr,0040_cl_s01_cr_oven_40_n04111531_12080.JPEG
subject-01,1,42,0.824628114700317,clock,clock,bw,0041_cl_s01_bw_clock_40_n03196217_5165.JPEG
subject-01,1,43,0.877108812332153,truck,truck,cr,0042_cl_s01_cr_truck_40_n03417042_6213.JPEG
subject-01,1,44,0.823380947113037,airplane,airplane,bw,0043_cl_s01_bw_airplane_40_n02690373_2750.JPEG
subject-01,1,45,0.786247968673706,bottle,bottle,bw,0044_cl_s01_bw_bottle_40_n04557648_1293.JPEG
subject-01,1,46,0.646521091461182,clock,clock,cr,0045_cl_s01_cr_clock_40_n03196217_3416.JPEG
subject-01,1,47,1.00099492073059,bird,bird,bw,0046_cl_s01_bw_bird_40_n02011460_5075.JPEG
subject-01,1,48,0.740285873413086,keyboard,keyboard,bw,0047_cl_s01_bw_keyboard_40_n04505470_1600.JPEG
subject-01,1,49,0.808579921722412,truck,truck,cr,0048_cl_s01_cr_truck_40_n04467665_64492.JPEG
subject-01,1,50,0.616783857345581,keyboard,keyboard,bw,0049_cl_s01_bw_keyboard_40_n03085013_23648.JPEG
subject-01,1,51,1.50031208992004,knife,knife,cr,0050_cl_s01_cr_knife_40_n03041632_18859.JPEG
subject-01,1,52,1.01583003997803,chair,chair,bw,0051_cl_s01_bw_chair_40_n04429376_14170.JPEG
subject-01,1,53,0.576700925827026,bicycle,bicycle,bw,0052_cl_s01_bw_bicycle_40_n02835271_17168.JPEG
subject-01,1,54,0.684758901596069,car,car,cr,0053_cl_s01_cr_car_40_n02814533_11051.JPEG
subject-01,1,55,1.32943916320801,airplane,boat,bw,0054_cl_s01_bw_boat_40_n04273569_12917.JPEG
subject-01,1,56,0.593178987503052,oven,oven,bw,0055_cl_s01_bw_oven_40_n04111531_5904.JPEG
subject-01,1,57,0.906970977783203,keyboard,keyboard,bw,0056_cl_s01_bw_keyboard_40_n03085013_22820.JPEG
subject-01,1,58,1.14511203765869,chair,chair,cr,0057_cl_s01_cr_chair_40_n03376595_2056.JPEG
subject-01,1,59,0.629651069641113,car,car,cr,0058_cl_s01_cr_car_40_n04285008_6131.JPEG
subject-01,1,60,0.800887107849121,knife,knife,bw,0059_cl_s01_bw_knife_40_n03041632_35365.JPEG
subject-01,1,61,0.714976787567139,chair,chair,bw,0060_cl_s01_bw_chair_40_n02791124_3926.JPEG
subject-01,1,62,0.661498785018921,bicycle,bicycle,bw,0061_cl_s01_bw_bicycle_40_n03792782_2960.JPEG
subject-01,1,63,0.829769134521484,bear,bear,cr,0062_cl_s01_cr_bear_40_n02134084_20500.JPEG
subject-01,1,64,0.830587148666382,dog,dog,cr,0063_cl_s01_cr_dog_40_n02105505_4069.JPEG
subject-01,1,65,0.799176931381226,clock,clock,bw,0064_cl_s01_bw_clock_40_n03196217_243.JPEG
subject-01,1,66,0.79996919631958,bottle,bottle,bw,0065_cl_s01_bw_bottle_40_n02823428_10814.JPEG
subject-01,1,67,0.668138027191162,oven,oven,bw,0066_cl_s01_bw_oven_40_n04111531_4012.JPEG
subject-01,1,68,0.638506889343262,bicycle,bicycle,cr,0067_cl_s01_cr_bicycle_40_n03792782_32379.JPEG
subject-01,1,69,0.829119920730591,bicycle,bicycle,cr,0068_cl_s01_cr_bicycle_40_n02835271_3308.JPEG
subject-01,1,70,0.95950722694397,car,car,bw,0069_cl_s01_bw_car_40_n02814533_85368.JPEG
subject-01,1,71,0.592061996459961,oven,oven,cr,0070_cl_s01_cr_oven_40_n04111531_14126.JPEG
subject-01,1,72,0.52252984046936,oven,oven,bw,0071_cl_s01_bw_oven_40_n04111531_12103.JPEG
subject-01,1,73,0.8455650806427,dog,dog,bw,0072_cl_s01_bw_dog_40_n02111129_797.JPEG
subject-01,1,74,0.851905107498169,bottle,bottle,cr,0073_cl_s01_cr_bottle_40_n03983396_2053.JPEG
subject-01,1,75,0.76844310760498,clock,clock,bw,0074_cl_s01_bw_clock_40_n02708093_544.JPEG
subject-01,1,76,0.769270181655884,bottle,bottle,cr,0075_cl_s01_cr_bottle_40_n04591713_2879.JPEG
subject-01,1,77,1.02163910865784,car,airplane,cr,0076_cl_s01_cr_airplane_40_n02690373_2075.JPEG
subject-01,1,78,0.629823207855225,chair,chair,cr,0077_cl_s01_cr_chair_40_n03376595_8228.JPEG
subject-01,1,79,0.706942081451416,knife,knife,bw,0078_cl_s01_bw_knife_40_n03041632_33739.JPEG
subject-01,1,80,1.02894496917725,cat,cat,cr,0079_cl_s01_cr_cat_40_n02123394_1594.JPEG
subject-01,1,81,0.875241041183472,bird,bird,cr,0080_cl_s01_cr_bird_40_n02007558_2822.JPEG
subject-01,1,82,1.17421579360962,keyboard,keyboard,cr,0081_cl_s01_cr_keyboard_40_n03085013_24538.JPEG
subject-01,1,83,0.712326049804688,bicycle,bicycle,bw,0082_cl_s01_bw_bicycle_40_n02835271_8137.JPEG
subject-01,1,84,1.18115592002869,keyboard,clock,cr,0083_cl_s01_cr_clock_40_n02708093_8267.JPEG
subject-01,1,85,0.74388599395752,cat,cat,bw,0084_cl_s01_bw_cat_40_n02123597_5298.JPEG
subject-01,1,86,0.774548053741455,car,car,bw,0085_cl_s01_bw_car_40_n02814533_45935.JPEG
subject-01,1,87,0.958676815032959,keyboard,keyboard,bw,0086_cl_s01_bw_keyboard_40_n04505470_3959.JPEG
subject-01,1,88,0.643111944198608,bicycle,bicycle,cr,0087_cl_s01_cr_bicycle_40_n02835271_15524.JPEG
subject-01,1,89,1.01214098930359,chair,chair,bw,0088_cl_s01_bw_chair_40_n02791124_6077.JPEG
subject-01,1,90,0.718612909317017,boat,boat,bw,0089_cl_s01_bw_boat_40_n02951358_32698.JPEG
subject-01,1,91,0.802738904953003,elephant,elephant,cr,0090_cl_s01_cr_elephant_40_n02504458_481.JPEG
subject-01,1,92,0.787019968032837,cat,cat,bw,0091_cl_s01_bw_cat_40_n02123394_4542.JPEG
subject-01,1,93,0.69610595703125,cat,cat,bw,0092_cl_s01_bw_cat_40_n02123159_7638.JPEG
subject-01,1,94,0.872860908508301,elephant,elephant,cr,0093_cl_s01_cr_elephant_40_n02504458_1600.JPEG
subject-01,1,95,0.673312902450562,chair,chair,bw,0094_cl_s01_bw_chair_40_n02791124_5690.JPEG
subject-01,1,96,0.927908182144165,truck,truck,bw,0095_cl_s01_bw_truck_40_n03417042_27907.JPEG
subject-01,1,97,0.788241147994995,keyboard,keyboard,cr,0096_cl_s01_cr_keyboard_40_n03085013_22837.JPEG
subject-01,1,98,0.864650964736938,boat,bottle,cr,0097_cl_s01_cr_bottle_40_n04557648_364.JPEG
subject-01,1,99,0.803253889083862,oven,oven,bw,0098_cl_s01_bw_oven_40_n04111531_887.JPEG
subject-01,1,100,0.880395889282227,knife,knife,bw,0099_cl_s01_bw_knife_40_n03041632_33326.JPEG
subject-01,1,101,1.02664399147034,knife,oven,cr,0100_cl_s01_cr_oven_40_n04111531_9455.JPEG
subject-01,1,102,0.703088045120239,bottle,bottle,cr,0101_cl_s01_cr_bottle_40_n03983396_5864.JPEG
subject-01,1,103,1.00975513458252,dog,dog,cr,0102_cl_s01_cr_dog_40_n02087394_7104.JPEG
subject-01,1,104,0.848582983016968,boat,clock,bw,0103_cl_s01_bw_clock_40_n02708093_6655.JPEG
subject-01,1,105,0.695152997970581,elephant,elephant,bw,0104_cl_s01_bw_elephant_40_n02504458_3648.JPEG
subject-01,1,106,0.787109851837158,bird,bird,cr,0105_cl_s01_cr_bird_40_n01855672_5670.JPEG
subject-01,1,107,0.849792003631592,truck,truck,bw,0106_cl_s01_bw_truck_40_n04467665_68331.JPEG
subject-01,1,108,1.28613090515137,dog,dog,bw,0107_cl_s01_bw_dog_40_n02105162_5667.JPEG
subject-01,1,109,0.786792039871216,bird,bird,cr,0108_cl_s01_cr_bird_40_n02009229_6551.JPEG
subject-01,1,110,0.865370035171509,bird,bird,bw,0109_cl_s01_bw_bird_40_n02009229_12179.JPEG
subject-01,1,111,0.70209789276123,car,car,bw,0110_cl_s01_bw_car_40_n04285008_4749.JPEG
subject-01,1,112,0.972661018371582,truck,boat,cr,0111_cl_s01_cr_boat_40_n03662601_24852.JPEG
subject-01,1,113,0.671118974685669,airplane,airplane,cr,0112_cl_s01_cr_airplane_40_n02690373_5342.JPEG
subject-01,1,114,0.980021953582764,cat,dog,bw,0113_cl_s01_bw_dog_40_n02104365_9837.JPEG
subject-01,1,115,0.634685039520264,chair,chair,cr,0114_cl_s01_cr_chair_40_n04099969_4543.JPEG
subject-01,1,116,0.77820611000061,bottle,bottle,cr,0115_cl_s01_cr_bottle_40_n04557648_830.JPEG
subject-01,1,117,0.61736011505127,clock,clock,bw,0116_cl_s01_bw_clock_40_n02708093_391.JPEG
subject-01,1,118,0.793389081954956,truck,truck,bw,0117_cl_s01_bw_truck_40_n03417042_2794.JPEG
subject-01,1,119,0.969825983047485,cat,cat,cr,0118_cl_s01_cr_cat_40_n02125311_12557.JPEG
subject-01,1,120,0.984200954437256,bottle,chair,cr,0119_cl_s01_cr_chair_40_n02791124_7942.JPEG
subject-01,1,121,1.07070112228394,cat,clock,cr,0120_cl_s01_cr_clock_40_n03196217_10578.JPEG
subject-01,1,122,0.693618059158325,bird,bird,cr,0121_cl_s01_cr_bird_40_n02011460_2435.JPEG
subject-01,1,123,0.639341831207275,boat,boat,cr,0122_cl_s01_cr_boat_40_n03344393_5017.JPEG
subject-01,1,124,1.28431391716003,clock,clock,bw,0123_cl_s01_bw_clock_40_n03196217_127.JPEG
subject-01,1,125,0.692543029785156,airplane,airplane,bw,0124_cl_s01_bw_airplane_40_n02690373_6046.JPEG
subject-01,1,126,0.753031969070435,dog,dog,cr,0125_cl_s01_cr_dog_40_n02110958_2363.JPEG
subject-01,1,127,0.661746978759766,oven,oven,bw,0126_cl_s01_bw_oven_40_n04111531_15852.JPEG
subject-01,1,128,0.860511779785156,car,car,cr,0127_cl_s01_cr_car_40_n04285008_1085.JPEG
subject-01,1,129,0.693072080612183,airplane,airplane,bw,0128_cl_s01_bw_airplane_40_n02690373_1492.JPEG
subject-01,1,130,1.09165096282959,dog,dog,cr,0129_cl_s01_cr_dog_40_n02113624_3403.JPEG
subject-01,1,131,0.77625584602356,elephant,elephant,cr,0130_cl_s01_cr_elephant_40_n02504013_8497.JPEG
subject-01,1,132,0.801148891448975,bottle,bottle,bw,0131_cl_s01_bw_bottle_40_n02823428_1678.JPEG
subject-01,1,133,0.644956827163696,car,car,cr,0132_cl_s01_cr_car_40_n02814533_51190.JPEG
subject-01,1,134,0.645992040634155,clock,clock,bw,0133_cl_s01_bw_clock_40_n04548280_21263.JPEG
subject-01,1,135,1.03582692146301,knife,knife,cr,0134_cl_s01_cr_knife_40_n03041632_29125.JPEG
subject-01,1,136,0.828556060791016,dog,dog,bw,0135_cl_s01_bw_dog_40_n02099712_1234.JPEG
subject-01,1,137,0.858032941818237,clock,knife,cr,0136_cl_s01_cr_knife_40_n03041632_14801.JPEG
subject-01,1,138,0.74380087852478,oven,oven,bw,0137_cl_s01_bw_oven_40_n04111531_2207.JPEG
subject-01,1,139,0.965780973434448,dog,cat,bw,0138_cl_s01_bw_cat_40_n02123597_7142.JPEG
subject-01,1,140,0.758903026580811,cat,cat,bw,0139_cl_s01_bw_cat_40_n02123045_12762.JPEG
subject-01,1,141,0.643491983413696,oven,oven,cr,0140_cl_s01_cr_oven_40_n04111531_18430.JPEG
subject-01,1,142,0.805914878845215,keyboard,keyboard,bw,0141_cl_s01_bw_keyboard_40_n03085013_7440.JPEG
subject-01,1,143,0.749772071838379,clock,clock,cr,0142_cl_s01_cr_clock_40_n02708093_6766.JPEG
subject-01,1,144,0.680733919143677,chair,chair,bw,0143_cl_s01_bw_chair_40_n02791124_2491.JPEG
subject-01,1,145,1.24887609481812,chair,chair,cr,0144_cl_s01_cr_chair_40_n04099969_23961.JPEG
subject-01,1,146,1.28774309158325,cat,bear,cr,0145_cl_s01_cr_bear_40_n02133161_12152.JPEG
subject-01,1,147,0.909861087799072,truck,truck,cr,0146_cl_s01_cr_truck_40_n03796401_23711.JPEG
subject-01,1,148,0.694746017456055,chair,chair,bw,0147_cl_s01_bw_chair_40_n02791124_957.JPEG
subject-01,1,149,1.03366208076477,chair,chair,bw,0148_cl_s01_bw_chair_40_n04429376_9121.JPEG
subject-01,1,150,0.572350978851318,bicycle,bicycle,cr,0149_cl_s01_cr_bicycle_40_n02835271_17914.JPEG
subject-01,1,151,0.686562061309814,knife,knife,bw,0150_cl_s01_bw_knife_40_n03041632_28009.JPEG
subject-01,1,152,0.641103029251099,boat,boat,bw,0151_cl_s01_bw_boat_40_n03344393_5296.JPEG
subject-01,1,153,0.83421802520752,boat,chair,bw,0152_cl_s01_bw_chair_40_n04429376_21865.JPEG
subject-01,1,154,0.864382982254028,oven,oven,bw,0153_cl_s01_bw_oven_40_n04111531_978.JPEG
subject-01,1,155,0.779056072235107,bottle,bottle,cr,0154_cl_s01_cr_bottle_40_n04560804_2005.JPEG
subject-01,1,156,1.50033497810364,boat,bear,cr,0155_cl_s01_cr_bear_40_n02134084_1090.JPEG
subject-01,1,157,0.747453927993774,truck,truck,cr,0156_cl_s01_cr_truck_40_n03417042_2778.JPEG
subject-01,1,158,0.77027702331543,bird,bird,bw,0157_cl_s01_bw_bird_40_n02006656_6733.JPEG
subject-01,1,159,1.21502614021301,bear,bear,bw,0158_cl_s01_bw_bear_40_n02132136_18543.JPEG
subject-01,1,160,0.939095020294189,elephant,elephant,cr,0159_cl_s01_cr_elephant_40_n02504013_6731.JPEG
subject-01,1,161,0.762098073959351,chair,chair,bw,0160_cl_s01_bw_chair_40_n02791124_3923.JPEG
subject-01,1,162,0.762517929077148,chair,chair,cr,0161_cl_s01_cr_chair_40_n03376595_1135.JPEG
subject-01,1,163,0.839310884475708,knife,knife,cr,0162_cl_s01_cr_knife_40_n03041632_29276.JPEG
subject-01,1,164,0.785681009292603,bird,bird,bw,0163_cl_s01_bw_bird_40_n01843065_10565.JPEG
subject-01,1,165,1.14647507667542,bottle,chair,cr,0164_cl_s01_cr_chair_40_n04429376_16081.JPEG
subject-01,1,166,1.06069993972778,knife,knife,cr,0165_cl_s01_cr_knife_40_n03041632_9671.JPEG
subject-01,1,167,0.637018918991089,boat,boat,cr,0166_cl_s01_cr_boat_40_n03662601_27165.JPEG
subject-01,1,168,0.851464986801147,chair,chair,cr,0167_cl_s01_cr_chair_40_n03376595_1798.JPEG
subject-01,1,169,0.960211992263794,keyboard,keyboard,bw,0168_cl_s01_bw_keyboard_40_n03085013_23789.JPEG
subject-01,1,170,0.966852903366089,car,car,bw,0169_cl_s01_bw_car_40_n03100240_15407.JPEG
subject-01,1,171,0.751595020294189,bird,bird,cr,0170_cl_s01_cr_bird_40_n02018207_7460.JPEG
subject-01,1,172,0.898200988769531,boat,boat,bw,0171_cl_s01_bw_boat_40_n03344393_547.JPEG
subject-01,1,173,0.920531034469604,knife,knife,bw,0172_cl_s01_bw_knife_40_n03041632_100645.JPEG
subject-01,1,174,0.934858083724976,clock,clock,cr,0173_cl_s01_cr_clock_40_n02708093_3621.JPEG
subject-01,1,175,1.35730814933777,knife,knife,cr,0174_cl_s01_cr_knife_40_n03041632_17285.JPEG
subject-01,1,176,0.933660984039307,truck,truck,cr,0175_cl_s01_cr_truck_40_n03417042_7337.JPEG
subject-01,1,177,0.696199893951416,dog,dog,bw,0176_cl_s01_bw_dog_40_n02099712_7604.JPEG
subject-01,1,178,0.795215845108032,clock,clock,bw,0177_cl_s01_bw_clock_40_n04548280_4839.JPEG
subject-01,1,179,0.904156923294067,bear,bear,bw,0178_cl_s01_bw_bear_40_n02132136_2463.JPEG
subject-01,1,180,0.856239080429077,bear,cat,bw,0179_cl_s01_bw_cat_40_n02125311_75445.JPEG
subject-01,1,181,0.894915819168091,bird,bird,bw,0180_cl_s01_bw_bird_40_n02009912_1919.JPEG
subject-01,1,182,0.741247892379761,bottle,bottle,cr,0181_cl_s01_cr_bottle_40_n04591713_2899.JPEG
subject-01,1,183,0.639909029006958,chair,chair,cr,0182_cl_s01_cr_chair_40_n03376595_1773.JPEG
subject-01,1,184,0.739883184432983,truck,truck,cr,0183_cl_s01_cr_truck_40_n04467665_22838.JPEG
subject-01,1,185,0.724604845046997,elephant,elephant,cr,0184_cl_s01_cr_elephant_40_n02504458_4554.JPEG
subject-01,1,186,0.785325050354004,airplane,airplane,cr,0185_cl_s01_cr_airplane_40_n02690373_6812.JPEG
subject-01,1,187,0.9754319190979,knife,knife,cr,0186_cl_s01_cr_knife_40_n03041632_7173.JPEG
subject-01,1,188,1.02992987632751,cat,bear,bw,0187_cl_s01_bw_bear_40_n02132136_23853.JPEG
subject-01,1,189,0.89885401725769,bird,bird,bw,0188_cl_s01_bw_bird_40_n02006656_3185.JPEG
subject-01,1,190,0.621309995651245,car,car,cr,0189_cl_s01_cr_car_40_n04285008_901.JPEG
subject-01,1,191,0.821906089782715,dog,dog,cr,0190_cl_s01_cr_dog_40_n02106662_9600.JPEG
subject-01,1,192,1.01986503601074,bottle,truck,cr,0191_cl_s01_cr_truck_40_n04467665_34228.JPEG
subject-01,1,193,0.674416065216064,knife,knife,cr,0192_cl_s01_cr_knife_40_n03041632_44738.JPEG
subject-01,1,194,0.781163930892944,bear,bear,bw,0193_cl_s01_bw_bear_40_n02132136_21799.JPEG
subject-01,1,195,0.711543083190918,airplane,airplane,bw,0194_cl_s01_bw_airplane_40_n02690373_18936.JPEG
subject-01,1,196,0.718444108963013,clock,clock,cr,0195_cl_s01_cr_clock_40_n03196217_3267.JPEG
subject-01,1,197,0.840979099273682,truck,truck,cr,0196_cl_s01_cr_truck_40_n03796401_17616.JPEG
subject-01,1,198,0.955359935760498,boat,dog,bw,0197_cl_s01_bw_dog_40_n02093256_3792.JPEG
subject-01,1,199,0.587583780288696,cat,cat,cr,0198_cl_s01_cr_cat_40_n02123394_979.JPEG
subject-01,1,200,0.778287887573242,oven,oven,cr,0199_cl_s01_cr_oven_40_n04111531_14753.JPEG
subject-01,1,201,0.624706983566284,boat,boat,bw,0200_cl_s01_bw_boat_40_n03662601_3984.JPEG
subject-01,1,202,1.4073121547699,chair,bottle,cr,0201_cl_s01_cr_bottle_40_n04557648_1856.JPEG
subject-01,1,203,0.78557300567627,car,car,bw,0202_cl_s01_bw_car_40_n04285008_2906.JPEG
subject-01,1,204,0.654078006744385,dog,dog,cr,0203_cl_s01_cr_dog_40_n02099849_8726.JPEG
subject-01,1,205,1.40739607810974,cat,cat,cr,0204_cl_s01_cr_cat_40_n02123159_782.JPEG
subject-01,1,206,0.661006927490234,keyboard,keyboard,cr,0205_cl_s01_cr_keyboard_40_n04505470_213.JPEG
subject-01,1,207,1.38957095146179,knife,knife,bw,0206_cl_s01_bw_knife_40_n03041632_85416.JPEG
subject-01,1,208,0.63659405708313,car,car,cr,0207_cl_s01_cr_car_40_n03100240_2552.JPEG
subject-01,1,209,0.690750122070312,cat,bear,cr,0208_cl_s01_cr_bear_40_n02133161_4282.JPEG
subject-01,1,210,0.959541082382202,boat,boat,bw,0209_cl_s01_bw_boat_40_n02951358_4128.JPEG
subject-01,1,211,0.998597860336304,bottle,bottle,cr,0210_cl_s01_cr_bottle_40_n03983396_15260.JPEG
subject-01,1,212,0.890753030776978,keyboard,keyboard,bw,0211_cl_s01_bw_keyboard_40_n04505470_4107.JPEG
subject-01,1,213,1.13559508323669,bird,bird,cr,0212_cl_s01_cr_bird_40_n01860187_285.JPEG
subject-01,1,214,0.689019918441772,oven,oven,cr,0213_cl_s01_cr_oven_40_n04111531_9498.JPEG
subject-01,1,215,0.650698900222778,car,car,cr,0214_cl_s01_cr_car_40_n03100240_7737.JPEG
subject-01,1,216,0.97327995300293,elephant,elephant,bw,0215_cl_s01_bw_elephant_40_n02504458_4570.JPEG
subject-01,1,217,0.809376955032349,oven,oven,bw,0216_cl_s01_bw_oven_40_n04111531_4407.JPEG
subject-01,1,218,0.688022136688232,chair,chair,cr,0217_cl_s01_cr_chair_40_n04429376_7788.JPEG
subject-01,1,219,0.685906171798706,truck,truck,cr,0218_cl_s01_cr_truck_40_n03417042_27404.JPEG
subject-01,1,220,0.671229124069214,elephant,elephant,bw,0219_cl_s01_bw_elephant_40_n02504458_6130.JPEG
subject-01,1,221,0.661312103271484,truck,truck,bw,0220_cl_s01_bw_truck_40_n03417042_5229.JPEG
subject-01,1,222,0.732038021087646,bird,bird,bw,0221_cl_s01_bw_bird_40_n01592084_5361.JPEG
subject-01,1,223,0.708677053451538,chair,chair,cr,0222_cl_s01_cr_chair_40_n02791124_2796.JPEG
subject-01,1,224,0.639431953430176,airplane,airplane,bw,0223_cl_s01_bw_airplane_40_n02690373_4269.JPEG
subject-01,1,225,1.08406686782837,bottle,bottle,cr,0224_cl_s01_cr_bottle_40_n03937543_4586.JPEG
subject-01,1,226,1.11452293395996,cat,cat,bw,0225_cl_s01_bw_cat_40_n02123045_569.JPEG
subject-01,1,227,0.690942049026489,keyboard,keyboard,bw,0226_cl_s01_bw_keyboard_40_n04505470_361.JPEG
subject-01,1,228,0.788986921310425,car,car,bw,0227_cl_s01_bw_car_40_n02814533_45312.JPEG
subject-01,1,229,1.10384798049927,airplane,airplane,bw,0228_cl_s01_bw_airplane_40_n02690373_4195.JPEG
subject-01,1,230,1.29653286933899,bicycle,bicycle,bw,0229_cl_s01_bw_bicycle_40_n03792782_4102.JPEG
subject-01,1,231,0.934921979904175,dog,dog,bw,0230_cl_s01_bw_dog_40_n02105855_17596.JPEG
subject-01,1,232,1.44156813621521,car,car,cr,0231_cl_s01_cr_car_40_n03100240_14252.JPEG
subject-01,1,233,0.842098951339722,oven,bird,bw,0232_cl_s01_bw_bird_40_n01818515_10536.JPEG
subject-01,1,234,0.664650201797485,bicycle,bicycle,bw,0233_cl_s01_bw_bicycle_40_n03792782_49707.JPEG
subject-01,1,235,0.711035966873169,bear,bear,cr,0234_cl_s01_cr_bear_40_n02134084_13663.JPEG
subject-01,1,236,0.695665121078491,clock,clock,bw,0235_cl_s01_bw_clock_40_n03196217_5258.JPEG
subject-01,1,237,1.21599102020264,bottle,oven,cr,0236_cl_s01_cr_oven_40_n04111531_13479.JPEG
subject-01,1,238,1.07002210617065,elephant,elephant,bw,0237_cl_s01_bw_elephant_40_n02504013_257.JPEG
subject-01,1,239,1.08513212203979,elephant,bird,bw,0238_cl_s01_bw_bird_40_n02009229_2503.JPEG
subject-01,1,240,0.87875509262085,airplane,airplane,bw,0239_cl_s01_bw_airplane_40_n02690373_8461.JPEG
subject-01,1,241,0.900768995285034,truck,truck,bw,0240_cl_s01_bw_truck_40_n04467665_71126.JPEG
subject-01,1,242,0.838522911071777,knife,knife,cr,0241_cl_s01_cr_knife_40_n03041632_3717.JPEG
subject-01,1,243,0.752902030944824,boat,boat,cr,0242_cl_s01_cr_boat_40_n03662601_4437.JPEG
subject-01,1,244,0.699695110321045,cat,cat,bw,0243_cl_s01_bw_cat_40_n02124075_11252.JPEG
subject-01,1,245,1.00031709671021,oven,bottle,bw,0244_cl_s01_bw_bottle_40_n02823428_3298.JPEG
subject-01,1,246,0.461095094680786,bicycle,bicycle,bw,0245_cl_s01_bw_bicycle_40_n02835271_5113.JPEG
subject-01,1,247,1.03771901130676,airplane,airplane,bw,0246_cl_s01_bw_airplane_40_n02690373_1800.JPEG
subject-01,1,248,0.675692081451416,boat,boat,cr,0247_cl_s01_cr_boat_40_n03344393_6226.JPEG
subject-01,1,249,0.982510089874268,dog,dog,cr,0248_cl_s01_cr_dog_40_n02088466_1671.JPEG
subject-01,1,250,0.761237859725952,elephant,elephant,bw,0249_cl_s01_bw_elephant_40_n02504013_4071.JPEG
subject-01,1,251,1.36806702613831,cat,cat,bw,0250_cl_s01_bw_cat_40_n02125311_7527.JPEG
subject-01,1,252,0.538553953170776,airplane,airplane,cr,0251_cl_s01_cr_airplane_40_n02690373_303.JPEG
subject-01,1,253,1.10501599311829,chair,chair,cr,0252_cl_s01_cr_chair_40_n04429376_21546.JPEG
subject-01,1,254,0.729681968688965,elephant,elephant,bw,0253_cl_s01_bw_elephant_40_n02504013_237.JPEG
subject-01,1,255,0.83577299118042,chair,chair,bw,0254_cl_s01_bw_chair_40_n02791124_960.JPEG
subject-01,1,256,1.22844910621643,clock,bicycle,bw,0255_cl_s01_bw_bicycle_40_n03792782_15557.JPEG
subject-01,1,257,0.693270206451416,keyboard,keyboard,bw,0256_cl_s01_bw_keyboard_40_n04505470_510.JPEG
subject-01,1,258,0.609973192214966,cat,cat,cr,0257_cl_s01_cr_cat_40_n02123159_1339.JPEG
subject-01,1,259,1.1549289226532,knife,airplane,bw,0258_cl_s01_bw_airplane_40_n02690373_1912.JPEG
subject-01,1,260,0.755039930343628,clock,clock,cr,0259_cl_s01_cr_clock_40_n02708093_3595.JPEG
subject-01,1,261,1.10772299766541,car,dog,cr,0260_cl_s01_cr_dog_40_n02110185_7540.JPEG
subject-01,1,262,0.700753927230835,airplane,airplane,bw,0261_cl_s01_bw_airplane_40_n02690373_3620.JPEG
subject-01,1,263,0.947617053985596,bicycle,bicycle,bw,0262_cl_s01_bw_bicycle_40_n03792782_13140.JPEG
subject-01,1,264,0.746003150939941,bird,bird,bw,0263_cl_s01_bw_bird_40_n01537544_2875.JPEG
subject-01,1,265,0.654667854309082,bottle,bottle,cr,0264_cl_s01_cr_bottle_40_n03983396_4212.JPEG
subject-01,1,266,1.01503300666809,car,car,bw,0265_cl_s01_bw_car_40_n04285008_4834.JPEG
subject-01,1,267,1.09197592735291,car,car,bw,0266_cl_s01_bw_car_40_n03100240_18873.JPEG
subject-01,1,268,0.714621067047119,cat,cat,bw,0267_cl_s01_bw_cat_40_n02123159_1769.JPEG
subject-01,1,269,0.698857069015503,elephant,elephant,bw,0268_cl_s01_bw_elephant_40_n02504013_1432.JPEG
subject-01,1,270,1.0193510055542,dog,dog,bw,0269_cl_s01_bw_dog_40_n02106550_10279.JPEG
subject-01,1,271,0.836027860641479,truck,truck,cr,0270_cl_s01_cr_truck_40_n03796401_27184.JPEG
subject-01,1,272,0.734369993209839,chair,chair,bw,0271_cl_s01_bw_chair_40_n04429376_15334.JPEG
subject-01,1,273,0.772875070571899,cat,cat,bw,0272_cl_s01_bw_cat_40_n02123159_7854.JPEG
subject-01,1,274,0.750524997711182,car,car,bw,0273_cl_s01_bw_car_40_n03100240_15941.JPEG
subject-01,1,275,0.780730962753296,bicycle,bicycle,cr,0274_cl_s01_cr_bicycle_40_n02835271_8511.JPEG
subject-01,1,276,1.05404376983643,airplane,airplane,bw,0275_cl_s01_bw_airplane_40_n02690373_3493.JPEG
subject-01,1,277,1.00088405609131,bird,bird,bw,0276_cl_s01_bw_bird_40_n01616318_1071.JPEG
subject-01,1,278,0.801934003829956,clock,clock,bw,0277_cl_s01_bw_clock_40_n04548280_4346.JPEG
subject-01,1,279,0.961854934692383,keyboard,keyboard,cr,0278_cl_s01_cr_keyboard_40_n03085013_6644.JPEG
subject-01,1,280,0.646179914474487,car,car,bw,0279_cl_s01_bw_car_40_n04285008_13759.JPEG
subject-01,1,281,0.576764106750488,keyboard,keyboard,bw,0280_cl_s01_bw_keyboard_40_n03085013_24045.JPEG
subject-01,1,282,0.712774038314819,oven,oven,bw,0281_cl_s01_bw_oven_40_n04111531_13006.JPEG
subject-01,1,283,0.997883796691895,cat,cat,cr,0282_cl_s01_cr_cat_40_n02125311_13383.JPEG
subject-01,1,284,0.828534126281738,elephant,elephant,cr,0283_cl_s01_cr_elephant_40_n02504458_6185.JPEG
subject-01,1,285,0.904531955718994,bear,bear,cr,0284_cl_s01_cr_bear_40_n02132136_10060.JPEG
subject-01,1,286,0.673527956008911,knife,knife,cr,0285_cl_s01_cr_knife_40_n03041632_36277.JPEG
subject-01,1,287,1.12583994865417,airplane,airplane,bw,0286_cl_s01_bw_airplane_40_n02690373_6992.JPEG
subject-01,1,288,0.672272920608521,cat,cat,bw,0287_cl_s01_bw_cat_40_n02124075_14425.JPEG
subject-01,1,289,0.924667835235596,airplane,airplane,bw,0288_cl_s01_bw_airplane_40_n02690373_3090.JPEG
subject-01,1,290,0.693593978881836,chair,chair,bw,0289_cl_s01_bw_chair_40_n03376595_10266.JPEG
subject-01,1,291,0.577766180038452,boat,boat,cr,0290_cl_s01_cr_boat_40_n03662601_26298.JPEG
subject-01,1,292,0.72183895111084,boat,car,cr,0291_cl_s01_cr_car_40_n02814533_83874.JPEG
subject-01,1,293,1.09055399894714,cat,bear,cr,0292_cl_s01_cr_bear_40_n02132136_4314.JPEG
subject-01,1,294,1.20548582077026,bird,bird,bw,0293_cl_s01_bw_bird_40_n01532829_15048.JPEG
subject-01,1,295,0.89817214012146,truck,truck,bw,0294_cl_s01_bw_truck_40_n03796401_1853.JPEG
subject-01,1,296,1.4885880947113,bottle,oven,cr,0295_cl_s01_cr_oven_40_n04111531_6412.JPEG
subject-01,1,297,0.596956968307495,car,car,cr,0296_cl_s01_cr_car_40_n02814533_50194.JPEG
subject-01,1,298,0.873271942138672,dog,dog,cr,0297_cl_s01_cr_dog_40_n02097658_652.JPEG
subject-01,1,299,0.803642988204956,truck,truck,cr,0298_cl_s01_cr_truck_40_n03417042_4218.JPEG
subject-01,1,300,1.04107403755188,elephant,dog,bw,0299_cl_s01_bw_dog_40_n02088466_292.JPEG
subject-01,1,301,0.716684103012085,car,car,cr,0300_cl_s01_cr_car_40_n04285008_3453.JPEG
subject-01,1,302,0.946983098983765,elephant,elephant,cr,0301_cl_s01_cr_elephant_40_n02504013_3599.JPEG
subject-01,1,303,1.27578115463257,oven,knife,cr,0302_cl_s01_cr_knife_40_n03041632_24060.JPEG
subject-01,1,304,0.921747922897339,airplane,airplane,bw,0303_cl_s01_bw_airplane_40_n02690373_19104.JPEG
subject-01,1,305,0.928083181381226,bottle,bottle,cr,0304_cl_s01_cr_bottle_40_n03937543_396.JPEG
subject-01,1,306,0.812719106674194,cat,cat,cr,0305_cl_s01_cr_cat_40_n02123045_11472.JPEG
subject-01,1,307,1.20541596412659,clock,oven,bw,0306_cl_s01_bw_oven_40_n04111531_14329.JPEG
subject-01,1,308,0.743782043457031,truck,truck,cr,0307_cl_s01_cr_truck_40_n03417042_7005.JPEG
subject-01,1,309,1.41837906837463,bicycle,bear,bw,0308_cl_s01_bw_bear_40_n02132136_10654.JPEG
subject-01,1,310,0.865177869796753,knife,knife,bw,0309_cl_s01_bw_knife_40_n03041632_9580.JPEG
subject-01,1,311,0.687344074249268,dog,dog,bw,0310_cl_s01_bw_dog_40_n02090721_4088.JPEG
subject-01,1,312,0.587208032608032,boat,boat,cr,0311_cl_s01_cr_boat_40_n02951358_12080.JPEG
subject-01,1,313,0.717855215072632,truck,truck,bw,0312_cl_s01_bw_truck_40_n04467665_10060.JPEG
subject-01,1,314,0.848459005355835,bottle,chair,cr,0313_cl_s01_cr_chair_40_n02791124_3323.JPEG
subject-01,1,315,0.731406927108765,truck,truck,bw,0314_cl_s01_bw_truck_40_n04467665_66535.JPEG
subject-01,1,316,0.923983097076416,bicycle,bicycle,bw,0315_cl_s01_bw_bicycle_40_n03792782_7388.JPEG
subject-01,1,317,0.816493988037109,chair,keyboard,bw,0316_cl_s01_bw_keyboard_40_n03085013_7613.JPEG
subject-01,1,318,0.761032819747925,elephant,elephant,cr,0317_cl_s01_cr_elephant_40_n02504013_5035.JPEG
subject-01,1,319,0.753810167312622,boat,boat,bw,0318_cl_s01_bw_boat_40_n04273569_10021.JPEG
subject-01,1,320,0.730310916900635,elephant,elephant,bw,0319_cl_s01_bw_elephant_40_n02504458_7871.JPEG
subject-01,1,321,0.798608064651489,car,car,bw,0320_cl_s01_bw_car_40_n04285008_12045.JPEG
subject-01,1,322,0.675547122955322,boat,boat,bw,0321_cl_s01_bw_boat_40_n04612504_1748.JPEG
subject-01,1,323,0.798489093780518,boat,boat,bw,0322_cl_s01_bw_boat_40_n03344393_3443.JPEG
subject-01,1,324,0.742408037185669,clock,clock,cr,0323_cl_s01_cr_clock_40_n04548280_77.JPEG
subject-01,1,325,0.702960014343262,bicycle,bicycle,cr,0324_cl_s01_cr_bicycle_40_n02835271_26731.JPEG
subject-01,1,326,1.43335890769958,keyboard,knife,bw,0325_cl_s01_bw_knife_40_n03041632_85488.JPEG
subject-01,1,327,0.686165809631348,elephant,elephant,bw,0326_cl_s01_bw_elephant_40_n02504458_5059.JPEG
subject-01,1,328,0.769674777984619,dog,dog,bw,0327_cl_s01_bw_dog_40_n02091467_3727.JPEG
subject-01,1,329,0.785475969314575,oven,oven,bw,0328_cl_s01_bw_oven_40_n04111531_6120.JPEG
subject-01,1,330,0.537262916564941,boat,boat,cr,0329_cl_s01_cr_boat_40_n02951358_5355.JPEG
subject-01,1,331,0.860060930252075,bottle,bottle,cr,0330_cl_s01_cr_bottle_40_n04557648_2122.JPEG
subject-01,1,332,0.798892021179199,chair,chair,bw,0331_cl_s01_bw_chair_40_n02791124_7324.JPEG
subject-01,1,333,0.621089935302734,car,car,cr,0332_cl_s01_cr_car_40_n04285008_874.JPEG
subject-01,1,334,0.928281784057617,elephant,elephant,bw,0333_cl_s01_bw_elephant_40_n02504013_22388.JPEG
subject-01,1,335,0.688778162002563,boat,boat,bw,0334_cl_s01_bw_boat_40_n03344393_11855.JPEG
subject-01,1,336,0.902546167373657,keyboard,keyboard,cr,0335_cl_s01_cr_keyboard_40_n04505470_4385.JPEG
subject-01,1,337,1.31763100624084,dog,dog,bw,0336_cl_s01_bw_dog_40_n02110806_21755.JPEG
subject-01,1,338,0.718120098114014,car,car,bw,0337_cl_s01_bw_car_40_n04285008_658.JPEG
subject-01,1,339,0.700655221939087,keyboard,keyboard,bw,0338_cl_s01_bw_keyboard_40_n04505470_6623.JPEG
subject-01,1,340,0.993210077285767,bear,bear,cr,0339_cl_s01_cr_bear_40_n02133161_739.JPEG
subject-01,1,341,0.622776031494141,bicycle,bicycle,cr,0340_cl_s01_cr_bicycle_40_n02835271_13023.JPEG
subject-01,1,342,0.705902814865112,bird,bird,cr,0341_cl_s01_cr_bird_40_n02027492_8707.JPEG
subject-01,1,343,1.04970502853394,airplane,airplane,cr,0342_cl_s01_cr_airplane_40_n02690373_1732.JPEG
subject-01,1,344,0.972655057907104,bear,bear,cr,0343_cl_s01_cr_bear_40_n02132136_8637.JPEG
subject-01,1,345,1.0485692024231,knife,knife,bw,0344_cl_s01_bw_knife_40_n03041632_96345.JPEG
subject-01,1,346,0.609143972396851,boat,boat,bw,0345_cl_s01_bw_boat_40_n02951358_12354.JPEG
subject-01,1,347,0.878106832504272,chair,chair,bw,0346_cl_s01_bw_chair_40_n02791124_4306.JPEG
subject-01,1,348,0.724321126937866,boat,boat,cr,0347_cl_s01_cr_boat_40_n04273569_15892.JPEG
subject-01,1,349,0.684757947921753,cat,cat,bw,0348_cl_s01_bw_cat_40_n02123394_6598.JPEG
subject-01,1,350,1.09146308898926,bear,bear,cr,0349_cl_s01_cr_bear_40_n02133161_12868.JPEG
subject-01,1,351,0.78963303565979,truck,truck,bw,0350_cl_s01_bw_truck_40_n03796401_1710.JPEG
subject-01,1,352,1.08916783332825,bicycle,knife,bw,0351_cl_s01_bw_knife_40_n03041632_33424.JPEG
subject-01,1,353,0.619349956512451,clock,clock,cr,0352_cl_s01_cr_clock_40_n03196217_4541.JPEG
subject-01,1,354,0.909008979797363,bicycle,bicycle,cr,0353_cl_s01_cr_bicycle_40_n02835271_2753.JPEG
subject-01,1,355,1.02336406707764,dog,bear,bw,0354_cl_s01_bw_bear_40_n02134418_5405.JPEG
subject-01,1,356,0.869832992553711,dog,dog,bw,0355_cl_s01_bw_dog_40_n02091032_1035.JPEG
subject-01,1,357,0.654597997665405,knife,knife,cr,0356_cl_s01_cr_knife_40_n03041632_47410.JPEG
subject-01,1,358,0.730829954147339,cat,cat,cr,0357_cl_s01_cr_cat_40_n02123394_686.JPEG
subject-01,1,359,1.03578114509583,keyboard,keyboard,cr,0358_cl_s01_cr_keyboard_40_n04505470_4594.JPEG
subject-01,1,360,0.997985124588013,knife,knife,bw,0359_cl_s01_bw_knife_40_n03041632_4808.JPEG
subject-01,1,361,0.820800065994263,dog,dog,bw,0360_cl_s01_bw_dog_40_n02095570_513.JPEG
subject-01,1,362,0.802993059158325,car,car,cr,0361_cl_s01_cr_car_40_n04285008_7749.JPEG
subject-01,1,363,0.671534061431885,oven,oven,cr,0362_cl_s01_cr_oven_40_n04111531_584.JPEG
subject-01,1,364,1.33995985984802,car,car,cr,0363_cl_s01_cr_car_40_n03100240_12146.JPEG
subject-01,1,365,0.608624219894409,boat,boat,bw,0364_cl_s01_bw_boat_40_n03344393_7614.JPEG
subject-01,1,366,0.714797019958496,boat,boat,bw,0365_cl_s01_bw_boat_40_n03662601_34174.JPEG
subject-01,1,367,0.630051136016846,cat,cat,bw,0366_cl_s01_bw_cat_40_n02123159_4353.JPEG
subject-01,1,368,0.676275968551636,chair,chair,cr,0367_cl_s01_cr_chair_40_n02791124_4528.JPEG
subject-01,1,369,0.804739952087402,cat,bear,bw,0368_cl_s01_bw_bear_40_n02134418_2503.JPEG
subject-01,1,370,1.23538684844971,bottle,bottle,bw,0369_cl_s01_bw_bottle_40_n03937543_9756.JPEG
subject-01,1,371,1.15735793113708,bicycle,bicycle,cr,0370_cl_s01_cr_bicycle_40_n02835271_1426.JPEG
subject-01,1,372,1.00164198875427,airplane,airplane,cr,0371_cl_s01_cr_airplane_40_n02690373_4202.JPEG
subject-01,1,373,1.26271104812622,car,bear,bw,0372_cl_s01_bw_bear_40_n02133161_1360.JPEG
subject-01,1,374,1.00904893875122,car,car,cr,0373_cl_s01_cr_car_40_n04285008_8093.JPEG
subject-01,1,375,1.12332701683044,bird,bird,cr,0374_cl_s01_cr_bird_40_n01558993_5744.JPEG
subject-01,1,376,0.675676107406616,cat,cat,cr,0375_cl_s01_cr_cat_40_n02123045_9661.JPEG
subject-01,1,377,0.960693836212158,truck,truck,bw,0376_cl_s01_bw_truck_40_n03796401_4423.JPEG
subject-01,1,378,0.637001991271973,boat,boat,cr,0377_cl_s01_cr_boat_40_n03662601_26681.JPEG
subject-01,1,379,0.873348951339722,dog,dog,cr,0378_cl_s01_cr_dog_40_n02093647_2890.JPEG
subject-01,1,380,0.724812030792236,oven,oven,bw,0379_cl_s01_bw_oven_40_n04111531_8963.JPEG
subject-01,1,381,1.31622385978699,clock,clock,bw,0380_cl_s01_bw_clock_40_n02708093_3484.JPEG
subject-01,1,382,0.940850019454956,knife,knife,cr,0381_cl_s01_cr_knife_40_n03041632_32048.JPEG
subject-01,1,383,0.785197973251343,clock,clock,bw,0382_cl_s01_bw_clock_40_n02708093_3079.JPEG
subject-01,1,384,0.691869974136353,bird,bird,bw,0383_cl_s01_bw_bird_40_n01558993_6287.JPEG
subject-01,1,385,0.898292064666748,dog,dog,bw,0384_cl_s01_bw_dog_40_n02088466_3052.JPEG
subject-01,1,386,0.636924028396606,boat,boat,cr,0385_cl_s01_cr_boat_40_n03344393_3337.JPEG
subject-01,1,387,0.781182050704956,bird,bird,cr,0386_cl_s01_cr_bird_40_n01860187_1258.JPEG
subject-01,1,388,0.742072105407715,keyboard,keyboard,cr,0387_cl_s01_cr_keyboard_40_n04505470_2740.JPEG
subject-01,1,389,0.73486590385437,airplane,airplane,bw,0388_cl_s01_bw_airplane_40_n02690373_4150.JPEG
subject-01,1,390,0.986981868743896,bicycle,bicycle,cr,0389_cl_s01_cr_bicycle_40_n02835271_5886.JPEG
subject-01,1,391,0.663849830627441,chair,chair,bw,0390_cl_s01_bw_chair_40_n03376595_2420.JPEG
subject-01,1,392,1.11640310287476,bear,bear,cr,0391_cl_s01_cr_bear_40_n02134084_5274.JPEG
subject-01,1,393,1.50048398971558,bicycle,bicycle,bw,0392_cl_s01_bw_bicycle_40_n02835271_506.JPEG
subject-01,1,394,0.761703968048096,cat,cat,bw,0393_cl_s01_bw_cat_40_n02123394_5708.JPEG
subject-01,1,395,0.63782787322998,car,car,bw,0394_cl_s01_bw_car_40_n02814533_45594.JPEG
subject-01,1,396,0.728415012359619,oven,oven,bw,0395_cl_s01_bw_oven_40_n04111531_5328.JPEG
subject-01,1,397,0.820743799209595,bird,dog,bw,0396_cl_s01_bw_dog_40_n02093256_1653.JPEG
subject-01,1,398,0.727256059646606,boat,boat,bw,0397_cl_s01_bw_boat_40_n03662601_855.JPEG
subject-01,1,399,0.871964931488037,oven,knife,bw,0398_cl_s01_bw_knife_40_n03041632_11186.JPEG
subject-01,1,400,0.756691932678223,bottle,bottle,bw,0399_cl_s01_bw_bottle_40_n04591713_7959.JPEG
subject-01,1,401,0.51102614402771,boat,boat,bw,0400_cl_s01_bw_boat_40_n03344393_10284.JPEG
subject-01,1,402,0.715636014938354,elephant,elephant,cr,0401_cl_s01_cr_elephant_40_n02504013_10330.JPEG
subject-01,1,403,0.83827805519104,clock,clock,cr,0402_cl_s01_cr_clock_40_n04548280_6743.JPEG
subject-01,1,404,0.877100944519043,bottle,bottle,bw,0403_cl_s01_bw_bottle_40_n03983396_8684.JPEG
subject-01,1,405,1.00509715080261,knife,knife,cr,0404_cl_s01_cr_knife_40_n03041632_90125.JPEG
subject-01,1,406,0.811276912689209,knife,knife,cr,0405_cl_s01_cr_knife_40_n03041632_30573.JPEG
subject-01,1,407,0.633891820907593,boat,boat,bw,0406_cl_s01_bw_boat_40_n04273569_9821.JPEG
subject-01,1,408,0.756998062133789,knife,knife,bw,0407_cl_s01_bw_knife_40_n03041632_4214.JPEG
subject-01,1,409,1.08534717559814,airplane,airplane,bw,0408_cl_s01_bw_airplane_40_n02690373_693.JPEG
subject-01,1,410,1.00003790855408,elephant,elephant,bw,0409_cl_s01_bw_elephant_40_n02504013_2770.JPEG
subject-01,1,411,1.33855795860291,elephant,elephant,cr,0410_cl_s01_cr_elephant_40_n02504458_3525.JPEG
subject-01,1,412,0.568671941757202,oven,oven,bw,0411_cl_s01_bw_oven_40_n04111531_11868.JPEG
subject-01,1,413,0.759170055389404,elephant,elephant,bw,0412_cl_s01_bw_elephant_40_n02504458_3714.JPEG
subject-01,1,414,0.949698925018311,dog,cat,cr,0413_cl_s01_cr_cat_40_n02123597_9656.JPEG
subject-01,1,415,1.36429905891418,bottle,chair,bw,0414_cl_s01_bw_chair_40_n04099969_6309.JPEG
subject-01,1,416,0.964984178543091,oven,bear,bw,0415_cl_s01_bw_bear_40_n02134418_496.JPEG
subject-01,1,417,0.609495878219604,bear,bear,bw,0416_cl_s01_bw_bear_40_n02133161_12187.JPEG
subject-01,1,418,0.785999059677124,bicycle,bicycle,bw,0417_cl_s01_bw_bicycle_40_n03792782_9412.JPEG
subject-01,1,419,0.754266977310181,bicycle,bicycle,cr,0418_cl_s01_cr_bicycle_40_n03792782_5864.JPEG
subject-01,1,420,0.952806949615479,bird,bird,cr,0419_cl_s01_cr_bird_40_n01819313_6430.JPEG
subject-01,1,421,1.42957806587219,cat,knife,bw,0420_cl_s01_bw_knife_40_n03041632_5102.JPEG
subject-01,1,422,0.998047113418579,bicycle,bicycle,bw,0421_cl_s01_bw_bicycle_40_n02835271_381.JPEG
subject-01,1,423,0.636713981628418,clock,clock,bw,0422_cl_s01_bw_clock_40_n03196217_6477.JPEG
subject-01,1,424,0.881525993347168,knife,knife,bw,0423_cl_s01_bw_knife_40_n03041632_101553.JPEG
subject-01,1,425,0.617832183837891,boat,boat,bw,0424_cl_s01_bw_boat_40_n03344393_6458.JPEG
subject-01,1,426,1.07819795608521,boat,bear,cr,0425_cl_s01_cr_bear_40_n02133161_6946.JPEG
subject-01,1,427,0.662942886352539,cat,cat,bw,0426_cl_s01_bw_cat_40_n02123045_1787.JPEG
subject-01,1,428,0.669497013092041,elephant,elephant,bw,0427_cl_s01_bw_elephant_40_n02504458_5444.JPEG
subject-01,1,429,1.39804601669312,dog,dog,bw,0428_cl_s01_bw_dog_40_n02106662_50272.JPEG
subject-01,1,430,0.684643983840942,car,car,bw,0429_cl_s01_bw_car_40_n03100240_8206.JPEG
subject-01,1,431,1.50016093254089,bird,bear,cr,0430_cl_s01_cr_bear_40_n02133161_1916.JPEG
subject-01,1,432,0.651336908340454,clock,clock,cr,0431_cl_s01_cr_clock_40_n02708093_1559.JPEG
subject-01,1,433,0.804444074630737,airplane,airplane,bw,0432_cl_s01_bw_airplane_40_n02690373_15966.JPEG
subject-01,1,434,0.903055191040039,keyboard,keyboard,cr,0433_cl_s01_cr_keyboard_40_n04505470_2787.JPEG
subject-01,1,435,0.809213161468506,boat,boat,cr,0434_cl_s01_cr_boat_40_n03344393_2480.JPEG
subject-01,1,436,1.06151604652405,car,chair,cr,0435_cl_s01_cr_chair_40_n02791124_3161.JPEG
subject-01,1,437,0.776514053344727,bottle,bottle,bw,0436_cl_s01_bw_bottle_40_n04557648_23801.JPEG
subject-01,1,438,0.753082990646362,boat,boat,bw,0437_cl_s01_bw_boat_40_n02951358_30020.JPEG
subject-01,1,439,0.551551103591919,oven,oven,cr,0438_cl_s01_cr_oven_40_n04111531_14876.JPEG
subject-01,1,440,0.974053144454956,dog,dog,cr,0439_cl_s01_cr_dog_40_n02097130_456.JPEG
subject-01,1,441,0.796451091766357,airplane,airplane,cr,0440_cl_s01_cr_airplane_40_n02690373_610.JPEG
subject-01,1,442,0.864697933197021,bird,bird,cr,0441_cl_s01_cr_bird_40_n01829413_122.JPEG
subject-01,1,443,0.863142013549805,dog,dog,bw,0442_cl_s01_bw_dog_40_n02090721_6440.JPEG
subject-01,1,444,0.715865850448608,bird,bird,cr,0443_cl_s01_cr_bird_40_n01531178_5780.JPEG
subject-01,1,445,0.930437088012695,bear,bear,cr,0444_cl_s01_cr_bear_40_n02134084_13339.JPEG
subject-01,1,446,0.804598093032837,dog,dog,cr,0445_cl_s01_cr_dog_40_n02093647_1818.JPEG
subject-01,1,447,0.851377964019775,keyboard,keyboard,cr,0446_cl_s01_cr_keyboard_40_n04505470_3089.JPEG
subject-01,1,448,0.803653001785278,truck,truck,cr,0447_cl_s01_cr_truck_40_n03796401_14203.JPEG
subject-01,1,449,0.610033988952637,clock,clock,bw,0448_cl_s01_bw_clock_40_n04548280_5456.JPEG
subject-01,1,450,1.25443601608276,car,truck,bw,0449_cl_s01_bw_truck_40_n04467665_30683.JPEG
subject-01,1,451,1.05294799804688,bird,oven,bw,0450_cl_s01_bw_oven_40_n04111531_16463.JPEG
subject-01,1,452,0.837527990341187,bicycle,bicycle,bw,0451_cl_s01_bw_bicycle_40_n03792782_3705.JPEG
subject-01,1,453,0.874274015426636,elephant,elephant,bw,0452_cl_s01_bw_elephant_40_n02504013_1060.JPEG
subject-01,1,454,1.10242295265198,elephant,elephant,cr,0453_cl_s01_cr_elephant_40_n02504013_4892.JPEG
subject-01,1,455,0.903089046478271,clock,clock,bw,0454_cl_s01_bw_clock_40_n04548280_8585.JPEG
subject-01,1,456,0.825824975967407,truck,truck,bw,0455_cl_s01_bw_truck_40_n03417042_22513.JPEG
subject-01,1,457,0.662267923355103,bottle,bottle,bw,0456_cl_s01_bw_bottle_40_n04579145_5921.JPEG
subject-01,1,458,1.14453315734863,dog,bear,cr,0457_cl_s01_cr_bear_40_n02134418_1482.JPEG
subject-01,1,459,0.920841932296753,bear,cat,cr,0458_cl_s01_cr_cat_40_n02125311_8567.JPEG
subject-01,1,460,0.681413888931274,bicycle,bicycle,cr,0459_cl_s01_cr_bicycle_40_n03792782_33853.JPEG
subject-01,1,461,0.763791084289551,keyboard,keyboard,cr,0460_cl_s01_cr_keyboard_40_n03085013_19483.JPEG
subject-01,1,462,0.87060284614563,elephant,elephant,cr,0461_cl_s01_cr_elephant_40_n02504013_6672.JPEG
subject-01,1,463,0.716756820678711,bicycle,bicycle,bw,0462_cl_s01_bw_bicycle_40_n03792782_4591.JPEG
subject-01,1,464,0.716085195541382,bicycle,bicycle,bw,0463_cl_s01_bw_bicycle_40_n03792782_41992.JPEG
subject-01,1,465,1.19814491271973,bear,bear,cr,0464_cl_s01_cr_bear_40_n02134084_1201.JPEG
subject-01,1,466,0.666524887084961,airplane,airplane,bw,0465_cl_s01_bw_airplane_40_n02690373_6406.JPEG
subject-01,1,467,1.08150315284729,clock,clock,cr,0466_cl_s01_cr_clock_40_n03196217_9736.JPEG
subject-01,1,468,0.641898155212402,keyboard,keyboard,cr,0467_cl_s01_cr_keyboard_40_n04505470_7161.JPEG
subject-01,1,469,1.1860818862915,elephant,elephant,bw,0468_cl_s01_bw_elephant_40_n02504458_4633.JPEG
subject-01,1,470,1.054438829422,keyboard,keyboard,cr,0469_cl_s01_cr_keyboard_40_n04505470_996.JPEG
subject-01,1,471,0.747344970703125,bicycle,bicycle,cr,0470_cl_s01_cr_bicycle_40_n03792782_3296.JPEG
subject-01,1,472,1.15154194831848,bear,bear,cr,0471_cl_s01_cr_bear_40_n02133161_1362.JPEG
subject-01,1,473,0.974352836608887,airplane,airplane,cr,0472_cl_s01_cr_airplane_40_n02690373_4578.JPEG
subject-01,1,474,0.612784862518311,chair,chair,cr,0473_cl_s01_cr_chair_40_n02791124_1239.JPEG
subject-01,1,475,0.703405141830444,boat,boat,bw,0474_cl_s01_bw_boat_40_n04273569_870.JPEG
subject-01,1,476,0.755928039550781,truck,truck,bw,0475_cl_s01_bw_truck_40_n04467665_70308.JPEG
subject-01,1,477,0.694471120834351,truck,truck,cr,0476_cl_s01_cr_truck_40_n03796401_17318.JPEG
subject-01,1,478,0.822561979293823,keyboard,keyboard,cr,0477_cl_s01_cr_keyboard_40_n04505470_665.JPEG
subject-01,1,479,1.07516098022461,truck,truck,cr,0478_cl_s01_cr_truck_40_n04467665_4899.JPEG
subject-01,1,480,0.765587091445923,bird,bird,cr,0479_cl_s01_cr_bird_40_n02013706_9024.JPEG
subject-01,1,481,0.62058687210083,elephant,elephant,bw,0480_cl_s01_bw_elephant_40_n02504458_11363.JPEG
subject-01,1,482,0.742882013320923,cat,cat,bw,0481_cl_s01_bw_cat_40_n02123159_7851.JPEG
subject-01,1,483,0.833137989044189,bottle,bottle,cr,0482_cl_s01_cr_bottle_40_n04560804_3683.JPEG
subject-01,1,484,1.12410998344421,dog,elephant,bw,0483_cl_s01_bw_elephant_40_n02504458_6336.JPEG
subject-01,1,485,1.39025902748108,bird,elephant,cr,0484_cl_s01_cr_elephant_40_n02504013_6167.JPEG
subject-01,1,486,1.16096782684326,cat,knife,cr,0485_cl_s01_cr_knife_40_n03041632_4305.JPEG
subject-01,1,487,0.583178043365479,boat,boat,bw,0486_cl_s01_bw_boat_40_n02951358_863.JPEG
subject-01,1,488,0.590046882629395,bicycle,bicycle,cr,0487_cl_s01_cr_bicycle_40_n03792782_18707.JPEG
subject-01,1,489,1.34082508087158,car,truck,bw,0488_cl_s01_bw_truck_40_n04467665_53635.JPEG
subject-01,1,490,0.532665967941284,clock,clock,cr,0489_cl_s01_cr_clock_40_n04548280_13469.JPEG
subject-01,1,491,0.631561040878296,chair,chair,bw,0490_cl_s01_bw_chair_40_n03376595_17859.JPEG
subject-01,1,492,0.960026979446411,dog,dog,cr,0491_cl_s01_cr_dog_40_n02088466_6371.JPEG
subject-01,1,493,1.1284191608429,bottle,cat,bw,0492_cl_s01_bw_cat_40_n02123597_1544.JPEG
subject-01,1,494,0.921169996261597,cat,cat,bw,0493_cl_s01_bw_cat_40_n02125311_20219.JPEG
subject-01,1,495,0.789888858795166,bicycle,bicycle,bw,0494_cl_s01_bw_bicycle_40_n03792782_1778.JPEG
subject-01,1,496,0.750486850738525,chair,chair,bw,0495_cl_s01_bw_chair_40_n04099969_11863.JPEG
subject-01,1,497,0.911231994628906,elephant,elephant,bw,0496_cl_s01_bw_elephant_40_n02504458_6995.JPEG
subject-01,1,498,0.687772035598755,airplane,airplane,bw,0497_cl_s01_bw_airplane_40_n02690373_7107.JPEG
subject-01,1,499,0.624315023422241,airplane,airplane,cr,0498_cl_s01_cr_airplane_40_n02690373_8231.JPEG
subject-01,1,500,0.823394060134888,knife,knife,cr,0499_cl_s01_cr_knife_40_n03041632_379.JPEG
subject-01,1,501,0.753154993057251,airplane,airplane,cr,0500_cl_s01_cr_airplane_40_n02690373_60.JPEG
subject-01,1,502,0.597409963607788,bicycle,bicycle,cr,0501_cl_s01_cr_bicycle_40_n02835271_8125.JPEG
subject-01,1,503,0.550509214401245,clock,clock,bw,0502_cl_s01_bw_clock_40_n02708093_4569.JPEG
subject-01,1,504,0.610862970352173,oven,oven,bw,0503_cl_s01_bw_oven_40_n04111531_3955.JPEG
subject-01,1,505,0.518775939941406,boat,boat,bw,0504_cl_s01_bw_boat_40_n04612504_26666.JPEG
subject-01,1,506,0.639033079147339,cat,cat,cr,0505_cl_s01_cr_cat_40_n02124075_8351.JPEG
subject-01,1,507,1.07584095001221,car,car,cr,0506_cl_s01_cr_car_40_n02814533_7769.JPEG
subject-01,1,508,0.783967018127441,car,car,bw,0507_cl_s01_bw_car_40_n04285008_5997.JPEG
subject-01,1,509,0.736717939376831,elephant,elephant,cr,0508_cl_s01_cr_elephant_40_n02504458_1304.JPEG
subject-01,1,510,0.559279918670654,clock,clock,bw,0509_cl_s01_bw_clock_40_n03196217_868.JPEG
subject-01,1,511,0.634476184844971,keyboard,keyboard,cr,0510_cl_s01_cr_keyboard_40_n04505470_4356.JPEG
subject-01,1,512,1.22526097297668,keyboard,oven,bw,0511_cl_s01_bw_oven_40_n04111531_10436.JPEG
subject-01,1,513,0.669648885726929,bicycle,bicycle,cr,0512_cl_s01_cr_bicycle_40_n03792782_7570.JPEG
subject-01,1,514,0.700134992599487,bear,bear,bw,0513_cl_s01_bw_bear_40_n02134418_1043.JPEG
subject-01,1,515,0.714510917663574,clock,clock,bw,0514_cl_s01_bw_clock_40_n02708093_1430.JPEG
subject-01,1,516,0.57545804977417,clock,clock,bw,0515_cl_s01_bw_clock_40_n04548280_2411.JPEG
subject-01,1,517,0.58988094329834,oven,oven,bw,0516_cl_s01_bw_oven_40_n04111531_8036.JPEG
subject-01,1,518,0.934319019317627,car,car,cr,0517_cl_s01_cr_car_40_n03100240_9086.JPEG
subject-01,1,519,0.887331962585449,bottle,keyboard,cr,0518_cl_s01_cr_keyboard_40_n03085013_3489.JPEG
subject-01,1,520,0.671677112579346,oven,oven,cr,0519_cl_s01_cr_oven_40_n04111531_2592.JPEG
subject-01,1,521,0.578276872634888,bicycle,bicycle,cr,0520_cl_s01_cr_bicycle_40_n02835271_24104.JPEG
subject-01,1,522,1.5002589225769,cat,elephant,bw,0521_cl_s01_bw_elephant_40_n02504458_4908.JPEG
subject-01,1,523,0.88294506072998,bicycle,bicycle,bw,0522_cl_s01_bw_bicycle_40_n03792782_13665.JPEG
subject-01,1,524,0.759392023086548,bear,bear,bw,0523_cl_s01_bw_bear_40_n02132136_23248.JPEG
subject-01,1,525,0.734560012817383,bird,bird,bw,0524_cl_s01_bw_bird_40_n02027492_546.JPEG
subject-01,1,526,0.726986885070801,airplane,airplane,bw,0525_cl_s01_bw_airplane_40_n02690373_5184.JPEG
subject-01,1,527,0.725232124328613,bear,bear,cr,0526_cl_s01_cr_bear_40_n02134084_16163.JPEG
subject-01,1,528,1.43758106231689,truck,truck,cr,0527_cl_s01_cr_truck_40_n04467665_3125.JPEG
subject-01,1,529,0.562139987945557,clock,clock,cr,0528_cl_s01_cr_clock_40_n03196217_1499.JPEG
subject-01,1,530,0.766515016555786,airplane,airplane,cr,0529_cl_s01_cr_airplane_40_n02690373_6845.JPEG
subject-01,1,531,0.775382041931152,oven,oven,bw,0530_cl_s01_bw_oven_40_n04111531_3181.JPEG
subject-01,1,532,0.75789213180542,keyboard,keyboard,bw,0531_cl_s01_bw_keyboard_40_n03085013_20161.JPEG
subject-01,1,533,0.65033221244812,bear,bear,bw,0532_cl_s01_bw_bear_40_n02132136_22313.JPEG
subject-01,1,534,0.80250096321106,car,car,cr,0533_cl_s01_cr_car_40_n04285008_713.JPEG
subject-01,1,535,1.04655289649963,airplane,airplane,cr,0534_cl_s01_cr_airplane_40_n02690373_8560.JPEG
subject-01,1,536,0.807276964187622,knife,knife,cr,0535_cl_s01_cr_knife_40_n03041632_4279.JPEG
subject-01,1,537,0.698258876800537,chair,chair,bw,0536_cl_s01_bw_chair_40_n04099969_22572.JPEG
subject-01,1,538,0.698042869567871,bird,bird,bw,0537_cl_s01_bw_bird_40_n01531178_10905.JPEG
subject-01,1,539,0.858705043792725,boat,boat,cr,0538_cl_s01_cr_boat_40_n03344393_8160.JPEG
subject-01,1,540,1.09511280059814,bear,bear,cr,0539_cl_s01_cr_bear_40_n02134418_5273.JPEG
subject-01,1,541,0.701297044754028,bear,bear,cr,0540_cl_s01_cr_bear_40_n02132136_10622.JPEG
subject-01,1,542,0.647637128829956,car,car,bw,0541_cl_s01_bw_car_40_n04285008_9404.JPEG
subject-01,1,543,1.10629391670227,bear,bear,cr,0542_cl_s01_cr_bear_40_n02134418_3846.JPEG
subject-01,1,544,0.714967966079712,airplane,airplane,bw,0543_cl_s01_bw_airplane_40_n02690373_4727.JPEG
subject-01,1,545,0.838023900985718,truck,truck,bw,0544_cl_s01_bw_truck_40_n03796401_1758.JPEG
subject-01,1,546,0.844359159469604,boat,boat,cr,0545_cl_s01_cr_boat_40_n03344393_2408.JPEG
subject-01,1,547,0.965187072753906,car,car,bw,0546_cl_s01_bw_car_40_n02814533_93487.JPEG
subject-01,1,548,0.971457958221436,airplane,airplane,cr,0547_cl_s01_cr_airplane_40_n02690373_19438.JPEG
subject-01,1,549,1.18610000610352,boat,boat,bw,0548_cl_s01_bw_boat_40_n03662601_8283.JPEG
subject-01,1,550,0.525100946426392,chair,chair,bw,0549_cl_s01_bw_chair_40_n04099969_1775.JPEG
subject-01,1,551,0.901493787765503,dog,dog,cr,0550_cl_s01_cr_dog_40_n02091635_6519.JPEG
subject-01,1,552,0.74595308303833,keyboard,keyboard,cr,0551_cl_s01_cr_keyboard_40_n03085013_2842.JPEG
subject-01,1,553,0.746500015258789,keyboard,keyboard,bw,0552_cl_s01_bw_keyboard_40_n04505470_4965.JPEG
subject-01,1,554,0.606755018234253,car,car,bw,0553_cl_s01_bw_car_40_n04285008_5548.JPEG
subject-01,1,555,0.713661909103394,car,car,bw,0554_cl_s01_bw_car_40_n02814533_12388.JPEG
subject-01,1,556,0.582524061203003,clock,clock,cr,0555_cl_s01_cr_clock_40_n04548280_3605.JPEG
subject-01,1,557,0.572912931442261,knife,knife,bw,0556_cl_s01_bw_knife_40_n03041632_16172.JPEG
subject-01,1,558,0.670817136764526,keyboard,keyboard,bw,0557_cl_s01_bw_keyboard_40_n04505470_4202.JPEG
subject-01,1,559,0.717857837677002,knife,knife,bw,0558_cl_s01_bw_knife_40_n03041632_27575.JPEG
subject-01,1,560,0.738540172576904,knife,knife,cr,0559_cl_s01_cr_knife_40_n03041632_13478.JPEG
subject-01,1,561,1.09896898269653,bicycle,bicycle,bw,0560_cl_s01_bw_bicycle_40_n03792782_818.JPEG
subject-01,1,562,0.791105985641479,bicycle,bicycle,cr,0561_cl_s01_cr_bicycle_40_n02835271_22536.JPEG
subject-01,1,563,1.07347893714905,chair,chair,cr,0562_cl_s01_cr_chair_40_n02791124_1865.JPEG
subject-01,1,564,0.850306034088135,oven,oven,cr,0563_cl_s01_cr_oven_40_n04111531_2937.JPEG
subject-01,1,565,0.802736043930054,bottle,bottle,bw,0564_cl_s01_bw_bottle_40_n04560804_10989.JPEG
subject-01,1,566,1.14759206771851,chair,chair,bw,0565_cl_s01_bw_chair_40_n04099969_8509.JPEG
subject-01,1,567,0.609758853912354,clock,clock,bw,0566_cl_s01_bw_clock_40_n03196217_711.JPEG
subject-01,1,568,1.5002601146698,dog,bear,cr,0567_cl_s01_cr_bear_40_n02132136_5158.JPEG
subject-01,1,569,0.736845016479492,bird,bird,cr,0568_cl_s01_cr_bird_40_n02002556_15337.JPEG
subject-01,1,570,0.697223901748657,boat,boat,bw,0569_cl_s01_bw_boat_40_n03662601_8709.JPEG
subject-01,1,571,1.0799458026886,keyboard,oven,bw,0570_cl_s01_bw_oven_40_n04111531_9322.JPEG
subject-01,1,572,0.88056206703186,cat,cat,cr,0571_cl_s01_cr_cat_40_n02123597_660.JPEG
subject-01,1,573,0.733041048049927,clock,clock,cr,0572_cl_s01_cr_clock_40_n02708093_7076.JPEG
subject-01,1,574,0.847858905792236,bottle,bottle,bw,0573_cl_s01_bw_bottle_40_n02823428_1154.JPEG
subject-01,1,575,0.800238132476807,clock,clock,bw,0574_cl_s01_bw_clock_40_n04548280_3330.JPEG
subject-01,1,576,0.830860137939453,knife,knife,cr,0575_cl_s01_cr_knife_40_n03041632_32292.JPEG
subject-01,1,577,0.975064039230347,bicycle,bicycle,cr,0576_cl_s01_cr_bicycle_40_n02835271_19400.JPEG
subject-01,1,578,0.867372989654541,knife,knife,cr,0577_cl_s01_cr_knife_40_n03041632_56436.JPEG
subject-01,1,579,0.987650156021118,elephant,elephant,cr,0578_cl_s01_cr_elephant_40_n02504458_7839.JPEG
subject-01,1,580,1.13227701187134,dog,dog,cr,0579_cl_s01_cr_dog_40_n02100877_1107.JPEG
subject-01,1,581,0.817618131637573,cat,cat,bw,0580_cl_s01_bw_cat_40_n02123045_6445.JPEG
subject-01,1,582,0.886062860488892,bicycle,bicycle,bw,0581_cl_s01_bw_bicycle_40_n02835271_6736.JPEG
subject-01,1,583,0.70849609375,bicycle,bicycle,bw,0582_cl_s01_bw_bicycle_40_n03792782_710.JPEG
subject-01,1,584,0.698878049850464,bottle,bottle,bw,0583_cl_s01_bw_bottle_40_n03983396_5611.JPEG
subject-01,1,585,0.975017786026001,clock,clock,cr,0584_cl_s01_cr_clock_40_n04548280_7816.JPEG
subject-01,1,586,0.712232112884521,clock,clock,cr,0585_cl_s01_cr_clock_40_n04548280_5889.JPEG
subject-01,1,587,0.888626098632812,bear,bear,cr,0586_cl_s01_cr_bear_40_n02132136_860.JPEG
subject-01,1,588,0.71900486946106,clock,clock,cr,0587_cl_s01_cr_clock_40_n03196217_970.JPEG
subject-01,1,589,0.993191957473755,elephant,elephant,cr,0588_cl_s01_cr_elephant_40_n02504013_4038.JPEG
subject-01,1,590,0.961585998535156,cat,cat,bw,0589_cl_s01_bw_cat_40_n02123597_9939.JPEG
subject-01,1,591,0.930202007293701,elephant,elephant,cr,0590_cl_s01_cr_elephant_40_n02504458_694.JPEG
subject-01,1,592,0.898810148239136,airplane,airplane,bw,0591_cl_s01_bw_airplane_40_n02690373_2316.JPEG
subject-01,1,593,1.18142104148865,bicycle,bicycle,cr,0592_cl_s01_cr_bicycle_40_n02835271_6563.JPEG
subject-01,1,594,0.887794017791748,clock,clock,bw,0593_cl_s01_bw_clock_40_n04548280_3305.JPEG
subject-01,1,595,0.755924940109253,bear,bear,bw,0594_cl_s01_bw_bear_40_n02134418_7795.JPEG
subject-01,1,596,0.678622961044312,elephant,elephant,cr,0595_cl_s01_cr_elephant_40_n02504013_7001.JPEG
subject-01,1,597,0.800974130630493,chair,chair,cr,0596_cl_s01_cr_chair_40_n02791124_7031.JPEG
subject-01,1,598,0.823630094528198,elephant,elephant,bw,0597_cl_s01_bw_elephant_40_n02504458_6721.JPEG
subject-01,1,599,0.914125204086304,truck,truck,cr,0598_cl_s01_cr_truck_40_n03417042_14575.JPEG
subject-01,1,600,1.15893602371216,dog,dog,bw,0599_cl_s01_bw_dog_40_n02102973_5217.JPEG
subject-01,1,601,1.08094310760498,car,car,cr,0600_cl_s01_cr_car_40_n02814533_76817.JPEG
subject-01,1,602,1.07937979698181,bird,bird,cr,0601_cl_s01_cr_bird_40_n02028035_12542.JPEG
subject-01,1,603,0.910127878189087,keyboard,keyboard,bw,0602_cl_s01_bw_keyboard_40_n03085013_31513.JPEG
subject-01,1,604,0.910989046096802,keyboard,keyboard,bw,0603_cl_s01_bw_keyboard_40_n04505470_3065.JPEG
subject-01,1,605,0.97725510597229,bird,bottle,cr,0604_cl_s01_cr_bottle_40_n04560804_15293.JPEG
subject-01,1,606,1.1377899646759,dog,dog,bw,0605_cl_s01_bw_dog_40_n02100583_2707.JPEG
subject-01,1,607,0.884471893310547,keyboard,keyboard,bw,0606_cl_s01_bw_keyboard_40_n03085013_7992.JPEG
subject-01,1,608,0.98265814781189,bottle,bottle,cr,0607_cl_s01_cr_bottle_40_n03937543_1486.JPEG
subject-01,1,609,0.85167407989502,chair,chair,cr,0608_cl_s01_cr_chair_40_n02791124_392.JPEG
subject-01,1,610,0.641517877578735,boat,boat,cr,0609_cl_s01_cr_boat_40_n04273569_3052.JPEG
subject-01,1,611,0.693972110748291,cat,cat,cr,0610_cl_s01_cr_cat_40_n02124075_1999.JPEG
subject-01,1,612,0.862635135650635,keyboard,keyboard,cr,0611_cl_s01_cr_keyboard_40_n03085013_35084.JPEG
subject-01,1,613,0.900067090988159,bird,bird,cr,0612_cl_s01_cr_bird_40_n01843383_10720.JPEG
subject-01,1,614,0.80765700340271,boat,boat,bw,0613_cl_s01_bw_boat_40_n02951358_4485.JPEG
subject-01,1,615,0.729258060455322,elephant,elephant,cr,0614_cl_s01_cr_elephant_40_n02504013_4590.JPEG
subject-01,1,616,1.04284501075745,chair,chair,cr,0615_cl_s01_cr_chair_40_n03376595_6570.JPEG
subject-01,1,617,0.902891159057617,bird,bird,cr,0616_cl_s01_cr_bird_40_n01797886_3876.JPEG
subject-01,1,618,0.941569089889526,truck,truck,bw,0617_cl_s01_bw_truck_40_n03796401_27288.JPEG
subject-01,1,619,0.801826953887939,keyboard,keyboard,bw,0618_cl_s01_bw_keyboard_40_n03085013_21956.JPEG
subject-01,1,620,0.670577049255371,keyboard,keyboard,bw,0619_cl_s01_bw_keyboard_40_n03085013_3264.JPEG
subject-01,1,621,0.769015073776245,keyboard,keyboard,bw,0620_cl_s01_bw_keyboard_40_n04505470_3666.JPEG
subject-01,1,622,1.04532814025879,knife,knife,bw,0621_cl_s01_bw_knife_40_n03041632_21477.JPEG
subject-01,1,623,0.935935974121094,cat,cat,cr,0622_cl_s01_cr_cat_40_n02123159_2317.JPEG
subject-01,1,624,1.16449093818665,keyboard,keyboard,bw,0623_cl_s01_bw_keyboard_40_n03085013_6561.JPEG
subject-01,1,625,0.743453979492188,cat,cat,bw,0624_cl_s01_bw_cat_40_n02123045_6773.JPEG
subject-01,1,626,1.30171895027161,bottle,bottle,cr,0625_cl_s01_cr_bottle_40_n04560804_19001.JPEG
subject-01,1,627,1.04042196273804,bottle,bottle,cr,0626_cl_s01_cr_bottle_40_n03983396_4132.JPEG
subject-01,1,628,0.754097938537598,car,car,cr,0627_cl_s01_cr_car_40_n04285008_10901.JPEG
subject-01,1,629,1.31546211242676,dog,bear,bw,0628_cl_s01_bw_bear_40_n02134084_21413.JPEG
subject-01,1,630,1.01442813873291,airplane,airplane,cr,0629_cl_s01_cr_airplane_40_n02690373_5142.JPEG
subject-01,1,631,0.791015148162842,airplane,airplane,bw,0630_cl_s01_bw_airplane_40_n02690373_4107.JPEG
subject-01,1,632,1.06742000579834,airplane,airplane,cr,0631_cl_s01_cr_airplane_40_n02690373_12813.JPEG
subject-01,1,633,0.719681024551392,airplane,airplane,cr,0632_cl_s01_cr_airplane_40_n02690373_6621.JPEG
subject-01,1,634,0.926132917404175,bicycle,bicycle,bw,0633_cl_s01_bw_bicycle_40_n03792782_3783.JPEG
subject-01,1,635,0.664849042892456,bird,bird,bw,0634_cl_s01_bw_bird_40_n02009912_9425.JPEG
subject-01,1,636,1.05516004562378,chair,chair,bw,0635_cl_s01_bw_chair_40_n04429376_2304.JPEG
subject-01,1,637,0.899279832839966,truck,truck,cr,0636_cl_s01_cr_truck_40_n03796401_5515.JPEG
subject-01,1,638,0.783830165863037,oven,oven,cr,0637_cl_s01_cr_oven_40_n04111531_5290.JPEG
subject-01,1,639,1.11289215087891,bear,bear,bw,0638_cl_s01_bw_bear_40_n02132136_1626.JPEG
subject-01,1,640,0.64294695854187,oven,oven,cr,0639_cl_s01_cr_oven_40_n04111531_21931.JPEG
subject-01,1,641,1.05720591545105,airplane,airplane,cr,0640_cl_s01_cr_airplane_40_n02690373_10181.JPEG
subject-01,1,642,0.702036142349243,oven,oven,cr,0641_cl_s01_cr_oven_40_n04111531_7072.JPEG
subject-01,1,643,0.840875148773193,chair,chair,bw,0642_cl_s01_bw_chair_40_n04099969_8934.JPEG
subject-01,1,644,0.638929128646851,oven,oven,bw,0643_cl_s01_bw_oven_40_n04111531_7862.JPEG
subject-01,1,645,0.822055816650391,clock,clock,bw,0644_cl_s01_bw_clock_40_n04548280_17198.JPEG
subject-01,1,646,1.28234314918518,knife,knife,bw,0645_cl_s01_bw_knife_40_n03041632_9302.JPEG
subject-01,1,647,1.32688999176025,clock,clock,bw,0646_cl_s01_bw_clock_40_n02708093_7841.JPEG
subject-01,1,648,0.79763388633728,car,car,bw,0647_cl_s01_bw_car_40_n03100240_10982.JPEG
subject-01,1,649,1.08040118217468,dog,dog,bw,0648_cl_s01_bw_dog_40_n02105056_15484.JPEG
subject-01,1,650,0.886678218841553,oven,clock,bw,0649_cl_s01_bw_clock_40_n04548280_4473.JPEG
subject-01,1,651,1.13916301727295,truck,truck,cr,0650_cl_s01_cr_truck_40_n03417042_19479.JPEG
subject-01,1,652,0.891793012619019,bottle,bottle,bw,0651_cl_s01_bw_bottle_40_n02823428_6767.JPEG
subject-01,1,653,0.698054075241089,bicycle,bicycle,cr,0652_cl_s01_cr_bicycle_40_n02835271_10469.JPEG
subject-01,1,654,0.728909015655518,bicycle,bicycle,bw,0653_cl_s01_bw_bicycle_40_n02835271_8529.JPEG
subject-01,1,655,0.864928007125854,dog,dog,cr,0654_cl_s01_cr_dog_40_n02102040_7465.JPEG
subject-01,1,656,0.901757955551147,bicycle,bicycle,cr,0655_cl_s01_cr_bicycle_40_n02835271_8322.JPEG
subject-01,1,657,1.10053181648254,bear,bear,cr,0656_cl_s01_cr_bear_40_n02134084_5822.JPEG
subject-01,1,658,0.784793853759766,cat,cat,bw,0657_cl_s01_bw_cat_40_n02123394_916.JPEG
subject-01,1,659,0.720954179763794,clock,clock,cr,0658_cl_s01_cr_clock_40_n04548280_4637.JPEG
subject-01,1,660,0.889521837234497,bicycle,bicycle,bw,0659_cl_s01_bw_bicycle_40_n02835271_4742.JPEG
subject-01,1,661,0.712505102157593,boat,boat,bw,0660_cl_s01_bw_boat_40_n04273569_27625.JPEG
subject-01,1,662,0.596364974975586,clock,clock,cr,0661_cl_s01_cr_clock_40_n02708093_6696.JPEG
subject-01,1,663,0.754910945892334,oven,oven,bw,0662_cl_s01_bw_oven_40_n04111531_3353.JPEG
subject-01,1,664,1.23949813842773,bird,bird,bw,0663_cl_s01_bw_bird_40_n01828970_5448.JPEG
subject-01,1,665,0.784233808517456,oven,oven,cr,0664_cl_s01_cr_oven_40_n04111531_8687.JPEG
subject-01,1,666,0.868243932723999,dog,dog,bw,0665_cl_s01_bw_dog_40_n02097130_8277.JPEG
subject-01,1,667,0.842830896377563,airplane,airplane,cr,0666_cl_s01_cr_airplane_40_n02690373_9939.JPEG
subject-01,1,668,0.835479021072388,clock,clock,bw,0667_cl_s01_bw_clock_40_n02708093_8033.JPEG
subject-01,1,669,0.717831134796143,chair,chair,bw,0668_cl_s01_bw_chair_40_n04429376_1954.JPEG
subject-01,1,670,1.5001859664917,bear,cat,cr,0669_cl_s01_cr_cat_40_n02125311_4261.JPEG
subject-01,1,671,0.978863954544067,airplane,airplane,bw,0670_cl_s01_bw_airplane_40_n02690373_3899.JPEG
subject-01,1,672,1.00701212882996,bicycle,bicycle,cr,0671_cl_s01_cr_bicycle_40_n02835271_8180.JPEG
subject-01,1,673,1.50045609474182,truck,truck,bw,0672_cl_s01_bw_truck_40_n04467665_2230.JPEG
subject-01,1,674,0.974725961685181,knife,knife,cr,0673_cl_s01_cr_knife_40_n03041632_4708.JPEG
subject-01,1,675,0.988772869110107,bicycle,bicycle,cr,0674_cl_s01_cr_bicycle_40_n02835271_7351.JPEG
subject-01,1,676,0.681386947631836,oven,oven,cr,0675_cl_s01_cr_oven_40_n04111531_20914.JPEG
subject-01,1,677,0.648144006729126,airplane,airplane,cr,0676_cl_s01_cr_airplane_40_n02690373_1235.JPEG
subject-01,1,678,0.932885885238647,truck,truck,bw,0677_cl_s01_bw_truck_40_n03417042_2056.JPEG
subject-01,1,679,1.16157388687134,cat,knife,cr,0678_cl_s01_cr_knife_40_n03041632_83472.JPEG
subject-01,1,680,0.908347129821777,dog,dog,bw,0679_cl_s01_bw_dog_40_n02097474_1859.JPEG
subject-01,1,681,0.63067102432251,oven,oven,cr,0680_cl_s01_cr_oven_40_n04111531_15947.JPEG
subject-01,1,682,1.03455495834351,car,car,cr,0681_cl_s01_cr_car_40_n03100240_5121.JPEG
subject-01,1,683,0.711108922958374,bicycle,bicycle,cr,0682_cl_s01_cr_bicycle_40_n02835271_18276.JPEG
subject-01,1,684,0.879887104034424,keyboard,keyboard,cr,0683_cl_s01_cr_keyboard_40_n03085013_19618.JPEG
subject-01,1,685,1.48669385910034,clock,knife,bw,0684_cl_s01_bw_knife_40_n03041632_7380.JPEG
subject-01,1,686,0.670635938644409,car,car,cr,0685_cl_s01_cr_car_40_n03100240_9354.JPEG
subject-01,1,687,1.01528120040894,truck,truck,bw,0686_cl_s01_bw_truck_40_n03417042_17099.JPEG
subject-01,1,688,0.722861051559448,boat,boat,cr,0687_cl_s01_cr_boat_40_n03344393_9818.JPEG
subject-01,1,689,1.20665597915649,dog,bear,bw,0688_cl_s01_bw_bear_40_n02133161_13267.JPEG
subject-01,1,690,1.05151581764221,cat,cat,cr,0689_cl_s01_cr_cat_40_n02123045_5932.JPEG
subject-01,1,691,0.803714990615845,dog,dog,cr,0690_cl_s01_cr_dog_40_n02110958_2175.JPEG
subject-01,1,692,0.696837902069092,airplane,airplane,bw,0691_cl_s01_bw_airplane_40_n02690373_2514.JPEG
subject-01,1,693,0.77093505859375,keyboard,keyboard,cr,0692_cl_s01_cr_keyboard_40_n04505470_4906.JPEG
subject-01,1,694,0.947427988052368,truck,truck,cr,0693_cl_s01_cr_truck_40_n04467665_68332.JPEG
subject-01,1,695,0.769509792327881,dog,dog,cr,0694_cl_s01_cr_dog_40_n02097209_1491.JPEG
subject-01,1,696,0.668201923370361,oven,oven,cr,0695_cl_s01_cr_oven_40_n04111531_8688.JPEG
subject-01,1,697,0.782637119293213,bear,bear,cr,0696_cl_s01_cr_bear_40_n02133161_7604.JPEG
subject-01,1,698,1.02777600288391,oven,bottle,bw,0697_cl_s01_bw_bottle_40_n03983396_20329.JPEG
subject-01,1,699,0.657716035842896,bicycle,bicycle,bw,0698_cl_s01_bw_bicycle_40_n02835271_11332.JPEG
subject-01,1,700,0.610867977142334,boat,boat,cr,0699_cl_s01_cr_boat_40_n03662601_873.JPEG
subject-01,1,701,0.787513017654419,keyboard,keyboard,bw,0700_cl_s01_bw_keyboard_40_n04505470_4549.JPEG
subject-01,1,702,0.915726900100708,truck,truck,cr,0701_cl_s01_cr_truck_40_n04467665_37066.JPEG
subject-01,1,703,1.41414213180542,bottle,knife,cr,0702_cl_s01_cr_knife_40_n03041632_99875.JPEG
subject-01,1,704,0.952771902084351,bird,bird,bw,0703_cl_s01_bw_bird_40_n01534433_8318.JPEG
subject-01,1,705,0.643640041351318,boat,boat,bw,0704_cl_s01_bw_boat_40_n02951358_34662.JPEG
subject-01,1,706,0.966500997543335,knife,knife,bw,0705_cl_s01_bw_knife_40_n03041632_17349.JPEG
subject-01,1,707,1.18687510490417,bear,elephant,bw,0706_cl_s01_bw_elephant_40_n02504013_8638.JPEG
subject-01,1,708,0.93845796585083,dog,dog,cr,0707_cl_s01_cr_dog_40_n02090622_11748.JPEG
subject-01,1,709,0.815356016159058,bottle,bottle,bw,0708_cl_s01_bw_bottle_40_n03983396_11632.JPEG
subject-01,1,710,0.752230882644653,bird,bird,bw,0709_cl_s01_bw_bird_40_n02025239_7746.JPEG
subject-01,1,711,0.990761995315552,bottle,bottle,bw,0710_cl_s01_bw_bottle_40_n04557648_9898.JPEG
subject-01,1,712,1.08097815513611,knife,knife,cr,0711_cl_s01_cr_knife_40_n03041632_51256.JPEG
subject-01,1,713,0.719352960586548,bicycle,bicycle,bw,0712_cl_s01_bw_bicycle_40_n02835271_12847.JPEG
subject-01,1,714,0.710011005401611,bird,bird,cr,0713_cl_s01_cr_bird_40_n01616318_4878.JPEG
subject-01,1,715,0.808220863342285,elephant,elephant,cr,0714_cl_s01_cr_elephant_40_n02504458_2190.JPEG
subject-01,1,716,0.815203189849854,chair,chair,bw,0715_cl_s01_bw_chair_40_n02791124_14.JPEG
subject-01,1,717,0.806280136108398,chair,oven,bw,0716_cl_s01_bw_oven_40_n04111531_615.JPEG
subject-01,1,718,0.728919982910156,car,car,bw,0717_cl_s01_bw_car_40_n03100240_7013.JPEG
subject-01,1,719,0.64293098449707,keyboard,keyboard,bw,0718_cl_s01_bw_keyboard_40_n04505470_4363.JPEG
subject-01,1,720,1.05776405334473,elephant,elephant,bw,0719_cl_s01_bw_elephant_40_n02504013_720.JPEG
subject-01,1,721,1.04010891914368,cat,cat,cr,0720_cl_s01_cr_cat_40_n02125311_6429.JPEG
subject-01,1,722,0.784202098846436,keyboard,keyboard,cr,0721_cl_s01_cr_keyboard_40_n03085013_8936.JPEG
subject-01,1,723,1.43754482269287,dog,dog,bw,0722_cl_s01_bw_dog_40_n02109047_2662.JPEG
subject-01,1,724,0.889516115188599,keyboard,keyboard,cr,0723_cl_s01_cr_keyboard_40_n03085013_30335.JPEG
subject-01,1,725,0.665962934494019,cat,cat,cr,0724_cl_s01_cr_cat_40_n02123159_1794.JPEG
subject-01,1,726,0.634444952011108,clock,clock,cr,0725_cl_s01_cr_clock_40_n03196217_4821.JPEG
subject-01,1,727,1.50004005432129,elephant,elephant,cr,0726_cl_s01_cr_elephant_40_n02504458_3776.JPEG
subject-01,1,728,1.40015697479248,cat,dog,bw,0727_cl_s01_bw_dog_40_n02108915_4936.JPEG
subject-01,1,729,0.700740098953247,clock,clock,bw,0728_cl_s01_bw_clock_40_n03196217_5888.JPEG
subject-01,1,730,0.84512996673584,bird,bird,cr,0729_cl_s01_cr_bird_40_n01855032_5511.JPEG
subject-01,1,731,0.959266901016235,boat,boat,cr,0730_cl_s01_cr_boat_40_n04273569_1087.JPEG
subject-01,1,732,0.949911832809448,chair,chair,cr,0731_cl_s01_cr_chair_40_n04099969_4205.JPEG
subject-01,1,733,0.818359136581421,truck,truck,bw,0732_cl_s01_bw_truck_40_n03417042_13635.JPEG
subject-01,1,734,1.46296215057373,knife,knife,cr,0733_cl_s01_cr_knife_40_n03041632_20707.JPEG
subject-01,1,735,0.993963003158569,knife,knife,bw,0734_cl_s01_bw_knife_40_n03041632_22734.JPEG
subject-01,1,736,0.862646102905273,clock,clock,bw,0735_cl_s01_bw_clock_40_n04548280_7211.JPEG
subject-01,1,737,0.869354009628296,truck,truck,bw,0736_cl_s01_bw_truck_40_n03417042_27093.JPEG
subject-01,1,738,0.575510025024414,oven,oven,bw,0737_cl_s01_bw_oven_40_n04111531_12468.JPEG
subject-01,1,739,0.868028879165649,bird,bird,bw,0738_cl_s01_bw_bird_40_n01560419_5714.JPEG
subject-01,1,740,1.00496411323547,oven,knife,bw,0739_cl_s01_bw_knife_40_n03041632_15299.JPEG
subject-01,1,741,0.611376047134399,oven,oven,cr,0740_cl_s01_cr_oven_40_n04111531_5888.JPEG
subject-01,1,742,0.571747064590454,oven,oven,bw,0741_cl_s01_bw_oven_40_n04111531_4939.JPEG
subject-01,1,743,0.784624099731445,keyboard,keyboard,cr,0742_cl_s01_cr_keyboard_40_n03085013_3795.JPEG
subject-01,1,744,0.892437934875488,bottle,bottle,bw,0743_cl_s01_bw_bottle_40_n03937543_1995.JPEG
subject-01,1,745,0.667139053344727,boat,boat,bw,0744_cl_s01_bw_boat_40_n03662601_6340.JPEG
subject-01,1,746,0.897819042205811,dog,dog,bw,0745_cl_s01_bw_dog_40_n02106550_12642.JPEG
subject-01,1,747,0.749612092971802,car,car,cr,0746_cl_s01_cr_car_40_n03100240_6627.JPEG
subject-01,1,748,0.848587989807129,elephant,elephant,bw,0747_cl_s01_bw_elephant_40_n02504458_7133.JPEG
subject-01,1,749,0.732235908508301,truck,truck,cr,0748_cl_s01_cr_truck_40_n03417042_8298.JPEG
subject-01,1,750,0.815412044525146,clock,clock,bw,0749_cl_s01_bw_clock_40_n02708093_3745.JPEG
subject-01,1,751,1.06825304031372,bicycle,bicycle,cr,0750_cl_s01_cr_bicycle_40_n03792782_85.JPEG
subject-01,1,752,1.36658501625061,dog,cat,bw,0751_cl_s01_bw_cat_40_n02125311_5300.JPEG
subject-01,1,753,0.935646057128906,dog,dog,cr,0752_cl_s01_cr_dog_40_n02107683_3640.JPEG
subject-01,1,754,0.611710071563721,clock,clock,cr,0753_cl_s01_cr_clock_40_n02708093_3385.JPEG
subject-01,1,755,0.732698917388916,bird,bird,bw,0754_cl_s01_bw_bird_40_n01860187_210.JPEG
subject-01,1,756,0.741286993026733,airplane,airplane,bw,0755_cl_s01_bw_airplane_40_n02690373_3054.JPEG
subject-01,1,757,0.961574077606201,bird,bird,cr,0756_cl_s01_cr_bird_40_n01558993_3939.JPEG
subject-01,1,758,0.784379005432129,bicycle,bicycle,cr,0757_cl_s01_cr_bicycle_40_n02835271_14383.JPEG
subject-01,1,759,0.812570095062256,keyboard,keyboard,bw,0758_cl_s01_bw_keyboard_40_n03085013_19197.JPEG
subject-01,1,760,1.06532597541809,car,cat,cr,0759_cl_s01_cr_cat_40_n02123597_12266.JPEG
subject-01,1,761,0.695588111877441,chair,chair,cr,0760_cl_s01_cr_chair_40_n03376595_6704.JPEG
subject-01,1,762,0.977956056594849,bird,bird,cr,0761_cl_s01_cr_bird_40_n02017213_7558.JPEG
subject-01,1,763,0.930338144302368,bicycle,bicycle,cr,0762_cl_s01_cr_bicycle_40_n03792782_18343.JPEG
subject-01,1,764,0.944808006286621,bottle,bottle,cr,0763_cl_s01_cr_bottle_40_n03937543_3219.JPEG
subject-01,1,765,0.621338129043579,clock,clock,cr,0764_cl_s01_cr_clock_40_n02708093_2394.JPEG
subject-01,1,766,0.827179908752441,boat,boat,bw,0765_cl_s01_bw_boat_40_n02951358_381.JPEG
subject-01,1,767,1.15639996528625,airplane,airplane,bw,0766_cl_s01_bw_airplane_40_n02690373_9812.JPEG
subject-01,1,768,1.04666090011597,bicycle,bicycle,bw,0767_cl_s01_bw_bicycle_40_n02835271_10813.JPEG
subject-01,1,769,0.748905181884766,knife,knife,cr,0768_cl_s01_cr_knife_40_n03041632_49570.JPEG
subject-01,1,770,0.939589977264404,bottle,dog,cr,0769_cl_s01_cr_dog_40_n02113023_8552.JPEG
subject-01,1,771,0.669687032699585,boat,boat,cr,0770_cl_s01_cr_boat_40_n03662601_27023.JPEG
subject-01,1,772,1.06063103675842,knife,keyboard,cr,0771_cl_s01_cr_keyboard_40_n04505470_4878.JPEG
subject-01,1,773,1.14166498184204,dog,dog,cr,0772_cl_s01_cr_dog_40_n02099849_6488.JPEG
subject-01,1,774,1.21134686470032,bear,bear,cr,0773_cl_s01_cr_bear_40_n02134418_685.JPEG
subject-01,1,775,0.687976121902466,bottle,bottle,bw,0774_cl_s01_bw_bottle_40_n03983396_1006.JPEG
subject-01,1,776,1.0324239730835,bird,bear,cr,0775_cl_s01_cr_bear_40_n02134084_23974.JPEG
subject-01,1,777,1.28475999832153,airplane,boat,bw,0776_cl_s01_bw_boat_40_n03662601_1197.JPEG
subject-01,1,778,0.861735105514526,bird,bird,cr,0777_cl_s01_cr_bird_40_n01818515_10517.JPEG
subject-01,1,779,1.22986912727356,bird,bird,cr,0778_cl_s01_cr_bird_40_n01855672_7647.JPEG
subject-01,1,780,0.682439088821411,cat,cat,cr,0779_cl_s01_cr_cat_40_n02124075_17464.JPEG
subject-01,1,781,1.01904487609863,boat,clock,cr,0780_cl_s01_cr_clock_40_n04548280_4349.JPEG
subject-01,1,782,0.63335108757019,boat,boat,cr,0781_cl_s01_cr_boat_40_n03344393_3355.JPEG
subject-01,1,783,0.786011934280396,airplane,airplane,cr,0782_cl_s01_cr_airplane_40_n02690373_7145.JPEG
subject-01,1,784,0.878444910049438,airplane,airplane,cr,0783_cl_s01_cr_airplane_40_n02690373_7387.JPEG
subject-01,1,785,0.877207040786743,boat,boat,bw,0784_cl_s01_bw_boat_40_n04273569_5901.JPEG
subject-01,1,786,0.867663860321045,airplane,airplane,bw,0785_cl_s01_bw_airplane_40_n02690373_5838.JPEG
subject-01,1,787,0.84454607963562,bird,bird,bw,0786_cl_s01_bw_bird_40_n01829413_1997.JPEG
subject-01,1,788,1.06728887557983,dog,dog,bw,0787_cl_s01_bw_dog_40_n02088466_5521.JPEG
subject-01,1,789,0.689432859420776,boat,boat,bw,0788_cl_s01_bw_boat_40_n02951358_7944.JPEG
subject-01,1,790,0.97219181060791,airplane,airplane,cr,0789_cl_s01_cr_airplane_40_n02690373_1233.JPEG
subject-01,1,791,0.969392061233521,car,car,cr,0790_cl_s01_cr_car_40_n03100240_770.JPEG
subject-01,1,792,0.662945985794067,bottle,bottle,bw,0791_cl_s01_bw_bottle_40_n03983396_3173.JPEG
subject-01,1,793,NaN,na,truck,bw,0792_cl_s01_bw_truck_40_n03417042_3236.JPEG
subject-01,1,794,0.706214904785156,boat,boat,cr,0793_cl_s01_cr_boat_40_n04273569_4324.JPEG
subject-01,1,795,0.766971111297607,bottle,bottle,bw,0794_cl_s01_bw_bottle_40_n03983396_2057.JPEG
subject-01,1,796,0.728371143341064,chair,chair,cr,0795_cl_s01_cr_chair_40_n04429376_16325.JPEG
subject-01,1,797,0.796254873275757,bird,bird,bw,0796_cl_s01_bw_bird_40_n01819313_111.JPEG
subject-01,1,798,1.40853691101074,bear,bear,bw,0797_cl_s01_bw_bear_40_n02134084_7841.JPEG
subject-01,1,799,1.15522408485413,truck,truck,bw,0798_cl_s01_bw_truck_40_n03417042_19585.JPEG
subject-01,1,800,0.662274837493896,clock,clock,cr,0799_cl_s01_cr_clock_40_n02708093_444.JPEG
subject-01,1,801,0.944669008255005,dog,dog,bw,0800_cl_s01_bw_dog_40_n02099601_8005.JPEG
subject-01,1,802,0.73710298538208,cat,elephant,bw,0801_cl_s01_bw_elephant_40_n02504013_1103.JPEG
subject-01,1,803,0.997181177139282,elephant,elephant,bw,0802_cl_s01_bw_elephant_40_n02504458_4711.JPEG
subject-01,1,804,0.865818977355957,truck,truck,cr,0803_cl_s01_cr_truck_40_n04467665_55848.JPEG
subject-01,1,805,0.794519901275635,airplane,airplane,bw,0804_cl_s01_bw_airplane_40_n02690373_6524.JPEG
subject-01,1,806,1.20928907394409,chair,chair,bw,0805_cl_s01_bw_chair_40_n03376595_8140.JPEG
subject-01,1,807,0.845777034759521,bird,bird,cr,0806_cl_s01_cr_bird_40_n01558993_7366.JPEG
subject-01,1,808,1.03629612922668,dog,dog,cr,0807_cl_s01_cr_dog_40_n02093647_4091.JPEG
subject-01,1,809,1.174800157547,elephant,elephant,cr,0808_cl_s01_cr_elephant_40_n02504458_169.JPEG
subject-01,1,810,0.903034210205078,bear,bear,bw,0809_cl_s01_bw_bear_40_n02132136_7647.JPEG
subject-01,1,811,0.941371917724609,cat,cat,bw,0810_cl_s01_bw_cat_40_n02123159_6041.JPEG
subject-01,1,812,0.986180067062378,truck,truck,bw,0811_cl_s01_bw_truck_40_n04467665_22637.JPEG
subject-01,1,813,1.16054201126099,knife,knife,bw,0812_cl_s01_bw_knife_40_n03041632_2630.JPEG
subject-01,1,814,1.15301012992859,keyboard,keyboard,bw,0813_cl_s01_bw_keyboard_40_n04505470_464.JPEG
subject-01,1,815,0.637737989425659,boat,boat,cr,0814_cl_s01_cr_boat_40_n03344393_9732.JPEG
subject-01,1,816,0.604372024536133,oven,oven,cr,0815_cl_s01_cr_oven_40_n04111531_2260.JPEG
subject-01,1,817,1.42689085006714,bear,bear,bw,0816_cl_s01_bw_bear_40_n02134418_2324.JPEG
subject-01,1,818,0.865029096603394,boat,airplane,cr,0817_cl_s01_cr_airplane_40_n02690373_4015.JPEG
subject-01,1,819,0.825801134109497,airplane,airplane,cr,0818_cl_s01_cr_airplane_40_n02690373_713.JPEG
subject-01,1,820,1.20799994468689,knife,knife,bw,0819_cl_s01_bw_knife_40_n03041632_3063.JPEG
subject-01,1,821,0.938422918319702,truck,truck,bw,0820_cl_s01_bw_truck_40_n03796401_8099.JPEG
subject-01,1,822,0.861263990402222,car,car,bw,0821_cl_s01_bw_car_40_n04285008_14334.JPEG
subject-01,1,823,0.805752038955688,elephant,elephant,cr,0822_cl_s01_cr_elephant_40_n02504013_4523.JPEG
subject-01,1,824,0.880887031555176,boat,boat,cr,0823_cl_s01_cr_boat_40_n04273569_17983.JPEG
subject-01,1,825,0.902578115463257,clock,clock,cr,0824_cl_s01_cr_clock_40_n04548280_7153.JPEG
subject-01,1,826,1.50044012069702,bird,knife,bw,0825_cl_s01_bw_knife_40_n03041632_30553.JPEG
subject-01,1,827,1.19421005249023,truck,truck,bw,0826_cl_s01_bw_truck_40_n03796401_713.JPEG
subject-01,1,828,0.954596042633057,elephant,elephant,bw,0827_cl_s01_bw_elephant_40_n02504013_9401.JPEG
subject-01,1,829,0.785247087478638,bear,bear,cr,0828_cl_s01_cr_bear_40_n02132136_8896.JPEG
subject-01,1,830,0.959492921829224,cat,cat,cr,0829_cl_s01_cr_cat_40_n02123045_2968.JPEG
subject-01,1,831,0.866472959518433,chair,chair,bw,0830_cl_s01_bw_chair_40_n04099969_43.JPEG
subject-01,1,832,1.09731316566467,keyboard,keyboard,bw,0831_cl_s01_bw_keyboard_40_n03085013_19916.JPEG
subject-01,1,833,0.981548070907593,cat,dog,bw,0832_cl_s01_bw_dog_40_n02093256_7181.JPEG
subject-01,1,834,0.755981922149658,oven,oven,cr,0833_cl_s01_cr_oven_40_n04111531_15912.JPEG
subject-01,1,835,0.756383895874023,cat,cat,bw,0834_cl_s01_bw_cat_40_n02123597_2219.JPEG
subject-01,1,836,1.14446711540222,bird,cat,cr,0835_cl_s01_cr_cat_40_n02123394_8268.JPEG
subject-01,1,837,0.707273960113525,boat,boat,cr,0836_cl_s01_cr_boat_40_n04273569_13641.JPEG
subject-01,1,838,0.967733860015869,elephant,elephant,cr,0837_cl_s01_cr_elephant_40_n02504013_3141.JPEG
subject-01,1,839,1.05019307136536,boat,boat,bw,0838_cl_s01_bw_boat_40_n04273569_23705.JPEG
subject-01,1,840,1.44110202789307,keyboard,oven,cr,0839_cl_s01_cr_oven_40_n04111531_807.JPEG
subject-01,1,841,0.865965843200684,airplane,airplane,bw,0840_cl_s01_bw_airplane_40_n02690373_7748.JPEG
subject-01,1,842,1.01635479927063,cat,cat,bw,0841_cl_s01_bw_cat_40_n02123597_11981.JPEG
subject-01,1,843,0.908585071563721,bottle,bottle,cr,0842_cl_s01_cr_bottle_40_n03983396_11519.JPEG
subject-01,1,844,0.791444063186646,oven,oven,cr,0843_cl_s01_cr_oven_40_n04111531_5519.JPEG
subject-01,1,845,0.743447065353394,bicycle,bicycle,cr,0844_cl_s01_cr_bicycle_40_n02835271_2068.JPEG
subject-01,1,846,0.798465967178345,cat,dog,bw,0845_cl_s01_bw_dog_40_n02090721_464.JPEG
subject-01,1,847,0.673166990280151,clock,clock,cr,0846_cl_s01_cr_clock_40_n04548280_24041.JPEG
subject-01,1,848,1.02554893493652,airplane,airplane,bw,0847_cl_s01_bw_airplane_40_n02690373_4134.JPEG
subject-01,1,849,1.04805898666382,dog,dog,cr,0848_cl_s01_cr_dog_40_n02102480_5452.JPEG
subject-01,1,850,0.932844877243042,bottle,bottle,cr,0849_cl_s01_cr_bottle_40_n03983396_3702.JPEG
subject-01,1,851,1.50019001960754,boat,bottle,cr,0850_cl_s01_cr_bottle_40_n04579145_7431.JPEG
subject-01,1,852,1.22147083282471,bicycle,bottle,bw,0851_cl_s01_bw_bottle_40_n04557648_20614.JPEG
subject-01,1,853,1.07455492019653,airplane,airplane,cr,0852_cl_s01_cr_airplane_40_n02690373_2059.JPEG
subject-01,1,854,0.934732913970947,car,car,bw,0853_cl_s01_bw_car_40_n03100240_2583.JPEG
subject-01,1,855,0.789384126663208,bottle,bottle,bw,0854_cl_s01_bw_bottle_40_n02823428_5214.JPEG
subject-01,1,856,0.69636607170105,oven,oven,cr,0855_cl_s01_cr_oven_40_n04111531_2296.JPEG
subject-01,1,857,0.754379034042358,boat,boat,cr,0856_cl_s01_cr_boat_40_n02951358_34003.JPEG
subject-01,1,858,0.754935026168823,bicycle,bicycle,bw,0857_cl_s01_bw_bicycle_40_n02835271_4341.JPEG
subject-01,1,859,1.03734397888184,car,bear,cr,0858_cl_s01_cr_bear_40_n02133161_575.JPEG
subject-01,1,860,0.697892189025879,keyboard,keyboard,bw,0859_cl_s01_bw_keyboard_40_n04505470_2907.JPEG
subject-01,1,861,0.766701936721802,cat,cat,bw,0860_cl_s01_bw_cat_40_n02125311_7729.JPEG
subject-01,1,862,0.843203067779541,oven,oven,bw,0861_cl_s01_bw_oven_40_n04111531_20359.JPEG
subject-01,1,863,0.903622150421143,dog,dog,cr,0862_cl_s01_cr_dog_40_n02102318_19745.JPEG
subject-01,1,864,0.786217927932739,bicycle,bicycle,bw,0863_cl_s01_bw_bicycle_40_n03792782_5323.JPEG
subject-01,1,865,0.854819059371948,car,car,bw,0864_cl_s01_bw_car_40_n04285008_11410.JPEG
subject-01,1,866,1.13689017295837,boat,elephant,cr,0865_cl_s01_cr_elephant_40_n02504013_3197.JPEG
subject-01,1,867,1.49788999557495,cat,bear,bw,0866_cl_s01_bw_bear_40_n02133161_13461.JPEG
subject-01,1,868,0.904659986495972,truck,truck,cr,0867_cl_s01_cr_truck_40_n03417042_10283.JPEG
subject-01,1,869,0.910719156265259,bird,bird,cr,0868_cl_s01_cr_bird_40_n01601694_24991.JPEG
subject-01,1,870,0.957149982452393,elephant,elephant,bw,0869_cl_s01_bw_elephant_40_n02504013_5503.JPEG
subject-01,1,871,0.810298919677734,cat,cat,bw,0870_cl_s01_bw_cat_40_n02124075_14242.JPEG
subject-01,1,872,0.794697046279907,car,car,cr,0871_cl_s01_cr_car_40_n04285008_953.JPEG
subject-01,1,873,0.91777515411377,bird,bird,bw,0872_cl_s01_bw_bird_40_n01531178_32624.JPEG
subject-01,1,874,0.670057058334351,oven,oven,cr,0873_cl_s01_cr_oven_40_n04111531_4452.JPEG
subject-01,1,875,0.92219614982605,car,chair,cr,0874_cl_s01_cr_chair_40_n03376595_3038.JPEG
subject-01,1,876,1.49623894691467,chair,chair,cr,0875_cl_s01_cr_chair_40_n04429376_7089.JPEG
subject-01,1,877,1.26529288291931,oven,oven,bw,0876_cl_s01_bw_oven_40_n04111531_8263.JPEG
subject-01,1,878,0.725594043731689,bicycle,bicycle,cr,0877_cl_s01_cr_bicycle_40_n03792782_11115.JPEG
subject-01,1,879,1.03249096870422,bear,bear,bw,0878_cl_s01_bw_bear_40_n02134084_1009.JPEG
subject-01,1,880,1.06883406639099,bear,bear,bw,0879_cl_s01_bw_bear_40_n02134418_4456.JPEG
subject-01,1,881,0.661903142929077,oven,oven,bw,0880_cl_s01_bw_oven_40_n04111531_17922.JPEG
subject-01,1,882,0.776410102844238,car,car,cr,0881_cl_s01_cr_car_40_n02814533_6233.JPEG
subject-01,1,883,1.05870413780212,car,truck,cr,0882_cl_s01_cr_truck_40_n03796401_8864.JPEG
subject-01,1,884,0.8890540599823,car,car,cr,0883_cl_s01_cr_car_40_n02814533_74825.JPEG
subject-01,1,885,0.833559036254883,bottle,bottle,cr,0884_cl_s01_cr_bottle_40_n03937543_1808.JPEG
subject-01,1,886,0.73219895362854,bottle,bottle,bw,0885_cl_s01_bw_bottle_40_n02823428_5265.JPEG
subject-01,1,887,0.724715948104858,truck,truck,cr,0886_cl_s01_cr_truck_40_n04467665_54349.JPEG
subject-01,1,888,0.752709865570068,chair,chair,cr,0887_cl_s01_cr_chair_40_n02791124_4294.JPEG
subject-01,1,889,0.967329025268555,airplane,airplane,cr,0888_cl_s01_cr_airplane_40_n02690373_16250.JPEG
subject-01,1,890,0.751676797866821,boat,boat,cr,0889_cl_s01_cr_boat_40_n03344393_661.JPEG
subject-01,1,891,0.688379049301147,oven,oven,bw,0890_cl_s01_bw_oven_40_n04111531_3575.JPEG
subject-01,1,892,0.75702691078186,bird,bird,bw,0891_cl_s01_bw_bird_40_n01592084_19555.JPEG
subject-01,1,893,1.22360682487488,dog,dog,cr,0892_cl_s01_cr_dog_40_n02089867_2298.JPEG
subject-01,1,894,0.862434148788452,clock,clock,bw,0893_cl_s01_bw_clock_40_n03196217_3689.JPEG
subject-01,1,895,0.801620960235596,knife,knife,bw,0894_cl_s01_bw_knife_40_n03041632_13203.JPEG
subject-01,1,896,0.983876943588257,oven,oven,bw,0895_cl_s01_bw_oven_40_n04111531_12702.JPEG
subject-01,1,897,0.714357137680054,bird,bird,cr,0896_cl_s01_cr_bird_40_n01860187_2825.JPEG
subject-01,1,898,1.13498306274414,bicycle,oven,cr,0897_cl_s01_cr_oven_40_n04111531_8959.JPEG
subject-01,1,899,0.719113111495972,bottle,bottle,bw,0898_cl_s01_bw_bottle_40_n04591713_2680.JPEG
subject-01,1,900,1.14768004417419,dog,bear,cr,0899_cl_s01_cr_bear_40_n02133161_9949.JPEG
subject-01,1,901,0.808164834976196,bird,bird,bw,0900_cl_s01_bw_bird_40_n01616318_26436.JPEG
subject-01,1,902,0.846503019332886,elephant,elephant,cr,0901_cl_s01_cr_elephant_40_n02504013_3485.JPEG
subject-01,1,903,0.859431982040405,airplane,airplane,cr,0902_cl_s01_cr_airplane_40_n02690373_9086.JPEG
subject-01,1,904,0.759335041046143,cat,cat,cr,0903_cl_s01_cr_cat_40_n02123394_2395.JPEG
subject-01,1,905,0.6801598072052,bicycle,bicycle,cr,0904_cl_s01_cr_bicycle_40_n03792782_5466.JPEG
subject-01,1,906,1.00322604179382,truck,truck,bw,0905_cl_s01_bw_truck_40_n03796401_13490.JPEG
subject-01,1,907,0.725641012191772,chair,chair,bw,0906_cl_s01_bw_chair_40_n02791124_2813.JPEG
subject-01,1,908,0.685935020446777,boat,boat,cr,0907_cl_s01_cr_boat_40_n03662601_28640.JPEG
subject-01,1,909,0.822329998016357,elephant,elephant,bw,0908_cl_s01_bw_elephant_40_n02504458_12303.JPEG
subject-01,1,910,0.89123010635376,knife,knife,bw,0909_cl_s01_bw_knife_40_n03041632_20413.JPEG
subject-01,1,911,1.22755408287048,bird,bird,bw,0910_cl_s01_bw_bird_40_n02027492_9786.JPEG
subject-01,1,912,0.780389070510864,cat,cat,cr,0911_cl_s01_cr_cat_40_n02124075_9206.JPEG
subject-01,1,913,0.856797933578491,chair,bicycle,bw,0912_cl_s01_bw_bicycle_40_n02835271_9434.JPEG
subject-01,1,914,0.747159957885742,car,car,cr,0913_cl_s01_cr_car_40_n02814533_33205.JPEG
subject-01,1,915,0.699759960174561,keyboard,keyboard,cr,0914_cl_s01_cr_keyboard_40_n03085013_1797.JPEG
subject-01,1,916,1.36798906326294,keyboard,keyboard,cr,0915_cl_s01_cr_keyboard_40_n03085013_23561.JPEG
subject-01,1,917,1.49999189376831,oven,knife,cr,0916_cl_s01_cr_knife_40_n03041632_6708.JPEG
subject-01,1,918,0.905121088027954,dog,dog,bw,0917_cl_s01_bw_dog_40_n02101556_8410.JPEG
subject-01,1,919,1.0877161026001,bicycle,bicycle,cr,0918_cl_s01_cr_bicycle_40_n02835271_17509.JPEG
subject-01,1,920,1.19413900375366,knife,knife,cr,0919_cl_s01_cr_knife_40_n03041632_32350.JPEG
subject-01,1,921,0.638413190841675,oven,oven,bw,0920_cl_s01_bw_oven_40_n04111531_8193.JPEG
subject-01,1,922,1.10711288452148,dog,bear,bw,0921_cl_s01_bw_bear_40_n02133161_1066.JPEG
subject-01,1,923,0.659268140792847,oven,oven,cr,0922_cl_s01_cr_oven_40_n04111531_20028.JPEG
subject-01,1,924,0.927860975265503,elephant,elephant,cr,0923_cl_s01_cr_elephant_40_n02504458_1179.JPEG
subject-01,1,925,0.680416107177734,oven,oven,cr,0924_cl_s01_cr_oven_40_n04111531_4662.JPEG
subject-01,1,926,0.962619066238403,truck,truck,cr,0925_cl_s01_cr_truck_40_n04467665_67327.JPEG
subject-01,1,927,0.885506868362427,elephant,elephant,cr,0926_cl_s01_cr_elephant_40_n02504013_7026.JPEG
subject-01,1,928,0.699704885482788,bottle,oven,cr,0927_cl_s01_cr_oven_40_n04111531_7355.JPEG
subject-01,1,929,1.39014387130737,bottle,knife,cr,0928_cl_s01_cr_knife_40_n03041632_11475.JPEG
subject-01,1,930,0.912683010101318,dog,dog,cr,0929_cl_s01_cr_dog_40_n02102177_5870.JPEG
subject-01,1,931,1.0411810874939,chair,chair,bw,0930_cl_s01_bw_chair_40_n02791124_1443.JPEG
subject-01,1,932,0.793874979019165,chair,chair,bw,0931_cl_s01_bw_chair_40_n03376595_9695.JPEG
subject-01,1,933,0.894804000854492,truck,truck,cr,0932_cl_s01_cr_truck_40_n03796401_18240.JPEG
subject-01,1,934,0.855265140533447,airplane,airplane,bw,0933_cl_s01_bw_airplane_40_n02690373_17130.JPEG
subject-01,1,935,1.39772081375122,knife,knife,bw,0934_cl_s01_bw_knife_40_n03041632_29037.JPEG
subject-01,1,936,0.998409986495972,keyboard,keyboard,cr,0935_cl_s01_cr_keyboard_40_n04505470_4770.JPEG
subject-01,1,937,0.713014125823975,bird,bird,bw,0936_cl_s01_bw_bird_40_n01833805_28946.JPEG
subject-01,1,938,1.36340284347534,clock,clock,bw,0937_cl_s01_bw_clock_40_n04548280_7813.JPEG
subject-01,1,939,0.617782115936279,boat,boat,cr,0938_cl_s01_cr_boat_40_n04273569_111.JPEG
subject-01,1,940,1.11661911010742,knife,knife,cr,0939_cl_s01_cr_knife_40_n03041632_8618.JPEG
subject-01,1,941,0.836827993392944,keyboard,keyboard,cr,0940_cl_s01_cr_keyboard_40_n03085013_21645.JPEG
subject-01,1,942,0.745373964309692,bicycle,bicycle,bw,0941_cl_s01_bw_bicycle_40_n03792782_24591.JPEG
subject-01,1,943,0.673948049545288,bottle,bottle,bw,0942_cl_s01_bw_bottle_40_n04557648_26823.JPEG
subject-01,1,944,0.742226123809814,airplane,airplane,cr,0943_cl_s01_cr_airplane_40_n02690373_4695.JPEG
subject-01,1,945,1.10865902900696,bicycle,bicycle,cr,0944_cl_s01_cr_bicycle_40_n02835271_4434.JPEG
subject-01,1,946,1.06180095672607,truck,truck,bw,0945_cl_s01_bw_truck_40_n03417042_5659.JPEG
subject-01,1,947,1.03044009208679,dog,dog,bw,0946_cl_s01_bw_dog_40_n02109961_26101.JPEG
subject-01,1,948,0.990415096282959,dog,dog,cr,0947_cl_s01_cr_dog_40_n02105641_4701.JPEG
subject-01,1,949,0.866837978363037,keyboard,keyboard,cr,0948_cl_s01_cr_keyboard_40_n04505470_1518.JPEG
subject-01,1,950,0.94950795173645,dog,cat,cr,0949_cl_s01_cr_cat_40_n02123394_133.JPEG
subject-01,1,951,0.940169095993042,bear,bear,bw,0950_cl_s01_bw_bear_40_n02134084_742.JPEG
subject-01,1,952,0.87084698677063,bear,bear,bw,0951_cl_s01_bw_bear_40_n02132136_4403.JPEG
subject-01,1,953,0.83179783821106,oven,knife,bw,0952_cl_s01_bw_knife_40_n03041632_49363.JPEG
subject-01,1,954,0.629868030548096,truck,truck,bw,0953_cl_s01_bw_truck_40_n03417042_16871.JPEG
subject-01,1,955,1.09833717346191,bear,bear,bw,0954_cl_s01_bw_bear_40_n02133161_1003.JPEG
subject-01,1,956,0.775359869003296,airplane,airplane,cr,0955_cl_s01_cr_airplane_40_n02690373_3859.JPEG
subject-01,1,957,0.833409070968628,airplane,airplane,cr,0956_cl_s01_cr_airplane_40_n02690373_6212.JPEG
subject-01,1,958,1.30217695236206,dog,dog,bw,0957_cl_s01_bw_dog_40_n02110958_5624.JPEG
subject-01,1,959,0.993093013763428,bear,bear,bw,0958_cl_s01_bw_bear_40_n02132136_6890.JPEG
subject-01,1,960,0.730974912643433,airplane,airplane,cr,0959_cl_s01_cr_airplane_40_n02690373_2648.JPEG
subject-01,1,961,0.821655035018921,oven,oven,bw,0960_cl_s01_bw_oven_40_n04111531_7189.JPEG
subject-01,1,962,0.96609902381897,keyboard,keyboard,cr,0961_cl_s01_cr_keyboard_40_n03085013_18625.JPEG
subject-01,1,963,0.758875131607056,truck,truck,bw,0962_cl_s01_bw_truck_40_n04467665_31376.JPEG
subject-01,1,964,0.932764053344727,bicycle,bicycle,cr,0963_cl_s01_cr_bicycle_40_n02835271_10377.JPEG
subject-01,1,965,1.50031781196594,car,car,bw,0964_cl_s01_bw_car_40_n02814533_95054.JPEG
subject-01,1,966,0.813600063323975,chair,chair,bw,0965_cl_s01_bw_chair_40_n04099969_9847.JPEG
subject-01,1,967,0.835808038711548,truck,truck,cr,0966_cl_s01_cr_truck_40_n04467665_9123.JPEG
subject-01,1,968,1.01040005683899,bird,bird,bw,0967_cl_s01_bw_bird_40_n01614925_267.JPEG
subject-01,1,969,0.802879810333252,bicycle,bicycle,bw,0968_cl_s01_bw_bicycle_40_n02835271_5602.JPEG
subject-01,1,970,0.861266136169434,dog,dog,bw,0969_cl_s01_bw_dog_40_n02095570_6717.JPEG
subject-01,1,971,0.81414008140564,knife,knife,bw,0970_cl_s01_bw_knife_40_n03041632_131.JPEG
subject-01,1,972,1.47437191009521,bird,bird,cr,0971_cl_s01_cr_bird_40_n01797886_6946.JPEG
subject-01,1,973,0.958917140960693,boat,boat,cr,0972_cl_s01_cr_boat_40_n02951358_30622.JPEG
subject-01,1,974,0.758055925369263,keyboard,keyboard,bw,0973_cl_s01_bw_keyboard_40_n04505470_7312.JPEG
subject-01,1,975,0.794523000717163,car,car,bw,0974_cl_s01_bw_car_40_n03100240_19223.JPEG
subject-01,1,976,0.74666690826416,bottle,bottle,cr,0975_cl_s01_cr_bottle_40_n03937543_2469.JPEG
subject-01,1,977,0.745280027389526,bird,bird,cr,0976_cl_s01_cr_bird_40_n01833805_8584.JPEG
subject-01,1,978,1.02984690666199,oven,oven,bw,0977_cl_s01_bw_oven_40_n04111531_9762.JPEG
subject-01,1,979,0.920632839202881,chair,chair,bw,0978_cl_s01_bw_chair_40_n04429376_12337.JPEG
subject-01,1,980,0.911072969436646,bear,bear,bw,0979_cl_s01_bw_bear_40_n02134084_32585.JPEG
subject-01,1,981,1.19562101364136,truck,truck,cr,0980_cl_s01_cr_truck_40_n03417042_16038.JPEG
subject-01,1,982,0.740031003952026,oven,oven,cr,0981_cl_s01_cr_oven_40_n04111531_605.JPEG
subject-01,1,983,0.724565029144287,bicycle,bicycle,bw,0982_cl_s01_bw_bicycle_40_n03792782_551.JPEG
subject-01,1,984,0.653227806091309,cat,cat,cr,0983_cl_s01_cr_cat_40_n02123159_10952.JPEG
subject-01,1,985,0.783754110336304,bottle,bottle,cr,0984_cl_s01_cr_bottle_40_n04560804_10184.JPEG
subject-01,1,986,0.912849903106689,bird,bird,bw,0985_cl_s01_bw_bird_40_n01819313_146.JPEG
subject-01,1,987,0.651244878768921,chair,chair,cr,0986_cl_s01_cr_chair_40_n04099969_7998.JPEG
subject-01,1,988,0.917595863342285,keyboard,chair,cr,0987_cl_s01_cr_chair_40_n03376595_9813.JPEG
subject-01,1,989,0.701596021652222,clock,clock,cr,0988_cl_s01_cr_clock_40_n04548280_8795.JPEG
subject-01,1,990,0.684167861938477,chair,chair,cr,0989_cl_s01_cr_chair_40_n04429376_7181.JPEG
subject-01,1,991,0.720441102981567,clock,clock,bw,0990_cl_s01_bw_clock_40_n03196217_5365.JPEG
subject-01,1,992,0.927704095840454,chair,chair,bw,0991_cl_s01_bw_chair_40_n03376595_1766.JPEG
subject-01,1,993,1.24784898757935,chair,chair,cr,0992_cl_s01_cr_chair_40_n04429376_20906.JPEG
subject-01,1,994,0.678411960601807,bird,bird,bw,0993_cl_s01_bw_bird_40_n01817953_5039.JPEG
subject-01,1,995,0.984841823577881,bird,bird,bw,0994_cl_s01_bw_bird_40_n02002724_1459.JPEG
subject-01,1,996,1.05103421211243,bird,bird,cr,0995_cl_s01_cr_bird_40_n02009912_24304.JPEG
subject-01,1,997,1.09539413452148,bottle,bottle,cr,0996_cl_s01_cr_bottle_40_n04591713_5559.JPEG
subject-01,1,998,0.780265092849731,cat,cat,cr,0997_cl_s01_cr_cat_40_n02125311_20921.JPEG
subject-01,1,999,0.632675886154175,car,car,bw,0998_cl_s01_bw_car_40_n02814533_51154.JPEG
subject-01,1,1000,0.755131006240845,airplane,airplane,cr,0999_cl_s01_cr_airplane_40_n02690373_2293.JPEG
subject-01,1,1001,1.29787397384644,truck,truck,bw,1000_cl_s01_bw_truck_40_n03417042_10043.JPEG
subject-01,1,1002,1.01228594779968,keyboard,keyboard,cr,1001_cl_s01_cr_keyboard_40_n03085013_17455.JPEG
subject-01,1,1003,1.24848318099976,bottle,bottle,bw,1002_cl_s01_bw_bottle_40_n04557648_2523.JPEG
subject-01,1,1004,1.11734008789062,truck,truck,bw,1003_cl_s01_bw_truck_40_n03417042_265.JPEG
subject-01,1,1005,1.50033712387085,car,car,bw,1004_cl_s01_bw_car_40_n03100240_23849.JPEG
subject-01,1,1006,0.938076972961426,airplane,airplane,bw,1005_cl_s01_bw_airplane_40_n02690373_6836.JPEG
subject-01,1,1007,1.07490706443787,clock,clock,bw,1006_cl_s01_bw_clock_40_n03196217_2414.JPEG
subject-01,1,1008,0.73475193977356,cat,cat,cr,1007_cl_s01_cr_cat_40_n02124075_11039.JPEG
subject-01,1,1009,0.863624095916748,bottle,bottle,bw,1008_cl_s01_bw_bottle_40_n02823428_3505.JPEG
subject-01,1,1010,0.916346788406372,bottle,bottle,bw,1009_cl_s01_bw_bottle_40_n03937543_4340.JPEG
subject-01,1,1011,0.738998174667358,elephant,elephant,bw,1010_cl_s01_bw_elephant_40_n02504458_3485.JPEG
subject-01,1,1012,0.859678983688354,keyboard,keyboard,cr,1011_cl_s01_cr_keyboard_40_n03085013_21325.JPEG
subject-01,1,1013,0.827881097793579,bicycle,bicycle,bw,1012_cl_s01_bw_bicycle_40_n03792782_47426.JPEG
subject-01,1,1014,0.903303146362305,boat,boat,bw,1013_cl_s01_bw_boat_40_n04273569_517.JPEG
subject-01,1,1015,0.957056999206543,bear,cat,bw,1014_cl_s01_bw_cat_40_n02123159_2107.JPEG
subject-01,1,1016,0.815359115600586,bird,bird,cr,1015_cl_s01_cr_bird_40_n01828970_23168.JPEG
subject-01,1,1017,0.967884063720703,cat,keyboard,bw,1016_cl_s01_bw_keyboard_40_n03085013_3910.JPEG
subject-01,1,1018,0.752635955810547,dog,dog,cr,1017_cl_s01_cr_dog_40_n02097130_5045.JPEG
subject-01,1,1019,0.69734787940979,bicycle,bicycle,cr,1018_cl_s01_cr_bicycle_40_n03792782_51414.JPEG
subject-01,1,1020,0.741564035415649,bicycle,bicycle,cr,1019_cl_s01_cr_bicycle_40_n02835271_8502.JPEG
subject-01,1,1021,0.940248966217041,bottle,bottle,bw,1020_cl_s01_bw_bottle_40_n04579145_1829.JPEG
subject-01,1,1022,0.96875,elephant,elephant,bw,1021_cl_s01_bw_elephant_40_n02504013_53.JPEG
subject-01,1,1023,1.00766682624817,dog,dog,cr,1022_cl_s01_cr_dog_40_n02113624_9189.JPEG
subject-01,1,1024,0.697715997695923,cat,cat,bw,1023_cl_s01_bw_cat_40_n02124075_12369.JPEG
subject-01,1,1025,0.716222047805786,truck,truck,cr,1024_cl_s01_cr_truck_40_n03417042_5752.JPEG
subject-01,1,1026,0.677059888839722,clock,clock,bw,1025_cl_s01_bw_clock_40_n02708093_3691.JPEG
subject-01,1,1027,0.805426120758057,truck,truck,bw,1026_cl_s01_bw_truck_40_n04467665_18234.JPEG
subject-01,1,1028,1.00436186790466,car,car,cr,1027_cl_s01_cr_car_40_n02814533_54845.JPEG
subject-01,1,1029,1.09455609321594,truck,truck,cr,1028_cl_s01_cr_truck_40_n03796401_9384.JPEG
subject-01,1,1030,0.716976165771484,keyboard,keyboard,cr,1029_cl_s01_cr_keyboard_40_n03085013_5622.JPEG
subject-01,1,1031,0.723434925079346,keyboard,keyboard,cr,1030_cl_s01_cr_keyboard_40_n03085013_20078.JPEG
subject-01,1,1032,0.744694948196411,elephant,elephant,bw,1031_cl_s01_bw_elephant_40_n02504013_1953.JPEG
subject-01,1,1033,1.46453189849854,cat,cat,cr,1032_cl_s01_cr_cat_40_n02123045_4089.JPEG
subject-01,1,1034,0.733829975128174,elephant,elephant,bw,1033_cl_s01_bw_elephant_40_n02504458_6930.JPEG
subject-01,1,1035,0.617965936660767,oven,oven,cr,1034_cl_s01_cr_oven_40_n04111531_6080.JPEG
subject-01,1,1036,0.824373960494995,elephant,elephant,cr,1035_cl_s01_cr_elephant_40_n02504013_14918.JPEG
subject-01,1,1037,0.607197999954224,car,car,cr,1036_cl_s01_cr_car_40_n02814533_55399.JPEG
subject-01,1,1038,0.867743968963623,keyboard,keyboard,bw,1037_cl_s01_bw_keyboard_40_n03085013_23800.JPEG
subject-01,1,1039,0.774357080459595,knife,knife,bw,1038_cl_s01_bw_knife_40_n03041632_36215.JPEG
subject-01,1,1040,0.986971855163574,chair,chair,bw,1039_cl_s01_bw_chair_40_n04429376_27560.JPEG
subject-01,1,1041,0.663185119628906,clock,clock,bw,1040_cl_s01_bw_clock_40_n04548280_4354.JPEG
subject-01,1,1042,0.970194101333618,truck,truck,bw,1041_cl_s01_bw_truck_40_n03417042_29855.JPEG
subject-01,1,1043,0.614714860916138,oven,oven,bw,1042_cl_s01_bw_oven_40_n04111531_14559.JPEG
subject-01,1,1044,1.08890414237976,truck,truck,bw,1043_cl_s01_bw_truck_40_n04467665_9459.JPEG
subject-01,1,1045,0.811735868453979,chair,chair,cr,1044_cl_s01_cr_chair_40_n02791124_359.JPEG
subject-01,1,1046,1.09418606758118,bird,bird,bw,1045_cl_s01_bw_bird_40_n02025239_2481.JPEG
subject-01,1,1047,0.700309038162231,bicycle,bicycle,cr,1046_cl_s01_cr_bicycle_40_n03792782_10281.JPEG
subject-01,1,1048,0.799360990524292,airplane,airplane,bw,1047_cl_s01_bw_airplane_40_n02690373_5909.JPEG
subject-01,1,1049,0.775609970092773,boat,boat,cr,1048_cl_s01_cr_boat_40_n03344393_5859.JPEG
subject-01,1,1050,0.866507053375244,cat,cat,bw,1049_cl_s01_bw_cat_40_n02123045_3568.JPEG
subject-01,1,1051,1.0027539730072,knife,keyboard,cr,1050_cl_s01_cr_keyboard_40_n03085013_7576.JPEG
subject-01,1,1052,0.77164888381958,clock,clock,cr,1051_cl_s01_cr_clock_40_n04548280_2177.JPEG
subject-01,1,1053,1.09152793884277,dog,dog,cr,1052_cl_s01_cr_dog_40_n02093991_434.JPEG
subject-01,1,1054,1.12846899032593,bottle,bottle,bw,1053_cl_s01_bw_bottle_40_n03983396_3817.JPEG
subject-01,1,1055,0.743016958236694,bicycle,bicycle,bw,1054_cl_s01_bw_bicycle_40_n03792782_5426.JPEG
subject-01,1,1056,1.07958388328552,cat,cat,bw,1055_cl_s01_bw_cat_40_n02125311_46330.JPEG
subject-01,1,1057,0.832112073898315,keyboard,keyboard,bw,1056_cl_s01_bw_keyboard_40_n04505470_4477.JPEG
subject-01,1,1058,1.15226101875305,truck,truck,cr,1057_cl_s01_cr_truck_40_n03417042_9580.JPEG
subject-01,1,1059,0.737112998962402,keyboard,keyboard,cr,1058_cl_s01_cr_keyboard_40_n03085013_24001.JPEG
subject-01,1,1060,0.711309909820557,clock,clock,cr,1059_cl_s01_cr_clock_40_n02708093_6610.JPEG
