subj,session,trial,rt,object_response,category,condition,imagename
subject-03,3,1,0.8182330132,oven,oven,bw,0000_cl_s03_bw_oven_40_n04111531_2872.JPEG
subject-03,3,2,0.6567239761,bird,bird,cr,0001_cl_s03_cr_bird_40_n02027492_2004.JPEG
subject-03,3,3,1.1013422012,cat,dog,cr,0002_cl_s03_cr_dog_40_n02102040_4103.JPEG
subject-03,3,4,0.8234930038,bottle,bottle,bw,0003_cl_s03_bw_bottle_40_n02823428_5024.JPEG
subject-03,3,5,0.8844149113,truck,truck,bw,0004_cl_s03_bw_truck_40_n03417042_3101.JPEG
subject-03,3,6,0.7057049274,bottle,bottle,cr,0005_cl_s03_cr_bottle_40_n04591713_2024.JPEG
subject-03,3,7,0.6956379414,boat,bear,bw,0006_cl_s03_bw_bear_40_n02134084_7169.JPEG
subject-03,3,8,0.8018121719,keyboard,keyboard,cr,0007_cl_s03_cr_keyboard_40_n03085013_22013.JPEG
subject-03,3,9,0.6083340645,boat,boat,bw,0008_cl_s03_bw_boat_40_n04612504_7566.JPEG
subject-03,3,10,0.7137560844,car,car,bw,0009_cl_s03_bw_car_40_n02814533_28856.JPEG
subject-03,3,11,1.3256089687,dog,cat,cr,0010_cl_s03_cr_cat_40_n02123045_13884.JPEG
subject-03,3,12,0.8465878963,elephant,elephant,cr,0011_cl_s03_cr_elephant_40_n02504458_1998.JPEG
subject-03,3,13,1.0588870049,dog,dog,bw,0012_cl_s03_bw_dog_40_n02088238_6532.JPEG
subject-03,3,14,0.9047439098,bottle,bottle,cr,0013_cl_s03_cr_bottle_40_n04591713_595.JPEG
subject-03,3,15,0.6866989136,keyboard,keyboard,bw,0014_cl_s03_bw_keyboard_40_n03085013_3231.JPEG
subject-03,3,16,0.8606510162,airplane,airplane,bw,0015_cl_s03_bw_airplane_40_n02690373_9535.JPEG
subject-03,3,17,1.2831370831,bear,bear,bw,0016_cl_s03_bw_bear_40_n02132136_1029.JPEG
subject-03,3,18,0.8055949211,clock,clock,bw,0017_cl_s03_bw_clock_40_n04548280_5013.JPEG
subject-03,3,19,0.8027970791,airplane,airplane,cr,0018_cl_s03_cr_airplane_40_n02690373_349.JPEG
subject-03,3,20,0.809212923,cat,cat,cr,0019_cl_s03_cr_cat_40_n02124075_20957.JPEG
subject-03,3,21,0.6755800247,oven,oven,cr,0020_cl_s03_cr_oven_40_n04111531_10011.JPEG
subject-03,3,22,0.6976220608,clock,clock,bw,0021_cl_s03_bw_clock_40_n02708093_3695.JPEG
subject-03,3,23,0.7879619598,clock,clock,bw,0022_cl_s03_bw_clock_40_n04548280_5752.JPEG
subject-03,3,24,0.8337409496,chair,chair,cr,0023_cl_s03_cr_chair_40_n03376595_7285.JPEG
subject-03,3,25,0.6295051575,airplane,airplane,cr,0024_cl_s03_cr_airplane_40_n02690373_18693.JPEG
subject-03,3,26,0.7595899105,clock,clock,bw,0025_cl_s03_bw_clock_40_n03196217_5910.JPEG
subject-03,3,27,1.0034689903,truck,truck,bw,0026_cl_s03_bw_truck_40_n04467665_70939.JPEG
subject-03,3,28,1.0178267956,elephant,elephant,bw,0027_cl_s03_bw_elephant_40_n02504013_4646.JPEG
subject-03,3,29,0.715998888,bear,bear,cr,0028_cl_s03_cr_bear_40_n02132136_3169.JPEG
subject-03,3,30,1.5000550747,keyboard,keyboard,bw,0029_cl_s03_bw_keyboard_40_n03085013_805.JPEG
subject-03,3,31,0.7575380802,oven,oven,cr,0030_cl_s03_cr_oven_40_n04111531_6993.JPEG
subject-03,3,32,0.8503770828,chair,chair,bw,0031_cl_s03_bw_chair_40_n03376595_7247.JPEG
subject-03,3,33,0.8629329205,car,car,bw,0032_cl_s03_bw_car_40_n04285008_4935.JPEG
subject-03,3,34,0.6765599251,clock,clock,bw,0033_cl_s03_bw_clock_40_n04548280_3038.JPEG
subject-03,3,35,0.5832190514,boat,boat,bw,0034_cl_s03_bw_boat_40_n04273569_15916.JPEG
subject-03,3,36,0.7429301739,chair,chair,bw,0035_cl_s03_bw_chair_40_n03376595_3863.JPEG
subject-03,3,37,0.7400691509,keyboard,keyboard,cr,0036_cl_s03_cr_keyboard_40_n03085013_19436.JPEG
subject-03,3,38,1.0394020081,truck,truck,bw,0037_cl_s03_bw_truck_40_n03417042_3669.JPEG
subject-03,3,39,1.0591800213,dog,dog,cr,0038_cl_s03_cr_dog_40_n02097130_9583.JPEG
subject-03,3,40,0.8347988129,bicycle,bicycle,bw,0039_cl_s03_bw_bicycle_40_n02835271_13311.JPEG
subject-03,3,41,0.9575819969,bear,cat,bw,0040_cl_s03_bw_cat_40_n02125311_34035.JPEG
subject-03,3,42,0.6563930511,oven,oven,bw,0041_cl_s03_bw_oven_40_n04111531_17922.JPEG
subject-03,3,43,0.6780040264,keyboard,keyboard,bw,0042_cl_s03_bw_keyboard_40_n04505470_4513.JPEG
subject-03,3,44,0.943696022,bird,bird,bw,0043_cl_s03_bw_bird_40_n01855672_6577.JPEG
subject-03,3,45,0.9735898972,bear,bicycle,cr,0044_cl_s03_cr_bicycle_40_n02835271_6921.JPEG
subject-03,3,46,0.8046200275,bird,bird,cr,0045_cl_s03_cr_bird_40_n01860187_6891.JPEG
subject-03,3,47,1.4006738663,dog,dog,cr,0046_cl_s03_cr_dog_40_n02102480_5031.JPEG
subject-03,3,48,0.7081708908,boat,boat,cr,0047_cl_s03_cr_boat_40_n04273569_10962.JPEG
subject-03,3,49,0.9686090946,keyboard,keyboard,bw,0048_cl_s03_bw_keyboard_40_n03085013_19096.JPEG
subject-03,3,50,0.9135799408,airplane,airplane,bw,0049_cl_s03_bw_airplane_40_n02690373_20074.JPEG
subject-03,3,51,0.688999176,truck,truck,cr,0050_cl_s03_cr_truck_40_n04467665_30226.JPEG
subject-03,3,52,0.9415669441,elephant,elephant,cr,0051_cl_s03_cr_elephant_40_n02504013_19694.JPEG
subject-03,3,53,1.1147367954,knife,clock,cr,0052_cl_s03_cr_clock_40_n03196217_2919.JPEG
subject-03,3,54,1.1514530182,knife,knife,bw,0053_cl_s03_bw_knife_40_n03041632_18959.JPEG
subject-03,3,55,NaN,na,bicycle,bw,0054_cl_s03_bw_bicycle_40_n02835271_12097.JPEG
subject-03,3,56,0.7218570709,airplane,airplane,cr,0055_cl_s03_cr_airplane_40_n02690373_4728.JPEG
subject-03,3,57,1.24949193,bear,dog,bw,0056_cl_s03_bw_dog_40_n02106662_116690.JPEG
subject-03,3,58,0.8474349976,bicycle,bicycle,cr,0057_cl_s03_cr_bicycle_40_n02835271_15038.JPEG
subject-03,3,59,0.7471549511,chair,chair,cr,0058_cl_s03_cr_chair_40_n04099969_20900.JPEG
subject-03,3,60,0.7426049709,oven,oven,bw,0059_cl_s03_bw_oven_40_n04111531_2575.JPEG
subject-03,3,61,0.7810161114,truck,truck,bw,0060_cl_s03_bw_truck_40_n04467665_30208.JPEG
subject-03,3,62,1.122781992,dog,dog,bw,0061_cl_s03_bw_dog_40_n02113712_1933.JPEG
subject-03,3,63,0.9910731316,knife,knife,bw,0062_cl_s03_bw_knife_40_n03041632_424.JPEG
subject-03,3,64,0.9132270813,dog,dog,bw,0063_cl_s03_bw_dog_40_n02086079_59775.JPEG
subject-03,3,65,0.9791350365,bird,keyboard,bw,0064_cl_s03_bw_keyboard_40_n03085013_24294.JPEG
subject-03,3,66,0.8304748535,bear,bear,cr,0065_cl_s03_cr_bear_40_n02134418_6083.JPEG
subject-03,3,67,0.9749748707,dog,dog,bw,0066_cl_s03_bw_dog_40_n02092339_6138.JPEG
subject-03,3,68,0.7645509243,chair,chair,cr,0067_cl_s03_cr_chair_40_n04099969_16549.JPEG
subject-03,3,69,0.9413979053,elephant,elephant,cr,0068_cl_s03_cr_elephant_40_n02504013_10462.JPEG
subject-03,3,70,0.9554450512,truck,truck,bw,0069_cl_s03_bw_truck_40_n03796401_197.JPEG
subject-03,3,71,0.8913497925,bicycle,bicycle,cr,0070_cl_s03_cr_bicycle_40_n02835271_276.JPEG
subject-03,3,72,0.7351958752,oven,oven,cr,0071_cl_s03_cr_oven_40_n04111531_2371.JPEG
subject-03,3,73,0.6949958801,bicycle,bicycle,cr,0072_cl_s03_cr_bicycle_40_n03792782_33855.JPEG
subject-03,3,74,0.9526400566,knife,knife,cr,0073_cl_s03_cr_knife_40_n03041632_15444.JPEG
subject-03,3,75,0.9343891144,car,car,bw,0074_cl_s03_bw_car_40_n04285008_1912.JPEG
subject-03,3,76,0.7867767811,airplane,airplane,bw,0075_cl_s03_bw_airplane_40_n02690373_9059.JPEG
subject-03,3,77,0.8302938938,chair,chair,bw,0076_cl_s03_bw_chair_40_n04099969_7714.JPEG
subject-03,3,78,0.7291660309,bird,bird,bw,0077_cl_s03_bw_bird_40_n01622779_7006.JPEG
subject-03,3,79,0.9094779491,clock,keyboard,bw,0078_cl_s03_bw_keyboard_40_n04505470_2608.JPEG
subject-03,3,80,0.7992639542,chair,chair,bw,0079_cl_s03_bw_chair_40_n03376595_5074.JPEG
subject-03,3,81,0.9819841385,keyboard,keyboard,cr,0080_cl_s03_cr_keyboard_40_n03085013_6038.JPEG
subject-03,3,82,0.766906023,bird,bird,bw,0081_cl_s03_bw_bird_40_n01558993_6027.JPEG
subject-03,3,83,0.8261370659,knife,knife,cr,0082_cl_s03_cr_knife_40_n03041632_25022.JPEG
subject-03,3,84,1.5000109673,elephant,elephant,cr,0083_cl_s03_cr_elephant_40_n02504013_5027.JPEG
subject-03,3,85,0.830534935,airplane,airplane,cr,0084_cl_s03_cr_airplane_40_n02690373_8740.JPEG
subject-03,3,86,0.8740429878,bicycle,bicycle,bw,0085_cl_s03_bw_bicycle_40_n03792782_20028.JPEG
subject-03,3,87,1.0185890198,boat,truck,cr,0086_cl_s03_cr_truck_40_n04467665_67165.JPEG
subject-03,3,88,0.8384749889,bird,bird,bw,0087_cl_s03_bw_bird_40_n01560419_3427.JPEG
subject-03,3,89,1.0524299145,chair,chair,cr,0088_cl_s03_cr_chair_40_n03376595_4469.JPEG
subject-03,3,90,0.9969739914,knife,knife,cr,0089_cl_s03_cr_knife_40_n03041632_8051.JPEG
subject-03,3,91,0.8642349243,clock,clock,cr,0090_cl_s03_cr_clock_40_n03196217_585.JPEG
subject-03,3,92,0.8625409603,airplane,airplane,cr,0091_cl_s03_cr_airplane_40_n02690373_8789.JPEG
subject-03,3,93,0.7457518578,chair,chair,cr,0092_cl_s03_cr_chair_40_n03376595_8302.JPEG
subject-03,3,94,0.8680310249,clock,clock,bw,0093_cl_s03_bw_clock_40_n02708093_3759.JPEG
subject-03,3,95,1.0589618683,chair,knife,bw,0094_cl_s03_bw_knife_40_n03041632_13612.JPEG
subject-03,3,96,0.6892819405,oven,oven,cr,0095_cl_s03_cr_oven_40_n04111531_1229.JPEG
subject-03,3,97,0.9106538296,dog,cat,cr,0096_cl_s03_cr_cat_40_n02123394_1602.JPEG
subject-03,3,98,0.7944221497,bird,bird,bw,0097_cl_s03_bw_bird_40_n02018207_2627.JPEG
subject-03,3,99,1.0710818768,cat,cat,cr,0098_cl_s03_cr_cat_40_n02123159_3330.JPEG
subject-03,3,100,0.723279953,oven,keyboard,bw,0099_cl_s03_bw_keyboard_40_n03085013_21266.JPEG
subject-03,3,101,1.3837590218,bottle,bottle,cr,0100_cl_s03_cr_bottle_40_n03937543_443.JPEG
subject-03,3,102,0.8060269356,car,car,bw,0101_cl_s03_bw_car_40_n03100240_19014.JPEG
subject-03,3,103,0.9507761002,knife,knife,cr,0102_cl_s03_cr_knife_40_n03041632_11797.JPEG
subject-03,3,104,0.9160540104,elephant,elephant,cr,0103_cl_s03_cr_elephant_40_n02504013_8385.JPEG
subject-03,3,105,0.8043301105,airplane,airplane,cr,0104_cl_s03_cr_airplane_40_n02690373_6856.JPEG
subject-03,3,106,1.2878210545,knife,knife,bw,0105_cl_s03_bw_knife_40_n03041632_24100.JPEG
subject-03,3,107,0.8507509232,bear,bear,cr,0106_cl_s03_cr_bear_40_n02134418_4041.JPEG
subject-03,3,108,0.7937719822,bicycle,bicycle,cr,0107_cl_s03_cr_bicycle_40_n03792782_52601.JPEG
subject-03,3,109,0.8129479885,boat,boat,cr,0108_cl_s03_cr_boat_40_n02951358_32429.JPEG
subject-03,3,110,0.7810997963,bear,bear,cr,0109_cl_s03_cr_bear_40_n02133161_1498.JPEG
subject-03,3,111,1.0392310619,chair,chair,cr,0110_cl_s03_cr_chair_40_n02791124_4538.JPEG
subject-03,3,112,0.8070781231,keyboard,keyboard,cr,0111_cl_s03_cr_keyboard_40_n03085013_21025.JPEG
subject-03,3,113,0.8136320114,bottle,bottle,bw,0112_cl_s03_bw_bottle_40_n04591713_1976.JPEG
subject-03,3,114,0.8823430538,boat,boat,cr,0113_cl_s03_cr_boat_40_n04612504_30742.JPEG
subject-03,3,115,0.9807310104,truck,truck,cr,0114_cl_s03_cr_truck_40_n03796401_17504.JPEG
subject-03,3,116,0.7728068829,airplane,airplane,bw,0115_cl_s03_bw_airplane_40_n02690373_8141.JPEG
subject-03,3,117,0.8629369736,keyboard,keyboard,cr,0116_cl_s03_cr_keyboard_40_n04505470_3947.JPEG
subject-03,3,118,1.1746861935,bicycle,bicycle,cr,0117_cl_s03_cr_bicycle_40_n03792782_47774.JPEG
subject-03,3,119,1.2226669788,truck,truck,cr,0118_cl_s03_cr_truck_40_n03417042_12133.JPEG
subject-03,3,120,0.860599041,bear,bear,bw,0119_cl_s03_bw_bear_40_n02133161_3233.JPEG
subject-03,3,121,0.9970860481,bear,bear,cr,0120_cl_s03_cr_bear_40_n02132136_1934.JPEG
subject-03,3,122,0.7197310925,boat,boat,cr,0121_cl_s03_cr_boat_40_n04273569_12756.JPEG
subject-03,3,123,0.7118721008,keyboard,keyboard,cr,0122_cl_s03_cr_keyboard_40_n04505470_6272.JPEG
subject-03,3,124,0.9699559212,clock,clock,cr,0123_cl_s03_cr_clock_40_n02708093_1513.JPEG
subject-03,3,125,1.1597521305,keyboard,keyboard,cr,0124_cl_s03_cr_keyboard_40_n04505470_4486.JPEG
subject-03,3,126,0.790378809,chair,chair,bw,0125_cl_s03_bw_chair_40_n04099969_2502.JPEG
subject-03,3,127,0.9426391125,airplane,airplane,bw,0126_cl_s03_bw_airplane_40_n02690373_5003.JPEG
subject-03,3,128,0.719517231,boat,boat,cr,0127_cl_s03_cr_boat_40_n03344393_5625.JPEG
subject-03,3,129,0.9544711113,clock,clock,cr,0128_cl_s03_cr_clock_40_n04548280_3997.JPEG
subject-03,3,130,0.7233278751,airplane,airplane,cr,0129_cl_s03_cr_airplane_40_n02690373_7944.JPEG
subject-03,3,131,0.9459819794,airplane,airplane,bw,0130_cl_s03_bw_airplane_40_n02690373_7686.JPEG
subject-03,3,132,0.9192371368,truck,truck,bw,0131_cl_s03_bw_truck_40_n03417042_29083.JPEG
subject-03,3,133,0.9713380337,bottle,bottle,cr,0132_cl_s03_cr_bottle_40_n04557648_23050.JPEG
subject-03,3,134,0.7454469204,elephant,elephant,bw,0133_cl_s03_bw_elephant_40_n02504013_8007.JPEG
subject-03,3,135,0.9672908783,keyboard,keyboard,cr,0134_cl_s03_cr_keyboard_40_n03085013_24577.JPEG
subject-03,3,136,0.9331459999,chair,chair,bw,0135_cl_s03_bw_chair_40_n02791124_5893.JPEG
subject-03,3,137,0.884210825,boat,boat,cr,0136_cl_s03_cr_boat_40_n02951358_15424.JPEG
subject-03,3,138,0.7376179695,bear,bear,bw,0137_cl_s03_bw_bear_40_n02132136_8046.JPEG
subject-03,3,139,1.0809600353,bird,bird,cr,0138_cl_s03_cr_bird_40_n02056570_9553.JPEG
subject-03,3,140,0.878485918,oven,oven,cr,0139_cl_s03_cr_oven_40_n04111531_23340.JPEG
subject-03,3,141,0.9314091206,car,car,bw,0140_cl_s03_bw_car_40_n02814533_3573.JPEG
subject-03,3,142,1.3455550671,knife,bottle,cr,0141_cl_s03_cr_bottle_40_n04560804_15225.JPEG
subject-03,3,143,1.0277781487,airplane,airplane,bw,0142_cl_s03_bw_airplane_40_n02690373_2700.JPEG
subject-03,3,144,0.7630228996,cat,cat,bw,0143_cl_s03_bw_cat_40_n02123394_1139.JPEG
subject-03,3,145,0.7466909885,clock,clock,cr,0144_cl_s03_cr_clock_40_n02708093_3006.JPEG
subject-03,3,146,0.5990679264,bird,bird,cr,0145_cl_s03_cr_bird_40_n02018795_7163.JPEG
subject-03,3,147,0.9942450523,car,car,cr,0146_cl_s03_cr_car_40_n02814533_75974.JPEG
subject-03,3,148,1.092468977,knife,knife,cr,0147_cl_s03_cr_knife_40_n03041632_23087.JPEG
subject-03,3,149,0.8769981861,bicycle,bicycle,bw,0148_cl_s03_bw_bicycle_40_n02835271_2505.JPEG
subject-03,3,150,0.7755019665,bottle,bottle,bw,0149_cl_s03_bw_bottle_40_n02823428_6123.JPEG
subject-03,3,151,1.4633080959,elephant,bear,cr,0150_cl_s03_cr_bear_40_n02132136_7206.JPEG
subject-03,3,152,0.6846909523,oven,oven,bw,0151_cl_s03_bw_oven_40_n04111531_20429.JPEG
subject-03,3,153,0.8371360302,car,car,cr,0152_cl_s03_cr_car_40_n02814533_27150.JPEG
subject-03,3,154,0.896791935,truck,truck,bw,0153_cl_s03_bw_truck_40_n04467665_20700.JPEG
subject-03,3,155,1.0012140274,dog,dog,cr,0154_cl_s03_cr_dog_40_n02099712_5781.JPEG
subject-03,3,156,0.96636796,truck,truck,bw,0155_cl_s03_bw_truck_40_n03417042_5110.JPEG
subject-03,3,157,0.8796908855,knife,knife,cr,0156_cl_s03_cr_knife_40_n03041632_3210.JPEG
subject-03,3,158,1.0698959827,boat,bird,bw,0157_cl_s03_bw_bird_40_n02011460_15966.JPEG
subject-03,3,159,1.1225149632,dog,dog,cr,0158_cl_s03_cr_dog_40_n02098286_5684.JPEG
subject-03,3,160,0.8247928619,chair,chair,cr,0159_cl_s03_cr_chair_40_n04099969_14851.JPEG
subject-03,3,161,0.7686071396,oven,oven,cr,0160_cl_s03_cr_oven_40_n04111531_9490.JPEG
subject-03,3,162,1.1259491444,bear,bear,bw,0161_cl_s03_bw_bear_40_n02132136_31133.JPEG
subject-03,3,163,0.7477779388,boat,boat,bw,0162_cl_s03_bw_boat_40_n04273569_4380.JPEG
subject-03,3,164,0.9302060604,airplane,airplane,cr,0163_cl_s03_cr_airplane_40_n02690373_101.JPEG
subject-03,3,165,1.0585820675,cat,cat,cr,0164_cl_s03_cr_cat_40_n02124075_7488.JPEG
subject-03,3,166,0.8106608391,car,car,cr,0165_cl_s03_cr_car_40_n03100240_7567.JPEG
subject-03,3,167,0.9540808201,bear,bear,cr,0166_cl_s03_cr_bear_40_n02134084_2004.JPEG
subject-03,3,168,0.8031640053,elephant,elephant,cr,0167_cl_s03_cr_elephant_40_n02504458_5176.JPEG
subject-03,3,169,0.8519289494,chair,chair,cr,0168_cl_s03_cr_chair_40_n03376595_6837.JPEG
subject-03,3,170,0.7966589928,clock,clock,bw,0169_cl_s03_bw_clock_40_n02708093_3598.JPEG
subject-03,3,171,1.0190780163,airplane,airplane,bw,0170_cl_s03_bw_airplane_40_n02690373_9346.JPEG
subject-03,3,172,0.955065012,car,car,cr,0171_cl_s03_cr_car_40_n02814533_82925.JPEG
subject-03,3,173,0.5991001129,oven,oven,bw,0172_cl_s03_bw_oven_40_n04111531_49.JPEG
subject-03,3,174,0.8052279949,cat,cat,cr,0173_cl_s03_cr_cat_40_n02123159_6505.JPEG
subject-03,3,175,0.8710241318,bear,bear,bw,0174_cl_s03_bw_bear_40_n02134084_2076.JPEG
subject-03,3,176,1.1916828156,bottle,knife,bw,0175_cl_s03_bw_knife_40_n03041632_20662.JPEG
subject-03,3,177,0.7052140236,oven,oven,cr,0176_cl_s03_cr_oven_40_n04111531_1778.JPEG
subject-03,3,178,0.8193259239,airplane,airplane,bw,0177_cl_s03_bw_airplane_40_n02690373_19104.JPEG
subject-03,3,179,0.8090128899,keyboard,keyboard,cr,0178_cl_s03_cr_keyboard_40_n03085013_1483.JPEG
subject-03,3,180,0.9880559444,knife,knife,cr,0179_cl_s03_cr_knife_40_n03041632_31909.JPEG
subject-03,3,181,0.948251009,bear,bear,bw,0180_cl_s03_bw_bear_40_n02134418_3846.JPEG
subject-03,3,182,0.6915659904,boat,boat,cr,0181_cl_s03_cr_boat_40_n03662601_18953.JPEG
subject-03,3,183,1.5000700951,dog,dog,cr,0182_cl_s03_cr_dog_40_n02097130_1834.JPEG
subject-03,3,184,1.018944025,dog,dog,bw,0183_cl_s03_bw_dog_40_n02095889_14455.JPEG
subject-03,3,185,0.9792609215,dog,dog,bw,0184_cl_s03_bw_dog_40_n02094433_8389.JPEG
subject-03,3,186,0.7529160976,oven,oven,cr,0185_cl_s03_cr_oven_40_n04111531_5950.JPEG
subject-03,3,187,0.8205149174,bicycle,bicycle,bw,0186_cl_s03_bw_bicycle_40_n03792782_6982.JPEG
subject-03,3,188,0.9032640457,clock,clock,cr,0187_cl_s03_cr_clock_40_n04548280_7490.JPEG
subject-03,3,189,1.2641088963,dog,dog,bw,0188_cl_s03_bw_dog_40_n02091467_11966.JPEG
subject-03,3,190,0.7997479439,cat,cat,cr,0189_cl_s03_cr_cat_40_n02124075_3533.JPEG
subject-03,3,191,1.0113558769,dog,dog,cr,0190_cl_s03_cr_dog_40_n02088632_2814.JPEG
subject-03,3,192,0.8490738869,car,car,cr,0191_cl_s03_cr_car_40_n03100240_2277.JPEG
subject-03,3,193,1.1064422131,cat,dog,bw,0192_cl_s03_bw_dog_40_n02096585_1203.JPEG
subject-03,3,194,0.6993792057,cat,cat,cr,0193_cl_s03_cr_cat_40_n02123597_6560.JPEG
subject-03,3,195,0.8192520142,elephant,elephant,cr,0194_cl_s03_cr_elephant_40_n02504013_6660.JPEG
subject-03,3,196,1.2450630665,boat,truck,bw,0195_cl_s03_bw_truck_40_n03796401_3148.JPEG
subject-03,3,197,0.7615070343,bicycle,bicycle,bw,0196_cl_s03_bw_bicycle_40_n02835271_1706.JPEG
subject-03,3,198,0.7731170654,chair,chair,bw,0197_cl_s03_bw_chair_40_n04099969_7664.JPEG
subject-03,3,199,0.8013021946,keyboard,keyboard,cr,0198_cl_s03_cr_keyboard_40_n03085013_6828.JPEG
subject-03,3,200,0.761685133,bicycle,bicycle,bw,0199_cl_s03_bw_bicycle_40_n02835271_8426.JPEG
subject-03,3,201,0.8301489353,clock,clock,cr,0200_cl_s03_cr_clock_40_n03196217_21.JPEG
subject-03,3,202,0.7194678783,bird,bird,bw,0201_cl_s03_bw_bird_40_n01828970_7806.JPEG
subject-03,3,203,0.9859640598,cat,cat,bw,0202_cl_s03_bw_cat_40_n02123045_10847.JPEG
subject-03,3,204,1.0540790558,dog,dog,cr,0203_cl_s03_cr_dog_40_n02106382_14862.JPEG
subject-03,3,205,0.9441430569,cat,cat,bw,0204_cl_s03_bw_cat_40_n02123394_267.JPEG
subject-03,3,206,0.8189508915,oven,oven,cr,0205_cl_s03_cr_oven_40_n04111531_14611.JPEG
subject-03,3,207,0.7245180607,bird,bird,cr,0206_cl_s03_cr_bird_40_n01532829_22520.JPEG
subject-03,3,208,1.0364601612,dog,bear,cr,0207_cl_s03_cr_bear_40_n02134418_6123.JPEG
subject-03,3,209,0.8100168705,chair,chair,cr,0208_cl_s03_cr_chair_40_n04429376_8395.JPEG
subject-03,3,210,0.6863079071,keyboard,keyboard,bw,0209_cl_s03_bw_keyboard_40_n03085013_24144.JPEG
subject-03,3,211,0.9359459877,elephant,elephant,bw,0210_cl_s03_bw_elephant_40_n02504013_1251.JPEG
subject-03,3,212,NaN,na,bear,bw,0211_cl_s03_bw_bear_40_n02132136_1901.JPEG
subject-03,3,213,0.9111230373,dog,dog,cr,0212_cl_s03_cr_dog_40_n02110806_16707.JPEG
subject-03,3,214,0.7596039772,oven,knife,cr,0213_cl_s03_cr_knife_40_n03041632_32177.JPEG
subject-03,3,215,0.9362437725,elephant,elephant,bw,0214_cl_s03_bw_elephant_40_n02504458_7269.JPEG
subject-03,3,216,0.7269170284,airplane,airplane,bw,0215_cl_s03_bw_airplane_40_n02690373_17063.JPEG
subject-03,3,217,0.8089640141,truck,truck,bw,0216_cl_s03_bw_truck_40_n03417042_6581.JPEG
subject-03,3,218,0.8238999844,bicycle,bicycle,bw,0217_cl_s03_bw_bicycle_40_n03792782_13552.JPEG
subject-03,3,219,0.90523386,chair,chair,cr,0218_cl_s03_cr_chair_40_n04429376_5067.JPEG
subject-03,3,220,0.8629970551,car,car,cr,0219_cl_s03_cr_car_40_n02814533_2307.JPEG
subject-03,3,221,1.0532758236,car,dog,bw,0220_cl_s03_bw_dog_40_n02111500_4666.JPEG
subject-03,3,222,1.2515590191,boat,elephant,bw,0221_cl_s03_bw_elephant_40_n02504013_1673.JPEG
subject-03,3,223,1.3168408871,clock,clock,cr,0222_cl_s03_cr_clock_40_n04548280_282.JPEG
subject-03,3,224,NaN,na,bear,cr,0223_cl_s03_cr_bear_40_n02133161_15472.JPEG
subject-03,3,225,0.9925880432,bicycle,bottle,bw,0224_cl_s03_bw_bottle_40_n04557648_3352.JPEG
subject-03,3,226,0.744699955,bottle,bottle,bw,0225_cl_s03_bw_bottle_40_n03937543_8875.JPEG
subject-03,3,227,0.6513500214,truck,truck,bw,0226_cl_s03_bw_truck_40_n03796401_19153.JPEG
subject-03,3,228,0.7570979595,keyboard,keyboard,cr,0227_cl_s03_cr_keyboard_40_n04505470_2115.JPEG
subject-03,3,229,0.7546820641,oven,bottle,bw,0228_cl_s03_bw_bottle_40_n03937543_4642.JPEG
subject-03,3,230,0.628015995,car,car,cr,0229_cl_s03_cr_car_40_n03100240_735.JPEG
subject-03,3,231,0.8073148727,bottle,bottle,cr,0230_cl_s03_cr_bottle_40_n04557648_413.JPEG
subject-03,3,232,0.621199131,clock,clock,bw,0231_cl_s03_bw_clock_40_n02708093_6822.JPEG
subject-03,3,233,0.9031400681,bird,bird,cr,0232_cl_s03_cr_bird_40_n02025239_22501.JPEG
subject-03,3,234,0.8840658665,truck,truck,cr,0233_cl_s03_cr_truck_40_n03417042_11.JPEG
subject-03,3,235,0.9591400623,keyboard,keyboard,bw,0234_cl_s03_bw_keyboard_40_n03085013_23693.JPEG
subject-03,3,236,0.6648380756,boat,boat,bw,0235_cl_s03_bw_boat_40_n03662601_17275.JPEG
subject-03,3,237,0.716809988,cat,cat,cr,0236_cl_s03_cr_cat_40_n02123045_964.JPEG
subject-03,3,238,0.8377218246,elephant,elephant,bw,0237_cl_s03_bw_elephant_40_n02504458_4226.JPEG
subject-03,3,239,1.0280470848,cat,cat,cr,0238_cl_s03_cr_cat_40_n02123045_9341.JPEG
subject-03,3,240,0.8932230473,oven,oven,bw,0239_cl_s03_bw_oven_40_n04111531_2006.JPEG
subject-03,3,241,0.9744319916,oven,oven,cr,0240_cl_s03_cr_oven_40_n04111531_15649.JPEG
subject-03,3,242,0.6978778839,airplane,airplane,cr,0241_cl_s03_cr_airplane_40_n02690373_4202.JPEG
subject-03,3,243,0.9175970554,keyboard,keyboard,bw,0242_cl_s03_bw_keyboard_40_n03085013_19316.JPEG
subject-03,3,244,0.9689769745,chair,chair,bw,0243_cl_s03_bw_chair_40_n04099969_5868.JPEG
subject-03,3,245,0.8349840641,airplane,airplane,bw,0244_cl_s03_bw_airplane_40_n02690373_2569.JPEG
subject-03,3,246,0.6167390347,oven,oven,bw,0245_cl_s03_bw_oven_40_n04111531_2331.JPEG
subject-03,3,247,0.923003912,cat,bear,bw,0246_cl_s03_bw_bear_40_n02132136_9815.JPEG
subject-03,3,248,1.0262448788,boat,boat,bw,0247_cl_s03_bw_boat_40_n03662601_20887.JPEG
subject-03,3,249,0.6646049023,keyboard,keyboard,bw,0248_cl_s03_bw_keyboard_40_n04505470_1043.JPEG
subject-03,3,250,1.1138839722,car,car,bw,0249_cl_s03_bw_car_40_n02814533_29484.JPEG
subject-03,3,251,0.9882571697,bird,bird,bw,0250_cl_s03_bw_bird_40_n01558993_3768.JPEG
subject-03,3,252,1.1224610806,chair,chair,cr,0251_cl_s03_cr_chair_40_n03376595_4309.JPEG
subject-03,3,253,1.1019420624,knife,knife,cr,0252_cl_s03_cr_knife_40_n03041632_24114.JPEG
subject-03,3,254,0.9232990742,truck,truck,cr,0253_cl_s03_cr_truck_40_n03417042_23440.JPEG
subject-03,3,255,NaN,na,truck,bw,0254_cl_s03_bw_truck_40_n03796401_6681.JPEG
subject-03,3,256,0.7169289589,oven,keyboard,cr,0255_cl_s03_cr_keyboard_40_n04505470_6684.JPEG
subject-03,3,257,0.7156040668,oven,oven,bw,0256_cl_s03_bw_oven_40_n04111531_13691.JPEG
subject-03,3,258,0.929956913,elephant,elephant,bw,0257_cl_s03_bw_elephant_40_n02504458_8621.JPEG
subject-03,3,259,0.6907539368,bird,bird,cr,0258_cl_s03_cr_bird_40_n01530575_4260.JPEG
subject-03,3,260,1.078109026,bear,bear,cr,0259_cl_s03_cr_bear_40_n02134084_34728.JPEG
subject-03,3,261,0.7764480114,bear,bear,cr,0260_cl_s03_cr_bear_40_n02134418_703.JPEG
subject-03,3,262,0.5854380131,oven,oven,bw,0261_cl_s03_bw_oven_40_n04111531_4749.JPEG
subject-03,3,263,1.4652750492,dog,dog,cr,0262_cl_s03_cr_dog_40_n02102318_11816.JPEG
subject-03,3,264,0.65696311,clock,clock,bw,0263_cl_s03_bw_clock_40_n03196217_6984.JPEG
subject-03,3,265,0.6180210114,oven,oven,cr,0264_cl_s03_cr_oven_40_n04111531_1054.JPEG
subject-03,3,266,0.716753006,boat,boat,bw,0265_cl_s03_bw_boat_40_n02951358_4391.JPEG
subject-03,3,267,0.9152569771,bird,bird,bw,0266_cl_s03_bw_bird_40_n02007558_6954.JPEG
subject-03,3,268,1.2651481628,dog,knife,cr,0267_cl_s03_cr_knife_40_n03041632_32896.JPEG
subject-03,3,269,0.9799540043,elephant,elephant,bw,0268_cl_s03_bw_elephant_40_n02504013_3661.JPEG
subject-03,3,270,0.9774198532,knife,knife,cr,0269_cl_s03_cr_knife_40_n03041632_26340.JPEG
subject-03,3,271,NaN,na,bear,cr,0270_cl_s03_cr_bear_40_n02134084_316.JPEG
subject-03,3,272,0.7817189693,bird,bird,cr,0271_cl_s03_cr_bird_40_n01560419_7488.JPEG
subject-03,3,273,0.7260861397,clock,truck,bw,0272_cl_s03_bw_truck_40_n03417042_5807.JPEG
subject-03,3,274,0.7907240391,bird,bird,bw,0273_cl_s03_bw_bird_40_n02002724_3275.JPEG
subject-03,3,275,0.8947398663,bicycle,bicycle,cr,0274_cl_s03_cr_bicycle_40_n02835271_8081.JPEG
subject-03,3,276,0.8171610832,clock,clock,bw,0275_cl_s03_bw_clock_40_n04548280_6394.JPEG
subject-03,3,277,1.0994098186,truck,truck,bw,0276_cl_s03_bw_truck_40_n04467665_5665.JPEG
subject-03,3,278,0.6892240047,clock,clock,bw,0277_cl_s03_bw_clock_40_n04548280_7159.JPEG
subject-03,3,279,0.7037849426,bicycle,bicycle,bw,0278_cl_s03_bw_bicycle_40_n03792782_33636.JPEG
subject-03,3,280,NaN,na,bear,cr,0279_cl_s03_cr_bear_40_n02134418_2343.JPEG
subject-03,3,281,0.9920771122,car,car,bw,0280_cl_s03_bw_car_40_n03100240_1066.JPEG
subject-03,3,282,0.8495290279,car,car,cr,0281_cl_s03_cr_car_40_n03100240_7300.JPEG
subject-03,3,283,0.7940278053,elephant,elephant,cr,0282_cl_s03_cr_elephant_40_n02504013_3569.JPEG
subject-03,3,284,0.8293511868,bottle,bottle,bw,0283_cl_s03_bw_bottle_40_n04557648_6076.JPEG
subject-03,3,285,0.8042800426,knife,knife,cr,0284_cl_s03_cr_knife_40_n03041632_10796.JPEG
subject-03,3,286,0.7185378075,boat,boat,cr,0285_cl_s03_cr_boat_40_n02951358_34051.JPEG
subject-03,3,287,1.209084034,boat,boat,bw,0286_cl_s03_bw_boat_40_n03662601_10228.JPEG
subject-03,3,288,0.66928792,bird,bird,cr,0287_cl_s03_cr_bird_40_n01558993_8777.JPEG
subject-03,3,289,1.0679700375,elephant,elephant,bw,0288_cl_s03_bw_elephant_40_n02504458_11511.JPEG
subject-03,3,290,0.59050107,car,car,cr,0289_cl_s03_cr_car_40_n02814533_8128.JPEG
subject-03,3,291,0.7782669067,bicycle,bicycle,bw,0290_cl_s03_bw_bicycle_40_n03792782_5317.JPEG
subject-03,3,292,1.2517380714,bear,cat,bw,0291_cl_s03_bw_cat_40_n02124075_12620.JPEG
subject-03,3,293,0.9179508686,truck,truck,bw,0292_cl_s03_bw_truck_40_n03417042_18554.JPEG
subject-03,3,294,0.8483428955,bicycle,bicycle,cr,0293_cl_s03_cr_bicycle_40_n03792782_3467.JPEG
subject-03,3,295,0.9221060276,car,car,cr,0294_cl_s03_cr_car_40_n02814533_83068.JPEG
subject-03,3,296,0.9582479,elephant,elephant,cr,0295_cl_s03_cr_elephant_40_n02504013_474.JPEG
subject-03,3,297,1.1080720425,elephant,elephant,bw,0296_cl_s03_bw_elephant_40_n02504458_3059.JPEG
subject-03,3,298,0.7441039085,knife,knife,cr,0297_cl_s03_cr_knife_40_n03041632_105581.JPEG
subject-03,3,299,0.9974350929,elephant,elephant,bw,0298_cl_s03_bw_elephant_40_n02504458_1575.JPEG
subject-03,3,300,0.7199409008,cat,cat,bw,0299_cl_s03_bw_cat_40_n02123394_2159.JPEG
subject-03,3,301,0.8393781185,chair,chair,cr,0300_cl_s03_cr_chair_40_n04429376_42324.JPEG
subject-03,3,302,0.7374670506,elephant,elephant,cr,0301_cl_s03_cr_elephant_40_n02504458_3140.JPEG
subject-03,3,303,0.8272519112,truck,truck,bw,0302_cl_s03_bw_truck_40_n03796401_1023.JPEG
subject-03,3,304,0.901132822,bird,bird,cr,0303_cl_s03_cr_bird_40_n01537544_2772.JPEG
subject-03,3,305,1.0969700813,bear,bear,bw,0304_cl_s03_bw_bear_40_n02132136_19488.JPEG
subject-03,3,306,0.7647941113,keyboard,keyboard,cr,0305_cl_s03_cr_keyboard_40_n03085013_22929.JPEG
subject-03,3,307,0.8226799965,bottle,keyboard,cr,0306_cl_s03_cr_keyboard_40_n04505470_1187.JPEG
subject-03,3,308,0.8539750576,elephant,elephant,bw,0307_cl_s03_bw_elephant_40_n02504458_11596.JPEG
subject-03,3,309,0.6436498165,bear,bear,cr,0308_cl_s03_cr_bear_40_n02133161_2137.JPEG
subject-03,3,310,0.9884600639,knife,knife,bw,0309_cl_s03_bw_knife_40_n03041632_12748.JPEG
subject-03,3,311,0.7033650875,bird,bird,bw,0310_cl_s03_bw_bird_40_n01860187_8561.JPEG
subject-03,3,312,1.3097500801,dog,dog,bw,0311_cl_s03_bw_dog_40_n02096585_1813.JPEG
subject-03,3,313,1.1291980743,car,car,cr,0312_cl_s03_cr_car_40_n03100240_15503.JPEG
subject-03,3,314,0.8062069416,elephant,elephant,cr,0313_cl_s03_cr_elephant_40_n02504013_7035.JPEG
subject-03,3,315,1.500385046,elephant,elephant,cr,0314_cl_s03_cr_elephant_40_n02504013_4187.JPEG
subject-03,3,316,0.6393699646,bicycle,bicycle,cr,0315_cl_s03_cr_bicycle_40_n03792782_692.JPEG
subject-03,3,317,0.7449810505,elephant,bear,bw,0316_cl_s03_bw_bear_40_n02132136_11107.JPEG
subject-03,3,318,0.6946840286,car,car,cr,0317_cl_s03_cr_car_40_n04285008_5562.JPEG
subject-03,3,319,1.1391839981,knife,knife,cr,0318_cl_s03_cr_knife_40_n03041632_4808.JPEG
subject-03,3,320,NaN,na,keyboard,bw,0319_cl_s03_bw_keyboard_40_n03085013_2255.JPEG
subject-03,3,321,0.7105150223,cat,cat,cr,0320_cl_s03_cr_cat_40_n02124075_8754.JPEG
subject-03,3,322,0.7006819248,boat,boat,cr,0321_cl_s03_cr_boat_40_n03344393_2433.JPEG
subject-03,3,323,0.8070659637,clock,clock,cr,0322_cl_s03_cr_clock_40_n03196217_5252.JPEG
subject-03,3,324,0.8963959217,oven,oven,bw,0323_cl_s03_bw_oven_40_n04111531_10375.JPEG
subject-03,3,325,0.816724062,boat,truck,bw,0324_cl_s03_bw_truck_40_n03417042_3351.JPEG
subject-03,3,326,1.1986830235,dog,elephant,cr,0325_cl_s03_cr_elephant_40_n02504013_3087.JPEG
subject-03,3,327,0.7104730606,boat,boat,bw,0326_cl_s03_bw_boat_40_n04273569_14634.JPEG
subject-03,3,328,0.9032039642,bird,bird,bw,0327_cl_s03_bw_bird_40_n01843383_7232.JPEG
subject-03,3,329,0.7723109722,bicycle,bicycle,bw,0328_cl_s03_bw_bicycle_40_n03792782_41394.JPEG
subject-03,3,330,0.9977898598,airplane,airplane,bw,0329_cl_s03_bw_airplane_40_n02690373_6090.JPEG
subject-03,3,331,0.773914814,bird,bird,cr,0330_cl_s03_cr_bird_40_n01532829_2119.JPEG
subject-03,3,332,0.8231978416,knife,knife,cr,0331_cl_s03_cr_knife_40_n03041632_14224.JPEG
subject-03,3,333,1.143078804,oven,knife,bw,0332_cl_s03_bw_knife_40_n03041632_2468.JPEG
subject-03,3,334,0.829210043,truck,truck,bw,0333_cl_s03_bw_truck_40_n04467665_2790.JPEG
subject-03,3,335,0.9026939869,cat,cat,cr,0334_cl_s03_cr_cat_40_n02124075_9716.JPEG
subject-03,3,336,0.7540547848,keyboard,keyboard,bw,0335_cl_s03_bw_keyboard_40_n04505470_9788.JPEG
subject-03,3,337,0.8826580048,bear,bear,bw,0336_cl_s03_bw_bear_40_n02133161_9371.JPEG
subject-03,3,338,1.0025269985,truck,truck,bw,0337_cl_s03_bw_truck_40_n04467665_68331.JPEG
subject-03,3,339,0.9009737968,cat,oven,cr,0338_cl_s03_cr_oven_40_n04111531_704.JPEG
subject-03,3,340,1.1527438164,bottle,bottle,cr,0339_cl_s03_cr_bottle_40_n02823428_633.JPEG
subject-03,3,341,1.0053451061,cat,cat,bw,0340_cl_s03_bw_cat_40_n02123394_8240.JPEG
subject-03,3,342,0.978828907,truck,truck,cr,0341_cl_s03_cr_truck_40_n03417042_12560.JPEG
subject-03,3,343,0.7690529823,airplane,airplane,cr,0342_cl_s03_cr_airplane_40_n02690373_1161.JPEG
subject-03,3,344,1.5004479885,bear,bear,cr,0343_cl_s03_cr_bear_40_n02134084_19407.JPEG
subject-03,3,345,0.9573030472,truck,truck,cr,0344_cl_s03_cr_truck_40_n03796401_14381.JPEG
subject-03,3,346,0.8856129646,elephant,elephant,cr,0345_cl_s03_cr_elephant_40_n02504013_6731.JPEG
subject-03,3,347,0.767553091,truck,truck,bw,0346_cl_s03_bw_truck_40_n03796401_16586.JPEG
subject-03,3,348,0.7600722313,clock,clock,cr,0347_cl_s03_cr_clock_40_n03196217_5478.JPEG
subject-03,3,349,1.2234649658,elephant,elephant,cr,0348_cl_s03_cr_elephant_40_n02504013_9099.JPEG
subject-03,3,350,0.791893959,bicycle,bicycle,bw,0349_cl_s03_bw_bicycle_40_n03792782_12074.JPEG
subject-03,3,351,0.7150740623,car,car,bw,0350_cl_s03_bw_car_40_n04285008_3367.JPEG
subject-03,3,352,0.8746581078,boat,boat,bw,0351_cl_s03_bw_boat_40_n03662601_18100.JPEG
subject-03,3,353,0.611011982,oven,oven,bw,0352_cl_s03_bw_oven_40_n04111531_9113.JPEG
subject-03,3,354,0.7564198971,clock,clock,bw,0353_cl_s03_bw_clock_40_n04548280_2327.JPEG
subject-03,3,355,0.7867219448,boat,boat,cr,0354_cl_s03_cr_boat_40_n03662601_7324.JPEG
subject-03,3,356,1.1981949806,bottle,bottle,bw,0355_cl_s03_bw_bottle_40_n03937543_2077.JPEG
subject-03,3,357,0.7261691093,airplane,airplane,bw,0356_cl_s03_bw_airplane_40_n02690373_8527.JPEG
subject-03,3,358,0.6777799129,cat,cat,bw,0357_cl_s03_bw_cat_40_n02123597_7289.JPEG
subject-03,3,359,0.6926510334,boat,boat,bw,0358_cl_s03_bw_boat_40_n02951358_33108.JPEG
subject-03,3,360,0.6885349751,keyboard,keyboard,bw,0359_cl_s03_bw_keyboard_40_n04505470_4832.JPEG
subject-03,3,361,0.6403510571,bird,bird,bw,0360_cl_s03_bw_bird_40_n01530575_5882.JPEG
subject-03,3,362,0.8467149734,boat,boat,bw,0361_cl_s03_bw_boat_40_n03662601_6549.JPEG
subject-03,3,363,1.1359360218,dog,dog,bw,0362_cl_s03_bw_dog_40_n02091635_721.JPEG
subject-03,3,364,0.9329710007,elephant,elephant,cr,0363_cl_s03_cr_elephant_40_n02504458_1844.JPEG
subject-03,3,365,1.0845689774,cat,bear,bw,0364_cl_s03_bw_bear_40_n02132136_4956.JPEG
subject-03,3,366,0.7134969234,bear,bear,bw,0365_cl_s03_bw_bear_40_n02134418_6089.JPEG
subject-03,3,367,0.7787790298,airplane,airplane,cr,0366_cl_s03_cr_airplane_40_n02690373_19152.JPEG
subject-03,3,368,0.9257948399,bicycle,bicycle,bw,0367_cl_s03_bw_bicycle_40_n02835271_15196.JPEG
subject-03,3,369,0.7836079597,car,car,cr,0368_cl_s03_cr_car_40_n04285008_1313.JPEG
subject-03,3,370,0.9523239136,dog,dog,bw,0369_cl_s03_bw_dog_40_n02110185_9882.JPEG
subject-03,3,371,0.6726222038,keyboard,keyboard,bw,0370_cl_s03_bw_keyboard_40_n03085013_23718.JPEG
subject-03,3,372,0.8053421974,bottle,bottle,cr,0371_cl_s03_cr_bottle_40_n04591713_5290.JPEG
subject-03,3,373,0.8737568855,truck,truck,bw,0372_cl_s03_bw_truck_40_n03417042_265.JPEG
subject-03,3,374,0.8560090065,cat,truck,bw,0373_cl_s03_bw_truck_40_n03796401_7507.JPEG
subject-03,3,375,0.6752820015,keyboard,keyboard,cr,0374_cl_s03_cr_keyboard_40_n03085013_17762.JPEG
subject-03,3,376,0.6953117847,oven,oven,cr,0375_cl_s03_cr_oven_40_n04111531_13247.JPEG
subject-03,3,377,0.7474131584,airplane,airplane,cr,0376_cl_s03_cr_airplane_40_n02690373_7748.JPEG
subject-03,3,378,1.1842930317,oven,truck,bw,0377_cl_s03_bw_truck_40_n04467665_19574.JPEG
subject-03,3,379,0.9118459225,dog,dog,bw,0378_cl_s03_bw_dog_40_n02108551_4738.JPEG
subject-03,3,380,1.101583004,dog,dog,cr,0379_cl_s03_cr_dog_40_n02105855_9345.JPEG
subject-03,3,381,0.7294380665,elephant,elephant,cr,0380_cl_s03_cr_elephant_40_n02504013_1916.JPEG
subject-03,3,382,0.772660017,clock,clock,cr,0381_cl_s03_cr_clock_40_n04548280_7221.JPEG
subject-03,3,383,1.2698411942,cat,elephant,bw,0382_cl_s03_bw_elephant_40_n02504013_7010.JPEG
subject-03,3,384,1.3982391357,clock,clock,bw,0383_cl_s03_bw_clock_40_n03196217_6090.JPEG
subject-03,3,385,1.3340339661,dog,cat,bw,0384_cl_s03_bw_cat_40_n02125311_34567.JPEG
subject-03,3,386,1.0375928879,car,car,cr,0385_cl_s03_cr_car_40_n03100240_18019.JPEG
subject-03,3,387,0.9022610188,bicycle,bicycle,cr,0386_cl_s03_cr_bicycle_40_n02835271_20714.JPEG
subject-03,3,388,0.7545530796,car,car,bw,0387_cl_s03_bw_car_40_n03100240_15156.JPEG
subject-03,3,389,1.1070449352,oven,bottle,bw,0388_cl_s03_bw_bottle_40_n03937543_534.JPEG
subject-03,3,390,0.7058720589,airplane,airplane,bw,0389_cl_s03_bw_airplane_40_n02690373_3334.JPEG
subject-03,3,391,0.7961781025,bottle,bottle,bw,0390_cl_s03_bw_bottle_40_n04579145_7608.JPEG
subject-03,3,392,0.9298400879,bear,bear,bw,0391_cl_s03_bw_bear_40_n02134418_11580.JPEG
subject-03,3,393,0.8196620941,airplane,airplane,cr,0392_cl_s03_cr_airplane_40_n02690373_7053.JPEG
subject-03,3,394,0.9427778721,bottle,bottle,bw,0393_cl_s03_bw_bottle_40_n03937543_10543.JPEG
subject-03,3,395,0.7542340755,airplane,airplane,bw,0394_cl_s03_bw_airplane_40_n02690373_1171.JPEG
subject-03,3,396,1.0604138374,dog,dog,bw,0395_cl_s03_bw_dog_40_n02091831_11276.JPEG
subject-03,3,397,0.742513895,chair,chair,cr,0396_cl_s03_cr_chair_40_n04099969_13056.JPEG
subject-03,3,398,0.9708390236,dog,dog,cr,0397_cl_s03_cr_dog_40_n02090721_1456.JPEG
subject-03,3,399,0.8691020012,airplane,airplane,bw,0398_cl_s03_bw_airplane_40_n02690373_1044.JPEG
subject-03,3,400,0.8947360516,car,car,cr,0399_cl_s03_cr_car_40_n04285008_88.JPEG
subject-03,3,401,0.8466000557,bottle,bottle,cr,0400_cl_s03_cr_bottle_40_n04560804_12278.JPEG
subject-03,3,402,0.7582199574,bird,bird,cr,0401_cl_s03_cr_bird_40_n01795545_6069.JPEG
subject-03,3,403,0.7647969723,cat,cat,cr,0402_cl_s03_cr_cat_40_n02123159_2684.JPEG
subject-03,3,404,0.6549990177,keyboard,keyboard,cr,0403_cl_s03_cr_keyboard_40_n03085013_6978.JPEG
subject-03,3,405,1.2588200569,cat,bear,bw,0404_cl_s03_bw_bear_40_n02134418_2923.JPEG
subject-03,3,406,0.6493070126,clock,clock,cr,0405_cl_s03_cr_clock_40_n02708093_386.JPEG
subject-03,3,407,1.4155330658,dog,dog,cr,0406_cl_s03_cr_dog_40_n02100877_20916.JPEG
subject-03,3,408,0.7122759819,keyboard,keyboard,bw,0407_cl_s03_bw_keyboard_40_n04505470_4521.JPEG
subject-03,3,409,1.0414140224,knife,knife,bw,0408_cl_s03_bw_knife_40_n03041632_29684.JPEG
subject-03,3,410,1.285394907,cat,oven,cr,0409_cl_s03_cr_oven_40_n04111531_2752.JPEG
subject-03,3,411,0.8982708454,chair,chair,cr,0410_cl_s03_cr_chair_40_n02791124_2470.JPEG
subject-03,3,412,1.0668640137,bottle,bottle,bw,0411_cl_s03_bw_bottle_40_n04557648_496.JPEG
subject-03,3,413,NaN,na,chair,bw,0412_cl_s03_bw_chair_40_n04099969_5876.JPEG
subject-03,3,414,0.917755127,elephant,elephant,bw,0413_cl_s03_bw_elephant_40_n02504458_4014.JPEG
subject-03,3,415,0.7513039112,chair,chair,bw,0414_cl_s03_bw_chair_40_n02791124_755.JPEG
subject-03,3,416,0.8951940536,chair,chair,bw,0415_cl_s03_bw_chair_40_n03376595_10370.JPEG
subject-03,3,417,0.7178020477,keyboard,keyboard,bw,0416_cl_s03_bw_keyboard_40_n04505470_8603.JPEG
subject-03,3,418,0.8378179073,truck,truck,cr,0417_cl_s03_cr_truck_40_n04467665_1077.JPEG
subject-03,3,419,0.6737380028,elephant,elephant,bw,0418_cl_s03_bw_elephant_40_n02504458_3464.JPEG
subject-03,3,420,0.9618411064,dog,dog,cr,0419_cl_s03_cr_dog_40_n02105056_328.JPEG
subject-03,3,421,0.8465042114,bottle,keyboard,cr,0420_cl_s03_cr_keyboard_40_n03085013_24612.JPEG
subject-03,3,422,0.6607921124,airplane,airplane,cr,0421_cl_s03_cr_airplane_40_n02690373_4243.JPEG
subject-03,3,423,0.9820098877,bicycle,clock,bw,0422_cl_s03_bw_clock_40_n03196217_6519.JPEG
subject-03,3,424,0.8686738014,bicycle,bicycle,cr,0423_cl_s03_cr_bicycle_40_n03792782_4921.JPEG
subject-03,3,425,0.7370090485,airplane,airplane,cr,0424_cl_s03_cr_airplane_40_n02690373_3216.JPEG
subject-03,3,426,0.6856210232,keyboard,keyboard,cr,0425_cl_s03_cr_keyboard_40_n03085013_14643.JPEG
subject-03,3,427,0.8687999249,car,car,bw,0426_cl_s03_bw_car_40_n03100240_6311.JPEG
subject-03,3,428,0.6596188545,airplane,airplane,bw,0427_cl_s03_bw_airplane_40_n02690373_17937.JPEG
subject-03,3,429,1.2469520569,bicycle,bicycle,cr,0428_cl_s03_cr_bicycle_40_n02835271_9862.JPEG
subject-03,3,430,0.7526681423,bottle,bottle,bw,0429_cl_s03_bw_bottle_40_n02823428_765.JPEG
subject-03,3,431,0.8803639412,keyboard,clock,bw,0430_cl_s03_bw_clock_40_n04548280_4475.JPEG
subject-03,3,432,0.9416639805,elephant,elephant,cr,0431_cl_s03_cr_elephant_40_n02504013_10394.JPEG
subject-03,3,433,0.7308528423,clock,clock,cr,0432_cl_s03_cr_clock_40_n03196217_10677.JPEG
subject-03,3,434,1.5004448891,cat,dog,bw,0433_cl_s03_bw_dog_40_n02088094_419.JPEG
subject-03,3,435,0.7332470417,airplane,truck,cr,0434_cl_s03_cr_truck_40_n04467665_52003.JPEG
subject-03,3,436,0.8835740089,clock,clock,cr,0435_cl_s03_cr_clock_40_n04548280_711.JPEG
subject-03,3,437,0.6681461334,oven,oven,bw,0436_cl_s03_bw_oven_40_n04111531_627.JPEG
subject-03,3,438,0.9221041203,keyboard,keyboard,bw,0437_cl_s03_bw_keyboard_40_n03085013_8932.JPEG
subject-03,3,439,0.7907960415,car,car,bw,0438_cl_s03_bw_car_40_n03100240_6738.JPEG
subject-03,3,440,1.0945160389,bird,bird,cr,0439_cl_s03_cr_bird_40_n01819313_3073.JPEG
subject-03,3,441,0.8687150478,truck,truck,bw,0440_cl_s03_bw_truck_40_n03417042_8054.JPEG
subject-03,3,442,0.8428719044,cat,cat,cr,0441_cl_s03_cr_cat_40_n02123045_2025.JPEG
subject-03,3,443,0.8873770237,dog,dog,bw,0442_cl_s03_bw_dog_40_n02105251_2964.JPEG
subject-03,3,444,1.1539950371,bear,bird,cr,0443_cl_s03_cr_bird_40_n01514859_246.JPEG
subject-03,3,445,0.8375961781,boat,boat,bw,0444_cl_s03_bw_boat_40_n03344393_3773.JPEG
subject-03,3,446,0.8740520477,bottle,bottle,bw,0445_cl_s03_bw_bottle_40_n04579145_106.JPEG
subject-03,3,447,0.9153862,bear,bear,cr,0446_cl_s03_cr_bear_40_n02134418_832.JPEG
subject-03,3,448,0.827903986,boat,boat,bw,0447_cl_s03_bw_boat_40_n02951358_10047.JPEG
subject-03,3,449,1.0254130363,dog,dog,bw,0448_cl_s03_bw_dog_40_n02111277_16693.JPEG
subject-03,3,450,0.8536040783,chair,chair,cr,0449_cl_s03_cr_chair_40_n03376595_2001.JPEG
subject-03,3,451,1.0948979855,airplane,airplane,cr,0450_cl_s03_cr_airplane_40_n02690373_12756.JPEG
subject-03,3,452,1.3642289639,elephant,elephant,cr,0451_cl_s03_cr_elephant_40_n02504458_6635.JPEG
subject-03,3,453,0.7855350971,bottle,bottle,cr,0452_cl_s03_cr_bottle_40_n04560804_32398.JPEG
subject-03,3,454,0.9678061008,truck,truck,cr,0453_cl_s03_cr_truck_40_n03417042_10043.JPEG
subject-03,3,455,0.9877290726,bottle,bottle,cr,0454_cl_s03_cr_bottle_40_n03983396_11761.JPEG
subject-03,3,456,0.8752560616,airplane,airplane,cr,0455_cl_s03_cr_airplane_40_n02690373_6231.JPEG
subject-03,3,457,1.0030319691,bottle,bottle,bw,0456_cl_s03_bw_bottle_40_n04579145_564.JPEG
subject-03,3,458,0.8307111263,bicycle,bicycle,cr,0457_cl_s03_cr_bicycle_40_n03792782_14216.JPEG
subject-03,3,459,1.5001301765,bear,bear,cr,0458_cl_s03_cr_bear_40_n02133161_547.JPEG
subject-03,3,460,1.5000710487,knife,knife,bw,0459_cl_s03_bw_knife_40_n03041632_17100.JPEG
subject-03,3,461,0.91700387,elephant,elephant,bw,0460_cl_s03_bw_elephant_40_n02504458_98.JPEG
subject-03,3,462,0.6147611141,boat,boat,cr,0461_cl_s03_cr_boat_40_n04273569_16519.JPEG
subject-03,3,463,0.6758589745,clock,clock,bw,0462_cl_s03_bw_clock_40_n03196217_10936.JPEG
subject-03,3,464,0.8874349594,bird,bird,cr,0463_cl_s03_cr_bird_40_n01531178_8282.JPEG
subject-03,3,465,0.8236949444,oven,oven,bw,0464_cl_s03_bw_oven_40_n04111531_1298.JPEG
subject-03,3,466,0.9861547947,keyboard,keyboard,cr,0465_cl_s03_cr_keyboard_40_n03085013_24455.JPEG
subject-03,3,467,0.7473919392,car,car,bw,0466_cl_s03_bw_car_40_n04285008_5976.JPEG
subject-03,3,468,0.7381489277,boat,boat,cr,0467_cl_s03_cr_boat_40_n02951358_31835.JPEG
subject-03,3,469,0.8037250042,elephant,elephant,cr,0468_cl_s03_cr_elephant_40_n02504458_1735.JPEG
subject-03,3,470,0.9532728195,bicycle,bicycle,cr,0469_cl_s03_cr_bicycle_40_n03792782_3047.JPEG
subject-03,3,471,1.235378027,dog,dog,bw,0470_cl_s03_bw_dog_40_n02102318_9424.JPEG
subject-03,3,472,0.9338839054,boat,boat,cr,0471_cl_s03_cr_boat_40_n03662601_1424.JPEG
subject-03,3,473,1.1081261635,knife,knife,bw,0472_cl_s03_bw_knife_40_n03041632_48151.JPEG
subject-03,3,474,NaN,na,truck,cr,0473_cl_s03_cr_truck_40_n04467665_34915.JPEG
subject-03,3,475,0.9050610065,oven,oven,cr,0474_cl_s03_cr_oven_40_n04111531_4.JPEG
subject-03,3,476,0.6956870556,bird,bird,bw,0475_cl_s03_bw_bird_40_n01582220_520.JPEG
subject-03,3,477,1.0538611412,dog,dog,bw,0476_cl_s03_bw_dog_40_n02105855_10619.JPEG
subject-03,3,478,0.8591980934,car,car,bw,0477_cl_s03_bw_car_40_n02814533_6297.JPEG
subject-03,3,479,0.9335198402,knife,knife,bw,0478_cl_s03_bw_knife_40_n03041632_82878.JPEG
subject-03,3,480,1.2245810032,bear,bear,bw,0479_cl_s03_bw_bear_40_n02133161_14841.JPEG
subject-03,3,481,1.1690859795,bear,bear,bw,0480_cl_s03_bw_bear_40_n02132136_10990.JPEG
subject-03,3,482,0.7519500256,airplane,airplane,cr,0481_cl_s03_cr_airplane_40_n02690373_1071.JPEG
subject-03,3,483,0.9575810432,dog,dog,cr,0482_cl_s03_cr_dog_40_n02096437_6439.JPEG
subject-03,3,484,0.9476208687,airplane,airplane,bw,0483_cl_s03_bw_airplane_40_n02690373_3313.JPEG
subject-03,3,485,0.8980848789,knife,knife,cr,0484_cl_s03_cr_knife_40_n03041632_24181.JPEG
subject-03,3,486,0.7968530655,airplane,airplane,bw,0485_cl_s03_bw_airplane_40_n02690373_3709.JPEG
subject-03,3,487,0.899545908,cat,cat,cr,0486_cl_s03_cr_cat_40_n02123597_5017.JPEG
subject-03,3,488,0.8307299614,airplane,airplane,bw,0487_cl_s03_bw_airplane_40_n02690373_5164.JPEG
subject-03,3,489,0.6587760448,car,car,bw,0488_cl_s03_bw_car_40_n03100240_3024.JPEG
subject-03,3,490,0.6414752007,oven,oven,bw,0489_cl_s03_bw_oven_40_n04111531_8984.JPEG
subject-03,3,491,0.9456410408,bird,bird,bw,0490_cl_s03_bw_bird_40_n02033041_3150.JPEG
subject-03,3,492,0.8217129707,clock,clock,bw,0491_cl_s03_bw_clock_40_n04548280_9125.JPEG
subject-03,3,493,1.3888289928,elephant,elephant,bw,0492_cl_s03_bw_elephant_40_n02504013_4457.JPEG
subject-03,3,494,0.6108000278,clock,clock,cr,0493_cl_s03_cr_clock_40_n04548280_11068.JPEG
subject-03,3,495,0.6475870609,car,car,bw,0494_cl_s03_bw_car_40_n02814533_89376.JPEG
subject-03,3,496,0.6746730804,oven,chair,bw,0495_cl_s03_bw_chair_40_n04429376_26765.JPEG
subject-03,3,497,1.0280020237,cat,bottle,cr,0496_cl_s03_cr_bottle_40_n03937543_349.JPEG
subject-03,3,498,0.6940460205,cat,cat,cr,0497_cl_s03_cr_cat_40_n02123159_3226.JPEG
subject-03,3,499,0.6699509621,boat,boat,bw,0498_cl_s03_bw_boat_40_n02951358_13562.JPEG
subject-03,3,500,0.6982281208,airplane,airplane,bw,0499_cl_s03_bw_airplane_40_n02690373_3840.JPEG
subject-03,3,501,0.8566730022,airplane,airplane,cr,0500_cl_s03_cr_airplane_40_n02690373_5266.JPEG
subject-03,3,502,0.9170379639,keyboard,keyboard,cr,0501_cl_s03_cr_keyboard_40_n03085013_4160.JPEG
subject-03,3,503,0.6696870327,clock,chair,bw,0502_cl_s03_bw_chair_40_n03376595_16202.JPEG
subject-03,3,504,0.6305999756,boat,boat,cr,0503_cl_s03_cr_boat_40_n02951358_5053.JPEG
subject-03,3,505,0.9427809715,bicycle,bicycle,cr,0504_cl_s03_cr_bicycle_40_n03792782_5901.JPEG
subject-03,3,506,0.7632739544,keyboard,keyboard,bw,0505_cl_s03_bw_keyboard_40_n04505470_1253.JPEG
subject-03,3,507,0.7918920517,truck,truck,bw,0506_cl_s03_bw_truck_40_n04467665_18665.JPEG
subject-03,3,508,0.6896219254,boat,boat,bw,0507_cl_s03_bw_boat_40_n04273569_13641.JPEG
subject-03,3,509,0.8562848568,bear,bear,cr,0508_cl_s03_cr_bear_40_n02132136_5184.JPEG
subject-03,3,510,0.7762770653,airplane,airplane,cr,0509_cl_s03_cr_airplane_40_n02690373_6853.JPEG
subject-03,3,511,0.8513629436,bottle,bottle,cr,0510_cl_s03_cr_bottle_40_n04557648_2026.JPEG
subject-03,3,512,0.9192881584,keyboard,oven,bw,0511_cl_s03_bw_oven_40_n04111531_7965.JPEG
subject-03,3,513,1.3051240444,chair,chair,cr,0512_cl_s03_cr_chair_40_n03376595_7547.JPEG
subject-03,3,514,0.6030931473,clock,clock,cr,0513_cl_s03_cr_clock_40_n02708093_3459.JPEG
subject-03,3,515,0.7224550247,elephant,elephant,bw,0514_cl_s03_bw_elephant_40_n02504458_5869.JPEG
subject-03,3,516,0.5430779457,boat,boat,bw,0515_cl_s03_bw_boat_40_n04612504_9825.JPEG
subject-03,3,517,0.8955590725,bear,bear,bw,0516_cl_s03_bw_bear_40_n02134418_1229.JPEG
subject-03,3,518,1.1627719402,knife,knife,bw,0517_cl_s03_bw_knife_40_n03041632_29037.JPEG
subject-03,3,519,1.2314891815,elephant,elephant,bw,0518_cl_s03_bw_elephant_40_n02504458_787.JPEG
subject-03,3,520,1.0057199001,dog,dog,cr,0519_cl_s03_cr_dog_40_n02105056_9209.JPEG
subject-03,3,521,0.8417181969,boat,boat,bw,0520_cl_s03_bw_boat_40_n03662601_35751.JPEG
subject-03,3,522,0.9467151165,dog,knife,cr,0521_cl_s03_cr_knife_40_n03041632_47703.JPEG
subject-03,3,523,1.220446825,cat,bird,bw,0522_cl_s03_bw_bird_40_n01818515_427.JPEG
subject-03,3,524,0.7756211758,truck,truck,cr,0523_cl_s03_cr_truck_40_n04467665_7341.JPEG
subject-03,3,525,0.7629518509,boat,boat,cr,0524_cl_s03_cr_boat_40_n04612504_7166.JPEG
subject-03,3,526,0.9990959167,knife,knife,cr,0525_cl_s03_cr_knife_40_n03041632_24277.JPEG
subject-03,3,527,NaN,na,bear,bw,0526_cl_s03_bw_bear_40_n02133161_4968.JPEG
subject-03,3,528,0.6930258274,bottle,bottle,cr,0527_cl_s03_cr_bottle_40_n04560804_9813.JPEG
subject-03,3,529,0.7976639271,car,car,bw,0528_cl_s03_bw_car_40_n03100240_21971.JPEG
subject-03,3,530,0.650359869,airplane,airplane,cr,0529_cl_s03_cr_airplane_40_n02690373_2435.JPEG
subject-03,3,531,0.905659914,elephant,cat,cr,0530_cl_s03_cr_cat_40_n02125311_4340.JPEG
subject-03,3,532,0.9861450195,knife,knife,cr,0531_cl_s03_cr_knife_40_n03041632_11285.JPEG
subject-03,3,533,1.0845069885,knife,knife,cr,0532_cl_s03_cr_knife_40_n03041632_48071.JPEG
subject-03,3,534,1.1557741165,dog,dog,bw,0533_cl_s03_bw_dog_40_n02108000_4646.JPEG
subject-03,3,535,0.7313628197,cat,cat,bw,0534_cl_s03_bw_cat_40_n02123159_615.JPEG
subject-03,3,536,0.6759290695,clock,clock,bw,0535_cl_s03_bw_clock_40_n02708093_2622.JPEG
subject-03,3,537,0.5806708336,boat,boat,cr,0536_cl_s03_cr_boat_40_n04273569_10496.JPEG
subject-03,3,538,0.8543081284,bird,bird,cr,0537_cl_s03_cr_bird_40_n01530575_6098.JPEG
subject-03,3,539,1.0828289986,bear,bear,cr,0538_cl_s03_cr_bear_40_n02132136_6787.JPEG
subject-03,3,540,0.7740018368,keyboard,keyboard,bw,0539_cl_s03_bw_keyboard_40_n03085013_18832.JPEG
subject-03,3,541,0.8097147942,cat,knife,bw,0540_cl_s03_bw_knife_40_n03041632_23968.JPEG
subject-03,3,542,0.9514291286,clock,truck,cr,0541_cl_s03_cr_truck_40_n03417042_3657.JPEG
subject-03,3,543,0.7029538155,clock,clock,bw,0542_cl_s03_bw_clock_40_n04548280_8914.JPEG
subject-03,3,544,1.1755361557,bicycle,bicycle,cr,0543_cl_s03_cr_bicycle_40_n03792782_11609.JPEG
subject-03,3,545,1.1352000237,dog,dog,cr,0544_cl_s03_cr_dog_40_n02112018_370.JPEG
subject-03,3,546,0.8174269199,oven,oven,bw,0545_cl_s03_bw_oven_40_n04111531_12725.JPEG
subject-03,3,547,1.0304598808,bottle,bottle,bw,0546_cl_s03_bw_bottle_40_n04591713_3501.JPEG
subject-03,3,548,0.8959350586,oven,oven,cr,0547_cl_s03_cr_oven_40_n04111531_21973.JPEG
subject-03,3,549,0.9081549644,knife,knife,cr,0548_cl_s03_cr_knife_40_n03041632_32785.JPEG
subject-03,3,550,0.9596869946,bicycle,bicycle,cr,0549_cl_s03_cr_bicycle_40_n03792782_1344.JPEG
subject-03,3,551,1.2258489132,bicycle,bicycle,bw,0550_cl_s03_bw_bicycle_40_n02835271_9396.JPEG
subject-03,3,552,0.824352026,airplane,airplane,bw,0551_cl_s03_bw_airplane_40_n02690373_13317.JPEG
subject-03,3,553,0.7531280518,chair,chair,bw,0552_cl_s03_bw_chair_40_n04099969_4146.JPEG
subject-03,3,554,0.634221077,boat,boat,cr,0553_cl_s03_cr_boat_40_n03662601_12134.JPEG
subject-03,3,555,0.670938015,clock,clock,bw,0554_cl_s03_bw_clock_40_n02708093_3365.JPEG
subject-03,3,556,1.2727057934,bear,bear,bw,0555_cl_s03_bw_bear_40_n02133161_1262.JPEG
subject-03,3,557,0.8547120094,bicycle,bicycle,bw,0556_cl_s03_bw_bicycle_40_n03792782_1661.JPEG
subject-03,3,558,0.8361911774,clock,clock,cr,0557_cl_s03_cr_clock_40_n02708093_1431.JPEG
subject-03,3,559,0.6943719387,cat,cat,bw,0558_cl_s03_bw_cat_40_n02124075_1947.JPEG
subject-03,3,560,1.0596148968,dog,dog,bw,0559_cl_s03_bw_dog_40_n02111277_5165.JPEG
subject-03,3,561,0.6958761215,cat,cat,cr,0560_cl_s03_cr_cat_40_n02123394_2364.JPEG
subject-03,3,562,NaN,na,truck,cr,0561_cl_s03_cr_truck_40_n03417042_6893.JPEG
subject-03,3,563,1.1425571442,bird,bird,bw,0562_cl_s03_bw_bird_40_n02017213_5019.JPEG
subject-03,3,564,0.9410459995,car,car,cr,0563_cl_s03_cr_car_40_n02814533_37548.JPEG
subject-03,3,565,0.8711969852,bottle,chair,bw,0564_cl_s03_bw_chair_40_n02791124_3326.JPEG
subject-03,3,566,0.8672459126,dog,dog,cr,0565_cl_s03_cr_dog_40_n02104029_3004.JPEG
subject-03,3,567,0.5863859653,clock,clock,cr,0566_cl_s03_cr_clock_40_n03196217_2507.JPEG
subject-03,3,568,0.8073909283,truck,truck,cr,0567_cl_s03_cr_truck_40_n03417042_18601.JPEG
subject-03,3,569,1.0898067951,elephant,elephant,bw,0568_cl_s03_bw_elephant_40_n02504013_394.JPEG
subject-03,3,570,0.8721010685,truck,truck,cr,0569_cl_s03_cr_truck_40_n03796401_15756.JPEG
subject-03,3,571,0.9704921246,boat,boat,cr,0570_cl_s03_cr_boat_40_n02951358_12866.JPEG
subject-03,3,572,0.760340929,elephant,elephant,cr,0571_cl_s03_cr_elephant_40_n02504458_5187.JPEG
subject-03,3,573,0.6272239685,car,car,bw,0572_cl_s03_bw_car_40_n03100240_1194.JPEG
subject-03,3,574,0.830945015,elephant,elephant,bw,0573_cl_s03_bw_elephant_40_n02504013_2295.JPEG
subject-03,3,575,1.097299099,bird,bird,bw,0574_cl_s03_bw_bird_40_n01798484_13201.JPEG
subject-03,3,576,0.8335490227,bicycle,knife,bw,0575_cl_s03_bw_knife_40_n03041632_81630.JPEG
subject-03,3,577,0.8774681091,cat,cat,bw,0576_cl_s03_bw_cat_40_n02123394_2034.JPEG
subject-03,3,578,0.8972258568,truck,truck,cr,0577_cl_s03_cr_truck_40_n03796401_27963.JPEG
subject-03,3,579,0.9102671146,bottle,bottle,cr,0578_cl_s03_cr_bottle_40_n04560804_15228.JPEG
subject-03,3,580,0.7079789639,cat,cat,cr,0579_cl_s03_cr_cat_40_n02123045_8774.JPEG
subject-03,3,581,1.0041530132,clock,clock,bw,0580_cl_s03_bw_clock_40_n03196217_1698.JPEG
subject-03,3,582,0.8349080086,dog,dog,bw,0581_cl_s03_bw_dog_40_n02088238_10562.JPEG
subject-03,3,583,0.8713080883,bird,bird,bw,0582_cl_s03_bw_bird_40_n01824575_2244.JPEG
subject-03,3,584,0.8151409626,knife,knife,cr,0583_cl_s03_cr_knife_40_n03041632_47410.JPEG
subject-03,3,585,0.7021238804,oven,oven,bw,0584_cl_s03_bw_oven_40_n04111531_8309.JPEG
subject-03,3,586,0.7362189293,keyboard,keyboard,cr,0585_cl_s03_cr_keyboard_40_n03085013_25181.JPEG
subject-03,3,587,0.8794870377,elephant,elephant,cr,0586_cl_s03_cr_elephant_40_n02504013_277.JPEG
subject-03,3,588,0.5907518864,clock,clock,cr,0587_cl_s03_cr_clock_40_n04548280_8971.JPEG
subject-03,3,589,0.6867580414,airplane,airplane,cr,0588_cl_s03_cr_airplane_40_n02690373_4233.JPEG
subject-03,3,590,0.8778660297,car,car,cr,0589_cl_s03_cr_car_40_n02814533_18458.JPEG
subject-03,3,591,NaN,na,chair,cr,0590_cl_s03_cr_chair_40_n04429376_294.JPEG
subject-03,3,592,1.1880161762,keyboard,keyboard,bw,0591_cl_s03_bw_keyboard_40_n03085013_4814.JPEG
subject-03,3,593,0.8402578831,clock,clock,bw,0592_cl_s03_bw_clock_40_n04548280_4042.JPEG
subject-03,3,594,0.6849207878,bottle,bottle,bw,0593_cl_s03_bw_bottle_40_n04557648_24567.JPEG
subject-03,3,595,0.7503249645,clock,clock,cr,0594_cl_s03_cr_clock_40_n04548280_2717.JPEG
subject-03,3,596,0.7710359097,chair,chair,bw,0595_cl_s03_bw_chair_40_n04099969_9891.JPEG
subject-03,3,597,1.2215559483,knife,knife,bw,0596_cl_s03_bw_knife_40_n03041632_29580.JPEG
subject-03,3,598,0.995043993,clock,clock,bw,0597_cl_s03_bw_clock_40_n03196217_5149.JPEG
subject-03,3,599,0.8672690392,clock,bottle,bw,0598_cl_s03_bw_bottle_40_n02823428_8600.JPEG
subject-03,3,600,0.7641060352,elephant,elephant,bw,0599_cl_s03_bw_elephant_40_n02504013_4536.JPEG
subject-03,3,601,0.6860051155,clock,clock,cr,0600_cl_s03_cr_clock_40_n02708093_8047.JPEG
subject-03,3,602,0.9060509205,bottle,bottle,cr,0601_cl_s03_cr_bottle_40_n04557648_1092.JPEG
subject-03,3,603,0.7690439224,boat,boat,cr,0602_cl_s03_cr_boat_40_n03344393_4739.JPEG
subject-03,3,604,0.7757370472,car,car,bw,0603_cl_s03_bw_car_40_n02814533_6660.JPEG
subject-03,3,605,1.1120300293,oven,oven,cr,0604_cl_s03_cr_oven_40_n04111531_7034.JPEG
subject-03,3,606,0.8482539654,car,car,cr,0605_cl_s03_cr_car_40_n02814533_39958.JPEG
subject-03,3,607,0.9387979507,cat,cat,bw,0606_cl_s03_bw_cat_40_n02123159_8240.JPEG
subject-03,3,608,0.8752589226,elephant,elephant,cr,0607_cl_s03_cr_elephant_40_n02504458_3953.JPEG
subject-03,3,609,1.2928600311,elephant,bear,bw,0608_cl_s03_bw_bear_40_n02132136_1591.JPEG
subject-03,3,610,0.7376861572,cat,cat,bw,0609_cl_s03_bw_cat_40_n02125311_6399.JPEG
subject-03,3,611,0.6895191669,airplane,airplane,bw,0610_cl_s03_bw_airplane_40_n02690373_3377.JPEG
subject-03,3,612,0.6940550804,clock,clock,bw,0611_cl_s03_bw_clock_40_n04548280_3308.JPEG
subject-03,3,613,0.5761530399,boat,boat,cr,0612_cl_s03_cr_boat_40_n04273569_3977.JPEG
subject-03,3,614,0.5990951061,oven,oven,cr,0613_cl_s03_cr_oven_40_n04111531_10306.JPEG
subject-03,3,615,1.008991003,knife,knife,cr,0614_cl_s03_cr_knife_40_n03041632_105081.JPEG
subject-03,3,616,0.6774969101,oven,oven,bw,0615_cl_s03_bw_oven_40_n04111531_4322.JPEG
subject-03,3,617,1.2899711132,bird,bird,bw,0616_cl_s03_bw_bird_40_n02018207_12980.JPEG
subject-03,3,618,0.7392320633,bicycle,bicycle,cr,0617_cl_s03_cr_bicycle_40_n03792782_4249.JPEG
subject-03,3,619,0.9377970695,dog,dog,cr,0618_cl_s03_cr_dog_40_n02101388_2075.JPEG
subject-03,3,620,0.8040981293,clock,clock,cr,0619_cl_s03_cr_clock_40_n04548280_1327.JPEG
subject-03,3,621,0.6241500378,boat,boat,cr,0620_cl_s03_cr_boat_40_n03662601_16418.JPEG
subject-03,3,622,0.8823890686,airplane,airplane,cr,0621_cl_s03_cr_airplane_40_n02690373_2024.JPEG
subject-03,3,623,0.7422981262,oven,oven,bw,0622_cl_s03_bw_oven_40_n04111531_12769.JPEG
subject-03,3,624,0.9468269348,truck,truck,bw,0623_cl_s03_bw_truck_40_n03417042_7116.JPEG
subject-03,3,625,0.6825530529,keyboard,keyboard,bw,0624_cl_s03_bw_keyboard_40_n03085013_5812.JPEG
subject-03,3,626,0.5563559532,boat,boat,cr,0625_cl_s03_cr_boat_40_n02951358_2853.JPEG
subject-03,3,627,0.7368509769,airplane,airplane,bw,0626_cl_s03_bw_airplane_40_n02690373_2758.JPEG
subject-03,3,628,1.1734800339,bicycle,bicycle,cr,0627_cl_s03_cr_bicycle_40_n02835271_1299.JPEG
subject-03,3,629,0.7717430592,boat,boat,cr,0628_cl_s03_cr_boat_40_n04612504_14852.JPEG
subject-03,3,630,1.1131660938,elephant,elephant,bw,0629_cl_s03_bw_elephant_40_n02504458_326.JPEG
subject-03,3,631,0.825357914,keyboard,keyboard,bw,0630_cl_s03_bw_keyboard_40_n04505470_142.JPEG
subject-03,3,632,0.9619121552,bear,bear,cr,0631_cl_s03_cr_bear_40_n02134084_24136.JPEG
subject-03,3,633,0.8874411583,car,car,cr,0632_cl_s03_cr_car_40_n03100240_418.JPEG
subject-03,3,634,1.2227330208,dog,dog,cr,0633_cl_s03_cr_dog_40_n02097130_7069.JPEG
subject-03,3,635,0.7104928493,oven,oven,cr,0634_cl_s03_cr_oven_40_n04111531_11530.JPEG
subject-03,3,636,1.0153520107,oven,truck,bw,0635_cl_s03_bw_truck_40_n03417042_8996.JPEG
subject-03,3,637,0.91294384,bicycle,bicycle,bw,0636_cl_s03_bw_bicycle_40_n02835271_22994.JPEG
subject-03,3,638,1.0164420605,dog,dog,bw,0637_cl_s03_bw_dog_40_n02099267_1256.JPEG
subject-03,3,639,0.829007864,car,car,bw,0638_cl_s03_bw_car_40_n03100240_8327.JPEG
subject-03,3,640,0.9102590084,chair,chair,bw,0639_cl_s03_bw_chair_40_n02791124_3331.JPEG
subject-03,3,641,1.0526220798,chair,chair,bw,0640_cl_s03_bw_chair_40_n04099969_7065.JPEG
subject-03,3,642,0.7589600086,clock,clock,bw,0641_cl_s03_bw_clock_40_n03196217_5339.JPEG
subject-03,3,643,0.6414878368,boat,boat,bw,0642_cl_s03_bw_boat_40_n04273569_16740.JPEG
subject-03,3,644,0.961879015,elephant,bird,bw,0643_cl_s03_bw_bird_40_n01622779_5706.JPEG
subject-03,3,645,0.9901390076,elephant,elephant,cr,0644_cl_s03_cr_elephant_40_n02504458_7013.JPEG
subject-03,3,646,0.6102211475,car,truck,cr,0645_cl_s03_cr_truck_40_n03796401_21480.JPEG
subject-03,3,647,0.7899580002,cat,keyboard,cr,0646_cl_s03_cr_keyboard_40_n03085013_26449.JPEG
subject-03,3,648,1.0184679031,bottle,bottle,cr,0647_cl_s03_cr_bottle_40_n04560804_11601.JPEG
subject-03,3,649,1.0683209896,chair,knife,cr,0648_cl_s03_cr_knife_40_n03041632_25498.JPEG
subject-03,3,650,NaN,na,elephant,cr,0649_cl_s03_cr_elephant_40_n02504013_2861.JPEG
subject-03,3,651,0.9926700592,knife,knife,bw,0650_cl_s03_bw_knife_40_n03041632_33488.JPEG
subject-03,3,652,0.8231348991,bicycle,bicycle,bw,0651_cl_s03_bw_bicycle_40_n02835271_17677.JPEG
subject-03,3,653,0.9893629551,bird,car,bw,0652_cl_s03_bw_car_40_n02814533_24801.JPEG
subject-03,3,654,0.9932119846,dog,dog,bw,0653_cl_s03_bw_dog_40_n02092002_6472.JPEG
subject-03,3,655,0.9038310051,car,car,cr,0654_cl_s03_cr_car_40_n02814533_89061.JPEG
subject-03,3,656,1.175470829,dog,cat,cr,0655_cl_s03_cr_cat_40_n02125311_115.JPEG
subject-03,3,657,1.0795590878,knife,knife,cr,0656_cl_s03_cr_knife_40_n03041632_11475.JPEG
subject-03,3,658,0.9701550007,dog,dog,bw,0657_cl_s03_bw_dog_40_n02096585_6428.JPEG
subject-03,3,659,0.8222980499,cat,dog,bw,0658_cl_s03_bw_dog_40_n02094258_6166.JPEG
subject-03,3,660,0.6588778496,oven,oven,bw,0659_cl_s03_bw_oven_40_n04111531_5888.JPEG
subject-03,3,661,0.7029020786,bird,bird,bw,0660_cl_s03_bw_bird_40_n01828970_2269.JPEG
subject-03,3,662,1.4508359432,car,car,bw,0661_cl_s03_bw_car_40_n04285008_4059.JPEG
subject-03,3,663,0.8947100639,bottle,bottle,cr,0662_cl_s03_cr_bottle_40_n04560804_472.JPEG
subject-03,3,664,1.0148789883,cat,cat,bw,0663_cl_s03_bw_cat_40_n02123159_2455.JPEG
subject-03,3,665,1.0129740238,elephant,elephant,cr,0664_cl_s03_cr_elephant_40_n02504013_868.JPEG
subject-03,3,666,0.7951021194,boat,airplane,cr,0665_cl_s03_cr_airplane_40_n02690373_1416.JPEG
subject-03,3,667,0.6779000759,bottle,bottle,bw,0666_cl_s03_bw_bottle_40_n03983396_3248.JPEG
subject-03,3,668,1.0059950352,bottle,bottle,bw,0667_cl_s03_bw_bottle_40_n04560804_15534.JPEG
subject-03,3,669,0.6416258812,keyboard,keyboard,cr,0668_cl_s03_cr_keyboard_40_n03085013_21155.JPEG
subject-03,3,670,0.7469220161,cat,cat,bw,0669_cl_s03_bw_cat_40_n02124075_951.JPEG
subject-03,3,671,1.1721191406,dog,cat,cr,0670_cl_s03_cr_cat_40_n02125311_1934.JPEG
subject-03,3,672,0.7095718384,car,car,cr,0671_cl_s03_cr_car_40_n04285008_9470.JPEG
subject-03,3,673,0.7142977715,chair,chair,cr,0672_cl_s03_cr_chair_40_n03376595_2566.JPEG
subject-03,3,674,0.5800149441,boat,boat,bw,0673_cl_s03_bw_boat_40_n03662601_22477.JPEG
subject-03,3,675,1.1546680927,elephant,elephant,bw,0674_cl_s03_bw_elephant_40_n02504458_8161.JPEG
subject-03,3,676,0.9694719315,truck,chair,bw,0675_cl_s03_bw_chair_40_n02791124_6315.JPEG
subject-03,3,677,0.9977931976,car,car,bw,0676_cl_s03_bw_car_40_n04285008_14963.JPEG
subject-03,3,678,0.9552240372,car,car,cr,0677_cl_s03_cr_car_40_n02814533_44901.JPEG
subject-03,3,679,0.6834878922,keyboard,keyboard,cr,0678_cl_s03_cr_keyboard_40_n04505470_4400.JPEG
subject-03,3,680,0.7041249275,bird,bird,bw,0679_cl_s03_bw_bird_40_n01860187_37784.JPEG
subject-03,3,681,1.1160490513,bird,bird,cr,0680_cl_s03_cr_bird_40_n02006656_4850.JPEG
subject-03,3,682,0.7065000534,boat,boat,cr,0681_cl_s03_cr_boat_40_n02951358_14612.JPEG
subject-03,3,683,1.0567150116,bear,bear,bw,0682_cl_s03_bw_bear_40_n02133161_2065.JPEG
subject-03,3,684,0.8633160591,airplane,airplane,bw,0683_cl_s03_bw_airplane_40_n02690373_1773.JPEG
subject-03,3,685,0.8617939949,elephant,elephant,cr,0684_cl_s03_cr_elephant_40_n02504458_7408.JPEG
subject-03,3,686,0.7432370186,bird,bird,bw,0685_cl_s03_bw_bird_40_n01531178_21662.JPEG
subject-03,3,687,0.7876989841,bicycle,bicycle,cr,0686_cl_s03_cr_bicycle_40_n03792782_18180.JPEG
subject-03,3,688,1.0895910263,bird,bird,cr,0687_cl_s03_cr_bird_40_n01796340_1901.JPEG
subject-03,3,689,1.0410139561,knife,knife,cr,0688_cl_s03_cr_knife_40_n03041632_24113.JPEG
subject-03,3,690,1.1208629608,knife,knife,cr,0689_cl_s03_cr_knife_40_n03041632_16104.JPEG
subject-03,3,691,1.1351771355,bicycle,bicycle,bw,0690_cl_s03_bw_bicycle_40_n03792782_41992.JPEG
subject-03,3,692,1.1902570724,oven,clock,cr,0691_cl_s03_cr_clock_40_n03196217_2503.JPEG
subject-03,3,693,0.9208641052,car,car,cr,0692_cl_s03_cr_car_40_n03100240_15531.JPEG
subject-03,3,694,0.7028870583,elephant,elephant,cr,0693_cl_s03_cr_elephant_40_n02504458_9255.JPEG
subject-03,3,695,0.7766008377,keyboard,keyboard,bw,0694_cl_s03_bw_keyboard_40_n04505470_1903.JPEG
subject-03,3,696,0.9927799702,bear,bear,cr,0695_cl_s03_cr_bear_40_n02133161_2010.JPEG
subject-03,3,697,0.7137618065,car,car,cr,0696_cl_s03_cr_car_40_n04285008_3280.JPEG
subject-03,3,698,NaN,na,bottle,cr,0697_cl_s03_cr_bottle_40_n04557648_840.JPEG
subject-03,3,699,0.8774440289,elephant,elephant,bw,0698_cl_s03_bw_elephant_40_n02504013_7961.JPEG
subject-03,3,700,0.7730548382,clock,clock,cr,0699_cl_s03_cr_clock_40_n03196217_6809.JPEG
subject-03,3,701,1.122879982,bicycle,bicycle,cr,0700_cl_s03_cr_bicycle_40_n02835271_7873.JPEG
subject-03,3,702,0.7913541794,elephant,elephant,cr,0701_cl_s03_cr_elephant_40_n02504458_7144.JPEG
subject-03,3,703,1.011523962,truck,truck,cr,0702_cl_s03_cr_truck_40_n04467665_11776.JPEG
subject-03,3,704,0.9241261482,bottle,bottle,bw,0703_cl_s03_bw_bottle_40_n03937543_2042.JPEG
subject-03,3,705,0.6764080524,keyboard,keyboard,cr,0704_cl_s03_cr_keyboard_40_n03085013_23350.JPEG
subject-03,3,706,0.8760590553,truck,truck,bw,0705_cl_s03_bw_truck_40_n04467665_9645.JPEG
subject-03,3,707,0.6290459633,airplane,airplane,cr,0706_cl_s03_cr_airplane_40_n02690373_5714.JPEG
subject-03,3,708,1.0327489376,dog,cat,bw,0707_cl_s03_bw_cat_40_n02123394_8318.JPEG
subject-03,3,709,0.5851500034,keyboard,keyboard,cr,0708_cl_s03_cr_keyboard_40_n04505470_4906.JPEG
subject-03,3,710,0.5814301968,cat,cat,bw,0709_cl_s03_bw_cat_40_n02123597_13519.JPEG
subject-03,3,711,0.8259651661,cat,bear,cr,0710_cl_s03_cr_bear_40_n02132136_3466.JPEG
subject-03,3,712,0.6404550076,oven,oven,bw,0711_cl_s03_bw_oven_40_n04111531_5965.JPEG
subject-03,3,713,0.7828800678,oven,bottle,bw,0712_cl_s03_bw_bottle_40_n04591713_6923.JPEG
subject-03,3,714,0.8191189766,chair,chair,bw,0713_cl_s03_bw_chair_40_n04099969_2038.JPEG
subject-03,3,715,0.7389791012,clock,clock,cr,0714_cl_s03_cr_clock_40_n03196217_5493.JPEG
subject-03,3,716,0.6908340454,boat,boat,cr,0715_cl_s03_cr_boat_40_n04273569_13091.JPEG
subject-03,3,717,0.9793100357,truck,truck,cr,0716_cl_s03_cr_truck_40_n04467665_50932.JPEG
subject-03,3,718,0.7178590298,cat,cat,bw,0717_cl_s03_bw_cat_40_n02123159_7684.JPEG
subject-03,3,719,0.743448019,elephant,elephant,bw,0718_cl_s03_bw_elephant_40_n02504013_21387.JPEG
subject-03,3,720,0.7037601471,oven,oven,cr,0719_cl_s03_cr_oven_40_n04111531_845.JPEG
subject-03,3,721,0.8540790081,car,car,cr,0720_cl_s03_cr_car_40_n04285008_10287.JPEG
subject-03,3,722,0.7823591232,bicycle,bicycle,bw,0721_cl_s03_bw_bicycle_40_n03792782_4207.JPEG
subject-03,3,723,0.727050066,chair,chair,cr,0722_cl_s03_cr_chair_40_n02791124_141.JPEG
subject-03,3,724,0.6094200611,boat,boat,bw,0723_cl_s03_bw_boat_40_n04273569_27906.JPEG
subject-03,3,725,1.5003170967,elephant,elephant,bw,0724_cl_s03_bw_elephant_40_n02504458_5271.JPEG
subject-03,3,726,0.6904039383,oven,oven,cr,0725_cl_s03_cr_oven_40_n04111531_18592.JPEG
subject-03,3,727,0.7566680908,boat,boat,cr,0726_cl_s03_cr_boat_40_n02951358_1545.JPEG
subject-03,3,728,0.8009779453,boat,boat,cr,0727_cl_s03_cr_boat_40_n02951358_19768.JPEG
subject-03,3,729,0.6833651066,cat,cat,bw,0728_cl_s03_bw_cat_40_n02123159_4973.JPEG
subject-03,3,730,0.7661020756,airplane,airplane,bw,0729_cl_s03_bw_airplane_40_n02690373_8765.JPEG
subject-03,3,731,0.9719679356,elephant,bear,cr,0730_cl_s03_cr_bear_40_n02132136_8386.JPEG
subject-03,3,732,1.0219659805,bird,bird,bw,0731_cl_s03_bw_bird_40_n01828970_22833.JPEG
subject-03,3,733,0.7659389973,chair,chair,cr,0732_cl_s03_cr_chair_40_n02791124_3250.JPEG
subject-03,3,734,0.9243559837,clock,airplane,bw,0733_cl_s03_bw_airplane_40_n02690373_9175.JPEG
subject-03,3,735,0.8928589821,bicycle,bicycle,cr,0734_cl_s03_cr_bicycle_40_n02835271_3711.JPEG
subject-03,3,736,0.6527690887,chair,chair,bw,0735_cl_s03_bw_chair_40_n04429376_1366.JPEG
subject-03,3,737,0.7109730244,cat,cat,cr,0736_cl_s03_cr_cat_40_n02123597_3037.JPEG
subject-03,3,738,1.5001559258,bear,cat,bw,0737_cl_s03_bw_cat_40_n02123597_2061.JPEG
subject-03,3,739,0.9440820217,boat,bicycle,bw,0738_cl_s03_bw_bicycle_40_n03792782_6761.JPEG
subject-03,3,740,0.5887429714,oven,oven,bw,0739_cl_s03_bw_oven_40_n04111531_12729.JPEG
subject-03,3,741,1.0301001072,dog,dog,cr,0740_cl_s03_cr_dog_40_n02108000_324.JPEG
subject-03,3,742,NaN,na,keyboard,cr,0741_cl_s03_cr_keyboard_40_n04505470_1820.JPEG
subject-03,3,743,0.9174828529,dog,dog,cr,0742_cl_s03_cr_dog_40_n02102177_1760.JPEG
subject-03,3,744,1.0002510548,airplane,airplane,bw,0743_cl_s03_bw_airplane_40_n02690373_5300.JPEG
subject-03,3,745,1.397135973,elephant,elephant,cr,0744_cl_s03_cr_elephant_40_n02504013_816.JPEG
subject-03,3,746,0.9407360554,car,truck,cr,0745_cl_s03_cr_truck_40_n03796401_2949.JPEG
subject-03,3,747,0.8719501495,car,car,bw,0746_cl_s03_bw_car_40_n02814533_85368.JPEG
subject-03,3,748,0.7382380962,bottle,bottle,cr,0747_cl_s03_cr_bottle_40_n04591713_2718.JPEG
subject-03,3,749,0.7046070099,elephant,elephant,cr,0748_cl_s03_cr_elephant_40_n02504458_4954.JPEG
subject-03,3,750,0.841121912,bird,dog,bw,0749_cl_s03_bw_dog_40_n02087394_17008.JPEG
subject-03,3,751,NaN,na,keyboard,cr,0750_cl_s03_cr_keyboard_40_n03085013_7440.JPEG
subject-03,3,752,0.827162981,chair,chair,bw,0751_cl_s03_bw_chair_40_n02791124_3491.JPEG
subject-03,3,753,0.7632498741,keyboard,clock,bw,0752_cl_s03_bw_clock_40_n02708093_7160.JPEG
subject-03,3,754,0.8531181812,car,car,cr,0753_cl_s03_cr_car_40_n03100240_1507.JPEG
subject-03,3,755,0.7038240433,chair,chair,bw,0754_cl_s03_bw_chair_40_n04429376_22344.JPEG
subject-03,3,756,0.9066801071,knife,knife,bw,0755_cl_s03_bw_knife_40_n03041632_30553.JPEG
subject-03,3,757,0.6967279911,cat,cat,cr,0756_cl_s03_cr_cat_40_n02124075_8351.JPEG
subject-03,3,758,0.7921438217,keyboard,keyboard,cr,0757_cl_s03_cr_keyboard_40_n04505470_1430.JPEG
subject-03,3,759,0.6363229752,car,car,bw,0758_cl_s03_bw_car_40_n03100240_6526.JPEG
subject-03,3,760,0.8274440765,clock,clock,bw,0759_cl_s03_bw_clock_40_n04548280_5012.JPEG
subject-03,3,761,0.808423996,bird,bird,cr,0760_cl_s03_cr_bird_40_n01531178_2609.JPEG
subject-03,3,762,0.9211421013,oven,dog,bw,0761_cl_s03_bw_dog_40_n02097298_8425.JPEG
subject-03,3,763,0.9541499615,truck,truck,cr,0762_cl_s03_cr_truck_40_n03796401_4495.JPEG
subject-03,3,764,0.5899500847,oven,oven,bw,0763_cl_s03_bw_oven_40_n04111531_1165.JPEG
subject-03,3,765,0.802521944,bottle,bottle,bw,0764_cl_s03_bw_bottle_40_n04579145_254.JPEG
subject-03,3,766,0.6833980083,oven,oven,cr,0765_cl_s03_cr_oven_40_n04111531_2930.JPEG
subject-03,3,767,0.8410079479,truck,truck,cr,0766_cl_s03_cr_truck_40_n03417042_19905.JPEG
subject-03,3,768,0.7207169533,oven,oven,cr,0767_cl_s03_cr_oven_40_n04111531_9712.JPEG
subject-03,3,769,0.9704549313,dog,dog,cr,0768_cl_s03_cr_dog_40_n02090721_6212.JPEG
subject-03,3,770,0.8585019112,bird,bird,bw,0769_cl_s03_bw_bird_40_n02007558_6416.JPEG
subject-03,3,771,0.8109550476,boat,boat,bw,0770_cl_s03_bw_boat_40_n03662601_14049.JPEG
subject-03,3,772,0.9708559513,knife,knife,bw,0771_cl_s03_bw_knife_40_n03041632_51617.JPEG
subject-03,3,773,0.7747001648,bird,bird,cr,0772_cl_s03_cr_bird_40_n02009912_7935.JPEG
subject-03,3,774,0.6641960144,clock,clock,bw,0773_cl_s03_bw_clock_40_n02708093_167.JPEG
subject-03,3,775,0.6547989845,boat,boat,bw,0774_cl_s03_bw_boat_40_n03344393_10907.JPEG
subject-03,3,776,0.7521629333,airplane,airplane,bw,0775_cl_s03_bw_airplane_40_n02690373_8783.JPEG
subject-03,3,777,1.0601429939,knife,bottle,cr,0776_cl_s03_cr_bottle_40_n04591713_4064.JPEG
subject-03,3,778,0.8505730629,knife,knife,bw,0777_cl_s03_bw_knife_40_n03041632_8618.JPEG
subject-03,3,779,0.6196238995,boat,boat,bw,0778_cl_s03_bw_boat_40_n03344393_2299.JPEG
subject-03,3,780,0.6295111179,oven,oven,cr,0779_cl_s03_cr_oven_40_n04111531_6400.JPEG
subject-03,3,781,0.7111330032,bicycle,bicycle,bw,0780_cl_s03_bw_bicycle_40_n02835271_19935.JPEG
subject-03,3,782,0.7776050568,bird,bird,cr,0781_cl_s03_cr_bird_40_n01616318_1849.JPEG
subject-03,3,783,0.7382068634,oven,oven,cr,0782_cl_s03_cr_oven_40_n04111531_6094.JPEG
subject-03,3,784,0.8288900852,bird,bird,bw,0783_cl_s03_bw_bird_40_n01855672_9876.JPEG
subject-03,3,785,0.6564772129,chair,chair,bw,0784_cl_s03_bw_chair_40_n02791124_2605.JPEG
subject-03,3,786,0.876483202,dog,cat,bw,0785_cl_s03_bw_cat_40_n02123597_32226.JPEG
subject-03,3,787,0.736315012,oven,oven,bw,0786_cl_s03_bw_oven_40_n04111531_1009.JPEG
subject-03,3,788,0.6343181133,boat,boat,bw,0787_cl_s03_bw_boat_40_n03662601_3100.JPEG
subject-03,3,789,0.6703128815,chair,chair,bw,0788_cl_s03_bw_chair_40_n04099969_12913.JPEG
subject-03,3,790,0.87449193,chair,chair,cr,0789_cl_s03_cr_chair_40_n02791124_4640.JPEG
subject-03,3,791,0.7055230141,bottle,bottle,cr,0790_cl_s03_cr_bottle_40_n04557648_214.JPEG
subject-03,3,792,0.6703681946,bicycle,bicycle,cr,0791_cl_s03_cr_bicycle_40_n02835271_15925.JPEG
subject-03,3,793,0.693146944,bird,bird,cr,0792_cl_s03_cr_bird_40_n01601694_13334.JPEG
subject-03,3,794,0.7976391315,clock,clock,cr,0793_cl_s03_cr_clock_40_n02708093_2843.JPEG
subject-03,3,795,0.957007885,dog,dog,bw,0794_cl_s03_bw_dog_40_n02090721_3793.JPEG
subject-03,3,796,0.9483828545,truck,truck,cr,0795_cl_s03_cr_truck_40_n03417042_12486.JPEG
subject-03,3,797,0.7543170452,bicycle,bicycle,cr,0796_cl_s03_cr_bicycle_40_n02835271_2594.JPEG
subject-03,3,798,1.0529370308,knife,knife,bw,0797_cl_s03_bw_knife_40_n03041632_104379.JPEG
subject-03,3,799,1.1568257809,bicycle,knife,cr,0798_cl_s03_cr_knife_40_n03041632_80829.JPEG
subject-03,3,800,0.8092429638,car,car,bw,0799_cl_s03_bw_car_40_n04285008_12539.JPEG
subject-03,3,801,0.8907499313,clock,clock,cr,0800_cl_s03_cr_clock_40_n04548280_2518.JPEG
subject-03,3,802,0.7562229633,clock,clock,bw,0801_cl_s03_bw_clock_40_n03196217_4834.JPEG
subject-03,3,803,0.7651131153,car,car,bw,0802_cl_s03_bw_car_40_n02814533_5947.JPEG
subject-03,3,804,0.7694079876,boat,boat,bw,0803_cl_s03_bw_boat_40_n04612504_4302.JPEG
subject-03,3,805,0.950950861,bottle,bottle,cr,0804_cl_s03_cr_bottle_40_n03983396_4843.JPEG
subject-03,3,806,0.7963809967,keyboard,keyboard,cr,0805_cl_s03_cr_keyboard_40_n04505470_2570.JPEG
subject-03,3,807,1.1785058975,dog,cat,bw,0806_cl_s03_bw_cat_40_n02123394_210.JPEG
subject-03,3,808,0.9927020073,chair,chair,cr,0807_cl_s03_cr_chair_40_n04099969_2267.JPEG
subject-03,3,809,1.0040831566,bear,bear,cr,0808_cl_s03_cr_bear_40_n02134418_21460.JPEG
subject-03,3,810,0.8565671444,bottle,bottle,bw,0809_cl_s03_bw_bottle_40_n04560804_16363.JPEG
subject-03,3,811,0.854090929,cat,bicycle,cr,0810_cl_s03_cr_bicycle_40_n03792782_5232.JPEG
subject-03,3,812,0.748942852,chair,chair,cr,0811_cl_s03_cr_chair_40_n04429376_18127.JPEG
subject-03,3,813,0.9931149483,truck,truck,bw,0812_cl_s03_bw_truck_40_n03796401_25181.JPEG
subject-03,3,814,0.7373290062,cat,cat,bw,0813_cl_s03_bw_cat_40_n02125311_13627.JPEG
subject-03,3,815,1.1739320755,airplane,airplane,cr,0814_cl_s03_cr_airplane_40_n02690373_6212.JPEG
subject-03,3,816,0.8632531166,bicycle,bicycle,cr,0815_cl_s03_cr_bicycle_40_n03792782_5209.JPEG
subject-03,3,817,0.6536448002,bear,boat,cr,0816_cl_s03_cr_boat_40_n03344393_5343.JPEG
subject-03,3,818,0.9902830124,elephant,elephant,bw,0817_cl_s03_bw_elephant_40_n02504458_4979.JPEG
subject-03,3,819,0.997079134,clock,boat,bw,0818_cl_s03_bw_boat_40_n03662601_5232.JPEG
subject-03,3,820,0.8876421452,bicycle,bicycle,bw,0819_cl_s03_bw_bicycle_40_n03792782_11625.JPEG
subject-03,3,821,0.8831138611,car,car,bw,0820_cl_s03_bw_car_40_n04285008_7224.JPEG
subject-03,3,822,1.1191520691,bicycle,bicycle,cr,0821_cl_s03_cr_bicycle_40_n03792782_1030.JPEG
subject-03,3,823,0.9873979092,bird,bird,bw,0822_cl_s03_bw_bird_40_n01820546_6785.JPEG
subject-03,3,824,1.1524631977,bird,bird,bw,0823_cl_s03_bw_bird_40_n02033041_7355.JPEG
subject-03,3,825,0.7970340252,airplane,airplane,bw,0824_cl_s03_bw_airplane_40_n02690373_283.JPEG
subject-03,3,826,0.7634940147,cat,cat,cr,0825_cl_s03_cr_cat_40_n02123597_1534.JPEG
subject-03,3,827,0.9369850159,airplane,airplane,cr,0826_cl_s03_cr_airplane_40_n02690373_3874.JPEG
subject-03,3,828,0.7756581306,clock,chair,bw,0827_cl_s03_bw_chair_40_n04429376_9165.JPEG
subject-03,3,829,0.67374897,boat,boat,bw,0828_cl_s03_bw_boat_40_n04612504_37165.JPEG
subject-03,3,830,0.941024065,cat,cat,bw,0829_cl_s03_bw_cat_40_n02123159_2426.JPEG
subject-03,3,831,0.6251699924,oven,oven,cr,0830_cl_s03_cr_oven_40_n04111531_986.JPEG
subject-03,3,832,0.6540780067,cat,bear,bw,0831_cl_s03_bw_bear_40_n02133161_7032.JPEG
subject-03,3,833,1.0735850334,car,car,cr,0832_cl_s03_cr_car_40_n03100240_17143.JPEG
subject-03,3,834,0.8174338341,knife,knife,bw,0833_cl_s03_bw_knife_40_n03041632_81943.JPEG
subject-03,3,835,0.984498024,bicycle,bicycle,cr,0834_cl_s03_cr_bicycle_40_n03792782_3631.JPEG
subject-03,3,836,0.960848093,bottle,bottle,bw,0835_cl_s03_bw_bottle_40_n03983396_16316.JPEG
subject-03,3,837,0.7345969677,clock,clock,bw,0836_cl_s03_bw_clock_40_n03196217_182.JPEG
subject-03,3,838,0.9412410259,cat,cat,bw,0837_cl_s03_bw_cat_40_n02123394_5075.JPEG
subject-03,3,839,1.0931959152,bottle,bottle,bw,0838_cl_s03_bw_bottle_40_n04560804_2432.JPEG
subject-03,3,840,0.9837808609,car,truck,bw,0839_cl_s03_bw_truck_40_n03796401_10576.JPEG
subject-03,3,841,1.0796501637,bird,bird,bw,0840_cl_s03_bw_bird_40_n02011460_5735.JPEG
subject-03,3,842,1.2782599926,truck,truck,cr,0841_cl_s03_cr_truck_40_n03417042_25947.JPEG
subject-03,3,843,1.3078401089,airplane,airplane,cr,0842_cl_s03_cr_airplane_40_n02690373_2648.JPEG
subject-03,3,844,1.406026125,bear,bear,bw,0843_cl_s03_bw_bear_40_n02132136_17346.JPEG
subject-03,3,845,1.2115678787,dog,dog,cr,0844_cl_s03_cr_dog_40_n02098105_1796.JPEG
subject-03,3,846,1.0331721306,cat,bear,cr,0845_cl_s03_cr_bear_40_n02134418_1314.JPEG
subject-03,3,847,1.0473840237,bicycle,bicycle,cr,0846_cl_s03_cr_bicycle_40_n03792782_11597.JPEG
subject-03,3,848,1.3128681183,knife,knife,cr,0847_cl_s03_cr_knife_40_n03041632_25603.JPEG
subject-03,3,849,1.1337239742,clock,clock,bw,0848_cl_s03_bw_clock_40_n03196217_6083.JPEG
subject-03,3,850,0.9854969978,bottle,bottle,bw,0849_cl_s03_bw_bottle_40_n02823428_11441.JPEG
subject-03,3,851,0.7838160992,clock,bottle,bw,0850_cl_s03_bw_bottle_40_n04557648_140.JPEG
subject-03,3,852,0.7113981247,clock,clock,bw,0851_cl_s03_bw_clock_40_n02708093_870.JPEG
subject-03,3,853,1.4478080273,oven,knife,bw,0852_cl_s03_bw_knife_40_n03041632_49363.JPEG
subject-03,3,854,0.7614121437,car,car,cr,0853_cl_s03_cr_car_40_n03100240_9598.JPEG
subject-03,3,855,0.7524271011,oven,oven,bw,0854_cl_s03_bw_oven_40_n04111531_13809.JPEG
subject-03,3,856,1.2725160122,bear,bear,cr,0855_cl_s03_cr_bear_40_n02133161_10314.JPEG
subject-03,3,857,1.0553572178,bear,bicycle,bw,0856_cl_s03_bw_bicycle_40_n02835271_5607.JPEG
subject-03,3,858,0.7696139812,knife,knife,bw,0857_cl_s03_bw_knife_40_n03041632_40283.JPEG
subject-03,3,859,1.0190329552,cat,dog,cr,0858_cl_s03_cr_dog_40_n02105162_6340.JPEG
subject-03,3,860,0.9089260101,car,car,bw,0859_cl_s03_bw_car_40_n03100240_381.JPEG
subject-03,3,861,0.9690840244,truck,truck,bw,0860_cl_s03_bw_truck_40_n04467665_47560.JPEG
subject-03,3,862,1.5004110336,airplane,airplane,cr,0861_cl_s03_cr_airplane_40_n02690373_1837.JPEG
subject-03,3,863,1.0716149807,airplane,bicycle,bw,0862_cl_s03_bw_bicycle_40_n03792782_52549.JPEG
subject-03,3,864,0.7021861076,airplane,airplane,bw,0863_cl_s03_bw_airplane_40_n02690373_19131.JPEG
subject-03,3,865,NaN,na,bear,cr,0864_cl_s03_cr_bear_40_n02134418_9848.JPEG
subject-03,3,866,NaN,na,cat,bw,0865_cl_s03_bw_cat_40_n02123394_1292.JPEG
subject-03,3,867,0.8854920864,truck,truck,bw,0866_cl_s03_bw_truck_40_n03417042_28394.JPEG
subject-03,3,868,1.116079092,knife,knife,cr,0867_cl_s03_cr_knife_40_n03041632_47743.JPEG
subject-03,3,869,0.7733678818,bottle,bottle,cr,0868_cl_s03_cr_bottle_40_n04579145_1302.JPEG
subject-03,3,870,0.8937618732,bird,bird,bw,0869_cl_s03_bw_bird_40_n01531178_2323.JPEG
subject-03,3,871,0.9752721786,bird,bird,cr,0870_cl_s03_cr_bird_40_n01534433_6401.JPEG
subject-03,3,872,1.2188830376,car,car,cr,0871_cl_s03_cr_car_40_n04285008_2789.JPEG
subject-03,3,873,1.025646925,car,car,cr,0872_cl_s03_cr_car_40_n03100240_5489.JPEG
subject-03,3,874,1.1081380844,car,truck,bw,0873_cl_s03_bw_truck_40_n03796401_5071.JPEG
subject-03,3,875,0.7307949066,clock,clock,bw,0874_cl_s03_bw_clock_40_n02708093_4798.JPEG
subject-03,3,876,0.9022738934,bear,bear,bw,0875_cl_s03_bw_bear_40_n02134418_557.JPEG
subject-03,3,877,0.8171799183,bottle,bottle,bw,0876_cl_s03_bw_bottle_40_n03937543_10618.JPEG
subject-03,3,878,0.999461174,chair,chair,cr,0877_cl_s03_cr_chair_40_n04429376_19101.JPEG
subject-03,3,879,0.8977389336,bottle,bottle,cr,0878_cl_s03_cr_bottle_40_n04591713_5754.JPEG
subject-03,3,880,0.903881073,airplane,airplane,bw,0879_cl_s03_bw_airplane_40_n02690373_21731.JPEG
subject-03,3,881,0.8564729691,chair,chair,cr,0880_cl_s03_cr_chair_40_n04429376_61.JPEG
subject-03,3,882,0.9128630161,chair,chair,bw,0881_cl_s03_bw_chair_40_n04099969_10014.JPEG
subject-03,3,883,0.5733261108,oven,oven,cr,0882_cl_s03_cr_oven_40_n04111531_498.JPEG
subject-03,3,884,0.9724018574,bicycle,bicycle,bw,0883_cl_s03_bw_bicycle_40_n03792782_12663.JPEG
subject-03,3,885,1.4852659702,knife,knife,bw,0884_cl_s03_bw_knife_40_n03041632_20595.JPEG
subject-03,3,886,1.1233839989,car,car,bw,0885_cl_s03_bw_car_40_n02814533_35156.JPEG
subject-03,3,887,1.1736929417,clock,clock,bw,0886_cl_s03_bw_clock_40_n02708093_2670.JPEG
subject-03,3,888,0.7118821144,oven,oven,bw,0887_cl_s03_bw_oven_40_n04111531_5828.JPEG
subject-03,3,889,1.016780138,bicycle,bicycle,bw,0888_cl_s03_bw_bicycle_40_n03792782_26168.JPEG
subject-03,3,890,1.1200780869,cat,cat,cr,0889_cl_s03_cr_cat_40_n02123597_11624.JPEG
subject-03,3,891,1.1338369846,car,car,bw,0890_cl_s03_bw_car_40_n02814533_96791.JPEG
subject-03,3,892,NaN,na,knife,bw,0891_cl_s03_bw_knife_40_n03041632_102887.JPEG
subject-03,3,893,0.6385579109,oven,keyboard,cr,0892_cl_s03_cr_keyboard_40_n03085013_23192.JPEG
subject-03,3,894,0.6215071678,clock,clock,bw,0893_cl_s03_bw_clock_40_n03196217_592.JPEG
subject-03,3,895,1.0575549603,bear,bear,bw,0894_cl_s03_bw_bear_40_n02133161_4899.JPEG
subject-03,3,896,1.0419960022,bicycle,bicycle,bw,0895_cl_s03_bw_bicycle_40_n03792782_1225.JPEG
subject-03,3,897,1.1077780724,bear,cat,cr,0896_cl_s03_cr_cat_40_n02125311_16840.JPEG
subject-03,3,898,1.0719099045,bear,cat,cr,0897_cl_s03_cr_cat_40_n02123159_5429.JPEG
subject-03,3,899,0.816464901,bicycle,bicycle,bw,0898_cl_s03_bw_bicycle_40_n02835271_1175.JPEG
subject-03,3,900,0.6071112156,oven,oven,bw,0899_cl_s03_bw_oven_40_n04111531_11265.JPEG
subject-03,3,901,NaN,na,dog,cr,0900_cl_s03_cr_dog_40_n02094258_2602.JPEG
subject-03,3,902,0.9636650085,truck,truck,bw,0901_cl_s03_bw_truck_40_n04467665_9941.JPEG
subject-03,3,903,0.6860780716,chair,chair,cr,0902_cl_s03_cr_chair_40_n04099969_16330.JPEG
subject-03,3,904,0.8816521168,cat,elephant,bw,0903_cl_s03_bw_elephant_40_n02504013_10543.JPEG
subject-03,3,905,0.966160059,dog,dog,bw,0904_cl_s03_bw_dog_40_n02107142_17111.JPEG
subject-03,3,906,0.877612114,truck,truck,cr,0905_cl_s03_cr_truck_40_n03417042_14000.JPEG
subject-03,3,907,0.7133321762,chair,chair,cr,0906_cl_s03_cr_chair_40_n04429376_3620.JPEG
subject-03,3,908,0.5654940605,boat,boat,cr,0907_cl_s03_cr_boat_40_n04273569_1141.JPEG
subject-03,3,909,0.7561209202,elephant,elephant,cr,0908_cl_s03_cr_elephant_40_n02504458_8615.JPEG
subject-03,3,910,0.6385560036,chair,chair,bw,0909_cl_s03_bw_chair_40_n04429376_20906.JPEG
subject-03,3,911,1.0815958977,dog,bird,cr,0910_cl_s03_cr_bird_40_n01817953_8260.JPEG
subject-03,3,912,1.0021378994,dog,dog,cr,0911_cl_s03_cr_dog_40_n02107142_1550.JPEG
subject-03,3,913,1.0760810375,clock,clock,cr,0912_cl_s03_cr_clock_40_n03196217_4974.JPEG
subject-03,3,914,0.8086659908,airplane,airplane,cr,0913_cl_s03_cr_airplane_40_n02690373_3993.JPEG
subject-03,3,915,1.0760478973,dog,cat,cr,0914_cl_s03_cr_cat_40_n02123597_2360.JPEG
subject-03,3,916,1.1099448204,bear,bear,cr,0915_cl_s03_cr_bear_40_n02134418_4895.JPEG
subject-03,3,917,0.7324399948,oven,oven,cr,0916_cl_s03_cr_oven_40_n04111531_11110.JPEG
subject-03,3,918,0.7310991287,car,car,bw,0917_cl_s03_bw_car_40_n02814533_14771.JPEG
subject-03,3,919,1.4300470352,cat,cat,bw,0918_cl_s03_bw_cat_40_n02124075_10611.JPEG
subject-03,3,920,0.8120639324,chair,chair,cr,0919_cl_s03_cr_chair_40_n04099969_2398.JPEG
subject-03,3,921,0.8184940815,oven,oven,cr,0920_cl_s03_cr_oven_40_n04111531_9844.JPEG
subject-03,3,922,1.1844670773,knife,knife,bw,0921_cl_s03_bw_knife_40_n03041632_9406.JPEG
subject-03,3,923,0.8446922302,dog,bear,bw,0922_cl_s03_bw_bear_40_n02134084_5004.JPEG
subject-03,3,924,0.7729871273,car,dog,bw,0923_cl_s03_bw_dog_40_n02111129_6679.JPEG
subject-03,3,925,0.8634328842,elephant,elephant,bw,0924_cl_s03_bw_elephant_40_n02504458_6902.JPEG
subject-03,3,926,0.8154649734,knife,knife,bw,0925_cl_s03_bw_knife_40_n03041632_38610.JPEG
subject-03,3,927,0.7138221264,chair,chair,cr,0926_cl_s03_cr_chair_40_n04429376_10128.JPEG
subject-03,3,928,0.9085929394,knife,knife,bw,0927_cl_s03_bw_knife_40_n03041632_86251.JPEG
subject-03,3,929,1.4305660725,elephant,elephant,bw,0928_cl_s03_bw_elephant_40_n02504458_1519.JPEG
subject-03,3,930,1.3064250946,bear,bear,bw,0929_cl_s03_bw_bear_40_n02134084_7729.JPEG
subject-03,3,931,0.6882250309,boat,boat,cr,0930_cl_s03_cr_boat_40_n02951358_4826.JPEG
subject-03,3,932,0.7401161194,elephant,elephant,cr,0931_cl_s03_cr_elephant_40_n02504458_4336.JPEG
subject-03,3,933,0.9441361427,dog,dog,cr,0932_cl_s03_cr_dog_40_n02091831_8827.JPEG
subject-03,3,934,0.8342108727,bottle,bottle,cr,0933_cl_s03_cr_bottle_40_n04579145_54.JPEG
subject-03,3,935,0.7164440155,oven,oven,cr,0934_cl_s03_cr_oven_40_n04111531_4750.JPEG
subject-03,3,936,0.7217869759,keyboard,keyboard,bw,0935_cl_s03_bw_keyboard_40_n03085013_1070.JPEG
subject-03,3,937,1.3481800556,dog,dog,cr,0936_cl_s03_cr_dog_40_n02112706_2952.JPEG
subject-03,3,938,0.9165999889,knife,knife,bw,0937_cl_s03_bw_knife_40_n03041632_10802.JPEG
subject-03,3,939,0.7600309849,bird,bird,cr,0938_cl_s03_cr_bird_40_n01558993_11379.JPEG
subject-03,3,940,1.3270299435,clock,clock,bw,0939_cl_s03_bw_clock_40_n04548280_8348.JPEG
subject-03,3,941,0.9078600407,truck,truck,cr,0940_cl_s03_cr_truck_40_n03417042_4574.JPEG
subject-03,3,942,0.774189949,elephant,elephant,bw,0941_cl_s03_bw_elephant_40_n02504458_7914.JPEG
subject-03,3,943,0.6186139584,boat,boat,cr,0942_cl_s03_cr_boat_40_n02951358_10893.JPEG
subject-03,3,944,1.0095059872,boat,boat,bw,0943_cl_s03_bw_boat_40_n04612504_11214.JPEG
subject-03,3,945,0.8075971603,bottle,bottle,cr,0944_cl_s03_cr_bottle_40_n02823428_825.JPEG
subject-03,3,946,0.8656539917,bear,bottle,cr,0945_cl_s03_cr_bottle_40_n03983396_3164.JPEG
subject-03,3,947,0.733645916,boat,truck,bw,0946_cl_s03_bw_truck_40_n03417042_3307.JPEG
subject-03,3,948,1.1080751419,bird,bird,cr,0947_cl_s03_cr_bird_40_n02018795_1573.JPEG
subject-03,3,949,0.9118819237,car,car,cr,0948_cl_s03_cr_car_40_n03100240_12995.JPEG
subject-03,3,950,1.1861040592,bird,dog,cr,0949_cl_s03_cr_dog_40_n02100735_2525.JPEG
subject-03,3,951,0.9971930981,boat,boat,cr,0950_cl_s03_cr_boat_40_n04612504_8942.JPEG
subject-03,3,952,1.1880710125,dog,bear,bw,0951_cl_s03_bw_bear_40_n02134084_22603.JPEG
subject-03,3,953,0.7405359745,cat,cat,cr,0952_cl_s03_cr_cat_40_n02123394_2903.JPEG
subject-03,3,954,0.8992152214,bird,bird,cr,0953_cl_s03_cr_bird_40_n02037110_11551.JPEG
subject-03,3,955,1.0131149292,boat,boat,bw,0954_cl_s03_bw_boat_40_n04273569_12917.JPEG
subject-03,3,956,0.9031200409,dog,bear,bw,0955_cl_s03_bw_bear_40_n02134084_22862.JPEG
subject-03,3,957,1.1531479359,bicycle,bicycle,cr,0956_cl_s03_cr_bicycle_40_n03792782_9396.JPEG
subject-03,3,958,1.0728240013,chair,chair,cr,0957_cl_s03_cr_chair_40_n02791124_9124.JPEG
subject-03,3,959,1.2550759315,bear,bear,cr,0958_cl_s03_cr_bear_40_n02132136_11149.JPEG
subject-03,3,960,0.9499540329,dog,dog,cr,0959_cl_s03_cr_dog_40_n02101556_7442.JPEG
subject-03,3,961,0.8641638756,bear,bear,bw,0960_cl_s03_bw_bear_40_n02133161_2880.JPEG
subject-03,3,962,0.8224849701,chair,chair,cr,0961_cl_s03_cr_chair_40_n03376595_820.JPEG
subject-03,3,963,0.7988548279,airplane,airplane,cr,0962_cl_s03_cr_airplane_40_n02690373_5462.JPEG
subject-03,3,964,0.735104084,bicycle,bicycle,cr,0963_cl_s03_cr_bicycle_40_n02835271_5403.JPEG
subject-03,3,965,0.7633860111,bicycle,bicycle,cr,0964_cl_s03_cr_bicycle_40_n02835271_31431.JPEG
subject-03,3,966,1.1138730049,bear,cat,cr,0965_cl_s03_cr_cat_40_n02123394_8250.JPEG
subject-03,3,967,1.212018013,bird,cat,cr,0966_cl_s03_cr_cat_40_n02125311_26497.JPEG
subject-03,3,968,1.0636940002,bear,bear,cr,0967_cl_s03_cr_bear_40_n02134084_6343.JPEG
subject-03,3,969,0.9082858562,boat,boat,cr,0968_cl_s03_cr_boat_40_n04612504_20553.JPEG
subject-03,3,970,0.6902689934,oven,oven,bw,0969_cl_s03_bw_oven_40_n04111531_7600.JPEG
subject-03,3,971,0.6563539505,clock,clock,cr,0970_cl_s03_cr_clock_40_n04548280_596.JPEG
subject-03,3,972,1.4012629986,knife,knife,bw,0971_cl_s03_bw_knife_40_n03041632_7448.JPEG
subject-03,3,973,0.9918479919,clock,car,bw,0972_cl_s03_bw_car_40_n03100240_7113.JPEG
subject-03,3,974,1.2176721096,bottle,bottle,bw,0973_cl_s03_bw_bottle_40_n04557648_9903.JPEG
subject-03,3,975,0.9855179787,truck,truck,cr,0974_cl_s03_cr_truck_40_n03796401_4309.JPEG
subject-03,3,976,1.1052060127,elephant,elephant,cr,0975_cl_s03_cr_elephant_40_n02504013_3141.JPEG
subject-03,3,977,0.879529953,knife,knife,bw,0976_cl_s03_bw_knife_40_n03041632_21017.JPEG
subject-03,3,978,1.2484140396,dog,dog,bw,0977_cl_s03_bw_dog_40_n02086910_6630.JPEG
subject-03,3,979,0.7303411961,airplane,airplane,cr,0978_cl_s03_cr_airplane_40_n02690373_6999.JPEG
subject-03,3,980,0.6883721352,cat,cat,cr,0979_cl_s03_cr_cat_40_n02124075_862.JPEG
subject-03,3,981,1.163146019,boat,elephant,bw,0980_cl_s03_bw_elephant_40_n02504458_4763.JPEG
subject-03,3,982,0.8473160267,keyboard,keyboard,bw,0981_cl_s03_bw_keyboard_40_n04505470_8148.JPEG
subject-03,3,983,1.3137631416,bear,bear,bw,0982_cl_s03_bw_bear_40_n02132136_1661.JPEG
subject-03,3,984,0.8965258598,car,car,cr,0983_cl_s03_cr_car_40_n04285008_10825.JPEG
subject-03,3,985,0.7563920021,chair,chair,cr,0984_cl_s03_cr_chair_40_n04429376_10628.JPEG
subject-03,3,986,0.7302751541,bicycle,bicycle,bw,0985_cl_s03_bw_bicycle_40_n02835271_695.JPEG
subject-03,3,987,0.6121079922,oven,oven,bw,0986_cl_s03_bw_oven_40_n04111531_2042.JPEG
subject-03,3,988,1.4408409595,knife,knife,cr,0987_cl_s03_cr_knife_40_n03041632_83826.JPEG
subject-03,3,989,NaN,na,oven,cr,0988_cl_s03_cr_oven_40_n04111531_17006.JPEG
subject-03,3,990,0.721198082,oven,oven,bw,0989_cl_s03_bw_oven_40_n04111531_1992.JPEG
subject-03,3,991,1.05012393,car,car,bw,0990_cl_s03_bw_car_40_n02814533_82574.JPEG
subject-03,3,992,0.9160928726,oven,cat,cr,0991_cl_s03_cr_cat_40_n02125311_34817.JPEG
subject-03,3,993,1.1580400467,bottle,bottle,cr,0992_cl_s03_cr_bottle_40_n03937543_3759.JPEG
subject-03,3,994,1.2020409107,dog,bear,cr,0993_cl_s03_cr_bear_40_n02134084_23062.JPEG
subject-03,3,995,0.8967599869,chair,chair,bw,0994_cl_s03_bw_chair_40_n02791124_1135.JPEG
subject-03,3,996,0.9405591488,bird,bird,cr,0995_cl_s03_cr_bird_40_n01819313_3893.JPEG
subject-03,3,997,0.7691879272,keyboard,keyboard,bw,0996_cl_s03_bw_keyboard_40_n03085013_25568.JPEG
subject-03,3,998,0.9135107994,truck,truck,cr,0997_cl_s03_cr_truck_40_n03417042_28078.JPEG
subject-03,3,999,0.7955710888,airplane,airplane,cr,0998_cl_s03_cr_airplane_40_n02690373_5870.JPEG
subject-03,3,1000,0.7696027756,boat,boat,cr,0999_cl_s03_cr_boat_40_n03344393_6758.JPEG
subject-03,3,1001,0.7845189571,cat,cat,cr,1000_cl_s03_cr_cat_40_n02123159_1677.JPEG
subject-03,3,1002,0.6581530571,airplane,airplane,cr,1001_cl_s03_cr_airplane_40_n02690373_3912.JPEG
subject-03,3,1003,0.8784358501,truck,truck,bw,1002_cl_s03_bw_truck_40_n04467665_23905.JPEG
subject-03,3,1004,0.8134810925,elephant,elephant,cr,1003_cl_s03_cr_elephant_40_n02504013_13422.JPEG
subject-03,3,1005,0.8173720837,airplane,airplane,cr,1004_cl_s03_cr_airplane_40_n02690373_9662.JPEG
subject-03,3,1006,1.2459449768,bear,cat,bw,1005_cl_s03_bw_cat_40_n02125311_17890.JPEG
subject-03,3,1007,0.9416849613,truck,truck,cr,1006_cl_s03_cr_truck_40_n04467665_16069.JPEG
subject-03,3,1008,1.0697641373,bird,bird,bw,1007_cl_s03_bw_bird_40_n01855032_4926.JPEG
subject-03,3,1009,0.7600290775,keyboard,keyboard,bw,1008_cl_s03_bw_keyboard_40_n04505470_4086.JPEG
subject-03,3,1010,0.8881180286,bicycle,bicycle,cr,1009_cl_s03_cr_bicycle_40_n02835271_8273.JPEG
subject-03,3,1011,0.8396770954,clock,clock,cr,1010_cl_s03_cr_clock_40_n02708093_6672.JPEG
subject-03,3,1012,1.2108819485,bear,bear,cr,1011_cl_s03_cr_bear_40_n02134084_10224.JPEG
subject-03,3,1013,0.9179611206,bottle,bottle,bw,1012_cl_s03_bw_bottle_40_n03983396_20197.JPEG
subject-03,3,1014,1.0238649845,dog,dog,cr,1013_cl_s03_cr_dog_40_n02110185_335.JPEG
subject-03,3,1015,1.0530979633,dog,dog,bw,1014_cl_s03_bw_dog_40_n02093754_7261.JPEG
subject-03,3,1016,0.8131299019,boat,boat,bw,1015_cl_s03_bw_boat_40_n02951358_6147.JPEG
subject-03,3,1017,0.7737438679,dog,dog,cr,1016_cl_s03_cr_dog_40_n02113624_1203.JPEG
subject-03,3,1018,0.8781740665,knife,knife,bw,1017_cl_s03_bw_knife_40_n03041632_35116.JPEG
subject-03,3,1019,0.9383640289,keyboard,chair,cr,1018_cl_s03_cr_chair_40_n03376595_12440.JPEG
subject-03,3,1020,0.8671548367,dog,dog,cr,1019_cl_s03_cr_dog_40_n02105855_10004.JPEG
subject-03,3,1021,0.8040299416,cat,cat,bw,1020_cl_s03_bw_cat_40_n02123394_6869.JPEG
subject-03,3,1022,0.7397620678,boat,boat,bw,1021_cl_s03_bw_boat_40_n02951358_30269.JPEG
subject-03,3,1023,0.9600732327,bird,bird,cr,1022_cl_s03_cr_bird_40_n01843383_8077.JPEG
subject-03,3,1024,0.6961841583,airplane,airplane,cr,1023_cl_s03_cr_airplane_40_n02690373_2070.JPEG
subject-03,3,1025,0.8802709579,keyboard,keyboard,cr,1024_cl_s03_cr_keyboard_40_n04505470_1833.JPEG
subject-03,3,1026,0.8160331249,bottle,bottle,cr,1025_cl_s03_cr_bottle_40_n03983396_899.JPEG
subject-03,3,1027,0.8986349106,dog,cat,bw,1026_cl_s03_bw_cat_40_n02123597_7740.JPEG
subject-03,3,1028,0.8187160492,oven,oven,bw,1027_cl_s03_bw_oven_40_n04111531_4785.JPEG
subject-03,3,1029,0.6633419991,car,car,bw,1028_cl_s03_bw_car_40_n03100240_14193.JPEG
subject-03,3,1030,0.7609899044,chair,chair,cr,1029_cl_s03_cr_chair_40_n03376595_2898.JPEG
subject-03,3,1031,0.9350259304,knife,keyboard,bw,1030_cl_s03_bw_keyboard_40_n03085013_5141.JPEG
subject-03,3,1032,0.9338059425,boat,boat,cr,1031_cl_s03_cr_boat_40_n03344393_8499.JPEG
subject-03,3,1033,0.8542320728,truck,truck,bw,1032_cl_s03_bw_truck_40_n03417042_4774.JPEG
subject-03,3,1034,0.8823080063,elephant,elephant,bw,1033_cl_s03_bw_elephant_40_n02504013_3540.JPEG
subject-03,3,1035,0.7717030048,truck,truck,cr,1034_cl_s03_cr_truck_40_n04467665_37526.JPEG
subject-03,3,1036,0.9838399887,bear,bear,bw,1035_cl_s03_bw_bear_40_n02133161_1823.JPEG
subject-03,3,1037,0.8125519753,keyboard,keyboard,bw,1036_cl_s03_bw_keyboard_40_n04505470_2055.JPEG
subject-03,3,1038,0.7861480713,car,car,cr,1037_cl_s03_cr_car_40_n02814533_32461.JPEG
subject-03,3,1039,0.6142668724,oven,oven,bw,1038_cl_s03_bw_oven_40_n04111531_21055.JPEG
subject-03,3,1040,0.7184770107,bear,bear,cr,1039_cl_s03_cr_bear_40_n02133161_5177.JPEG
subject-03,3,1041,0.8167521954,airplane,airplane,bw,1040_cl_s03_bw_airplane_40_n02690373_2787.JPEG
subject-03,3,1042,0.9073967934,elephant,elephant,bw,1041_cl_s03_bw_elephant_40_n02504013_6811.JPEG
subject-03,3,1043,0.6679677963,clock,clock,cr,1042_cl_s03_cr_clock_40_n04548280_1438.JPEG
subject-03,3,1044,1.1644630432,oven,oven,cr,1043_cl_s03_cr_oven_40_n04111531_18645.JPEG
subject-03,3,1045,0.6865668297,oven,chair,cr,1044_cl_s03_cr_chair_40_n04429376_31768.JPEG
subject-03,3,1046,0.9771640301,bottle,bottle,bw,1045_cl_s03_bw_bottle_40_n04560804_16115.JPEG
subject-03,3,1047,1.0051150322,bird,bird,cr,1046_cl_s03_cr_bird_40_n01537544_15048.JPEG
subject-03,3,1048,0.8035531044,boat,boat,cr,1047_cl_s03_cr_boat_40_n02951358_5718.JPEG
subject-03,3,1049,1.1545259953,elephant,cat,bw,1048_cl_s03_bw_cat_40_n02125311_34158.JPEG
subject-03,3,1050,1.0684189796,bicycle,chair,bw,1049_cl_s03_bw_chair_40_n02791124_1734.JPEG
subject-03,3,1051,0.7592389584,airplane,airplane,cr,1050_cl_s03_cr_airplane_40_n02690373_1912.JPEG
subject-03,3,1052,1.1175501347,knife,knife,bw,1051_cl_s03_bw_knife_40_n03041632_16826.JPEG
subject-03,3,1053,0.9154770374,keyboard,keyboard,cr,1052_cl_s03_cr_keyboard_40_n03085013_7992.JPEG
subject-03,3,1054,0.6890289783,bicycle,bottle,bw,1053_cl_s03_bw_bottle_40_n04557648_373.JPEG
subject-03,3,1055,0.7869739532,cat,cat,cr,1054_cl_s03_cr_cat_40_n02124075_14094.JPEG
subject-03,3,1056,0.8368399143,bicycle,bicycle,cr,1055_cl_s03_cr_bicycle_40_n02835271_13131.JPEG
subject-03,3,1057,0.7934689522,dog,cat,cr,1056_cl_s03_cr_cat_40_n02125311_74009.JPEG
subject-03,3,1058,0.5975558758,clock,clock,cr,1057_cl_s03_cr_clock_40_n03196217_3943.JPEG
subject-03,3,1059,0.9339120388,truck,truck,cr,1058_cl_s03_cr_truck_40_n04467665_71927.JPEG
subject-03,3,1060,0.816008091,boat,boat,bw,1059_cl_s03_bw_boat_40_n03344393_2387.JPEG
subject-03,3,1061,0.6762909889,clock,clock,bw,1060_cl_s03_bw_clock_40_n02708093_7535.JPEG
subject-03,3,1062,0.9730508327,knife,knife,bw,1061_cl_s03_bw_knife_40_n03041632_39952.JPEG
subject-03,3,1063,NaN,na,chair,bw,1062_cl_s03_bw_chair_40_n04099969_4662.JPEG
subject-03,3,1064,0.8238179684,airplane,airplane,bw,1063_cl_s03_bw_airplane_40_n02690373_13324.JPEG
subject-03,3,1065,1.1120500565,cat,cat,bw,1064_cl_s03_bw_cat_40_n02123597_6956.JPEG
subject-03,3,1066,0.7732281685,bicycle,bicycle,cr,1065_cl_s03_cr_bicycle_40_n03792782_17337.JPEG
subject-03,3,1067,0.808052063,oven,bird,cr,1066_cl_s03_cr_bird_40_n01798484_14529.JPEG
subject-03,3,1068,0.7364549637,bottle,bottle,bw,1067_cl_s03_bw_bottle_40_n04560804_9504.JPEG
subject-03,3,1069,0.8704769611,car,car,cr,1068_cl_s03_cr_car_40_n02814533_8994.JPEG
subject-03,3,1070,0.7685260773,bottle,bottle,cr,1069_cl_s03_cr_bottle_40_n04557648_23624.JPEG
subject-03,3,1071,1.1212601662,elephant,elephant,cr,1070_cl_s03_cr_elephant_40_n02504458_4.JPEG
subject-03,3,1072,0.6885960102,oven,oven,bw,1071_cl_s03_bw_oven_40_n04111531_22466.JPEG
subject-03,3,1073,0.6864719391,chair,chair,bw,1072_cl_s03_bw_chair_40_n02791124_9120.JPEG
subject-03,3,1074,0.6225891113,chair,chair,bw,1073_cl_s03_bw_chair_40_n02791124_11395.JPEG
subject-03,3,1075,0.7591300011,bicycle,bicycle,bw,1074_cl_s03_bw_bicycle_40_n02835271_10596.JPEG
subject-03,3,1076,0.7277460098,bottle,bottle,cr,1075_cl_s03_cr_bottle_40_n04560804_13773.JPEG
subject-03,3,1077,0.7103230953,chair,chair,bw,1076_cl_s03_bw_chair_40_n04099969_37247.JPEG
subject-03,3,1078,0.78404212,keyboard,keyboard,cr,1077_cl_s03_cr_keyboard_40_n03085013_3002.JPEG
subject-03,3,1079,0.9044969082,knife,knife,bw,1078_cl_s03_bw_knife_40_n03041632_86783.JPEG
subject-03,3,1080,0.8866178989,bird,bird,cr,1079_cl_s03_cr_bird_40_n01818515_7890.JPEG
subject-03,3,1081,0.9445431232,bicycle,bicycle,bw,1080_cl_s03_bw_bicycle_40_n03792782_3774.JPEG
subject-03,3,1082,0.956343174,truck,truck,cr,1081_cl_s03_cr_truck_40_n04467665_43978.JPEG
subject-03,3,1083,1.0929319859,airplane,airplane,bw,1082_cl_s03_bw_airplane_40_n02690373_3050.JPEG
subject-03,3,1084,1.0991251469,knife,oven,cr,1083_cl_s03_cr_oven_40_n04111531_6204.JPEG
subject-03,3,1085,1.0116839409,oven,oven,bw,1084_cl_s03_bw_oven_40_n04111531_6851.JPEG
subject-03,3,1086,1.1319520473,dog,dog,bw,1085_cl_s03_bw_dog_40_n02106382_8573.JPEG
subject-03,3,1087,0.8522260189,chair,chair,cr,1086_cl_s03_cr_chair_40_n04099969_18182.JPEG
subject-03,3,1088,0.8738329411,bear,dog,cr,1087_cl_s03_cr_dog_40_n02101556_3096.JPEG
subject-03,3,1089,0.8157730103,bottle,bottle,cr,1088_cl_s03_cr_bottle_40_n02823428_7033.JPEG
subject-03,3,1090,0.8059771061,elephant,elephant,bw,1089_cl_s03_bw_elephant_40_n02504013_3939.JPEG
subject-03,3,1091,0.7671449184,oven,oven,bw,1090_cl_s03_bw_oven_40_n04111531_5357.JPEG
subject-03,3,1092,0.7953619957,elephant,elephant,bw,1091_cl_s03_bw_elephant_40_n02504458_10188.JPEG
subject-03,3,1093,0.6482949257,boat,boat,bw,1092_cl_s03_bw_boat_40_n04273569_28227.JPEG
subject-03,3,1094,1.0219221115,bicycle,bicycle,bw,1093_cl_s03_bw_bicycle_40_n02835271_1686.JPEG
subject-03,3,1095,0.7733139992,bird,bird,bw,1094_cl_s03_bw_bird_40_n01592084_3782.JPEG
subject-03,3,1096,1.1705272198,truck,truck,cr,1095_cl_s03_cr_truck_40_n03417042_16389.JPEG
subject-03,3,1097,1.2284989357,bird,bird,bw,1096_cl_s03_bw_bird_40_n01531178_2889.JPEG
subject-03,3,1098,1.0104861259,knife,knife,cr,1097_cl_s03_cr_knife_40_n03041632_17338.JPEG
subject-03,3,1099,0.7090408802,bird,bird,cr,1098_cl_s03_cr_bird_40_n02009229_5962.JPEG
subject-03,3,1100,0.6914551258,elephant,elephant,bw,1099_cl_s03_bw_elephant_40_n02504013_12615.JPEG
subject-03,3,1101,1.0572459698,knife,knife,cr,1100_cl_s03_cr_knife_40_n03041632_33075.JPEG
subject-03,3,1102,1.015403986,bicycle,bicycle,bw,1101_cl_s03_bw_bicycle_40_n02835271_8265.JPEG
subject-03,3,1103,0.7839899063,clock,clock,cr,1102_cl_s03_cr_clock_40_n02708093_462.JPEG
subject-03,3,1104,0.8038339615,airplane,airplane,cr,1103_cl_s03_cr_airplane_40_n02690373_1277.JPEG
subject-03,3,1105,1.3077020645,dog,dog,bw,1104_cl_s03_bw_dog_40_n02110185_2447.JPEG
subject-03,3,1106,1.1111600399,bear,bear,cr,1105_cl_s03_cr_bear_40_n02134084_5027.JPEG
subject-03,3,1107,0.7798709869,boat,boat,bw,1106_cl_s03_bw_boat_40_n03662601_8171.JPEG
subject-03,3,1108,NaN,na,bottle,bw,1107_cl_s03_bw_bottle_40_n03937543_1110.JPEG
subject-03,3,1109,0.6742899418,car,car,cr,1108_cl_s03_cr_car_40_n02814533_1165.JPEG
subject-03,3,1110,0.9403090477,truck,truck,bw,1109_cl_s03_bw_truck_40_n03417042_10229.JPEG
subject-03,3,1111,0.8064022064,bird,bird,cr,1110_cl_s03_cr_bird_40_n02037110_8732.JPEG
subject-03,3,1112,1.0340278149,keyboard,keyboard,bw,1111_cl_s03_bw_keyboard_40_n03085013_21243.JPEG
subject-03,3,1113,0.7462360859,bottle,bottle,bw,1112_cl_s03_bw_bottle_40_n02823428_6366.JPEG
subject-03,3,1114,0.6731081009,bear,elephant,cr,1113_cl_s03_cr_elephant_40_n02504013_6552.JPEG
subject-03,3,1115,0.8927679062,truck,truck,cr,1114_cl_s03_cr_truck_40_n03417042_1656.JPEG
subject-03,3,1116,0.9265630245,dog,dog,cr,1115_cl_s03_cr_dog_40_n02110806_2586.JPEG
subject-03,3,1117,1.1084930897,chair,chair,bw,1116_cl_s03_bw_chair_40_n04099969_22528.JPEG
subject-03,3,1118,1.0743222237,cat,cat,bw,1117_cl_s03_bw_cat_40_n02123394_2725.JPEG
subject-03,3,1119,0.9213321209,airplane,bird,bw,1118_cl_s03_bw_bird_40_n01537544_2711.JPEG
