subj,session,trial,rt,object_response,category,condition,imagename
subject-06,1,1,0.999351024627686,boat,boat,0.03,0000_nse_s06_0.03_boat_10_n02951358_13240.JPEG
subject-06,1,2,0.934958934783936,bird,boat,0.60,0001_nse_s06_0.60_boat_10_n03662601_8778.JPEG
subject-06,1,3,0.597440958023071,airplane,airplane,0.35,0002_nse_s06_0.35_airplane_10_n02690373_10309.JPEG
subject-06,1,4,0.598180055618286,bicycle,bicycle,0.10,0003_nse_s06_0.10_bicycle_10_n02835271_393.JPEG
subject-06,1,5,1.09487986564636,dog,bottle,0.35,0004_nse_s06_0.35_bottle_10_n04557648_3104.JPEG
subject-06,1,6,0.556768894195557,knife,knife,0.00,0005_nse_s06_0.00_knife_10_n03041632_7064.JPEG
subject-06,1,7,0.719689130783081,oven,chair,0.90,0006_nse_s06_0.90_chair_10_n04429376_15286.JPEG
subject-06,1,8,1.44214391708374,elephant,bicycle,0.20,0007_nse_s06_0.20_bicycle_10_n03792782_13110.JPEG
subject-06,1,9,0.663471937179565,cat,oven,0.10,0008_nse_s06_0.10_oven_10_n04111531_2133.JPEG
subject-06,1,10,0.795650959014893,car,bicycle,0.90,0009_nse_s06_0.90_bicycle_10_n02835271_12945.JPEG
subject-06,1,11,1.01712393760681,clock,knife,0.10,0010_nse_s06_0.10_knife_10_n03041632_80317.JPEG
subject-06,1,12,0.541741132736206,chair,chair,0.05,0011_nse_s06_0.05_chair_10_n03376595_9838.JPEG
subject-06,1,13,0.69355583190918,cat,airplane,0.90,0012_nse_s06_0.90_airplane_10_n02690373_1021.JPEG
subject-06,1,14,0.618152856826782,bear,truck,0.90,0013_nse_s06_0.90_truck_10_n04467665_24566.JPEG
subject-06,1,15,0.594328165054321,airplane,airplane,0.05,0014_nse_s06_0.05_airplane_10_n02690373_10114.JPEG
subject-06,1,16,0.986181974411011,dog,dog,0.00,0015_nse_s06_0.00_dog_10_n02102040_5915.JPEG
subject-06,1,17,0.523941040039062,airplane,airplane,0.10,0016_nse_s06_0.10_airplane_10_n02690373_5382.JPEG
subject-06,1,18,1.14670896530151,bottle,bottle,0.10,0017_nse_s06_0.10_bottle_10_n04557648_3637.JPEG
subject-06,1,19,0.73841404914856,airplane,oven,0.20,0018_nse_s06_0.20_oven_10_n04111531_16161.JPEG
subject-06,1,20,0.816652059555054,dog,bear,0.20,0019_nse_s06_0.20_bear_10_n02134084_4859.JPEG
subject-06,1,21,0.688423871994019,cat,elephant,0.60,0020_nse_s06_0.60_elephant_10_n02504458_10428.JPEG
subject-06,1,22,0.588703870773315,airplane,airplane,0.03,0021_nse_s06_0.03_airplane_10_n02690373_18848.JPEG
subject-06,1,23,0.651531934738159,boat,boat,0.10,0022_nse_s06_0.10_boat_10_n03662601_8626.JPEG
subject-06,1,24,0.689183950424194,knife,knife,0.03,0023_nse_s06_0.03_knife_10_n03041632_13656.JPEG
subject-06,1,25,0.664816856384277,chair,chair,0.03,0024_nse_s06_0.03_chair_10_n03376595_9025.JPEG
subject-06,1,26,0.794872999191284,elephant,bicycle,0.60,0025_nse_s06_0.60_bicycle_10_n03792782_4550.JPEG
subject-06,1,27,0.564785003662109,bicycle,bicycle,0.05,0026_nse_s06_0.05_bicycle_10_n02835271_7326.JPEG
subject-06,1,28,0.670677900314331,cat,oven,0.60,0027_nse_s06_0.60_oven_10_n04111531_5038.JPEG
subject-06,1,29,0.616942167282104,clock,clock,0.00,0028_nse_s06_0.00_clock_10_n02708093_4692.JPEG
subject-06,1,30,0.692879915237427,bottle,bottle,0.00,0029_nse_s06_0.00_bottle_10_n03937543_26.JPEG
subject-06,1,31,1.10923099517822,bird,bird,0.60,0030_nse_s06_0.60_bird_10_n02018207_11847.JPEG
subject-06,1,32,0.785086870193481,elephant,elephant,0.35,0031_nse_s06_0.35_elephant_10_n02504458_2494.JPEG
subject-06,1,33,0.678002834320068,oven,oven,0.05,0032_nse_s06_0.05_oven_10_n04111531_7221.JPEG
subject-06,1,34,0.853892087936401,keyboard,keyboard,0.03,0033_nse_s06_0.03_keyboard_10_n03085013_3148.JPEG
subject-06,1,35,1.00719594955444,clock,bottle,0.20,0034_nse_s06_0.20_bottle_10_n04557648_9773.JPEG
subject-06,1,36,0.869414091110229,truck,bicycle,0.90,0035_nse_s06_0.90_bicycle_10_n02835271_19213.JPEG
subject-06,1,37,0.72399377822876,cat,bottle,0.35,0036_nse_s06_0.35_bottle_10_n04557648_10354.JPEG
subject-06,1,38,0.854144811630249,truck,truck,0.00,0037_nse_s06_0.00_truck_10_n04467665_75921.JPEG
subject-06,1,39,1.50005483627319,bird,boat,0.20,0038_nse_s06_0.20_boat_10_n02951358_9257.JPEG
subject-06,1,40,0.551615953445435,keyboard,keyboard,0.05,0039_nse_s06_0.05_keyboard_10_n03085013_19345.JPEG
subject-06,1,41,0.706156015396118,oven,clock,0.05,0040_nse_s06_0.05_clock_10_n02708093_1372.JPEG
subject-06,1,42,0.906604051589966,boat,car,0.90,0041_nse_s06_0.90_car_10_n03100240_17517.JPEG
subject-06,1,43,0.653141021728516,keyboard,keyboard,0.20,0042_nse_s06_0.20_keyboard_10_n03085013_7992.JPEG
subject-06,1,44,0.861538887023926,car,car,0.60,0043_nse_s06_0.60_car_10_n03100240_159.JPEG
subject-06,1,45,0.921176910400391,bird,cat,0.03,0044_nse_s06_0.03_cat_10_n02123597_259.JPEG
subject-06,1,46,0.643922090530396,clock,truck,0.90,0045_nse_s06_0.90_truck_10_n03417042_26713.JPEG
subject-06,1,47,0.627492904663086,chair,bear,0.90,0046_nse_s06_0.90_bear_10_n02132136_760.JPEG
subject-06,1,48,0.749868869781494,boat,boat,0.03,0047_nse_s06_0.03_boat_10_n04273569_20700.JPEG
subject-06,1,49,0.841493844985962,bear,bear,0.20,0048_nse_s06_0.20_bear_10_n02133161_628.JPEG
subject-06,1,50,0.579846858978271,cat,dog,0.60,0049_nse_s06_0.60_dog_10_n02107574_411.JPEG
subject-06,1,51,0.649674892425537,bicycle,bicycle,0.05,0050_nse_s06_0.05_bicycle_10_n02835271_13439.JPEG
subject-06,1,52,0.894155025482178,bear,dog,0.00,0051_nse_s06_0.00_dog_10_n02091134_18590.JPEG
subject-06,1,53,0.534852981567383,keyboard,keyboard,0.00,0052_nse_s06_0.00_keyboard_10_n03085013_12175.JPEG
subject-06,1,54,1.07396793365479,bicycle,bird,0.90,0053_nse_s06_0.90_bird_10_n02017213_4855.JPEG
subject-06,1,55,0.688274145126343,clock,clock,0.10,0054_nse_s06_0.10_clock_10_n02708093_1023.JPEG
subject-06,1,56,0.705044984817505,car,cat,0.60,0055_nse_s06_0.60_cat_10_n02123394_4710.JPEG
subject-06,1,57,0.927342176437378,cat,bear,0.05,0056_nse_s06_0.05_bear_10_n02133161_178.JPEG
subject-06,1,58,0.851675987243652,bicycle,clock,0.60,0057_nse_s06_0.60_clock_10_n04548280_1166.JPEG
subject-06,1,59,0.873733997344971,car,car,0.90,0058_nse_s06_0.90_car_10_n03100240_18967.JPEG
subject-06,1,60,0.742045879364014,bear,bear,0.35,0059_nse_s06_0.35_bear_10_n02132136_1515.JPEG
subject-06,1,61,1.4424159526825,bird,oven,0.20,0060_nse_s06_0.20_oven_10_n04111531_520.JPEG
subject-06,1,62,1.09676480293274,elephant,elephant,0.00,0061_nse_s06_0.00_elephant_10_n02504458_6792.JPEG
subject-06,1,63,1.37723302841187,elephant,elephant,0.00,0062_nse_s06_0.00_elephant_10_n02504013_7218.JPEG
subject-06,1,64,0.82371997833252,knife,knife,0.10,0063_nse_s06_0.10_knife_10_n03041632_12651.JPEG
subject-06,1,65,0.800786018371582,car,clock,0.60,0064_nse_s06_0.60_clock_10_n03196217_5052.JPEG
subject-06,1,66,0.930487871170044,airplane,airplane,0.60,0065_nse_s06_0.60_airplane_10_n02690373_2498.JPEG
subject-06,1,67,1.30681014060974,bicycle,oven,0.90,0066_nse_s06_0.90_oven_10_n04111531_9176.JPEG
subject-06,1,68,0.839341163635254,airplane,airplane,0.60,0067_nse_s06_0.60_airplane_10_n02690373_19353.JPEG
subject-06,1,69,0.92891001701355,bear,bear,0.60,0068_nse_s06_0.60_bear_10_n02133161_5064.JPEG
subject-06,1,70,0.6616370677948,airplane,airplane,0.05,0069_nse_s06_0.05_airplane_10_n02690373_2874.JPEG
subject-06,1,71,0.85959005355835,chair,oven,0.20,0070_nse_s06_0.20_oven_10_n04111531_7764.JPEG
subject-06,1,72,0.646106004714966,cat,airplane,0.90,0071_nse_s06_0.90_airplane_10_n02690373_4015.JPEG
subject-06,1,73,0.752012014389038,bicycle,bear,0.90,0072_nse_s06_0.90_bear_10_n02133161_1105.JPEG
subject-06,1,74,0.674906969070435,chair,chair,0.35,0073_nse_s06_0.35_chair_10_n04099969_40812.JPEG
subject-06,1,75,0.645370006561279,truck,truck,0.03,0074_nse_s06_0.03_truck_10_n03417042_3659.JPEG
subject-06,1,76,0.692389965057373,car,car,0.60,0075_nse_s06_0.60_car_10_n03100240_9832.JPEG
subject-06,1,77,0.7149658203125,airplane,airplane,0.35,0076_nse_s06_0.35_airplane_10_n02690373_4979.JPEG
subject-06,1,78,1.15341091156006,knife,knife,0.20,0077_nse_s06_0.20_knife_10_n03041632_8051.JPEG
subject-06,1,79,1.3529269695282,dog,cat,0.35,0078_nse_s06_0.35_cat_10_n02123394_448.JPEG
subject-06,1,80,0.592134952545166,bicycle,bicycle,0.03,0079_nse_s06_0.03_bicycle_10_n03792782_11804.JPEG
subject-06,1,81,0.69133186340332,airplane,boat,0.35,0080_nse_s06_0.35_boat_10_n04612504_3657.JPEG
subject-06,1,82,0.537763833999634,bottle,bottle,0.00,0081_nse_s06_0.00_bottle_10_n03937543_11953.JPEG
subject-06,1,83,0.714281797409058,car,car,0.20,0082_nse_s06_0.20_car_10_n04285008_5699.JPEG
subject-06,1,84,0.98307204246521,cat,cat,0.03,0083_nse_s06_0.03_cat_10_n02123394_810.JPEG
subject-06,1,85,0.537578105926514,oven,clock,0.10,0084_nse_s06_0.10_clock_10_n02708093_2806.JPEG
subject-06,1,86,0.637954950332642,keyboard,keyboard,0.03,0085_nse_s06_0.03_keyboard_10_n04505470_659.JPEG
subject-06,1,87,0.646528959274292,clock,clock,0.35,0086_nse_s06_0.35_clock_10_n02708093_470.JPEG
subject-06,1,88,0.660725116729736,chair,chair,0.20,0087_nse_s06_0.20_chair_10_n04099969_12537.JPEG
subject-06,1,89,0.561249971389771,airplane,clock,0.90,0088_nse_s06_0.90_clock_10_n04548280_15867.JPEG
subject-06,1,90,1.0836820602417,truck,truck,0.10,0089_nse_s06_0.10_truck_10_n03417042_9592.JPEG
subject-06,1,91,0.751636981964111,cat,oven,0.90,0090_nse_s06_0.90_oven_10_n04111531_101.JPEG
subject-06,1,92,NaN,na,bird,0.03,0091_nse_s06_0.03_bird_10_n01582220_5975.JPEG
subject-06,1,93,0.534927129745483,airplane,airplane,0.03,0092_nse_s06_0.03_airplane_10_n02690373_7093.JPEG
subject-06,1,94,0.962935924530029,chair,truck,0.35,0093_nse_s06_0.35_truck_10_n03417042_29941.JPEG
subject-06,1,95,0.996413946151733,dog,dog,0.20,0094_nse_s06_0.20_dog_10_n02107683_4521.JPEG
subject-06,1,96,0.864036083221436,car,keyboard,0.60,0095_nse_s06_0.60_keyboard_10_n04505470_3335.JPEG
subject-06,1,97,0.553164005279541,airplane,airplane,0.03,0096_nse_s06_0.03_airplane_10_n02690373_9849.JPEG
subject-06,1,98,0.79405403137207,car,airplane,0.35,0097_nse_s06_0.35_airplane_10_n02690373_3542.JPEG
subject-06,1,99,0.632512092590332,airplane,bird,0.35,0098_nse_s06_0.35_bird_10_n01855672_1780.JPEG
subject-06,1,100,0.671154975891113,oven,oven,0.10,0099_nse_s06_0.10_oven_10_n04111531_16007.JPEG
subject-06,1,101,0.617650985717773,bird,bird,0.10,0100_nse_s06_0.10_bird_10_n01532829_19803.JPEG
subject-06,1,102,0.748028993606567,bottle,bottle,0.00,0101_nse_s06_0.00_bottle_10_n02823428_604.JPEG
subject-06,1,103,NaN,na,boat,0.05,0102_nse_s06_0.05_boat_10_n04273569_5698.JPEG
subject-06,1,104,0.562453031539917,truck,truck,0.05,0103_nse_s06_0.05_truck_10_n03417042_5136.JPEG
subject-06,1,105,0.606950044631958,boat,boat,0.00,0104_nse_s06_0.00_boat_10_n03344393_5028.JPEG
subject-06,1,106,0.907366991043091,keyboard,keyboard,0.20,0105_nse_s06_0.20_keyboard_10_n03085013_20674.JPEG
subject-06,1,107,1.2588210105896,boat,boat,0.00,0106_nse_s06_0.00_boat_10_n02951358_1476.JPEG
subject-06,1,108,1.50006604194641,elephant,elephant,0.35,0107_nse_s06_0.35_elephant_10_n02504458_12374.JPEG
subject-06,1,109,0.568649053573608,boat,boat,0.20,0108_nse_s06_0.20_boat_10_n04273569_576.JPEG
subject-06,1,110,0.652988910675049,bottle,bottle,0.10,0109_nse_s06_0.10_bottle_10_n02823428_2535.JPEG
subject-06,1,111,0.750929832458496,bear,bear,0.35,0110_nse_s06_0.35_bear_10_n02133161_3181.JPEG
subject-06,1,112,0.688534021377563,knife,clock,0.20,0111_nse_s06_0.20_clock_10_n04548280_5414.JPEG
subject-06,1,113,0.961865901947021,bottle,knife,0.03,0112_nse_s06_0.03_knife_10_n03041632_102828.JPEG
subject-06,1,114,0.656716108322144,chair,chair,0.20,0113_nse_s06_0.20_chair_10_n04099969_5237.JPEG
subject-06,1,115,1.17139315605164,car,dog,0.35,0114_nse_s06_0.35_dog_10_n02099601_2048.JPEG
subject-06,1,116,0.585063934326172,oven,oven,0.90,0115_nse_s06_0.90_oven_10_n04111531_10093.JPEG
subject-06,1,117,0.747893095016479,cat,knife,0.60,0116_nse_s06_0.60_knife_10_n03041632_27832.JPEG
subject-06,1,118,1.00023007392883,cat,cat,0.35,0117_nse_s06_0.35_cat_10_n02123045_10244.JPEG
subject-06,1,119,0.724422931671143,car,dog,0.90,0118_nse_s06_0.90_dog_10_n02105641_9067.JPEG
subject-06,1,120,0.577443838119507,clock,clock,0.35,0119_nse_s06_0.35_clock_10_n02708093_5236.JPEG
subject-06,1,121,0.547703981399536,oven,oven,0.10,0120_nse_s06_0.10_oven_10_n04111531_9611.JPEG
subject-06,1,122,0.723608016967773,bottle,bottle,0.60,0121_nse_s06_0.60_bottle_10_n04579145_2615.JPEG
subject-06,1,123,0.740900039672852,airplane,cat,0.60,0122_nse_s06_0.60_cat_10_n02124075_9894.JPEG
subject-06,1,124,0.655419826507568,cat,bird,0.90,0123_nse_s06_0.90_bird_10_n02018795_3856.JPEG
subject-06,1,125,0.910068035125732,bear,bear,0.60,0124_nse_s06_0.60_bear_10_n02134418_3767.JPEG
subject-06,1,126,0.687083959579468,bear,elephant,0.35,0125_nse_s06_0.35_elephant_10_n02504013_8298.JPEG
subject-06,1,127,1.07120609283447,bottle,bottle,0.03,0126_nse_s06_0.03_bottle_10_n04560804_21443.JPEG
subject-06,1,128,0.901086091995239,airplane,boat,0.20,0127_nse_s06_0.20_boat_10_n03344393_5518.JPEG
subject-06,1,129,0.540390014648438,cat,airplane,0.60,0128_nse_s06_0.60_airplane_10_n02690373_9622.JPEG
subject-06,1,130,1.16264295578003,bird,bird,0.00,0129_nse_s06_0.00_bird_10_n01860187_30314.JPEG
subject-06,1,131,0.57917594909668,cat,cat,0.00,0130_nse_s06_0.00_cat_10_n02123159_386.JPEG
subject-06,1,132,0.526089906692505,chair,chair,0.03,0131_nse_s06_0.03_chair_10_n02791124_4559.JPEG
subject-06,1,133,0.609303951263428,truck,truck,0.00,0132_nse_s06_0.00_truck_10_n03417042_8054.JPEG
subject-06,1,134,0.908362865447998,car,car,0.35,0133_nse_s06_0.35_car_10_n02814533_6101.JPEG
subject-06,1,135,0.486811876296997,clock,elephant,0.60,0134_nse_s06_0.60_elephant_10_n02504458_2343.JPEG
subject-06,1,136,0.714531898498535,knife,knife,0.20,0135_nse_s06_0.20_knife_10_n03041632_18141.JPEG
subject-06,1,137,0.744236946105957,truck,truck,0.03,0136_nse_s06_0.03_truck_10_n03417042_1793.JPEG
subject-06,1,138,0.937829971313477,bird,bird,0.20,0137_nse_s06_0.20_bird_10_n01820546_14515.JPEG
subject-06,1,139,0.800079822540283,dog,dog,0.20,0138_nse_s06_0.20_dog_10_n02105855_9996.JPEG
subject-06,1,140,0.890926122665405,bottle,bottle,0.35,0139_nse_s06_0.35_bottle_10_n04579145_5567.JPEG
subject-06,1,141,0.669610023498535,bird,bird,0.10,0140_nse_s06_0.10_bird_10_n02002724_200.JPEG
subject-06,1,142,0.789361000061035,car,car,0.10,0141_nse_s06_0.10_car_10_n03100240_6537.JPEG
subject-06,1,143,0.565183162689209,boat,boat,0.00,0142_nse_s06_0.00_boat_10_n03662601_33425.JPEG
subject-06,1,144,0.573503971099854,boat,boat,0.05,0143_nse_s06_0.05_boat_10_n04612504_5081.JPEG
subject-06,1,145,0.750092029571533,cat,dog,0.90,0144_nse_s06_0.90_dog_10_n02086910_5538.JPEG
subject-06,1,146,0.680710077285767,bird,clock,0.60,0145_nse_s06_0.60_clock_10_n04548280_499.JPEG
subject-06,1,147,0.610270023345947,bottle,bottle,0.00,0146_nse_s06_0.00_bottle_10_n03937543_6340.JPEG
subject-06,1,148,0.602238893508911,bottle,bottle,0.10,0147_nse_s06_0.10_bottle_10_n04560804_10021.JPEG
subject-06,1,149,0.599925994873047,keyboard,bird,0.60,0148_nse_s06_0.60_bird_10_n01530575_35346.JPEG
subject-06,1,150,0.705790042877197,oven,bottle,0.60,0149_nse_s06_0.60_bottle_10_n03983396_3899.JPEG
subject-06,1,151,0.674222946166992,keyboard,car,0.20,0150_nse_s06_0.20_car_10_n04285008_14111.JPEG
subject-06,1,152,0.661818981170654,boat,chair,0.60,0151_nse_s06_0.60_chair_10_n04429376_42430.JPEG
subject-06,1,153,0.675612926483154,chair,chair,0.35,0152_nse_s06_0.35_chair_10_n04429376_55747.JPEG
subject-06,1,154,0.713931798934937,chair,chair,0.20,0153_nse_s06_0.20_chair_10_n02791124_2408.JPEG
subject-06,1,155,0.657812118530273,cat,cat,0.03,0154_nse_s06_0.03_cat_10_n02123159_7083.JPEG
subject-06,1,156,1.05005097389221,oven,oven,0.90,0155_nse_s06_0.90_oven_10_n04111531_887.JPEG
subject-06,1,157,0.541952848434448,airplane,airplane,0.20,0156_nse_s06_0.20_airplane_10_n02690373_5405.JPEG
subject-06,1,158,1.39445686340332,knife,knife,0.00,0157_nse_s06_0.00_knife_10_n03041632_86338.JPEG
subject-06,1,159,1.39298486709595,elephant,elephant,0.05,0158_nse_s06_0.05_elephant_10_n02504458_5821.JPEG
subject-06,1,160,0.787701845169067,truck,truck,0.00,0159_nse_s06_0.00_truck_10_n03417042_3508.JPEG
subject-06,1,161,0.568391084671021,bicycle,bicycle,0.10,0160_nse_s06_0.10_bicycle_10_n02835271_8444.JPEG
subject-06,1,162,0.674041032791138,boat,bird,0.90,0161_nse_s06_0.90_bird_10_n01843383_4042.JPEG
subject-06,1,163,1.0210599899292,truck,truck,0.60,0162_nse_s06_0.60_truck_10_n04467665_25031.JPEG
subject-06,1,164,1.01352095603943,airplane,boat,0.35,0163_nse_s06_0.35_boat_10_n03662601_10811.JPEG
subject-06,1,165,0.759407043457031,bird,cat,0.90,0164_nse_s06_0.90_cat_10_n02123597_7814.JPEG
subject-06,1,166,0.641003131866455,bicycle,bicycle,0.10,0165_nse_s06_0.10_bicycle_10_n02835271_3926.JPEG
subject-06,1,167,0.625613927841187,bear,bear,0.10,0166_nse_s06_0.10_bear_10_n02133161_10435.JPEG
subject-06,1,168,0.672459840774536,clock,knife,0.00,0167_nse_s06_0.00_knife_10_n03041632_16826.JPEG
subject-06,1,169,1.21671104431152,bear,bear,0.20,0168_nse_s06_0.20_bear_10_n02133161_10562.JPEG
subject-06,1,170,0.670284986495972,bicycle,oven,0.60,0169_nse_s06_0.60_oven_10_n04111531_14903.JPEG
subject-06,1,171,0.855507135391235,clock,clock,0.90,0170_nse_s06_0.90_clock_10_n02708093_4722.JPEG
subject-06,1,172,0.552953004837036,clock,clock,0.10,0171_nse_s06_0.10_clock_10_n02708093_7169.JPEG
subject-06,1,173,0.936601161956787,car,truck,0.60,0172_nse_s06_0.60_truck_10_n04467665_70308.JPEG
subject-06,1,174,0.528593063354492,clock,clock,0.03,0173_nse_s06_0.03_clock_10_n02708093_7810.JPEG
subject-06,1,175,0.889438152313232,bicycle,truck,0.90,0174_nse_s06_0.90_truck_10_n04467665_1425.JPEG
subject-06,1,176,1.01972699165344,car,boat,0.90,0175_nse_s06_0.90_boat_10_n02951358_42.JPEG
subject-06,1,177,1.0806930065155,boat,clock,0.10,0176_nse_s06_0.10_clock_10_n04548280_4305.JPEG
subject-06,1,178,0.83553409576416,chair,dog,0.60,0177_nse_s06_0.60_dog_10_n02092002_534.JPEG
subject-06,1,179,0.990216016769409,bear,cat,0.60,0178_nse_s06_0.60_cat_10_n02123597_854.JPEG
subject-06,1,180,0.621318817138672,bear,cat,0.20,0179_nse_s06_0.20_cat_10_n02125311_8496.JPEG
subject-06,1,181,0.935980081558228,bicycle,bicycle,0.00,0180_nse_s06_0.00_bicycle_10_n02835271_6481.JPEG
subject-06,1,182,1.10428595542908,bicycle,elephant,0.60,0181_nse_s06_0.60_elephant_10_n02504013_5027.JPEG
subject-06,1,183,0.980967044830322,chair,chair,0.05,0182_nse_s06_0.05_chair_10_n03376595_5208.JPEG
subject-06,1,184,0.888496160507202,dog,dog,0.03,0183_nse_s06_0.03_dog_10_n02109047_7700.JPEG
subject-06,1,185,0.933094024658203,bottle,cat,0.35,0184_nse_s06_0.35_cat_10_n02125311_39190.JPEG
subject-06,1,186,0.611724853515625,airplane,airplane,0.10,0185_nse_s06_0.10_airplane_10_n02690373_8925.JPEG
subject-06,1,187,0.647339105606079,airplane,airplane,0.05,0186_nse_s06_0.05_airplane_10_n02690373_8704.JPEG
subject-06,1,188,0.70709490776062,knife,knife,0.20,0187_nse_s06_0.20_knife_10_n03041632_42162.JPEG
subject-06,1,189,0.636928081512451,bird,bird,0.20,0188_nse_s06_0.20_bird_10_n01820546_3469.JPEG
subject-06,1,190,1.09740996360779,chair,chair,0.05,0189_nse_s06_0.05_chair_10_n02791124_2313.JPEG
subject-06,1,191,0.668370008468628,clock,clock,0.35,0190_nse_s06_0.35_clock_10_n02708093_7006.JPEG
subject-06,1,192,0.474810838699341,cat,cat,0.20,0191_nse_s06_0.20_cat_10_n02124075_862.JPEG
subject-06,1,193,0.613422155380249,cat,cat,0.10,0192_nse_s06_0.10_cat_10_n02124075_6958.JPEG
subject-06,1,194,0.857403993606567,truck,oven,0.05,0193_nse_s06_0.05_oven_10_n04111531_6298.JPEG
subject-06,1,195,0.735878229141235,bicycle,bicycle,0.35,0194_nse_s06_0.35_bicycle_10_n02835271_11922.JPEG
subject-06,1,196,0.549719095230103,boat,boat,0.03,0195_nse_s06_0.03_boat_10_n04273569_17880.JPEG
subject-06,1,197,0.717987060546875,keyboard,keyboard,0.60,0196_nse_s06_0.60_keyboard_10_n04505470_5050.JPEG
subject-06,1,198,0.662117004394531,car,car,0.00,0197_nse_s06_0.00_car_10_n03100240_15334.JPEG
subject-06,1,199,0.586663007736206,bottle,bottle,0.05,0198_nse_s06_0.05_bottle_10_n04557648_24642.JPEG
subject-06,1,200,0.784870862960815,bicycle,bottle,0.35,0199_nse_s06_0.35_bottle_10_n03937543_1681.JPEG
subject-06,1,201,0.931359052658081,keyboard,keyboard,0.90,0200_nse_s06_0.90_keyboard_10_n04505470_1484.JPEG
subject-06,1,202,0.646101951599121,airplane,airplane,0.03,0201_nse_s06_0.03_airplane_10_n02690373_5845.JPEG
subject-06,1,203,0.731476068496704,dog,dog,0.35,0202_nse_s06_0.35_dog_10_n02110063_8140.JPEG
subject-06,1,204,0.476941108703613,clock,clock,0.35,0203_nse_s06_0.35_clock_10_n03196217_12152.JPEG
subject-06,1,205,0.754358053207397,bicycle,bicycle,0.60,0204_nse_s06_0.60_bicycle_10_n02835271_19551.JPEG
subject-06,1,206,0.645931959152222,truck,truck,0.35,0205_nse_s06_0.35_truck_10_n03796401_6772.JPEG
subject-06,1,207,0.905856847763062,truck,chair,0.90,0206_nse_s06_0.90_chair_10_n03376595_12518.JPEG
subject-06,1,208,0.760804176330566,bear,bear,0.20,0207_nse_s06_0.20_bear_10_n02134418_448.JPEG
subject-06,1,209,0.945148944854736,bottle,bird,0.00,0208_nse_s06_0.00_bird_10_n02056570_9367.JPEG
subject-06,1,210,0.713949918746948,oven,oven,0.03,0209_nse_s06_0.03_oven_10_n04111531_4549.JPEG
subject-06,1,211,0.668339967727661,knife,boat,0.05,0210_nse_s06_0.05_boat_10_n03344393_1636.JPEG
subject-06,1,212,1.06687903404236,bottle,knife,0.05,0211_nse_s06_0.05_knife_10_n03041632_19275.JPEG
subject-06,1,213,0.529428005218506,bear,bear,0.00,0212_nse_s06_0.00_bear_10_n02134418_4536.JPEG
subject-06,1,214,NaN,na,truck,0.10,0213_nse_s06_0.10_truck_10_n04467665_37833.JPEG
subject-06,1,215,0.539273023605347,dog,dog,0.03,0214_nse_s06_0.03_dog_10_n02108422_5595.JPEG
subject-06,1,216,0.653573989868164,cat,cat,0.05,0215_nse_s06_0.05_cat_10_n02123597_3408.JPEG
subject-06,1,217,0.592511177062988,bear,bear,0.10,0216_nse_s06_0.10_bear_10_n02133161_757.JPEG
subject-06,1,218,1.22036504745483,knife,knife,0.00,0217_nse_s06_0.00_knife_10_n03041632_18766.JPEG
subject-06,1,219,0.675458192825317,airplane,airplane,0.10,0218_nse_s06_0.10_airplane_10_n02690373_9762.JPEG
subject-06,1,220,1.16020703315735,bottle,bottle,0.05,0219_nse_s06_0.05_bottle_10_n02823428_2041.JPEG
subject-06,1,221,0.630937814712524,keyboard,keyboard,0.35,0220_nse_s06_0.35_keyboard_10_n04505470_4599.JPEG
subject-06,1,222,0.615705013275146,knife,knife,0.05,0221_nse_s06_0.05_knife_10_n03041632_50996.JPEG
subject-06,1,223,0.692159175872803,bottle,oven,0.05,0222_nse_s06_0.05_oven_10_n04111531_6536.JPEG
subject-06,1,224,1.01445293426514,bottle,bottle,0.05,0223_nse_s06_0.05_bottle_10_n04557648_5715.JPEG
subject-06,1,225,0.760169982910156,knife,knife,0.03,0224_nse_s06_0.03_knife_10_n03041632_23087.JPEG
subject-06,1,226,0.65311598777771,airplane,airplane,0.03,0225_nse_s06_0.03_airplane_10_n02690373_3859.JPEG
subject-06,1,227,1.07538986206055,bear,bird,0.60,0226_nse_s06_0.60_bird_10_n01860187_2740.JPEG
subject-06,1,228,0.843955993652344,bicycle,bicycle,0.05,0227_nse_s06_0.05_bicycle_10_n03792782_7143.JPEG
subject-06,1,229,0.603224039077759,bicycle,bicycle,0.03,0228_nse_s06_0.03_bicycle_10_n03792782_1853.JPEG
subject-06,1,230,0.527714967727661,bottle,bottle,0.05,0229_nse_s06_0.05_bottle_10_n03983396_18674.JPEG
subject-06,1,231,0.703680992126465,bicycle,bicycle,0.10,0230_nse_s06_0.10_bicycle_10_n02835271_2885.JPEG
subject-06,1,232,0.639258146286011,airplane,airplane,0.00,0231_nse_s06_0.00_airplane_10_n02690373_8804.JPEG
subject-06,1,233,0.823983192443848,car,car,0.10,0232_nse_s06_0.10_car_10_n02814533_9141.JPEG
subject-06,1,234,0.846452951431274,bicycle,knife,0.60,0233_nse_s06_0.60_knife_10_n03041632_94995.JPEG
subject-06,1,235,1.31460189819336,dog,dog,0.35,0234_nse_s06_0.35_dog_10_n02098286_6547.JPEG
subject-06,1,236,0.94530987739563,chair,elephant,0.60,0235_nse_s06_0.60_elephant_10_n02504458_4861.JPEG
subject-06,1,237,1.50032114982605,bird,chair,0.60,0236_nse_s06_0.60_chair_10_n03376595_2420.JPEG
subject-06,1,238,1.14481997489929,airplane,airplane,0.00,0237_nse_s06_0.00_airplane_10_n02690373_2316.JPEG
subject-06,1,239,0.923226833343506,airplane,boat,0.60,0238_nse_s06_0.60_boat_10_n03344393_7312.JPEG
subject-06,1,240,0.945906162261963,boat,boat,0.10,0239_nse_s06_0.10_boat_10_n04612504_731.JPEG
subject-06,1,241,1.10627293586731,truck,truck,0.35,0240_nse_s06_0.35_truck_10_n03417042_3466.JPEG
subject-06,1,242,0.590358018875122,oven,oven,0.35,0241_nse_s06_0.35_oven_10_n04111531_3886.JPEG
subject-06,1,243,0.595924854278564,airplane,knife,0.90,0242_nse_s06_0.90_knife_10_n03041632_39836.JPEG
subject-06,1,244,0.964164018630981,dog,bear,0.10,0243_nse_s06_0.10_bear_10_n02134418_4114.JPEG
subject-06,1,245,0.648388147354126,boat,boat,0.10,0244_nse_s06_0.10_boat_10_n02951358_32558.JPEG
subject-06,1,246,1.50002503395081,bicycle,boat,0.60,0245_nse_s06_0.60_boat_10_n02951358_4876.JPEG
subject-06,1,247,1.19296312332153,elephant,elephant,0.20,0246_nse_s06_0.20_elephant_10_n02504013_447.JPEG
subject-06,1,248,0.68657398223877,dog,knife,0.35,0247_nse_s06_0.35_knife_10_n03041632_24326.JPEG
subject-06,1,249,0.769915819168091,bicycle,cat,0.60,0248_nse_s06_0.60_cat_10_n02123045_11601.JPEG
subject-06,1,250,0.700509071350098,boat,oven,0.35,0249_nse_s06_0.35_oven_10_n04111531_8959.JPEG
subject-06,1,251,0.755059957504272,bottle,oven,0.00,0250_nse_s06_0.00_oven_10_n04111531_5727.JPEG
subject-06,1,252,0.714920997619629,chair,chair,0.10,0251_nse_s06_0.10_chair_10_n03376595_9559.JPEG
subject-06,1,253,1.066486120224,bicycle,dog,0.60,0252_nse_s06_0.60_dog_10_n02105162_3275.JPEG
subject-06,1,254,0.675797939300537,bear,bear,0.20,0253_nse_s06_0.20_bear_10_n02134418_5418.JPEG
subject-06,1,255,0.689970016479492,chair,oven,0.20,0254_nse_s06_0.20_oven_10_n04111531_3314.JPEG
subject-06,1,256,0.620543003082275,keyboard,oven,0.10,0255_nse_s06_0.10_oven_10_n04111531_13422.JPEG
subject-06,1,257,0.66052508354187,bicycle,bicycle,0.00,0256_nse_s06_0.00_bicycle_10_n02835271_10947.JPEG
subject-06,1,258,0.990737915039062,bicycle,dog,0.60,0257_nse_s06_0.60_dog_10_n02112018_8937.JPEG
subject-06,1,259,0.591797113418579,bottle,bottle,0.35,0258_nse_s06_0.35_bottle_10_n04591713_4232.JPEG
subject-06,1,260,0.83516788482666,oven,bird,0.60,0259_nse_s06_0.60_bird_10_n01558993_4467.JPEG
subject-06,1,261,0.857906103134155,car,elephant,0.60,0260_nse_s06_0.60_elephant_10_n02504013_1585.JPEG
subject-06,1,262,1.10423183441162,bear,bear,0.03,0261_nse_s06_0.03_bear_10_n02134084_1363.JPEG
subject-06,1,263,0.542097091674805,clock,clock,0.20,0262_nse_s06_0.20_clock_10_n03196217_5745.JPEG
subject-06,1,264,0.715428113937378,bear,oven,0.05,0263_nse_s06_0.05_oven_10_n04111531_10672.JPEG
subject-06,1,265,0.824760913848877,airplane,knife,0.90,0264_nse_s06_0.90_knife_10_n03041632_96714.JPEG
subject-06,1,266,0.900438070297241,keyboard,keyboard,0.35,0265_nse_s06_0.35_keyboard_10_n04505470_5171.JPEG
subject-06,1,267,0.668469905853271,bicycle,bicycle,0.00,0266_nse_s06_0.00_bicycle_10_n03792782_51196.JPEG
subject-06,1,268,0.761046171188354,airplane,airplane,0.05,0267_nse_s06_0.05_airplane_10_n02690373_6362.JPEG
subject-06,1,269,1.27536702156067,bird,bird,0.35,0268_nse_s06_0.35_bird_10_n02002724_1351.JPEG
subject-06,1,270,0.727577924728394,boat,boat,0.10,0269_nse_s06_0.10_boat_10_n02951358_13782.JPEG
subject-06,1,271,0.825027942657471,bottle,oven,0.03,0270_nse_s06_0.03_oven_10_n04111531_1562.JPEG
subject-06,1,272,1.25557804107666,bird,cat,0.90,0271_nse_s06_0.90_cat_10_n02123159_7780.JPEG
subject-06,1,273,0.686151027679443,car,car,0.05,0272_nse_s06_0.05_car_10_n02814533_3375.JPEG
subject-06,1,274,0.532324075698853,airplane,airplane,0.00,0273_nse_s06_0.00_airplane_10_n02690373_8770.JPEG
subject-06,1,275,0.754962205886841,oven,truck,0.90,0274_nse_s06_0.90_truck_10_n03796401_8100.JPEG
subject-06,1,276,1.50030899047852,bird,elephant,0.20,0275_nse_s06_0.20_elephant_10_n02504458_3535.JPEG
subject-06,1,277,1.26230788230896,knife,bird,0.20,0276_nse_s06_0.20_bird_10_n01833805_5566.JPEG
subject-06,1,278,0.678573131561279,boat,car,0.60,0277_nse_s06_0.60_car_10_n02814533_91294.JPEG
subject-06,1,279,1.10168099403381,bear,elephant,0.03,0278_nse_s06_0.03_elephant_10_n02504013_8067.JPEG
subject-06,1,280,0.848267078399658,car,car,0.35,0279_nse_s06_0.35_car_10_n03100240_3267.JPEG
subject-06,1,281,0.870887994766235,boat,boat,0.20,0280_nse_s06_0.20_boat_10_n03662601_2131.JPEG
subject-06,1,282,1.11773991584778,oven,truck,0.90,0281_nse_s06_0.90_truck_10_n03417042_3039.JPEG
subject-06,1,283,0.688498973846436,bear,bear,0.10,0282_nse_s06_0.10_bear_10_n02134084_4927.JPEG
subject-06,1,284,0.724981069564819,bear,elephant,0.35,0283_nse_s06_0.35_elephant_10_n02504013_6572.JPEG
subject-06,1,285,0.955988883972168,dog,elephant,0.10,0284_nse_s06_0.10_elephant_10_n02504458_974.JPEG
subject-06,1,286,0.609347820281982,bicycle,bicycle,0.05,0285_nse_s06_0.05_bicycle_10_n03792782_7354.JPEG
subject-06,1,287,0.831433057785034,bicycle,bottle,0.90,0286_nse_s06_0.90_bottle_10_n04557648_11526.JPEG
subject-06,1,288,1.4354100227356,keyboard,boat,0.20,0287_nse_s06_0.20_boat_10_n03662601_8891.JPEG
subject-06,1,289,0.867959022521973,dog,dog,0.10,0288_nse_s06_0.10_dog_10_n02110958_2480.JPEG
subject-06,1,290,0.598273038864136,bicycle,car,0.90,0289_nse_s06_0.90_car_10_n03100240_7019.JPEG
subject-06,1,291,1.22116279602051,car,car,0.03,0290_nse_s06_0.03_car_10_n02814533_33913.JPEG
subject-06,1,292,0.61058497428894,bicycle,bicycle,0.20,0291_nse_s06_0.20_bicycle_10_n03792782_51918.JPEG
subject-06,1,293,0.643808841705322,oven,oven,0.05,0292_nse_s06_0.05_oven_10_n04111531_15682.JPEG
subject-06,1,294,0.736929893493652,cat,dog,0.60,0293_nse_s06_0.60_dog_10_n02110185_9556.JPEG
subject-06,1,295,0.705566167831421,car,car,0.00,0294_nse_s06_0.00_car_10_n03100240_5542.JPEG
subject-06,1,296,0.636190891265869,knife,knife,0.10,0295_nse_s06_0.10_knife_10_n03041632_9488.JPEG
subject-06,1,297,0.936960935592651,dog,dog,0.10,0296_nse_s06_0.10_dog_10_n02111500_7983.JPEG
subject-06,1,298,0.843378067016602,oven,chair,0.90,0297_nse_s06_0.90_chair_10_n02791124_2428.JPEG
subject-06,1,299,1.07302594184875,keyboard,boat,0.90,0298_nse_s06_0.90_boat_10_n04273569_17128.JPEG
subject-06,1,300,1.13381004333496,keyboard,truck,0.60,0299_nse_s06_0.60_truck_10_n03796401_24309.JPEG
subject-06,1,301,0.650529146194458,chair,chair,0.20,0300_nse_s06_0.20_chair_10_n03376595_9926.JPEG
subject-06,1,302,0.764930963516235,car,truck,0.90,0301_nse_s06_0.90_truck_10_n03417042_5208.JPEG
subject-06,1,303,0.719411134719849,cat,bottle,0.90,0302_nse_s06_0.90_bottle_10_n04557648_3334.JPEG
subject-06,1,304,0.993480920791626,elephant,elephant,0.05,0303_nse_s06_0.05_elephant_10_n02504458_4417.JPEG
subject-06,1,305,0.648030042648315,airplane,airplane,0.00,0304_nse_s06_0.00_airplane_10_n02690373_243.JPEG
subject-06,1,306,0.694777011871338,oven,bear,0.60,0305_nse_s06_0.60_bear_10_n02134418_5971.JPEG
subject-06,1,307,1.01717209815979,chair,chair,0.00,0306_nse_s06_0.00_chair_10_n02791124_16306.JPEG
subject-06,1,308,0.69365406036377,airplane,truck,0.60,0307_nse_s06_0.60_truck_10_n04467665_66535.JPEG
subject-06,1,309,0.662230968475342,bear,bear,0.05,0308_nse_s06_0.05_bear_10_n02133161_7712.JPEG
subject-06,1,310,1.30845904350281,bird,bicycle,0.00,0309_nse_s06_0.00_bicycle_10_n03792782_7475.JPEG
subject-06,1,311,0.616874933242798,bicycle,bicycle,0.05,0310_nse_s06_0.05_bicycle_10_n03792782_11679.JPEG
subject-06,1,312,0.715769052505493,oven,keyboard,0.90,0311_nse_s06_0.90_keyboard_10_n04505470_5923.JPEG
subject-06,1,313,0.674950122833252,truck,truck,0.03,0312_nse_s06_0.03_truck_10_n04467665_38695.JPEG
subject-06,1,314,0.675836086273193,bottle,bottle,0.10,0313_nse_s06_0.10_bottle_10_n04560804_32760.JPEG
subject-06,1,315,0.700506210327148,bird,clock,0.90,0314_nse_s06_0.90_clock_10_n03196217_13380.JPEG
subject-06,1,316,0.923546075820923,bear,elephant,0.10,0315_nse_s06_0.10_elephant_10_n02504013_7316.JPEG
subject-06,1,317,0.954807996749878,truck,bird,0.35,0316_nse_s06_0.35_bird_10_n02007558_10231.JPEG
subject-06,1,318,1.26109099388123,knife,knife,0.03,0317_nse_s06_0.03_knife_10_n03041632_101673.JPEG
subject-06,1,319,0.685658931732178,chair,chair,0.00,0318_nse_s06_0.00_chair_10_n04429376_294.JPEG
subject-06,1,320,0.770031929016113,bird,bird,0.20,0319_nse_s06_0.20_bird_10_n01622779_2188.JPEG
subject-06,1,321,0.983784914016724,cat,bear,0.10,0320_nse_s06_0.10_bear_10_n02134418_5848.JPEG
subject-06,1,322,0.644136190414429,car,boat,0.90,0321_nse_s06_0.90_boat_10_n02951358_22867.JPEG
subject-06,1,323,1.19031810760498,bear,elephant,0.90,0322_nse_s06_0.90_elephant_10_n02504013_15852.JPEG
subject-06,1,324,0.958600997924805,bear,bear,0.00,0323_nse_s06_0.00_bear_10_n02132136_9367.JPEG
subject-06,1,325,0.667021989822388,elephant,elephant,0.03,0324_nse_s06_0.03_elephant_10_n02504458_2794.JPEG
subject-06,1,326,0.676310062408447,airplane,airplane,0.35,0325_nse_s06_0.35_airplane_10_n02690373_4202.JPEG
subject-06,1,327,1.06589984893799,bear,bear,0.00,0326_nse_s06_0.00_bear_10_n02132136_12191.JPEG
subject-06,1,328,0.657905101776123,bear,dog,0.90,0327_nse_s06_0.90_dog_10_n02108551_20109.JPEG
subject-06,1,329,0.588387012481689,bottle,bottle,0.03,0328_nse_s06_0.03_bottle_10_n03983396_225.JPEG
subject-06,1,330,0.627310037612915,bird,bird,0.00,0329_nse_s06_0.00_bird_10_n01860187_186.JPEG
subject-06,1,331,1.14175891876221,chair,knife,0.10,0330_nse_s06_0.10_knife_10_n03041632_102887.JPEG
subject-06,1,332,0.704290866851807,keyboard,keyboard,0.03,0331_nse_s06_0.03_keyboard_10_n03085013_3859.JPEG
subject-06,1,333,0.612956047058105,bicycle,bicycle,0.20,0332_nse_s06_0.20_bicycle_10_n02835271_21216.JPEG
subject-06,1,334,0.589305877685547,bicycle,bicycle,0.03,0333_nse_s06_0.03_bicycle_10_n03792782_8113.JPEG
subject-06,1,335,0.627784967422485,boat,boat,0.00,0334_nse_s06_0.00_boat_10_n04612504_1935.JPEG
subject-06,1,336,0.972277164459229,keyboard,chair,0.35,0335_nse_s06_0.35_chair_10_n03376595_7709.JPEG
subject-06,1,337,0.664175033569336,airplane,airplane,0.05,0336_nse_s06_0.05_airplane_10_n02690373_18412.JPEG
subject-06,1,338,1.11101698875427,dog,dog,0.35,0337_nse_s06_0.35_dog_10_n02099267_3514.JPEG
subject-06,1,339,0.671421051025391,cat,cat,0.03,0338_nse_s06_0.03_cat_10_n02124075_7033.JPEG
subject-06,1,340,NaN,na,cat,0.05,0339_nse_s06_0.05_cat_10_n02125311_2348.JPEG
subject-06,1,341,0.799649953842163,airplane,bottle,0.60,0340_nse_s06_0.60_bottle_10_n03937543_9804.JPEG
subject-06,1,342,1.11627197265625,chair,chair,0.05,0341_nse_s06_0.05_chair_10_n03376595_4568.JPEG
subject-06,1,343,0.755666017532349,car,bird,0.60,0342_nse_s06_0.60_bird_10_n01532829_12356.JPEG
subject-06,1,344,0.571876049041748,bicycle,bicycle,0.00,0343_nse_s06_0.00_bicycle_10_n03792782_5602.JPEG
subject-06,1,345,0.561732053756714,cat,truck,0.60,0344_nse_s06_0.60_truck_10_n04467665_14719.JPEG
subject-06,1,346,0.570138931274414,clock,clock,0.05,0345_nse_s06_0.05_clock_10_n03196217_9197.JPEG
subject-06,1,347,1.10058999061584,car,elephant,0.90,0346_nse_s06_0.90_elephant_10_n02504458_9870.JPEG
subject-06,1,348,0.76118016242981,chair,chair,0.05,0347_nse_s06_0.05_chair_10_n04099969_3130.JPEG
subject-06,1,349,0.732229948043823,bottle,bottle,0.35,0348_nse_s06_0.35_bottle_10_n04591713_1594.JPEG
subject-06,1,350,0.554754018783569,cat,cat,0.00,0349_nse_s06_0.00_cat_10_n02123045_11224.JPEG
subject-06,1,351,0.95217490196228,cat,cat,0.00,0350_nse_s06_0.00_cat_10_n02123597_8181.JPEG
subject-06,1,352,0.88267707824707,truck,truck,0.03,0351_nse_s06_0.03_truck_10_n03417042_10788.JPEG
subject-06,1,353,0.83741021156311,airplane,boat,0.35,0352_nse_s06_0.35_boat_10_n03662601_12960.JPEG
subject-06,1,354,0.96765398979187,bird,bear,0.00,0353_nse_s06_0.00_bear_10_n02133161_143.JPEG
subject-06,1,355,0.606657981872559,keyboard,bicycle,0.90,0354_nse_s06_0.90_bicycle_10_n03792782_4067.JPEG
subject-06,1,356,1.28933000564575,car,knife,0.35,0355_nse_s06_0.35_knife_10_n03041632_289.JPEG
subject-06,1,357,0.510907888412476,clock,clock,0.10,0356_nse_s06_0.10_clock_10_n02708093_444.JPEG
subject-06,1,358,0.903218030929565,bear,bicycle,0.90,0357_nse_s06_0.90_bicycle_10_n02835271_10538.JPEG
subject-06,1,359,0.741843938827515,elephant,elephant,0.05,0358_nse_s06_0.05_elephant_10_n02504458_4580.JPEG
subject-06,1,360,0.702319860458374,keyboard,keyboard,0.10,0359_nse_s06_0.10_keyboard_10_n04505470_6884.JPEG
subject-06,1,361,0.632372856140137,bicycle,bicycle,0.10,0360_nse_s06_0.10_bicycle_10_n03792782_8097.JPEG
subject-06,1,362,0.838118076324463,keyboard,bottle,0.20,0361_nse_s06_0.20_bottle_10_n03983396_11504.JPEG
subject-06,1,363,NaN,na,elephant,0.10,0362_nse_s06_0.10_elephant_10_n02504458_5231.JPEG
subject-06,1,364,0.791098117828369,keyboard,keyboard,0.35,0363_nse_s06_0.35_keyboard_10_n03085013_3007.JPEG
subject-06,1,365,0.605026006698608,bicycle,bicycle,0.10,0364_nse_s06_0.10_bicycle_10_n02835271_13542.JPEG
subject-06,1,366,0.684749126434326,oven,keyboard,0.10,0365_nse_s06_0.10_keyboard_10_n03085013_22438.JPEG
subject-06,1,367,0.606364011764526,airplane,airplane,0.10,0366_nse_s06_0.10_airplane_10_n02690373_3212.JPEG
subject-06,1,368,0.628710985183716,bicycle,bicycle,0.20,0367_nse_s06_0.20_bicycle_10_n03792782_13077.JPEG
subject-06,1,369,0.583250999450684,bicycle,bicycle,0.03,0368_nse_s06_0.03_bicycle_10_n02835271_10814.JPEG
subject-06,1,370,0.705332040786743,airplane,bear,0.35,0369_nse_s06_0.35_bear_10_n02133161_4239.JPEG
subject-06,1,371,0.903043985366821,cat,cat,0.05,0370_nse_s06_0.05_cat_10_n02123045_10224.JPEG
subject-06,1,372,0.771570205688477,truck,truck,0.10,0371_nse_s06_0.10_truck_10_n03417042_176.JPEG
subject-06,1,373,0.763538837432861,bird,truck,0.90,0372_nse_s06_0.90_truck_10_n03417042_28261.JPEG
subject-06,1,374,1.18634605407715,airplane,boat,0.60,0373_nse_s06_0.60_boat_10_n03662601_25462.JPEG
subject-06,1,375,0.55492901802063,cat,bear,0.90,0374_nse_s06_0.90_bear_10_n02132136_1076.JPEG
subject-06,1,376,0.693353176116943,cat,elephant,0.90,0375_nse_s06_0.90_elephant_10_n02504458_3234.JPEG
subject-06,1,377,0.669686079025269,elephant,elephant,0.10,0376_nse_s06_0.10_elephant_10_n02504013_5501.JPEG
subject-06,1,378,0.822541952133179,chair,airplane,0.90,0377_nse_s06_0.90_airplane_10_n02690373_1083.JPEG
subject-06,1,379,0.547087907791138,airplane,airplane,0.10,0378_nse_s06_0.10_airplane_10_n02690373_7408.JPEG
subject-06,1,380,0.469397068023682,cat,knife,0.90,0379_nse_s06_0.90_knife_10_n03041632_36277.JPEG
subject-06,1,381,0.991888999938965,knife,car,0.20,0380_nse_s06_0.20_car_10_n04285008_2727.JPEG
subject-06,1,382,0.806596994400024,dog,dog,0.20,0381_nse_s06_0.20_dog_10_n02110063_6202.JPEG
subject-06,1,383,0.745048999786377,bicycle,oven,0.35,0382_nse_s06_0.35_oven_10_n04111531_7452.JPEG
subject-06,1,384,0.837904214859009,boat,chair,0.60,0383_nse_s06_0.60_chair_10_n02791124_16127.JPEG
subject-06,1,385,0.606496095657349,bottle,bottle,0.05,0384_nse_s06_0.05_bottle_10_n04591713_3645.JPEG
subject-06,1,386,0.620741128921509,elephant,elephant,0.35,0385_nse_s06_0.35_elephant_10_n02504013_6053.JPEG
subject-06,1,387,0.804683923721313,bear,oven,0.03,0386_nse_s06_0.03_oven_10_n04111531_2855.JPEG
subject-06,1,388,1.35697197914124,cat,oven,0.00,0387_nse_s06_0.00_oven_10_n04111531_4418.JPEG
subject-06,1,389,0.619056940078735,bottle,bottle,0.03,0388_nse_s06_0.03_bottle_10_n03937543_1519.JPEG
subject-06,1,390,0.649219036102295,bird,oven,0.90,0389_nse_s06_0.90_oven_10_n04111531_22517.JPEG
subject-06,1,391,0.562911033630371,cat,dog,0.20,0390_nse_s06_0.20_dog_10_n02106662_727.JPEG
subject-06,1,392,0.899680137634277,chair,knife,0.35,0391_nse_s06_0.35_knife_10_n03041632_45338.JPEG
subject-06,1,393,0.951101064682007,cat,cat,0.05,0392_nse_s06_0.05_cat_10_n02125311_27128.JPEG
subject-06,1,394,1.01376986503601,car,car,0.10,0393_nse_s06_0.10_car_10_n03100240_12707.JPEG
subject-06,1,395,0.741467952728271,bear,cat,0.20,0394_nse_s06_0.20_cat_10_n02125311_55771.JPEG
subject-06,1,396,0.580273866653442,chair,chair,0.20,0395_nse_s06_0.20_chair_10_n03376595_3676.JPEG
subject-06,1,397,0.785980939865112,keyboard,keyboard,0.20,0396_nse_s06_0.20_keyboard_10_n03085013_22839.JPEG
subject-06,1,398,1.12134695053101,oven,oven,0.00,0397_nse_s06_0.00_oven_10_n04111531_3555.JPEG
subject-06,1,399,0.506088972091675,cat,cat,0.00,0398_nse_s06_0.00_cat_10_n02125311_11120.JPEG
subject-06,1,400,0.673942089080811,truck,truck,0.20,0399_nse_s06_0.20_truck_10_n04467665_21379.JPEG
subject-06,1,401,0.750324964523315,car,car,0.10,0400_nse_s06_0.10_car_10_n02814533_6899.JPEG
subject-06,1,402,0.705548048019409,chair,keyboard,0.20,0401_nse_s06_0.20_keyboard_10_n03085013_6862.JPEG
subject-06,1,403,0.667765855789185,elephant,elephant,0.20,0402_nse_s06_0.20_elephant_10_n02504013_7701.JPEG
subject-06,1,404,0.520323038101196,car,car,0.03,0403_nse_s06_0.03_car_10_n02814533_97971.JPEG
subject-06,1,405,0.848119974136353,bottle,clock,0.00,0404_nse_s06_0.00_clock_10_n03196217_4861.JPEG
subject-06,1,406,0.626564025878906,boat,bicycle,0.90,0405_nse_s06_0.90_bicycle_10_n03792782_7796.JPEG
subject-06,1,407,0.686477184295654,car,car,0.00,0406_nse_s06_0.00_car_10_n04285008_5040.JPEG
subject-06,1,408,0.570820093154907,cat,oven,0.05,0407_nse_s06_0.05_oven_10_n04111531_13801.JPEG
subject-06,1,409,0.845367908477783,bear,bear,0.03,0408_nse_s06_0.03_bear_10_n02134084_6747.JPEG
subject-06,1,410,0.513079881668091,clock,clock,0.05,0409_nse_s06_0.05_clock_10_n03196217_4718.JPEG
subject-06,1,411,1.05177903175354,elephant,elephant,0.00,0410_nse_s06_0.00_elephant_10_n02504013_5749.JPEG
subject-06,1,412,1.2581160068512,cat,cat,0.05,0411_nse_s06_0.05_cat_10_n02123597_5210.JPEG
subject-06,1,413,0.598896980285645,boat,elephant,0.90,0412_nse_s06_0.90_elephant_10_n02504458_7377.JPEG
subject-06,1,414,1.11993408203125,bear,bear,0.20,0413_nse_s06_0.20_bear_10_n02132136_5132.JPEG
subject-06,1,415,0.635698080062866,keyboard,keyboard,0.20,0414_nse_s06_0.20_keyboard_10_n04505470_8524.JPEG
subject-06,1,416,0.709713935852051,bottle,bottle,0.00,0415_nse_s06_0.00_bottle_10_n04560804_14135.JPEG
subject-06,1,417,0.701200008392334,bird,bottle,0.90,0416_nse_s06_0.90_bottle_10_n03937543_2786.JPEG
subject-06,1,418,0.652644157409668,bear,bear,0.60,0417_nse_s06_0.60_bear_10_n02134418_2612.JPEG
subject-06,1,419,0.82912802696228,truck,truck,0.05,0418_nse_s06_0.05_truck_10_n03796401_8117.JPEG
subject-06,1,420,0.47578501701355,keyboard,keyboard,0.10,0419_nse_s06_0.10_keyboard_10_n04505470_5157.JPEG
subject-06,1,421,0.844131946563721,airplane,boat,0.10,0420_nse_s06_0.10_boat_10_n04273569_10871.JPEG
subject-06,1,422,0.590734958648682,clock,clock,0.05,0421_nse_s06_0.05_clock_10_n03196217_219.JPEG
subject-06,1,423,0.558813095092773,airplane,truck,0.60,0422_nse_s06_0.60_truck_10_n04467665_9645.JPEG
subject-06,1,424,0.557610034942627,cat,truck,0.35,0423_nse_s06_0.35_truck_10_n03796401_6472.JPEG
subject-06,1,425,0.482816934585571,cat,cat,0.10,0424_nse_s06_0.10_cat_10_n02123597_2957.JPEG
subject-06,1,426,0.743456840515137,boat,car,0.60,0425_nse_s06_0.60_car_10_n02814533_3384.JPEG
subject-06,1,427,1.50039982795715,truck,truck,0.20,0426_nse_s06_0.20_truck_10_n03417042_2056.JPEG
subject-06,1,428,0.772397994995117,cat,cat,0.35,0427_nse_s06_0.35_cat_10_n02123159_8181.JPEG
subject-06,1,429,0.717618942260742,boat,elephant,0.90,0428_nse_s06_0.90_elephant_10_n02504458_418.JPEG
subject-06,1,430,1.11541795730591,bird,boat,0.35,0429_nse_s06_0.35_boat_10_n04612504_9175.JPEG
subject-06,1,431,0.608460187911987,cat,cat,0.10,0430_nse_s06_0.10_cat_10_n02123394_1652.JPEG
subject-06,1,432,0.79026198387146,bear,elephant,0.05,0431_nse_s06_0.05_elephant_10_n02504013_1243.JPEG
subject-06,1,433,0.782758951187134,boat,boat,0.05,0432_nse_s06_0.05_boat_10_n02951358_12628.JPEG
subject-06,1,434,0.491170883178711,clock,clock,0.00,0433_nse_s06_0.00_clock_10_n02708093_3595.JPEG
subject-06,1,435,0.527496814727783,boat,boat,0.03,0434_nse_s06_0.03_boat_10_n03662601_5901.JPEG
subject-06,1,436,0.557965993881226,airplane,airplane,0.60,0435_nse_s06_0.60_airplane_10_n02690373_3064.JPEG
subject-06,1,437,0.691967010498047,car,truck,0.35,0436_nse_s06_0.35_truck_10_n03417042_4655.JPEG
subject-06,1,438,0.760632991790771,bear,truck,0.35,0437_nse_s06_0.35_truck_10_n04467665_13193.JPEG
subject-06,1,439,0.875293016433716,truck,truck,0.00,0438_nse_s06_0.00_truck_10_n04467665_4782.JPEG
subject-06,1,440,0.626926898956299,car,truck,0.00,0439_nse_s06_0.00_truck_10_n04467665_32937.JPEG
subject-06,1,441,0.651402950286865,cat,chair,0.20,0440_nse_s06_0.20_chair_10_n04099969_7925.JPEG
subject-06,1,442,0.796221017837524,bottle,bottle,0.35,0441_nse_s06_0.35_bottle_10_n03983396_2339.JPEG
subject-06,1,443,0.896860837936401,oven,airplane,0.90,0442_nse_s06_0.90_airplane_10_n02690373_1360.JPEG
subject-06,1,444,0.979537010192871,dog,dog,0.00,0443_nse_s06_0.00_dog_10_n02113624_9189.JPEG
subject-06,1,445,1.4429018497467,dog,dog,0.10,0444_nse_s06_0.10_dog_10_n02085936_6972.JPEG
subject-06,1,446,0.673297882080078,chair,chair,0.10,0445_nse_s06_0.10_chair_10_n03376595_245.JPEG
subject-06,1,447,0.611752986907959,boat,boat,0.03,0446_nse_s06_0.03_boat_10_n03662601_6664.JPEG
subject-06,1,448,0.680607080459595,airplane,airplane,0.35,0447_nse_s06_0.35_airplane_10_n02690373_10727.JPEG
subject-06,1,449,0.87888503074646,airplane,airplane,0.03,0448_nse_s06_0.03_airplane_10_n02690373_4134.JPEG
subject-06,1,450,0.709595918655396,car,truck,0.10,0449_nse_s06_0.10_truck_10_n03796401_7098.JPEG
subject-06,1,451,0.73998498916626,airplane,keyboard,0.90,0450_nse_s06_0.90_keyboard_10_n03085013_19882.JPEG
subject-06,1,452,0.532738924026489,bird,bird,0.00,0451_nse_s06_0.00_bird_10_n01514859_6667.JPEG
subject-06,1,453,1.23905205726624,dog,bear,0.60,0452_nse_s06_0.60_bear_10_n02133161_4247.JPEG
subject-06,1,454,1.02368402481079,chair,boat,0.20,0453_nse_s06_0.20_boat_10_n03662601_16640.JPEG
subject-06,1,455,0.599051952362061,airplane,bird,0.35,0454_nse_s06_0.35_bird_10_n02051845_3652.JPEG
subject-06,1,456,0.713075876235962,car,car,0.60,0455_nse_s06_0.60_car_10_n02814533_88566.JPEG
subject-06,1,457,0.898433923721313,bird,cat,0.35,0456_nse_s06_0.35_cat_10_n02124075_8140.JPEG
subject-06,1,458,0.707520961761475,cat,bear,0.35,0457_nse_s06_0.35_bear_10_n02133161_4882.JPEG
subject-06,1,459,0.743933200836182,keyboard,keyboard,0.00,0458_nse_s06_0.00_keyboard_10_n04505470_6379.JPEG
subject-06,1,460,1.50008988380432,chair,knife,0.20,0459_nse_s06_0.20_knife_10_n03041632_43506.JPEG
subject-06,1,461,0.809706926345825,chair,chair,0.00,0460_nse_s06_0.00_chair_10_n02791124_6271.JPEG
subject-06,1,462,0.648324012756348,bear,chair,0.90,0461_nse_s06_0.90_chair_10_n03376595_574.JPEG
subject-06,1,463,0.740701913833618,clock,clock,0.35,0462_nse_s06_0.35_clock_10_n03196217_5620.JPEG
subject-06,1,464,0.633001804351807,car,car,0.20,0463_nse_s06_0.20_car_10_n03100240_22593.JPEG
subject-06,1,465,0.684947967529297,clock,clock,0.10,0464_nse_s06_0.10_clock_10_n02708093_5010.JPEG
subject-06,1,466,0.631582975387573,cat,cat,0.90,0465_nse_s06_0.90_cat_10_n02123159_3957.JPEG
subject-06,1,467,0.542794942855835,airplane,boat,0.60,0466_nse_s06_0.60_boat_10_n02951358_3041.JPEG
subject-06,1,468,0.735193014144897,bottle,clock,0.60,0467_nse_s06_0.60_clock_10_n02708093_1482.JPEG
subject-06,1,469,0.806382179260254,airplane,airplane,0.60,0468_nse_s06_0.60_airplane_10_n02690373_4410.JPEG
subject-06,1,470,0.467091083526611,cat,cat,0.20,0469_nse_s06_0.20_cat_10_n02123394_19.JPEG
subject-06,1,471,0.76424503326416,keyboard,chair,0.60,0470_nse_s06_0.60_chair_10_n04429376_35606.JPEG
subject-06,1,472,0.556620121002197,airplane,airplane,0.03,0471_nse_s06_0.03_airplane_10_n02690373_9.JPEG
subject-06,1,473,0.73054313659668,cat,cat,0.10,0472_nse_s06_0.10_cat_10_n02123045_13039.JPEG
subject-06,1,474,0.560096979141235,keyboard,keyboard,0.10,0473_nse_s06_0.10_keyboard_10_n03085013_18673.JPEG
subject-06,1,475,0.5365309715271,dog,dog,0.00,0474_nse_s06_0.00_dog_10_n02099429_5209.JPEG
subject-06,1,476,0.921331167221069,elephant,elephant,0.03,0475_nse_s06_0.03_elephant_10_n02504458_1304.JPEG
subject-06,1,477,0.619132995605469,chair,chair,0.00,0476_nse_s06_0.00_chair_10_n04099969_15676.JPEG
subject-06,1,478,0.620073080062866,cat,chair,0.90,0477_nse_s06_0.90_chair_10_n03376595_2382.JPEG
subject-06,1,479,0.634813070297241,truck,truck,0.10,0478_nse_s06_0.10_truck_10_n03417042_9552.JPEG
subject-06,1,480,0.848572969436646,bird,bird,0.10,0479_nse_s06_0.10_bird_10_n01622779_12156.JPEG
subject-06,1,481,0.747193098068237,truck,truck,0.00,0480_nse_s06_0.00_truck_10_n04467665_51267.JPEG
subject-06,1,482,1.35276412963867,oven,truck,0.60,0481_nse_s06_0.60_truck_10_n04467665_79452.JPEG
subject-06,1,483,1.1292450428009,knife,knife,0.35,0482_nse_s06_0.35_knife_10_n03041632_4494.JPEG
subject-06,1,484,0.697367906570435,bird,bird,0.05,0483_nse_s06_0.05_bird_10_n02002556_2038.JPEG
subject-06,1,485,0.697847127914429,knife,knife,0.20,0484_nse_s06_0.20_knife_10_n03041632_4214.JPEG
subject-06,1,486,0.536606073379517,boat,boat,0.00,0485_nse_s06_0.00_boat_10_n04273569_3052.JPEG
subject-06,1,487,0.688205003738403,truck,truck,0.00,0486_nse_s06_0.00_truck_10_n03417042_3913.JPEG
subject-06,1,488,0.586071968078613,keyboard,clock,0.60,0487_nse_s06_0.60_clock_10_n03196217_6809.JPEG
subject-06,1,489,0.754406929016113,chair,chair,0.90,0488_nse_s06_0.90_chair_10_n03376595_9676.JPEG
subject-06,1,490,1.0477921962738,bird,bird,0.60,0489_nse_s06_0.60_bird_10_n01843383_10720.JPEG
subject-06,1,491,0.753998041152954,car,car,0.20,0490_nse_s06_0.20_car_10_n03100240_18984.JPEG
subject-06,1,492,0.562317848205566,boat,boat,0.03,0491_nse_s06_0.03_boat_10_n04273569_1576.JPEG
subject-06,1,493,0.922698974609375,dog,oven,0.60,0492_nse_s06_0.60_oven_10_n04111531_12729.JPEG
subject-06,1,494,0.629305124282837,truck,boat,0.35,0493_nse_s06_0.35_boat_10_n03662601_11448.JPEG
subject-06,1,495,0.727587938308716,keyboard,keyboard,0.03,0494_nse_s06_0.03_keyboard_10_n04505470_2038.JPEG
subject-06,1,496,0.736654996871948,bird,bird,0.20,0495_nse_s06_0.20_bird_10_n02007558_8605.JPEG
subject-06,1,497,1.34020495414734,cat,keyboard,0.60,0496_nse_s06_0.60_keyboard_10_n03085013_15825.JPEG
subject-06,1,498,0.710718870162964,bear,bear,0.00,0497_nse_s06_0.00_bear_10_n02132136_13441.JPEG
subject-06,1,499,0.549931049346924,airplane,dog,0.90,0498_nse_s06_0.90_dog_10_n02100735_8112.JPEG
subject-06,1,500,0.518049001693726,boat,boat,0.03,0499_nse_s06_0.03_boat_10_n03662601_20797.JPEG
subject-06,1,501,0.877955913543701,boat,boat,0.35,0500_nse_s06_0.35_boat_10_n03662601_35415.JPEG
subject-06,1,502,0.774819850921631,airplane,chair,0.20,0501_nse_s06_0.20_chair_10_n03376595_10382.JPEG
subject-06,1,503,0.813842058181763,knife,knife,0.20,0502_nse_s06_0.20_knife_10_n03041632_46103.JPEG
subject-06,1,504,1.48838210105896,cat,dog,0.03,0503_nse_s06_0.03_dog_10_n02101556_2566.JPEG
subject-06,1,505,0.642652988433838,bear,bear,0.20,0504_nse_s06_0.20_bear_10_n02132136_2771.JPEG
subject-06,1,506,1.47918605804443,cat,bird,0.00,0505_nse_s06_0.00_bird_10_n01829413_7668.JPEG
subject-06,1,507,1.33941197395325,oven,clock,0.05,0506_nse_s06_0.05_clock_10_n04548280_2472.JPEG
subject-06,1,508,0.586083889007568,bird,bird,0.05,0507_nse_s06_0.05_bird_10_n01833805_4307.JPEG
subject-06,1,509,0.507731199264526,clock,clock,0.60,0508_nse_s06_0.60_clock_10_n04548280_9492.JPEG
subject-06,1,510,1.47476816177368,chair,elephant,0.10,0509_nse_s06_0.10_elephant_10_n02504013_12615.JPEG
subject-06,1,511,0.753182888031006,cat,dog,0.20,0510_nse_s06_0.20_dog_10_n02109525_74616.JPEG
subject-06,1,512,0.575885057449341,truck,truck,0.10,0511_nse_s06_0.10_truck_10_n04467665_5576.JPEG
subject-06,1,513,0.866805076599121,bird,keyboard,0.60,0512_nse_s06_0.60_keyboard_10_n03085013_10366.JPEG
subject-06,1,514,0.475552082061768,cat,cat,0.10,0513_nse_s06_0.10_cat_10_n02125311_30171.JPEG
subject-06,1,515,0.797857999801636,elephant,elephant,0.10,0514_nse_s06_0.10_elephant_10_n02504458_2231.JPEG
subject-06,1,516,0.642217874526978,cat,boat,0.90,0515_nse_s06_0.90_boat_10_n03344393_10476.JPEG
subject-06,1,517,0.701788187026978,car,keyboard,0.90,0516_nse_s06_0.90_keyboard_10_n04505470_876.JPEG
subject-06,1,518,0.44047212600708,cat,bird,0.35,0517_nse_s06_0.35_bird_10_n01530575_1405.JPEG
subject-06,1,519,1.22293305397034,bird,knife,0.90,0518_nse_s06_0.90_knife_10_n03041632_14132.JPEG
subject-06,1,520,0.769422054290771,keyboard,keyboard,0.00,0519_nse_s06_0.00_keyboard_10_n04505470_1479.JPEG
subject-06,1,521,0.503720045089722,cat,bird,0.35,0520_nse_s06_0.35_bird_10_n01798484_1762.JPEG
subject-06,1,522,0.58817195892334,chair,chair,0.03,0521_nse_s06_0.03_chair_10_n02791124_28.JPEG
subject-06,1,523,1.14090800285339,car,airplane,0.60,0522_nse_s06_0.60_airplane_10_n02690373_6789.JPEG
subject-06,1,524,0.663088083267212,truck,truck,0.05,0523_nse_s06_0.05_truck_10_n03417042_3807.JPEG
subject-06,1,525,0.576775789260864,cat,bird,0.35,0524_nse_s06_0.35_bird_10_n01796340_3062.JPEG
subject-06,1,526,0.66721510887146,bear,bear,0.05,0525_nse_s06_0.05_bear_10_n02134418_5391.JPEG
subject-06,1,527,0.497815847396851,cat,bear,0.03,0526_nse_s06_0.03_bear_10_n02132136_5139.JPEG
subject-06,1,528,0.528542041778564,airplane,airplane,0.05,0527_nse_s06_0.05_airplane_10_n02690373_6929.JPEG
subject-06,1,529,0.528959989547729,cat,elephant,0.35,0528_nse_s06_0.35_elephant_10_n02504458_5204.JPEG
subject-06,1,530,0.580826044082642,oven,oven,0.00,0529_nse_s06_0.00_oven_10_n04111531_6955.JPEG
subject-06,1,531,0.641377925872803,airplane,truck,0.20,0530_nse_s06_0.20_truck_10_n04467665_67189.JPEG
subject-06,1,532,0.818253040313721,bird,clock,0.60,0531_nse_s06_0.60_clock_10_n04548280_1354.JPEG
subject-06,1,533,0.610775947570801,boat,boat,0.05,0532_nse_s06_0.05_boat_10_n04273569_13787.JPEG
subject-06,1,534,0.687413930892944,airplane,airplane,0.10,0533_nse_s06_0.10_airplane_10_n02690373_3096.JPEG
subject-06,1,535,0.647877216339111,keyboard,keyboard,0.00,0534_nse_s06_0.00_keyboard_10_n04505470_4764.JPEG
subject-06,1,536,0.829507112503052,bottle,bottle,0.05,0535_nse_s06_0.05_bottle_10_n03983396_5161.JPEG
subject-06,1,537,0.581085205078125,knife,knife,0.10,0536_nse_s06_0.10_knife_10_n03041632_5162.JPEG
subject-06,1,538,0.558395147323608,cat,cat,0.60,0537_nse_s06_0.60_cat_10_n02124075_5953.JPEG
subject-06,1,539,0.556102991104126,oven,oven,0.20,0538_nse_s06_0.20_oven_10_n04111531_5204.JPEG
subject-06,1,540,0.731745958328247,oven,oven,0.03,0539_nse_s06_0.03_oven_10_n04111531_3955.JPEG
subject-06,1,541,1.06264519691467,knife,chair,0.10,0540_nse_s06_0.10_chair_10_n02791124_842.JPEG
subject-06,1,542,0.792951822280884,airplane,airplane,0.00,0541_nse_s06_0.00_airplane_10_n02690373_4108.JPEG
subject-06,1,543,0.615866184234619,car,car,0.03,0542_nse_s06_0.03_car_10_n04285008_13471.JPEG
subject-06,1,544,0.560130834579468,clock,clock,0.35,0543_nse_s06_0.35_clock_10_n03196217_6375.JPEG
subject-06,1,545,0.73671293258667,bear,bear,0.35,0544_nse_s06_0.35_bear_10_n02134084_5582.JPEG
subject-06,1,546,NaN,na,boat,0.05,0545_nse_s06_0.05_boat_10_n02951358_4609.JPEG
subject-06,1,547,0.874274015426636,bird,oven,0.35,0546_nse_s06_0.35_oven_10_n04111531_3905.JPEG
subject-06,1,548,0.603726863861084,cat,cat,0.00,0547_nse_s06_0.00_cat_10_n02123597_2553.JPEG
subject-06,1,549,0.393415927886963,clock,clock,0.00,0548_nse_s06_0.00_clock_10_n02708093_563.JPEG
subject-06,1,550,0.718593835830688,oven,bear,0.60,0549_nse_s06_0.60_bear_10_n02133161_2733.JPEG
subject-06,1,551,0.60905909538269,cat,knife,0.60,0550_nse_s06_0.60_knife_10_n03041632_27963.JPEG
subject-06,1,552,0.59362006187439,car,car,0.35,0551_nse_s06_0.35_car_10_n04285008_10832.JPEG
subject-06,1,553,0.884107112884521,bicycle,dog,0.35,0552_nse_s06_0.35_dog_10_n02090622_1476.JPEG
subject-06,1,554,0.585115909576416,dog,dog,0.05,0553_nse_s06_0.05_dog_10_n02090379_11997.JPEG
subject-06,1,555,0.760207891464233,bear,elephant,0.35,0554_nse_s06_0.35_elephant_10_n02504458_6909.JPEG
subject-06,1,556,0.566881895065308,keyboard,keyboard,0.60,0555_nse_s06_0.60_keyboard_10_n04505470_3089.JPEG
subject-06,1,557,1.10262894630432,truck,truck,0.03,0556_nse_s06_0.03_truck_10_n04467665_23630.JPEG
subject-06,1,558,0.624904155731201,airplane,airplane,0.03,0557_nse_s06_0.03_airplane_10_n02690373_7944.JPEG
subject-06,1,559,0.90941309928894,bear,elephant,0.03,0558_nse_s06_0.03_elephant_10_n02504458_8062.JPEG
subject-06,1,560,0.6072678565979,knife,knife,0.00,0559_nse_s06_0.00_knife_10_n03041632_35365.JPEG
subject-06,1,561,0.699990034103394,cat,bottle,0.60,0560_nse_s06_0.60_bottle_10_n04560804_15424.JPEG
subject-06,1,562,0.531156063079834,dog,dog,0.10,0561_nse_s06_0.10_dog_10_n02092002_3494.JPEG
subject-06,1,563,0.814789056777954,boat,bicycle,0.60,0562_nse_s06_0.60_bicycle_10_n03792782_11241.JPEG
subject-06,1,564,0.474806070327759,airplane,airplane,0.05,0563_nse_s06_0.05_airplane_10_n02690373_817.JPEG
subject-06,1,565,0.77565598487854,cat,airplane,0.90,0564_nse_s06_0.90_airplane_10_n02690373_9293.JPEG
subject-06,1,566,0.514877796173096,cat,cat,0.05,0565_nse_s06_0.05_cat_10_n02123045_4799.JPEG
subject-06,1,567,0.7292160987854,car,car,0.35,0566_nse_s06_0.35_car_10_n04285008_4749.JPEG
subject-06,1,568,1.21948194503784,boat,airplane,0.60,0567_nse_s06_0.60_airplane_10_n02690373_6536.JPEG
subject-06,1,569,0.549260139465332,knife,knife,0.05,0568_nse_s06_0.05_knife_10_n03041632_81943.JPEG
subject-06,1,570,1.31505513191223,oven,oven,0.20,0569_nse_s06_0.20_oven_10_n04111531_10436.JPEG
subject-06,1,571,0.740246057510376,chair,bird,0.90,0570_nse_s06_0.90_bird_10_n01616318_45456.JPEG
subject-06,1,572,1.14481616020203,truck,truck,0.03,0571_nse_s06_0.03_truck_10_n03417042_21004.JPEG
subject-06,1,573,0.63742208480835,cat,cat,0.35,0572_nse_s06_0.35_cat_10_n02123045_5080.JPEG
subject-06,1,574,0.667507886886597,airplane,car,0.90,0573_nse_s06_0.90_car_10_n02814533_58398.JPEG
subject-06,1,575,NaN,na,keyboard,0.03,0574_nse_s06_0.03_keyboard_10_n04505470_4685.JPEG
subject-06,1,576,0.89635705947876,clock,clock,0.35,0575_nse_s06_0.35_clock_10_n03196217_11614.JPEG
subject-06,1,577,0.650284051895142,bear,bear,0.03,0576_nse_s06_0.03_bear_10_n02134084_8265.JPEG
subject-06,1,578,1.41712808609009,bear,bear,0.03,0577_nse_s06_0.03_bear_10_n02132136_6907.JPEG
subject-06,1,579,0.603276014328003,bottle,bottle,0.35,0578_nse_s06_0.35_bottle_10_n04579145_5430.JPEG
subject-06,1,580,0.701733112335205,airplane,boat,0.60,0579_nse_s06_0.60_boat_10_n04273569_7291.JPEG
subject-06,1,581,0.854294776916504,truck,oven,0.00,0580_nse_s06_0.00_oven_10_n04111531_9779.JPEG
subject-06,1,582,0.716917991638184,boat,boat,0.05,0581_nse_s06_0.05_boat_10_n03344393_8474.JPEG
subject-06,1,583,0.745167016983032,chair,chair,0.20,0582_nse_s06_0.20_chair_10_n04099969_23803.JPEG
subject-06,1,584,0.759148120880127,oven,oven,0.20,0583_nse_s06_0.20_oven_10_n04111531_9490.JPEG
subject-06,1,585,0.534966945648193,cat,cat,0.20,0584_nse_s06_0.20_cat_10_n02123159_1653.JPEG
subject-06,1,586,0.603190898895264,bicycle,bicycle,0.10,0585_nse_s06_0.10_bicycle_10_n03792782_8840.JPEG
subject-06,1,587,0.701881885528564,bear,oven,0.20,0586_nse_s06_0.20_oven_10_n04111531_13354.JPEG
subject-06,1,588,0.840188980102539,car,car,0.35,0587_nse_s06_0.35_car_10_n04285008_14636.JPEG
subject-06,1,589,0.549617052078247,cat,chair,0.60,0588_nse_s06_0.60_chair_10_n04099969_1850.JPEG
subject-06,1,590,0.632311105728149,bottle,bottle,0.20,0589_nse_s06_0.20_bottle_10_n02823428_445.JPEG
subject-06,1,591,0.624910116195679,airplane,bottle,0.90,0590_nse_s06_0.90_bottle_10_n04560804_2523.JPEG
subject-06,1,592,0.56381893157959,boat,boat,0.35,0591_nse_s06_0.35_boat_10_n03662601_1919.JPEG
subject-06,1,593,0.570343971252441,bicycle,bicycle,0.20,0592_nse_s06_0.20_bicycle_10_n03792782_13735.JPEG
subject-06,1,594,0.70872688293457,bear,bear,0.05,0593_nse_s06_0.05_bear_10_n02134418_2263.JPEG
subject-06,1,595,0.72350001335144,bottle,bottle,0.10,0594_nse_s06_0.10_bottle_10_n04579145_7431.JPEG
subject-06,1,596,0.675839900970459,knife,chair,0.35,0595_nse_s06_0.35_chair_10_n04099969_34383.JPEG
subject-06,1,597,0.584989070892334,cat,chair,0.90,0596_nse_s06_0.90_chair_10_n02791124_3731.JPEG
subject-06,1,598,0.942927837371826,oven,clock,0.20,0597_nse_s06_0.20_clock_10_n04548280_310.JPEG
subject-06,1,599,0.751254081726074,bear,cat,0.05,0598_nse_s06_0.05_cat_10_n02125311_12020.JPEG
subject-06,1,600,0.556957960128784,airplane,truck,0.20,0599_nse_s06_0.20_truck_10_n03417042_28747.JPEG
subject-06,1,601,0.676871061325073,boat,boat,0.00,0600_nse_s06_0.00_boat_10_n03662601_33353.JPEG
subject-06,1,602,1.00685000419617,knife,dog,0.35,0601_nse_s06_0.35_dog_10_n02092002_14129.JPEG
subject-06,1,603,0.775451898574829,bird,bird,0.05,0602_nse_s06_0.05_bird_10_n01818515_5754.JPEG
subject-06,1,604,0.811546087265015,car,car,0.03,0603_nse_s06_0.03_car_10_n02814533_5888.JPEG
subject-06,1,605,0.72633695602417,airplane,bird,0.90,0604_nse_s06_0.90_bird_10_n01560419_158.JPEG
subject-06,1,606,0.740266084671021,bird,bird,0.00,0605_nse_s06_0.00_bird_10_n01855032_5089.JPEG
subject-06,1,607,0.49440598487854,cat,cat,0.10,0606_nse_s06_0.10_cat_10_n02123045_6031.JPEG
subject-06,1,608,NaN,na,bird,0.20,0607_nse_s06_0.20_bird_10_n01843383_1983.JPEG
subject-06,1,609,0.686261892318726,car,car,0.10,0608_nse_s06_0.10_car_10_n02814533_27929.JPEG
subject-06,1,610,1.0684289932251,bicycle,bicycle,0.35,0609_nse_s06_0.35_bicycle_10_n03792782_10638.JPEG
subject-06,1,611,0.715214014053345,cat,dog,0.60,0610_nse_s06_0.60_dog_10_n02093428_18218.JPEG
subject-06,1,612,0.775873184204102,car,car,0.05,0611_nse_s06_0.05_car_10_n03100240_6330.JPEG
subject-06,1,613,0.748119831085205,boat,boat,0.10,0612_nse_s06_0.10_boat_10_n04612504_21974.JPEG
subject-06,1,614,0.721552133560181,dog,dog,0.10,0613_nse_s06_0.10_dog_10_n02093256_3131.JPEG
subject-06,1,615,0.827672004699707,car,car,0.05,0614_nse_s06_0.05_car_10_n04285008_9959.JPEG
subject-06,1,616,0.604219913482666,oven,elephant,0.90,0615_nse_s06_0.90_elephant_10_n02504013_7395.JPEG
subject-06,1,617,0.620603084564209,airplane,truck,0.90,0616_nse_s06_0.90_truck_10_n03417042_6941.JPEG
subject-06,1,618,0.681782960891724,airplane,airplane,0.10,0617_nse_s06_0.10_airplane_10_n02690373_18304.JPEG
subject-06,1,619,0.641767978668213,keyboard,keyboard,0.35,0618_nse_s06_0.35_keyboard_10_n04505470_3207.JPEG
subject-06,1,620,0.826370000839233,cat,car,0.90,0619_nse_s06_0.90_car_10_n03100240_10001.JPEG
subject-06,1,621,0.962041139602661,chair,chair,0.00,0620_nse_s06_0.00_chair_10_n03376595_389.JPEG
subject-06,1,622,0.676537990570068,truck,truck,0.05,0621_nse_s06_0.05_truck_10_n03417042_5843.JPEG
subject-06,1,623,1.22059488296509,airplane,bicycle,0.60,0622_nse_s06_0.60_bicycle_10_n03792782_7269.JPEG
subject-06,1,624,0.766726016998291,truck,truck,0.05,0623_nse_s06_0.05_truck_10_n04467665_67892.JPEG
subject-06,1,625,0.557156085968018,cat,bicycle,0.90,0624_nse_s06_0.90_bicycle_10_n02835271_9602.JPEG
subject-06,1,626,1.03348398208618,dog,dog,0.35,0625_nse_s06_0.35_dog_10_n02110627_27959.JPEG
subject-06,1,627,1.35410308837891,bird,bird,0.05,0626_nse_s06_0.05_bird_10_n02037110_2844.JPEG
subject-06,1,628,0.553800106048584,keyboard,keyboard,0.10,0627_nse_s06_0.10_keyboard_10_n03085013_6857.JPEG
subject-06,1,629,0.821641206741333,bird,bird,0.20,0628_nse_s06_0.20_bird_10_n01843065_105.JPEG
subject-06,1,630,1.19657492637634,bird,bird,0.20,0629_nse_s06_0.20_bird_10_n01614925_469.JPEG
subject-06,1,631,0.980809926986694,bear,keyboard,0.35,0630_nse_s06_0.35_keyboard_10_n03085013_7286.JPEG
subject-06,1,632,0.764564990997314,bottle,bottle,0.20,0631_nse_s06_0.20_bottle_10_n02823428_2600.JPEG
subject-06,1,633,NaN,na,airplane,0.90,0632_nse_s06_0.90_airplane_10_n02690373_1279.JPEG
subject-06,1,634,0.688229084014893,clock,clock,0.03,0633_nse_s06_0.03_clock_10_n02708093_5577.JPEG
subject-06,1,635,0.586475133895874,boat,bottle,0.90,0634_nse_s06_0.90_bottle_10_n03937543_3007.JPEG
subject-06,1,636,0.616956233978271,airplane,knife,0.60,0635_nse_s06_0.60_knife_10_n03041632_2483.JPEG
subject-06,1,637,0.877254962921143,bird,bottle,0.60,0636_nse_s06_0.60_bottle_10_n03937543_1770.JPEG
subject-06,1,638,0.761677026748657,chair,knife,0.03,0637_nse_s06_0.03_knife_10_n03041632_3926.JPEG
subject-06,1,639,0.78361988067627,keyboard,keyboard,0.00,0638_nse_s06_0.00_keyboard_10_n03085013_23030.JPEG
subject-06,1,640,0.651868104934692,clock,clock,0.00,0639_nse_s06_0.00_clock_10_n03196217_886.JPEG
subject-06,1,641,0.587920904159546,car,car,0.00,0640_nse_s06_0.00_car_10_n03100240_18725.JPEG
subject-06,1,642,0.725338935852051,bottle,bottle,0.03,0641_nse_s06_0.03_bottle_10_n03983396_12459.JPEG
subject-06,1,643,0.586133003234863,bottle,bottle,0.00,0642_nse_s06_0.00_bottle_10_n03983396_10881.JPEG
subject-06,1,644,0.753844022750854,keyboard,oven,0.60,0643_nse_s06_0.60_oven_10_n04111531_537.JPEG
subject-06,1,645,0.868294954299927,truck,truck,0.10,0644_nse_s06_0.10_truck_10_n03417042_15078.JPEG
subject-06,1,646,1.03587102890015,car,car,0.10,0645_nse_s06_0.10_car_10_n02814533_42453.JPEG
subject-06,1,647,0.834054946899414,knife,knife,0.03,0646_nse_s06_0.03_knife_10_n03041632_84012.JPEG
subject-06,1,648,0.803139209747314,bird,bird,0.00,0647_nse_s06_0.00_bird_10_n02028035_11701.JPEG
subject-06,1,649,0.573508024215698,bicycle,bicycle,0.35,0648_nse_s06_0.35_bicycle_10_n03792782_28300.JPEG
subject-06,1,650,0.496071100234985,bottle,bottle,0.03,0649_nse_s06_0.03_bottle_10_n02823428_13931.JPEG
subject-06,1,651,1.37823510169983,boat,cat,0.05,0650_nse_s06_0.05_cat_10_n02125311_57758.JPEG
subject-06,1,652,1.24685597419739,clock,boat,0.90,0651_nse_s06_0.90_boat_10_n02951358_8318.JPEG
subject-06,1,653,1.36361694335938,car,oven,0.90,0652_nse_s06_0.90_oven_10_n04111531_8353.JPEG
subject-06,1,654,0.532299041748047,keyboard,keyboard,0.20,0653_nse_s06_0.20_keyboard_10_n04505470_5880.JPEG
subject-06,1,655,1.27590703964233,airplane,airplane,0.35,0654_nse_s06_0.35_airplane_10_n02690373_798.JPEG
subject-06,1,656,0.698139905929565,cat,keyboard,0.90,0655_nse_s06_0.90_keyboard_10_n03085013_23014.JPEG
subject-06,1,657,1.36685490608215,bear,oven,0.00,0656_nse_s06_0.00_oven_10_n04111531_2677.JPEG
subject-06,1,658,0.634602069854736,clock,clock,0.05,0657_nse_s06_0.05_clock_10_n02708093_3481.JPEG
subject-06,1,659,0.63555383682251,bear,bear,0.20,0658_nse_s06_0.20_bear_10_n02132136_4335.JPEG
subject-06,1,660,1.00497579574585,chair,knife,0.10,0659_nse_s06_0.10_knife_10_n03041632_82197.JPEG
subject-06,1,661,0.632158041000366,bicycle,bicycle,0.35,0660_nse_s06_0.35_bicycle_10_n03792782_3299.JPEG
subject-06,1,662,1.33019709587097,cat,dog,0.03,0661_nse_s06_0.03_dog_10_n02086646_7932.JPEG
subject-06,1,663,0.484694957733154,bicycle,bicycle,0.00,0662_nse_s06_0.00_bicycle_10_n02835271_21949.JPEG
subject-06,1,664,0.706387042999268,keyboard,clock,0.60,0663_nse_s06_0.60_clock_10_n02708093_7607.JPEG
subject-06,1,665,0.855415105819702,oven,clock,0.90,0664_nse_s06_0.90_clock_10_n03196217_127.JPEG
subject-06,1,666,0.522834777832031,oven,oven,0.03,0665_nse_s06_0.03_oven_10_n04111531_7283.JPEG
subject-06,1,667,0.67451000213623,bicycle,bicycle,0.35,0666_nse_s06_0.35_bicycle_10_n03792782_1661.JPEG
subject-06,1,668,1.01100897789001,elephant,elephant,0.05,0667_nse_s06_0.05_elephant_10_n02504013_5992.JPEG
subject-06,1,669,0.590507984161377,clock,clock,0.20,0668_nse_s06_0.20_clock_10_n03196217_6268.JPEG
subject-06,1,670,1.50038385391235,car,car,0.10,0669_nse_s06_0.10_car_10_n02814533_80837.JPEG
subject-06,1,671,0.549165964126587,oven,oven,0.35,0670_nse_s06_0.35_oven_10_n04111531_23830.JPEG
subject-06,1,672,0.840552806854248,car,car,0.00,0671_nse_s06_0.00_car_10_n02814533_1344.JPEG
subject-06,1,673,1.33915591239929,knife,oven,0.00,0672_nse_s06_0.00_oven_10_n04111531_20407.JPEG
subject-06,1,674,1.01508712768555,clock,knife,0.20,0673_nse_s06_0.20_knife_10_n03041632_7380.JPEG
subject-06,1,675,0.729933977127075,boat,boat,0.05,0674_nse_s06_0.05_boat_10_n03344393_8022.JPEG
subject-06,1,676,0.598289012908936,keyboard,keyboard,0.10,0675_nse_s06_0.10_keyboard_10_n04505470_4668.JPEG
subject-06,1,677,0.519832134246826,cat,keyboard,0.90,0676_nse_s06_0.90_keyboard_10_n03085013_21380.JPEG
subject-06,1,678,0.796368837356567,bicycle,boat,0.10,0677_nse_s06_0.10_boat_10_n02951358_30269.JPEG
subject-06,1,679,0.840337991714478,airplane,dog,0.60,0678_nse_s06_0.60_dog_10_n02090721_4330.JPEG
subject-06,1,680,0.554665088653564,car,car,0.03,0679_nse_s06_0.03_car_10_n03100240_7300.JPEG
subject-06,1,681,0.852748870849609,keyboard,chair,0.35,0680_nse_s06_0.35_chair_10_n02791124_1466.JPEG
subject-06,1,682,0.67435884475708,bottle,bear,0.90,0681_nse_s06_0.90_bear_10_n02133161_13427.JPEG
subject-06,1,683,0.772379875183105,truck,truck,0.03,0682_nse_s06_0.03_truck_10_n03796401_5.JPEG
subject-06,1,684,0.665825843811035,bicycle,bicycle,0.20,0683_nse_s06_0.20_bicycle_10_n02835271_19865.JPEG
subject-06,1,685,0.704178094863892,boat,bird,0.60,0684_nse_s06_0.60_bird_10_n01582220_11174.JPEG
subject-06,1,686,0.625539064407349,oven,chair,0.60,0685_nse_s06_0.60_chair_10_n04429376_39889.JPEG
subject-06,1,687,0.648277997970581,keyboard,keyboard,0.20,0686_nse_s06_0.20_keyboard_10_n03085013_6069.JPEG
subject-06,1,688,0.975936889648438,bicycle,cat,0.60,0687_nse_s06_0.60_cat_10_n02123597_13713.JPEG
subject-06,1,689,1.30573892593384,chair,knife,0.35,0688_nse_s06_0.35_knife_10_n03041632_94202.JPEG
subject-06,1,690,0.566498994827271,keyboard,keyboard,0.05,0689_nse_s06_0.05_keyboard_10_n03085013_22016.JPEG
subject-06,1,691,0.925920963287354,truck,truck,0.03,0690_nse_s06_0.03_truck_10_n03796401_4057.JPEG
subject-06,1,692,0.747400999069214,clock,clock,0.03,0691_nse_s06_0.03_clock_10_n04548280_7828.JPEG
subject-06,1,693,0.800430059432983,airplane,airplane,0.20,0692_nse_s06_0.20_airplane_10_n02690373_614.JPEG
subject-06,1,694,0.739008903503418,bird,bird,0.03,0693_nse_s06_0.03_bird_10_n01797886_19727.JPEG
subject-06,1,695,0.723565101623535,oven,bottle,0.90,0694_nse_s06_0.90_bottle_10_n04560804_6329.JPEG
subject-06,1,696,0.938694000244141,boat,oven,0.90,0695_nse_s06_0.90_oven_10_n04111531_5357.JPEG
subject-06,1,697,0.507079839706421,bicycle,bicycle,0.10,0696_nse_s06_0.10_bicycle_10_n02835271_11522.JPEG
subject-06,1,698,0.822067022323608,boat,knife,0.90,0697_nse_s06_0.90_knife_10_n03041632_5916.JPEG
subject-06,1,699,0.873996019363403,keyboard,oven,0.00,0698_nse_s06_0.00_oven_10_n04111531_1150.JPEG
subject-06,1,700,0.750658988952637,oven,dog,0.90,0699_nse_s06_0.90_dog_10_n02113023_5419.JPEG
subject-06,1,701,0.535064935684204,cat,bird,0.90,0700_nse_s06_0.90_bird_10_n02017213_7449.JPEG
subject-06,1,702,0.603915929794312,oven,bear,0.35,0701_nse_s06_0.35_bear_10_n02134084_24140.JPEG
subject-06,1,703,NaN,na,airplane,0.05,0702_nse_s06_0.05_airplane_10_n02690373_10657.JPEG
subject-06,1,704,0.978296995162964,bottle,bottle,0.20,0703_nse_s06_0.20_bottle_10_n04560804_13768.JPEG
subject-06,1,705,0.686486959457397,clock,clock,0.35,0704_nse_s06_0.35_clock_10_n02708093_3462.JPEG
subject-06,1,706,1.0302619934082,bear,elephant,0.00,0705_nse_s06_0.00_elephant_10_n02504458_1351.JPEG
subject-06,1,707,0.528384923934937,chair,chair,0.03,0706_nse_s06_0.03_chair_10_n03376595_7859.JPEG
subject-06,1,708,0.653082847595215,truck,truck,0.00,0707_nse_s06_0.00_truck_10_n03417042_18551.JPEG
subject-06,1,709,0.696828842163086,keyboard,clock,0.20,0708_nse_s06_0.20_clock_10_n03196217_7149.JPEG
subject-06,1,710,0.679480075836182,keyboard,bottle,0.20,0709_nse_s06_0.20_bottle_10_n03937543_1678.JPEG
subject-06,1,711,0.717880964279175,dog,dog,0.05,0710_nse_s06_0.05_dog_10_n02091635_239.JPEG
subject-06,1,712,0.893716096878052,car,car,0.20,0711_nse_s06_0.20_car_10_n02814533_38782.JPEG
subject-06,1,713,0.453632116317749,clock,cat,0.60,0712_nse_s06_0.60_cat_10_n02123045_4640.JPEG
subject-06,1,714,0.521748065948486,cat,cat,0.10,0713_nse_s06_0.10_cat_10_n02124075_8922.JPEG
subject-06,1,715,0.611157894134521,boat,boat,0.20,0714_nse_s06_0.20_boat_10_n02951358_8915.JPEG
subject-06,1,716,0.647721767425537,boat,boat,0.20,0715_nse_s06_0.20_boat_10_n03662601_26005.JPEG
subject-06,1,717,0.685722827911377,knife,knife,0.00,0716_nse_s06_0.00_knife_10_n03041632_36814.JPEG
subject-06,1,718,1.13024592399597,airplane,car,0.35,0717_nse_s06_0.35_car_10_n03100240_2714.JPEG
subject-06,1,719,0.86614990234375,airplane,bicycle,0.20,0718_nse_s06_0.20_bicycle_10_n02835271_6278.JPEG
subject-06,1,720,0.704393148422241,airplane,car,0.90,0719_nse_s06_0.90_car_10_n04285008_8761.JPEG
subject-06,1,721,0.588899850845337,bird,bird,0.03,0720_nse_s06_0.03_bird_10_n01829413_1626.JPEG
subject-06,1,722,0.756907939910889,car,car,0.05,0721_nse_s06_0.05_car_10_n04285008_11965.JPEG
subject-06,1,723,0.901106834411621,dog,dog,0.05,0722_nse_s06_0.05_dog_10_n02112018_4893.JPEG
subject-06,1,724,0.707817077636719,dog,dog,0.05,0723_nse_s06_0.05_dog_10_n02088364_4779.JPEG
subject-06,1,725,0.599667072296143,keyboard,keyboard,0.35,0724_nse_s06_0.35_keyboard_10_n03085013_24103.JPEG
subject-06,1,726,0.598498106002808,oven,bear,0.90,0725_nse_s06_0.90_bear_10_n02133161_676.JPEG
subject-06,1,727,0.788309812545776,bear,bear,0.03,0726_nse_s06_0.03_bear_10_n02132136_10134.JPEG
subject-06,1,728,0.672210931777954,car,car,0.20,0727_nse_s06_0.20_car_10_n02814533_63202.JPEG
subject-06,1,729,0.820627927780151,bicycle,bicycle,0.05,0728_nse_s06_0.05_bicycle_10_n02835271_5354.JPEG
subject-06,1,730,0.810307025909424,car,clock,0.03,0729_nse_s06_0.03_clock_10_n03196217_845.JPEG
subject-06,1,731,0.811625957489014,bird,bird,0.10,0730_nse_s06_0.10_bird_10_n02017213_6667.JPEG
subject-06,1,732,0.741125106811523,bird,bird,0.03,0731_nse_s06_0.03_bird_10_n01798484_11493.JPEG
subject-06,1,733,0.723546028137207,bear,bear,0.05,0732_nse_s06_0.05_bear_10_n02134418_1522.JPEG
subject-06,1,734,0.554491996765137,bottle,bottle,0.05,0733_nse_s06_0.05_bottle_10_n04591713_1237.JPEG
subject-06,1,735,0.591913938522339,keyboard,keyboard,0.03,0734_nse_s06_0.03_keyboard_10_n03085013_20483.JPEG
subject-06,1,736,1.18800520896912,dog,dog,0.60,0735_nse_s06_0.60_dog_10_n02095570_2127.JPEG
subject-06,1,737,1.06459593772888,truck,truck,0.20,0736_nse_s06_0.20_truck_10_n03417042_12095.JPEG
subject-06,1,738,0.618716955184937,airplane,airplane,0.05,0737_nse_s06_0.05_airplane_10_n02690373_4495.JPEG
subject-06,1,739,0.654463052749634,oven,chair,0.60,0738_nse_s06_0.60_chair_10_n04099969_7577.JPEG
subject-06,1,740,0.769356966018677,dog,dog,0.05,0739_nse_s06_0.05_dog_10_n02096294_10025.JPEG
subject-06,1,741,0.799837112426758,car,car,0.00,0740_nse_s06_0.00_car_10_n02814533_1228.JPEG
subject-06,1,742,0.6843581199646,knife,knife,0.10,0741_nse_s06_0.10_knife_10_n03041632_27848.JPEG
subject-06,1,743,0.585623979568481,clock,clock,0.10,0742_nse_s06_0.10_clock_10_n04548280_7290.JPEG
subject-06,1,744,0.605978012084961,boat,boat,0.60,0743_nse_s06_0.60_boat_10_n04273569_4518.JPEG
subject-06,1,745,0.481829166412354,keyboard,keyboard,0.00,0744_nse_s06_0.00_keyboard_10_n03085013_32137.JPEG
subject-06,1,746,1.00414204597473,truck,truck,0.03,0745_nse_s06_0.03_truck_10_n03417042_13783.JPEG
subject-06,1,747,0.517990112304688,clock,bicycle,0.90,0746_nse_s06_0.90_bicycle_10_n03792782_17018.JPEG
subject-06,1,748,0.481113910675049,boat,boat,0.00,0747_nse_s06_0.00_boat_10_n03662601_13715.JPEG
subject-06,1,749,0.784815788269043,bird,bird,0.00,0748_nse_s06_0.00_bird_10_n01622779_7041.JPEG
subject-06,1,750,0.62285304069519,keyboard,bicycle,0.60,0749_nse_s06_0.60_bicycle_10_n03792782_42626.JPEG
subject-06,1,751,0.669903039932251,truck,truck,0.20,0750_nse_s06_0.20_truck_10_n04467665_3561.JPEG
subject-06,1,752,0.784122943878174,bear,dog,0.05,0751_nse_s06_0.05_dog_10_n02111277_5975.JPEG
subject-06,1,753,0.582149982452393,airplane,airplane,0.03,0752_nse_s06_0.03_airplane_10_n02690373_1733.JPEG
subject-06,1,754,0.674690008163452,oven,clock,0.90,0753_nse_s06_0.90_clock_10_n04548280_1327.JPEG
subject-06,1,755,0.502504825592041,bicycle,bicycle,0.03,0754_nse_s06_0.03_bicycle_10_n03792782_10223.JPEG
subject-06,1,756,0.557044982910156,cat,bicycle,0.60,0755_nse_s06_0.60_bicycle_10_n03792782_8333.JPEG
subject-06,1,757,1.00072908401489,knife,oven,0.03,0756_nse_s06_0.03_oven_10_n04111531_2923.JPEG
subject-06,1,758,0.560163974761963,cat,cat,0.03,0757_nse_s06_0.03_cat_10_n02123159_6071.JPEG
subject-06,1,759,0.896776914596558,bottle,bottle,0.03,0758_nse_s06_0.03_bottle_10_n03937543_1594.JPEG
subject-06,1,760,0.813692808151245,keyboard,keyboard,0.10,0759_nse_s06_0.10_keyboard_10_n03085013_3795.JPEG
subject-06,1,761,1.01946401596069,knife,bicycle,0.60,0760_nse_s06_0.60_bicycle_10_n02835271_8654.JPEG
subject-06,1,762,0.563842058181763,clock,clock,0.20,0761_nse_s06_0.20_clock_10_n04548280_7482.JPEG
subject-06,1,763,0.602464914321899,keyboard,keyboard,0.00,0762_nse_s06_0.00_keyboard_10_n04505470_4918.JPEG
subject-06,1,764,0.662760972976685,car,car,0.35,0763_nse_s06_0.35_car_10_n03100240_3364.JPEG
subject-06,1,765,0.563410997390747,airplane,airplane,0.20,0764_nse_s06_0.20_airplane_10_n02690373_18234.JPEG
subject-06,1,766,0.60859203338623,bottle,bottle,0.10,0765_nse_s06_0.10_bottle_10_n02823428_3458.JPEG
subject-06,1,767,0.746044874191284,keyboard,keyboard,0.10,0766_nse_s06_0.10_keyboard_10_n03085013_24309.JPEG
subject-06,1,768,0.857795000076294,keyboard,oven,0.60,0767_nse_s06_0.60_oven_10_n04111531_21460.JPEG
subject-06,1,769,0.529526948928833,truck,truck,0.20,0768_nse_s06_0.20_truck_10_n04467665_38361.JPEG
subject-06,1,770,1.00607085227966,elephant,elephant,0.10,0769_nse_s06_0.10_elephant_10_n02504458_3303.JPEG
subject-06,1,771,0.611948013305664,elephant,elephant,0.05,0770_nse_s06_0.05_elephant_10_n02504013_4436.JPEG
subject-06,1,772,0.564134120941162,clock,clock,0.00,0771_nse_s06_0.00_clock_10_n03196217_5916.JPEG
subject-06,1,773,0.640762805938721,knife,knife,0.10,0772_nse_s06_0.10_knife_10_n03041632_8540.JPEG
subject-06,1,774,0.83318305015564,cat,knife,0.60,0773_nse_s06_0.60_knife_10_n03041632_29801.JPEG
subject-06,1,775,0.768599987030029,bird,oven,0.35,0774_nse_s06_0.35_oven_10_n04111531_9210.JPEG
subject-06,1,776,0.545038938522339,airplane,airplane,0.10,0775_nse_s06_0.10_airplane_10_n02690373_2521.JPEG
subject-06,1,777,1.15136003494263,elephant,bicycle,0.35,0776_nse_s06_0.35_bicycle_10_n02835271_792.JPEG
subject-06,1,778,0.874315023422241,elephant,elephant,0.05,0777_nse_s06_0.05_elephant_10_n02504013_4686.JPEG
subject-06,1,779,0.996715068817139,bird,cat,0.35,0778_nse_s06_0.35_cat_10_n02123394_8592.JPEG
subject-06,1,780,1.39504909515381,airplane,airplane,0.20,0779_nse_s06_0.20_airplane_10_n02690373_9963.JPEG
subject-06,1,781,1.00082802772522,elephant,elephant,0.35,0780_nse_s06_0.35_elephant_10_n02504458_1157.JPEG
subject-06,1,782,1.039067029953,chair,chair,0.05,0781_nse_s06_0.05_chair_10_n04429376_16677.JPEG
subject-06,1,783,0.899964094161987,bicycle,elephant,0.35,0782_nse_s06_0.35_elephant_10_n02504013_1901.JPEG
subject-06,1,784,0.662308931350708,boat,chair,0.90,0783_nse_s06_0.90_chair_10_n02791124_13073.JPEG
subject-06,1,785,0.99791693687439,cat,oven,0.35,0784_nse_s06_0.35_oven_10_n04111531_17923.JPEG
subject-06,1,786,0.728691101074219,car,bottle,0.90,0785_nse_s06_0.90_bottle_10_n04557648_704.JPEG
subject-06,1,787,0.672870874404907,boat,boat,0.05,0786_nse_s06_0.05_boat_10_n03662601_16076.JPEG
subject-06,1,788,1.05507397651672,elephant,elephant,0.20,0787_nse_s06_0.20_elephant_10_n02504458_5083.JPEG
subject-06,1,789,0.631257057189941,keyboard,keyboard,0.03,0788_nse_s06_0.03_keyboard_10_n04505470_4105.JPEG
subject-06,1,790,0.623674869537354,clock,keyboard,0.60,0789_nse_s06_0.60_keyboard_10_n04505470_4611.JPEG
subject-06,1,791,0.805078983306885,elephant,bird,0.35,0790_nse_s06_0.35_bird_10_n01582220_845.JPEG
subject-06,1,792,1.09830284118652,clock,clock,0.20,0791_nse_s06_0.20_clock_10_n03196217_8072.JPEG
subject-06,1,793,1.466637134552,clock,clock,0.60,0792_nse_s06_0.60_clock_10_n04548280_9220.JPEG
subject-06,1,794,0.61247992515564,bicycle,chair,0.90,0793_nse_s06_0.90_chair_10_n02791124_15723.JPEG
subject-06,1,795,0.798158168792725,clock,clock,0.35,0794_nse_s06_0.35_clock_10_n04548280_4588.JPEG
subject-06,1,796,1.03673696517944,bottle,chair,0.03,0795_nse_s06_0.03_chair_10_n02791124_1456.JPEG
subject-06,1,797,0.459359884262085,knife,knife,0.10,0796_nse_s06_0.10_knife_10_n03041632_29862.JPEG
subject-06,1,798,0.596931934356689,truck,truck,0.03,0797_nse_s06_0.03_truck_10_n04467665_51690.JPEG
subject-06,1,799,0.879631042480469,boat,oven,0.90,0798_nse_s06_0.90_oven_10_n04111531_22916.JPEG
subject-06,1,800,0.509210109710693,clock,clock,0.20,0799_nse_s06_0.20_clock_10_n02708093_6673.JPEG
subject-06,1,801,0.877665042877197,knife,knife,0.05,0800_nse_s06_0.05_knife_10_n03041632_83826.JPEG
subject-06,1,802,0.759251832962036,keyboard,clock,0.90,0801_nse_s06_0.90_clock_10_n03196217_2128.JPEG
subject-06,1,803,1.13623309135437,keyboard,keyboard,0.05,0802_nse_s06_0.05_keyboard_10_n03085013_6834.JPEG
subject-06,1,804,0.782541990280151,bicycle,bicycle,0.05,0803_nse_s06_0.05_bicycle_10_n02835271_4350.JPEG
subject-06,1,805,0.73546314239502,dog,dog,0.00,0804_nse_s06_0.00_dog_10_n02086646_5887.JPEG
subject-06,1,806,0.697758913040161,cat,dog,0.10,0805_nse_s06_0.10_dog_10_n02112018_4481.JPEG
subject-06,1,807,0.904268980026245,car,boat,0.90,0806_nse_s06_0.90_boat_10_n03344393_5798.JPEG
subject-06,1,808,0.81100606918335,dog,dog,0.03,0807_nse_s06_0.03_dog_10_n02111129_2574.JPEG
subject-06,1,809,1.27644896507263,elephant,elephant,0.20,0808_nse_s06_0.20_elephant_10_n02504013_6968.JPEG
subject-06,1,810,0.814521074295044,elephant,elephant,0.00,0809_nse_s06_0.00_elephant_10_n02504013_12533.JPEG
subject-06,1,811,1.29096913337708,cat,dog,0.20,0810_nse_s06_0.20_dog_10_n02093256_6923.JPEG
subject-06,1,812,0.683091878890991,bird,bird,0.35,0811_nse_s06_0.35_bird_10_n01592084_6847.JPEG
subject-06,1,813,0.919263124465942,car,dog,0.90,0812_nse_s06_0.90_dog_10_n02096294_6715.JPEG
subject-06,1,814,0.549282073974609,elephant,elephant,0.05,0813_nse_s06_0.05_elephant_10_n02504013_7474.JPEG
subject-06,1,815,0.571835994720459,airplane,airplane,0.20,0814_nse_s06_0.20_airplane_10_n02690373_1053.JPEG
subject-06,1,816,0.480361938476562,cat,cat,0.00,0815_nse_s06_0.00_cat_10_n02124075_8408.JPEG
subject-06,1,817,0.833569049835205,oven,chair,0.05,0816_nse_s06_0.05_chair_10_n02791124_5405.JPEG
subject-06,1,818,0.593961000442505,oven,boat,0.00,0817_nse_s06_0.00_boat_10_n03662601_18610.JPEG
subject-06,1,819,0.464502811431885,boat,cat,0.90,0818_nse_s06_0.90_cat_10_n02123045_8392.JPEG
subject-06,1,820,0.522578001022339,car,car,0.05,0819_nse_s06_0.05_car_10_n04285008_15385.JPEG
subject-06,1,821,0.552984952926636,cat,cat,0.10,0820_nse_s06_0.10_cat_10_n02123394_441.JPEG
subject-06,1,822,0.660137891769409,bicycle,car,0.90,0821_nse_s06_0.90_car_10_n04285008_1619.JPEG
subject-06,1,823,0.644761085510254,dog,dog,0.05,0822_nse_s06_0.05_dog_10_n02093256_9655.JPEG
subject-06,1,824,0.696668148040771,elephant,elephant,0.03,0823_nse_s06_0.03_elephant_10_n02504013_6471.JPEG
subject-06,1,825,0.743045806884766,elephant,elephant,0.00,0824_nse_s06_0.00_elephant_10_n02504013_8930.JPEG
subject-06,1,826,0.581908941268921,clock,clock,0.03,0825_nse_s06_0.03_clock_10_n02708093_7535.JPEG
subject-06,1,827,0.83394193649292,chair,chair,0.10,0826_nse_s06_0.10_chair_10_n02791124_2095.JPEG
subject-06,1,828,0.594238996505737,oven,oven,0.00,0827_nse_s06_0.00_oven_10_n04111531_2433.JPEG
subject-06,1,829,0.767849922180176,elephant,elephant,0.00,0828_nse_s06_0.00_elephant_10_n02504013_4997.JPEG
subject-06,1,830,1.03640508651733,dog,dog,0.10,0829_nse_s06_0.10_dog_10_n02100735_6627.JPEG
subject-06,1,831,1.01315188407898,bear,bear,0.10,0830_nse_s06_0.10_bear_10_n02133161_4091.JPEG
subject-06,1,832,1.41167116165161,oven,clock,0.03,0831_nse_s06_0.03_clock_10_n03196217_6131.JPEG
subject-06,1,833,0.59840202331543,bird,bird,0.05,0832_nse_s06_0.05_bird_10_n02018795_28.JPEG
subject-06,1,834,0.775114059448242,car,oven,0.90,0833_nse_s06_0.90_oven_10_n04111531_2207.JPEG
subject-06,1,835,0.903682947158813,bicycle,bicycle,0.03,0834_nse_s06_0.03_bicycle_10_n02835271_2491.JPEG
subject-06,1,836,0.872114896774292,elephant,bicycle,0.35,0835_nse_s06_0.35_bicycle_10_n03792782_18180.JPEG
subject-06,1,837,0.58030891418457,keyboard,keyboard,0.00,0836_nse_s06_0.00_keyboard_10_n04505470_5024.JPEG
subject-06,1,838,0.616277933120728,boat,boat,0.20,0837_nse_s06_0.20_boat_10_n04612504_4841.JPEG
subject-06,1,839,0.554427862167358,bear,bear,0.35,0838_nse_s06_0.35_bear_10_n02132136_258.JPEG
subject-06,1,840,0.631597995758057,bottle,oven,0.10,0839_nse_s06_0.10_oven_10_n04111531_15735.JPEG
subject-06,1,841,0.708074808120728,clock,oven,0.10,0840_nse_s06_0.10_oven_10_n04111531_12129.JPEG
subject-06,1,842,0.598562002182007,bird,chair,0.35,0841_nse_s06_0.35_chair_10_n03376595_6800.JPEG
subject-06,1,843,0.569983959197998,bear,bear,0.05,0842_nse_s06_0.05_bear_10_n02134084_23524.JPEG
subject-06,1,844,0.805838108062744,elephant,bird,0.05,0843_nse_s06_0.05_bird_10_n02051845_1191.JPEG
subject-06,1,845,1.20479202270508,car,boat,0.60,0844_nse_s06_0.60_boat_10_n03662601_11583.JPEG
subject-06,1,846,0.488686084747314,keyboard,keyboard,0.03,0845_nse_s06_0.03_keyboard_10_n03085013_23791.JPEG
subject-06,1,847,0.573011159896851,bottle,bottle,0.03,0846_nse_s06_0.03_bottle_10_n03937543_7814.JPEG
subject-06,1,848,0.595005989074707,chair,chair,0.03,0847_nse_s06_0.03_chair_10_n03376595_4004.JPEG
subject-06,1,849,0.968680858612061,knife,bear,0.00,0848_nse_s06_0.00_bear_10_n02134084_3922.JPEG
subject-06,1,850,0.615470886230469,bird,keyboard,0.90,0849_nse_s06_0.90_keyboard_10_n04505470_2518.JPEG
subject-06,1,851,0.491840839385986,keyboard,oven,0.35,0850_nse_s06_0.35_oven_10_n04111531_10555.JPEG
subject-06,1,852,0.650059938430786,bottle,bottle,0.03,0851_nse_s06_0.03_bottle_10_n03983396_4791.JPEG
subject-06,1,853,0.709535121917725,bird,bird,0.10,0852_nse_s06_0.10_bird_10_n01843065_11615.JPEG
subject-06,1,854,0.618907928466797,car,bear,0.90,0853_nse_s06_0.90_bear_10_n02134418_2634.JPEG
subject-06,1,855,0.717446804046631,truck,truck,0.00,0854_nse_s06_0.00_truck_10_n04467665_49282.JPEG
subject-06,1,856,0.515420913696289,oven,bicycle,0.90,0855_nse_s06_0.90_bicycle_10_n03792782_12704.JPEG
subject-06,1,857,0.753912925720215,bear,knife,0.35,0856_nse_s06_0.35_knife_10_n03041632_13518.JPEG
subject-06,1,858,0.538336038589478,keyboard,knife,0.35,0857_nse_s06_0.35_knife_10_n03041632_37536.JPEG
subject-06,1,859,0.536911010742188,bird,bear,0.90,0858_nse_s06_0.90_bear_10_n02134084_1112.JPEG
subject-06,1,860,0.627334117889404,car,car,0.00,0859_nse_s06_0.00_car_10_n04285008_2395.JPEG
subject-06,1,861,0.673367977142334,airplane,bottle,0.90,0860_nse_s06_0.90_bottle_10_n04591713_7549.JPEG
subject-06,1,862,0.517826080322266,bottle,bottle,0.10,0861_nse_s06_0.10_bottle_10_n04591713_3161.JPEG
subject-06,1,863,0.665280103683472,bicycle,elephant,0.60,0862_nse_s06_0.60_elephant_10_n02504458_5434.JPEG
subject-06,1,864,0.987679958343506,bicycle,bicycle,0.60,0863_nse_s06_0.60_bicycle_10_n02835271_4654.JPEG
subject-06,1,865,0.910468101501465,keyboard,keyboard,0.20,0864_nse_s06_0.20_keyboard_10_n03085013_8007.JPEG
subject-06,1,866,0.541567802429199,car,car,0.90,0865_nse_s06_0.90_car_10_n03100240_10861.JPEG
subject-06,1,867,0.538789033889771,cat,cat,0.03,0866_nse_s06_0.03_cat_10_n02123159_4270.JPEG
subject-06,1,868,0.915508031845093,chair,oven,0.35,0867_nse_s06_0.35_oven_10_n04111531_4826.JPEG
subject-06,1,869,0.576057910919189,clock,clock,0.00,0868_nse_s06_0.00_clock_10_n02708093_6822.JPEG
subject-06,1,870,0.744530916213989,truck,truck,0.05,0869_nse_s06_0.05_truck_10_n03417042_10627.JPEG
subject-06,1,871,0.658186912536621,bottle,bottle,0.35,0870_nse_s06_0.35_bottle_10_n04557648_12225.JPEG
subject-06,1,872,0.564628839492798,car,car,0.10,0871_nse_s06_0.10_car_10_n03100240_9286.JPEG
subject-06,1,873,0.571346998214722,chair,chair,0.10,0872_nse_s06_0.10_chair_10_n02791124_2105.JPEG
subject-06,1,874,0.601783990859985,boat,elephant,0.60,0873_nse_s06_0.60_elephant_10_n02504458_6218.JPEG
subject-06,1,875,1.25995206832886,car,car,0.10,0874_nse_s06_0.10_car_10_n04285008_10893.JPEG
subject-06,1,876,0.765444040298462,airplane,airplane,0.60,0875_nse_s06_0.60_airplane_10_n02690373_4320.JPEG
subject-06,1,877,0.619720220565796,cat,boat,0.90,0876_nse_s06_0.90_boat_10_n03662601_1973.JPEG
subject-06,1,878,0.726598024368286,cat,cat,0.60,0877_nse_s06_0.60_cat_10_n02123045_3626.JPEG
subject-06,1,879,0.946860074996948,airplane,car,0.90,0878_nse_s06_0.90_car_10_n02814533_74720.JPEG
subject-06,1,880,1.06935501098633,keyboard,boat,0.35,0879_nse_s06_0.35_boat_10_n03344393_4265.JPEG
subject-06,1,881,0.677825927734375,clock,clock,0.05,0880_nse_s06_0.05_clock_10_n02708093_7076.JPEG
subject-06,1,882,0.697455883026123,bicycle,bicycle,0.35,0881_nse_s06_0.35_bicycle_10_n02835271_4220.JPEG
subject-06,1,883,0.782254219055176,cat,dog,0.35,0882_nse_s06_0.35_dog_10_n02102177_6879.JPEG
subject-06,1,884,0.550646066665649,bear,bear,0.05,0883_nse_s06_0.05_bear_10_n02134418_2572.JPEG
subject-06,1,885,0.672871828079224,boat,boat,0.20,0884_nse_s06_0.20_boat_10_n04273569_5501.JPEG
subject-06,1,886,0.817582130432129,elephant,elephant,0.03,0885_nse_s06_0.03_elephant_10_n02504013_4339.JPEG
subject-06,1,887,0.677958011627197,bicycle,bicycle,0.05,0886_nse_s06_0.05_bicycle_10_n02835271_696.JPEG
subject-06,1,888,0.854336977005005,bicycle,car,0.60,0887_nse_s06_0.60_car_10_n02814533_67571.JPEG
subject-06,1,889,0.550130844116211,bird,bird,0.10,0888_nse_s06_0.10_bird_10_n01824575_6507.JPEG
subject-06,1,890,0.772382974624634,truck,truck,0.00,0889_nse_s06_0.00_truck_10_n03417042_4735.JPEG
subject-06,1,891,0.716211795806885,airplane,airplane,0.20,0890_nse_s06_0.20_airplane_10_n02690373_3000.JPEG
subject-06,1,892,1.2687520980835,elephant,bird,0.60,0891_nse_s06_0.60_bird_10_n01824575_2333.JPEG
subject-06,1,893,0.761510848999023,airplane,bottle,0.60,0892_nse_s06_0.60_bottle_10_n03983396_2496.JPEG
subject-06,1,894,0.690184831619263,car,car,0.03,0893_nse_s06_0.03_car_10_n04285008_11713.JPEG
subject-06,1,895,0.720702886581421,car,car,0.60,0894_nse_s06_0.60_car_10_n02814533_66038.JPEG
subject-06,1,896,0.610312223434448,bear,bear,0.20,0895_nse_s06_0.20_bear_10_n02134418_1267.JPEG
subject-06,1,897,0.800780057907104,elephant,elephant,0.05,0896_nse_s06_0.05_elephant_10_n02504458_98.JPEG
subject-06,1,898,0.807224035263062,car,chair,0.10,0897_nse_s06_0.10_chair_10_n02791124_9918.JPEG
subject-06,1,899,0.683650970458984,car,car,0.03,0898_nse_s06_0.03_car_10_n03100240_418.JPEG
subject-06,1,900,0.628049850463867,bottle,bottle,0.05,0899_nse_s06_0.05_bottle_10_n04560804_24050.JPEG
subject-06,1,901,0.612843990325928,oven,bird,0.90,0900_nse_s06_0.90_bird_10_n01855672_8563.JPEG
subject-06,1,902,1.10936093330383,elephant,cat,0.20,0901_nse_s06_0.20_cat_10_n02123394_823.JPEG
subject-06,1,903,0.663600921630859,boat,elephant,0.90,0902_nse_s06_0.90_elephant_10_n02504458_5869.JPEG
subject-06,1,904,0.662903070449829,bear,bear,0.20,0903_nse_s06_0.20_bear_10_n02134084_22676.JPEG
subject-06,1,905,0.731359004974365,knife,knife,0.05,0904_nse_s06_0.05_knife_10_n03041632_101553.JPEG
subject-06,1,906,1.03495097160339,bottle,knife,0.03,0905_nse_s06_0.03_knife_10_n03041632_3079.JPEG
subject-06,1,907,0.614023923873901,chair,clock,0.20,0906_nse_s06_0.20_clock_10_n03196217_2530.JPEG
subject-06,1,908,0.687273025512695,car,car,0.60,0907_nse_s06_0.60_car_10_n04285008_7533.JPEG
subject-06,1,909,0.664029836654663,cat,clock,0.90,0908_nse_s06_0.90_clock_10_n04548280_4364.JPEG
subject-06,1,910,0.771286010742188,airplane,airplane,0.10,0909_nse_s06_0.10_airplane_10_n02690373_10112.JPEG
subject-06,1,911,0.73182487487793,bear,bear,0.05,0910_nse_s06_0.05_bear_10_n02133161_11329.JPEG
subject-06,1,912,0.562353134155273,car,car,0.00,0911_nse_s06_0.00_car_10_n03100240_1072.JPEG
subject-06,1,913,0.790009021759033,boat,boat,0.10,0912_nse_s06_0.10_boat_10_n04273569_14846.JPEG
subject-06,1,914,1.36999893188477,keyboard,keyboard,0.00,0913_nse_s06_0.00_keyboard_10_n03085013_6609.JPEG
subject-06,1,915,0.478340864181519,bird,bird,0.03,0914_nse_s06_0.03_bird_10_n01796340_7788.JPEG
subject-06,1,916,0.898990154266357,bird,bird,0.03,0915_nse_s06_0.03_bird_10_n01560419_221.JPEG
subject-06,1,917,0.750647068023682,knife,knife,0.05,0916_nse_s06_0.05_knife_10_n03041632_2644.JPEG
subject-06,1,918,0.64350414276123,keyboard,keyboard,0.10,0917_nse_s06_0.10_keyboard_10_n03085013_20849.JPEG
subject-06,1,919,1.40964698791504,cat,dog,0.03,0918_nse_s06_0.03_dog_10_n02111500_7359.JPEG
subject-06,1,920,0.740211009979248,chair,chair,0.35,0919_nse_s06_0.35_chair_10_n03376595_6071.JPEG
subject-06,1,921,0.733186006546021,car,knife,0.90,0920_nse_s06_0.90_knife_10_n03041632_16606.JPEG
subject-06,1,922,0.714954137802124,car,car,0.20,0921_nse_s06_0.20_car_10_n02814533_9726.JPEG
subject-06,1,923,0.567801952362061,bird,bird,0.05,0922_nse_s06_0.05_bird_10_n02027492_1711.JPEG
subject-06,1,924,0.819944858551025,dog,dog,0.05,0923_nse_s06_0.05_dog_10_n02088632_5015.JPEG
subject-06,1,925,1.32384395599365,clock,keyboard,0.05,0924_nse_s06_0.05_keyboard_10_n04505470_4467.JPEG
subject-06,1,926,0.78386116027832,bird,bird,0.60,0925_nse_s06_0.60_bird_10_n01819313_994.JPEG
subject-06,1,927,0.960659027099609,chair,bottle,0.20,0926_nse_s06_0.20_bottle_10_n02823428_5437.JPEG
subject-06,1,928,0.920509815216064,car,oven,0.60,0927_nse_s06_0.60_oven_10_n04111531_7600.JPEG
subject-06,1,929,0.56821608543396,bicycle,bear,0.60,0928_nse_s06_0.60_bear_10_n02133161_4230.JPEG
subject-06,1,930,0.737639904022217,boat,boat,0.35,0929_nse_s06_0.35_boat_10_n04273569_3112.JPEG
subject-06,1,931,0.605914115905762,airplane,keyboard,0.60,0930_nse_s06_0.60_keyboard_10_n03085013_6561.JPEG
subject-06,1,932,0.525854110717773,car,car,0.35,0931_nse_s06_0.35_car_10_n04285008_9317.JPEG
subject-06,1,933,0.585812091827393,cat,cat,0.05,0932_nse_s06_0.05_cat_10_n02123159_7402.JPEG
subject-06,1,934,0.454138994216919,airplane,airplane,0.20,0933_nse_s06_0.20_airplane_10_n02690373_9312.JPEG
subject-06,1,935,0.743661880493164,truck,bicycle,0.05,0934_nse_s06_0.05_bicycle_10_n03792782_4414.JPEG
subject-06,1,936,0.612031936645508,knife,knife,0.20,0935_nse_s06_0.20_knife_10_n03041632_30196.JPEG
subject-06,1,937,0.748309135437012,clock,knife,0.03,0936_nse_s06_0.03_knife_10_n03041632_87339.JPEG
subject-06,1,938,0.638829946517944,dog,dog,0.03,0937_nse_s06_0.03_dog_10_n02094433_3335.JPEG
subject-06,1,939,0.931750059127808,bottle,keyboard,0.60,0938_nse_s06_0.60_keyboard_10_n03085013_21441.JPEG
subject-06,1,940,0.721502780914307,knife,truck,0.60,0939_nse_s06_0.60_truck_10_n03417042_7049.JPEG
subject-06,1,941,0.641881227493286,knife,oven,0.05,0940_nse_s06_0.05_oven_10_n04111531_6801.JPEG
subject-06,1,942,1.07826995849609,bear,bear,0.00,0941_nse_s06_0.00_bear_10_n02134084_2516.JPEG
subject-06,1,943,0.824098825454712,keyboard,keyboard,0.05,0942_nse_s06_0.05_keyboard_10_n03085013_6815.JPEG
subject-06,1,944,0.630914211273193,bird,bird,0.20,0943_nse_s06_0.20_bird_10_n01843065_4400.JPEG
subject-06,1,945,0.74560284614563,dog,dog,0.00,0944_nse_s06_0.00_dog_10_n02105162_516.JPEG
subject-06,1,946,0.689291000366211,bear,bear,0.10,0945_nse_s06_0.10_bear_10_n02134418_5548.JPEG
subject-06,1,947,0.696229934692383,truck,truck,0.10,0946_nse_s06_0.10_truck_10_n03417042_8694.JPEG
subject-06,1,948,0.816397190093994,car,boat,0.00,0947_nse_s06_0.00_boat_10_n03344393_2676.JPEG
subject-06,1,949,1.25258708000183,bicycle,bear,0.05,0948_nse_s06_0.05_bear_10_n02134418_1388.JPEG
subject-06,1,950,0.845429182052612,bird,oven,0.05,0949_nse_s06_0.05_oven_10_n04111531_3345.JPEG
subject-06,1,951,0.943115949630737,chair,airplane,0.00,0950_nse_s06_0.00_airplane_10_n02690373_4113.JPEG
subject-06,1,952,0.681465864181519,bear,bear,0.03,0951_nse_s06_0.03_bear_10_n02134084_6628.JPEG
subject-06,1,953,0.647869110107422,knife,knife,0.90,0952_nse_s06_0.90_knife_10_n03041632_46185.JPEG
subject-06,1,954,0.594228982925415,bottle,bottle,0.00,0953_nse_s06_0.00_bottle_10_n04591713_6923.JPEG
subject-06,1,955,0.638668060302734,oven,knife,0.60,0954_nse_s06_0.60_knife_10_n03041632_20194.JPEG
subject-06,1,956,0.72127890586853,car,bottle,0.90,0955_nse_s06_0.90_bottle_10_n04579145_1174.JPEG
subject-06,1,957,0.811020135879517,airplane,cat,0.90,0956_nse_s06_0.90_cat_10_n02123159_6978.JPEG
subject-06,1,958,0.578851938247681,dog,dog,0.00,0957_nse_s06_0.00_dog_10_n02093991_4140.JPEG
subject-06,1,959,0.653371095657349,bottle,bottle,0.00,0958_nse_s06_0.00_bottle_10_n03937543_2377.JPEG
subject-06,1,960,0.95057487487793,dog,dog,0.05,0959_nse_s06_0.05_dog_10_n02113624_3462.JPEG
subject-06,1,961,0.764936923980713,knife,knife,0.00,0960_nse_s06_0.00_knife_10_n03041632_92063.JPEG
subject-06,1,962,1.50008392333984,bottle,bottle,0.10,0961_nse_s06_0.10_bottle_10_n04591713_6918.JPEG
subject-06,1,963,0.699987173080444,cat,elephant,0.60,0962_nse_s06_0.60_elephant_10_n02504013_1125.JPEG
subject-06,1,964,0.792242050170898,elephant,elephant,0.05,0963_nse_s06_0.05_elephant_10_n02504013_6442.JPEG
subject-06,1,965,0.658812999725342,knife,knife,0.00,0964_nse_s06_0.00_knife_10_n03041632_49570.JPEG
subject-06,1,966,0.73549485206604,keyboard,oven,0.60,0965_nse_s06_0.60_oven_10_n04111531_1362.JPEG
subject-06,1,967,0.457991123199463,cat,cat,0.03,0966_nse_s06_0.03_cat_10_n02123597_4731.JPEG
subject-06,1,968,0.672031879425049,bear,bear,0.03,0967_nse_s06_0.03_bear_10_n02134084_13827.JPEG
subject-06,1,969,0.540472984313965,car,car,0.05,0968_nse_s06_0.05_car_10_n04285008_4844.JPEG
subject-06,1,970,0.744904041290283,bear,bear,0.10,0969_nse_s06_0.10_bear_10_n02133161_6393.JPEG
subject-06,1,971,1.45143795013428,elephant,knife,0.90,0970_nse_s06_0.90_knife_10_n03041632_32774.JPEG
subject-06,1,972,0.603940963745117,keyboard,clock,0.10,0971_nse_s06_0.10_clock_10_n03196217_6474.JPEG
subject-06,1,973,0.587602853775024,bicycle,bicycle,0.10,0972_nse_s06_0.10_bicycle_10_n03792782_19739.JPEG
subject-06,1,974,1.09199213981628,airplane,airplane,0.00,0973_nse_s06_0.00_airplane_10_n02690373_8547.JPEG
subject-06,1,975,1.16060090065002,knife,oven,0.20,0974_nse_s06_0.20_oven_10_n04111531_8868.JPEG
subject-06,1,976,0.861193895339966,bird,bear,0.00,0975_nse_s06_0.00_bear_10_n02134418_2598.JPEG
subject-06,1,977,0.576102018356323,boat,dog,0.90,0976_nse_s06_0.90_dog_10_n02105641_4247.JPEG
subject-06,1,978,0.581913948059082,boat,boat,0.03,0977_nse_s06_0.03_boat_10_n02951358_4286.JPEG
subject-06,1,979,1.00258302688599,keyboard,oven,0.60,0978_nse_s06_0.60_oven_10_n04111531_5015.JPEG
subject-06,1,980,0.579267024993896,airplane,airplane,0.35,0979_nse_s06_0.35_airplane_10_n02690373_10232.JPEG
subject-06,1,981,0.593986988067627,car,bottle,0.60,0980_nse_s06_0.60_bottle_10_n04560804_20634.JPEG
subject-06,1,982,0.621680021286011,boat,boat,0.10,0981_nse_s06_0.10_boat_10_n02951358_11878.JPEG
subject-06,1,983,0.682585000991821,cat,oven,0.03,0982_nse_s06_0.03_oven_10_n04111531_6903.JPEG
subject-06,1,984,0.825879096984863,airplane,keyboard,0.90,0983_nse_s06_0.90_keyboard_10_n03085013_18964.JPEG
subject-06,1,985,1.39223408699036,truck,truck,0.60,0984_nse_s06_0.60_truck_10_n03796401_10070.JPEG
subject-06,1,986,0.776741981506348,car,car,0.00,0985_nse_s06_0.00_car_10_n02814533_42665.JPEG
subject-06,1,987,1.1510329246521,keyboard,bottle,0.60,0986_nse_s06_0.60_bottle_10_n04591713_2032.JPEG
subject-06,1,988,0.989650964736938,bicycle,bicycle,0.05,0987_nse_s06_0.05_bicycle_10_n03792782_5020.JPEG
subject-06,1,989,0.679746866226196,bird,bird,0.05,0988_nse_s06_0.05_bird_10_n02018207_2911.JPEG
subject-06,1,990,0.77229905128479,bear,bear,0.35,0989_nse_s06_0.35_bear_10_n02134418_4670.JPEG
subject-06,1,991,0.607969999313354,bicycle,bicycle,0.20,0990_nse_s06_0.20_bicycle_10_n02835271_15038.JPEG
subject-06,1,992,0.852771997451782,bicycle,bicycle,0.10,0991_nse_s06_0.10_bicycle_10_n03792782_10181.JPEG
subject-06,1,993,0.550518035888672,bicycle,bear,0.10,0992_nse_s06_0.10_bear_10_n02134418_1083.JPEG
subject-06,1,994,1.21586298942566,bicycle,knife,0.60,0993_nse_s06_0.60_knife_10_n03041632_31909.JPEG
subject-06,1,995,0.923279047012329,bicycle,chair,0.35,0994_nse_s06_0.35_chair_10_n02791124_7130.JPEG
subject-06,1,996,1.20795798301697,knife,knife,0.05,0995_nse_s06_0.05_knife_10_n03041632_21723.JPEG
subject-06,1,997,0.706006050109863,bird,bird,0.00,0996_nse_s06_0.00_bird_10_n01797886_23083.JPEG
subject-06,1,998,0.712484121322632,cat,cat,0.03,0997_nse_s06_0.03_cat_10_n02123159_3799.JPEG
subject-06,1,999,0.910209894180298,knife,oven,0.03,0998_nse_s06_0.03_oven_10_n04111531_3470.JPEG
subject-06,1,1000,0.769989013671875,knife,knife,0.00,0999_nse_s06_0.00_knife_10_n03041632_40508.JPEG
subject-06,1,1001,0.576466083526611,clock,clock,0.05,1000_nse_s06_0.05_clock_10_n04548280_7321.JPEG
subject-06,1,1002,0.782803058624268,keyboard,keyboard,0.05,1001_nse_s06_0.05_keyboard_10_n03085013_21355.JPEG
subject-06,1,1003,0.665696859359741,oven,dog,0.90,1002_nse_s06_0.90_dog_10_n02113023_8916.JPEG
subject-06,1,1004,1.50026917457581,chair,boat,0.35,1003_nse_s06_0.35_boat_10_n03344393_4273.JPEG
subject-06,1,1005,1.25449299812317,bottle,dog,0.03,1004_nse_s06_0.03_dog_10_n02091467_2692.JPEG
subject-06,1,1006,0.638204097747803,chair,chair,0.10,1005_nse_s06_0.10_chair_10_n02791124_70.JPEG
subject-06,1,1007,0.591368913650513,car,airplane,0.90,1006_nse_s06_0.90_airplane_10_n02690373_11908.JPEG
subject-06,1,1008,0.660037040710449,truck,truck,0.35,1007_nse_s06_0.35_truck_10_n03417042_3857.JPEG
