subj,session,trial,rt,object_response,category,condition,imagename
subject-01,1,1,0.625520944595337,bird,oven,0.10,0000_nse_s01_0.10_oven_10_n04111531_5828.JPEG
subject-01,1,2,0.817167997360229,bicycle,bicycle,0.03,0001_nse_s01_0.03_bicycle_10_n03792782_3299.JPEG
subject-01,1,3,0.909296989440918,elephant,elephant,0.20,0002_nse_s01_0.20_elephant_10_n02504013_3939.JPEG
subject-01,1,4,0.915948152542114,airplane,airplane,0.90,0003_nse_s01_0.90_airplane_10_n02690373_8813.JPEG
subject-01,1,5,0.839962959289551,knife,knife,0.00,0004_nse_s01_0.00_knife_10_n03041632_22330.JPEG
subject-01,1,6,0.600607872009277,airplane,airplane,0.10,0005_nse_s01_0.10_airplane_10_n02690373_8547.JPEG
subject-01,1,7,1.10114908218384,boat,bottle,0.35,0006_nse_s01_0.35_bottle_10_n04557648_3529.JPEG
subject-01,1,8,0.733721971511841,knife,knife,0.03,0007_nse_s01_0.03_knife_10_n03041632_12651.JPEG
subject-01,1,9,0.693865060806274,airplane,boat,0.60,0008_nse_s01_0.60_boat_10_n02951358_15551.JPEG
subject-01,1,10,0.678771018981934,boat,boat,0.03,0009_nse_s01_0.03_boat_10_n04612504_30424.JPEG
subject-01,1,11,1.10095906257629,cat,bird,0.35,0010_nse_s01_0.35_bird_10_n01819313_358.JPEG
subject-01,1,12,1.03959894180298,elephant,elephant,0.00,0011_nse_s01_0.00_elephant_10_n02504013_8534.JPEG
subject-01,1,13,0.634207963943481,oven,oven,0.10,0012_nse_s01_0.10_oven_10_n04111531_5218.JPEG
subject-01,1,14,0.541059017181396,oven,bottle,0.35,0013_nse_s01_0.35_bottle_10_n03983396_10174.JPEG
subject-01,1,15,0.965339183807373,knife,knife,0.05,0014_nse_s01_0.05_knife_10_n03041632_105581.JPEG
subject-01,1,16,0.780118942260742,cat,elephant,0.10,0015_nse_s01_0.10_elephant_10_n02504013_2394.JPEG
subject-01,1,17,0.796869993209839,bird,dog,0.35,0016_nse_s01_0.35_dog_10_n02105855_9326.JPEG
subject-01,1,18,0.719339847564697,chair,chair,0.10,0017_nse_s01_0.10_chair_10_n04099969_6266.JPEG
subject-01,1,19,0.819815158843994,bird,bird,0.35,0018_nse_s01_0.35_bird_10_n01817953_12511.JPEG
subject-01,1,20,0.68218994140625,clock,clock,0.00,0019_nse_s01_0.00_clock_10_n03196217_9231.JPEG
subject-01,1,21,1.24250793457031,bottle,bear,0.10,0020_nse_s01_0.10_bear_10_n02134418_1749.JPEG
subject-01,1,22,1.33519506454468,dog,bear,0.00,0021_nse_s01_0.00_bear_10_n02133161_5434.JPEG
subject-01,1,23,0.589893102645874,bicycle,bicycle,0.00,0022_nse_s01_0.00_bicycle_10_n03792782_7101.JPEG
subject-01,1,24,0.682184934616089,airplane,airplane,0.05,0023_nse_s01_0.05_airplane_10_n02690373_1161.JPEG
subject-01,1,25,1.35085988044739,dog,truck,0.35,0024_nse_s01_0.35_truck_10_n03417042_6847.JPEG
subject-01,1,26,0.491039037704468,oven,oven,0.00,0025_nse_s01_0.00_oven_10_n04111531_3555.JPEG
subject-01,1,27,0.545937061309814,oven,keyboard,0.10,0026_nse_s01_0.10_keyboard_10_n03085013_9146.JPEG
subject-01,1,28,0.814455032348633,bicycle,bicycle,0.35,0027_nse_s01_0.35_bicycle_10_n02835271_24131.JPEG
subject-01,1,29,0.922955989837646,knife,knife,0.03,0028_nse_s01_0.03_knife_10_n03041632_13130.JPEG
subject-01,1,30,0.829566955566406,elephant,bear,0.35,0029_nse_s01_0.35_bear_10_n02134418_2432.JPEG
subject-01,1,31,0.808014154434204,oven,keyboard,0.60,0030_nse_s01_0.60_keyboard_10_n03085013_22417.JPEG
subject-01,1,32,1.09244799613953,truck,truck,0.05,0031_nse_s01_0.05_truck_10_n04467665_62524.JPEG
subject-01,1,33,0.815047979354858,cat,keyboard,0.90,0032_nse_s01_0.90_keyboard_10_n03085013_20330.JPEG
subject-01,1,34,1.23216485977173,bird,bird,0.10,0033_nse_s01_0.10_bird_10_n02051845_3479.JPEG
subject-01,1,35,0.60027003288269,boat,boat,0.20,0034_nse_s01_0.20_boat_10_n04612504_40672.JPEG
subject-01,1,36,0.678870916366577,bird,bird,0.20,0035_nse_s01_0.20_bird_10_n01560419_50.JPEG
subject-01,1,37,0.701373815536499,oven,bird,0.60,0036_nse_s01_0.60_bird_10_n02018795_6389.JPEG
subject-01,1,38,0.677795886993408,boat,boat,0.20,0037_nse_s01_0.20_boat_10_n03662601_11739.JPEG
subject-01,1,39,1.03216195106506,bottle,truck,0.90,0038_nse_s01_0.90_truck_10_n04467665_48953.JPEG
subject-01,1,40,0.979029893875122,keyboard,keyboard,0.05,0039_nse_s01_0.05_keyboard_10_n04505470_4592.JPEG
subject-01,1,41,1.20137500762939,dog,truck,0.35,0040_nse_s01_0.35_truck_10_n04467665_450.JPEG
subject-01,1,42,1.2161271572113,airplane,airplane,0.03,0041_nse_s01_0.03_airplane_10_n02690373_1038.JPEG
subject-01,1,43,1.50012302398682,car,car,0.60,0042_nse_s01_0.60_car_10_n02814533_92286.JPEG
subject-01,1,44,0.541220903396606,clock,clock,0.05,0043_nse_s01_0.05_clock_10_n03196217_5972.JPEG
subject-01,1,45,1.22383713722229,chair,bird,0.90,0044_nse_s01_0.90_bird_10_n02037110_8826.JPEG
subject-01,1,46,1.24028897285461,truck,keyboard,0.10,0045_nse_s01_0.10_keyboard_10_n03085013_2073.JPEG
subject-01,1,47,0.670809984207153,bicycle,bicycle,0.00,0046_nse_s01_0.00_bicycle_10_n02835271_15038.JPEG
subject-01,1,48,0.52531909942627,cat,elephant,0.90,0047_nse_s01_0.90_elephant_10_n02504013_22633.JPEG
subject-01,1,49,1.38626313209534,bottle,bottle,0.05,0048_nse_s01_0.05_bottle_10_n04560804_3651.JPEG
subject-01,1,50,0.786894083023071,car,car,0.60,0049_nse_s01_0.60_car_10_n04285008_5078.JPEG
subject-01,1,51,0.641149997711182,cat,chair,0.60,0050_nse_s01_0.60_chair_10_n02791124_5089.JPEG
subject-01,1,52,0.687478065490723,airplane,airplane,0.35,0051_nse_s01_0.35_airplane_10_n02690373_1733.JPEG
subject-01,1,53,0.579868078231812,oven,oven,0.00,0052_nse_s01_0.00_oven_10_n04111531_7283.JPEG
subject-01,1,54,0.834686994552612,dog,dog,0.20,0053_nse_s01_0.20_dog_10_n02094433_6402.JPEG
subject-01,1,55,1.24896287918091,bicycle,keyboard,0.90,0054_nse_s01_0.90_keyboard_10_n04505470_4824.JPEG
subject-01,1,56,0.679727792739868,bottle,bottle,0.03,0055_nse_s01_0.03_bottle_10_n04579145_6860.JPEG
subject-01,1,57,0.734338998794556,oven,clock,0.35,0056_nse_s01_0.35_clock_10_n04548280_5088.JPEG
subject-01,1,58,0.643038034439087,clock,clock,0.00,0057_nse_s01_0.00_clock_10_n04548280_4560.JPEG
subject-01,1,59,0.819498062133789,bottle,bottle,0.20,0058_nse_s01_0.20_bottle_10_n02823428_4165.JPEG
subject-01,1,60,0.827831029891968,chair,boat,0.35,0059_nse_s01_0.35_boat_10_n03662601_5419.JPEG
subject-01,1,61,0.774513006210327,bear,bear,0.35,0060_nse_s01_0.35_bear_10_n02132136_2760.JPEG
subject-01,1,62,0.743293046951294,car,car,0.00,0061_nse_s01_0.00_car_10_n03100240_14667.JPEG
subject-01,1,63,0.597540140151978,airplane,airplane,0.05,0062_nse_s01_0.05_airplane_10_n02690373_466.JPEG
subject-01,1,64,0.612125873565674,cat,cat,0.20,0063_nse_s01_0.20_cat_10_n02123597_30864.JPEG
subject-01,1,65,0.850906848907471,bird,bird,0.03,0064_nse_s01_0.03_bird_10_n01843065_4999.JPEG
subject-01,1,66,0.597242832183838,knife,knife,0.10,0065_nse_s01_0.10_knife_10_n03041632_3159.JPEG
subject-01,1,67,0.727636098861694,chair,knife,0.90,0066_nse_s01_0.90_knife_10_n03041632_19620.JPEG
subject-01,1,68,0.636111974716187,cat,clock,0.90,0067_nse_s01_0.90_clock_10_n02708093_6572.JPEG
subject-01,1,69,1.1209979057312,bear,bear,0.10,0068_nse_s01_0.10_bear_10_n02133161_431.JPEG
subject-01,1,70,1.1194179058075,airplane,truck,0.60,0069_nse_s01_0.60_truck_10_n03796401_7694.JPEG
subject-01,1,71,0.889965057373047,cat,bottle,0.60,0070_nse_s01_0.60_bottle_10_n04560804_9813.JPEG
subject-01,1,72,0.904568195343018,dog,dog,0.03,0071_nse_s01_0.03_dog_10_n02108915_3733.JPEG
subject-01,1,73,0.605171918869019,oven,car,0.35,0072_nse_s01_0.35_car_10_n03100240_11664.JPEG
subject-01,1,74,0.689425945281982,oven,oven,0.05,0073_nse_s01_0.05_oven_10_n04111531_8852.JPEG
subject-01,1,75,0.858003854751587,bear,cat,0.05,0074_nse_s01_0.05_cat_10_n02123045_10433.JPEG
subject-01,1,76,0.68250584602356,oven,keyboard,0.05,0075_nse_s01_0.05_keyboard_10_n04505470_4994.JPEG
subject-01,1,77,0.767119884490967,oven,oven,0.10,0076_nse_s01_0.10_oven_10_n04111531_12129.JPEG
subject-01,1,78,1.39781498908997,airplane,airplane,0.10,0077_nse_s01_0.10_airplane_10_n02690373_2496.JPEG
subject-01,1,79,0.498356103897095,clock,clock,0.05,0078_nse_s01_0.05_clock_10_n02708093_3462.JPEG
subject-01,1,80,0.790957927703857,knife,elephant,0.90,0079_nse_s01_0.90_elephant_10_n02504458_2419.JPEG
subject-01,1,81,0.805266141891479,bottle,clock,0.00,0080_nse_s01_0.00_clock_10_n02708093_2588.JPEG
subject-01,1,82,0.873682022094727,bottle,bottle,0.03,0081_nse_s01_0.03_bottle_10_n04591713_2841.JPEG
subject-01,1,83,0.68218994140625,bird,dog,0.60,0082_nse_s01_0.60_dog_10_n02099849_4819.JPEG
subject-01,1,84,0.845158100128174,boat,truck,0.20,0083_nse_s01_0.20_truck_10_n03417042_10597.JPEG
subject-01,1,85,0.843762874603271,airplane,truck,0.60,0084_nse_s01_0.60_truck_10_n04467665_20933.JPEG
subject-01,1,86,0.606600046157837,oven,elephant,0.60,0085_nse_s01_0.60_elephant_10_n02504458_12368.JPEG
subject-01,1,87,0.761008024215698,bicycle,bicycle,0.10,0086_nse_s01_0.10_bicycle_10_n03792782_37212.JPEG
subject-01,1,88,0.783913850784302,elephant,elephant,0.35,0087_nse_s01_0.35_elephant_10_n02504458_8064.JPEG
subject-01,1,89,1.12288904190063,bottle,cat,0.00,0088_nse_s01_0.00_cat_10_n02123394_2482.JPEG
subject-01,1,90,0.79367208480835,dog,bear,0.20,0089_nse_s01_0.20_bear_10_n02134418_5271.JPEG
subject-01,1,91,0.956367969512939,truck,oven,0.35,0090_nse_s01_0.35_oven_10_n04111531_13625.JPEG
subject-01,1,92,0.808641195297241,oven,dog,0.20,0091_nse_s01_0.20_dog_10_n02101556_4066.JPEG
subject-01,1,93,0.647581100463867,bear,bicycle,0.60,0092_nse_s01_0.60_bicycle_10_n02835271_358.JPEG
subject-01,1,94,0.704553842544556,bear,bear,0.05,0093_nse_s01_0.05_bear_10_n02132136_24663.JPEG
subject-01,1,95,1.16549396514893,bear,bear,0.20,0094_nse_s01_0.20_bear_10_n02134418_4458.JPEG
subject-01,1,96,1.08768010139465,chair,chair,0.00,0095_nse_s01_0.00_chair_10_n04429376_14995.JPEG
subject-01,1,97,0.958992958068848,oven,knife,0.00,0096_nse_s01_0.00_knife_10_n03041632_19614.JPEG
subject-01,1,98,1.21941709518433,car,bicycle,0.60,0097_nse_s01_0.60_bicycle_10_n02835271_5821.JPEG
subject-01,1,99,0.606604814529419,cat,clock,0.60,0098_nse_s01_0.60_clock_10_n04548280_2404.JPEG
subject-01,1,100,0.805275917053223,truck,truck,0.10,0099_nse_s01_0.10_truck_10_n03417042_8139.JPEG
subject-01,1,101,0.83812403678894,bottle,bottle,0.00,0100_nse_s01_0.00_bottle_10_n02823428_4073.JPEG
subject-01,1,102,0.890929937362671,bird,clock,0.90,0101_nse_s01_0.90_clock_10_n04548280_942.JPEG
subject-01,1,103,0.991807222366333,car,boat,0.60,0102_nse_s01_0.60_boat_10_n04273569_28074.JPEG
subject-01,1,104,0.884624004364014,clock,clock,0.20,0103_nse_s01_0.20_clock_10_n03196217_5827.JPEG
subject-01,1,105,0.869004964828491,elephant,chair,0.10,0104_nse_s01_0.10_chair_10_n04429376_5742.JPEG
subject-01,1,106,0.761541128158569,chair,dog,0.90,0105_nse_s01_0.90_dog_10_n02105162_10475.JPEG
subject-01,1,107,0.754571914672852,keyboard,truck,0.90,0106_nse_s01_0.90_truck_10_n04467665_37009.JPEG
subject-01,1,108,0.87648606300354,airplane,airplane,0.03,0107_nse_s01_0.03_airplane_10_n02690373_1306.JPEG
subject-01,1,109,0.685003042221069,oven,bear,0.90,0108_nse_s01_0.90_bear_10_n02134084_12801.JPEG
subject-01,1,110,1.0155291557312,airplane,keyboard,0.90,0109_nse_s01_0.90_keyboard_10_n04505470_3499.JPEG
subject-01,1,111,1.07613611221313,bicycle,bicycle,0.90,0110_nse_s01_0.90_bicycle_10_n03792782_37794.JPEG
subject-01,1,112,1.26107287406921,cat,cat,0.00,0111_nse_s01_0.00_cat_10_n02123159_469.JPEG
subject-01,1,113,0.831184148788452,elephant,elephant,0.00,0112_nse_s01_0.00_elephant_10_n02504458_291.JPEG
subject-01,1,114,0.791795969009399,clock,oven,0.60,0113_nse_s01_0.60_oven_10_n04111531_13391.JPEG
subject-01,1,115,0.946346044540405,chair,elephant,0.90,0114_nse_s01_0.90_elephant_10_n02504458_4139.JPEG
subject-01,1,116,1.09872102737427,elephant,elephant,0.20,0115_nse_s01_0.20_elephant_10_n02504458_309.JPEG
subject-01,1,117,0.907441139221191,chair,boat,0.60,0116_nse_s01_0.60_boat_10_n03662601_16441.JPEG
subject-01,1,118,0.783807992935181,airplane,airplane,0.10,0117_nse_s01_0.10_airplane_10_n02690373_3753.JPEG
subject-01,1,119,0.776675939559937,oven,boat,0.35,0118_nse_s01_0.35_boat_10_n02951358_33559.JPEG
subject-01,1,120,0.923601865768433,bird,bird,0.03,0119_nse_s01_0.03_bird_10_n01601694_7574.JPEG
subject-01,1,121,0.940576791763306,bottle,truck,0.90,0120_nse_s01_0.90_truck_10_n03417042_10788.JPEG
subject-01,1,122,0.649181127548218,oven,chair,0.60,0121_nse_s01_0.60_chair_10_n04429376_21362.JPEG
subject-01,1,123,0.917845010757446,airplane,airplane,0.20,0122_nse_s01_0.20_airplane_10_n02690373_10423.JPEG
subject-01,1,124,0.818467855453491,bicycle,bicycle,0.10,0123_nse_s01_0.10_bicycle_10_n02835271_3619.JPEG
subject-01,1,125,0.83287501335144,car,car,0.00,0124_nse_s01_0.00_car_10_n03100240_4348.JPEG
subject-01,1,126,0.701579093933105,bicycle,bicycle,0.10,0125_nse_s01_0.10_bicycle_10_n02835271_7594.JPEG
subject-01,1,127,0.970107078552246,elephant,elephant,0.00,0126_nse_s01_0.00_elephant_10_n02504013_5397.JPEG
subject-01,1,128,1.0323760509491,cat,cat,0.03,0127_nse_s01_0.03_cat_10_n02124075_14021.JPEG
subject-01,1,129,1.4252758026123,bird,cat,0.90,0128_nse_s01_0.90_cat_10_n02123394_2490.JPEG
subject-01,1,130,0.779797077178955,knife,knife,0.35,0129_nse_s01_0.35_knife_10_n03041632_51581.JPEG
subject-01,1,131,0.916309118270874,bird,bicycle,0.10,0130_nse_s01_0.10_bicycle_10_n03792782_66837.JPEG
subject-01,1,132,0.5328369140625,keyboard,keyboard,0.03,0131_nse_s01_0.03_keyboard_10_n04505470_4983.JPEG
subject-01,1,133,0.809632062911987,car,knife,0.60,0132_nse_s01_0.60_knife_10_n03041632_16826.JPEG
subject-01,1,134,0.985951900482178,knife,clock,0.35,0133_nse_s01_0.35_clock_10_n04548280_4747.JPEG
subject-01,1,135,0.624528169631958,truck,bird,0.90,0134_nse_s01_0.90_bird_10_n02018795_5868.JPEG
subject-01,1,136,0.89300012588501,car,truck,0.10,0135_nse_s01_0.10_truck_10_n03417042_7335.JPEG
subject-01,1,137,0.685581922531128,bear,bear,0.00,0136_nse_s01_0.00_bear_10_n02132136_2263.JPEG
subject-01,1,138,0.770066022872925,bird,elephant,0.03,0137_nse_s01_0.03_elephant_10_n02504013_7147.JPEG
subject-01,1,139,0.610455989837646,bear,bear,0.03,0138_nse_s01_0.03_bear_10_n02134418_1031.JPEG
subject-01,1,140,0.701025009155273,cat,dog,0.00,0139_nse_s01_0.00_dog_10_n02086240_8303.JPEG
subject-01,1,141,0.739559888839722,car,car,0.03,0140_nse_s01_0.03_car_10_n04285008_6278.JPEG
subject-01,1,142,0.848034858703613,keyboard,clock,0.35,0141_nse_s01_0.35_clock_10_n03196217_6672.JPEG
subject-01,1,143,0.854613065719604,oven,cat,0.60,0142_nse_s01_0.60_cat_10_n02125311_22037.JPEG
subject-01,1,144,0.541322946548462,oven,oven,0.20,0143_nse_s01_0.20_oven_10_n04111531_6024.JPEG
subject-01,1,145,1.15582990646362,clock,oven,0.90,0144_nse_s01_0.90_oven_10_n04111531_6211.JPEG
subject-01,1,146,0.854259967803955,airplane,cat,0.60,0145_nse_s01_0.60_cat_10_n02123597_5514.JPEG
subject-01,1,147,0.762624025344849,car,truck,0.20,0146_nse_s01_0.20_truck_10_n03417042_6654.JPEG
subject-01,1,148,0.617104053497314,cat,cat,0.03,0147_nse_s01_0.03_cat_10_n02123394_9542.JPEG
subject-01,1,149,0.726057052612305,chair,boat,0.90,0148_nse_s01_0.90_boat_10_n04273569_26577.JPEG
subject-01,1,150,0.678256034851074,airplane,airplane,0.00,0149_nse_s01_0.00_airplane_10_n02690373_6031.JPEG
subject-01,1,151,0.917108058929443,elephant,elephant,0.00,0150_nse_s01_0.00_elephant_10_n02504458_6424.JPEG
subject-01,1,152,0.671651124954224,bear,bear,0.03,0151_nse_s01_0.03_bear_10_n02132136_9735.JPEG
subject-01,1,153,0.863826036453247,car,keyboard,0.60,0152_nse_s01_0.60_keyboard_10_n03085013_25066.JPEG
subject-01,1,154,1.29247307777405,knife,knife,0.20,0153_nse_s01_0.20_knife_10_n03041632_29355.JPEG
subject-01,1,155,0.993144035339355,bird,bird,0.10,0154_nse_s01_0.10_bird_10_n02006656_5719.JPEG
subject-01,1,156,0.817338943481445,knife,knife,0.10,0155_nse_s01_0.10_knife_10_n03041632_14774.JPEG
subject-01,1,157,0.761996030807495,car,car,0.35,0156_nse_s01_0.35_car_10_n02814533_73210.JPEG
subject-01,1,158,0.640334844589233,cat,cat,0.05,0157_nse_s01_0.05_cat_10_n02125311_13652.JPEG
subject-01,1,159,0.833137035369873,keyboard,bird,0.90,0158_nse_s01_0.90_bird_10_n01828970_11546.JPEG
subject-01,1,160,0.863643169403076,cat,cat,0.00,0159_nse_s01_0.00_cat_10_n02125311_25104.JPEG
subject-01,1,161,0.608198881149292,oven,oven,0.60,0160_nse_s01_0.60_oven_10_n04111531_22797.JPEG
subject-01,1,162,0.884995222091675,bottle,knife,0.90,0161_nse_s01_0.90_knife_10_n03041632_29285.JPEG
subject-01,1,163,0.609135866165161,cat,bear,0.03,0162_nse_s01_0.03_bear_10_n02134084_572.JPEG
subject-01,1,164,0.969689130783081,chair,chair,0.20,0163_nse_s01_0.20_chair_10_n04099969_8604.JPEG
subject-01,1,165,0.722154855728149,bottle,car,0.90,0164_nse_s01_0.90_car_10_n04285008_17052.JPEG
subject-01,1,166,0.662973880767822,oven,car,0.90,0165_nse_s01_0.90_car_10_n04285008_550.JPEG
subject-01,1,167,0.599601984024048,bird,bird,0.00,0166_nse_s01_0.00_bird_10_n02033041_2320.JPEG
subject-01,1,168,1.19209003448486,car,car,0.35,0167_nse_s01_0.35_car_10_n02814533_8881.JPEG
subject-01,1,169,0.746639013290405,bottle,bottle,0.35,0168_nse_s01_0.35_bottle_10_n04591713_665.JPEG
subject-01,1,170,0.869071006774902,chair,boat,0.90,0169_nse_s01_0.90_boat_10_n04612504_4250.JPEG
subject-01,1,171,0.783483982086182,airplane,airplane,0.60,0170_nse_s01_0.60_airplane_10_n02690373_8233.JPEG
subject-01,1,172,0.822261095046997,chair,bear,0.35,0171_nse_s01_0.35_bear_10_n02133161_14833.JPEG
subject-01,1,173,0.784781932830811,bear,knife,0.90,0172_nse_s01_0.90_knife_10_n03041632_82878.JPEG
subject-01,1,174,0.691333055496216,airplane,airplane,0.03,0173_nse_s01_0.03_airplane_10_n02690373_3860.JPEG
subject-01,1,175,0.945969820022583,car,boat,0.90,0174_nse_s01_0.90_boat_10_n04273569_16078.JPEG
subject-01,1,176,0.800235986709595,chair,knife,0.20,0175_nse_s01_0.20_knife_10_n03041632_24541.JPEG
subject-01,1,177,1.38270902633667,bird,knife,0.60,0176_nse_s01_0.60_knife_10_n03041632_48816.JPEG
subject-01,1,178,0.799174070358276,airplane,boat,0.60,0177_nse_s01_0.60_boat_10_n04273569_7296.JPEG
subject-01,1,179,0.637782096862793,chair,bear,0.90,0178_nse_s01_0.90_bear_10_n02133161_1169.JPEG
subject-01,1,180,1.18250298500061,cat,cat,0.03,0179_nse_s01_0.03_cat_10_n02123597_9664.JPEG
subject-01,1,181,0.907294034957886,bird,bird,0.03,0180_nse_s01_0.03_bird_10_n01558993_34885.JPEG
subject-01,1,182,0.913783073425293,bear,elephant,0.90,0181_nse_s01_0.90_elephant_10_n02504458_12555.JPEG
subject-01,1,183,0.782048225402832,cat,car,0.35,0182_nse_s01_0.35_car_10_n03100240_16653.JPEG
subject-01,1,184,0.759176969528198,bottle,bottle,0.03,0183_nse_s01_0.03_bottle_10_n04560804_13279.JPEG
subject-01,1,185,1.07567882537842,bird,cat,0.05,0184_nse_s01_0.05_cat_10_n02125311_34464.JPEG
subject-01,1,186,1.01992297172546,dog,dog,0.35,0185_nse_s01_0.35_dog_10_n02105251_6564.JPEG
subject-01,1,187,0.988632917404175,truck,truck,0.03,0186_nse_s01_0.03_truck_10_n04467665_67908.JPEG
subject-01,1,188,0.934957981109619,airplane,airplane,0.35,0187_nse_s01_0.35_airplane_10_n02690373_7591.JPEG
subject-01,1,189,0.857618093490601,boat,chair,0.60,0188_nse_s01_0.60_chair_10_n04099969_33329.JPEG
subject-01,1,190,0.988585948944092,chair,dog,0.60,0189_nse_s01_0.60_dog_10_n02113023_6945.JPEG
subject-01,1,191,0.988951921463013,bird,bird,0.05,0190_nse_s01_0.05_bird_10_n01833805_7361.JPEG
subject-01,1,192,0.919533967971802,cat,bear,0.60,0191_nse_s01_0.60_bear_10_n02134418_3570.JPEG
subject-01,1,193,0.741750955581665,cat,cat,0.10,0192_nse_s01_0.10_cat_10_n02123394_3611.JPEG
subject-01,1,194,0.926316022872925,chair,dog,0.90,0193_nse_s01_0.90_dog_10_n02095570_9488.JPEG
subject-01,1,195,1.09473705291748,bird,bird,0.20,0194_nse_s01_0.20_bird_10_n02056570_3286.JPEG
subject-01,1,196,0.733492851257324,boat,boat,0.10,0195_nse_s01_0.10_boat_10_n04273569_1012.JPEG
subject-01,1,197,1.26398086547852,chair,chair,0.20,0196_nse_s01_0.20_chair_10_n02791124_1140.JPEG
subject-01,1,198,0.99445915222168,elephant,elephant,0.05,0197_nse_s01_0.05_elephant_10_n02504458_2965.JPEG
subject-01,1,199,0.824983835220337,dog,dog,0.05,0198_nse_s01_0.05_dog_10_n02093647_286.JPEG
subject-01,1,200,0.855636119842529,chair,chair,0.20,0199_nse_s01_0.20_chair_10_n02791124_15754.JPEG
subject-01,1,201,0.870061159133911,boat,car,0.60,0200_nse_s01_0.60_car_10_n02814533_8232.JPEG
subject-01,1,202,0.778875827789307,car,car,0.03,0201_nse_s01_0.03_car_10_n02814533_31532.JPEG
subject-01,1,203,0.917227983474731,knife,knife,0.00,0202_nse_s01_0.00_knife_10_n03041632_25512.JPEG
subject-01,1,204,0.785742044448853,cat,clock,0.35,0203_nse_s01_0.35_clock_10_n03196217_6163.JPEG
subject-01,1,205,1.42219805717468,elephant,oven,0.05,0204_nse_s01_0.05_oven_10_n04111531_24096.JPEG
subject-01,1,206,0.754611015319824,elephant,elephant,0.03,0205_nse_s01_0.03_elephant_10_n02504013_2385.JPEG
subject-01,1,207,0.723281860351562,boat,boat,0.05,0206_nse_s01_0.05_boat_10_n03662601_19809.JPEG
subject-01,1,208,1.12996482849121,boat,airplane,0.10,0207_nse_s01_0.10_airplane_10_n02690373_3818.JPEG
subject-01,1,209,1.1526780128479,bird,bird,0.03,0208_nse_s01_0.03_bird_10_n01818515_1617.JPEG
subject-01,1,210,1.1750328540802,airplane,airplane,0.35,0209_nse_s01_0.35_airplane_10_n02690373_3212.JPEG
subject-01,1,211,0.529393911361694,oven,oven,0.05,0210_nse_s01_0.05_oven_10_n04111531_2630.JPEG
subject-01,1,212,0.559895992279053,bear,bear,0.10,0211_nse_s01_0.10_bear_10_n02134084_9127.JPEG
subject-01,1,213,0.636340856552124,elephant,elephant,0.20,0212_nse_s01_0.20_elephant_10_n02504013_7210.JPEG
subject-01,1,214,0.851027965545654,bottle,bottle,0.03,0213_nse_s01_0.03_bottle_10_n03983396_11654.JPEG
subject-01,1,215,0.987552881240845,airplane,airplane,0.03,0214_nse_s01_0.03_airplane_10_n02690373_10006.JPEG
subject-01,1,216,0.742417097091675,cat,cat,0.00,0215_nse_s01_0.00_cat_10_n02123394_1602.JPEG
subject-01,1,217,0.642717123031616,elephant,elephant,0.10,0216_nse_s01_0.10_elephant_10_n02504013_1577.JPEG
subject-01,1,218,0.857421159744263,dog,dog,0.05,0217_nse_s01_0.05_dog_10_n02112350_5035.JPEG
subject-01,1,219,0.618075847625732,truck,truck,0.20,0218_nse_s01_0.20_truck_10_n03796401_28656.JPEG
subject-01,1,220,0.810365200042725,elephant,elephant,0.03,0219_nse_s01_0.03_elephant_10_n02504458_2135.JPEG
subject-01,1,221,1.45520091056824,elephant,dog,0.10,0220_nse_s01_0.10_dog_10_n02089867_4717.JPEG
subject-01,1,222,1.163822889328,car,truck,0.10,0221_nse_s01_0.10_truck_10_n03417042_5380.JPEG
subject-01,1,223,1.12440085411072,cat,keyboard,0.60,0222_nse_s01_0.60_keyboard_10_n04505470_2603.JPEG
subject-01,1,224,0.954747200012207,dog,bicycle,0.35,0223_nse_s01_0.35_bicycle_10_n03792782_10367.JPEG
subject-01,1,225,1.16898107528687,elephant,elephant,0.00,0224_nse_s01_0.00_elephant_10_n02504013_3602.JPEG
subject-01,1,226,0.607479810714722,bear,bear,0.00,0225_nse_s01_0.00_bear_10_n02134418_3284.JPEG
subject-01,1,227,0.944366931915283,truck,chair,0.35,0226_nse_s01_0.35_chair_10_n04429376_4341.JPEG
subject-01,1,228,0.728572130203247,elephant,elephant,0.10,0227_nse_s01_0.10_elephant_10_n02504458_2054.JPEG
subject-01,1,229,0.60508394241333,chair,bird,0.60,0228_nse_s01_0.60_bird_10_n01530575_10612.JPEG
subject-01,1,230,0.649765968322754,bottle,bottle,0.05,0229_nse_s01_0.05_bottle_10_n04591713_6662.JPEG
subject-01,1,231,0.750391006469727,airplane,airplane,0.35,0230_nse_s01_0.35_airplane_10_n02690373_5032.JPEG
subject-01,1,232,0.473986148834229,oven,bear,0.90,0231_nse_s01_0.90_bear_10_n02133161_16103.JPEG
subject-01,1,233,0.904149055480957,bicycle,bicycle,0.03,0232_nse_s01_0.03_bicycle_10_n03792782_17212.JPEG
subject-01,1,234,0.550881862640381,car,car,0.20,0233_nse_s01_0.20_car_10_n04285008_7139.JPEG
subject-01,1,235,0.61928391456604,bird,bird,0.35,0234_nse_s01_0.35_bird_10_n01824575_2959.JPEG
subject-01,1,236,1.03397297859192,bear,bear,0.20,0235_nse_s01_0.20_bear_10_n02134418_271.JPEG
subject-01,1,237,0.502833127975464,cat,cat,0.05,0236_nse_s01_0.05_cat_10_n02123394_8172.JPEG
subject-01,1,238,0.549282073974609,bottle,bottle,0.20,0237_nse_s01_0.20_bottle_10_n04557648_2075.JPEG
subject-01,1,239,1.26385092735291,bottle,knife,0.03,0238_nse_s01_0.03_knife_10_n03041632_21017.JPEG
subject-01,1,240,0.764400005340576,dog,dog,0.10,0239_nse_s01_0.10_dog_10_n02106550_3020.JPEG
subject-01,1,241,0.916992902755737,bottle,knife,0.90,0240_nse_s01_0.90_knife_10_n03041632_41493.JPEG
subject-01,1,242,1.39962005615234,dog,bear,0.05,0241_nse_s01_0.05_bear_10_n02133161_2396.JPEG
subject-01,1,243,0.462111949920654,boat,boat,0.05,0242_nse_s01_0.05_boat_10_n03344393_2937.JPEG
subject-01,1,244,0.568600177764893,oven,cat,0.35,0243_nse_s01_0.35_cat_10_n02123045_10834.JPEG
subject-01,1,245,0.461055040359497,cat,clock,0.90,0244_nse_s01_0.90_clock_10_n04548280_6287.JPEG
subject-01,1,246,0.805706977844238,boat,bear,0.00,0245_nse_s01_0.00_bear_10_n02132136_25897.JPEG
subject-01,1,247,0.776362895965576,chair,chair,0.00,0246_nse_s01_0.00_chair_10_n03376595_16202.JPEG
subject-01,1,248,0.620891094207764,keyboard,keyboard,0.60,0247_nse_s01_0.60_keyboard_10_n03085013_22942.JPEG
subject-01,1,249,0.727483034133911,airplane,bird,0.90,0248_nse_s01_0.90_bird_10_n01833805_5088.JPEG
subject-01,1,250,0.765741109848022,clock,clock,0.20,0249_nse_s01_0.20_clock_10_n02708093_8002.JPEG
subject-01,1,251,1.31846785545349,car,truck,0.60,0250_nse_s01_0.60_truck_10_n04467665_1840.JPEG
subject-01,1,252,0.48881196975708,cat,clock,0.90,0251_nse_s01_0.90_clock_10_n02708093_3114.JPEG
subject-01,1,253,1.07948517799377,dog,dog,0.35,0252_nse_s01_0.35_dog_10_n02094258_1224.JPEG
subject-01,1,254,1.29440498352051,truck,truck,0.00,0253_nse_s01_0.00_truck_10_n03417042_12588.JPEG
subject-01,1,255,0.84624195098877,bottle,bottle,0.20,0254_nse_s01_0.20_bottle_10_n03937543_2105.JPEG
subject-01,1,256,0.998749017715454,bicycle,bicycle,0.05,0255_nse_s01_0.05_bicycle_10_n03792782_122.JPEG
subject-01,1,257,1.3724730014801,car,car,0.05,0256_nse_s01_0.05_car_10_n04285008_4047.JPEG
subject-01,1,258,1.01127099990845,airplane,airplane,0.35,0257_nse_s01_0.35_airplane_10_n02690373_2185.JPEG
subject-01,1,259,0.979632139205933,cat,dog,0.05,0258_nse_s01_0.05_dog_10_n02101388_2968.JPEG
subject-01,1,260,1.38596606254578,cat,bird,0.35,0259_nse_s01_0.35_bird_10_n01532829_8055.JPEG
subject-01,1,261,0.840439081192017,oven,bear,0.90,0260_nse_s01_0.90_bear_10_n02133161_8835.JPEG
subject-01,1,262,0.854946136474609,keyboard,clock,0.10,0261_nse_s01_0.10_clock_10_n03196217_958.JPEG
subject-01,1,263,0.801793098449707,bicycle,bicycle,0.05,0262_nse_s01_0.05_bicycle_10_n02835271_10271.JPEG
subject-01,1,264,1.00025796890259,keyboard,keyboard,0.05,0263_nse_s01_0.05_keyboard_10_n03085013_5611.JPEG
subject-01,1,265,0.71447491645813,airplane,airplane,0.20,0264_nse_s01_0.20_airplane_10_n02690373_1441.JPEG
subject-01,1,266,0.736900091171265,car,car,0.20,0265_nse_s01_0.20_car_10_n02814533_2271.JPEG
subject-01,1,267,1.0754702091217,dog,dog,0.00,0266_nse_s01_0.00_dog_10_n02085936_9009.JPEG
subject-01,1,268,0.852370977401733,airplane,oven,0.35,0267_nse_s01_0.35_oven_10_n04111531_2677.JPEG
subject-01,1,269,0.820839881896973,airplane,airplane,0.20,0268_nse_s01_0.20_airplane_10_n02690373_4814.JPEG
subject-01,1,270,0.635477066040039,elephant,elephant,0.00,0269_nse_s01_0.00_elephant_10_n02504013_19694.JPEG
subject-01,1,271,0.690279006958008,cat,elephant,0.90,0270_nse_s01_0.90_elephant_10_n02504013_7032.JPEG
subject-01,1,272,0.604907035827637,cat,car,0.60,0271_nse_s01_0.60_car_10_n04285008_2363.JPEG
subject-01,1,273,0.797113180160522,oven,bottle,0.03,0272_nse_s01_0.03_bottle_10_n03983396_4627.JPEG
subject-01,1,274,1.02585792541504,elephant,elephant,0.20,0273_nse_s01_0.20_elephant_10_n02504013_2464.JPEG
subject-01,1,275,0.642385005950928,chair,oven,0.60,0274_nse_s01_0.60_oven_10_n04111531_10216.JPEG
subject-01,1,276,0.818886041641235,cat,bird,0.05,0275_nse_s01_0.05_bird_10_n02025239_22440.JPEG
subject-01,1,277,0.91740083694458,boat,boat,0.20,0276_nse_s01_0.20_boat_10_n03662601_35225.JPEG
subject-01,1,278,1.03990888595581,cat,chair,0.35,0277_nse_s01_0.35_chair_10_n04429376_48722.JPEG
subject-01,1,279,0.970201969146729,dog,clock,0.60,0278_nse_s01_0.60_clock_10_n03196217_2346.JPEG
subject-01,1,280,0.977189064025879,knife,knife,0.10,0279_nse_s01_0.10_knife_10_n03041632_11887.JPEG
subject-01,1,281,0.821401119232178,boat,keyboard,0.35,0280_nse_s01_0.35_keyboard_10_n04505470_4565.JPEG
subject-01,1,282,0.990313768386841,bear,bear,0.35,0281_nse_s01_0.35_bear_10_n02133161_1500.JPEG
subject-01,1,283,0.920519828796387,airplane,oven,0.90,0282_nse_s01_0.90_oven_10_n04111531_1009.JPEG
subject-01,1,284,0.496962070465088,chair,clock,0.90,0283_nse_s01_0.90_clock_10_n03196217_2179.JPEG
subject-01,1,285,0.735733032226562,cat,cat,0.10,0284_nse_s01_0.10_cat_10_n02123394_1789.JPEG
subject-01,1,286,0.73434591293335,elephant,elephant,0.00,0285_nse_s01_0.00_elephant_10_n02504013_1647.JPEG
subject-01,1,287,0.811431169509888,car,car,0.10,0286_nse_s01_0.10_car_10_n02814533_90798.JPEG
subject-01,1,288,0.757375955581665,cat,elephant,0.35,0287_nse_s01_0.35_elephant_10_n02504458_1041.JPEG
subject-01,1,289,0.610053062438965,chair,truck,0.60,0288_nse_s01_0.60_truck_10_n04467665_63829.JPEG
subject-01,1,290,0.894857168197632,bicycle,bicycle,0.03,0289_nse_s01_0.03_bicycle_10_n03792782_12354.JPEG
subject-01,1,291,1.20105290412903,bird,dog,0.20,0290_nse_s01_0.20_dog_10_n02102318_7028.JPEG
subject-01,1,292,1.13754296302795,boat,airplane,0.90,0291_nse_s01_0.90_airplane_10_n02690373_4982.JPEG
subject-01,1,293,0.46813702583313,cat,cat,0.03,0292_nse_s01_0.03_cat_10_n02123597_4948.JPEG
subject-01,1,294,0.736614942550659,keyboard,keyboard,0.10,0293_nse_s01_0.10_keyboard_10_n03085013_29042.JPEG
subject-01,1,295,1.05943489074707,bottle,airplane,0.90,0294_nse_s01_0.90_airplane_10_n02690373_9012.JPEG
subject-01,1,296,1.1657350063324,bottle,bicycle,0.35,0295_nse_s01_0.35_bicycle_10_n03792782_12504.JPEG
subject-01,1,297,0.68845009803772,bottle,bottle,0.10,0296_nse_s01_0.10_bottle_10_n03983396_9662.JPEG
subject-01,1,298,1.4407970905304,chair,oven,0.00,0297_nse_s01_0.00_oven_10_n04111531_14758.JPEG
subject-01,1,299,1.22508192062378,cat,cat,0.05,0298_nse_s01_0.05_cat_10_n02124075_8799.JPEG
subject-01,1,300,0.89360785484314,boat,oven,0.35,0299_nse_s01_0.35_oven_10_n04111531_4148.JPEG
subject-01,1,301,1.32226586341858,cat,oven,0.35,0300_nse_s01_0.35_oven_10_n04111531_2458.JPEG
subject-01,1,302,0.571002006530762,chair,chair,0.35,0301_nse_s01_0.35_chair_10_n03376595_7515.JPEG
subject-01,1,303,1.05372190475464,dog,bear,0.05,0302_nse_s01_0.05_bear_10_n02134084_473.JPEG
subject-01,1,304,0.805848121643066,airplane,chair,0.60,0303_nse_s01_0.60_chair_10_n04099969_3052.JPEG
subject-01,1,305,0.690410137176514,cat,bear,0.10,0304_nse_s01_0.10_bear_10_n02133161_4060.JPEG
subject-01,1,306,1.35712003707886,truck,truck,0.10,0305_nse_s01_0.10_truck_10_n04467665_68821.JPEG
subject-01,1,307,0.681538820266724,chair,chair,0.05,0306_nse_s01_0.05_chair_10_n03376595_2351.JPEG
subject-01,1,308,0.918145895004272,elephant,elephant,0.05,0307_nse_s01_0.05_elephant_10_n02504458_7634.JPEG
subject-01,1,309,0.840427160263062,truck,chair,0.35,0308_nse_s01_0.35_chair_10_n04099969_6425.JPEG
subject-01,1,310,0.739176988601685,cat,car,0.20,0309_nse_s01_0.20_car_10_n03100240_4294.JPEG
subject-01,1,311,1.09958982467651,knife,cat,0.05,0310_nse_s01_0.05_cat_10_n02123597_13411.JPEG
subject-01,1,312,0.722153902053833,bicycle,bicycle,0.00,0311_nse_s01_0.00_bicycle_10_n03792782_1418.JPEG
subject-01,1,313,1.03689289093018,clock,clock,0.03,0312_nse_s01_0.03_clock_10_n04548280_6068.JPEG
subject-01,1,314,0.781426906585693,dog,dog,0.10,0313_nse_s01_0.10_dog_10_n02109525_32744.JPEG
subject-01,1,315,0.598012924194336,oven,oven,0.10,0314_nse_s01_0.10_oven_10_n04111531_8081.JPEG
subject-01,1,316,0.66614294052124,chair,knife,0.90,0315_nse_s01_0.90_knife_10_n03041632_4879.JPEG
subject-01,1,317,0.916723012924194,bear,bear,0.00,0316_nse_s01_0.00_bear_10_n02133161_16147.JPEG
subject-01,1,318,0.97146201133728,elephant,elephant,0.10,0317_nse_s01_0.10_elephant_10_n02504013_5533.JPEG
subject-01,1,319,0.786318063735962,chair,bicycle,0.90,0318_nse_s01_0.90_bicycle_10_n03792782_18516.JPEG
subject-01,1,320,0.68471097946167,car,car,0.00,0319_nse_s01_0.00_car_10_n03100240_11400.JPEG
subject-01,1,321,0.69922399520874,chair,clock,0.60,0320_nse_s01_0.60_clock_10_n03196217_3697.JPEG
subject-01,1,322,0.967818021774292,truck,truck,0.10,0321_nse_s01_0.10_truck_10_n03417042_9559.JPEG
subject-01,1,323,1.14431095123291,bottle,clock,0.20,0322_nse_s01_0.20_clock_10_n04548280_1109.JPEG
subject-01,1,324,0.712529182434082,boat,boat,0.10,0323_nse_s01_0.10_boat_10_n03662601_3471.JPEG
subject-01,1,325,1.06509184837341,car,car,0.03,0324_nse_s01_0.03_car_10_n02814533_88986.JPEG
subject-01,1,326,0.734098196029663,car,car,0.00,0325_nse_s01_0.00_car_10_n02814533_52389.JPEG
subject-01,1,327,1.26440691947937,knife,knife,0.90,0326_nse_s01_0.90_knife_10_n03041632_27960.JPEG
subject-01,1,328,1.24709510803223,oven,oven,0.35,0327_nse_s01_0.35_oven_10_n04111531_9411.JPEG
subject-01,1,329,0.777691841125488,bottle,bottle,0.35,0328_nse_s01_0.35_bottle_10_n04557648_2954.JPEG
subject-01,1,330,0.694131851196289,cat,cat,0.10,0329_nse_s01_0.10_cat_10_n02125311_33778.JPEG
subject-01,1,331,0.754745006561279,oven,truck,0.05,0330_nse_s01_0.05_truck_10_n03417042_94.JPEG
subject-01,1,332,1.50005412101746,cat,bear,0.10,0331_nse_s01_0.10_bear_10_n02132136_7253.JPEG
subject-01,1,333,0.883763074874878,keyboard,cat,0.60,0332_nse_s01_0.60_cat_10_n02123159_6162.JPEG
subject-01,1,334,0.798470973968506,airplane,airplane,0.10,0333_nse_s01_0.10_airplane_10_n02690373_4213.JPEG
subject-01,1,335,0.69730019569397,elephant,elephant,0.00,0334_nse_s01_0.00_elephant_10_n02504458_6472.JPEG
subject-01,1,336,0.573470115661621,cat,cat,0.10,0335_nse_s01_0.10_cat_10_n02123045_2721.JPEG
subject-01,1,337,0.750365972518921,car,car,0.00,0336_nse_s01_0.00_car_10_n04285008_3056.JPEG
subject-01,1,338,1.03488802909851,dog,dog,0.90,0337_nse_s01_0.90_dog_10_n02110806_5609.JPEG
subject-01,1,339,0.778945207595825,dog,dog,0.00,0338_nse_s01_0.00_dog_10_n02087394_2723.JPEG
subject-01,1,340,1.2156970500946,cat,dog,0.60,0339_nse_s01_0.60_dog_10_n02096294_5451.JPEG
subject-01,1,341,0.908053874969482,airplane,airplane,0.00,0340_nse_s01_0.00_airplane_10_n02690373_12505.JPEG
subject-01,1,342,0.760643005371094,car,car,0.35,0341_nse_s01_0.35_car_10_n04285008_10631.JPEG
subject-01,1,343,0.682979822158813,keyboard,keyboard,0.03,0342_nse_s01_0.03_keyboard_10_n04505470_9866.JPEG
subject-01,1,344,0.881480932235718,knife,knife,0.00,0343_nse_s01_0.00_knife_10_n03041632_45636.JPEG
subject-01,1,345,0.826065063476562,airplane,airplane,0.05,0344_nse_s01_0.05_airplane_10_n02690373_9535.JPEG
subject-01,1,346,0.780536890029907,car,car,0.20,0345_nse_s01_0.20_car_10_n03100240_16803.JPEG
subject-01,1,347,0.786903858184814,elephant,elephant,0.03,0346_nse_s01_0.03_elephant_10_n02504013_104.JPEG
subject-01,1,348,0.899841070175171,truck,truck,0.00,0347_nse_s01_0.00_truck_10_n03796401_2012.JPEG
subject-01,1,349,0.654844999313354,cat,bottle,0.60,0348_nse_s01_0.60_bottle_10_n02823428_3478.JPEG
subject-01,1,350,0.598781108856201,cat,bear,0.05,0349_nse_s01_0.05_bear_10_n02134084_15016.JPEG
subject-01,1,351,1.12122702598572,knife,knife,0.35,0350_nse_s01_0.35_knife_10_n03041632_4494.JPEG
subject-01,1,352,0.581841945648193,oven,elephant,0.60,0351_nse_s01_0.60_elephant_10_n02504458_4824.JPEG
subject-01,1,353,0.742480039596558,boat,boat,0.00,0352_nse_s01_0.00_boat_10_n03662601_11972.JPEG
subject-01,1,354,0.602660894393921,bottle,car,0.90,0353_nse_s01_0.90_car_10_n03100240_1194.JPEG
subject-01,1,355,0.639853000640869,cat,cat,0.35,0354_nse_s01_0.35_cat_10_n02123159_6106.JPEG
subject-01,1,356,0.786267042160034,oven,keyboard,0.35,0355_nse_s01_0.35_keyboard_10_n03085013_24578.JPEG
subject-01,1,357,0.822604894638062,keyboard,keyboard,0.20,0356_nse_s01_0.20_keyboard_10_n03085013_20779.JPEG
subject-01,1,358,0.621154069900513,airplane,airplane,0.20,0357_nse_s01_0.20_airplane_10_n02690373_15097.JPEG
subject-01,1,359,0.665739774703979,bottle,elephant,0.60,0358_nse_s01_0.60_elephant_10_n02504458_5941.JPEG
subject-01,1,360,0.626102924346924,dog,bottle,0.90,0359_nse_s01_0.90_bottle_10_n04591713_2014.JPEG
subject-01,1,361,1.06481003761292,chair,chair,0.03,0360_nse_s01_0.03_chair_10_n03376595_5112.JPEG
subject-01,1,362,0.933351993560791,bicycle,clock,0.60,0361_nse_s01_0.60_clock_10_n02708093_1100.JPEG
subject-01,1,363,0.639909029006958,bottle,bottle,0.00,0362_nse_s01_0.00_bottle_10_n04591713_5476.JPEG
subject-01,1,364,0.684436082839966,clock,clock,0.00,0363_nse_s01_0.00_clock_10_n03196217_6064.JPEG
subject-01,1,365,0.814810991287231,cat,cat,0.20,0364_nse_s01_0.20_cat_10_n02124075_951.JPEG
subject-01,1,366,0.6754150390625,bicycle,bicycle,0.03,0365_nse_s01_0.03_bicycle_10_n02835271_25268.JPEG
subject-01,1,367,0.65013599395752,cat,chair,0.60,0366_nse_s01_0.60_chair_10_n03376595_12341.JPEG
subject-01,1,368,0.847985029220581,bird,bird,0.03,0367_nse_s01_0.03_bird_10_n01843383_8624.JPEG
subject-01,1,369,0.694938898086548,keyboard,car,0.90,0368_nse_s01_0.90_car_10_n03100240_1065.JPEG
subject-01,1,370,0.701340913772583,clock,clock,0.03,0369_nse_s01_0.03_clock_10_n02708093_5944.JPEG
subject-01,1,371,0.953879833221436,knife,knife,0.05,0370_nse_s01_0.05_knife_10_n03041632_11797.JPEG
subject-01,1,372,1.13698101043701,truck,truck,0.05,0371_nse_s01_0.05_truck_10_n03417042_24856.JPEG
subject-01,1,373,0.745512962341309,bear,bear,0.03,0372_nse_s01_0.03_bear_10_n02134418_2590.JPEG
subject-01,1,374,1.01979994773865,bird,clock,0.90,0373_nse_s01_0.90_clock_10_n04548280_2827.JPEG
subject-01,1,375,1.01010203361511,car,car,0.10,0374_nse_s01_0.10_car_10_n03100240_5999.JPEG
subject-01,1,376,0.726615905761719,truck,truck,0.00,0375_nse_s01_0.00_truck_10_n04467665_39477.JPEG
subject-01,1,377,0.733425855636597,bird,bicycle,0.60,0376_nse_s01_0.60_bicycle_10_n02835271_9237.JPEG
subject-01,1,378,0.724004983901978,keyboard,knife,0.90,0377_nse_s01_0.90_knife_10_n03041632_20595.JPEG
subject-01,1,379,0.660531997680664,keyboard,keyboard,0.00,0378_nse_s01_0.00_keyboard_10_n04505470_4379.JPEG
subject-01,1,380,0.715095996856689,keyboard,keyboard,0.35,0379_nse_s01_0.35_keyboard_10_n03085013_19607.JPEG
subject-01,1,381,0.72747802734375,chair,chair,0.90,0380_nse_s01_0.90_chair_10_n04429376_7321.JPEG
subject-01,1,382,0.542140007019043,clock,clock,0.05,0381_nse_s01_0.05_clock_10_n04548280_7800.JPEG
subject-01,1,383,1.31096601486206,dog,dog,0.10,0382_nse_s01_0.10_dog_10_n02092339_401.JPEG
subject-01,1,384,0.963615894317627,elephant,cat,0.90,0383_nse_s01_0.90_cat_10_n02124075_9291.JPEG
subject-01,1,385,0.710211992263794,truck,truck,0.03,0384_nse_s01_0.03_truck_10_n03796401_9207.JPEG
subject-01,1,386,0.962577819824219,airplane,bicycle,0.90,0385_nse_s01_0.90_bicycle_10_n03792782_3754.JPEG
subject-01,1,387,0.760940074920654,knife,knife,0.03,0386_nse_s01_0.03_knife_10_n03041632_94202.JPEG
subject-01,1,388,1.31934499740601,cat,cat,0.03,0387_nse_s01_0.03_cat_10_n02123045_2719.JPEG
subject-01,1,389,0.65808892250061,keyboard,keyboard,0.20,0388_nse_s01_0.20_keyboard_10_n04505470_4679.JPEG
subject-01,1,390,0.550352811813354,cat,bicycle,0.90,0389_nse_s01_0.90_bicycle_10_n03792782_4067.JPEG
subject-01,1,391,0.995357990264893,bird,keyboard,0.90,0390_nse_s01_0.90_keyboard_10_n03085013_20727.JPEG
subject-01,1,392,0.579834938049316,car,clock,0.60,0391_nse_s01_0.60_clock_10_n02708093_1418.JPEG
subject-01,1,393,0.516308069229126,clock,clock,0.05,0392_nse_s01_0.05_clock_10_n02708093_1313.JPEG
subject-01,1,394,0.807238101959229,cat,elephant,0.60,0393_nse_s01_0.60_elephant_10_n02504458_6835.JPEG
subject-01,1,395,1.13544511795044,cat,bird,0.00,0394_nse_s01_0.00_bird_10_n01795545_11076.JPEG
subject-01,1,396,0.657790899276733,elephant,elephant,0.03,0395_nse_s01_0.03_elephant_10_n02504013_8028.JPEG
subject-01,1,397,0.802083015441895,car,car,0.10,0396_nse_s01_0.10_car_10_n04285008_810.JPEG
subject-01,1,398,0.900536060333252,oven,oven,0.20,0397_nse_s01_0.20_oven_10_n04111531_15635.JPEG
subject-01,1,399,1.29153180122375,dog,cat,0.35,0398_nse_s01_0.35_cat_10_n02123394_3885.JPEG
subject-01,1,400,0.661904096603394,bicycle,bicycle,0.05,0399_nse_s01_0.05_bicycle_10_n02835271_5963.JPEG
subject-01,1,401,1.14463496208191,oven,truck,0.10,0400_nse_s01_0.10_truck_10_n03796401_407.JPEG
subject-01,1,402,1.05118107795715,elephant,knife,0.90,0401_nse_s01_0.90_knife_10_n03041632_99460.JPEG
subject-01,1,403,0.587687015533447,bicycle,bicycle,0.10,0402_nse_s01_0.10_bicycle_10_n03792782_9004.JPEG
subject-01,1,404,0.894132852554321,bottle,bottle,0.10,0403_nse_s01_0.10_bottle_10_n04579145_815.JPEG
subject-01,1,405,1.09239387512207,airplane,airplane,0.20,0404_nse_s01_0.20_airplane_10_n02690373_8967.JPEG
subject-01,1,406,1.27696585655212,airplane,airplane,0.35,0405_nse_s01_0.35_airplane_10_n02690373_10079.JPEG
subject-01,1,407,1.05221009254456,truck,knife,0.35,0406_nse_s01_0.35_knife_10_n03041632_84012.JPEG
subject-01,1,408,0.676484823226929,cat,cat,0.20,0407_nse_s01_0.20_cat_10_n02123394_289.JPEG
subject-01,1,409,1.24302911758423,bottle,bottle,0.05,0408_nse_s01_0.05_bottle_10_n04579145_5289.JPEG
subject-01,1,410,0.811247825622559,airplane,cat,0.90,0409_nse_s01_0.90_cat_10_n02123597_7138.JPEG
subject-01,1,411,0.750188112258911,keyboard,keyboard,0.03,0410_nse_s01_0.03_keyboard_10_n04505470_1651.JPEG
subject-01,1,412,1.35497784614563,truck,bicycle,0.03,0411_nse_s01_0.03_bicycle_10_n03792782_6613.JPEG
subject-01,1,413,0.923446178436279,car,chair,0.90,0412_nse_s01_0.90_chair_10_n03376595_4142.JPEG
subject-01,1,414,0.776100873947144,bird,bird,0.90,0413_nse_s01_0.90_bird_10_n01820546_654.JPEG
subject-01,1,415,0.551998853683472,clock,clock,0.00,0414_nse_s01_0.00_clock_10_n04548280_4181.JPEG
subject-01,1,416,0.82874608039856,bear,elephant,0.60,0415_nse_s01_0.60_elephant_10_n02504458_5288.JPEG
subject-01,1,417,0.603199005126953,bottle,bottle,0.00,0416_nse_s01_0.00_bottle_10_n03937543_2428.JPEG
subject-01,1,418,1.0185489654541,keyboard,keyboard,0.35,0417_nse_s01_0.35_keyboard_10_n03085013_20798.JPEG
subject-01,1,419,0.603047132492065,bottle,bottle,0.03,0418_nse_s01_0.03_bottle_10_n04591713_5518.JPEG
subject-01,1,420,0.725817918777466,elephant,elephant,0.60,0419_nse_s01_0.60_elephant_10_n02504013_5876.JPEG
subject-01,1,421,0.756095886230469,bear,bear,0.35,0420_nse_s01_0.35_bear_10_n02133161_5927.JPEG
subject-01,1,422,0.855430841445923,keyboard,clock,0.05,0421_nse_s01_0.05_clock_10_n03196217_3987.JPEG
subject-01,1,423,0.900277137756348,clock,clock,0.20,0422_nse_s01_0.20_clock_10_n04548280_9646.JPEG
subject-01,1,424,1.19859313964844,cat,dog,0.05,0423_nse_s01_0.05_dog_10_n02112706_5500.JPEG
subject-01,1,425,1.0989990234375,dog,dog,0.20,0424_nse_s01_0.20_dog_10_n02086079_17983.JPEG
subject-01,1,426,NaN,na,bicycle,0.35,0425_nse_s01_0.35_bicycle_10_n02835271_8798.JPEG
subject-01,1,427,0.442233800888062,clock,clock,0.10,0426_nse_s01_0.10_clock_10_n04548280_1114.JPEG
subject-01,1,428,0.494452953338623,clock,clock,0.35,0427_nse_s01_0.35_clock_10_n02708093_4912.JPEG
subject-01,1,429,0.654999017715454,bird,bird,0.03,0428_nse_s01_0.03_bird_10_n02025239_19864.JPEG
subject-01,1,430,0.693819046020508,cat,bottle,0.35,0429_nse_s01_0.35_bottle_10_n04557648_310.JPEG
subject-01,1,431,0.705695867538452,bicycle,bicycle,0.20,0430_nse_s01_0.20_bicycle_10_n03792782_50446.JPEG
subject-01,1,432,1.17438101768494,elephant,elephant,0.10,0431_nse_s01_0.10_elephant_10_n02504013_7774.JPEG
subject-01,1,433,0.764995098114014,keyboard,bicycle,0.60,0432_nse_s01_0.60_bicycle_10_n02835271_4619.JPEG
subject-01,1,434,0.503252983093262,boat,boat,0.00,0433_nse_s01_0.00_boat_10_n04273569_11427.JPEG
subject-01,1,435,0.648085117340088,cat,chair,0.03,0434_nse_s01_0.03_chair_10_n04429376_33792.JPEG
subject-01,1,436,0.862560033798218,keyboard,bottle,0.90,0435_nse_s01_0.90_bottle_10_n02823428_5482.JPEG
subject-01,1,437,0.869490146636963,keyboard,keyboard,0.20,0436_nse_s01_0.20_keyboard_10_n03085013_7605.JPEG
subject-01,1,438,0.621601104736328,clock,clock,0.10,0437_nse_s01_0.10_clock_10_n03196217_5441.JPEG
subject-01,1,439,0.706070899963379,boat,boat,0.10,0438_nse_s01_0.10_boat_10_n03344393_7075.JPEG
subject-01,1,440,1.02093505859375,chair,chair,0.20,0439_nse_s01_0.20_chair_10_n03376595_5909.JPEG
subject-01,1,441,0.588969945907593,boat,bird,0.10,0440_nse_s01_0.10_bird_10_n02037110_3949.JPEG
subject-01,1,442,0.896169185638428,dog,dog,0.35,0441_nse_s01_0.35_dog_10_n02107574_3352.JPEG
subject-01,1,443,0.756498098373413,elephant,elephant,0.35,0442_nse_s01_0.35_elephant_10_n02504458_485.JPEG
subject-01,1,444,0.608879089355469,car,car,0.00,0443_nse_s01_0.00_car_10_n02814533_72473.JPEG
subject-01,1,445,0.853633880615234,dog,dog,0.20,0444_nse_s01_0.20_dog_10_n02110063_4287.JPEG
subject-01,1,446,0.643877983093262,bear,bicycle,0.20,0445_nse_s01_0.20_bicycle_10_n03792782_7050.JPEG
subject-01,1,447,1.06661820411682,clock,clock,0.60,0446_nse_s01_0.60_clock_10_n02708093_1733.JPEG
subject-01,1,448,1.29487490653992,airplane,boat,0.90,0447_nse_s01_0.90_boat_10_n04273569_18898.JPEG
subject-01,1,449,0.848408937454224,airplane,airplane,0.10,0448_nse_s01_0.10_airplane_10_n02690373_5003.JPEG
subject-01,1,450,0.724265813827515,bear,bear,0.00,0449_nse_s01_0.00_bear_10_n02133161_396.JPEG
subject-01,1,451,0.776415109634399,airplane,truck,0.60,0450_nse_s01_0.60_truck_10_n04467665_37833.JPEG
subject-01,1,452,0.699325084686279,keyboard,keyboard,0.00,0451_nse_s01_0.00_keyboard_10_n03085013_19547.JPEG
subject-01,1,453,1.05174398422241,knife,oven,0.20,0452_nse_s01_0.20_oven_10_n04111531_2163.JPEG
subject-01,1,454,0.750357866287231,oven,car,0.35,0453_nse_s01_0.35_car_10_n03100240_319.JPEG
subject-01,1,455,0.532788038253784,cat,cat,0.00,0454_nse_s01_0.00_cat_10_n02123597_3896.JPEG
subject-01,1,456,0.579744815826416,clock,clock,0.00,0455_nse_s01_0.00_clock_10_n02708093_3702.JPEG
subject-01,1,457,0.594230890274048,clock,clock,0.03,0456_nse_s01_0.03_clock_10_n03196217_3007.JPEG
subject-01,1,458,0.738736867904663,airplane,airplane,0.03,0457_nse_s01_0.03_airplane_10_n02690373_10817.JPEG
subject-01,1,459,0.651196002960205,cat,cat,0.35,0458_nse_s01_0.35_cat_10_n02123045_8491.JPEG
subject-01,1,460,0.611455917358398,bird,bird,0.10,0459_nse_s01_0.10_bird_10_n02002556_5468.JPEG
subject-01,1,461,0.963885068893433,cat,cat,0.05,0460_nse_s01_0.05_cat_10_n02125311_5346.JPEG
subject-01,1,462,1.50036907196045,oven,oven,0.05,0461_nse_s01_0.05_oven_10_n04111531_9314.JPEG
subject-01,1,463,0.501513957977295,boat,boat,0.10,0462_nse_s01_0.10_boat_10_n03344393_2433.JPEG
subject-01,1,464,0.830005168914795,boat,boat,0.03,0463_nse_s01_0.03_boat_10_n02951358_18655.JPEG
subject-01,1,465,0.760401964187622,cat,oven,0.20,0464_nse_s01_0.20_oven_10_n04111531_3121.JPEG
subject-01,1,466,0.796923875808716,oven,clock,0.90,0465_nse_s01_0.90_clock_10_n03196217_12701.JPEG
subject-01,1,467,1.50035095214844,cat,oven,0.90,0466_nse_s01_0.90_oven_10_n04111531_10220.JPEG
subject-01,1,468,0.53994083404541,keyboard,keyboard,0.03,0467_nse_s01_0.03_keyboard_10_n03085013_23697.JPEG
subject-01,1,469,0.762821912765503,truck,truck,0.03,0468_nse_s01_0.03_truck_10_n03417042_11704.JPEG
subject-01,1,470,1.02137303352356,boat,bird,0.60,0469_nse_s01_0.60_bird_10_n01828970_2727.JPEG
subject-01,1,471,0.781907081604004,bear,bear,0.05,0470_nse_s01_0.05_bear_10_n02132136_10412.JPEG
subject-01,1,472,0.71214485168457,bear,bear,0.03,0471_nse_s01_0.03_bear_10_n02132136_50.JPEG
subject-01,1,473,0.664804935455322,bird,bird,0.00,0472_nse_s01_0.00_bird_10_n02009229_4129.JPEG
subject-01,1,474,0.679282903671265,bottle,bird,0.90,0473_nse_s01_0.90_bird_10_n01514859_1951.JPEG
subject-01,1,475,0.677792072296143,cat,dog,0.35,0474_nse_s01_0.35_dog_10_n02106166_2273.JPEG
subject-01,1,476,0.760589122772217,oven,oven,0.20,0475_nse_s01_0.20_oven_10_n04111531_8144.JPEG
subject-01,1,477,0.782884836196899,bottle,bottle,0.10,0476_nse_s01_0.10_bottle_10_n04560804_3597.JPEG
subject-01,1,478,1.02773308753967,chair,bicycle,0.60,0477_nse_s01_0.60_bicycle_10_n03792782_988.JPEG
subject-01,1,479,0.634335041046143,cat,knife,0.03,0478_nse_s01_0.03_knife_10_n03041632_3781.JPEG
subject-01,1,480,0.840727806091309,bear,oven,0.35,0479_nse_s01_0.35_oven_10_n04111531_3702.JPEG
subject-01,1,481,0.815056085586548,airplane,airplane,0.05,0480_nse_s01_0.05_airplane_10_n02690373_1751.JPEG
subject-01,1,482,0.789679050445557,bird,bird,0.10,0481_nse_s01_0.10_bird_10_n02051845_6333.JPEG
subject-01,1,483,0.787919998168945,cat,boat,0.90,0482_nse_s01_0.90_boat_10_n03662601_3913.JPEG
subject-01,1,484,0.80239200592041,dog,bear,0.90,0483_nse_s01_0.90_bear_10_n02134418_5630.JPEG
subject-01,1,485,1.13135981559753,keyboard,chair,0.90,0484_nse_s01_0.90_chair_10_n03376595_4887.JPEG
subject-01,1,486,0.721683979034424,oven,dog,0.60,0485_nse_s01_0.60_dog_10_n02093428_6133.JPEG
subject-01,1,487,0.67640209197998,airplane,airplane,0.20,0486_nse_s01_0.20_airplane_10_n02690373_2024.JPEG
subject-01,1,488,0.542727947235107,cat,bottle,0.60,0487_nse_s01_0.60_bottle_10_n04591713_765.JPEG
subject-01,1,489,1.35524106025696,elephant,elephant,0.05,0488_nse_s01_0.05_elephant_10_n02504458_8212.JPEG
subject-01,1,490,0.739706993103027,knife,knife,0.00,0489_nse_s01_0.00_knife_10_n03041632_1607.JPEG
subject-01,1,491,0.71611499786377,car,car,0.00,0490_nse_s01_0.00_car_10_n04285008_8700.JPEG
subject-01,1,492,0.952774047851562,bottle,bottle,0.60,0491_nse_s01_0.60_bottle_10_n04579145_2485.JPEG
subject-01,1,493,1.38110089302063,bottle,keyboard,0.05,0492_nse_s01_0.05_keyboard_10_n03085013_23865.JPEG
subject-01,1,494,1.2560408115387,knife,knife,0.60,0493_nse_s01_0.60_knife_10_n03041632_39342.JPEG
subject-01,1,495,0.678681135177612,bicycle,bicycle,0.00,0494_nse_s01_0.00_bicycle_10_n02835271_5056.JPEG
subject-01,1,496,1.26922702789307,truck,car,0.60,0495_nse_s01_0.60_car_10_n02814533_41478.JPEG
subject-01,1,497,0.967447996139526,oven,oven,0.00,0496_nse_s01_0.00_oven_10_n04111531_10375.JPEG
subject-01,1,498,0.882199048995972,cat,oven,0.90,0497_nse_s01_0.90_oven_10_n04111531_2054.JPEG
subject-01,1,499,0.664404153823853,keyboard,keyboard,0.35,0498_nse_s01_0.35_keyboard_10_n03085013_20784.JPEG
subject-01,1,500,0.570945024490356,bear,dog,0.10,0499_nse_s01_0.10_dog_10_n02108551_26509.JPEG
subject-01,1,501,0.84804105758667,cat,dog,0.35,0500_nse_s01_0.35_dog_10_n02107312_5759.JPEG
subject-01,1,502,0.584326982498169,boat,boat,0.05,0501_nse_s01_0.05_boat_10_n04612504_15898.JPEG
subject-01,1,503,0.566991090774536,chair,chair,0.10,0502_nse_s01_0.10_chair_10_n03376595_15723.JPEG
subject-01,1,504,1.25730395317078,knife,airplane,0.05,0503_nse_s01_0.05_airplane_10_n02690373_2981.JPEG
subject-01,1,505,0.725728034973145,chair,bottle,0.20,0504_nse_s01_0.20_bottle_10_n04557648_954.JPEG
subject-01,1,506,0.686356067657471,bicycle,bicycle,0.20,0505_nse_s01_0.20_bicycle_10_n03792782_29108.JPEG
subject-01,1,507,0.799138069152832,bear,bear,0.03,0506_nse_s01_0.03_bear_10_n02134084_16632.JPEG
subject-01,1,508,0.759356021881104,bird,bird,0.00,0507_nse_s01_0.00_bird_10_n01817953_1968.JPEG
subject-01,1,509,1.43433308601379,cat,elephant,0.35,0508_nse_s01_0.35_elephant_10_n02504013_20042.JPEG
subject-01,1,510,1.44082593917847,cat,cat,0.00,0509_nse_s01_0.00_cat_10_n02124075_7668.JPEG
subject-01,1,511,0.709102869033813,dog,dog,0.00,0510_nse_s01_0.00_dog_10_n02110958_16337.JPEG
subject-01,1,512,0.845624923706055,bird,bird,0.03,0511_nse_s01_0.03_bird_10_n02018207_4180.JPEG
subject-01,1,513,0.705732822418213,chair,chair,0.20,0512_nse_s01_0.20_chair_10_n02791124_3994.JPEG
subject-01,1,514,1.04223394393921,truck,truck,0.05,0513_nse_s01_0.05_truck_10_n03796401_13349.JPEG
subject-01,1,515,0.618742942810059,boat,chair,0.90,0514_nse_s01_0.90_chair_10_n02791124_15383.JPEG
subject-01,1,516,1.19306302070618,airplane,airplane,0.00,0515_nse_s01_0.00_airplane_10_n02690373_8446.JPEG
subject-01,1,517,0.684215068817139,bird,bird,0.05,0516_nse_s01_0.05_bird_10_n02017213_7721.JPEG
subject-01,1,518,0.706421852111816,cat,cat,0.35,0517_nse_s01_0.35_cat_10_n02123159_3083.JPEG
subject-01,1,519,1.02082395553589,airplane,chair,0.90,0518_nse_s01_0.90_chair_10_n02791124_5400.JPEG
subject-01,1,520,0.76526403427124,car,car,0.05,0519_nse_s01_0.05_car_10_n02814533_35054.JPEG
subject-01,1,521,0.626143932342529,oven,keyboard,0.90,0520_nse_s01_0.90_keyboard_10_n03085013_20590.JPEG
subject-01,1,522,0.633018970489502,boat,boat,0.10,0521_nse_s01_0.10_boat_10_n02951358_15413.JPEG
subject-01,1,523,0.553485870361328,cat,cat,0.03,0522_nse_s01_0.03_cat_10_n02124075_14924.JPEG
subject-01,1,524,0.651795864105225,chair,chair,0.03,0523_nse_s01_0.03_chair_10_n03376595_524.JPEG
subject-01,1,525,0.942190885543823,cat,cat,0.03,0524_nse_s01_0.03_cat_10_n02123394_6828.JPEG
subject-01,1,526,1.50025391578674,airplane,boat,0.10,0525_nse_s01_0.10_boat_10_n04612504_19388.JPEG
subject-01,1,527,0.709388017654419,keyboard,keyboard,0.20,0526_nse_s01_0.20_keyboard_10_n03085013_22597.JPEG
subject-01,1,528,0.829674005508423,boat,boat,0.60,0527_nse_s01_0.60_boat_10_n03662601_8191.JPEG
subject-01,1,529,0.836154937744141,airplane,airplane,0.90,0528_nse_s01_0.90_airplane_10_n02690373_629.JPEG
subject-01,1,530,0.520887136459351,cat,cat,0.35,0529_nse_s01_0.35_cat_10_n02123159_5950.JPEG
subject-01,1,531,0.809087991714478,bottle,bottle,0.35,0530_nse_s01_0.35_bottle_10_n04560804_12736.JPEG
subject-01,1,532,0.839977025985718,cat,cat,0.03,0531_nse_s01_0.03_cat_10_n02123159_7270.JPEG
subject-01,1,533,0.478661060333252,cat,elephant,0.60,0532_nse_s01_0.60_elephant_10_n02504013_1110.JPEG
subject-01,1,534,0.820925951004028,cat,knife,0.00,0533_nse_s01_0.00_knife_10_n03041632_34769.JPEG
subject-01,1,535,0.60553503036499,cat,dog,0.05,0534_nse_s01_0.05_dog_10_n02102480_10015.JPEG
subject-01,1,536,0.772002935409546,keyboard,keyboard,0.03,0535_nse_s01_0.03_keyboard_10_n03085013_23119.JPEG
subject-01,1,537,0.795058012008667,elephant,elephant,0.05,0536_nse_s01_0.05_elephant_10_n02504013_5501.JPEG
subject-01,1,538,1.1393518447876,chair,truck,0.35,0537_nse_s01_0.35_truck_10_n04467665_20923.JPEG
subject-01,1,539,0.799751996994019,cat,dog,0.05,0538_nse_s01_0.05_dog_10_n02098105_146.JPEG
subject-01,1,540,0.568450927734375,boat,boat,0.00,0539_nse_s01_0.00_boat_10_n03344393_1125.JPEG
subject-01,1,541,0.704834938049316,clock,clock,0.10,0540_nse_s01_0.10_clock_10_n02708093_527.JPEG
subject-01,1,542,0.633486986160278,cat,bicycle,0.90,0541_nse_s01_0.90_bicycle_10_n02835271_30318.JPEG
subject-01,1,543,0.640011072158813,clock,clock,0.05,0542_nse_s01_0.05_clock_10_n03196217_8792.JPEG
subject-01,1,544,0.754467964172363,truck,truck,0.20,0543_nse_s01_0.20_truck_10_n04467665_72022.JPEG
subject-01,1,545,0.644990921020508,boat,boat,0.20,0544_nse_s01_0.20_boat_10_n04273569_32553.JPEG
subject-01,1,546,0.881274938583374,bottle,bottle,0.10,0545_nse_s01_0.10_bottle_10_n02823428_11579.JPEG
subject-01,1,547,0.802390098571777,elephant,elephant,0.05,0546_nse_s01_0.05_elephant_10_n02504013_8391.JPEG
subject-01,1,548,1.15479493141174,dog,bear,0.60,0547_nse_s01_0.60_bear_10_n02132136_2900.JPEG
subject-01,1,549,0.707419157028198,bird,bird,0.10,0548_nse_s01_0.10_bird_10_n02007558_7446.JPEG
subject-01,1,550,0.943518161773682,bear,bear,0.20,0549_nse_s01_0.20_bear_10_n02134418_4666.JPEG
subject-01,1,551,1.04269790649414,truck,truck,0.20,0550_nse_s01_0.20_truck_10_n03417042_4994.JPEG
subject-01,1,552,1.42458415031433,airplane,truck,0.35,0551_nse_s01_0.35_truck_10_n04467665_4810.JPEG
subject-01,1,553,0.655110120773315,car,car,0.35,0552_nse_s01_0.35_car_10_n02814533_4519.JPEG
subject-01,1,554,0.946552991867065,truck,truck,0.03,0553_nse_s01_0.03_truck_10_n04467665_74235.JPEG
subject-01,1,555,0.574697017669678,cat,keyboard,0.90,0554_nse_s01_0.90_keyboard_10_n03085013_20152.JPEG
subject-01,1,556,0.919209957122803,dog,dog,0.60,0555_nse_s01_0.60_dog_10_n02109525_50916.JPEG
subject-01,1,557,0.657722949981689,clock,clock,0.03,0556_nse_s01_0.03_clock_10_n04548280_4872.JPEG
subject-01,1,558,0.586194038391113,oven,keyboard,0.90,0557_nse_s01_0.90_keyboard_10_n04505470_4917.JPEG
subject-01,1,559,0.72278618812561,bicycle,bicycle,0.05,0558_nse_s01_0.05_bicycle_10_n03792782_48457.JPEG
subject-01,1,560,0.559299945831299,bicycle,bicycle,0.05,0559_nse_s01_0.05_bicycle_10_n03792782_6083.JPEG
subject-01,1,561,0.703958988189697,keyboard,keyboard,0.20,0560_nse_s01_0.20_keyboard_10_n04505470_9570.JPEG
subject-01,1,562,0.602368116378784,clock,bottle,0.60,0561_nse_s01_0.60_bottle_10_n04557648_4356.JPEG
subject-01,1,563,0.932717084884644,keyboard,keyboard,0.03,0562_nse_s01_0.03_keyboard_10_n04505470_4554.JPEG
subject-01,1,564,0.783168792724609,bird,bird,0.00,0563_nse_s01_0.00_bird_10_n01560419_2432.JPEG
subject-01,1,565,1.12027621269226,dog,dog,0.05,0564_nse_s01_0.05_dog_10_n02096051_1308.JPEG
subject-01,1,566,0.810699939727783,bottle,bottle,0.20,0565_nse_s01_0.20_bottle_10_n04560804_21519.JPEG
subject-01,1,567,0.925086975097656,airplane,boat,0.90,0566_nse_s01_0.90_boat_10_n02951358_30335.JPEG
subject-01,1,568,0.66956615447998,oven,oven,0.20,0567_nse_s01_0.20_oven_10_n04111531_5727.JPEG
subject-01,1,569,0.868163108825684,bird,dog,0.03,0568_nse_s01_0.03_dog_10_n02095314_4996.JPEG
subject-01,1,570,0.904599189758301,boat,boat,0.05,0569_nse_s01_0.05_boat_10_n03662601_33184.JPEG
subject-01,1,571,0.749132871627808,chair,chair,0.35,0570_nse_s01_0.35_chair_10_n04099969_2109.JPEG
subject-01,1,572,0.639457941055298,oven,chair,0.60,0571_nse_s01_0.60_chair_10_n03376595_3010.JPEG
subject-01,1,573,0.692077875137329,truck,bottle,0.20,0572_nse_s01_0.20_bottle_10_n02823428_13937.JPEG
subject-01,1,574,0.920776844024658,bicycle,bicycle,0.20,0573_nse_s01_0.20_bicycle_10_n02835271_1075.JPEG
subject-01,1,575,0.627346992492676,bottle,bottle,0.10,0574_nse_s01_0.10_bottle_10_n03983396_11859.JPEG
subject-01,1,576,0.763906955718994,bird,bird,0.03,0575_nse_s01_0.03_bird_10_n01855672_12414.JPEG
subject-01,1,577,0.548488855361938,cat,cat,0.60,0576_nse_s01_0.60_cat_10_n02123159_7949.JPEG
subject-01,1,578,0.806751012802124,clock,chair,0.00,0577_nse_s01_0.00_chair_10_n04429376_5770.JPEG
subject-01,1,579,0.751459121704102,car,car,0.05,0578_nse_s01_0.05_car_10_n03100240_9149.JPEG
subject-01,1,580,0.642107009887695,boat,oven,0.00,0579_nse_s01_0.00_oven_10_n04111531_11935.JPEG
subject-01,1,581,0.91628885269165,oven,oven,0.20,0580_nse_s01_0.20_oven_10_n04111531_8330.JPEG
subject-01,1,582,0.608963966369629,oven,dog,0.90,0581_nse_s01_0.90_dog_10_n02105505_6715.JPEG
subject-01,1,583,0.867655038833618,clock,clock,0.05,0582_nse_s01_0.05_clock_10_n03196217_3868.JPEG
subject-01,1,584,0.766474008560181,keyboard,bottle,0.35,0583_nse_s01_0.35_bottle_10_n03937543_3289.JPEG
subject-01,1,585,0.658926963806152,oven,clock,0.20,0584_nse_s01_0.20_clock_10_n03196217_445.JPEG
subject-01,1,586,1.26927399635315,bicycle,bicycle,0.00,0585_nse_s01_0.00_bicycle_10_n03792782_7092.JPEG
subject-01,1,587,1.07541489601135,bear,bear,0.00,0586_nse_s01_0.00_bear_10_n02133161_11816.JPEG
subject-01,1,588,0.605854988098145,oven,oven,0.05,0587_nse_s01_0.05_oven_10_n04111531_274.JPEG
subject-01,1,589,1.18030214309692,knife,clock,0.60,0588_nse_s01_0.60_clock_10_n04548280_4358.JPEG
subject-01,1,590,0.748995065689087,truck,clock,0.90,0589_nse_s01_0.90_clock_10_n02708093_6967.JPEG
subject-01,1,591,1.02319884300232,knife,knife,0.60,0590_nse_s01_0.60_knife_10_n03041632_13645.JPEG
subject-01,1,592,0.97402811050415,knife,knife,0.20,0591_nse_s01_0.20_knife_10_n03041632_44269.JPEG
subject-01,1,593,0.766544103622437,oven,oven,0.05,0592_nse_s01_0.05_oven_10_n04111531_22872.JPEG
subject-01,1,594,1.46305918693542,clock,clock,0.60,0593_nse_s01_0.60_clock_10_n04548280_1438.JPEG
subject-01,1,595,1.0913450717926,bottle,bear,0.00,0594_nse_s01_0.00_bear_10_n02134084_12389.JPEG
subject-01,1,596,0.52186918258667,oven,keyboard,0.03,0595_nse_s01_0.03_keyboard_10_n04505470_6051.JPEG
subject-01,1,597,0.490175008773804,keyboard,keyboard,0.10,0596_nse_s01_0.10_keyboard_10_n04505470_4507.JPEG
subject-01,1,598,0.794928073883057,oven,bear,0.35,0597_nse_s01_0.35_bear_10_n02133161_19418.JPEG
subject-01,1,599,0.777453184127808,dog,dog,0.00,0598_nse_s01_0.00_dog_10_n02091244_13118.JPEG
subject-01,1,600,0.66001296043396,truck,truck,0.05,0599_nse_s01_0.05_truck_10_n03417042_10150.JPEG
subject-01,1,601,0.698477983474731,bottle,bottle,0.10,0600_nse_s01_0.10_bottle_10_n04591713_1978.JPEG
subject-01,1,602,1.15673899650574,oven,knife,0.60,0601_nse_s01_0.60_knife_10_n03041632_2468.JPEG
subject-01,1,603,0.76342511177063,keyboard,bicycle,0.60,0602_nse_s01_0.60_bicycle_10_n03792782_14984.JPEG
subject-01,1,604,0.539696931838989,airplane,airplane,0.20,0603_nse_s01_0.20_airplane_10_n02690373_4201.JPEG
subject-01,1,605,0.522790908813477,bear,bear,0.03,0604_nse_s01_0.03_bear_10_n02132136_23078.JPEG
subject-01,1,606,0.805115938186646,bird,bird,0.35,0605_nse_s01_0.35_bird_10_n02027492_6813.JPEG
subject-01,1,607,0.633570909500122,oven,bird,0.20,0606_nse_s01_0.20_bird_10_n01530575_10119.JPEG
subject-01,1,608,0.716130971908569,airplane,airplane,0.05,0607_nse_s01_0.05_airplane_10_n02690373_7072.JPEG
subject-01,1,609,1.22052884101868,dog,dog,0.03,0608_nse_s01_0.03_dog_10_n02098286_6303.JPEG
subject-01,1,610,0.643015146255493,oven,keyboard,0.35,0609_nse_s01_0.35_keyboard_10_n04505470_3425.JPEG
subject-01,1,611,0.557723999023438,boat,dog,0.60,0610_nse_s01_0.60_dog_10_n02088238_11711.JPEG
subject-01,1,612,0.570194005966187,keyboard,keyboard,0.03,0611_nse_s01_0.03_keyboard_10_n03085013_20495.JPEG
subject-01,1,613,0.822557926177979,bicycle,bottle,0.90,0612_nse_s01_0.90_bottle_10_n04591713_5279.JPEG
subject-01,1,614,1.04332208633423,dog,cat,0.20,0613_nse_s01_0.20_cat_10_n02123159_4876.JPEG
subject-01,1,615,1.06612110137939,bottle,bottle,0.20,0614_nse_s01_0.20_bottle_10_n04557648_11992.JPEG
subject-01,1,616,0.802593946456909,oven,oven,0.03,0615_nse_s01_0.03_oven_10_n04111531_1723.JPEG
subject-01,1,617,0.592885971069336,bear,bear,0.60,0616_nse_s01_0.60_bear_10_n02134084_8095.JPEG
subject-01,1,618,0.845357894897461,dog,cat,0.03,0617_nse_s01_0.03_cat_10_n02125311_1736.JPEG
subject-01,1,619,0.849816083908081,car,car,0.35,0618_nse_s01_0.35_car_10_n03100240_1702.JPEG
subject-01,1,620,0.640710830688477,bear,bear,0.05,0619_nse_s01_0.05_bear_10_n02132136_3224.JPEG
subject-01,1,621,0.779241800308228,knife,knife,0.05,0620_nse_s01_0.05_knife_10_n03041632_99912.JPEG
subject-01,1,622,0.600080013275146,boat,boat,0.10,0621_nse_s01_0.10_boat_10_n04612504_6308.JPEG
subject-01,1,623,0.890604019165039,bird,bird,0.20,0622_nse_s01_0.20_bird_10_n01532829_4692.JPEG
subject-01,1,624,0.956979036331177,knife,keyboard,0.60,0623_nse_s01_0.60_keyboard_10_n03085013_20363.JPEG
subject-01,1,625,0.649678945541382,car,car,0.03,0624_nse_s01_0.03_car_10_n04285008_5559.JPEG
subject-01,1,626,0.545791864395142,oven,bird,0.90,0625_nse_s01_0.90_bird_10_n01534433_14677.JPEG
subject-01,1,627,0.798518180847168,bear,elephant,0.03,0626_nse_s01_0.03_elephant_10_n02504013_10909.JPEG
subject-01,1,628,0.797313928604126,knife,knife,0.35,0627_nse_s01_0.35_knife_10_n03041632_54732.JPEG
subject-01,1,629,1.50019884109497,truck,truck,0.35,0628_nse_s01_0.35_truck_10_n03417042_10751.JPEG
subject-01,1,630,0.585664987564087,car,elephant,0.35,0629_nse_s01_0.35_elephant_10_n02504013_4762.JPEG
subject-01,1,631,0.644550085067749,chair,chair,0.00,0630_nse_s01_0.00_chair_10_n04099969_8021.JPEG
subject-01,1,632,0.6592698097229,oven,bear,0.60,0631_nse_s01_0.60_bear_10_n02133161_4882.JPEG
subject-01,1,633,0.649692058563232,bicycle,bicycle,0.35,0632_nse_s01_0.35_bicycle_10_n03792782_44296.JPEG
subject-01,1,634,0.702276945114136,truck,truck,0.00,0633_nse_s01_0.00_truck_10_n03417042_13151.JPEG
subject-01,1,635,0.506852865219116,cat,chair,0.90,0634_nse_s01_0.90_chair_10_n04099969_41686.JPEG
subject-01,1,636,0.597320079803467,cat,cat,0.05,0635_nse_s01_0.05_cat_10_n02123045_5381.JPEG
subject-01,1,637,0.71950101852417,bird,bird,0.00,0636_nse_s01_0.00_bird_10_n02027492_597.JPEG
subject-01,1,638,0.854455947875977,bird,cat,0.20,0637_nse_s01_0.20_cat_10_n02123597_11564.JPEG
subject-01,1,639,0.509005069732666,oven,oven,0.60,0638_nse_s01_0.60_oven_10_n04111531_1752.JPEG
subject-01,1,640,0.913453102111816,truck,truck,0.00,0639_nse_s01_0.00_truck_10_n03796401_27811.JPEG
subject-01,1,641,1.18829917907715,cat,elephant,0.90,0640_nse_s01_0.90_elephant_10_n02504013_1255.JPEG
subject-01,1,642,0.656632900238037,truck,truck,0.10,0641_nse_s01_0.10_truck_10_n03796401_21198.JPEG
subject-01,1,643,1.00710201263428,truck,truck,0.03,0642_nse_s01_0.03_truck_10_n03417042_12874.JPEG
subject-01,1,644,0.529785871505737,cat,boat,0.90,0643_nse_s01_0.90_boat_10_n04612504_7148.JPEG
subject-01,1,645,0.528174877166748,cat,clock,0.90,0644_nse_s01_0.90_clock_10_n04548280_3053.JPEG
subject-01,1,646,0.910769939422607,oven,oven,0.03,0645_nse_s01_0.03_oven_10_n04111531_10681.JPEG
subject-01,1,647,1.00131511688232,boat,clock,0.90,0646_nse_s01_0.90_clock_10_n04548280_5189.JPEG
subject-01,1,648,0.629595041275024,clock,clock,0.10,0647_nse_s01_0.10_clock_10_n04548280_2654.JPEG
subject-01,1,649,0.452827930450439,cat,cat,0.10,0648_nse_s01_0.10_cat_10_n02124075_12815.JPEG
subject-01,1,650,1.02471399307251,bear,bear,0.05,0649_nse_s01_0.05_bear_10_n02133161_547.JPEG
subject-01,1,651,0.525067806243896,clock,clock,0.05,0650_nse_s01_0.05_clock_10_n02708093_2898.JPEG
subject-01,1,652,0.66785192489624,car,car,0.35,0651_nse_s01_0.35_car_10_n02814533_81455.JPEG
subject-01,1,653,1.05865502357483,clock,clock,0.00,0652_nse_s01_0.00_clock_10_n04548280_3716.JPEG
subject-01,1,654,0.827249050140381,bottle,bottle,0.05,0653_nse_s01_0.05_bottle_10_n03983396_3109.JPEG
subject-01,1,655,0.755537033081055,bottle,bottle,0.00,0654_nse_s01_0.00_bottle_10_n03937543_9745.JPEG
subject-01,1,656,0.816092014312744,chair,bicycle,0.90,0655_nse_s01_0.90_bicycle_10_n03792782_30942.JPEG
subject-01,1,657,1.23690295219421,boat,boat,0.03,0656_nse_s01_0.03_boat_10_n02951358_4397.JPEG
subject-01,1,658,0.589308023452759,bicycle,bicycle,0.20,0657_nse_s01_0.20_bicycle_10_n03792782_11417.JPEG
subject-01,1,659,0.611948013305664,bicycle,bicycle,0.20,0658_nse_s01_0.20_bicycle_10_n02835271_12120.JPEG
subject-01,1,660,1.02421712875366,elephant,elephant,0.20,0659_nse_s01_0.20_elephant_10_n02504458_2799.JPEG
subject-01,1,661,0.922729015350342,bird,bird,0.10,0660_nse_s01_0.10_bird_10_n01843383_386.JPEG
subject-01,1,662,0.913524866104126,cat,dog,0.60,0661_nse_s01_0.60_dog_10_n02086646_6407.JPEG
subject-01,1,663,1.22566699981689,chair,airplane,0.10,0662_nse_s01_0.10_airplane_10_n02690373_10285.JPEG
subject-01,1,664,0.518409967422485,boat,boat,0.60,0663_nse_s01_0.60_boat_10_n03662601_5995.JPEG
subject-01,1,665,0.538639068603516,oven,chair,0.60,0664_nse_s01_0.60_chair_10_n03376595_8995.JPEG
subject-01,1,666,0.567623138427734,chair,chair,0.03,0665_nse_s01_0.03_chair_10_n04099969_5453.JPEG
subject-01,1,667,0.704238176345825,boat,boat,0.00,0666_nse_s01_0.00_boat_10_n03662601_8398.JPEG
subject-01,1,668,0.764672994613647,car,car,0.20,0667_nse_s01_0.20_car_10_n02814533_7028.JPEG
subject-01,1,669,0.716978073120117,oven,oven,0.60,0668_nse_s01_0.60_oven_10_n04111531_326.JPEG
subject-01,1,670,1.02178907394409,dog,dog,0.20,0669_nse_s01_0.20_dog_10_n02110185_10879.JPEG
subject-01,1,671,0.811942100524902,cat,bear,0.05,0670_nse_s01_0.05_bear_10_n02132136_17161.JPEG
subject-01,1,672,0.510601043701172,cat,cat,0.00,0671_nse_s01_0.00_cat_10_n02124075_9591.JPEG
subject-01,1,673,0.687628030776978,knife,knife,0.03,0672_nse_s01_0.03_knife_10_n03041632_3504.JPEG
subject-01,1,674,0.740108966827393,bicycle,bicycle,0.05,0673_nse_s01_0.05_bicycle_10_n02835271_1530.JPEG
subject-01,1,675,0.63040018081665,keyboard,keyboard,0.20,0674_nse_s01_0.20_keyboard_10_n04505470_578.JPEG
subject-01,1,676,0.689095020294189,cat,oven,0.60,0675_nse_s01_0.60_oven_10_n04111531_9429.JPEG
subject-01,1,677,1.30138611793518,airplane,airplane,0.20,0676_nse_s01_0.20_airplane_10_n02690373_9423.JPEG
subject-01,1,678,1.15397477149963,knife,truck,0.90,0677_nse_s01_0.90_truck_10_n03417042_6554.JPEG
subject-01,1,679,1.23662686347961,clock,clock,0.03,0678_nse_s01_0.03_clock_10_n04548280_189.JPEG
subject-01,1,680,0.935544013977051,car,oven,0.10,0679_nse_s01_0.10_oven_10_n04111531_7600.JPEG
subject-01,1,681,0.787827014923096,boat,oven,0.35,0680_nse_s01_0.35_oven_10_n04111531_10583.JPEG
subject-01,1,682,0.770114898681641,elephant,elephant,0.05,0681_nse_s01_0.05_elephant_10_n02504013_13766.JPEG
subject-01,1,683,0.638622999191284,clock,clock,0.10,0682_nse_s01_0.10_clock_10_n04548280_4738.JPEG
subject-01,1,684,0.721182107925415,truck,truck,0.03,0683_nse_s01_0.03_truck_10_n04467665_51949.JPEG
subject-01,1,685,0.83380913734436,car,car,0.05,0684_nse_s01_0.05_car_10_n03100240_17364.JPEG
subject-01,1,686,0.772130966186523,bottle,bird,0.90,0685_nse_s01_0.90_bird_10_n02028035_889.JPEG
subject-01,1,687,0.768671989440918,dog,dog,0.00,0686_nse_s01_0.00_dog_10_n02098105_5905.JPEG
subject-01,1,688,0.905228853225708,knife,knife,0.20,0687_nse_s01_0.20_knife_10_n03041632_10540.JPEG
subject-01,1,689,0.695596933364868,bird,bird,0.03,0688_nse_s01_0.03_bird_10_n01843065_654.JPEG
subject-01,1,690,0.564730167388916,clock,clock,0.20,0689_nse_s01_0.20_clock_10_n02708093_2800.JPEG
subject-01,1,691,1.02326703071594,cat,bicycle,0.60,0690_nse_s01_0.60_bicycle_10_n03792782_1099.JPEG
subject-01,1,692,0.553599834442139,oven,knife,0.60,0691_nse_s01_0.60_knife_10_n03041632_42162.JPEG
subject-01,1,693,1.50026702880859,clock,boat,0.35,0692_nse_s01_0.35_boat_10_n03662601_16418.JPEG
subject-01,1,694,0.511376857757568,boat,boat,0.03,0693_nse_s01_0.03_boat_10_n03344393_7109.JPEG
subject-01,1,695,0.577487945556641,knife,knife,0.05,0694_nse_s01_0.05_knife_10_n03041632_38610.JPEG
subject-01,1,696,0.615944862365723,chair,airplane,0.60,0695_nse_s01_0.60_airplane_10_n02690373_6674.JPEG
subject-01,1,697,0.682209014892578,oven,knife,0.90,0696_nse_s01_0.90_knife_10_n03041632_38535.JPEG
subject-01,1,698,0.773055076599121,car,car,0.03,0697_nse_s01_0.03_car_10_n03100240_2425.JPEG
subject-01,1,699,0.725366115570068,boat,boat,0.00,0698_nse_s01_0.00_boat_10_n02951358_7315.JPEG
subject-01,1,700,0.854169130325317,truck,truck,0.10,0699_nse_s01_0.10_truck_10_n04467665_74008.JPEG
subject-01,1,701,0.568938016891479,cat,cat,0.05,0700_nse_s01_0.05_cat_10_n02125311_6393.JPEG
subject-01,1,702,0.527463912963867,bicycle,bicycle,0.00,0701_nse_s01_0.00_bicycle_10_n02835271_9297.JPEG
subject-01,1,703,0.479906797409058,boat,boat,0.00,0702_nse_s01_0.00_boat_10_n03662601_31508.JPEG
subject-01,1,704,0.67806601524353,cat,oven,0.20,0703_nse_s01_0.20_oven_10_n04111531_4250.JPEG
subject-01,1,705,1.30509805679321,oven,knife,0.05,0704_nse_s01_0.05_knife_10_n03041632_737.JPEG
subject-01,1,706,0.713335037231445,keyboard,keyboard,0.10,0705_nse_s01_0.10_keyboard_10_n04505470_4521.JPEG
subject-01,1,707,0.872386932373047,bottle,bottle,0.20,0706_nse_s01_0.20_bottle_10_n04560804_9981.JPEG
subject-01,1,708,0.816646099090576,airplane,bottle,0.90,0707_nse_s01_0.90_bottle_10_n04557648_907.JPEG
subject-01,1,709,0.983093023300171,oven,keyboard,0.00,0708_nse_s01_0.00_keyboard_10_n03085013_23369.JPEG
subject-01,1,710,0.789435863494873,bottle,bottle,0.60,0709_nse_s01_0.60_bottle_10_n04560804_4624.JPEG
subject-01,1,711,0.617764949798584,cat,cat,0.00,0710_nse_s01_0.00_cat_10_n02124075_4116.JPEG
subject-01,1,712,0.554414987564087,cat,chair,0.60,0711_nse_s01_0.60_chair_10_n02791124_1635.JPEG
subject-01,1,713,1.120934009552,cat,keyboard,0.00,0712_nse_s01_0.00_keyboard_10_n03085013_23289.JPEG
subject-01,1,714,0.513680219650269,cat,cat,0.10,0713_nse_s01_0.10_cat_10_n02124075_15399.JPEG
subject-01,1,715,0.51806116104126,car,car,0.03,0714_nse_s01_0.03_car_10_n03100240_15686.JPEG
subject-01,1,716,1.13277697563171,chair,chair,0.35,0715_nse_s01_0.35_chair_10_n04099969_12909.JPEG
subject-01,1,717,0.877355098724365,dog,dog,0.10,0716_nse_s01_0.10_dog_10_n02105251_5570.JPEG
subject-01,1,718,0.88207221031189,car,keyboard,0.90,0717_nse_s01_0.90_keyboard_10_n03085013_18769.JPEG
subject-01,1,719,0.804196834564209,truck,truck,0.10,0718_nse_s01_0.10_truck_10_n03417042_18348.JPEG
subject-01,1,720,0.632907867431641,cat,bird,0.20,0719_nse_s01_0.20_bird_10_n01797886_551.JPEG
subject-01,1,721,0.561244964599609,bottle,bottle,0.10,0720_nse_s01_0.10_bottle_10_n03983396_10251.JPEG
subject-01,1,722,0.551896095275879,boat,boat,0.05,0721_nse_s01_0.05_boat_10_n03662601_5176.JPEG
subject-01,1,723,1.50012898445129,oven,bird,0.60,0722_nse_s01_0.60_bird_10_n02011460_2611.JPEG
subject-01,1,724,0.838949918746948,elephant,bear,0.35,0723_nse_s01_0.35_bear_10_n02133161_1205.JPEG
subject-01,1,725,0.807445049285889,bird,bird,0.35,0724_nse_s01_0.35_bird_10_n01534433_12864.JPEG
subject-01,1,726,0.774217128753662,boat,boat,0.60,0725_nse_s01_0.60_boat_10_n03662601_6625.JPEG
subject-01,1,727,0.496624946594238,cat,dog,0.60,0726_nse_s01_0.60_dog_10_n02097658_1923.JPEG
subject-01,1,728,0.524983167648315,cat,bottle,0.90,0727_nse_s01_0.90_bottle_10_n04560804_10541.JPEG
subject-01,1,729,0.52349591255188,boat,boat,0.35,0728_nse_s01_0.35_boat_10_n03662601_7352.JPEG
subject-01,1,730,1.04415822029114,oven,oven,0.03,0729_nse_s01_0.03_oven_10_n04111531_6415.JPEG
subject-01,1,731,0.7972731590271,truck,truck,0.20,0730_nse_s01_0.20_truck_10_n03796401_16046.JPEG
subject-01,1,732,1.26368594169617,cat,cat,0.35,0731_nse_s01_0.35_cat_10_n02123159_6439.JPEG
subject-01,1,733,1.32997703552246,chair,truck,0.35,0732_nse_s01_0.35_truck_10_n04467665_44715.JPEG
subject-01,1,734,0.868322849273682,cat,cat,0.10,0733_nse_s01_0.10_cat_10_n02123159_3472.JPEG
subject-01,1,735,1.48097491264343,dog,dog,0.03,0734_nse_s01_0.03_dog_10_n02094114_1589.JPEG
subject-01,1,736,1.293377161026,keyboard,keyboard,0.20,0735_nse_s01_0.20_keyboard_10_n04505470_4684.JPEG
subject-01,1,737,1.50026798248291,boat,car,0.60,0736_nse_s01_0.60_car_10_n04285008_6951.JPEG
subject-01,1,738,1.45286798477173,airplane,airplane,0.90,0737_nse_s01_0.90_airplane_10_n02690373_17011.JPEG
subject-01,1,739,1.48135805130005,oven,car,0.90,0738_nse_s01_0.90_car_10_n02814533_72079.JPEG
subject-01,1,740,0.741636037826538,airplane,bird,0.20,0739_nse_s01_0.20_bird_10_n02011460_13026.JPEG
subject-01,1,741,0.846271991729736,car,car,0.20,0740_nse_s01_0.20_car_10_n02814533_211.JPEG
subject-01,1,742,0.982950925827026,chair,chair,0.05,0741_nse_s01_0.05_chair_10_n04099969_5242.JPEG
subject-01,1,743,1.08162784576416,chair,chair,0.00,0742_nse_s01_0.00_chair_10_n03376595_9139.JPEG
subject-01,1,744,1.24004292488098,car,car,0.60,0743_nse_s01_0.60_car_10_n04285008_12501.JPEG
subject-01,1,745,1.19250512123108,oven,cat,0.90,0744_nse_s01_0.90_cat_10_n02124075_7020.JPEG
subject-01,1,746,1.1209352016449,cat,truck,0.60,0745_nse_s01_0.60_truck_10_n04467665_34932.JPEG
subject-01,1,747,0.559656858444214,clock,clock,0.03,0746_nse_s01_0.03_clock_10_n02708093_8100.JPEG
subject-01,1,748,0.79599404335022,keyboard,airplane,0.00,0747_nse_s01_0.00_airplane_10_n02690373_10455.JPEG
subject-01,1,749,1.17671895027161,oven,bird,0.00,0748_nse_s01_0.00_bird_10_n01818515_7370.JPEG
subject-01,1,750,0.653276205062866,cat,boat,0.90,0749_nse_s01_0.90_boat_10_n03344393_771.JPEG
subject-01,1,751,1.27951693534851,knife,knife,0.03,0750_nse_s01_0.03_knife_10_n03041632_50996.JPEG
subject-01,1,752,0.588151931762695,car,car,0.00,0751_nse_s01_0.00_car_10_n03100240_9639.JPEG
subject-01,1,753,0.762602090835571,chair,bottle,0.35,0752_nse_s01_0.35_bottle_10_n04591713_7121.JPEG
subject-01,1,754,1.30501294136047,airplane,airplane,0.10,0753_nse_s01_0.10_airplane_10_n02690373_6096.JPEG
subject-01,1,755,0.565713882446289,airplane,airplane,0.03,0754_nse_s01_0.03_airplane_10_n02690373_6755.JPEG
subject-01,1,756,0.632786989212036,boat,boat,0.03,0755_nse_s01_0.03_boat_10_n03344393_6892.JPEG
subject-01,1,757,0.554769039154053,oven,bear,0.90,0756_nse_s01_0.90_bear_10_n02134418_4893.JPEG
subject-01,1,758,0.545191049575806,clock,clock,0.00,0757_nse_s01_0.00_clock_10_n02708093_1038.JPEG
subject-01,1,759,0.628226041793823,oven,bird,0.90,0758_nse_s01_0.90_bird_10_n01530575_310.JPEG
subject-01,1,760,0.756757974624634,boat,airplane,0.60,0759_nse_s01_0.60_airplane_10_n02690373_9001.JPEG
subject-01,1,761,0.839169979095459,keyboard,keyboard,0.10,0760_nse_s01_0.10_keyboard_10_n04505470_6876.JPEG
subject-01,1,762,0.889664888381958,car,car,0.20,0761_nse_s01_0.20_car_10_n02814533_5430.JPEG
subject-01,1,763,0.896289825439453,elephant,elephant,0.00,0762_nse_s01_0.00_elephant_10_n02504458_3250.JPEG
subject-01,1,764,0.586648941040039,airplane,oven,0.60,0763_nse_s01_0.60_oven_10_n04111531_22386.JPEG
subject-01,1,765,0.569258213043213,keyboard,keyboard,0.03,0764_nse_s01_0.03_keyboard_10_n03085013_24309.JPEG
subject-01,1,766,0.505699157714844,boat,elephant,0.60,0765_nse_s01_0.60_elephant_10_n02504013_5996.JPEG
subject-01,1,767,0.818197965621948,oven,oven,0.03,0766_nse_s01_0.03_oven_10_n04111531_3671.JPEG
subject-01,1,768,0.830613851547241,car,car,0.10,0767_nse_s01_0.10_car_10_n03100240_4071.JPEG
subject-01,1,769,0.767863988876343,boat,boat,0.03,0768_nse_s01_0.03_boat_10_n04273569_4348.JPEG
subject-01,1,770,1.2103099822998,truck,truck,0.20,0769_nse_s01_0.20_truck_10_n03417042_17916.JPEG
subject-01,1,771,0.69465708732605,airplane,airplane,0.00,0770_nse_s01_0.00_airplane_10_n02690373_17722.JPEG
subject-01,1,772,1.24498319625854,airplane,airplane,0.60,0771_nse_s01_0.60_airplane_10_n02690373_9605.JPEG
subject-01,1,773,1.28961300849915,clock,clock,0.35,0772_nse_s01_0.35_clock_10_n02708093_4415.JPEG
subject-01,1,774,0.611963033676147,clock,clock,0.10,0773_nse_s01_0.10_clock_10_n04548280_9426.JPEG
subject-01,1,775,0.616716146469116,boat,boat,0.03,0774_nse_s01_0.03_boat_10_n02951358_512.JPEG
subject-01,1,776,0.584864854812622,cat,bear,0.60,0775_nse_s01_0.60_bear_10_n02133161_97.JPEG
subject-01,1,777,0.605411052703857,bottle,bottle,0.05,0776_nse_s01_0.05_bottle_10_n04591713_7010.JPEG
subject-01,1,778,0.487852096557617,boat,oven,0.00,0777_nse_s01_0.00_oven_10_n04111531_11026.JPEG
subject-01,1,779,0.632724046707153,cat,chair,0.00,0778_nse_s01_0.00_chair_10_n04429376_6915.JPEG
subject-01,1,780,0.577616930007935,airplane,airplane,0.35,0779_nse_s01_0.35_airplane_10_n02690373_2313.JPEG
subject-01,1,781,0.505934000015259,oven,elephant,0.60,0780_nse_s01_0.60_elephant_10_n02504013_1132.JPEG
subject-01,1,782,0.574371099472046,cat,knife,0.05,0781_nse_s01_0.05_knife_10_n03041632_33255.JPEG
subject-01,1,783,0.57869815826416,airplane,airplane,0.05,0782_nse_s01_0.05_airplane_10_n02690373_4706.JPEG
subject-01,1,784,0.493175983428955,clock,clock,0.10,0783_nse_s01_0.10_clock_10_n04548280_8668.JPEG
subject-01,1,785,1.09785389900208,oven,chair,0.20,0784_nse_s01_0.20_chair_10_n02791124_206.JPEG
subject-01,1,786,0.628798007965088,clock,bottle,0.05,0785_nse_s01_0.05_bottle_10_n02823428_6263.JPEG
subject-01,1,787,0.687026977539062,clock,bird,0.60,0786_nse_s01_0.60_bird_10_n01530575_280.JPEG
subject-01,1,788,0.761642932891846,bottle,bottle,0.03,0787_nse_s01_0.03_bottle_10_n04560804_11426.JPEG
subject-01,1,789,0.68402099609375,knife,knife,0.20,0788_nse_s01_0.20_knife_10_n03041632_18995.JPEG
subject-01,1,790,0.674422025680542,car,car,0.03,0789_nse_s01_0.03_car_10_n03100240_15979.JPEG
subject-01,1,791,0.524986982345581,oven,dog,0.90,0790_nse_s01_0.90_dog_10_n02093754_5736.JPEG
subject-01,1,792,0.653617143630981,oven,truck,0.90,0791_nse_s01_0.90_truck_10_n04467665_61522.JPEG
subject-01,1,793,0.61460018157959,car,car,0.10,0792_nse_s01_0.10_car_10_n04285008_7776.JPEG
subject-01,1,794,0.673086166381836,cat,bear,0.60,0793_nse_s01_0.60_bear_10_n02134084_33483.JPEG
subject-01,1,795,0.617516040802002,bottle,dog,0.20,0794_nse_s01_0.20_dog_10_n02100236_4048.JPEG
subject-01,1,796,0.976032018661499,truck,boat,0.20,0795_nse_s01_0.20_boat_10_n03662601_5529.JPEG
subject-01,1,797,0.552350997924805,cat,elephant,0.90,0796_nse_s01_0.90_elephant_10_n02504013_1125.JPEG
subject-01,1,798,0.656964063644409,elephant,elephant,0.05,0797_nse_s01_0.05_elephant_10_n02504013_9144.JPEG
subject-01,1,799,0.931691884994507,cat,cat,0.05,0798_nse_s01_0.05_cat_10_n02123394_7223.JPEG
subject-01,1,800,0.499910116195679,oven,airplane,0.90,0799_nse_s01_0.90_airplane_10_n02690373_2026.JPEG
subject-01,1,801,0.70499587059021,airplane,boat,0.35,0800_nse_s01_0.35_boat_10_n04273569_4418.JPEG
subject-01,1,802,0.557126045227051,bottle,bottle,0.05,0801_nse_s01_0.05_bottle_10_n03983396_3185.JPEG
subject-01,1,803,0.793988943099976,cat,bear,0.60,0802_nse_s01_0.60_bear_10_n02133161_5637.JPEG
subject-01,1,804,0.568589925765991,bird,elephant,0.90,0803_nse_s01_0.90_elephant_10_n02504458_9213.JPEG
subject-01,1,805,0.488903045654297,car,cat,0.90,0804_nse_s01_0.90_cat_10_n02123045_13151.JPEG
subject-01,1,806,0.82546591758728,chair,chair,0.20,0805_nse_s01_0.20_chair_10_n03376595_9900.JPEG
subject-01,1,807,0.554195165634155,bottle,bottle,0.05,0806_nse_s01_0.05_bottle_10_n03983396_23516.JPEG
subject-01,1,808,0.69838809967041,bear,bear,0.03,0807_nse_s01_0.03_bear_10_n02134418_1081.JPEG
subject-01,1,809,1.01111698150635,cat,cat,0.20,0808_nse_s01_0.20_cat_10_n02123045_7167.JPEG
subject-01,1,810,0.771397113800049,bicycle,bicycle,0.03,0809_nse_s01_0.03_bicycle_10_n03792782_2649.JPEG
subject-01,1,811,0.984328031539917,car,truck,0.00,0810_nse_s01_0.00_truck_10_n04467665_30023.JPEG
subject-01,1,812,1.29647183418274,car,bicycle,0.00,0811_nse_s01_0.00_bicycle_10_n03792782_2024.JPEG
subject-01,1,813,0.688874006271362,elephant,bear,0.20,0812_nse_s01_0.20_bear_10_n02132136_17615.JPEG
subject-01,1,814,0.839378118515015,elephant,bear,0.20,0813_nse_s01_0.20_bear_10_n02134418_289.JPEG
subject-01,1,815,0.829999923706055,chair,cat,0.60,0814_nse_s01_0.60_cat_10_n02124075_12176.JPEG
subject-01,1,816,0.958930015563965,car,car,0.00,0815_nse_s01_0.00_car_10_n04285008_10905.JPEG
subject-01,1,817,0.719660043716431,boat,boat,0.00,0816_nse_s01_0.00_boat_10_n04612504_30617.JPEG
subject-01,1,818,1.32366490364075,dog,dog,0.00,0817_nse_s01_0.00_dog_10_n02107574_835.JPEG
subject-01,1,819,0.760200977325439,car,truck,0.60,0818_nse_s01_0.60_truck_10_n03796401_6184.JPEG
subject-01,1,820,0.675071954727173,bottle,bottle,0.00,0819_nse_s01_0.00_bottle_10_n04591713_2808.JPEG
subject-01,1,821,0.847213983535767,bicycle,bicycle,0.10,0820_nse_s01_0.10_bicycle_10_n02835271_25417.JPEG
subject-01,1,822,0.585805892944336,cat,bird,0.20,0821_nse_s01_0.20_bird_10_n02033041_17119.JPEG
subject-01,1,823,1.02890491485596,boat,boat,0.35,0822_nse_s01_0.35_boat_10_n04273569_12536.JPEG
subject-01,1,824,0.941119909286499,dog,bear,0.20,0823_nse_s01_0.20_bear_10_n02133161_1427.JPEG
subject-01,1,825,0.955564975738525,oven,oven,0.10,0824_nse_s01_0.10_oven_10_n04111531_16198.JPEG
subject-01,1,826,0.990185022354126,dog,dog,0.05,0825_nse_s01_0.05_dog_10_n02086646_4881.JPEG
subject-01,1,827,0.774662971496582,oven,oven,0.00,0826_nse_s01_0.00_oven_10_n04111531_9611.JPEG
subject-01,1,828,0.825341939926147,dog,cat,0.35,0827_nse_s01_0.35_cat_10_n02123394_6376.JPEG
subject-01,1,829,0.661484003067017,keyboard,car,0.90,0828_nse_s01_0.90_car_10_n02814533_27929.JPEG
subject-01,1,830,0.530061006546021,oven,oven,0.10,0829_nse_s01_0.10_oven_10_n04111531_538.JPEG
subject-01,1,831,0.604468822479248,oven,clock,0.03,0830_nse_s01_0.03_clock_10_n03196217_7637.JPEG
subject-01,1,832,0.48724889755249,keyboard,keyboard,0.35,0831_nse_s01_0.35_keyboard_10_n03085013_24467.JPEG
subject-01,1,833,0.486199855804443,car,car,0.05,0832_nse_s01_0.05_car_10_n03100240_9000.JPEG
subject-01,1,834,0.614586114883423,car,car,0.03,0833_nse_s01_0.03_car_10_n03100240_8683.JPEG
subject-01,1,835,0.918787956237793,car,car,0.10,0834_nse_s01_0.10_car_10_n03100240_17874.JPEG
subject-01,1,836,0.549594879150391,cat,bird,0.60,0835_nse_s01_0.60_bird_10_n01828970_454.JPEG
subject-01,1,837,0.478075981140137,dog,dog,0.10,0836_nse_s01_0.10_dog_10_n02102177_4771.JPEG
subject-01,1,838,0.476612091064453,boat,boat,0.05,0837_nse_s01_0.05_boat_10_n02951358_34116.JPEG
subject-01,1,839,1.04335403442383,car,car,0.10,0838_nse_s01_0.10_car_10_n03100240_4594.JPEG
subject-01,1,840,1.30997395515442,bear,bicycle,0.90,0839_nse_s01_0.90_bicycle_10_n02835271_9116.JPEG
subject-01,1,841,0.694416046142578,clock,clock,0.03,0840_nse_s01_0.03_clock_10_n02708093_3213.JPEG
subject-01,1,842,0.906819820404053,bicycle,bicycle,0.20,0841_nse_s01_0.20_bicycle_10_n03792782_31101.JPEG
subject-01,1,843,0.949293851852417,oven,cat,0.60,0842_nse_s01_0.60_cat_10_n02125311_3616.JPEG
subject-01,1,844,0.695657968521118,boat,boat,0.00,0843_nse_s01_0.00_boat_10_n04612504_20067.JPEG
subject-01,1,845,1.01641416549683,bird,bird,0.60,0844_nse_s01_0.60_bird_10_n01843065_1871.JPEG
subject-01,1,846,0.66919207572937,boat,boat,0.03,0845_nse_s01_0.03_boat_10_n03344393_8545.JPEG
subject-01,1,847,1.019700050354,chair,chair,0.00,0846_nse_s01_0.00_chair_10_n03376595_6012.JPEG
subject-01,1,848,0.840182065963745,clock,knife,0.10,0847_nse_s01_0.10_knife_10_n03041632_31849.JPEG
subject-01,1,849,0.516499042510986,cat,bicycle,0.90,0848_nse_s01_0.90_bicycle_10_n02835271_542.JPEG
subject-01,1,850,0.744925022125244,airplane,airplane,0.35,0849_nse_s01_0.35_airplane_10_n02690373_6491.JPEG
subject-01,1,851,0.917623996734619,clock,chair,0.10,0850_nse_s01_0.10_chair_10_n02791124_7335.JPEG
subject-01,1,852,0.594062089920044,boat,bird,0.35,0851_nse_s01_0.35_bird_10_n02018795_248.JPEG
subject-01,1,853,0.638618946075439,airplane,airplane,0.00,0852_nse_s01_0.00_airplane_10_n02690373_5967.JPEG
subject-01,1,854,0.689213991165161,cat,truck,0.35,0853_nse_s01_0.35_truck_10_n03796401_2551.JPEG
subject-01,1,855,0.917407989501953,airplane,clock,0.20,0854_nse_s01_0.20_clock_10_n03196217_4486.JPEG
subject-01,1,856,0.962728977203369,elephant,elephant,0.20,0855_nse_s01_0.20_elephant_10_n02504458_975.JPEG
subject-01,1,857,0.798350095748901,cat,dog,0.60,0856_nse_s01_0.60_dog_10_n02107683_3902.JPEG
subject-01,1,858,0.82731294631958,bicycle,bicycle,0.03,0857_nse_s01_0.03_bicycle_10_n02835271_3135.JPEG
subject-01,1,859,0.509855985641479,boat,boat,0.05,0858_nse_s01_0.05_boat_10_n03662601_10811.JPEG
subject-01,1,860,0.808700084686279,bear,bear,0.10,0859_nse_s01_0.10_bear_10_n02134418_4349.JPEG
subject-01,1,861,0.54506516456604,oven,bicycle,0.90,0860_nse_s01_0.90_bicycle_10_n03792782_16558.JPEG
subject-01,1,862,0.681889057159424,truck,truck,0.03,0861_nse_s01_0.03_truck_10_n04467665_2098.JPEG
subject-01,1,863,0.464366912841797,clock,clock,0.20,0862_nse_s01_0.20_clock_10_n04548280_8649.JPEG
subject-01,1,864,1.06918501853943,dog,dog,0.05,0863_nse_s01_0.05_dog_10_n02091635_8296.JPEG
subject-01,1,865,0.605294942855835,clock,clock,0.35,0864_nse_s01_0.35_clock_10_n04548280_4113.JPEG
subject-01,1,866,1.04197716712952,dog,dog,0.00,0865_nse_s01_0.00_dog_10_n02107683_6800.JPEG
subject-01,1,867,0.95428204536438,oven,keyboard,0.05,0866_nse_s01_0.05_keyboard_10_n04505470_4628.JPEG
subject-01,1,868,0.728586196899414,clock,clock,0.60,0867_nse_s01_0.60_clock_10_n02708093_6672.JPEG
subject-01,1,869,1.0649778842926,bottle,knife,0.05,0868_nse_s01_0.05_knife_10_n03041632_19098.JPEG
subject-01,1,870,0.625926971435547,truck,truck,0.00,0869_nse_s01_0.00_truck_10_n04467665_3502.JPEG
subject-01,1,871,0.584489107131958,oven,oven,0.05,0870_nse_s01_0.05_oven_10_n04111531_7741.JPEG
subject-01,1,872,0.712993860244751,chair,chair,0.00,0871_nse_s01_0.00_chair_10_n03376595_11352.JPEG
subject-01,1,873,0.757544040679932,oven,oven,0.60,0872_nse_s01_0.60_oven_10_n04111531_9915.JPEG
subject-01,1,874,0.686133146286011,cat,cat,0.90,0873_nse_s01_0.90_cat_10_n02124075_1183.JPEG
subject-01,1,875,0.614650964736938,oven,oven,0.00,0874_nse_s01_0.00_oven_10_n04111531_6313.JPEG
subject-01,1,876,0.635440826416016,clock,clock,0.05,0875_nse_s01_0.05_clock_10_n02708093_6624.JPEG
subject-01,1,877,1.04780411720276,chair,chair,0.05,0876_nse_s01_0.05_chair_10_n02791124_7142.JPEG
subject-01,1,878,1.02806401252747,chair,chair,0.05,0877_nse_s01_0.05_chair_10_n04099969_2532.JPEG
subject-01,1,879,0.788915872573853,oven,truck,0.00,0878_nse_s01_0.00_truck_10_n03417042_5105.JPEG
subject-01,1,880,0.725263118743896,clock,dog,0.90,0879_nse_s01_0.90_dog_10_n02109047_6542.JPEG
subject-01,1,881,0.631756067276001,boat,boat,0.20,0880_nse_s01_0.20_boat_10_n04273569_22495.JPEG
subject-01,1,882,1.44260501861572,bicycle,bicycle,0.05,0881_nse_s01_0.05_bicycle_10_n03792782_13923.JPEG
subject-01,1,883,1.02510690689087,elephant,elephant,0.35,0882_nse_s01_0.35_elephant_10_n02504013_945.JPEG
subject-01,1,884,0.601757049560547,dog,dog,0.00,0883_nse_s01_0.00_dog_10_n02107683_7021.JPEG
subject-01,1,885,0.713916063308716,knife,knife,0.00,0884_nse_s01_0.00_knife_10_n03041632_289.JPEG
subject-01,1,886,0.888556957244873,bicycle,bicycle,0.05,0885_nse_s01_0.05_bicycle_10_n03792782_11034.JPEG
subject-01,1,887,1.06288599967957,clock,bird,0.90,0886_nse_s01_0.90_bird_10_n01843383_4896.JPEG
subject-01,1,888,0.869478940963745,bicycle,bicycle,0.20,0887_nse_s01_0.20_bicycle_10_n02835271_9669.JPEG
subject-01,1,889,1.08814907073975,elephant,bottle,0.60,0888_nse_s01_0.60_bottle_10_n04560804_30885.JPEG
subject-01,1,890,0.580686807632446,clock,cat,0.60,0889_nse_s01_0.60_cat_10_n02123159_6596.JPEG
subject-01,1,891,0.939234972000122,elephant,keyboard,0.60,0890_nse_s01_0.60_keyboard_10_n03085013_19374.JPEG
subject-01,1,892,0.659847021102905,airplane,cat,0.90,0891_nse_s01_0.90_cat_10_n02123045_3648.JPEG
subject-01,1,893,0.720426082611084,bottle,bottle,0.35,0892_nse_s01_0.35_bottle_10_n03983396_11434.JPEG
subject-01,1,894,0.586979150772095,bottle,bottle,0.03,0893_nse_s01_0.03_bottle_10_n03937543_1602.JPEG
subject-01,1,895,0.869255065917969,cat,bicycle,0.35,0894_nse_s01_0.35_bicycle_10_n02835271_845.JPEG
subject-01,1,896,0.613900184631348,airplane,airplane,0.00,0895_nse_s01_0.00_airplane_10_n02690373_563.JPEG
subject-01,1,897,0.488704204559326,bottle,bottle,0.03,0896_nse_s01_0.03_bottle_10_n04557648_12671.JPEG
subject-01,1,898,0.755200147628784,truck,truck,0.05,0897_nse_s01_0.05_truck_10_n04467665_3612.JPEG
subject-01,1,899,1.05987095832825,cat,cat,0.60,0898_nse_s01_0.60_cat_10_n02124075_9939.JPEG
subject-01,1,900,0.6284019947052,car,car,0.35,0899_nse_s01_0.35_car_10_n02814533_16978.JPEG
subject-01,1,901,0.686794996261597,airplane,oven,0.60,0900_nse_s01_0.60_oven_10_n04111531_6695.JPEG
subject-01,1,902,0.693172931671143,bottle,oven,0.03,0901_nse_s01_0.03_oven_10_n04111531_164.JPEG
subject-01,1,903,0.700855016708374,boat,oven,0.90,0902_nse_s01_0.90_oven_10_n04111531_22916.JPEG
subject-01,1,904,0.743615865707397,airplane,cat,0.90,0903_nse_s01_0.90_cat_10_n02124075_6024.JPEG
subject-01,1,905,0.741880178451538,elephant,elephant,0.20,0904_nse_s01_0.20_elephant_10_n02504013_8522.JPEG
subject-01,1,906,0.554751873016357,cat,clock,0.60,0905_nse_s01_0.60_clock_10_n03196217_3362.JPEG
subject-01,1,907,0.875256061553955,bicycle,oven,0.90,0906_nse_s01_0.90_oven_10_n04111531_845.JPEG
subject-01,1,908,0.820059061050415,knife,knife,0.03,0907_nse_s01_0.03_knife_10_n03041632_29580.JPEG
subject-01,1,909,0.51081919670105,bottle,bottle,0.00,0908_nse_s01_0.00_bottle_10_n04557648_5627.JPEG
subject-01,1,910,0.885178089141846,keyboard,keyboard,0.05,0909_nse_s01_0.05_keyboard_10_n03085013_24577.JPEG
subject-01,1,911,1.12194013595581,elephant,dog,0.60,0910_nse_s01_0.60_dog_10_n02107574_3685.JPEG
subject-01,1,912,0.864281892776489,bear,bear,0.20,0911_nse_s01_0.20_bear_10_n02133161_9463.JPEG
subject-01,1,913,0.686896085739136,elephant,oven,0.20,0912_nse_s01_0.20_oven_10_n04111531_1330.JPEG
subject-01,1,914,0.799449920654297,knife,knife,0.03,0913_nse_s01_0.03_knife_10_n03041632_18141.JPEG
subject-01,1,915,0.858021020889282,bear,boat,0.10,0914_nse_s01_0.10_boat_10_n04273569_11940.JPEG
subject-01,1,916,0.418530941009521,cat,dog,0.90,0915_nse_s01_0.90_dog_10_n02110958_8971.JPEG
subject-01,1,917,1.15297603607178,knife,knife,0.10,0916_nse_s01_0.10_knife_10_n03041632_29862.JPEG
subject-01,1,918,0.77574610710144,cat,knife,0.20,0917_nse_s01_0.20_knife_10_n03041632_7448.JPEG
subject-01,1,919,0.872292041778564,airplane,airplane,0.03,0918_nse_s01_0.03_airplane_10_n02690373_5845.JPEG
subject-01,1,920,0.532711029052734,boat,boat,0.05,0919_nse_s01_0.05_boat_10_n04273569_15138.JPEG
subject-01,1,921,0.545240879058838,oven,airplane,0.90,0920_nse_s01_0.90_airplane_10_n02690373_5328.JPEG
subject-01,1,922,1.14396119117737,keyboard,chair,0.05,0921_nse_s01_0.05_chair_10_n04429376_14729.JPEG
subject-01,1,923,0.664731979370117,clock,knife,0.60,0922_nse_s01_0.60_knife_10_n03041632_14766.JPEG
subject-01,1,924,0.523027896881104,oven,oven,0.10,0923_nse_s01_0.10_oven_10_n04111531_8009.JPEG
subject-01,1,925,1.05143189430237,bicycle,bicycle,0.00,0924_nse_s01_0.00_bicycle_10_n02835271_8617.JPEG
subject-01,1,926,0.671775817871094,elephant,elephant,0.35,0925_nse_s01_0.35_elephant_10_n02504458_4811.JPEG
subject-01,1,927,0.592713832855225,car,car,0.03,0926_nse_s01_0.03_car_10_n04285008_6849.JPEG
subject-01,1,928,0.545176029205322,oven,keyboard,0.20,0927_nse_s01_0.20_keyboard_10_n04505470_7946.JPEG
subject-01,1,929,0.787717819213867,keyboard,boat,0.90,0928_nse_s01_0.90_boat_10_n03662601_20381.JPEG
subject-01,1,930,1.36810493469238,dog,boat,0.35,0929_nse_s01_0.35_boat_10_n02951358_10003.JPEG
subject-01,1,931,1.18050312995911,elephant,dog,0.90,0930_nse_s01_0.90_dog_10_n02109525_13812.JPEG
subject-01,1,932,1.50020694732666,cat,chair,0.90,0931_nse_s01_0.90_chair_10_n02791124_8788.JPEG
subject-01,1,933,0.647558927536011,bear,truck,0.90,0932_nse_s01_0.90_truck_10_n03417042_12908.JPEG
subject-01,1,934,0.676208019256592,elephant,elephant,0.03,0933_nse_s01_0.03_elephant_10_n02504458_7822.JPEG
subject-01,1,935,1.50008702278137,car,car,0.10,0934_nse_s01_0.10_car_10_n04285008_7249.JPEG
subject-01,1,936,0.93120002746582,airplane,airplane,0.10,0935_nse_s01_0.10_airplane_10_n02690373_2579.JPEG
subject-01,1,937,0.575716018676758,chair,chair,0.10,0936_nse_s01_0.10_chair_10_n04099969_8647.JPEG
subject-01,1,938,0.86456298828125,bird,bird,0.05,0937_nse_s01_0.05_bird_10_n02006656_10360.JPEG
subject-01,1,939,0.73334002494812,truck,truck,0.05,0938_nse_s01_0.05_truck_10_n03417042_7187.JPEG
subject-01,1,940,0.623717069625854,airplane,airplane,0.00,0939_nse_s01_0.00_airplane_10_n02690373_1381.JPEG
subject-01,1,941,1.03414702415466,bird,bird,0.20,0940_nse_s01_0.20_bird_10_n02007558_5877.JPEG
subject-01,1,942,0.586671113967896,clock,clock,0.10,0941_nse_s01_0.10_clock_10_n04548280_7839.JPEG
subject-01,1,943,0.509246110916138,keyboard,keyboard,0.03,0942_nse_s01_0.03_keyboard_10_n03085013_20877.JPEG
subject-01,1,944,0.805596828460693,oven,knife,0.35,0943_nse_s01_0.35_knife_10_n03041632_36390.JPEG
subject-01,1,945,0.742150068283081,truck,truck,0.00,0944_nse_s01_0.00_truck_10_n03417042_943.JPEG
subject-01,1,946,1.25254392623901,airplane,boat,0.20,0945_nse_s01_0.20_boat_10_n03344393_9106.JPEG
subject-01,1,947,0.759377956390381,bird,bird,0.05,0946_nse_s01_0.05_bird_10_n02033041_6728.JPEG
subject-01,1,948,0.747851848602295,chair,chair,0.05,0947_nse_s01_0.05_chair_10_n04099969_2694.JPEG
subject-01,1,949,0.900421142578125,bird,bird,0.10,0948_nse_s01_0.10_bird_10_n02051845_33968.JPEG
subject-01,1,950,0.737137079238892,clock,clock,0.35,0949_nse_s01_0.35_clock_10_n03196217_3333.JPEG
subject-01,1,951,0.957618951797485,car,car,0.20,0950_nse_s01_0.20_car_10_n03100240_15070.JPEG
subject-01,1,952,0.616024017333984,bicycle,bicycle,0.10,0951_nse_s01_0.10_bicycle_10_n03792782_10146.JPEG
subject-01,1,953,0.552587985992432,cat,bottle,0.20,0952_nse_s01_0.20_bottle_10_n04591713_5569.JPEG
subject-01,1,954,0.618959903717041,boat,airplane,0.60,0953_nse_s01_0.60_airplane_10_n02690373_3377.JPEG
subject-01,1,955,0.593333959579468,cat,elephant,0.60,0954_nse_s01_0.60_elephant_10_n02504458_4776.JPEG
subject-01,1,956,0.692490100860596,boat,boat,0.03,0955_nse_s01_0.03_boat_10_n03662601_34009.JPEG
subject-01,1,957,0.772917985916138,bird,bird,0.05,0956_nse_s01_0.05_bird_10_n01828970_11339.JPEG
subject-01,1,958,0.879256010055542,knife,knife,0.35,0957_nse_s01_0.35_knife_10_n03041632_45270.JPEG
subject-01,1,959,0.853872060775757,bottle,bottle,0.20,0958_nse_s01_0.20_bottle_10_n02823428_7570.JPEG
subject-01,1,960,0.760570049285889,oven,bird,0.60,0959_nse_s01_0.60_bird_10_n01560419_10015.JPEG
subject-01,1,961,0.635161876678467,bicycle,bicycle,0.03,0960_nse_s01_0.03_bicycle_10_n03792782_1004.JPEG
subject-01,1,962,0.671718120574951,cat,clock,0.20,0961_nse_s01_0.20_clock_10_n02708093_6795.JPEG
subject-01,1,963,0.768227100372314,bottle,airplane,0.60,0962_nse_s01_0.60_airplane_10_n02690373_6665.JPEG
subject-01,1,964,0.88862419128418,chair,boat,0.35,0963_nse_s01_0.35_boat_10_n03344393_4143.JPEG
subject-01,1,965,0.747167110443115,clock,clock,0.00,0964_nse_s01_0.00_clock_10_n02708093_3591.JPEG
subject-01,1,966,0.815783023834229,truck,truck,0.05,0965_nse_s01_0.05_truck_10_n03796401_30000.JPEG
subject-01,1,967,1.0882740020752,bird,bird,0.20,0966_nse_s01_0.20_bird_10_n02002556_139.JPEG
subject-01,1,968,0.624541997909546,keyboard,keyboard,0.05,0967_nse_s01_0.05_keyboard_10_n03085013_6857.JPEG
subject-01,1,969,1.12092089653015,airplane,airplane,0.20,0968_nse_s01_0.20_airplane_10_n02690373_7229.JPEG
subject-01,1,970,0.906033039093018,truck,truck,0.35,0969_nse_s01_0.35_truck_10_n04467665_47602.JPEG
subject-01,1,971,0.932245969772339,airplane,bicycle,0.60,0970_nse_s01_0.60_bicycle_10_n03792782_15679.JPEG
subject-01,1,972,0.700797080993652,oven,oven,0.60,0971_nse_s01_0.60_oven_10_n04111531_9370.JPEG
subject-01,1,973,0.859502077102661,cat,chair,0.90,0972_nse_s01_0.90_chair_10_n02791124_3186.JPEG
subject-01,1,974,0.517934799194336,clock,clock,0.35,0973_nse_s01_0.35_clock_10_n04548280_6888.JPEG
subject-01,1,975,1.23820209503174,airplane,bird,0.60,0974_nse_s01_0.60_bird_10_n02018207_43958.JPEG
subject-01,1,976,0.753167152404785,airplane,airplane,0.60,0975_nse_s01_0.60_airplane_10_n02690373_5729.JPEG
subject-01,1,977,0.773772001266479,chair,chair,0.20,0976_nse_s01_0.20_chair_10_n02791124_4969.JPEG
subject-01,1,978,1.32201600074768,truck,truck,0.20,0977_nse_s01_0.20_truck_10_n03796401_21490.JPEG
subject-01,1,979,0.568885087966919,knife,knife,0.20,0978_nse_s01_0.20_knife_10_n03041632_36280.JPEG
subject-01,1,980,0.651271104812622,bicycle,bicycle,0.03,0979_nse_s01_0.03_bicycle_10_n02835271_6167.JPEG
subject-01,1,981,1.47578811645508,knife,bear,0.10,0980_nse_s01_0.10_bear_10_n02133161_2476.JPEG
subject-01,1,982,0.784796953201294,bird,bird,0.00,0981_nse_s01_0.00_bird_10_n02009912_31837.JPEG
subject-01,1,983,0.567172050476074,cat,airplane,0.90,0982_nse_s01_0.90_airplane_10_n02690373_1862.JPEG
subject-01,1,984,0.579594850540161,keyboard,keyboard,0.20,0983_nse_s01_0.20_keyboard_10_n04505470_1351.JPEG
subject-01,1,985,0.668101072311401,chair,chair,0.10,0984_nse_s01_0.10_chair_10_n02791124_1217.JPEG
subject-01,1,986,0.590603113174438,elephant,elephant,0.10,0985_nse_s01_0.10_elephant_10_n02504013_1719.JPEG
subject-01,1,987,0.633188009262085,airplane,airplane,0.03,0986_nse_s01_0.03_airplane_10_n02690373_1983.JPEG
subject-01,1,988,0.823580026626587,dog,dog,0.03,0987_nse_s01_0.03_dog_10_n02112350_1654.JPEG
subject-01,1,989,0.727812051773071,knife,knife,0.00,0988_nse_s01_0.00_knife_10_n03041632_38540.JPEG
subject-01,1,990,0.886401891708374,airplane,oven,0.90,0989_nse_s01_0.90_oven_10_n04111531_22466.JPEG
subject-01,1,991,1.1611909866333,bottle,knife,0.10,0990_nse_s01_0.10_knife_10_n03041632_22738.JPEG
subject-01,1,992,0.683614015579224,bicycle,bicycle,0.10,0991_nse_s01_0.10_bicycle_10_n03792782_11921.JPEG
subject-01,1,993,0.550055980682373,cat,knife,0.10,0992_nse_s01_0.10_knife_10_n03041632_90407.JPEG
subject-01,1,994,0.716375112533569,oven,chair,0.60,0993_nse_s01_0.60_chair_10_n03376595_591.JPEG
subject-01,1,995,0.628959894180298,bicycle,bicycle,0.10,0994_nse_s01_0.10_bicycle_10_n03792782_30312.JPEG
subject-01,1,996,1.23373985290527,keyboard,keyboard,0.10,0995_nse_s01_0.10_keyboard_10_n03085013_25476.JPEG
subject-01,1,997,0.724576950073242,boat,boat,0.10,0996_nse_s01_0.10_boat_10_n03344393_5207.JPEG
subject-01,1,998,0.76897406578064,bottle,oven,0.03,0997_nse_s01_0.03_oven_10_n04111531_11669.JPEG
subject-01,1,999,0.619776010513306,oven,bottle,0.90,0998_nse_s01_0.90_bottle_10_n04579145_1117.JPEG
subject-01,1,1000,0.548162937164307,chair,bottle,0.60,0999_nse_s01_0.60_bottle_10_n02823428_3929.JPEG
subject-01,1,1001,1.39878582954407,dog,bear,0.35,1000_nse_s01_0.35_bear_10_n02134418_5073.JPEG
subject-01,1,1002,0.62926983833313,bottle,bottle,0.00,1001_nse_s01_0.00_bottle_10_n04591713_7474.JPEG
subject-01,1,1003,1.05584502220154,cat,truck,0.35,1002_nse_s01_0.35_truck_10_n03417042_23445.JPEG
subject-01,1,1004,0.54016900062561,keyboard,keyboard,0.00,1003_nse_s01_0.00_keyboard_10_n04505470_4682.JPEG
subject-01,1,1005,0.552672147750854,truck,truck,0.03,1004_nse_s01_0.03_truck_10_n03796401_6444.JPEG
subject-01,1,1006,0.741240978240967,airplane,airplane,0.35,1005_nse_s01_0.35_airplane_10_n02690373_8524.JPEG
subject-01,1,1007,0.955926895141602,oven,oven,0.03,1006_nse_s01_0.03_oven_10_n04111531_15718.JPEG
subject-01,1,1008,0.630457878112793,bird,bird,0.10,1007_nse_s01_0.10_bird_10_n02002556_1398.JPEG
subject-01,1,1009,1.327073097229,chair,bottle,0.60,1008_nse_s01_0.60_bottle_10_n04591713_5290.JPEG
