subj,session,trial,rt,object_response,category,condition,imagename
subject-03,1,1,1.50023794174194,boat,boat,0.03,0000_nse_s03_0.03_boat_10_n04612504_1695.JPEG
subject-03,1,2,0.774657011032104,bottle,bottle,0.05,0001_nse_s03_0.05_bottle_10_n02823428_14159.JPEG
subject-03,1,3,0.726963996887207,airplane,airplane,0.00,0002_nse_s03_0.00_airplane_10_n02690373_1800.JPEG
subject-03,1,4,1.1153461933136,dog,dog,0.10,0003_nse_s03_0.10_dog_10_n02101388_10218.JPEG
subject-03,1,5,0.829036951065063,cat,cat,0.20,0004_nse_s03_0.20_cat_10_n02124075_3778.JPEG
subject-03,1,6,0.553772926330566,boat,chair,0.90,0005_nse_s03_0.90_chair_10_n02791124_1962.JPEG
subject-03,1,7,0.757393836975098,keyboard,keyboard,0.35,0006_nse_s03_0.35_keyboard_10_n04505470_6.JPEG
subject-03,1,8,0.763510942459106,oven,oven,0.05,0007_nse_s03_0.05_oven_10_n04111531_14568.JPEG
subject-03,1,9,0.570340871810913,cat,bear,0.05,0008_nse_s03_0.05_bear_10_n02133161_2756.JPEG
subject-03,1,10,0.982450008392334,clock,clock,0.03,0009_nse_s03_0.03_clock_10_n03196217_1172.JPEG
subject-03,1,11,0.593673944473267,clock,oven,0.60,0010_nse_s03_0.60_oven_10_n04111531_4951.JPEG
subject-03,1,12,0.545922994613647,clock,bicycle,0.60,0011_nse_s03_0.60_bicycle_10_n03792782_16212.JPEG
subject-03,1,13,0.625776052474976,clock,truck,0.60,0012_nse_s03_0.60_truck_10_n03796401_7249.JPEG
subject-03,1,14,0.586342096328735,cat,elephant,0.90,0013_nse_s03_0.90_elephant_10_n02504013_22633.JPEG
subject-03,1,15,0.538460969924927,clock,clock,0.00,0014_nse_s03_0.00_clock_10_n02708093_386.JPEG
subject-03,1,16,0.734277963638306,bicycle,bicycle,0.20,0015_nse_s03_0.20_bicycle_10_n03792782_8977.JPEG
subject-03,1,17,1.0870099067688,truck,truck,0.03,0016_nse_s03_0.03_truck_10_n04467665_27899.JPEG
subject-03,1,18,0.705773115158081,clock,clock,0.10,0017_nse_s03_0.10_clock_10_n04548280_5268.JPEG
subject-03,1,19,1.3105800151825,dog,dog,0.00,0018_nse_s03_0.00_dog_10_n02087394_14022.JPEG
subject-03,1,20,0.840723037719727,bird,dog,0.90,0019_nse_s03_0.90_dog_10_n02106166_9937.JPEG
subject-03,1,21,1.24599123001099,clock,clock,0.20,0020_nse_s03_0.20_clock_10_n03196217_1404.JPEG
subject-03,1,22,0.830436944961548,airplane,airplane,0.20,0021_nse_s03_0.20_airplane_10_n02690373_6046.JPEG
subject-03,1,23,0.980566024780273,clock,clock,0.90,0022_nse_s03_0.90_clock_10_n02708093_3591.JPEG
subject-03,1,24,0.761459827423096,oven,bear,0.35,0023_nse_s03_0.35_bear_10_n02134418_4886.JPEG
subject-03,1,25,0.459230184555054,boat,bird,0.90,0024_nse_s03_0.90_bird_10_n01820546_3262.JPEG
subject-03,1,26,0.670921802520752,keyboard,keyboard,0.00,0025_nse_s03_0.00_keyboard_10_n04505470_3553.JPEG
subject-03,1,27,0.667200088500977,chair,oven,0.00,0026_nse_s03_0.00_oven_10_n04111531_8193.JPEG
subject-03,1,28,1.40884399414062,cat,knife,0.03,0027_nse_s03_0.03_knife_10_n03041632_3617.JPEG
subject-03,1,29,0.585275888442993,cat,elephant,0.90,0028_nse_s03_0.90_elephant_10_n02504458_13310.JPEG
subject-03,1,30,0.83440089225769,car,car,0.35,0029_nse_s03_0.35_car_10_n04285008_3538.JPEG
subject-03,1,31,0.849082946777344,car,dog,0.10,0030_nse_s03_0.10_dog_10_n02105251_7056.JPEG
subject-03,1,32,0.698431968688965,cat,cat,0.03,0031_nse_s03_0.03_cat_10_n02123159_4265.JPEG
subject-03,1,33,0.643298149108887,dog,bicycle,0.90,0032_nse_s03_0.90_bicycle_10_n03792782_6804.JPEG
subject-03,1,34,0.841172933578491,elephant,elephant,0.05,0033_nse_s03_0.05_elephant_10_n02504013_4406.JPEG
subject-03,1,35,0.607973098754883,cat,cat,0.60,0034_nse_s03_0.60_cat_10_n02125311_5346.JPEG
subject-03,1,36,0.851289987564087,bird,chair,0.20,0035_nse_s03_0.20_chair_10_n04099969_7718.JPEG
subject-03,1,37,0.818147897720337,bird,cat,0.20,0036_nse_s03_0.20_cat_10_n02123597_8584.JPEG
subject-03,1,38,0.607774019241333,boat,bird,0.60,0037_nse_s03_0.60_bird_10_n01829413_5534.JPEG
subject-03,1,39,0.844184875488281,truck,truck,0.05,0038_nse_s03_0.05_truck_10_n03796401_25181.JPEG
subject-03,1,40,0.772422075271606,bicycle,bicycle,0.03,0039_nse_s03_0.03_bicycle_10_n03792782_72.JPEG
subject-03,1,41,0.654139995574951,cat,knife,0.35,0040_nse_s03_0.35_knife_10_n03041632_50996.JPEG
subject-03,1,42,0.720529079437256,clock,clock,0.10,0041_nse_s03_0.10_clock_10_n03196217_6752.JPEG
subject-03,1,43,0.733070135116577,cat,bottle,0.10,0042_nse_s03_0.10_bottle_10_n04557648_774.JPEG
subject-03,1,44,0.914478063583374,car,car,0.05,0043_nse_s03_0.05_car_10_n02814533_95276.JPEG
subject-03,1,45,0.774372100830078,airplane,airplane,0.00,0044_nse_s03_0.00_airplane_10_n02690373_290.JPEG
subject-03,1,46,0.833059072494507,bird,bear,0.60,0045_nse_s03_0.60_bear_10_n02133161_7996.JPEG
subject-03,1,47,0.761523962020874,keyboard,knife,0.20,0046_nse_s03_0.20_knife_10_n03041632_84048.JPEG
subject-03,1,48,0.642168045043945,cat,cat,0.90,0047_nse_s03_0.90_cat_10_n02125311_12445.JPEG
subject-03,1,49,0.594748020172119,clock,clock,0.35,0048_nse_s03_0.35_clock_10_n03196217_10352.JPEG
subject-03,1,50,0.777391910552979,airplane,cat,0.10,0049_nse_s03_0.10_cat_10_n02123045_8294.JPEG
subject-03,1,51,0.567381143569946,bird,bear,0.10,0050_nse_s03_0.10_bear_10_n02132136_3466.JPEG
subject-03,1,52,0.709707021713257,clock,elephant,0.90,0051_nse_s03_0.90_elephant_10_n02504458_981.JPEG
subject-03,1,53,0.623937129974365,cat,clock,0.90,0052_nse_s03_0.90_clock_10_n02708093_309.JPEG
subject-03,1,54,0.828204870223999,cat,cat,0.20,0053_nse_s03_0.20_cat_10_n02123159_7891.JPEG
subject-03,1,55,0.83423900604248,clock,clock,0.20,0054_nse_s03_0.20_clock_10_n03196217_422.JPEG
subject-03,1,56,0.830448150634766,bicycle,bicycle,0.35,0055_nse_s03_0.35_bicycle_10_n03792782_23535.JPEG
subject-03,1,57,0.683192014694214,bird,bird,0.03,0056_nse_s03_0.03_bird_10_n02011460_6079.JPEG
subject-03,1,58,0.77341103553772,dog,dog,0.03,0057_nse_s03_0.03_dog_10_n02101006_7779.JPEG
subject-03,1,59,0.988045930862427,bird,bird,0.10,0058_nse_s03_0.10_bird_10_n01843065_8025.JPEG
subject-03,1,60,1.14631986618042,elephant,elephant,0.03,0059_nse_s03_0.03_elephant_10_n02504013_1494.JPEG
subject-03,1,61,0.674670219421387,airplane,airplane,0.05,0060_nse_s03_0.05_airplane_10_n02690373_349.JPEG
subject-03,1,62,NaN,na,bottle,0.90,0061_nse_s03_0.90_bottle_10_n04560804_22417.JPEG
subject-03,1,63,1.09250497817993,boat,boat,0.60,0062_nse_s03_0.60_boat_10_n02951358_16196.JPEG
subject-03,1,64,0.642544984817505,boat,boat,0.05,0063_nse_s03_0.05_boat_10_n04612504_14480.JPEG
subject-03,1,65,0.933117151260376,bottle,bottle,0.03,0064_nse_s03_0.03_bottle_10_n04591713_11606.JPEG
subject-03,1,66,0.822755813598633,elephant,elephant,0.00,0065_nse_s03_0.00_elephant_10_n02504458_6185.JPEG
subject-03,1,67,0.897303104400635,bicycle,keyboard,0.20,0066_nse_s03_0.20_keyboard_10_n03085013_22790.JPEG
subject-03,1,68,0.993505001068115,airplane,airplane,0.20,0067_nse_s03_0.20_airplane_10_n02690373_10809.JPEG
subject-03,1,69,1.09158897399902,elephant,elephant,0.20,0068_nse_s03_0.20_elephant_10_n02504458_12938.JPEG
subject-03,1,70,0.90416407585144,elephant,car,0.60,0069_nse_s03_0.60_car_10_n03100240_12747.JPEG
subject-03,1,71,0.926892995834351,dog,dog,0.10,0070_nse_s03_0.10_dog_10_n02097209_2173.JPEG
subject-03,1,72,0.730636835098267,chair,oven,0.10,0071_nse_s03_0.10_oven_10_n04111531_6903.JPEG
subject-03,1,73,0.667026996612549,clock,clock,0.05,0072_nse_s03_0.05_clock_10_n04548280_6467.JPEG
subject-03,1,74,0.881585121154785,dog,bear,0.20,0073_nse_s03_0.20_bear_10_n02134418_11580.JPEG
subject-03,1,75,1.05609083175659,dog,bear,0.03,0074_nse_s03_0.03_bear_10_n02133161_1875.JPEG
subject-03,1,76,0.860543012619019,car,bird,0.20,0075_nse_s03_0.20_bird_10_n02051845_68.JPEG
subject-03,1,77,0.795454978942871,airplane,airplane,0.20,0076_nse_s03_0.20_airplane_10_n02690373_2941.JPEG
subject-03,1,78,0.761931896209717,cat,bear,0.35,0077_nse_s03_0.35_bear_10_n02132136_30195.JPEG
subject-03,1,79,0.94385290145874,car,car,0.10,0078_nse_s03_0.10_car_10_n02814533_73506.JPEG
subject-03,1,80,0.848024129867554,car,car,0.00,0079_nse_s03_0.00_car_10_n02814533_78580.JPEG
subject-03,1,81,0.721827030181885,car,knife,0.35,0080_nse_s03_0.35_knife_10_n03041632_86338.JPEG
subject-03,1,82,0.796412944793701,car,car,0.00,0081_nse_s03_0.00_car_10_n03100240_22466.JPEG
subject-03,1,83,0.853140115737915,boat,chair,0.90,0082_nse_s03_0.90_chair_10_n03376595_2766.JPEG
subject-03,1,84,1.00532484054565,bicycle,bicycle,0.10,0083_nse_s03_0.10_bicycle_10_n02835271_5437.JPEG
subject-03,1,85,0.611732959747314,bottle,bottle,0.10,0084_nse_s03_0.10_bottle_10_n03983396_6389.JPEG
subject-03,1,86,0.694189071655273,cat,cat,0.00,0085_nse_s03_0.00_cat_10_n02124075_7876.JPEG
subject-03,1,87,0.806560039520264,airplane,airplane,0.20,0086_nse_s03_0.20_airplane_10_n02690373_3059.JPEG
subject-03,1,88,0.902687072753906,bottle,bottle,0.60,0087_nse_s03_0.60_bottle_10_n02823428_7992.JPEG
subject-03,1,89,0.792827129364014,bird,elephant,0.10,0088_nse_s03_0.10_elephant_10_n02504013_3640.JPEG
subject-03,1,90,0.745317935943604,bird,elephant,0.60,0089_nse_s03_0.60_elephant_10_n02504013_2536.JPEG
subject-03,1,91,1.05753993988037,airplane,bear,0.03,0090_nse_s03_0.03_bear_10_n02132136_12400.JPEG
subject-03,1,92,0.656049013137817,bird,dog,0.05,0091_nse_s03_0.05_dog_10_n02097047_1366.JPEG
subject-03,1,93,0.608504056930542,clock,clock,0.20,0092_nse_s03_0.20_clock_10_n03196217_3600.JPEG
subject-03,1,94,0.791059970855713,oven,keyboard,0.35,0093_nse_s03_0.35_keyboard_10_n03085013_23929.JPEG
subject-03,1,95,0.543716907501221,bird,bear,0.60,0094_nse_s03_0.60_bear_10_n02132136_527.JPEG
subject-03,1,96,0.97791600227356,oven,chair,0.03,0095_nse_s03_0.03_chair_10_n02791124_5490.JPEG
subject-03,1,97,0.968236923217773,knife,cat,0.60,0096_nse_s03_0.60_cat_10_n02123597_12380.JPEG
subject-03,1,98,1.10368514060974,bottle,knife,0.00,0097_nse_s03_0.00_knife_10_n03041632_15174.JPEG
subject-03,1,99,0.910305023193359,keyboard,keyboard,0.05,0098_nse_s03_0.05_keyboard_10_n04505470_1728.JPEG
subject-03,1,100,0.615054130554199,boat,bird,0.10,0099_nse_s03_0.10_bird_10_n01798484_16481.JPEG
subject-03,1,101,0.683919191360474,cat,oven,0.03,0100_nse_s03_0.03_oven_10_n04111531_19075.JPEG
subject-03,1,102,0.490211963653564,oven,bird,0.60,0101_nse_s03_0.60_bird_10_n01534433_29378.JPEG
subject-03,1,103,0.610950946807861,car,car,0.05,0102_nse_s03_0.05_car_10_n02814533_14754.JPEG
subject-03,1,104,0.563599109649658,clock,clock,0.00,0103_nse_s03_0.00_clock_10_n02708093_1775.JPEG
subject-03,1,105,0.591701030731201,clock,boat,0.60,0104_nse_s03_0.60_boat_10_n04612504_12301.JPEG
subject-03,1,106,0.503802061080933,oven,airplane,0.90,0105_nse_s03_0.90_airplane_10_n02690373_1434.JPEG
subject-03,1,107,0.632228851318359,boat,elephant,0.90,0106_nse_s03_0.90_elephant_10_n02504458_3656.JPEG
subject-03,1,108,0.952707052230835,boat,dog,0.10,0107_nse_s03_0.10_dog_10_n02099601_2368.JPEG
subject-03,1,109,1.01132297515869,airplane,airplane,0.05,0108_nse_s03_0.05_airplane_10_n02690373_852.JPEG
subject-03,1,110,0.877053022384644,chair,chair,0.03,0109_nse_s03_0.03_chair_10_n02791124_1137.JPEG
subject-03,1,111,0.783825874328613,bicycle,bicycle,0.20,0110_nse_s03_0.20_bicycle_10_n02835271_3732.JPEG
subject-03,1,112,0.612030029296875,cat,cat,0.03,0111_nse_s03_0.03_cat_10_n02123394_6521.JPEG
subject-03,1,113,1.03958296775818,dog,elephant,0.20,0112_nse_s03_0.20_elephant_10_n02504458_12365.JPEG
subject-03,1,114,0.691934108734131,clock,cat,0.90,0113_nse_s03_0.90_cat_10_n02123159_8257.JPEG
subject-03,1,115,0.619771957397461,car,car,0.03,0114_nse_s03_0.03_car_10_n03100240_3064.JPEG
subject-03,1,116,0.816073894500732,car,car,0.10,0115_nse_s03_0.10_car_10_n04285008_13211.JPEG
subject-03,1,117,0.760658025741577,bicycle,bicycle,0.10,0116_nse_s03_0.10_bicycle_10_n03792782_8176.JPEG
subject-03,1,118,1.01071095466614,elephant,elephant,0.05,0117_nse_s03_0.05_elephant_10_n02504013_802.JPEG
subject-03,1,119,0.685258865356445,boat,bottle,0.90,0118_nse_s03_0.90_bottle_10_n03937543_3060.JPEG
subject-03,1,120,0.907622098922729,knife,bottle,0.20,0119_nse_s03_0.20_bottle_10_n03983396_12226.JPEG
subject-03,1,121,0.732547044754028,cat,bottle,0.20,0120_nse_s03_0.20_bottle_10_n04557648_3968.JPEG
subject-03,1,122,1.04453206062317,boat,knife,0.60,0121_nse_s03_0.60_knife_10_n03041632_9580.JPEG
subject-03,1,123,0.77307391166687,chair,chair,0.05,0122_nse_s03_0.05_chair_10_n04429376_1954.JPEG
subject-03,1,124,0.571201086044312,boat,bottle,0.90,0123_nse_s03_0.90_bottle_10_n03937543_1812.JPEG
subject-03,1,125,1.16761493682861,dog,bear,0.10,0124_nse_s03_0.10_bear_10_n02134418_2278.JPEG
subject-03,1,126,0.782378911972046,bicycle,bicycle,0.20,0125_nse_s03_0.20_bicycle_10_n03792782_38596.JPEG
subject-03,1,127,0.840313911437988,chair,knife,0.10,0126_nse_s03_0.10_knife_10_n03041632_24541.JPEG
subject-03,1,128,0.66257119178772,bottle,chair,0.05,0127_nse_s03_0.05_chair_10_n02791124_2602.JPEG
subject-03,1,129,0.853025913238525,elephant,elephant,0.03,0128_nse_s03_0.03_elephant_10_n02504458_1000.JPEG
subject-03,1,130,0.889104127883911,bicycle,elephant,0.10,0129_nse_s03_0.10_elephant_10_n02504458_8126.JPEG
subject-03,1,131,0.601789951324463,bird,boat,0.60,0130_nse_s03_0.60_boat_10_n04612504_13783.JPEG
subject-03,1,132,NaN,na,boat,0.05,0131_nse_s03_0.05_boat_10_n03662601_13009.JPEG
subject-03,1,133,0.490748882293701,boat,keyboard,0.60,0132_nse_s03_0.60_keyboard_10_n03085013_24332.JPEG
subject-03,1,134,NaN,na,clock,0.20,0133_nse_s03_0.20_clock_10_n04548280_5170.JPEG
subject-03,1,135,0.739506959915161,airplane,boat,0.03,0134_nse_s03_0.03_boat_10_n02951358_15229.JPEG
subject-03,1,136,0.843900918960571,airplane,airplane,0.20,0135_nse_s03_0.20_airplane_10_n02690373_9869.JPEG
subject-03,1,137,0.596206903457642,keyboard,keyboard,0.05,0136_nse_s03_0.05_keyboard_10_n04505470_8895.JPEG
subject-03,1,138,0.786729097366333,knife,knife,0.60,0137_nse_s03_0.60_knife_10_n03041632_29037.JPEG
subject-03,1,139,0.553155899047852,cat,bear,0.35,0138_nse_s03_0.35_bear_10_n02134418_3419.JPEG
subject-03,1,140,0.697842121124268,chair,oven,0.35,0139_nse_s03_0.35_oven_10_n04111531_17045.JPEG
subject-03,1,141,0.948356151580811,bird,dog,0.10,0140_nse_s03_0.10_dog_10_n02085936_6571.JPEG
subject-03,1,142,0.546368837356567,boat,boat,0.03,0141_nse_s03_0.03_boat_10_n04273569_21025.JPEG
subject-03,1,143,0.514974117279053,boat,knife,0.60,0142_nse_s03_0.60_knife_10_n03041632_19098.JPEG
subject-03,1,144,0.727128982543945,bicycle,bicycle,0.05,0143_nse_s03_0.05_bicycle_10_n03792782_4024.JPEG
subject-03,1,145,0.931952953338623,knife,boat,0.35,0144_nse_s03_0.35_boat_10_n02951358_2537.JPEG
subject-03,1,146,0.708665132522583,bicycle,bird,0.60,0145_nse_s03_0.60_bird_10_n01532829_11107.JPEG
subject-03,1,147,0.896965980529785,bear,elephant,0.35,0146_nse_s03_0.35_elephant_10_n02504013_1669.JPEG
subject-03,1,148,0.665651082992554,clock,clock,0.05,0147_nse_s03_0.05_clock_10_n03196217_1804.JPEG
subject-03,1,149,0.937258005142212,bicycle,truck,0.35,0148_nse_s03_0.35_truck_10_n04467665_30189.JPEG
subject-03,1,150,0.719666004180908,airplane,oven,0.20,0149_nse_s03_0.20_oven_10_n04111531_2342.JPEG
subject-03,1,151,0.815059185028076,bicycle,truck,0.60,0150_nse_s03_0.60_truck_10_n03417042_2062.JPEG
subject-03,1,152,0.658508062362671,chair,chair,0.10,0151_nse_s03_0.10_chair_10_n02791124_1084.JPEG
subject-03,1,153,1.00923109054565,dog,dog,0.05,0152_nse_s03_0.05_dog_10_n02108422_7075.JPEG
subject-03,1,154,0.477343082427979,clock,clock,0.00,0153_nse_s03_0.00_clock_10_n04548280_377.JPEG
subject-03,1,155,0.951908826828003,bird,bird,0.05,0154_nse_s03_0.05_bird_10_n02018207_6876.JPEG
subject-03,1,156,0.769898891448975,bird,chair,0.60,0155_nse_s03_0.60_chair_10_n04429376_5159.JPEG
subject-03,1,157,0.654438018798828,car,cat,0.90,0156_nse_s03_0.90_cat_10_n02123394_3598.JPEG
subject-03,1,158,0.612829923629761,boat,boat,0.10,0157_nse_s03_0.10_boat_10_n03662601_25621.JPEG
subject-03,1,159,0.80883002281189,bird,bird,0.10,0158_nse_s03_0.10_bird_10_n01601694_6825.JPEG
subject-03,1,160,0.803558826446533,bird,boat,0.10,0159_nse_s03_0.10_boat_10_n02951358_31030.JPEG
subject-03,1,161,0.845873117446899,keyboard,oven,0.20,0160_nse_s03_0.20_oven_10_n04111531_887.JPEG
subject-03,1,162,0.706544160842896,oven,oven,0.00,0161_nse_s03_0.00_oven_10_n04111531_4407.JPEG
subject-03,1,163,0.839679002761841,dog,dog,0.20,0162_nse_s03_0.20_dog_10_n02085782_1855.JPEG
subject-03,1,164,0.63811993598938,cat,cat,0.05,0163_nse_s03_0.05_cat_10_n02123597_7016.JPEG
subject-03,1,165,0.996947050094604,bottle,bottle,0.03,0164_nse_s03_0.03_bottle_10_n02823428_2494.JPEG
subject-03,1,166,0.938786029815674,elephant,oven,0.00,0165_nse_s03_0.00_oven_10_n04111531_13906.JPEG
subject-03,1,167,0.644804000854492,bicycle,bicycle,0.03,0166_nse_s03_0.03_bicycle_10_n03792782_12257.JPEG
subject-03,1,168,0.995207071304321,chair,knife,0.10,0167_nse_s03_0.10_knife_10_n03041632_25498.JPEG
subject-03,1,169,0.61803412437439,bicycle,bicycle,0.35,0168_nse_s03_0.35_bicycle_10_n02835271_2714.JPEG
subject-03,1,170,0.613675117492676,bird,bird,0.00,0169_nse_s03_0.00_bird_10_n01616318_5545.JPEG
subject-03,1,171,0.888453960418701,dog,dog,0.05,0170_nse_s03_0.05_dog_10_n02109961_996.JPEG
subject-03,1,172,0.668359041213989,bird,dog,0.35,0171_nse_s03_0.35_dog_10_n02091244_2100.JPEG
subject-03,1,173,0.649960994720459,clock,airplane,0.90,0172_nse_s03_0.90_airplane_10_n02690373_9662.JPEG
subject-03,1,174,1.37563896179199,bird,bird,0.20,0173_nse_s03_0.20_bird_10_n01616318_3461.JPEG
subject-03,1,175,0.818924903869629,car,car,0.20,0174_nse_s03_0.20_car_10_n04285008_5028.JPEG
subject-03,1,176,1.01577115058899,dog,dog,0.35,0175_nse_s03_0.35_dog_10_n02100877_6462.JPEG
subject-03,1,177,1.01399993896484,dog,bear,0.05,0176_nse_s03_0.05_bear_10_n02133161_4012.JPEG
subject-03,1,178,0.666317939758301,keyboard,keyboard,0.00,0177_nse_s03_0.00_keyboard_10_n03085013_3666.JPEG
subject-03,1,179,0.679230928421021,clock,bicycle,0.90,0178_nse_s03_0.90_bicycle_10_n02835271_4313.JPEG
subject-03,1,180,0.861461877822876,knife,chair,0.90,0179_nse_s03_0.90_chair_10_n03376595_1770.JPEG
subject-03,1,181,0.972478151321411,knife,knife,0.35,0180_nse_s03_0.35_knife_10_n03041632_45338.JPEG
subject-03,1,182,0.554875135421753,cat,bottle,0.90,0181_nse_s03_0.90_bottle_10_n03937543_2267.JPEG
subject-03,1,183,0.621026992797852,cat,oven,0.10,0182_nse_s03_0.10_oven_10_n04111531_21733.JPEG
subject-03,1,184,0.625564813613892,car,car,0.10,0183_nse_s03_0.10_car_10_n04285008_7441.JPEG
subject-03,1,185,0.699849128723145,keyboard,keyboard,0.10,0184_nse_s03_0.10_keyboard_10_n04505470_5038.JPEG
subject-03,1,186,0.758261919021606,car,car,0.05,0185_nse_s03_0.05_car_10_n04285008_9588.JPEG
subject-03,1,187,0.954662084579468,keyboard,chair,0.35,0186_nse_s03_0.35_chair_10_n04099969_2916.JPEG
subject-03,1,188,0.706805944442749,bird,bear,0.20,0187_nse_s03_0.20_bear_10_n02134084_7193.JPEG
subject-03,1,189,0.748014211654663,cat,dog,0.90,0188_nse_s03_0.90_dog_10_n02101556_510.JPEG
subject-03,1,190,0.79789400100708,airplane,airplane,0.00,0189_nse_s03_0.00_airplane_10_n02690373_20042.JPEG
subject-03,1,191,0.880297899246216,car,car,0.35,0190_nse_s03_0.35_car_10_n02814533_27484.JPEG
subject-03,1,192,0.645112037658691,airplane,airplane,0.35,0191_nse_s03_0.35_airplane_10_n02690373_10514.JPEG
subject-03,1,193,0.649230003356934,bottle,bottle,0.05,0192_nse_s03_0.05_bottle_10_n04557648_40.JPEG
subject-03,1,194,0.661693096160889,boat,clock,0.90,0193_nse_s03_0.90_clock_10_n02708093_1293.JPEG
subject-03,1,195,0.543925046920776,boat,boat,0.20,0194_nse_s03_0.20_boat_10_n03662601_6725.JPEG
subject-03,1,196,0.786193132400513,car,boat,0.00,0195_nse_s03_0.00_boat_10_n02951358_34653.JPEG
subject-03,1,197,1.22884511947632,boat,boat,0.05,0196_nse_s03_0.05_boat_10_n03662601_4437.JPEG
subject-03,1,198,0.537925004959106,airplane,knife,0.35,0197_nse_s03_0.35_knife_10_n03041632_3210.JPEG
subject-03,1,199,0.704448938369751,airplane,airplane,0.10,0198_nse_s03_0.10_airplane_10_n02690373_21922.JPEG
subject-03,1,200,0.870221138000488,bicycle,bicycle,0.10,0199_nse_s03_0.10_bicycle_10_n03792782_31313.JPEG
subject-03,1,201,1.05027794837952,keyboard,keyboard,0.35,0200_nse_s03_0.35_keyboard_10_n04505470_4732.JPEG
subject-03,1,202,1.06996202468872,elephant,elephant,0.00,0201_nse_s03_0.00_elephant_10_n02504013_4977.JPEG
subject-03,1,203,0.760580062866211,clock,bottle,0.35,0202_nse_s03_0.35_bottle_10_n04557648_9049.JPEG
subject-03,1,204,0.961277961730957,dog,dog,0.10,0203_nse_s03_0.10_dog_10_n02102177_8108.JPEG
subject-03,1,205,0.535547018051147,boat,clock,0.60,0204_nse_s03_0.60_clock_10_n04548280_5482.JPEG
subject-03,1,206,0.772007942199707,dog,dog,0.60,0205_nse_s03_0.60_dog_10_n02109525_72817.JPEG
subject-03,1,207,1.03537201881409,dog,dog,0.10,0206_nse_s03_0.10_dog_10_n02093428_17877.JPEG
subject-03,1,208,0.901896953582764,car,truck,0.35,0207_nse_s03_0.35_truck_10_n03417042_14717.JPEG
subject-03,1,209,0.762596845626831,car,knife,0.90,0208_nse_s03_0.90_knife_10_n03041632_2546.JPEG
subject-03,1,210,0.837157011032104,car,car,0.03,0209_nse_s03_0.03_car_10_n04285008_10899.JPEG
subject-03,1,211,0.6197509765625,boat,truck,0.60,0210_nse_s03_0.60_truck_10_n03417042_8247.JPEG
subject-03,1,212,1.0700421333313,dog,chair,0.60,0211_nse_s03_0.60_chair_10_n02791124_6550.JPEG
subject-03,1,213,0.58196496963501,cat,cat,0.90,0212_nse_s03_0.90_cat_10_n02125311_21237.JPEG
subject-03,1,214,0.940161943435669,keyboard,keyboard,0.03,0213_nse_s03_0.03_keyboard_10_n04505470_3659.JPEG
subject-03,1,215,0.630368947982788,bottle,bottle,0.05,0214_nse_s03_0.05_bottle_10_n02823428_8787.JPEG
subject-03,1,216,0.688325881958008,keyboard,bear,0.05,0215_nse_s03_0.05_bear_10_n02134418_2381.JPEG
subject-03,1,217,0.600291013717651,keyboard,cat,0.35,0216_nse_s03_0.35_cat_10_n02124075_11529.JPEG
subject-03,1,218,0.650353908538818,cat,cat,0.00,0217_nse_s03_0.00_cat_10_n02124075_7075.JPEG
subject-03,1,219,0.802672147750854,airplane,oven,0.00,0218_nse_s03_0.00_oven_10_n04111531_3470.JPEG
subject-03,1,220,0.661481142044067,boat,dog,0.10,0219_nse_s03_0.10_dog_10_n02108915_1855.JPEG
subject-03,1,221,0.559314012527466,cat,dog,0.20,0220_nse_s03_0.20_dog_10_n02093647_8027.JPEG
subject-03,1,222,0.701769828796387,cat,car,0.60,0221_nse_s03_0.60_car_10_n02814533_89061.JPEG
subject-03,1,223,0.921506881713867,airplane,bear,0.20,0222_nse_s03_0.20_bear_10_n02134084_22029.JPEG
subject-03,1,224,0.963459968566895,oven,keyboard,0.10,0223_nse_s03_0.10_keyboard_10_n03085013_19687.JPEG
subject-03,1,225,0.850518941879272,truck,truck,0.35,0224_nse_s03_0.35_truck_10_n03417042_11779.JPEG
subject-03,1,226,0.716747999191284,car,car,0.00,0225_nse_s03_0.00_car_10_n04285008_3005.JPEG
subject-03,1,227,0.59973406791687,cat,cat,0.10,0226_nse_s03_0.10_cat_10_n02123394_5104.JPEG
subject-03,1,228,0.603839159011841,cat,bottle,0.90,0227_nse_s03_0.90_bottle_10_n03983396_2182.JPEG
subject-03,1,229,0.816381931304932,chair,chair,0.00,0228_nse_s03_0.00_chair_10_n04429376_8124.JPEG
subject-03,1,230,0.730955123901367,chair,chair,0.03,0229_nse_s03_0.03_chair_10_n02791124_2972.JPEG
subject-03,1,231,0.99762487411499,boat,boat,0.05,0230_nse_s03_0.05_boat_10_n04273569_12569.JPEG
subject-03,1,232,0.924263000488281,elephant,bear,0.20,0231_nse_s03_0.20_bear_10_n02134084_20875.JPEG
subject-03,1,233,0.584338903427124,cat,cat,0.20,0232_nse_s03_0.20_cat_10_n02123394_8573.JPEG
subject-03,1,234,0.734333038330078,chair,boat,0.10,0233_nse_s03_0.10_boat_10_n03344393_10475.JPEG
subject-03,1,235,0.570772171020508,boat,boat,0.05,0234_nse_s03_0.05_boat_10_n03662601_8216.JPEG
subject-03,1,236,0.753025054931641,elephant,elephant,0.05,0235_nse_s03_0.05_elephant_10_n02504458_1661.JPEG
subject-03,1,237,0.586542129516602,boat,oven,0.20,0236_nse_s03_0.20_oven_10_n04111531_49.JPEG
subject-03,1,238,0.811937093734741,bird,bird,0.00,0237_nse_s03_0.00_bird_10_n01622779_932.JPEG
subject-03,1,239,0.694218158721924,oven,dog,0.20,0238_nse_s03_0.20_dog_10_n02107574_2960.JPEG
subject-03,1,240,0.667856931686401,cat,elephant,0.05,0239_nse_s03_0.05_elephant_10_n02504458_5181.JPEG
subject-03,1,241,0.87766695022583,bottle,bottle,0.10,0240_nse_s03_0.10_bottle_10_n04560804_31095.JPEG
subject-03,1,242,0.660422086715698,car,car,0.03,0241_nse_s03_0.03_car_10_n02814533_27180.JPEG
subject-03,1,243,0.858471155166626,knife,knife,0.10,0242_nse_s03_0.10_knife_10_n03041632_21425.JPEG
subject-03,1,244,0.63278603553772,cat,bicycle,0.90,0243_nse_s03_0.90_bicycle_10_n03792782_25019.JPEG
subject-03,1,245,0.628915071487427,cat,elephant,0.60,0244_nse_s03_0.60_elephant_10_n02504458_8290.JPEG
subject-03,1,246,0.748680830001831,knife,knife,0.05,0245_nse_s03_0.05_knife_10_n03041632_26405.JPEG
subject-03,1,247,0.593168020248413,cat,dog,0.60,0246_nse_s03_0.60_dog_10_n02087394_4846.JPEG
subject-03,1,248,0.666977882385254,bird,bird,0.03,0247_nse_s03_0.03_bird_10_n01534433_1842.JPEG
subject-03,1,249,0.738723993301392,clock,knife,0.60,0248_nse_s03_0.60_knife_10_n03041632_38610.JPEG
subject-03,1,250,0.835283994674683,clock,bear,0.10,0249_nse_s03_0.10_bear_10_n02134084_14888.JPEG
subject-03,1,251,0.733688116073608,cat,elephant,0.05,0250_nse_s03_0.05_elephant_10_n02504013_1879.JPEG
subject-03,1,252,0.82158088684082,truck,truck,0.03,0251_nse_s03_0.03_truck_10_n03417042_12711.JPEG
subject-03,1,253,1.0012469291687,bird,oven,0.90,0252_nse_s03_0.90_oven_10_n04111531_10375.JPEG
subject-03,1,254,0.462064027786255,oven,elephant,0.60,0253_nse_s03_0.60_elephant_10_n02504458_10554.JPEG
subject-03,1,255,0.744475841522217,bird,bird,0.03,0254_nse_s03_0.03_bird_10_n01796340_2468.JPEG
subject-03,1,256,0.916676044464111,knife,knife,0.05,0255_nse_s03_0.05_knife_10_n03041632_206.JPEG
subject-03,1,257,0.893166065216064,bicycle,bicycle,0.20,0256_nse_s03_0.20_bicycle_10_n02835271_6186.JPEG
subject-03,1,258,0.775559902191162,clock,clock,0.05,0257_nse_s03_0.05_clock_10_n03196217_417.JPEG
subject-03,1,259,0.65812611579895,keyboard,keyboard,0.05,0258_nse_s03_0.05_keyboard_10_n03085013_19065.JPEG
subject-03,1,260,0.953341960906982,dog,bear,0.00,0259_nse_s03_0.00_bear_10_n02134418_6228.JPEG
subject-03,1,261,0.873223066329956,chair,chair,0.00,0260_nse_s03_0.00_chair_10_n02791124_629.JPEG
subject-03,1,262,0.510268926620483,boat,airplane,0.90,0261_nse_s03_0.90_airplane_10_n02690373_8599.JPEG
subject-03,1,263,0.559846162796021,bicycle,bicycle,0.03,0262_nse_s03_0.03_bicycle_10_n02835271_12790.JPEG
subject-03,1,264,0.83445405960083,clock,clock,0.20,0263_nse_s03_0.20_clock_10_n04548280_9646.JPEG
subject-03,1,265,0.546710968017578,oven,oven,0.03,0264_nse_s03_0.03_oven_10_n04111531_9380.JPEG
subject-03,1,266,0.843199014663696,bicycle,chair,0.03,0265_nse_s03_0.03_chair_10_n02791124_755.JPEG
subject-03,1,267,1.03901410102844,bicycle,boat,0.60,0266_nse_s03_0.60_boat_10_n03662601_15763.JPEG
subject-03,1,268,0.549843072891235,cat,chair,0.90,0267_nse_s03_0.90_chair_10_n04429376_6496.JPEG
subject-03,1,269,0.93858003616333,dog,bear,0.10,0268_nse_s03_0.10_bear_10_n02134418_4915.JPEG
subject-03,1,270,0.796412944793701,oven,knife,0.05,0269_nse_s03_0.05_knife_10_n03041632_22190.JPEG
subject-03,1,271,0.674962043762207,bicycle,airplane,0.60,0270_nse_s03_0.60_airplane_10_n02690373_5177.JPEG
subject-03,1,272,0.917433977127075,dog,dog,0.03,0271_nse_s03_0.03_dog_10_n02100877_9931.JPEG
subject-03,1,273,1.12975215911865,dog,bear,0.05,0272_nse_s03_0.05_bear_10_n02134084_5678.JPEG
subject-03,1,274,0.757699012756348,dog,chair,0.90,0273_nse_s03_0.90_chair_10_n03376595_1149.JPEG
subject-03,1,275,0.601419925689697,boat,boat,0.20,0274_nse_s03_0.20_boat_10_n03344393_2410.JPEG
subject-03,1,276,0.613648891448975,boat,boat,0.10,0275_nse_s03_0.10_boat_10_n02951358_2813.JPEG
subject-03,1,277,1.09396386146545,bird,bird,0.00,0276_nse_s03_0.00_bird_10_n01843383_1602.JPEG
subject-03,1,278,0.598281860351562,cat,boat,0.90,0277_nse_s03_0.90_boat_10_n03344393_599.JPEG
subject-03,1,279,0.710020065307617,bicycle,bicycle,0.00,0278_nse_s03_0.00_bicycle_10_n02835271_922.JPEG
subject-03,1,280,0.784698009490967,elephant,elephant,0.03,0279_nse_s03_0.03_elephant_10_n02504013_10361.JPEG
subject-03,1,281,0.756525993347168,bottle,bottle,0.00,0280_nse_s03_0.00_bottle_10_n04591713_2581.JPEG
subject-03,1,282,0.870913982391357,bottle,keyboard,0.60,0281_nse_s03_0.60_keyboard_10_n04505470_6165.JPEG
subject-03,1,283,0.858036041259766,bicycle,bird,0.35,0282_nse_s03_0.35_bird_10_n01797886_4981.JPEG
subject-03,1,284,0.892511129379272,chair,chair,0.35,0283_nse_s03_0.35_chair_10_n04429376_28621.JPEG
subject-03,1,285,0.883095026016235,elephant,elephant,0.03,0284_nse_s03_0.03_elephant_10_n02504013_6742.JPEG
subject-03,1,286,0.795922994613647,clock,clock,0.35,0285_nse_s03_0.35_clock_10_n04548280_5297.JPEG
subject-03,1,287,0.578636884689331,oven,oven,0.03,0286_nse_s03_0.03_oven_10_n04111531_22872.JPEG
subject-03,1,288,0.706498146057129,clock,car,0.60,0287_nse_s03_0.60_car_10_n02814533_23592.JPEG
subject-03,1,289,0.648120880126953,cat,elephant,0.35,0288_nse_s03_0.35_elephant_10_n02504458_5399.JPEG
subject-03,1,290,0.790903091430664,bicycle,oven,0.35,0289_nse_s03_0.35_oven_10_n04111531_23340.JPEG
subject-03,1,291,0.780783891677856,knife,knife,0.20,0290_nse_s03_0.20_knife_10_n03041632_39342.JPEG
subject-03,1,292,0.938843965530396,bird,bird,0.03,0291_nse_s03_0.03_bird_10_n02018795_5173.JPEG
subject-03,1,293,0.821732997894287,bird,bear,0.90,0292_nse_s03_0.90_bear_10_n02134084_5084.JPEG
subject-03,1,294,0.725292921066284,knife,boat,0.35,0293_nse_s03_0.35_boat_10_n04273569_20158.JPEG
subject-03,1,295,0.875362157821655,bird,bear,0.03,0294_nse_s03_0.03_bear_10_n02133161_5128.JPEG
subject-03,1,296,0.78750205039978,cat,boat,0.35,0295_nse_s03_0.35_boat_10_n03662601_15646.JPEG
subject-03,1,297,0.707870006561279,knife,car,0.60,0296_nse_s03_0.60_car_10_n02814533_63116.JPEG
subject-03,1,298,0.628303050994873,boat,bottle,0.20,0297_nse_s03_0.20_bottle_10_n04560804_6366.JPEG
subject-03,1,299,0.694339036941528,oven,bear,0.90,0298_nse_s03_0.90_bear_10_n02133161_1944.JPEG
subject-03,1,300,1.0284628868103,elephant,cat,0.20,0299_nse_s03_0.20_cat_10_n02125311_19089.JPEG
subject-03,1,301,1.00310492515564,boat,chair,0.05,0300_nse_s03_0.05_chair_10_n02791124_4695.JPEG
subject-03,1,302,0.693542957305908,boat,boat,0.03,0301_nse_s03_0.03_boat_10_n03344393_7614.JPEG
subject-03,1,303,0.827879905700684,chair,chair,0.03,0302_nse_s03_0.03_chair_10_n04099969_1005.JPEG
subject-03,1,304,0.563826084136963,boat,boat,0.00,0303_nse_s03_0.00_boat_10_n04612504_18637.JPEG
subject-03,1,305,0.714359998703003,bicycle,bicycle,0.03,0304_nse_s03_0.03_bicycle_10_n02835271_14157.JPEG
subject-03,1,306,1.23197078704834,cat,cat,0.10,0305_nse_s03_0.10_cat_10_n02123045_8739.JPEG
subject-03,1,307,0.622717142105103,cat,knife,0.90,0306_nse_s03_0.90_knife_10_n03041632_45270.JPEG
subject-03,1,308,0.896927833557129,elephant,boat,0.35,0307_nse_s03_0.35_boat_10_n02951358_15413.JPEG
subject-03,1,309,0.733781099319458,car,car,0.35,0308_nse_s03_0.35_car_10_n04285008_3394.JPEG
subject-03,1,310,0.650654077529907,airplane,airplane,0.35,0309_nse_s03_0.35_airplane_10_n02690373_5797.JPEG
subject-03,1,311,0.579125881195068,boat,truck,0.90,0310_nse_s03_0.90_truck_10_n03796401_2457.JPEG
subject-03,1,312,0.845771074295044,car,boat,0.20,0311_nse_s03_0.20_boat_10_n03662601_5575.JPEG
subject-03,1,313,0.879331111907959,bicycle,chair,0.60,0312_nse_s03_0.60_chair_10_n03376595_2333.JPEG
subject-03,1,314,0.501585006713867,cat,truck,0.90,0313_nse_s03_0.90_truck_10_n03417042_18898.JPEG
subject-03,1,315,0.836184978485107,car,car,0.35,0314_nse_s03_0.35_car_10_n02814533_5007.JPEG
subject-03,1,316,0.926146030426025,car,car,0.20,0315_nse_s03_0.20_car_10_n02814533_25129.JPEG
subject-03,1,317,0.714409112930298,bird,bird,0.05,0316_nse_s03_0.05_bird_10_n02037110_16247.JPEG
subject-03,1,318,1.02392888069153,airplane,dog,0.00,0317_nse_s03_0.00_dog_10_n02107908_1589.JPEG
subject-03,1,319,0.789079904556274,cat,car,0.90,0318_nse_s03_0.90_car_10_n04285008_6323.JPEG
subject-03,1,320,0.77171516418457,bicycle,bicycle,0.05,0319_nse_s03_0.05_bicycle_10_n03792782_19194.JPEG
subject-03,1,321,0.623928070068359,oven,elephant,0.90,0320_nse_s03_0.90_elephant_10_n02504458_5008.JPEG
subject-03,1,322,1.19141697883606,bird,bear,0.35,0321_nse_s03_0.35_bear_10_n02133161_14705.JPEG
subject-03,1,323,0.865561962127686,truck,truck,0.35,0322_nse_s03_0.35_truck_10_n03417042_30.JPEG
subject-03,1,324,0.66075611114502,cat,cat,0.20,0323_nse_s03_0.20_cat_10_n02123394_1069.JPEG
subject-03,1,325,0.664829015731812,bicycle,bicycle,0.35,0324_nse_s03_0.35_bicycle_10_n03792782_7709.JPEG
subject-03,1,326,0.538680076599121,clock,clock,0.05,0325_nse_s03_0.05_clock_10_n03196217_1566.JPEG
subject-03,1,327,0.558815002441406,boat,boat,0.03,0326_nse_s03_0.03_boat_10_n03344393_595.JPEG
subject-03,1,328,0.839293003082275,airplane,elephant,0.05,0327_nse_s03_0.05_elephant_10_n02504458_5875.JPEG
subject-03,1,329,0.905695199966431,elephant,elephant,0.10,0328_nse_s03_0.10_elephant_10_n02504458_2133.JPEG
subject-03,1,330,0.679889917373657,boat,chair,0.35,0329_nse_s03_0.35_chair_10_n03376595_6073.JPEG
subject-03,1,331,0.862112998962402,bottle,bottle,0.35,0330_nse_s03_0.35_bottle_10_n04591713_1531.JPEG
subject-03,1,332,0.857836008071899,bottle,oven,0.03,0331_nse_s03_0.03_oven_10_n04111531_7355.JPEG
subject-03,1,333,0.689254999160767,dog,dog,0.10,0332_nse_s03_0.10_dog_10_n02105855_13904.JPEG
subject-03,1,334,0.493085861206055,clock,clock,0.05,0333_nse_s03_0.05_clock_10_n03196217_1258.JPEG
subject-03,1,335,0.681684970855713,car,car,0.60,0334_nse_s03_0.60_car_10_n03100240_10440.JPEG
subject-03,1,336,0.739912033081055,truck,bear,0.00,0335_nse_s03_0.00_bear_10_n02132136_15581.JPEG
subject-03,1,337,1.13669610023499,bottle,airplane,0.60,0336_nse_s03_0.60_airplane_10_n02690373_4009.JPEG
subject-03,1,338,0.667162895202637,keyboard,keyboard,0.00,0337_nse_s03_0.00_keyboard_10_n04505470_4684.JPEG
subject-03,1,339,0.70856785774231,airplane,knife,0.05,0338_nse_s03_0.05_knife_10_n03041632_23968.JPEG
subject-03,1,340,0.550851106643677,keyboard,keyboard,0.35,0339_nse_s03_0.35_keyboard_10_n04505470_9996.JPEG
subject-03,1,341,1.17134189605713,knife,knife,0.05,0340_nse_s03_0.05_knife_10_n03041632_15754.JPEG
subject-03,1,342,0.786813974380493,bird,bird,0.10,0341_nse_s03_0.10_bird_10_n02017213_16522.JPEG
subject-03,1,343,0.636991024017334,oven,oven,0.03,0342_nse_s03_0.03_oven_10_n04111531_3611.JPEG
subject-03,1,344,0.816837072372437,oven,chair,0.35,0343_nse_s03_0.35_chair_10_n02791124_495.JPEG
subject-03,1,345,0.690337181091309,oven,elephant,0.35,0344_nse_s03_0.35_elephant_10_n02504013_4136.JPEG
subject-03,1,346,0.556931018829346,clock,clock,0.05,0345_nse_s03_0.05_clock_10_n03196217_2447.JPEG
subject-03,1,347,0.728261947631836,truck,truck,0.03,0346_nse_s03_0.03_truck_10_n03417042_10769.JPEG
subject-03,1,348,0.656571865081787,bottle,bottle,0.00,0347_nse_s03_0.00_bottle_10_n02823428_8478.JPEG
subject-03,1,349,0.592846870422363,cat,bicycle,0.00,0348_nse_s03_0.00_bicycle_10_n02835271_14276.JPEG
subject-03,1,350,0.851133108139038,knife,knife,0.03,0349_nse_s03_0.03_knife_10_n03041632_38535.JPEG
subject-03,1,351,0.722113132476807,bird,elephant,0.20,0350_nse_s03_0.20_elephant_10_n02504013_1921.JPEG
subject-03,1,352,0.779769897460938,bottle,chair,0.03,0351_nse_s03_0.03_chair_10_n04429376_17021.JPEG
subject-03,1,353,0.791772842407227,chair,bottle,0.60,0352_nse_s03_0.60_bottle_10_n04557648_14901.JPEG
subject-03,1,354,0.628068923950195,airplane,airplane,0.00,0353_nse_s03_0.00_airplane_10_n02690373_7093.JPEG
subject-03,1,355,0.670344829559326,cat,knife,0.90,0354_nse_s03_0.90_knife_10_n03041632_52929.JPEG
subject-03,1,356,0.828320026397705,truck,truck,0.03,0355_nse_s03_0.03_truck_10_n03417042_518.JPEG
subject-03,1,357,0.59740686416626,cat,bear,0.60,0356_nse_s03_0.60_bear_10_n02134084_11672.JPEG
subject-03,1,358,0.869482040405273,car,car,0.00,0357_nse_s03_0.00_car_10_n04285008_9876.JPEG
subject-03,1,359,NaN,na,keyboard,0.90,0358_nse_s03_0.90_keyboard_10_n03085013_5141.JPEG
subject-03,1,360,0.825894832611084,bottle,bottle,0.03,0359_nse_s03_0.03_bottle_10_n03983396_2537.JPEG
subject-03,1,361,0.722548007965088,bottle,bicycle,0.60,0360_nse_s03_0.60_bicycle_10_n02835271_2553.JPEG
subject-03,1,362,NaN,na,car,0.20,0361_nse_s03_0.20_car_10_n03100240_8585.JPEG
subject-03,1,363,0.679315805435181,airplane,dog,0.20,0362_nse_s03_0.20_dog_10_n02098105_9302.JPEG
subject-03,1,364,0.591456890106201,cat,boat,0.35,0363_nse_s03_0.35_boat_10_n02951358_31852.JPEG
subject-03,1,365,1.11977696418762,knife,bear,0.03,0364_nse_s03_0.03_bear_10_n02134084_18083.JPEG
subject-03,1,366,1.12377905845642,knife,keyboard,0.03,0365_nse_s03_0.03_keyboard_10_n03085013_21851.JPEG
subject-03,1,367,0.535562992095947,boat,chair,0.60,0366_nse_s03_0.60_chair_10_n03376595_18370.JPEG
subject-03,1,368,0.739752054214478,keyboard,bear,0.35,0367_nse_s03_0.35_bear_10_n02133161_8455.JPEG
subject-03,1,369,0.745790958404541,knife,airplane,0.35,0368_nse_s03_0.35_airplane_10_n02690373_6853.JPEG
subject-03,1,370,1.1103949546814,elephant,dog,0.20,0369_nse_s03_0.20_dog_10_n02093256_25352.JPEG
subject-03,1,371,0.71657395362854,bear,bear,0.35,0370_nse_s03_0.35_bear_10_n02134084_6874.JPEG
subject-03,1,372,0.565646886825562,cat,oven,0.90,0371_nse_s03_0.90_oven_10_n04111531_1725.JPEG
subject-03,1,373,0.654031991958618,cat,knife,0.60,0372_nse_s03_0.60_knife_10_n03041632_12537.JPEG
subject-03,1,374,0.552100896835327,airplane,airplane,0.03,0373_nse_s03_0.03_airplane_10_n02690373_6534.JPEG
subject-03,1,375,1.29451298713684,bear,bear,0.35,0374_nse_s03_0.35_bear_10_n02134084_2364.JPEG
subject-03,1,376,0.706624984741211,airplane,boat,0.35,0375_nse_s03_0.35_boat_10_n04612504_30617.JPEG
subject-03,1,377,0.596903085708618,boat,boat,0.03,0376_nse_s03_0.03_boat_10_n03344393_464.JPEG
subject-03,1,378,0.701134204864502,airplane,oven,0.05,0377_nse_s03_0.05_oven_10_n04111531_22797.JPEG
subject-03,1,379,0.721850872039795,knife,chair,0.20,0378_nse_s03_0.20_chair_10_n04099969_7711.JPEG
subject-03,1,380,0.52037501335144,cat,cat,0.05,0379_nse_s03_0.05_cat_10_n02123394_1633.JPEG
subject-03,1,381,0.716495990753174,bottle,bottle,0.03,0380_nse_s03_0.03_bottle_10_n03983396_3526.JPEG
subject-03,1,382,0.598822832107544,cat,boat,0.90,0381_nse_s03_0.90_boat_10_n03344393_5424.JPEG
subject-03,1,383,1.19539499282837,knife,knife,0.00,0382_nse_s03_0.00_knife_10_n03041632_22734.JPEG
subject-03,1,384,0.669799089431763,bird,bird,0.00,0383_nse_s03_0.00_bird_10_n01843065_9968.JPEG
subject-03,1,385,1.04170322418213,bird,elephant,0.35,0384_nse_s03_0.35_elephant_10_n02504458_4864.JPEG
subject-03,1,386,0.457046985626221,bird,cat,0.90,0385_nse_s03_0.90_cat_10_n02123045_5915.JPEG
subject-03,1,387,0.592777967453003,cat,dog,0.35,0386_nse_s03_0.35_dog_10_n02102177_297.JPEG
subject-03,1,388,NaN,na,oven,0.90,0387_nse_s03_0.90_oven_10_n04111531_13296.JPEG
subject-03,1,389,0.663967847824097,oven,oven,0.10,0388_nse_s03_0.10_oven_10_n04111531_21460.JPEG
subject-03,1,390,0.476262092590332,oven,dog,0.90,0389_nse_s03_0.90_dog_10_n02106662_79892.JPEG
subject-03,1,391,0.758823156356812,airplane,airplane,0.03,0390_nse_s03_0.03_airplane_10_n02690373_4042.JPEG
subject-03,1,392,0.754932880401611,chair,chair,0.05,0391_nse_s03_0.05_chair_10_n04429376_3459.JPEG
subject-03,1,393,0.575224876403809,chair,bicycle,0.60,0392_nse_s03_0.60_bicycle_10_n02835271_20959.JPEG
subject-03,1,394,0.671588897705078,keyboard,airplane,0.60,0393_nse_s03_0.60_airplane_10_n02690373_6682.JPEG
subject-03,1,395,0.867340803146362,clock,clock,0.00,0394_nse_s03_0.00_clock_10_n04548280_3381.JPEG
subject-03,1,396,0.543783903121948,clock,clock,0.35,0395_nse_s03_0.35_clock_10_n02708093_6252.JPEG
subject-03,1,397,0.68629002571106,airplane,airplane,0.05,0396_nse_s03_0.05_airplane_10_n02690373_1169.JPEG
subject-03,1,398,0.79866886138916,boat,bottle,0.20,0397_nse_s03_0.20_bottle_10_n04557648_11747.JPEG
subject-03,1,399,0.572623014450073,boat,boat,0.10,0398_nse_s03_0.10_boat_10_n03344393_4096.JPEG
subject-03,1,400,0.860910892486572,bear,bear,0.10,0399_nse_s03_0.10_bear_10_n02133161_6393.JPEG
subject-03,1,401,0.681030035018921,keyboard,keyboard,0.10,0400_nse_s03_0.10_keyboard_10_n03085013_2853.JPEG
subject-03,1,402,0.76946496963501,knife,knife,0.05,0401_nse_s03_0.05_knife_10_n03041632_11475.JPEG
subject-03,1,403,1.39813804626465,elephant,elephant,0.05,0402_nse_s03_0.05_elephant_10_n02504458_6960.JPEG
subject-03,1,404,0.880114078521729,chair,chair,0.35,0403_nse_s03_0.35_chair_10_n04429376_24903.JPEG
subject-03,1,405,0.416881084442139,boat,boat,0.00,0404_nse_s03_0.00_boat_10_n03344393_10015.JPEG
subject-03,1,406,0.599069118499756,oven,oven,0.10,0405_nse_s03_0.10_oven_10_n04111531_10093.JPEG
subject-03,1,407,1.43056392669678,dog,dog,0.10,0406_nse_s03_0.10_dog_10_n02093991_2439.JPEG
subject-03,1,408,0.706900119781494,car,car,0.05,0407_nse_s03_0.05_car_10_n04285008_10917.JPEG
subject-03,1,409,0.719336986541748,bicycle,bicycle,0.00,0408_nse_s03_0.00_bicycle_10_n02835271_18105.JPEG
subject-03,1,410,1.14473009109497,dog,cat,0.05,0409_nse_s03_0.05_cat_10_n02123045_334.JPEG
subject-03,1,411,0.751359939575195,bird,bird,0.10,0410_nse_s03_0.10_bird_10_n01860187_11433.JPEG
subject-03,1,412,1.13983798027039,airplane,keyboard,0.05,0411_nse_s03_0.05_keyboard_10_n03085013_19317.JPEG
subject-03,1,413,0.688708066940308,truck,truck,0.10,0412_nse_s03_0.10_truck_10_n04467665_43410.JPEG
subject-03,1,414,1.2930850982666,clock,clock,0.10,0413_nse_s03_0.10_clock_10_n02708093_149.JPEG
subject-03,1,415,0.645684003829956,cat,bicycle,0.90,0414_nse_s03_0.90_bicycle_10_n02835271_10538.JPEG
subject-03,1,416,0.495627880096436,cat,bottle,0.60,0415_nse_s03_0.60_bottle_10_n04579145_7429.JPEG
subject-03,1,417,0.715652942657471,knife,knife,0.03,0416_nse_s03_0.03_knife_10_n03041632_12242.JPEG
subject-03,1,418,0.644131183624268,cat,cat,0.03,0417_nse_s03_0.03_cat_10_n02123045_2777.JPEG
subject-03,1,419,0.647888898849487,boat,bear,0.90,0418_nse_s03_0.90_bear_10_n02134084_1881.JPEG
subject-03,1,420,0.521821975708008,cat,dog,0.60,0419_nse_s03_0.60_dog_10_n02105855_9285.JPEG
subject-03,1,421,0.794404029846191,cat,cat,0.10,0420_nse_s03_0.10_cat_10_n02123394_4383.JPEG
subject-03,1,422,1.04363298416138,bird,airplane,0.60,0421_nse_s03_0.60_airplane_10_n02690373_379.JPEG
subject-03,1,423,0.671397924423218,keyboard,keyboard,0.03,0422_nse_s03_0.03_keyboard_10_n04505470_4202.JPEG
subject-03,1,424,0.490583896636963,clock,clock,0.00,0423_nse_s03_0.00_clock_10_n04548280_3049.JPEG
subject-03,1,425,0.925328016281128,bottle,bottle,0.03,0424_nse_s03_0.03_bottle_10_n03937543_11101.JPEG
subject-03,1,426,0.682921886444092,knife,truck,0.10,0425_nse_s03_0.10_truck_10_n04467665_79500.JPEG
subject-03,1,427,0.61123514175415,oven,bird,0.60,0426_nse_s03_0.60_bird_10_n01833805_8024.JPEG
subject-03,1,428,0.476223945617676,cat,truck,0.60,0427_nse_s03_0.60_truck_10_n03417042_7337.JPEG
subject-03,1,429,0.710941076278687,bird,bicycle,0.20,0428_nse_s03_0.20_bicycle_10_n02835271_7685.JPEG
subject-03,1,430,0.660834074020386,oven,oven,0.05,0429_nse_s03_0.05_oven_10_n04111531_16251.JPEG
subject-03,1,431,0.997016906738281,dog,bear,0.05,0430_nse_s03_0.05_bear_10_n02133161_3088.JPEG
subject-03,1,432,0.809696197509766,bird,keyboard,0.90,0431_nse_s03_0.90_keyboard_10_n04505470_1328.JPEG
subject-03,1,433,0.621773958206177,chair,chair,0.05,0432_nse_s03_0.05_chair_10_n04099969_25697.JPEG
subject-03,1,434,0.709810972213745,knife,knife,0.60,0433_nse_s03_0.60_knife_10_n03041632_20194.JPEG
subject-03,1,435,0.862056970596313,elephant,elephant,0.00,0434_nse_s03_0.00_elephant_10_n02504458_4799.JPEG
subject-03,1,436,0.949657917022705,bicycle,bicycle,0.35,0435_nse_s03_0.35_bicycle_10_n03792782_5020.JPEG
subject-03,1,437,0.470041036605835,cat,knife,0.90,0436_nse_s03_0.90_knife_10_n03041632_83472.JPEG
subject-03,1,438,0.736304044723511,truck,truck,0.00,0437_nse_s03_0.00_truck_10_n03417042_2515.JPEG
subject-03,1,439,1.00246500968933,bird,cat,0.90,0438_nse_s03_0.90_cat_10_n02123045_2152.JPEG
subject-03,1,440,0.852800846099854,elephant,elephant,0.05,0439_nse_s03_0.05_elephant_10_n02504013_6065.JPEG
subject-03,1,441,0.611078977584839,bear,oven,0.05,0440_nse_s03_0.05_oven_10_n04111531_11499.JPEG
subject-03,1,442,0.615175008773804,oven,boat,0.20,0441_nse_s03_0.20_boat_10_n03344393_7542.JPEG
subject-03,1,443,0.603029012680054,cat,bear,0.90,0442_nse_s03_0.90_bear_10_n02133161_835.JPEG
subject-03,1,444,0.501104116439819,oven,boat,0.60,0443_nse_s03_0.60_boat_10_n03344393_1565.JPEG
subject-03,1,445,0.551491975784302,cat,car,0.90,0444_nse_s03_0.90_car_10_n02814533_14484.JPEG
subject-03,1,446,0.826239109039307,truck,truck,0.20,0445_nse_s03_0.20_truck_10_n03417042_6235.JPEG
subject-03,1,447,0.913735151290894,truck,truck,0.05,0446_nse_s03_0.05_truck_10_n03796401_30199.JPEG
subject-03,1,448,0.909948825836182,bird,bird,0.03,0447_nse_s03_0.03_bird_10_n02006656_11301.JPEG
subject-03,1,449,1.03024291992188,keyboard,keyboard,0.60,0448_nse_s03_0.60_keyboard_10_n04505470_5145.JPEG
subject-03,1,450,0.750743865966797,bottle,boat,0.60,0449_nse_s03_0.60_boat_10_n03344393_11310.JPEG
subject-03,1,451,0.741591930389404,oven,oven,0.10,0450_nse_s03_0.10_oven_10_n04111531_12450.JPEG
subject-03,1,452,0.594436168670654,clock,clock,0.03,0451_nse_s03_0.03_clock_10_n02708093_6890.JPEG
subject-03,1,453,0.834572076797485,keyboard,keyboard,0.03,0452_nse_s03_0.03_keyboard_10_n04505470_1516.JPEG
subject-03,1,454,0.649565935134888,car,car,0.05,0453_nse_s03_0.05_car_10_n02814533_54543.JPEG
subject-03,1,455,0.678478956222534,keyboard,keyboard,0.10,0454_nse_s03_0.10_keyboard_10_n04505470_4384.JPEG
subject-03,1,456,0.904752016067505,boat,boat,0.10,0455_nse_s03_0.10_boat_10_n02951358_13781.JPEG
subject-03,1,457,1.20143818855286,knife,knife,0.05,0456_nse_s03_0.05_knife_10_n03041632_5162.JPEG
subject-03,1,458,0.991383075714111,bottle,bear,0.10,0457_nse_s03_0.10_bear_10_n02134418_904.JPEG
subject-03,1,459,0.887706995010376,dog,car,0.90,0458_nse_s03_0.90_car_10_n03100240_16858.JPEG
subject-03,1,460,0.94657301902771,dog,dog,0.00,0459_nse_s03_0.00_dog_10_n02102177_9188.JPEG
subject-03,1,461,0.73674201965332,keyboard,keyboard,0.05,0460_nse_s03_0.05_keyboard_10_n04505470_407.JPEG
subject-03,1,462,0.619014978408813,car,truck,0.35,0461_nse_s03_0.35_truck_10_n03417042_14000.JPEG
subject-03,1,463,0.861422061920166,car,bottle,0.90,0462_nse_s03_0.90_bottle_10_n02823428_5244.JPEG
subject-03,1,464,0.719012975692749,bottle,cat,0.60,0463_nse_s03_0.60_cat_10_n02123597_5764.JPEG
subject-03,1,465,0.723545074462891,bird,bird,0.00,0464_nse_s03_0.00_bird_10_n02025239_1092.JPEG
subject-03,1,466,NaN,na,bicycle,0.60,0465_nse_s03_0.60_bicycle_10_n03792782_1185.JPEG
subject-03,1,467,0.90408992767334,truck,truck,0.10,0466_nse_s03_0.10_truck_10_n03796401_713.JPEG
subject-03,1,468,0.962597131729126,car,car,0.00,0467_nse_s03_0.00_car_10_n04285008_14976.JPEG
subject-03,1,469,0.707088947296143,car,car,0.10,0468_nse_s03_0.10_car_10_n03100240_1236.JPEG
subject-03,1,470,0.765487194061279,car,bird,0.60,0469_nse_s03_0.60_bird_10_n02002724_4099.JPEG
subject-03,1,471,0.702497959136963,car,car,0.35,0470_nse_s03_0.35_car_10_n03100240_7239.JPEG
subject-03,1,472,0.72283411026001,keyboard,keyboard,0.20,0471_nse_s03_0.20_keyboard_10_n03085013_24467.JPEG
subject-03,1,473,0.981190919876099,elephant,elephant,0.10,0472_nse_s03_0.10_elephant_10_n02504013_5678.JPEG
subject-03,1,474,0.669090032577515,elephant,knife,0.35,0473_nse_s03_0.35_knife_10_n03041632_13424.JPEG
subject-03,1,475,0.572640895843506,car,car,0.03,0474_nse_s03_0.03_car_10_n03100240_16551.JPEG
subject-03,1,476,0.838722944259644,bicycle,bicycle,0.35,0475_nse_s03_0.35_bicycle_10_n02835271_7476.JPEG
subject-03,1,477,1.07398390769958,bird,dog,0.60,0476_nse_s03_0.60_dog_10_n02104029_5840.JPEG
subject-03,1,478,0.642047166824341,elephant,cat,0.10,0477_nse_s03_0.10_cat_10_n02125311_412.JPEG
subject-03,1,479,1.20658397674561,elephant,elephant,0.35,0478_nse_s03_0.35_elephant_10_n02504458_2928.JPEG
subject-03,1,480,0.661807060241699,boat,bear,0.60,0479_nse_s03_0.60_bear_10_n02134084_5420.JPEG
subject-03,1,481,0.666152000427246,oven,oven,0.10,0480_nse_s03_0.10_oven_10_n04111531_3886.JPEG
subject-03,1,482,0.594574928283691,bicycle,bicycle,0.10,0481_nse_s03_0.10_bicycle_10_n03792782_1442.JPEG
subject-03,1,483,1.00922513008118,airplane,truck,0.20,0482_nse_s03_0.20_truck_10_n04467665_3683.JPEG
subject-03,1,484,0.515105962753296,boat,bear,0.60,0483_nse_s03_0.60_bear_10_n02133161_1444.JPEG
subject-03,1,485,0.71155309677124,keyboard,bear,0.05,0484_nse_s03_0.05_bear_10_n02134084_1503.JPEG
subject-03,1,486,0.593261003494263,oven,boat,0.90,0485_nse_s03_0.90_boat_10_n02951358_10048.JPEG
subject-03,1,487,0.644032001495361,car,knife,0.60,0486_nse_s03_0.60_knife_10_n03041632_33424.JPEG
subject-03,1,488,0.640271902084351,boat,boat,0.35,0487_nse_s03_0.35_boat_10_n03662601_1971.JPEG
subject-03,1,489,0.807539224624634,keyboard,keyboard,0.35,0488_nse_s03_0.35_keyboard_10_n03085013_23465.JPEG
subject-03,1,490,0.773123979568481,elephant,elephant,0.10,0489_nse_s03_0.10_elephant_10_n02504458_359.JPEG
subject-03,1,491,0.723948955535889,cat,oven,0.90,0490_nse_s03_0.90_oven_10_n04111531_716.JPEG
subject-03,1,492,0.48150897026062,boat,car,0.90,0491_nse_s03_0.90_car_10_n03100240_23804.JPEG
subject-03,1,493,0.606749057769775,keyboard,keyboard,0.35,0492_nse_s03_0.35_keyboard_10_n03085013_7797.JPEG
subject-03,1,494,1.00548696517944,elephant,elephant,0.00,0493_nse_s03_0.00_elephant_10_n02504458_11740.JPEG
subject-03,1,495,0.756021976470947,clock,clock,0.05,0494_nse_s03_0.05_clock_10_n03196217_12291.JPEG
subject-03,1,496,1.19736886024475,bottle,bottle,0.05,0495_nse_s03_0.05_bottle_10_n02823428_14415.JPEG
subject-03,1,497,0.55570387840271,cat,elephant,0.60,0496_nse_s03_0.60_elephant_10_n02504458_2100.JPEG
subject-03,1,498,0.764299869537354,oven,knife,0.35,0497_nse_s03_0.35_knife_10_n03041632_20595.JPEG
subject-03,1,499,0.554876804351807,oven,bottle,0.35,0498_nse_s03_0.35_bottle_10_n04591713_3522.JPEG
subject-03,1,500,0.913179159164429,bottle,bottle,0.00,0499_nse_s03_0.00_bottle_10_n04579145_2785.JPEG
subject-03,1,501,0.687522888183594,cat,chair,0.90,0500_nse_s03_0.90_chair_10_n02791124_1635.JPEG
subject-03,1,502,0.730185031890869,airplane,airplane,0.20,0501_nse_s03_0.20_airplane_10_n02690373_5100.JPEG
subject-03,1,503,0.650314092636108,airplane,boat,0.60,0502_nse_s03_0.60_boat_10_n03344393_4063.JPEG
subject-03,1,504,0.66270899772644,clock,oven,0.90,0503_nse_s03_0.90_oven_10_n04111531_2024.JPEG
subject-03,1,505,0.596320152282715,boat,boat,0.90,0504_nse_s03_0.90_boat_10_n02951358_12489.JPEG
subject-03,1,506,0.870550870895386,dog,dog,0.05,0505_nse_s03_0.05_dog_10_n02109047_25968.JPEG
subject-03,1,507,0.66679310798645,oven,oven,0.03,0506_nse_s03_0.03_oven_10_n04111531_9334.JPEG
subject-03,1,508,0.986930131912231,elephant,elephant,0.03,0507_nse_s03_0.03_elephant_10_n02504458_5055.JPEG
subject-03,1,509,0.490994930267334,oven,elephant,0.60,0508_nse_s03_0.60_elephant_10_n02504458_3728.JPEG
subject-03,1,510,0.58964991569519,boat,car,0.90,0509_nse_s03_0.90_car_10_n02814533_37110.JPEG
subject-03,1,511,0.478291988372803,oven,knife,0.03,0510_nse_s03_0.03_knife_10_n03041632_44212.JPEG
subject-03,1,512,0.574173927307129,airplane,airplane,0.10,0511_nse_s03_0.10_airplane_10_n02690373_9626.JPEG
subject-03,1,513,0.596280097961426,clock,chair,0.60,0512_nse_s03_0.60_chair_10_n03376595_204.JPEG
subject-03,1,514,0.638681888580322,cat,elephant,0.60,0513_nse_s03_0.60_elephant_10_n02504458_1726.JPEG
subject-03,1,515,0.849319934844971,knife,knife,0.35,0514_nse_s03_0.35_knife_10_n03041632_1201.JPEG
subject-03,1,516,0.699597835540771,cat,car,0.35,0515_nse_s03_0.35_car_10_n03100240_15141.JPEG
subject-03,1,517,0.536041975021362,oven,chair,0.00,0516_nse_s03_0.00_chair_10_n02791124_5287.JPEG
subject-03,1,518,1.29250884056091,truck,truck,0.00,0517_nse_s03_0.00_truck_10_n04467665_28756.JPEG
subject-03,1,519,0.712412118911743,bird,keyboard,0.90,0518_nse_s03_0.90_keyboard_10_n04505470_2041.JPEG
subject-03,1,520,0.916881084442139,boat,boat,0.10,0519_nse_s03_0.10_boat_10_n03662601_1637.JPEG
subject-03,1,521,0.685145139694214,chair,chair,0.05,0520_nse_s03_0.05_chair_10_n02791124_960.JPEG
subject-03,1,522,0.835630893707275,bird,bird,0.20,0521_nse_s03_0.20_bird_10_n01819313_10171.JPEG
subject-03,1,523,0.807498931884766,cat,truck,0.35,0522_nse_s03_0.35_truck_10_n03417042_6847.JPEG
subject-03,1,524,0.622768878936768,oven,clock,0.90,0523_nse_s03_0.90_clock_10_n02708093_7827.JPEG
subject-03,1,525,0.589329957962036,oven,keyboard,0.10,0524_nse_s03_0.10_keyboard_10_n03085013_24182.JPEG
subject-03,1,526,0.923636913299561,oven,elephant,0.20,0525_nse_s03_0.20_elephant_10_n02504458_3390.JPEG
subject-03,1,527,1.05169820785522,dog,dog,0.00,0526_nse_s03_0.00_dog_10_n02109525_5490.JPEG
subject-03,1,528,1.28595590591431,dog,dog,0.35,0527_nse_s03_0.35_dog_10_n02110806_684.JPEG
subject-03,1,529,0.884168148040771,cat,clock,0.90,0528_nse_s03_0.90_clock_10_n02708093_8155.JPEG
subject-03,1,530,0.620864868164062,cat,chair,0.90,0529_nse_s03_0.90_chair_10_n04099969_5456.JPEG
subject-03,1,531,0.878943920135498,chair,bear,0.10,0530_nse_s03_0.10_bear_10_n02133161_14031.JPEG
subject-03,1,532,0.713398933410645,oven,cat,0.90,0531_nse_s03_0.90_cat_10_n02123597_8575.JPEG
subject-03,1,533,0.655449151992798,oven,car,0.60,0532_nse_s03_0.60_car_10_n04285008_15191.JPEG
subject-03,1,534,0.705322980880737,chair,chair,0.20,0533_nse_s03_0.20_chair_10_n03376595_9237.JPEG
subject-03,1,535,0.733447074890137,bicycle,bicycle,0.00,0534_nse_s03_0.00_bicycle_10_n02835271_2406.JPEG
subject-03,1,536,0.752957820892334,chair,chair,0.05,0535_nse_s03_0.05_chair_10_n04429376_25110.JPEG
subject-03,1,537,0.765244960784912,boat,bicycle,0.60,0536_nse_s03_0.60_bicycle_10_n02835271_14680.JPEG
subject-03,1,538,1.08262991905212,dog,dog,0.20,0537_nse_s03_0.20_dog_10_n02105641_14096.JPEG
subject-03,1,539,1.01724004745483,truck,truck,0.10,0538_nse_s03_0.10_truck_10_n04467665_21087.JPEG
subject-03,1,540,1.1967408657074,truck,truck,0.05,0539_nse_s03_0.05_truck_10_n03796401_9156.JPEG
subject-03,1,541,0.94942307472229,car,airplane,0.90,0540_nse_s03_0.90_airplane_10_n02690373_3408.JPEG
subject-03,1,542,0.975701093673706,truck,clock,0.20,0541_nse_s03_0.20_clock_10_n03196217_4004.JPEG
subject-03,1,543,0.920611143112183,bird,bottle,0.60,0542_nse_s03_0.60_bottle_10_n02823428_363.JPEG
subject-03,1,544,1.23894095420837,bird,bird,0.05,0543_nse_s03_0.05_bird_10_n02056570_7204.JPEG
subject-03,1,545,1.04565405845642,dog,dog,0.03,0544_nse_s03_0.03_dog_10_n02102973_6678.JPEG
subject-03,1,546,0.903339147567749,bottle,elephant,0.90,0545_nse_s03_0.90_elephant_10_n02504013_4278.JPEG
subject-03,1,547,0.774686098098755,cat,elephant,0.90,0546_nse_s03_0.90_elephant_10_n02504013_6399.JPEG
subject-03,1,548,0.778341054916382,airplane,airplane,0.05,0547_nse_s03_0.05_airplane_10_n02690373_243.JPEG
subject-03,1,549,0.56889009475708,clock,keyboard,0.60,0548_nse_s03_0.60_keyboard_10_n03085013_17584.JPEG
subject-03,1,550,0.803422927856445,bottle,dog,0.90,0549_nse_s03_0.90_dog_10_n02088364_14051.JPEG
subject-03,1,551,0.823216915130615,knife,knife,0.03,0550_nse_s03_0.03_knife_10_n03041632_50332.JPEG
subject-03,1,552,1.06587195396423,keyboard,knife,0.00,0551_nse_s03_0.00_knife_10_n03041632_55953.JPEG
subject-03,1,553,0.848148107528687,oven,truck,0.05,0552_nse_s03_0.05_truck_10_n03417042_5807.JPEG
subject-03,1,554,0.636579036712646,boat,bear,0.90,0553_nse_s03_0.90_bear_10_n02134084_9176.JPEG
subject-03,1,555,0.849323987960815,truck,truck,0.05,0554_nse_s03_0.05_truck_10_n04467665_48953.JPEG
subject-03,1,556,0.885842800140381,oven,oven,0.00,0555_nse_s03_0.00_oven_10_n04111531_9915.JPEG
subject-03,1,557,0.584346055984497,oven,bicycle,0.90,0556_nse_s03_0.90_bicycle_10_n03792782_13608.JPEG
subject-03,1,558,0.87239408493042,elephant,bear,0.00,0557_nse_s03_0.00_bear_10_n02134084_10784.JPEG
subject-03,1,559,0.743520975112915,boat,bottle,0.60,0558_nse_s03_0.60_bottle_10_n02823428_6248.JPEG
subject-03,1,560,0.588315963745117,boat,boat,0.10,0559_nse_s03_0.10_boat_10_n04612504_358.JPEG
subject-03,1,561,0.662481069564819,bicycle,bicycle,0.20,0560_nse_s03_0.20_bicycle_10_n03792782_12421.JPEG
subject-03,1,562,0.751049995422363,bird,bird,0.03,0561_nse_s03_0.03_bird_10_n01514859_5513.JPEG
subject-03,1,563,0.879542827606201,bottle,bottle,0.10,0562_nse_s03_0.10_bottle_10_n02823428_1121.JPEG
subject-03,1,564,0.637070894241333,clock,clock,0.00,0563_nse_s03_0.00_clock_10_n03196217_11063.JPEG
subject-03,1,565,0.88758397102356,bear,bear,0.20,0564_nse_s03_0.20_bear_10_n02134418_5032.JPEG
subject-03,1,566,0.66195821762085,cat,knife,0.90,0565_nse_s03_0.90_knife_10_n03041632_62810.JPEG
subject-03,1,567,0.820281028747559,bird,bird,0.05,0566_nse_s03_0.05_bird_10_n02051845_7937.JPEG
subject-03,1,568,0.992919921875,keyboard,bear,0.00,0567_nse_s03_0.00_bear_10_n02134418_5380.JPEG
subject-03,1,569,0.591428995132446,cat,bottle,0.90,0568_nse_s03_0.90_bottle_10_n04591713_1900.JPEG
subject-03,1,570,0.624969005584717,boat,bird,0.60,0569_nse_s03_0.60_bird_10_n01818515_35821.JPEG
subject-03,1,571,0.635792970657349,bicycle,bicycle,0.10,0570_nse_s03_0.10_bicycle_10_n02835271_12405.JPEG
subject-03,1,572,0.470400810241699,cat,oven,0.20,0571_nse_s03_0.20_oven_10_n04111531_704.JPEG
subject-03,1,573,1.11238121986389,oven,oven,0.00,0572_nse_s03_0.00_oven_10_n04111531_687.JPEG
subject-03,1,574,0.833009958267212,cat,cat,0.00,0573_nse_s03_0.00_cat_10_n02123597_23346.JPEG
subject-03,1,575,1.33489584922791,bicycle,elephant,0.00,0574_nse_s03_0.00_elephant_10_n02504458_6271.JPEG
subject-03,1,576,0.840962171554565,boat,boat,0.90,0575_nse_s03_0.90_boat_10_n03344393_6713.JPEG
subject-03,1,577,0.590595960617065,cat,elephant,0.60,0576_nse_s03_0.60_elephant_10_n02504013_9153.JPEG
subject-03,1,578,0.678817987442017,cat,truck,0.60,0577_nse_s03_0.60_truck_10_n04467665_16069.JPEG
subject-03,1,579,0.74455714225769,cat,bottle,0.35,0578_nse_s03_0.35_bottle_10_n04560804_11389.JPEG
subject-03,1,580,1.00856590270996,elephant,elephant,0.20,0579_nse_s03_0.20_elephant_10_n02504458_609.JPEG
subject-03,1,581,0.890855073928833,elephant,elephant,0.20,0580_nse_s03_0.20_elephant_10_n02504458_5086.JPEG
subject-03,1,582,0.946696043014526,elephant,truck,0.60,0581_nse_s03_0.60_truck_10_n03417042_18554.JPEG
subject-03,1,583,1.09121108055115,knife,knife,0.10,0582_nse_s03_0.10_knife_10_n03041632_4494.JPEG
subject-03,1,584,0.87379002571106,dog,dog,0.00,0583_nse_s03_0.00_dog_10_n02111277_6039.JPEG
subject-03,1,585,1.06239104270935,bird,bird,0.00,0584_nse_s03_0.00_bird_10_n02011460_1799.JPEG
subject-03,1,586,0.506409883499146,cat,truck,0.90,0585_nse_s03_0.90_truck_10_n04467665_68116.JPEG
subject-03,1,587,0.979065895080566,knife,knife,0.20,0586_nse_s03_0.20_knife_10_n03041632_26236.JPEG
subject-03,1,588,0.715861082077026,bottle,bottle,0.20,0587_nse_s03_0.20_bottle_10_n03983396_574.JPEG
subject-03,1,589,0.68724799156189,cat,chair,0.90,0588_nse_s03_0.90_chair_10_n04099969_2146.JPEG
subject-03,1,590,0.78569507598877,oven,oven,0.00,0589_nse_s03_0.00_oven_10_n04111531_11655.JPEG
subject-03,1,591,0.743755102157593,truck,boat,0.00,0590_nse_s03_0.00_boat_10_n03662601_30311.JPEG
subject-03,1,592,1.00034713745117,car,cat,0.60,0591_nse_s03_0.60_cat_10_n02123159_6873.JPEG
subject-03,1,593,0.944781064987183,oven,truck,0.35,0592_nse_s03_0.35_truck_10_n03417042_12836.JPEG
subject-03,1,594,0.973214864730835,bird,bird,0.20,0593_nse_s03_0.20_bird_10_n01514859_7615.JPEG
subject-03,1,595,0.97768497467041,dog,cat,0.00,0594_nse_s03_0.00_cat_10_n02124075_10971.JPEG
subject-03,1,596,0.965208053588867,truck,truck,0.00,0595_nse_s03_0.00_truck_10_n04467665_450.JPEG
subject-03,1,597,0.763659000396729,bird,cat,0.10,0596_nse_s03_0.10_cat_10_n02123045_4931.JPEG
subject-03,1,598,0.751846075057983,cat,truck,0.60,0597_nse_s03_0.60_truck_10_n04467665_19747.JPEG
subject-03,1,599,0.710080862045288,bicycle,bicycle,0.35,0598_nse_s03_0.35_bicycle_10_n02835271_13256.JPEG
subject-03,1,600,0.722038984298706,oven,bird,0.60,0599_nse_s03_0.60_bird_10_n01818515_551.JPEG
subject-03,1,601,0.663022994995117,chair,chair,0.10,0600_nse_s03_0.10_chair_10_n02791124_2597.JPEG
subject-03,1,602,NaN,na,bicycle,0.90,0601_nse_s03_0.90_bicycle_10_n02835271_11332.JPEG
subject-03,1,603,1.07966899871826,knife,knife,0.03,0602_nse_s03_0.03_knife_10_n03041632_1006.JPEG
subject-03,1,604,0.659040212631226,cat,bird,0.10,0603_nse_s03_0.10_bird_10_n01829413_3514.JPEG
subject-03,1,605,0.833515882492065,chair,boat,0.00,0604_nse_s03_0.00_boat_10_n02951358_21120.JPEG
subject-03,1,606,0.884099006652832,bicycle,oven,0.10,0605_nse_s03_0.10_oven_10_n04111531_2677.JPEG
subject-03,1,607,0.628664970397949,car,car,0.00,0606_nse_s03_0.00_car_10_n03100240_17711.JPEG
subject-03,1,608,0.640899896621704,boat,oven,0.60,0607_nse_s03_0.60_oven_10_n04111531_2575.JPEG
subject-03,1,609,0.745282888412476,knife,oven,0.20,0608_nse_s03_0.20_oven_10_n04111531_7283.JPEG
subject-03,1,610,0.778287887573242,cat,bottle,0.90,0609_nse_s03_0.90_bottle_10_n02823428_7806.JPEG
subject-03,1,611,0.682435989379883,keyboard,keyboard,0.20,0610_nse_s03_0.20_keyboard_10_n03085013_15576.JPEG
subject-03,1,612,1.17868685722351,clock,clock,0.00,0611_nse_s03_0.00_clock_10_n04548280_7478.JPEG
subject-03,1,613,0.761198997497559,dog,dog,0.03,0612_nse_s03_0.03_dog_10_n02109525_31778.JPEG
subject-03,1,614,0.957393169403076,knife,knife,0.10,0613_nse_s03_0.10_knife_10_n03041632_80317.JPEG
subject-03,1,615,1.00190305709839,oven,dog,0.90,0614_nse_s03_0.90_dog_10_n02086240_4275.JPEG
subject-03,1,616,0.597708940505981,oven,clock,0.60,0615_nse_s03_0.60_clock_10_n04548280_3098.JPEG
subject-03,1,617,0.650029897689819,bicycle,bicycle,0.03,0616_nse_s03_0.03_bicycle_10_n03792782_1661.JPEG
subject-03,1,618,0.992677927017212,knife,knife,0.20,0617_nse_s03_0.20_knife_10_n03041632_24113.JPEG
subject-03,1,619,0.911350011825562,cat,clock,0.03,0618_nse_s03_0.03_clock_10_n02708093_1144.JPEG
subject-03,1,620,1.31525301933289,elephant,bear,0.00,0619_nse_s03_0.00_bear_10_n02134418_3442.JPEG
subject-03,1,621,0.913939952850342,elephant,elephant,0.35,0620_nse_s03_0.35_elephant_10_n02504458_5152.JPEG
subject-03,1,622,0.855946063995361,boat,clock,0.10,0621_nse_s03_0.10_clock_10_n02708093_468.JPEG
subject-03,1,623,1.11445784568787,elephant,elephant,0.00,0622_nse_s03_0.00_elephant_10_n02504013_4044.JPEG
subject-03,1,624,0.964911937713623,bird,oven,0.20,0623_nse_s03_0.20_oven_10_n04111531_15569.JPEG
subject-03,1,625,0.845844984054565,dog,cat,0.20,0624_nse_s03_0.20_cat_10_n02123045_11547.JPEG
subject-03,1,626,0.993511915206909,dog,airplane,0.90,0625_nse_s03_0.90_airplane_10_n02690373_997.JPEG
subject-03,1,627,1.32224106788635,oven,cat,0.03,0626_nse_s03_0.03_cat_10_n02123159_4847.JPEG
subject-03,1,628,0.958652019500732,elephant,bear,0.03,0627_nse_s03_0.03_bear_10_n02134418_4976.JPEG
subject-03,1,629,1.07703018188477,bird,dog,0.03,0628_nse_s03_0.03_dog_10_n02113712_2595.JPEG
subject-03,1,630,0.75935697555542,elephant,elephant,0.03,0629_nse_s03_0.03_elephant_10_n02504458_5996.JPEG
subject-03,1,631,0.717852115631104,truck,truck,0.05,0630_nse_s03_0.05_truck_10_n04467665_67078.JPEG
subject-03,1,632,1.26023507118225,knife,knife,0.00,0631_nse_s03_0.00_knife_10_n03041632_31271.JPEG
subject-03,1,633,1.07268500328064,keyboard,keyboard,0.05,0632_nse_s03_0.05_keyboard_10_n03085013_31364.JPEG
subject-03,1,634,0.800251007080078,keyboard,keyboard,0.03,0633_nse_s03_0.03_keyboard_10_n04505470_1371.JPEG
subject-03,1,635,1.18064785003662,bicycle,bicycle,0.00,0634_nse_s03_0.00_bicycle_10_n02835271_783.JPEG
subject-03,1,636,0.862571001052856,truck,truck,0.03,0635_nse_s03_0.03_truck_10_n03796401_5873.JPEG
subject-03,1,637,0.746561050415039,cat,bird,0.35,0636_nse_s03_0.35_bird_10_n01530575_5305.JPEG
subject-03,1,638,0.797302007675171,car,car,0.03,0637_nse_s03_0.03_car_10_n03100240_9412.JPEG
subject-03,1,639,0.693549871444702,truck,truck,0.20,0638_nse_s03_0.20_truck_10_n04467665_70071.JPEG
subject-03,1,640,0.783139944076538,cat,bird,0.90,0639_nse_s03_0.90_bird_10_n01592084_7914.JPEG
subject-03,1,641,1.11783003807068,cat,dog,0.00,0640_nse_s03_0.00_dog_10_n02096437_5312.JPEG
subject-03,1,642,0.608000040054321,keyboard,keyboard,0.03,0641_nse_s03_0.03_keyboard_10_n04505470_2321.JPEG
subject-03,1,643,0.725841045379639,airplane,airplane,0.05,0642_nse_s03_0.05_airplane_10_n02690373_2092.JPEG
subject-03,1,644,0.732470989227295,car,car,0.10,0643_nse_s03_0.10_car_10_n02814533_4279.JPEG
subject-03,1,645,0.650079965591431,airplane,airplane,0.35,0644_nse_s03_0.35_airplane_10_n02690373_5779.JPEG
subject-03,1,646,0.816407918930054,bicycle,bicycle,0.20,0645_nse_s03_0.20_bicycle_10_n02835271_5058.JPEG
subject-03,1,647,0.576687097549438,cat,cat,0.03,0646_nse_s03_0.03_cat_10_n02123159_7785.JPEG
subject-03,1,648,0.825634956359863,car,car,0.10,0647_nse_s03_0.10_car_10_n04285008_3805.JPEG
subject-03,1,649,0.775469064712524,chair,chair,0.00,0648_nse_s03_0.00_chair_10_n02791124_2260.JPEG
subject-03,1,650,0.765590190887451,clock,clock,0.35,0649_nse_s03_0.35_clock_10_n04548280_9217.JPEG
subject-03,1,651,0.631731986999512,chair,chair,0.00,0650_nse_s03_0.00_chair_10_n04429376_54018.JPEG
subject-03,1,652,0.582125902175903,cat,dog,0.05,0651_nse_s03_0.05_dog_10_n02097130_7126.JPEG
subject-03,1,653,0.902617931365967,knife,knife,0.20,0652_nse_s03_0.20_knife_10_n03041632_40887.JPEG
subject-03,1,654,0.798919916152954,clock,chair,0.35,0653_nse_s03_0.35_chair_10_n02791124_1113.JPEG
subject-03,1,655,0.672945976257324,oven,boat,0.05,0654_nse_s03_0.05_boat_10_n03344393_3358.JPEG
subject-03,1,656,0.685735940933228,chair,chair,0.10,0655_nse_s03_0.10_chair_10_n04429376_805.JPEG
subject-03,1,657,0.794977903366089,bottle,bottle,0.20,0656_nse_s03_0.20_bottle_10_n04591713_3281.JPEG
subject-03,1,658,0.94715404510498,dog,dog,0.35,0657_nse_s03_0.35_dog_10_n02107908_5305.JPEG
subject-03,1,659,1.50010204315186,dog,bear,0.03,0658_nse_s03_0.03_bear_10_n02132136_1574.JPEG
subject-03,1,660,0.472188949584961,airplane,airplane,0.05,0659_nse_s03_0.05_airplane_10_n02690373_1538.JPEG
subject-03,1,661,0.738250970840454,keyboard,keyboard,0.20,0660_nse_s03_0.20_keyboard_10_n03085013_7573.JPEG
subject-03,1,662,1.27050495147705,car,car,0.05,0661_nse_s03_0.05_car_10_n04285008_3269.JPEG
subject-03,1,663,0.581768989562988,boat,clock,0.60,0662_nse_s03_0.60_clock_10_n04548280_260.JPEG
subject-03,1,664,0.855942964553833,bicycle,bicycle,0.10,0663_nse_s03_0.10_bicycle_10_n02835271_19019.JPEG
subject-03,1,665,0.698364019393921,clock,clock,0.03,0664_nse_s03_0.03_clock_10_n04548280_5137.JPEG
subject-03,1,666,0.605180978775024,airplane,airplane,0.03,0665_nse_s03_0.03_airplane_10_n02690373_15392.JPEG
subject-03,1,667,0.785737037658691,oven,oven,0.05,0666_nse_s03_0.05_oven_10_n04111531_2260.JPEG
subject-03,1,668,0.483735799789429,oven,cat,0.60,0667_nse_s03_0.60_cat_10_n02123394_8379.JPEG
subject-03,1,669,0.902374029159546,boat,boat,0.03,0668_nse_s03_0.03_boat_10_n04612504_14490.JPEG
subject-03,1,670,0.822582006454468,boat,oven,0.90,0669_nse_s03_0.90_oven_10_n04111531_7603.JPEG
subject-03,1,671,0.750975847244263,knife,clock,0.35,0670_nse_s03_0.35_clock_10_n04548280_3864.JPEG
subject-03,1,672,0.985502004623413,airplane,elephant,0.00,0671_nse_s03_0.00_elephant_10_n02504013_1103.JPEG
subject-03,1,673,0.689785957336426,airplane,airplane,0.03,0672_nse_s03_0.03_airplane_10_n02690373_2232.JPEG
subject-03,1,674,0.626510143280029,airplane,bear,0.90,0673_nse_s03_0.90_bear_10_n02132136_6664.JPEG
subject-03,1,675,0.92262601852417,airplane,chair,0.60,0674_nse_s03_0.60_chair_10_n03376595_5773.JPEG
subject-03,1,676,0.618334054946899,airplane,boat,0.60,0675_nse_s03_0.60_boat_10_n04612504_2472.JPEG
subject-03,1,677,0.822746992111206,knife,knife,0.35,0676_nse_s03_0.35_knife_10_n03041632_11358.JPEG
subject-03,1,678,0.965058088302612,chair,bottle,0.10,0677_nse_s03_0.10_bottle_10_n02823428_3522.JPEG
subject-03,1,679,0.555238008499146,airplane,airplane,0.00,0678_nse_s03_0.00_airplane_10_n02690373_8813.JPEG
subject-03,1,680,0.751645803451538,elephant,dog,0.60,0679_nse_s03_0.60_dog_10_n02092339_3097.JPEG
subject-03,1,681,0.871522903442383,elephant,keyboard,0.60,0680_nse_s03_0.60_keyboard_10_n03085013_24122.JPEG
subject-03,1,682,0.811550855636597,bird,clock,0.90,0681_nse_s03_0.90_clock_10_n02708093_3006.JPEG
subject-03,1,683,0.617990970611572,cat,cat,0.05,0682_nse_s03_0.05_cat_10_n02123045_2608.JPEG
subject-03,1,684,0.521130084991455,cat,bear,0.60,0683_nse_s03_0.60_bear_10_n02132136_14549.JPEG
subject-03,1,685,1.03089618682861,bicycle,oven,0.35,0684_nse_s03_0.35_oven_10_n04111531_8330.JPEG
subject-03,1,686,1.05729794502258,truck,keyboard,0.60,0685_nse_s03_0.60_keyboard_10_n03085013_21030.JPEG
subject-03,1,687,0.84810996055603,truck,truck,0.10,0686_nse_s03_0.10_truck_10_n03796401_7694.JPEG
subject-03,1,688,0.751986980438232,dog,dog,0.05,0687_nse_s03_0.05_dog_10_n02102318_3269.JPEG
subject-03,1,689,0.620589971542358,bicycle,bicycle,0.05,0688_nse_s03_0.05_bicycle_10_n03792782_11911.JPEG
subject-03,1,690,0.708374977111816,bicycle,bicycle,0.05,0689_nse_s03_0.05_bicycle_10_n03792782_31116.JPEG
subject-03,1,691,0.675211906433105,keyboard,keyboard,0.35,0690_nse_s03_0.35_keyboard_10_n04505470_3566.JPEG
subject-03,1,692,0.647151947021484,keyboard,bird,0.90,0691_nse_s03_0.90_bird_10_n01797886_15816.JPEG
subject-03,1,693,0.467447996139526,oven,bird,0.90,0692_nse_s03_0.90_bird_10_n02009912_11557.JPEG
subject-03,1,694,0.579852104187012,airplane,airplane,0.60,0693_nse_s03_0.60_airplane_10_n02690373_2851.JPEG
subject-03,1,695,0.646272897720337,clock,knife,0.60,0694_nse_s03_0.60_knife_10_n03041632_36247.JPEG
subject-03,1,696,0.558969020843506,keyboard,keyboard,0.10,0695_nse_s03_0.10_keyboard_10_n04505470_5009.JPEG
subject-03,1,697,0.501729965209961,oven,airplane,0.90,0696_nse_s03_0.90_airplane_10_n02690373_9959.JPEG
subject-03,1,698,0.835736989974976,bicycle,bicycle,0.00,0697_nse_s03_0.00_bicycle_10_n02835271_9862.JPEG
subject-03,1,699,0.755055904388428,cat,oven,0.60,0698_nse_s03_0.60_oven_10_n04111531_5802.JPEG
subject-03,1,700,1.08938884735107,dog,cat,0.35,0699_nse_s03_0.35_cat_10_n02124075_9752.JPEG
subject-03,1,701,0.817363977432251,dog,bear,0.60,0700_nse_s03_0.60_bear_10_n02133161_4223.JPEG
subject-03,1,702,0.706233978271484,dog,dog,0.05,0701_nse_s03_0.05_dog_10_n02107142_10332.JPEG
subject-03,1,703,0.702640056610107,boat,boat,0.03,0702_nse_s03_0.03_boat_10_n03662601_33671.JPEG
subject-03,1,704,0.754916191101074,boat,bottle,0.90,0703_nse_s03_0.90_bottle_10_n04591713_6759.JPEG
subject-03,1,705,0.867173910140991,airplane,airplane,0.03,0704_nse_s03_0.03_airplane_10_n02690373_2447.JPEG
subject-03,1,706,0.809906005859375,car,car,0.03,0705_nse_s03_0.03_car_10_n03100240_5093.JPEG
subject-03,1,707,0.906167030334473,dog,chair,0.35,0706_nse_s03_0.35_chair_10_n04429376_52173.JPEG
subject-03,1,708,0.572011947631836,boat,boat,0.05,0707_nse_s03_0.05_boat_10_n03662601_6837.JPEG
subject-03,1,709,0.478339910507202,cat,bear,0.90,0708_nse_s03_0.90_bear_10_n02132136_16490.JPEG
subject-03,1,710,0.880645036697388,car,car,0.05,0709_nse_s03_0.05_car_10_n04285008_8242.JPEG
subject-03,1,711,0.653363943099976,car,dog,0.60,0710_nse_s03_0.60_dog_10_n02091134_7486.JPEG
subject-03,1,712,0.671401977539062,clock,clock,0.35,0711_nse_s03_0.35_clock_10_n02708093_2274.JPEG
subject-03,1,713,0.562195062637329,cat,cat,0.00,0712_nse_s03_0.00_cat_10_n02123159_5474.JPEG
subject-03,1,714,0.528074026107788,cat,oven,0.60,0713_nse_s03_0.60_oven_10_n04111531_15257.JPEG
subject-03,1,715,0.886826038360596,bicycle,bicycle,0.10,0714_nse_s03_0.10_bicycle_10_n03792782_14156.JPEG
subject-03,1,716,1.28895902633667,dog,cat,0.03,0715_nse_s03_0.03_cat_10_n02123159_8273.JPEG
subject-03,1,717,0.603420972824097,bear,chair,0.05,0716_nse_s03_0.05_chair_10_n04099969_36418.JPEG
subject-03,1,718,0.528677940368652,oven,oven,0.00,0717_nse_s03_0.00_oven_10_n04111531_2116.JPEG
subject-03,1,719,0.570514917373657,clock,clock,0.20,0718_nse_s03_0.20_clock_10_n03196217_981.JPEG
subject-03,1,720,0.736830949783325,bicycle,bicycle,0.03,0719_nse_s03_0.03_bicycle_10_n03792782_626.JPEG
subject-03,1,721,0.570885181427002,boat,boat,0.00,0720_nse_s03_0.00_boat_10_n03344393_1158.JPEG
subject-03,1,722,0.645307064056396,clock,clock,0.20,0721_nse_s03_0.20_clock_10_n02708093_1546.JPEG
subject-03,1,723,0.866717100143433,bottle,bottle,0.20,0722_nse_s03_0.20_bottle_10_n04560804_13922.JPEG
subject-03,1,724,0.50261402130127,clock,bear,0.60,0723_nse_s03_0.60_bear_10_n02134084_5435.JPEG
subject-03,1,725,0.729082107543945,knife,knife,0.00,0724_nse_s03_0.00_knife_10_n03041632_33739.JPEG
subject-03,1,726,NaN,na,clock,0.60,0725_nse_s03_0.60_clock_10_n02708093_3841.JPEG
subject-03,1,727,0.645847082138062,chair,chair,0.20,0726_nse_s03_0.20_chair_10_n04099969_1231.JPEG
subject-03,1,728,0.666369915008545,keyboard,keyboard,0.60,0727_nse_s03_0.60_keyboard_10_n04505470_1632.JPEG
subject-03,1,729,1.12299799919128,elephant,bear,0.00,0728_nse_s03_0.00_bear_10_n02132136_9571.JPEG
subject-03,1,730,0.613558053970337,clock,cat,0.35,0729_nse_s03_0.35_cat_10_n02123045_6618.JPEG
subject-03,1,731,0.574781179428101,cat,cat,0.60,0730_nse_s03_0.60_cat_10_n02123597_6296.JPEG
subject-03,1,732,0.855349779129028,airplane,airplane,0.20,0731_nse_s03_0.20_airplane_10_n02690373_5462.JPEG
subject-03,1,733,0.545983076095581,cat,bird,0.60,0732_nse_s03_0.60_bird_10_n02007558_10731.JPEG
subject-03,1,734,0.810352087020874,knife,knife,0.10,0733_nse_s03_0.10_knife_10_n03041632_14224.JPEG
subject-03,1,735,0.644196033477783,bottle,bottle,0.00,0734_nse_s03_0.00_bottle_10_n04560804_982.JPEG
subject-03,1,736,0.848119974136353,bird,bird,0.00,0735_nse_s03_0.00_bird_10_n02033041_5645.JPEG
subject-03,1,737,0.773330926895142,chair,chair,0.35,0736_nse_s03_0.35_chair_10_n03376595_3793.JPEG
subject-03,1,738,0.723932027816772,car,car,0.03,0737_nse_s03_0.03_car_10_n02814533_77492.JPEG
subject-03,1,739,1.10465383529663,elephant,bear,0.10,0738_nse_s03_0.10_bear_10_n02134084_15882.JPEG
subject-03,1,740,0.553760051727295,oven,elephant,0.90,0739_nse_s03_0.90_elephant_10_n02504013_104.JPEG
subject-03,1,741,0.457717895507812,boat,bottle,0.60,0740_nse_s03_0.60_bottle_10_n03983396_8311.JPEG
subject-03,1,742,0.739995002746582,car,car,0.00,0741_nse_s03_0.00_car_10_n02814533_66038.JPEG
subject-03,1,743,0.912345886230469,truck,truck,0.00,0742_nse_s03_0.00_truck_10_n04467665_3792.JPEG
subject-03,1,744,0.640394926071167,oven,truck,0.90,0743_nse_s03_0.90_truck_10_n04467665_9052.JPEG
subject-03,1,745,0.774680852890015,dog,cat,0.10,0744_nse_s03_0.10_cat_10_n02123597_165.JPEG
subject-03,1,746,0.779011964797974,oven,clock,0.90,0745_nse_s03_0.90_clock_10_n02708093_384.JPEG
subject-03,1,747,0.577631950378418,oven,keyboard,0.90,0746_nse_s03_0.90_keyboard_10_n04505470_1874.JPEG
subject-03,1,748,0.657577991485596,airplane,airplane,0.20,0747_nse_s03_0.20_airplane_10_n02690373_2059.JPEG
subject-03,1,749,0.769721984863281,dog,elephant,0.05,0748_nse_s03_0.05_elephant_10_n02504458_3823.JPEG
subject-03,1,750,0.71235203742981,cat,elephant,0.60,0749_nse_s03_0.60_elephant_10_n02504458_4348.JPEG
subject-03,1,751,0.907099962234497,airplane,bottle,0.10,0750_nse_s03_0.10_bottle_10_n02823428_5905.JPEG
subject-03,1,752,0.481004953384399,clock,chair,0.60,0751_nse_s03_0.60_chair_10_n04099969_755.JPEG
subject-03,1,753,0.806999921798706,bicycle,clock,0.90,0752_nse_s03_0.90_clock_10_n02708093_1246.JPEG
subject-03,1,754,0.55669093132019,chair,chair,0.00,0753_nse_s03_0.00_chair_10_n02791124_1895.JPEG
subject-03,1,755,0.637288808822632,chair,truck,0.05,0754_nse_s03_0.05_truck_10_n04467665_70122.JPEG
subject-03,1,756,0.666037082672119,bird,bear,0.05,0755_nse_s03_0.05_bear_10_n02133161_1525.JPEG
subject-03,1,757,0.90513801574707,cat,cat,0.35,0756_nse_s03_0.35_cat_10_n02125311_7490.JPEG
subject-03,1,758,0.573576927185059,airplane,airplane,0.03,0757_nse_s03_0.03_airplane_10_n02690373_4029.JPEG
subject-03,1,759,0.830323219299316,bicycle,bicycle,0.05,0758_nse_s03_0.05_bicycle_10_n02835271_13862.JPEG
subject-03,1,760,0.742666006088257,cat,oven,0.20,0759_nse_s03_0.20_oven_10_n04111531_6489.JPEG
subject-03,1,761,0.67111611366272,bicycle,bicycle,0.03,0760_nse_s03_0.03_bicycle_10_n02835271_4619.JPEG
subject-03,1,762,0.90465784072876,keyboard,keyboard,0.00,0761_nse_s03_0.00_keyboard_10_n03085013_19436.JPEG
subject-03,1,763,0.567946910858154,boat,boat,0.00,0762_nse_s03_0.00_boat_10_n04612504_3657.JPEG
subject-03,1,764,0.610146045684814,oven,bear,0.35,0763_nse_s03_0.35_bear_10_n02134418_1684.JPEG
subject-03,1,765,0.604909896850586,oven,elephant,0.60,0764_nse_s03_0.60_elephant_10_n02504013_8218.JPEG
subject-03,1,766,0.563513994216919,oven,truck,0.60,0765_nse_s03_0.60_truck_10_n04467665_8303.JPEG
subject-03,1,767,0.636044979095459,truck,truck,0.10,0766_nse_s03_0.10_truck_10_n04467665_71095.JPEG
subject-03,1,768,0.690544128417969,bicycle,elephant,0.20,0767_nse_s03_0.20_elephant_10_n02504013_5027.JPEG
subject-03,1,769,0.711282014846802,clock,bottle,0.20,0768_nse_s03_0.20_bottle_10_n03983396_9952.JPEG
subject-03,1,770,0.73182487487793,elephant,elephant,0.03,0769_nse_s03_0.03_elephant_10_n02504458_8288.JPEG
subject-03,1,771,0.82793402671814,knife,knife,0.20,0770_nse_s03_0.20_knife_10_n03041632_81943.JPEG
subject-03,1,772,NaN,na,boat,0.20,0771_nse_s03_0.20_boat_10_n04612504_9422.JPEG
subject-03,1,773,0.857492923736572,truck,truck,0.10,0772_nse_s03_0.10_truck_10_n04467665_37526.JPEG
subject-03,1,774,NaN,na,cat,0.35,0773_nse_s03_0.35_cat_10_n02123045_9486.JPEG
subject-03,1,775,0.512418031692505,airplane,airplane,0.00,0774_nse_s03_0.00_airplane_10_n02690373_12121.JPEG
subject-03,1,776,NaN,na,cat,0.05,0775_nse_s03_0.05_cat_10_n02125311_41645.JPEG
subject-03,1,777,0.575199842453003,cat,cat,0.03,0776_nse_s03_0.03_cat_10_n02123159_250.JPEG
subject-03,1,778,0.524677038192749,cat,oven,0.90,0777_nse_s03_0.90_oven_10_n04111531_10399.JPEG
subject-03,1,779,1.13095808029175,truck,truck,0.20,0778_nse_s03_0.20_truck_10_n03417042_9052.JPEG
subject-03,1,780,0.935364007949829,bottle,bottle,0.03,0779_nse_s03_0.03_bottle_10_n03983396_10321.JPEG
subject-03,1,781,0.877562999725342,elephant,elephant,0.05,0780_nse_s03_0.05_elephant_10_n02504458_8209.JPEG
subject-03,1,782,0.810363054275513,bear,bottle,0.35,0781_nse_s03_0.35_bottle_10_n04560804_16054.JPEG
subject-03,1,783,0.700358867645264,airplane,chair,0.05,0782_nse_s03_0.05_chair_10_n03376595_344.JPEG
subject-03,1,784,0.926623106002808,truck,truck,0.00,0783_nse_s03_0.00_truck_10_n03796401_7455.JPEG
subject-03,1,785,0.592683792114258,oven,oven,0.03,0784_nse_s03_0.03_oven_10_n04111531_4900.JPEG
subject-03,1,786,0.658497095108032,cat,dog,0.35,0785_nse_s03_0.35_dog_10_n02096051_60.JPEG
subject-03,1,787,0.563050985336304,cat,bird,0.20,0786_nse_s03_0.20_bird_10_n01817953_28111.JPEG
subject-03,1,788,0.613343000411987,cat,clock,0.35,0787_nse_s03_0.35_clock_10_n04548280_2827.JPEG
subject-03,1,789,0.780206918716431,airplane,bottle,0.00,0788_nse_s03_0.00_bottle_10_n03983396_3945.JPEG
subject-03,1,790,0.914931058883667,bird,bird,0.05,0789_nse_s03_0.05_bird_10_n01843065_5914.JPEG
subject-03,1,791,0.880441904067993,truck,truck,0.00,0790_nse_s03_0.00_truck_10_n04467665_64540.JPEG
subject-03,1,792,1.34483909606934,dog,cat,0.00,0791_nse_s03_0.00_cat_10_n02123597_2284.JPEG
subject-03,1,793,0.843003034591675,cat,chair,0.10,0792_nse_s03_0.10_chair_10_n02791124_1023.JPEG
subject-03,1,794,0.731332063674927,elephant,elephant,0.03,0793_nse_s03_0.03_elephant_10_n02504013_466.JPEG
subject-03,1,795,0.7519211769104,elephant,elephant,0.10,0794_nse_s03_0.10_elephant_10_n02504013_4116.JPEG
subject-03,1,796,0.588073968887329,oven,chair,0.90,0795_nse_s03_0.90_chair_10_n03376595_14765.JPEG
subject-03,1,797,0.590206861495972,clock,bird,0.90,0796_nse_s03_0.90_bird_10_n02017213_10247.JPEG
subject-03,1,798,0.772138118743896,cat,keyboard,0.20,0797_nse_s03_0.20_keyboard_10_n03085013_5950.JPEG
subject-03,1,799,0.998500823974609,truck,truck,0.20,0798_nse_s03_0.20_truck_10_n03796401_7296.JPEG
subject-03,1,800,0.810699939727783,car,truck,0.90,0799_nse_s03_0.90_truck_10_n03417042_3886.JPEG
subject-03,1,801,0.546924114227295,oven,oven,0.05,0800_nse_s03_0.05_oven_10_n04111531_17006.JPEG
subject-03,1,802,0.734733104705811,car,car,0.10,0801_nse_s03_0.10_car_10_n03100240_584.JPEG
subject-03,1,803,0.815001964569092,car,car,0.00,0802_nse_s03_0.00_car_10_n03100240_2012.JPEG
subject-03,1,804,0.98674488067627,boat,boat,0.20,0803_nse_s03_0.20_boat_10_n03662601_17209.JPEG
subject-03,1,805,0.715147018432617,oven,oven,0.03,0804_nse_s03_0.03_oven_10_n04111531_9210.JPEG
subject-03,1,806,0.664895057678223,cat,truck,0.90,0805_nse_s03_0.90_truck_10_n04467665_6268.JPEG
subject-03,1,807,0.807366847991943,cat,dog,0.60,0806_nse_s03_0.60_dog_10_n02106166_12092.JPEG
subject-03,1,808,0.690404891967773,cat,bird,0.90,0807_nse_s03_0.90_bird_10_n01818515_41786.JPEG
subject-03,1,809,1.27844214439392,cat,bear,0.03,0808_nse_s03_0.03_bear_10_n02133161_5562.JPEG
subject-03,1,810,0.628407001495361,boat,bicycle,0.60,0809_nse_s03_0.60_bicycle_10_n02835271_8654.JPEG
subject-03,1,811,0.916648864746094,dog,cat,0.20,0810_nse_s03_0.20_cat_10_n02125311_4059.JPEG
subject-03,1,812,0.828518867492676,elephant,bear,0.00,0811_nse_s03_0.00_bear_10_n02133161_7545.JPEG
subject-03,1,813,0.830414056777954,cat,bird,0.90,0812_nse_s03_0.90_bird_10_n01601694_16465.JPEG
subject-03,1,814,0.619791984558105,boat,bicycle,0.90,0813_nse_s03_0.90_bicycle_10_n03792782_10437.JPEG
subject-03,1,815,0.615421056747437,bottle,bottle,0.05,0814_nse_s03_0.05_bottle_10_n03983396_4882.JPEG
subject-03,1,816,0.918027877807617,bear,bear,0.10,0815_nse_s03_0.10_bear_10_n02134084_10390.JPEG
subject-03,1,817,0.52366304397583,cat,elephant,0.35,0816_nse_s03_0.35_elephant_10_n02504013_2128.JPEG
subject-03,1,818,0.817989110946655,bottle,bottle,0.00,0817_nse_s03_0.00_bottle_10_n03983396_4143.JPEG
subject-03,1,819,0.678604125976562,clock,clock,0.00,0818_nse_s03_0.00_clock_10_n03196217_8956.JPEG
subject-03,1,820,0.951108932495117,truck,truck,0.00,0819_nse_s03_0.00_truck_10_n03417042_18551.JPEG
subject-03,1,821,0.717226028442383,clock,clock,0.20,0820_nse_s03_0.20_clock_10_n03196217_7637.JPEG
subject-03,1,822,0.613030910491943,oven,chair,0.60,0821_nse_s03_0.60_chair_10_n04429376_3898.JPEG
subject-03,1,823,0.83409595489502,knife,knife,0.10,0822_nse_s03_0.10_knife_10_n03041632_1671.JPEG
subject-03,1,824,0.862757921218872,clock,clock,0.03,0823_nse_s03_0.03_clock_10_n04548280_4951.JPEG
subject-03,1,825,1.01296091079712,bird,bird,0.03,0824_nse_s03_0.03_bird_10_n01530575_3749.JPEG
subject-03,1,826,0.713254928588867,clock,airplane,0.35,0825_nse_s03_0.35_airplane_10_n02690373_6755.JPEG
subject-03,1,827,0.809283018112183,bicycle,bicycle,0.00,0826_nse_s03_0.00_bicycle_10_n03792782_24203.JPEG
subject-03,1,828,0.745328903198242,chair,dog,0.60,0827_nse_s03_0.60_dog_10_n02107312_4363.JPEG
subject-03,1,829,1.15619492530823,bear,bear,0.35,0828_nse_s03_0.35_bear_10_n02133161_2404.JPEG
subject-03,1,830,0.83069896697998,car,car,0.00,0829_nse_s03_0.00_car_10_n04285008_15385.JPEG
subject-03,1,831,0.705130100250244,airplane,airplane,0.03,0830_nse_s03_0.03_airplane_10_n02690373_2389.JPEG
subject-03,1,832,1.0036199092865,truck,truck,0.05,0831_nse_s03_0.05_truck_10_n03417042_152.JPEG
subject-03,1,833,0.753828048706055,cat,bottle,0.60,0832_nse_s03_0.60_bottle_10_n03983396_5089.JPEG
subject-03,1,834,0.666531801223755,clock,bottle,0.03,0833_nse_s03_0.03_bottle_10_n04560804_2014.JPEG
subject-03,1,835,0.56149697303772,airplane,airplane,0.10,0834_nse_s03_0.10_airplane_10_n02690373_10231.JPEG
subject-03,1,836,0.625802040100098,car,oven,0.35,0835_nse_s03_0.35_oven_10_n04111531_14095.JPEG
subject-03,1,837,0.738358974456787,airplane,boat,0.90,0836_nse_s03_0.90_boat_10_n04273569_21187.JPEG
subject-03,1,838,0.674658060073853,knife,knife,0.03,0837_nse_s03_0.03_knife_10_n03041632_39836.JPEG
subject-03,1,839,0.768446922302246,airplane,dog,0.20,0838_nse_s03_0.20_dog_10_n02087394_9973.JPEG
subject-03,1,840,0.856338977813721,car,car,0.00,0839_nse_s03_0.00_car_10_n02814533_93804.JPEG
subject-03,1,841,0.946413993835449,oven,oven,0.20,0840_nse_s03_0.20_oven_10_n04111531_23215.JPEG
subject-03,1,842,1.02652192115784,oven,clock,0.10,0841_nse_s03_0.10_clock_10_n04548280_2826.JPEG
subject-03,1,843,0.616717100143433,clock,truck,0.90,0842_nse_s03_0.90_truck_10_n03417042_2315.JPEG
subject-03,1,844,0.821753978729248,keyboard,keyboard,0.20,0843_nse_s03_0.20_keyboard_10_n04505470_4552.JPEG
subject-03,1,845,0.788335800170898,knife,knife,0.00,0844_nse_s03_0.00_knife_10_n03041632_1556.JPEG
subject-03,1,846,0.752032995223999,keyboard,oven,0.03,0845_nse_s03_0.03_oven_10_n04111531_7067.JPEG
subject-03,1,847,0.671947956085205,cat,cat,0.00,0846_nse_s03_0.00_cat_10_n02124075_4797.JPEG
subject-03,1,848,0.80866003036499,bicycle,bicycle,0.10,0847_nse_s03_0.10_bicycle_10_n02835271_7945.JPEG
subject-03,1,849,0.704685926437378,cat,clock,0.60,0848_nse_s03_0.60_clock_10_n04548280_5974.JPEG
subject-03,1,850,0.592670202255249,cat,dog,0.00,0849_nse_s03_0.00_dog_10_n02101388_10557.JPEG
subject-03,1,851,1.01870894432068,car,car,0.20,0850_nse_s03_0.20_car_10_n02814533_3561.JPEG
subject-03,1,852,0.84661602973938,chair,chair,0.10,0851_nse_s03_0.10_chair_10_n04099969_12456.JPEG
subject-03,1,853,0.496301174163818,clock,bicycle,0.60,0852_nse_s03_0.60_bicycle_10_n02835271_8573.JPEG
subject-03,1,854,0.539030075073242,oven,boat,0.90,0853_nse_s03_0.90_boat_10_n03344393_396.JPEG
subject-03,1,855,0.871948003768921,elephant,elephant,0.35,0854_nse_s03_0.35_elephant_10_n02504458_1327.JPEG
subject-03,1,856,0.998054981231689,clock,clock,0.00,0855_nse_s03_0.00_clock_10_n04548280_13730.JPEG
subject-03,1,857,0.547722101211548,cat,cat,0.00,0856_nse_s03_0.00_cat_10_n02123159_7210.JPEG
subject-03,1,858,1.0305609703064,bird,bear,0.00,0857_nse_s03_0.00_bear_10_n02133161_2112.JPEG
subject-03,1,859,0.764955997467041,truck,truck,0.20,0858_nse_s03_0.20_truck_10_n04467665_54791.JPEG
subject-03,1,860,0.768609046936035,cat,bird,0.35,0859_nse_s03_0.35_bird_10_n01819313_4470.JPEG
subject-03,1,861,0.957143068313599,oven,bicycle,0.05,0860_nse_s03_0.05_bicycle_10_n02835271_8982.JPEG
subject-03,1,862,0.73173999786377,oven,elephant,0.90,0861_nse_s03_0.90_elephant_10_n02504458_8902.JPEG
subject-03,1,863,0.998125076293945,bicycle,knife,0.00,0862_nse_s03_0.00_knife_10_n03041632_82197.JPEG
subject-03,1,864,0.796411037445068,airplane,airplane,0.03,0863_nse_s03_0.03_airplane_10_n02690373_4845.JPEG
subject-03,1,865,1.01511788368225,keyboard,keyboard,0.10,0864_nse_s03_0.10_keyboard_10_n04505470_2102.JPEG
subject-03,1,866,0.935518026351929,bird,bird,0.05,0865_nse_s03_0.05_bird_10_n02028035_20270.JPEG
subject-03,1,867,0.725666046142578,bottle,chair,0.10,0866_nse_s03_0.10_chair_10_n04429376_14171.JPEG
subject-03,1,868,0.560340166091919,cat,bottle,0.90,0867_nse_s03_0.90_bottle_10_n03937543_3453.JPEG
subject-03,1,869,0.939838886260986,chair,chair,0.00,0868_nse_s03_0.00_chair_10_n02791124_549.JPEG
subject-03,1,870,0.727696180343628,cat,bird,0.90,0869_nse_s03_0.90_bird_10_n01592084_6476.JPEG
subject-03,1,871,0.726890087127686,car,car,0.60,0870_nse_s03_0.60_car_10_n03100240_5118.JPEG
subject-03,1,872,0.793192148208618,car,car,0.90,0871_nse_s03_0.90_car_10_n03100240_4461.JPEG
subject-03,1,873,0.781203031539917,airplane,airplane,0.00,0872_nse_s03_0.00_airplane_10_n02690373_6090.JPEG
subject-03,1,874,0.856382846832275,truck,bear,0.00,0873_nse_s03_0.00_bear_10_n02133161_215.JPEG
subject-03,1,875,0.806003093719482,airplane,bear,0.20,0874_nse_s03_0.20_bear_10_n02134084_646.JPEG
subject-03,1,876,0.864552974700928,knife,knife,0.35,0875_nse_s03_0.35_knife_10_n03041632_21818.JPEG
subject-03,1,877,0.660688877105713,bicycle,bicycle,0.10,0876_nse_s03_0.10_bicycle_10_n02835271_9097.JPEG
subject-03,1,878,1.08112692832947,bear,elephant,0.03,0877_nse_s03_0.03_elephant_10_n02504458_5355.JPEG
subject-03,1,879,0.671162843704224,keyboard,cat,0.60,0878_nse_s03_0.60_cat_10_n02123597_8005.JPEG
subject-03,1,880,0.94386100769043,bicycle,knife,0.35,0879_nse_s03_0.35_knife_10_n03041632_7116.JPEG
subject-03,1,881,0.896569967269897,bicycle,bicycle,0.35,0880_nse_s03_0.35_bicycle_10_n03792782_31347.JPEG
subject-03,1,882,0.817263126373291,keyboard,keyboard,0.05,0881_nse_s03_0.05_keyboard_10_n04505470_6312.JPEG
subject-03,1,883,0.88959002494812,car,airplane,0.60,0882_nse_s03_0.60_airplane_10_n02690373_4105.JPEG
subject-03,1,884,0.763531923294067,boat,clock,0.60,0883_nse_s03_0.60_clock_10_n04548280_9700.JPEG
subject-03,1,885,0.835440874099731,oven,chair,0.35,0884_nse_s03_0.35_chair_10_n03376595_1044.JPEG
subject-03,1,886,0.833961963653564,keyboard,keyboard,0.05,0885_nse_s03_0.05_keyboard_10_n03085013_7879.JPEG
subject-03,1,887,0.737889051437378,airplane,airplane,0.05,0886_nse_s03_0.05_airplane_10_n02690373_4452.JPEG
subject-03,1,888,0.777257919311523,cat,bear,0.10,0887_nse_s03_0.10_bear_10_n02134418_4685.JPEG
subject-03,1,889,1.05169606208801,airplane,airplane,0.35,0888_nse_s03_0.35_airplane_10_n02690373_4107.JPEG
subject-03,1,890,0.876897811889648,airplane,cat,0.90,0889_nse_s03_0.90_cat_10_n02123394_3083.JPEG
subject-03,1,891,1.41129612922668,chair,bottle,0.35,0890_nse_s03_0.35_bottle_10_n04579145_5138.JPEG
subject-03,1,892,0.993572950363159,airplane,airplane,0.60,0891_nse_s03_0.60_airplane_10_n02690373_18468.JPEG
subject-03,1,893,0.704977989196777,airplane,bear,0.90,0892_nse_s03_0.90_bear_10_n02132136_10030.JPEG
subject-03,1,894,1.0150089263916,airplane,boat,0.10,0893_nse_s03_0.10_boat_10_n02951358_35173.JPEG
subject-03,1,895,0.8212730884552,cat,bottle,0.10,0894_nse_s03_0.10_bottle_10_n03983396_15659.JPEG
subject-03,1,896,0.887180805206299,chair,oven,0.35,0895_nse_s03_0.35_oven_10_n04111531_6120.JPEG
subject-03,1,897,0.989303827285767,car,truck,0.20,0896_nse_s03_0.20_truck_10_n03417042_2293.JPEG
subject-03,1,898,0.741995811462402,bear,elephant,0.35,0897_nse_s03_0.35_elephant_10_n02504013_5774.JPEG
subject-03,1,899,0.788821935653687,oven,knife,0.90,0898_nse_s03_0.90_knife_10_n03041632_30958.JPEG
subject-03,1,900,0.611199855804443,oven,keyboard,0.90,0899_nse_s03_0.90_keyboard_10_n03085013_23354.JPEG
subject-03,1,901,0.893784046173096,keyboard,keyboard,0.20,0900_nse_s03_0.20_keyboard_10_n04505470_3122.JPEG
subject-03,1,902,0.716559886932373,keyboard,keyboard,0.90,0901_nse_s03_0.90_keyboard_10_n04505470_2865.JPEG
subject-03,1,903,0.698416948318481,clock,clock,0.00,0902_nse_s03_0.00_clock_10_n04548280_1945.JPEG
subject-03,1,904,0.573140144348145,clock,bear,0.90,0903_nse_s03_0.90_bear_10_n02132136_3621.JPEG
subject-03,1,905,0.653649091720581,keyboard,keyboard,0.03,0904_nse_s03_0.03_keyboard_10_n04505470_4887.JPEG
subject-03,1,906,0.896148920059204,keyboard,oven,0.35,0905_nse_s03_0.35_oven_10_n04111531_9548.JPEG
subject-03,1,907,1.01683688163757,truck,truck,0.05,0906_nse_s03_0.05_truck_10_n04467665_45314.JPEG
subject-03,1,908,0.590503931045532,oven,airplane,0.90,0907_nse_s03_0.90_airplane_10_n02690373_6200.JPEG
subject-03,1,909,0.786586999893188,boat,knife,0.00,0908_nse_s03_0.00_knife_10_n03041632_84012.JPEG
subject-03,1,910,0.676820039749146,elephant,elephant,0.10,0909_nse_s03_0.10_elephant_10_n02504458_5271.JPEG
subject-03,1,911,0.859287977218628,cat,cat,0.03,0910_nse_s03_0.03_cat_10_n02123045_2627.JPEG
subject-03,1,912,0.780088901519775,cat,bear,0.05,0911_nse_s03_0.05_bear_10_n02133161_4239.JPEG
subject-03,1,913,0.876638889312744,truck,bear,0.60,0912_nse_s03_0.60_bear_10_n02132136_4813.JPEG
subject-03,1,914,0.817378044128418,airplane,airplane,0.35,0913_nse_s03_0.35_airplane_10_n02690373_5247.JPEG
subject-03,1,915,1.26592803001404,dog,bear,0.03,0914_nse_s03_0.03_bear_10_n02134084_22791.JPEG
subject-03,1,916,0.704548835754395,elephant,elephant,0.10,0915_nse_s03_0.10_elephant_10_n02504458_259.JPEG
subject-03,1,917,1.07647395133972,chair,chair,0.05,0916_nse_s03_0.05_chair_10_n02791124_5405.JPEG
subject-03,1,918,0.672266006469727,cat,clock,0.35,0917_nse_s03_0.35_clock_10_n02708093_7969.JPEG
subject-03,1,919,1.09017491340637,car,car,0.05,0918_nse_s03_0.05_car_10_n02814533_74242.JPEG
subject-03,1,920,0.658608913421631,oven,bottle,0.03,0919_nse_s03_0.03_bottle_10_n04560804_14221.JPEG
subject-03,1,921,0.809065103530884,car,car,0.03,0920_nse_s03_0.03_car_10_n03100240_17768.JPEG
subject-03,1,922,0.783652067184448,truck,truck,0.03,0921_nse_s03_0.03_truck_10_n04467665_69545.JPEG
subject-03,1,923,0.910279989242554,dog,dog,0.00,0922_nse_s03_0.00_dog_10_n02110063_11235.JPEG
subject-03,1,924,0.629738092422485,boat,boat,0.20,0923_nse_s03_0.20_boat_10_n04612504_15254.JPEG
subject-03,1,925,0.758235931396484,boat,bicycle,0.35,0924_nse_s03_0.35_bicycle_10_n03792782_15282.JPEG
subject-03,1,926,0.840514898300171,keyboard,chair,0.03,0925_nse_s03_0.03_chair_10_n02791124_2313.JPEG
subject-03,1,927,0.974896192550659,keyboard,oven,0.60,0926_nse_s03_0.60_oven_10_n04111531_4988.JPEG
subject-03,1,928,0.911406993865967,elephant,elephant,0.20,0927_nse_s03_0.20_elephant_10_n02504458_4587.JPEG
subject-03,1,929,0.661449909210205,airplane,airplane,0.20,0928_nse_s03_0.20_airplane_10_n02690373_7573.JPEG
subject-03,1,930,0.588768005371094,airplane,truck,0.90,0929_nse_s03_0.90_truck_10_n03417042_10694.JPEG
subject-03,1,931,0.66911792755127,airplane,boat,0.90,0930_nse_s03_0.90_boat_10_n03344393_5805.JPEG
subject-03,1,932,0.920270919799805,chair,chair,0.20,0931_nse_s03_0.20_chair_10_n03376595_9322.JPEG
subject-03,1,933,0.785957098007202,bottle,bottle,0.00,0932_nse_s03_0.00_bottle_10_n04560804_917.JPEG
subject-03,1,934,0.635963916778564,bottle,chair,0.60,0933_nse_s03_0.60_chair_10_n03376595_6850.JPEG
subject-03,1,935,0.986672163009644,car,car,0.05,0934_nse_s03_0.05_car_10_n04285008_3950.JPEG
subject-03,1,936,0.630259037017822,clock,clock,0.03,0935_nse_s03_0.03_clock_10_n04548280_7321.JPEG
subject-03,1,937,0.672545194625854,oven,oven,0.10,0936_nse_s03_0.10_oven_10_n04111531_19631.JPEG
subject-03,1,938,0.635293960571289,airplane,airplane,0.10,0937_nse_s03_0.10_airplane_10_n02690373_863.JPEG
subject-03,1,939,0.93087100982666,bear,bear,0.03,0938_nse_s03_0.03_bear_10_n02133161_400.JPEG
subject-03,1,940,0.564982175827026,chair,chair,0.10,0939_nse_s03_0.10_chair_10_n04429376_616.JPEG
subject-03,1,941,0.668086051940918,chair,knife,0.60,0940_nse_s03_0.60_knife_10_n03041632_42156.JPEG
subject-03,1,942,0.725770950317383,chair,dog,0.03,0941_nse_s03_0.03_dog_10_n02106382_1990.JPEG
subject-03,1,943,0.689543008804321,airplane,airplane,0.00,0942_nse_s03_0.00_airplane_10_n02690373_14117.JPEG
subject-03,1,944,0.718274831771851,truck,truck,0.05,0943_nse_s03_0.05_truck_10_n03417042_1561.JPEG
subject-03,1,945,0.613924026489258,cat,boat,0.90,0944_nse_s03_0.90_boat_10_n03662601_5104.JPEG
subject-03,1,946,0.671982049942017,boat,airplane,0.90,0945_nse_s03_0.90_airplane_10_n02690373_3859.JPEG
subject-03,1,947,1.29855704307556,knife,knife,0.03,0946_nse_s03_0.03_knife_10_n03041632_2973.JPEG
subject-03,1,948,0.680631160736084,car,car,0.10,0947_nse_s03_0.10_car_10_n03100240_4420.JPEG
subject-03,1,949,0.776906967163086,cat,bottle,0.35,0948_nse_s03_0.35_bottle_10_n04560804_4724.JPEG
subject-03,1,950,NaN,na,bird,0.90,0949_nse_s03_0.90_bird_10_n01616318_1127.JPEG
subject-03,1,951,0.578646183013916,airplane,airplane,0.05,0950_nse_s03_0.05_airplane_10_n02690373_10061.JPEG
subject-03,1,952,0.743129968643188,cat,cat,0.20,0951_nse_s03_0.20_cat_10_n02123045_9492.JPEG
subject-03,1,953,0.646132946014404,cat,knife,0.90,0952_nse_s03_0.90_knife_10_n03041632_56217.JPEG
subject-03,1,954,0.736623048782349,clock,clock,0.20,0953_nse_s03_0.20_clock_10_n03196217_6672.JPEG
subject-03,1,955,0.811631202697754,oven,truck,0.20,0954_nse_s03_0.20_truck_10_n03417042_10517.JPEG
subject-03,1,956,0.547743082046509,oven,keyboard,0.60,0955_nse_s03_0.60_keyboard_10_n04505470_8364.JPEG
subject-03,1,957,0.736195087432861,bird,cat,0.05,0956_nse_s03_0.05_cat_10_n02123159_7369.JPEG
subject-03,1,958,0.678451061248779,airplane,airplane,0.35,0957_nse_s03_0.35_airplane_10_n02690373_1663.JPEG
subject-03,1,959,0.644661903381348,clock,bottle,0.05,0958_nse_s03_0.05_bottle_10_n04557648_444.JPEG
subject-03,1,960,0.618777990341187,car,car,0.03,0959_nse_s03_0.03_car_10_n02814533_22824.JPEG
subject-03,1,961,0.731083154678345,boat,keyboard,0.90,0960_nse_s03_0.90_keyboard_10_n04505470_4723.JPEG
subject-03,1,962,0.974263906478882,airplane,bird,0.05,0961_nse_s03_0.05_bird_10_n01819313_3661.JPEG
subject-03,1,963,0.899814128875732,truck,boat,0.05,0962_nse_s03_0.05_boat_10_n03662601_13157.JPEG
subject-03,1,964,0.698292970657349,oven,clock,0.90,0963_nse_s03_0.90_clock_10_n03196217_8509.JPEG
subject-03,1,965,1.05626511573792,boat,boat,0.05,0964_nse_s03_0.05_boat_10_n04612504_15256.JPEG
subject-03,1,966,NaN,na,oven,0.35,0965_nse_s03_0.35_oven_10_n04111531_5246.JPEG
subject-03,1,967,0.550725936889648,clock,knife,0.05,0966_nse_s03_0.05_knife_10_n03041632_39739.JPEG
subject-03,1,968,0.655206918716431,cat,cat,0.05,0967_nse_s03_0.05_cat_10_n02123045_6561.JPEG
subject-03,1,969,1.02741503715515,knife,knife,0.00,0968_nse_s03_0.00_knife_10_n03041632_27022.JPEG
subject-03,1,970,0.633166790008545,cat,bird,0.35,0969_nse_s03_0.35_bird_10_n02051845_14574.JPEG
subject-03,1,971,0.791831970214844,cat,cat,0.60,0970_nse_s03_0.60_cat_10_n02124075_13897.JPEG
subject-03,1,972,0.917598009109497,clock,clock,0.05,0971_nse_s03_0.05_clock_10_n03196217_9255.JPEG
subject-03,1,973,0.570071935653687,oven,oven,0.05,0972_nse_s03_0.05_oven_10_n04111531_3204.JPEG
subject-03,1,974,0.820835828781128,knife,bottle,0.00,0973_nse_s03_0.00_bottle_10_n02823428_14196.JPEG
subject-03,1,975,0.640408039093018,cat,oven,0.60,0974_nse_s03_0.60_oven_10_n04111531_13486.JPEG
subject-03,1,976,0.536217927932739,boat,oven,0.60,0975_nse_s03_0.60_oven_10_n04111531_7923.JPEG
subject-03,1,977,0.93775200843811,clock,clock,0.35,0976_nse_s03_0.35_clock_10_n03196217_8859.JPEG
subject-03,1,978,0.887496948242188,cat,oven,0.35,0977_nse_s03_0.35_oven_10_n04111531_12308.JPEG
subject-03,1,979,0.648062944412231,airplane,airplane,0.05,0978_nse_s03_0.05_airplane_10_n02690373_9718.JPEG
subject-03,1,980,0.668478965759277,airplane,airplane,0.10,0979_nse_s03_0.10_airplane_10_n02690373_3269.JPEG
subject-03,1,981,0.956619024276733,chair,bicycle,0.05,0980_nse_s03_0.05_bicycle_10_n02835271_1188.JPEG
subject-03,1,982,0.83112621307373,knife,knife,0.03,0981_nse_s03_0.03_knife_10_n03041632_52371.JPEG
subject-03,1,983,1.04827690124512,bicycle,keyboard,0.90,0982_nse_s03_0.90_keyboard_10_n03085013_23705.JPEG
subject-03,1,984,0.644011974334717,chair,chair,0.20,0983_nse_s03_0.20_chair_10_n03376595_524.JPEG
subject-03,1,985,0.742662906646729,oven,dog,0.90,0984_nse_s03_0.90_dog_10_n02096585_2479.JPEG
subject-03,1,986,0.792996168136597,chair,bottle,0.20,0985_nse_s03_0.20_bottle_10_n03983396_5694.JPEG
subject-03,1,987,1.10291504859924,oven,oven,0.00,0986_nse_s03_0.00_oven_10_n04111531_11279.JPEG
subject-03,1,988,0.863343954086304,oven,car,0.35,0987_nse_s03_0.35_car_10_n03100240_5247.JPEG
subject-03,1,989,0.696853160858154,chair,bicycle,0.00,0988_nse_s03_0.00_bicycle_10_n03792782_13324.JPEG
subject-03,1,990,0.617688179016113,boat,elephant,0.90,0989_nse_s03_0.90_elephant_10_n02504013_1519.JPEG
subject-03,1,991,0.843843936920166,car,car,0.20,0990_nse_s03_0.20_car_10_n02814533_39547.JPEG
subject-03,1,992,0.639311075210571,boat,oven,0.60,0991_nse_s03_0.60_oven_10_n04111531_136.JPEG
subject-03,1,993,0.989113092422485,car,airplane,0.03,0992_nse_s03_0.03_airplane_10_n02690373_3263.JPEG
subject-03,1,994,0.808918952941895,oven,knife,0.10,0993_nse_s03_0.10_knife_10_n03041632_43975.JPEG
subject-03,1,995,0.537966966629028,clock,airplane,0.35,0994_nse_s03_0.35_airplane_10_n02690373_5082.JPEG
subject-03,1,996,0.618458032608032,keyboard,keyboard,0.05,0995_nse_s03_0.05_keyboard_10_n03085013_7317.JPEG
subject-03,1,997,0.576288223266602,boat,bottle,0.35,0996_nse_s03_0.35_bottle_10_n03983396_1758.JPEG
subject-03,1,998,0.742794990539551,bicycle,bicycle,0.05,0997_nse_s03_0.05_bicycle_10_n03792782_10526.JPEG
subject-03,1,999,0.68464207649231,bottle,bottle,0.10,0998_nse_s03_0.10_bottle_10_n04557648_5064.JPEG
subject-03,1,1000,0.758363962173462,elephant,elephant,0.10,0999_nse_s03_0.10_elephant_10_n02504013_7210.JPEG
subject-03,1,1001,1.03114199638367,knife,keyboard,0.05,1000_nse_s03_0.05_keyboard_10_n03085013_13494.JPEG
subject-03,1,1002,0.751152038574219,bicycle,bicycle,0.00,1001_nse_s03_0.00_bicycle_10_n03792782_6030.JPEG
subject-03,1,1003,0.633603096008301,oven,oven,0.90,1002_nse_s03_0.90_oven_10_n04111531_6934.JPEG
subject-03,1,1004,0.553497076034546,boat,boat,0.35,1003_nse_s03_0.35_boat_10_n03662601_21346.JPEG
subject-03,1,1005,0.603689193725586,cat,airplane,0.90,1004_nse_s03_0.90_airplane_10_n02690373_3440.JPEG
subject-03,1,1006,0.875797986984253,boat,bottle,0.60,1005_nse_s03_0.60_bottle_10_n04591713_5662.JPEG
subject-03,1,1007,0.881588935852051,bird,bird,0.05,1006_nse_s03_0.05_bird_10_n01614925_4474.JPEG
subject-03,1,1008,0.678074836730957,oven,knife,0.20,1007_nse_s03_0.20_knife_10_n03041632_31849.JPEG
subject-03,1,1009,0.974674940109253,dog,dog,0.03,1008_nse_s03_0.03_dog_10_n02098286_6298.JPEG
