subj,session,trial,rt,object_response,category,condition,imagename
subject-05,1,1,0.881111860275269,bird,cat,0.35,0000_nse_s05_0.35_cat_10_n02123045_13192.JPEG
subject-05,1,2,0.471256017684937,boat,boat,0.03,0001_nse_s05_0.03_boat_10_n03662601_7271.JPEG
subject-05,1,3,0.647495031356812,chair,chair,0.03,0002_nse_s05_0.03_chair_10_n02791124_5908.JPEG
subject-05,1,4,0.706286191940308,boat,boat,0.20,0003_nse_s05_0.20_boat_10_n02951358_12218.JPEG
subject-05,1,5,0.720324039459229,airplane,airplane,0.00,0004_nse_s05_0.00_airplane_10_n02690373_10399.JPEG
subject-05,1,6,0.764498949050903,bicycle,dog,0.90,0005_nse_s05_0.90_dog_10_n02105641_10666.JPEG
subject-05,1,7,0.402834892272949,boat,dog,0.90,0006_nse_s05_0.90_dog_10_n02091831_4811.JPEG
subject-05,1,8,0.669289827346802,boat,boat,0.20,0007_nse_s05_0.20_boat_10_n02951358_1470.JPEG
subject-05,1,9,1.01385617256165,truck,truck,0.05,0008_nse_s05_0.05_truck_10_n03417042_7444.JPEG
subject-05,1,10,0.491729974746704,car,truck,0.60,0009_nse_s05_0.60_truck_10_n03796401_14203.JPEG
subject-05,1,11,1.14399313926697,cat,cat,0.00,0010_nse_s05_0.00_cat_10_n02124075_15658.JPEG
subject-05,1,12,0.582780838012695,boat,elephant,0.60,0011_nse_s05_0.60_elephant_10_n02504013_19419.JPEG
subject-05,1,13,0.477097988128662,clock,cat,0.60,0012_nse_s05_0.60_cat_10_n02125311_58059.JPEG
subject-05,1,14,0.591125011444092,clock,clock,0.05,0013_nse_s05_0.05_clock_10_n02708093_6628.JPEG
subject-05,1,15,1.49606609344482,truck,truck,0.03,0014_nse_s05_0.03_truck_10_n03417042_303.JPEG
subject-05,1,16,0.817770004272461,car,car,0.05,0015_nse_s05_0.05_car_10_n02814533_58462.JPEG
subject-05,1,17,0.646589040756226,bird,bird,0.10,0016_nse_s05_0.10_bird_10_n01558993_2024.JPEG
subject-05,1,18,0.722391843795776,airplane,airplane,0.35,0017_nse_s05_0.35_airplane_10_n02690373_8967.JPEG
subject-05,1,19,1.03170990943909,oven,bottle,0.90,0018_nse_s05_0.90_bottle_10_n04560804_6259.JPEG
subject-05,1,20,0.661927938461304,cat,bear,0.00,0019_nse_s05_0.00_bear_10_n02134418_3900.JPEG
subject-05,1,21,0.567748069763184,oven,truck,0.90,0020_nse_s05_0.90_truck_10_n03417042_3404.JPEG
subject-05,1,22,0.716670989990234,bear,bicycle,0.90,0021_nse_s05_0.90_bicycle_10_n02835271_3570.JPEG
subject-05,1,23,0.509046077728271,bottle,bird,0.90,0022_nse_s05_0.90_bird_10_n01537544_1666.JPEG
subject-05,1,24,1.20607304573059,dog,cat,0.10,0023_nse_s05_0.10_cat_10_n02123597_11915.JPEG
subject-05,1,25,0.590293169021606,car,bottle,0.60,0024_nse_s05_0.60_bottle_10_n04591713_3562.JPEG
subject-05,1,26,1.21915817260742,truck,truck,0.00,0025_nse_s05_0.00_truck_10_n03417042_9194.JPEG
subject-05,1,27,0.788693189620972,bicycle,bicycle,0.35,0026_nse_s05_0.35_bicycle_10_n03792782_22669.JPEG
subject-05,1,28,0.948495149612427,truck,truck,0.00,0027_nse_s05_0.00_truck_10_n03417042_2633.JPEG
subject-05,1,29,0.856917858123779,car,keyboard,0.20,0028_nse_s05_0.20_keyboard_10_n03085013_21049.JPEG
subject-05,1,30,0.709504127502441,oven,bird,0.60,0029_nse_s05_0.60_bird_10_n01829413_8401.JPEG
subject-05,1,31,0.777875900268555,elephant,clock,0.35,0030_nse_s05_0.35_clock_10_n04548280_8447.JPEG
subject-05,1,32,0.910325050354004,chair,knife,0.10,0031_nse_s05_0.10_knife_10_n03041632_33268.JPEG
subject-05,1,33,0.779016017913818,car,car,0.10,0032_nse_s05_0.10_car_10_n02814533_49890.JPEG
subject-05,1,34,1.17717885971069,dog,bear,0.10,0033_nse_s05_0.10_bear_10_n02134418_19487.JPEG
subject-05,1,35,0.601816892623901,cat,car,0.90,0034_nse_s05_0.90_car_10_n02814533_11762.JPEG
subject-05,1,36,0.716585874557495,chair,chair,0.10,0035_nse_s05_0.10_chair_10_n04099969_16296.JPEG
subject-05,1,37,0.723170042037964,elephant,elephant,0.03,0036_nse_s05_0.03_elephant_10_n02504013_1121.JPEG
subject-05,1,38,0.526501893997192,boat,bottle,0.60,0037_nse_s05_0.60_bottle_10_n04557648_10746.JPEG
subject-05,1,39,0.811175107955933,oven,oven,0.00,0038_nse_s05_0.00_oven_10_n04111531_7067.JPEG
subject-05,1,40,0.834205865859985,bicycle,bicycle,0.60,0039_nse_s05_0.60_bicycle_10_n02835271_24.JPEG
subject-05,1,41,1.11695003509521,elephant,elephant,0.00,0040_nse_s05_0.00_elephant_10_n02504013_17337.JPEG
subject-05,1,42,1.09921598434448,dog,dog,0.00,0041_nse_s05_0.00_dog_10_n02105162_10076.JPEG
subject-05,1,43,0.730052947998047,cat,knife,0.60,0042_nse_s05_0.60_knife_10_n03041632_48816.JPEG
subject-05,1,44,0.940644025802612,elephant,bottle,0.35,0043_nse_s05_0.35_bottle_10_n02823428_2463.JPEG
subject-05,1,45,0.693282842636108,car,keyboard,0.35,0044_nse_s05_0.35_keyboard_10_n03085013_15432.JPEG
subject-05,1,46,0.583226919174194,bear,truck,0.90,0045_nse_s05_0.90_truck_10_n04467665_1220.JPEG
subject-05,1,47,0.7238450050354,clock,bear,0.35,0046_nse_s05_0.35_bear_10_n02134084_8684.JPEG
subject-05,1,48,0.784390926361084,airplane,airplane,0.03,0047_nse_s05_0.03_airplane_10_n02690373_17307.JPEG
subject-05,1,49,1.02865600585938,boat,cat,0.10,0048_nse_s05_0.10_cat_10_n02125311_22186.JPEG
subject-05,1,50,0.910183191299438,dog,boat,0.60,0049_nse_s05_0.60_boat_10_n04612504_4217.JPEG
subject-05,1,51,0.754858016967773,airplane,airplane,0.10,0050_nse_s05_0.10_airplane_10_n02690373_1769.JPEG
subject-05,1,52,0.723173856735229,cat,truck,0.90,0051_nse_s05_0.90_truck_10_n03417042_634.JPEG
subject-05,1,53,0.723324060440063,airplane,airplane,0.10,0052_nse_s05_0.10_airplane_10_n02690373_4495.JPEG
subject-05,1,54,0.859980821609497,oven,oven,0.05,0053_nse_s05_0.05_oven_10_n04111531_2770.JPEG
subject-05,1,55,0.865742921829224,bear,bear,0.20,0054_nse_s05_0.20_bear_10_n02133161_9643.JPEG
subject-05,1,56,0.584837913513184,boat,boat,0.60,0055_nse_s05_0.60_boat_10_n02951358_12032.JPEG
subject-05,1,57,1.09650492668152,keyboard,keyboard,0.60,0056_nse_s05_0.60_keyboard_10_n03085013_15125.JPEG
subject-05,1,58,0.656907081604004,clock,bear,0.60,0057_nse_s05_0.60_bear_10_n02132136_495.JPEG
subject-05,1,59,0.643411874771118,oven,oven,0.35,0058_nse_s05_0.35_oven_10_n04111531_12147.JPEG
subject-05,1,60,0.61194109916687,cat,chair,0.20,0059_nse_s05_0.20_chair_10_n02791124_2375.JPEG
subject-05,1,61,0.693727970123291,bear,chair,0.90,0060_nse_s05_0.90_chair_10_n04429376_9121.JPEG
subject-05,1,62,0.709882020950317,keyboard,knife,0.35,0061_nse_s05_0.35_knife_10_n03041632_9580.JPEG
subject-05,1,63,0.73011302947998,chair,chair,0.03,0062_nse_s05_0.03_chair_10_n04099969_21883.JPEG
subject-05,1,64,0.565613985061646,cat,dog,0.10,0063_nse_s05_0.10_dog_10_n02105251_3195.JPEG
subject-05,1,65,0.633787870407104,cat,cat,0.03,0064_nse_s05_0.03_cat_10_n02125311_45976.JPEG
subject-05,1,66,0.662115097045898,boat,dog,0.20,0065_nse_s05_0.20_dog_10_n02091134_7144.JPEG
subject-05,1,67,0.711851835250854,bear,bottle,0.60,0066_nse_s05_0.60_bottle_10_n04560804_1703.JPEG
subject-05,1,68,0.806704998016357,clock,oven,0.90,0067_nse_s05_0.90_oven_10_n04111531_5776.JPEG
subject-05,1,69,0.912780046463013,elephant,elephant,0.00,0068_nse_s05_0.00_elephant_10_n02504458_5824.JPEG
subject-05,1,70,1.48470401763916,bird,bird,0.03,0069_nse_s05_0.03_bird_10_n01537544_3524.JPEG
subject-05,1,71,1.47396492958069,car,car,0.10,0070_nse_s05_0.10_car_10_n03100240_11428.JPEG
subject-05,1,72,0.988176107406616,elephant,elephant,0.05,0071_nse_s05_0.05_elephant_10_n02504013_3028.JPEG
subject-05,1,73,0.938107967376709,chair,elephant,0.20,0072_nse_s05_0.20_elephant_10_n02504458_6696.JPEG
subject-05,1,74,0.672599077224731,keyboard,keyboard,0.20,0073_nse_s05_0.20_keyboard_10_n04505470_5009.JPEG
subject-05,1,75,0.562880992889404,boat,bottle,0.60,0074_nse_s05_0.60_bottle_10_n04579145_164.JPEG
subject-05,1,76,1.17490601539612,dog,dog,0.10,0075_nse_s05_0.10_dog_10_n02107574_5816.JPEG
subject-05,1,77,0.781323194503784,elephant,elephant,0.03,0076_nse_s05_0.03_elephant_10_n02504458_5697.JPEG
subject-05,1,78,0.755328178405762,bear,cat,0.90,0077_nse_s05_0.90_cat_10_n02123394_141.JPEG
subject-05,1,79,1.50045680999756,dog,dog,0.05,0078_nse_s05_0.05_dog_10_n02109047_8106.JPEG
subject-05,1,80,0.91220498085022,elephant,bear,0.35,0079_nse_s05_0.35_bear_10_n02134084_8623.JPEG
subject-05,1,81,0.580341100692749,boat,boat,0.35,0080_nse_s05_0.35_boat_10_n03344393_1731.JPEG
subject-05,1,82,0.596430063247681,oven,cat,0.60,0081_nse_s05_0.60_cat_10_n02123045_10645.JPEG
subject-05,1,83,0.640548944473267,clock,clock,0.00,0082_nse_s05_0.00_clock_10_n03196217_1168.JPEG
subject-05,1,84,0.76282787322998,boat,bottle,0.90,0083_nse_s05_0.90_bottle_10_n02823428_7034.JPEG
subject-05,1,85,1.21707487106323,airplane,airplane,0.20,0084_nse_s05_0.20_airplane_10_n02690373_1381.JPEG
subject-05,1,86,1.23947691917419,cat,bear,0.03,0085_nse_s05_0.03_bear_10_n02134084_3755.JPEG
subject-05,1,87,0.584248065948486,oven,bird,0.90,0086_nse_s05_0.90_bird_10_n02002556_1364.JPEG
subject-05,1,88,0.464415073394775,boat,clock,0.60,0087_nse_s05_0.60_clock_10_n03196217_3645.JPEG
subject-05,1,89,0.722974061965942,elephant,elephant,0.35,0088_nse_s05_0.35_elephant_10_n02504458_5289.JPEG
subject-05,1,90,1.50034689903259,cat,cat,0.10,0089_nse_s05_0.10_cat_10_n02123394_384.JPEG
subject-05,1,91,1.01381683349609,cat,bird,0.20,0090_nse_s05_0.20_bird_10_n01514859_10666.JPEG
subject-05,1,92,0.652189970016479,boat,boat,0.00,0091_nse_s05_0.00_boat_10_n03344393_1016.JPEG
subject-05,1,93,1.0259108543396,dog,bird,0.05,0092_nse_s05_0.05_bird_10_n01558993_1081.JPEG
subject-05,1,94,0.803762197494507,boat,boat,0.10,0093_nse_s05_0.10_boat_10_n03662601_4451.JPEG
subject-05,1,95,0.831652879714966,bear,bear,0.10,0094_nse_s05_0.10_bear_10_n02132136_5193.JPEG
subject-05,1,96,0.90562891960144,bear,bear,0.10,0095_nse_s05_0.10_bear_10_n02133161_4957.JPEG
subject-05,1,97,0.934159994125366,airplane,airplane,0.03,0096_nse_s05_0.03_airplane_10_n02690373_4814.JPEG
subject-05,1,98,NaN,na,dog,0.10,0097_nse_s05_0.10_dog_10_n02086079_43180.JPEG
subject-05,1,99,0.69048810005188,clock,clock,0.20,0098_nse_s05_0.20_clock_10_n02708093_751.JPEG
subject-05,1,100,1.34334683418274,truck,truck,0.03,0099_nse_s05_0.03_truck_10_n03796401_478.JPEG
subject-05,1,101,0.940885782241821,clock,clock,0.10,0100_nse_s05_0.10_clock_10_n02708093_6743.JPEG
subject-05,1,102,0.785514831542969,boat,clock,0.05,0101_nse_s05_0.05_clock_10_n03196217_5300.JPEG
subject-05,1,103,1.06038093566895,bird,cat,0.00,0102_nse_s05_0.00_cat_10_n02123597_9668.JPEG
subject-05,1,104,1.15803217887878,oven,clock,0.10,0103_nse_s05_0.10_clock_10_n02708093_821.JPEG
subject-05,1,105,0.586607933044434,boat,boat,0.03,0104_nse_s05_0.03_boat_10_n02951358_15174.JPEG
subject-05,1,106,1.02230286598206,oven,oven,0.05,0105_nse_s05_0.05_oven_10_n04111531_7764.JPEG
subject-05,1,107,0.645173072814941,clock,clock,0.10,0106_nse_s05_0.10_clock_10_n02708093_3702.JPEG
subject-05,1,108,0.611232995986938,cat,bird,0.60,0107_nse_s05_0.60_bird_10_n02007558_2962.JPEG
subject-05,1,109,0.67319393157959,boat,bicycle,0.60,0108_nse_s05_0.60_bicycle_10_n02835271_6157.JPEG
subject-05,1,110,0.60102105140686,clock,chair,0.60,0109_nse_s05_0.60_chair_10_n02791124_2369.JPEG
subject-05,1,111,0.722656965255737,bicycle,oven,0.90,0110_nse_s05_0.90_oven_10_n04111531_10664.JPEG
subject-05,1,112,0.763230085372925,elephant,elephant,0.35,0111_nse_s05_0.35_elephant_10_n02504013_18217.JPEG
subject-05,1,113,0.767135858535767,airplane,boat,0.10,0112_nse_s05_0.10_boat_10_n03662601_36741.JPEG
subject-05,1,114,0.892691135406494,oven,cat,0.20,0113_nse_s05_0.20_cat_10_n02123394_578.JPEG
subject-05,1,115,1.2610170841217,airplane,airplane,0.03,0114_nse_s05_0.03_airplane_10_n02690373_5032.JPEG
subject-05,1,116,NaN,na,bird,0.03,0115_nse_s05_0.03_bird_10_n02007558_10368.JPEG
subject-05,1,117,0.744245052337646,airplane,airplane,0.10,0116_nse_s05_0.10_airplane_10_n02690373_9760.JPEG
subject-05,1,118,NaN,na,oven,0.90,0117_nse_s05_0.90_oven_10_n04111531_4998.JPEG
subject-05,1,119,1.23519992828369,dog,dog,0.03,0118_nse_s05_0.03_dog_10_n02108422_290.JPEG
subject-05,1,120,0.833847999572754,airplane,airplane,0.05,0119_nse_s05_0.05_airplane_10_n02690373_6534.JPEG
subject-05,1,121,0.702633142471313,boat,dog,0.35,0120_nse_s05_0.35_dog_10_n02102040_1148.JPEG
subject-05,1,122,0.667144060134888,oven,bird,0.35,0121_nse_s05_0.35_bird_10_n01820546_177.JPEG
subject-05,1,123,0.611663818359375,clock,car,0.60,0122_nse_s05_0.60_car_10_n02814533_77779.JPEG
subject-05,1,124,1.02951812744141,bear,truck,0.35,0123_nse_s05_0.35_truck_10_n03417042_8996.JPEG
subject-05,1,125,0.789891004562378,bicycle,bicycle,0.00,0124_nse_s05_0.00_bicycle_10_n02835271_12237.JPEG
subject-05,1,126,0.717658042907715,bottle,cat,0.90,0125_nse_s05_0.90_cat_10_n02123159_6320.JPEG
subject-05,1,127,0.746291875839233,bicycle,bicycle,0.35,0126_nse_s05_0.35_bicycle_10_n02835271_1536.JPEG
subject-05,1,128,0.952508926391602,dog,bear,0.00,0127_nse_s05_0.00_bear_10_n02133161_13314.JPEG
subject-05,1,129,0.864259958267212,elephant,elephant,0.00,0128_nse_s05_0.00_elephant_10_n02504013_8002.JPEG
subject-05,1,130,NaN,na,clock,0.90,0129_nse_s05_0.90_clock_10_n02708093_1665.JPEG
subject-05,1,131,1.50041198730469,bottle,bottle,0.00,0130_nse_s05_0.00_bottle_10_n02823428_6186.JPEG
subject-05,1,132,0.865015029907227,bird,bird,0.20,0131_nse_s05_0.20_bird_10_n01855672_9553.JPEG
subject-05,1,133,NaN,na,keyboard,0.10,0132_nse_s05_0.10_keyboard_10_n04505470_10337.JPEG
subject-05,1,134,0.877559185028076,cat,cat,0.03,0133_nse_s05_0.03_cat_10_n02124075_5273.JPEG
subject-05,1,135,0.746714115142822,cat,bear,0.20,0134_nse_s05_0.20_bear_10_n02134084_6561.JPEG
subject-05,1,136,0.474134922027588,boat,oven,0.20,0135_nse_s05_0.20_oven_10_n04111531_3911.JPEG
subject-05,1,137,0.485590934753418,clock,truck,0.60,0136_nse_s05_0.60_truck_10_n03796401_8037.JPEG
subject-05,1,138,0.797954082489014,airplane,airplane,0.10,0137_nse_s05_0.10_airplane_10_n02690373_4175.JPEG
subject-05,1,139,0.771836042404175,oven,dog,0.35,0138_nse_s05_0.35_dog_10_n02095570_7361.JPEG
subject-05,1,140,0.850702047348022,boat,boat,0.10,0139_nse_s05_0.10_boat_10_n03662601_11358.JPEG
subject-05,1,141,1.38692688941956,cat,bicycle,0.00,0140_nse_s05_0.00_bicycle_10_n03792782_18424.JPEG
subject-05,1,142,1.05590486526489,car,car,0.00,0141_nse_s05_0.00_car_10_n04285008_10442.JPEG
subject-05,1,143,1.40635108947754,boat,boat,0.05,0142_nse_s05_0.05_boat_10_n03344393_5350.JPEG
subject-05,1,144,0.636888027191162,boat,airplane,0.35,0143_nse_s05_0.35_airplane_10_n02690373_10061.JPEG
subject-05,1,145,0.613716125488281,clock,chair,0.05,0144_nse_s05_0.05_chair_10_n04429376_10546.JPEG
subject-05,1,146,0.750241041183472,boat,boat,0.03,0145_nse_s05_0.03_boat_10_n02951358_20960.JPEG
subject-05,1,147,1.40087294578552,cat,oven,0.60,0146_nse_s05_0.60_oven_10_n04111531_10403.JPEG
subject-05,1,148,1.24520111083984,cat,cat,0.35,0147_nse_s05_0.35_cat_10_n02123597_19450.JPEG
subject-05,1,149,0.629193067550659,cat,cat,0.05,0148_nse_s05_0.05_cat_10_n02123159_8118.JPEG
subject-05,1,150,1.13409185409546,bear,bear,0.05,0149_nse_s05_0.05_bear_10_n02133161_1084.JPEG
subject-05,1,151,0.777194976806641,truck,truck,0.10,0150_nse_s05_0.10_truck_10_n03417042_7005.JPEG
subject-05,1,152,0.875932216644287,bottle,bottle,0.03,0151_nse_s05_0.03_bottle_10_n03937543_3725.JPEG
subject-05,1,153,0.874429941177368,bear,bear,0.10,0152_nse_s05_0.10_bear_10_n02132136_24233.JPEG
subject-05,1,154,1.02830195426941,truck,truck,0.10,0153_nse_s05_0.10_truck_10_n03417042_8348.JPEG
subject-05,1,155,NaN,na,knife,0.03,0154_nse_s05_0.03_knife_10_n03041632_24998.JPEG
subject-05,1,156,0.503190040588379,cat,elephant,0.10,0155_nse_s05_0.10_elephant_10_n02504458_9876.JPEG
subject-05,1,157,0.961825847625732,knife,knife,0.00,0156_nse_s05_0.00_knife_10_n03041632_49513.JPEG
subject-05,1,158,1.136559009552,elephant,elephant,0.60,0157_nse_s05_0.60_elephant_10_n02504013_10149.JPEG
subject-05,1,159,1.18096613883972,bottle,bottle,0.03,0158_nse_s05_0.03_bottle_10_n03983396_2643.JPEG
subject-05,1,160,0.981030941009521,dog,dog,0.10,0159_nse_s05_0.10_dog_10_n02110185_6081.JPEG
subject-05,1,161,0.941107988357544,oven,truck,0.00,0160_nse_s05_0.00_truck_10_n03796401_29465.JPEG
subject-05,1,162,1.34534311294556,boat,dog,0.90,0161_nse_s05_0.90_dog_10_n02098286_1036.JPEG
subject-05,1,163,0.672359943389893,bear,bird,0.90,0162_nse_s05_0.90_bird_10_n02033041_1640.JPEG
subject-05,1,164,1.16261196136475,elephant,elephant,0.10,0163_nse_s05_0.10_elephant_10_n02504458_6670.JPEG
subject-05,1,165,NaN,na,knife,0.05,0164_nse_s05_0.05_knife_10_n03041632_28202.JPEG
subject-05,1,166,0.865383863449097,elephant,elephant,0.05,0165_nse_s05_0.05_elephant_10_n02504458_6163.JPEG
subject-05,1,167,1.4909839630127,clock,clock,0.10,0166_nse_s05_0.10_clock_10_n02708093_6597.JPEG
subject-05,1,168,0.745648860931396,bear,bear,0.03,0167_nse_s05_0.03_bear_10_n02132136_31909.JPEG
subject-05,1,169,0.88264799118042,dog,dog,0.00,0168_nse_s05_0.00_dog_10_n02093428_1745.JPEG
subject-05,1,170,1.14100193977356,cat,chair,0.03,0169_nse_s05_0.03_chair_10_n03376595_8228.JPEG
subject-05,1,171,1.18510103225708,keyboard,keyboard,0.03,0170_nse_s05_0.03_keyboard_10_n04505470_264.JPEG
subject-05,1,172,NaN,na,chair,0.05,0171_nse_s05_0.05_chair_10_n02791124_1140.JPEG
subject-05,1,173,1.44746017456055,clock,clock,0.60,0172_nse_s05_0.60_clock_10_n04548280_4686.JPEG
subject-05,1,174,1.15371203422546,bird,cat,0.90,0173_nse_s05_0.90_cat_10_n02124075_8950.JPEG
subject-05,1,175,0.64306902885437,boat,boat,0.20,0174_nse_s05_0.20_boat_10_n03662601_2285.JPEG
subject-05,1,176,1.25530409812927,bird,cat,0.03,0175_nse_s05_0.03_cat_10_n02123597_8247.JPEG
subject-05,1,177,0.783726930618286,boat,bird,0.90,0176_nse_s05_0.90_bird_10_n01534433_15215.JPEG
subject-05,1,178,0.640597105026245,bear,bird,0.90,0177_nse_s05_0.90_bird_10_n01798484_7763.JPEG
subject-05,1,179,0.847301006317139,elephant,bear,0.20,0178_nse_s05_0.20_bear_10_n02132136_4603.JPEG
subject-05,1,180,1.5002110004425,elephant,bottle,0.10,0179_nse_s05_0.10_bottle_10_n04560804_13915.JPEG
subject-05,1,181,1.50031399726868,chair,bear,0.60,0180_nse_s05_0.60_bear_10_n02134084_8216.JPEG
subject-05,1,182,1.2116870880127,clock,airplane,0.00,0181_nse_s05_0.00_airplane_10_n02690373_12896.JPEG
subject-05,1,183,0.970216989517212,cat,chair,0.20,0182_nse_s05_0.20_chair_10_n02791124_13951.JPEG
subject-05,1,184,0.82229208946228,boat,bird,0.60,0183_nse_s05_0.60_bird_10_n01824575_3514.JPEG
subject-05,1,185,1.03482389450073,bear,bicycle,0.35,0184_nse_s05_0.35_bicycle_10_n03792782_14966.JPEG
subject-05,1,186,0.824542999267578,elephant,knife,0.90,0185_nse_s05_0.90_knife_10_n03041632_28658.JPEG
subject-05,1,187,0.681030035018921,cat,chair,0.20,0186_nse_s05_0.20_chair_10_n02791124_15739.JPEG
subject-05,1,188,0.985785007476807,car,truck,0.00,0187_nse_s05_0.00_truck_10_n03417042_6504.JPEG
subject-05,1,189,1.3298671245575,bird,cat,0.05,0188_nse_s05_0.05_cat_10_n02123597_11798.JPEG
subject-05,1,190,0.90438985824585,dog,dog,0.05,0189_nse_s05_0.05_dog_10_n02099429_2605.JPEG
subject-05,1,191,0.740072011947632,boat,chair,0.90,0190_nse_s05_0.90_chair_10_n02791124_392.JPEG
subject-05,1,192,0.576510906219482,cat,bicycle,0.90,0191_nse_s05_0.90_bicycle_10_n03792782_9699.JPEG
subject-05,1,193,0.795814037322998,airplane,airplane,0.10,0192_nse_s05_0.10_airplane_10_n02690373_19329.JPEG
subject-05,1,194,0.670199871063232,cat,elephant,0.20,0193_nse_s05_0.20_elephant_10_n02504458_574.JPEG
subject-05,1,195,1.49691796302795,truck,truck,0.05,0194_nse_s05_0.05_truck_10_n04467665_10060.JPEG
subject-05,1,196,1.03988099098206,airplane,airplane,0.10,0195_nse_s05_0.10_airplane_10_n02690373_9293.JPEG
subject-05,1,197,0.883763074874878,boat,knife,0.90,0196_nse_s05_0.90_knife_10_n03041632_13846.JPEG
subject-05,1,198,NaN,na,dog,0.05,0197_nse_s05_0.05_dog_10_n02088466_10262.JPEG
subject-05,1,199,0.832273960113525,oven,oven,0.03,0198_nse_s05_0.03_oven_10_n04111531_4250.JPEG
subject-05,1,200,1.13692784309387,cat,dog,0.35,0199_nse_s05_0.35_dog_10_n02093754_5775.JPEG
subject-05,1,201,0.767385959625244,bottle,bottle,0.03,0200_nse_s05_0.03_bottle_10_n04591713_6501.JPEG
subject-05,1,202,0.617357015609741,boat,airplane,0.03,0201_nse_s05_0.03_airplane_10_n02690373_111.JPEG
subject-05,1,203,0.999344825744629,bear,elephant,0.90,0202_nse_s05_0.90_elephant_10_n02504013_644.JPEG
subject-05,1,204,0.757758855819702,chair,chair,0.10,0203_nse_s05_0.10_chair_10_n04099969_1040.JPEG
subject-05,1,205,1.23677897453308,clock,bird,0.90,0204_nse_s05_0.90_bird_10_n01797886_8692.JPEG
subject-05,1,206,0.605047941207886,cat,bear,0.03,0205_nse_s05_0.03_bear_10_n02134418_1281.JPEG
subject-05,1,207,0.909347057342529,bottle,bottle,0.35,0206_nse_s05_0.35_bottle_10_n03983396_10671.JPEG
subject-05,1,208,0.999776124954224,boat,boat,0.00,0207_nse_s05_0.00_boat_10_n02951358_8145.JPEG
subject-05,1,209,0.798110008239746,oven,oven,0.10,0208_nse_s05_0.10_oven_10_n04111531_8290.JPEG
subject-05,1,210,1.32500290870667,cat,bottle,0.35,0209_nse_s05_0.35_bottle_10_n04557648_10252.JPEG
subject-05,1,211,0.628909111022949,boat,bottle,0.90,0210_nse_s05_0.90_bottle_10_n02823428_1036.JPEG
subject-05,1,212,1.17982792854309,dog,dog,0.00,0211_nse_s05_0.00_dog_10_n02097209_1186.JPEG
subject-05,1,213,0.970241069793701,airplane,airplane,0.20,0212_nse_s05_0.20_airplane_10_n02690373_21731.JPEG
subject-05,1,214,0.786264181137085,boat,car,0.60,0213_nse_s05_0.60_car_10_n02814533_98174.JPEG
subject-05,1,215,0.61447286605835,clock,clock,0.03,0214_nse_s05_0.03_clock_10_n02708093_4201.JPEG
subject-05,1,216,1.11072492599487,bear,bicycle,0.60,0215_nse_s05_0.60_bicycle_10_n02835271_7362.JPEG
subject-05,1,217,0.868340969085693,clock,bear,0.60,0216_nse_s05_0.60_bear_10_n02132136_2358.JPEG
subject-05,1,218,0.883086204528809,cat,clock,0.10,0217_nse_s05_0.10_clock_10_n03196217_2853.JPEG
subject-05,1,219,1.07918906211853,boat,knife,0.03,0218_nse_s05_0.03_knife_10_n03041632_16104.JPEG
subject-05,1,220,0.807749032974243,bicycle,bicycle,0.00,0219_nse_s05_0.00_bicycle_10_n02835271_14914.JPEG
subject-05,1,221,1.09024095535278,cat,cat,0.00,0220_nse_s05_0.00_cat_10_n02123597_12736.JPEG
subject-05,1,222,0.764288902282715,clock,clock,0.03,0221_nse_s05_0.03_clock_10_n02708093_434.JPEG
subject-05,1,223,1.36282396316528,bottle,truck,0.00,0222_nse_s05_0.00_truck_10_n04467665_2295.JPEG
subject-05,1,224,1.02107810974121,cat,cat,0.03,0223_nse_s05_0.03_cat_10_n02123597_6517.JPEG
subject-05,1,225,0.665459156036377,boat,truck,0.60,0224_nse_s05_0.60_truck_10_n03796401_7199.JPEG
subject-05,1,226,0.677273035049438,oven,bear,0.05,0225_nse_s05_0.05_bear_10_n02133161_182.JPEG
subject-05,1,227,0.729197025299072,keyboard,keyboard,0.00,0226_nse_s05_0.00_keyboard_10_n03085013_17256.JPEG
subject-05,1,228,1.40166878700256,clock,clock,0.60,0227_nse_s05_0.60_clock_10_n04548280_21263.JPEG
subject-05,1,229,1.07567286491394,elephant,cat,0.03,0228_nse_s05_0.03_cat_10_n02123159_8096.JPEG
subject-05,1,230,0.711994886398315,cat,truck,0.20,0229_nse_s05_0.20_truck_10_n04467665_69613.JPEG
subject-05,1,231,1.22356295585632,boat,dog,0.90,0230_nse_s05_0.90_dog_10_n02096294_6678.JPEG
subject-05,1,232,1.00578999519348,bear,bear,0.05,0231_nse_s05_0.05_bear_10_n02133161_13010.JPEG
subject-05,1,233,1.50040292739868,car,keyboard,0.05,0232_nse_s05_0.05_keyboard_10_n04505470_10196.JPEG
subject-05,1,234,NaN,na,truck,0.90,0233_nse_s05_0.90_truck_10_n03417042_9967.JPEG
subject-05,1,235,1.10872912406921,oven,bear,0.20,0234_nse_s05_0.20_bear_10_n02134084_13394.JPEG
subject-05,1,236,0.60710597038269,cat,bear,0.00,0235_nse_s05_0.00_bear_10_n02134418_2561.JPEG
subject-05,1,237,1.12514209747314,dog,car,0.35,0236_nse_s05_0.35_car_10_n02814533_149.JPEG
subject-05,1,238,0.673815011978149,bird,bear,0.60,0237_nse_s05_0.60_bear_10_n02133161_3896.JPEG
subject-05,1,239,0.834048986434937,bottle,oven,0.00,0238_nse_s05_0.00_oven_10_n04111531_10313.JPEG
subject-05,1,240,0.976718187332153,bird,bird,0.03,0239_nse_s05_0.03_bird_10_n01828970_20295.JPEG
subject-05,1,241,0.904985904693604,airplane,airplane,0.03,0240_nse_s05_0.03_airplane_10_n02690373_18603.JPEG
subject-05,1,242,0.695726156234741,chair,chair,0.10,0241_nse_s05_0.10_chair_10_n04099969_45663.JPEG
subject-05,1,243,0.540149927139282,boat,elephant,0.35,0242_nse_s05_0.35_elephant_10_n02504013_15276.JPEG
subject-05,1,244,0.940665006637573,dog,dog,0.20,0243_nse_s05_0.20_dog_10_n02096051_1017.JPEG
subject-05,1,245,0.739245891571045,oven,oven,0.05,0244_nse_s05_0.05_oven_10_n04111531_10077.JPEG
subject-05,1,246,0.805585861206055,elephant,bird,0.05,0245_nse_s05_0.05_bird_10_n02006656_1136.JPEG
subject-05,1,247,0.940285921096802,knife,knife,0.10,0246_nse_s05_0.10_knife_10_n03041632_52371.JPEG
subject-05,1,248,NaN,na,bottle,0.00,0247_nse_s05_0.00_bottle_10_n04557648_2329.JPEG
subject-05,1,249,NaN,na,keyboard,0.00,0248_nse_s05_0.00_keyboard_10_n03085013_23369.JPEG
subject-05,1,250,0.776499032974243,bicycle,bicycle,0.20,0249_nse_s05_0.20_bicycle_10_n03792782_51296.JPEG
subject-05,1,251,0.658579111099243,oven,keyboard,0.60,0250_nse_s05_0.60_keyboard_10_n04505470_315.JPEG
subject-05,1,252,1.0872700214386,oven,oven,0.20,0251_nse_s05_0.20_oven_10_n04111531_15467.JPEG
subject-05,1,253,0.770553112030029,cat,bicycle,0.90,0252_nse_s05_0.90_bicycle_10_n03792782_7846.JPEG
subject-05,1,254,1.251060962677,boat,oven,0.35,0253_nse_s05_0.35_oven_10_n04111531_5304.JPEG
subject-05,1,255,NaN,na,knife,0.60,0254_nse_s05_0.60_knife_10_n03041632_92063.JPEG
subject-05,1,256,NaN,na,bear,0.20,0255_nse_s05_0.20_bear_10_n02133161_14741.JPEG
subject-05,1,257,0.801371097564697,truck,truck,0.03,0256_nse_s05_0.03_truck_10_n04467665_46073.JPEG
subject-05,1,258,0.797698020935059,bird,bird,0.05,0257_nse_s05_0.05_bird_10_n02033041_4383.JPEG
subject-05,1,259,1.12642002105713,clock,clock,0.00,0258_nse_s05_0.00_clock_10_n03196217_778.JPEG
subject-05,1,260,0.594547986984253,cat,keyboard,0.05,0259_nse_s05_0.05_keyboard_10_n03085013_22187.JPEG
subject-05,1,261,1.12077808380127,chair,chair,0.35,0260_nse_s05_0.35_chair_10_n04099969_13811.JPEG
subject-05,1,262,0.602686882019043,chair,chair,0.03,0261_nse_s05_0.03_chair_10_n04099969_2520.JPEG
subject-05,1,263,0.476485013961792,boat,car,0.90,0262_nse_s05_0.90_car_10_n02814533_83577.JPEG
subject-05,1,264,0.728986024856567,truck,truck,0.05,0263_nse_s05_0.05_truck_10_n03796401_22643.JPEG
subject-05,1,265,1.00329899787903,clock,clock,0.00,0264_nse_s05_0.00_clock_10_n03196217_3438.JPEG
subject-05,1,266,0.606443881988525,oven,elephant,0.35,0265_nse_s05_0.35_elephant_10_n02504013_410.JPEG
subject-05,1,267,1.20301413536072,boat,boat,0.00,0266_nse_s05_0.00_boat_10_n03344393_5467.JPEG
subject-05,1,268,0.914941072463989,chair,oven,0.03,0267_nse_s05_0.03_oven_10_n04111531_14913.JPEG
subject-05,1,269,0.659448862075806,car,car,0.00,0268_nse_s05_0.00_car_10_n03100240_6264.JPEG
subject-05,1,270,0.79552698135376,oven,clock,0.90,0269_nse_s05_0.90_clock_10_n04548280_116.JPEG
subject-05,1,271,0.548731088638306,clock,clock,0.35,0270_nse_s05_0.35_clock_10_n03196217_4464.JPEG
subject-05,1,272,0.576569795608521,boat,boat,0.03,0271_nse_s05_0.03_boat_10_n04273569_3691.JPEG
subject-05,1,273,0.675100088119507,cat,cat,0.10,0272_nse_s05_0.10_cat_10_n02124075_155.JPEG
subject-05,1,274,0.893502950668335,bicycle,bicycle,0.05,0273_nse_s05_0.05_bicycle_10_n02835271_3874.JPEG
subject-05,1,275,0.466062068939209,cat,keyboard,0.90,0274_nse_s05_0.90_keyboard_10_n03085013_21097.JPEG
subject-05,1,276,0.686100959777832,boat,bear,0.35,0275_nse_s05_0.35_bear_10_n02132136_3971.JPEG
subject-05,1,277,0.443958044052124,oven,bird,0.60,0276_nse_s05_0.60_bird_10_n01582220_4303.JPEG
subject-05,1,278,0.570994853973389,clock,bottle,0.60,0277_nse_s05_0.60_bottle_10_n03983396_10347.JPEG
subject-05,1,279,0.821178913116455,bicycle,bicycle,0.05,0278_nse_s05_0.05_bicycle_10_n03792782_4067.JPEG
subject-05,1,280,0.72545599937439,car,car,0.20,0279_nse_s05_0.20_car_10_n02814533_72473.JPEG
subject-05,1,281,0.740170955657959,bear,bear,0.03,0280_nse_s05_0.03_bear_10_n02133161_5658.JPEG
subject-05,1,282,0.82002592086792,clock,keyboard,0.20,0281_nse_s05_0.20_keyboard_10_n03085013_23030.JPEG
subject-05,1,283,0.672277927398682,oven,oven,0.00,0282_nse_s05_0.00_oven_10_n04111531_4809.JPEG
subject-05,1,284,0.771016836166382,bottle,bottle,0.05,0283_nse_s05_0.05_bottle_10_n03983396_10230.JPEG
subject-05,1,285,0.599364995956421,keyboard,keyboard,0.03,0284_nse_s05_0.03_keyboard_10_n04505470_1453.JPEG
subject-05,1,286,0.587743043899536,cat,car,0.60,0285_nse_s05_0.60_car_10_n02814533_33384.JPEG
subject-05,1,287,1.01144909858704,bottle,bottle,0.20,0286_nse_s05_0.20_bottle_10_n04560804_1956.JPEG
subject-05,1,288,0.893622875213623,airplane,airplane,0.00,0287_nse_s05_0.00_airplane_10_n02690373_883.JPEG
subject-05,1,289,NaN,na,boat,0.10,0288_nse_s05_0.10_boat_10_n03662601_12676.JPEG
subject-05,1,290,0.842561006546021,clock,keyboard,0.00,0289_nse_s05_0.00_keyboard_10_n04505470_54.JPEG
subject-05,1,291,1.09254717826843,bird,bird,0.20,0290_nse_s05_0.20_bird_10_n01843065_6690.JPEG
subject-05,1,292,0.845250844955444,bottle,bottle,0.00,0291_nse_s05_0.00_bottle_10_n04557648_9378.JPEG
subject-05,1,293,0.685340881347656,clock,bicycle,0.60,0292_nse_s05_0.60_bicycle_10_n02835271_239.JPEG
subject-05,1,294,0.613990068435669,bird,bird,0.35,0293_nse_s05_0.35_bird_10_n01818515_7424.JPEG
subject-05,1,295,0.512094020843506,oven,oven,0.03,0294_nse_s05_0.03_oven_10_n04111531_18430.JPEG
subject-05,1,296,0.482864856719971,boat,bear,0.35,0295_nse_s05_0.35_bear_10_n02133161_14761.JPEG
subject-05,1,297,0.741131067276001,car,car,0.35,0296_nse_s05_0.35_car_10_n04285008_6360.JPEG
subject-05,1,298,0.531601905822754,bear,bear,0.90,0297_nse_s05_0.90_bear_10_n02133161_4225.JPEG
subject-05,1,299,0.523987054824829,cat,bottle,0.20,0298_nse_s05_0.20_bottle_10_n04591713_5671.JPEG
subject-05,1,300,0.506441831588745,oven,cat,0.35,0299_nse_s05_0.35_cat_10_n02123045_11782.JPEG
subject-05,1,301,0.818241119384766,elephant,elephant,0.20,0300_nse_s05_0.20_elephant_10_n02504458_3727.JPEG
subject-05,1,302,0.703319072723389,keyboard,keyboard,0.00,0301_nse_s05_0.00_keyboard_10_n03085013_22996.JPEG
subject-05,1,303,1.13771820068359,cat,bird,0.05,0302_nse_s05_0.05_bird_10_n01817953_15203.JPEG
subject-05,1,304,0.720501184463501,oven,truck,0.03,0303_nse_s05_0.03_truck_10_n04467665_939.JPEG
subject-05,1,305,0.969444990158081,bottle,knife,0.20,0304_nse_s05_0.20_knife_10_n03041632_29343.JPEG
subject-05,1,306,0.898092985153198,bear,bear,0.35,0305_nse_s05_0.35_bear_10_n02133161_654.JPEG
subject-05,1,307,1.21852588653564,dog,dog,0.20,0306_nse_s05_0.20_dog_10_n02112018_5961.JPEG
subject-05,1,308,0.868932008743286,bird,bird,0.05,0307_nse_s05_0.05_bird_10_n01818515_12708.JPEG
subject-05,1,309,1.15941715240479,clock,clock,0.05,0308_nse_s05_0.05_clock_10_n04548280_5470.JPEG
subject-05,1,310,0.879932165145874,oven,oven,0.03,0309_nse_s05_0.03_oven_10_n04111531_4944.JPEG
subject-05,1,311,0.812772035598755,clock,clock,0.10,0310_nse_s05_0.10_clock_10_n04548280_4092.JPEG
subject-05,1,312,0.932848930358887,cat,cat,0.03,0311_nse_s05_0.03_cat_10_n02123597_8855.JPEG
subject-05,1,313,1.32309603691101,dog,bear,0.10,0312_nse_s05_0.10_bear_10_n02134084_12180.JPEG
subject-05,1,314,0.939588069915771,bird,dog,0.90,0313_nse_s05_0.90_dog_10_n02100735_3709.JPEG
subject-05,1,315,1.24443316459656,truck,truck,0.00,0314_nse_s05_0.00_truck_10_n03796401_5044.JPEG
subject-05,1,316,1.50017499923706,dog,dog,0.35,0315_nse_s05_0.35_dog_10_n02085936_6684.JPEG
subject-05,1,317,0.607460021972656,clock,truck,0.90,0316_nse_s05_0.90_truck_10_n03796401_4094.JPEG
subject-05,1,318,0.69603705406189,boat,elephant,0.20,0317_nse_s05_0.20_elephant_10_n02504458_2968.JPEG
subject-05,1,319,0.610368967056274,oven,knife,0.35,0318_nse_s05_0.35_knife_10_n03041632_44363.JPEG
subject-05,1,320,0.918545007705688,chair,chair,0.10,0319_nse_s05_0.10_chair_10_n04429376_19717.JPEG
subject-05,1,321,0.771476984024048,knife,knife,0.00,0320_nse_s05_0.00_knife_10_n03041632_44269.JPEG
subject-05,1,322,0.975491046905518,clock,elephant,0.60,0321_nse_s05_0.60_elephant_10_n02504458_2324.JPEG
subject-05,1,323,NaN,na,car,0.10,0322_nse_s05_0.10_car_10_n04285008_3922.JPEG
subject-05,1,324,0.645038843154907,cat,cat,0.60,0323_nse_s05_0.60_cat_10_n02123394_3179.JPEG
subject-05,1,325,0.535316944122314,boat,bicycle,0.35,0324_nse_s05_0.35_bicycle_10_n03792782_50847.JPEG
subject-05,1,326,0.606495141983032,oven,boat,0.60,0325_nse_s05_0.60_boat_10_n02951358_29669.JPEG
subject-05,1,327,1.13497495651245,cat,elephant,0.90,0326_nse_s05_0.90_elephant_10_n02504458_6155.JPEG
subject-05,1,328,0.563425064086914,bird,car,0.90,0327_nse_s05_0.90_car_10_n02814533_22822.JPEG
subject-05,1,329,1.45989012718201,bicycle,oven,0.03,0328_nse_s05_0.03_oven_10_n04111531_8723.JPEG
subject-05,1,330,1.01257014274597,clock,clock,0.03,0329_nse_s05_0.03_clock_10_n03196217_2814.JPEG
subject-05,1,331,NaN,na,bottle,0.35,0330_nse_s05_0.35_bottle_10_n02823428_4345.JPEG
subject-05,1,332,1.00127792358398,oven,clock,0.03,0331_nse_s05_0.03_clock_10_n02708093_5327.JPEG
subject-05,1,333,NaN,na,elephant,0.00,0332_nse_s05_0.00_elephant_10_n02504458_5083.JPEG
subject-05,1,334,0.750225067138672,keyboard,keyboard,0.20,0333_nse_s05_0.20_keyboard_10_n03085013_29865.JPEG
subject-05,1,335,0.537246942520142,cat,car,0.35,0334_nse_s05_0.35_car_10_n02814533_43509.JPEG
subject-05,1,336,0.711565971374512,car,car,0.05,0335_nse_s05_0.05_car_10_n02814533_1533.JPEG
subject-05,1,337,0.839866876602173,elephant,chair,0.00,0336_nse_s05_0.00_chair_10_n04429376_42430.JPEG
subject-05,1,338,0.764708042144775,chair,bear,0.20,0337_nse_s05_0.20_bear_10_n02134418_193.JPEG
subject-05,1,339,1.09314703941345,oven,bottle,0.35,0338_nse_s05_0.35_bottle_10_n03937543_1827.JPEG
subject-05,1,340,0.621884822845459,bicycle,bicycle,0.00,0339_nse_s05_0.00_bicycle_10_n02835271_9661.JPEG
subject-05,1,341,0.954801082611084,dog,elephant,0.35,0340_nse_s05_0.35_elephant_10_n02504458_4725.JPEG
subject-05,1,342,0.865988969802856,truck,truck,0.20,0341_nse_s05_0.20_truck_10_n03417042_2563.JPEG
subject-05,1,343,0.572659969329834,cat,cat,0.10,0342_nse_s05_0.10_cat_10_n02123045_9071.JPEG
subject-05,1,344,0.513087034225464,boat,car,0.35,0343_nse_s05_0.35_car_10_n03100240_20698.JPEG
subject-05,1,345,0.533390998840332,oven,oven,0.35,0344_nse_s05_0.35_oven_10_n04111531_15627.JPEG
subject-05,1,346,1.04627799987793,keyboard,cat,0.35,0345_nse_s05_0.35_cat_10_n02123045_4060.JPEG
subject-05,1,347,1.39232110977173,clock,knife,0.60,0346_nse_s05_0.60_knife_10_n03041632_45090.JPEG
subject-05,1,348,0.944564819335938,cat,keyboard,0.60,0347_nse_s05_0.60_keyboard_10_n04505470_1794.JPEG
subject-05,1,349,1.50030398368835,truck,truck,0.03,0348_nse_s05_0.03_truck_10_n04467665_63662.JPEG
subject-05,1,350,1.14340996742249,cat,truck,0.60,0349_nse_s05_0.60_truck_10_n04467665_23096.JPEG
subject-05,1,351,0.47964882850647,boat,bicycle,0.35,0350_nse_s05_0.35_bicycle_10_n02835271_10596.JPEG
subject-05,1,352,1.12241816520691,chair,chair,0.05,0351_nse_s05_0.05_chair_10_n02791124_5173.JPEG
subject-05,1,353,1.5003080368042,keyboard,oven,0.35,0352_nse_s05_0.35_oven_10_n04111531_5659.JPEG
subject-05,1,354,0.85312294960022,truck,truck,0.10,0353_nse_s05_0.10_truck_10_n04467665_22731.JPEG
subject-05,1,355,0.735472202301025,clock,clock,0.20,0354_nse_s05_0.20_clock_10_n04548280_360.JPEG
subject-05,1,356,0.675947904586792,cat,dog,0.20,0355_nse_s05_0.20_dog_10_n02108422_4677.JPEG
subject-05,1,357,0.986126899719238,knife,knife,0.05,0356_nse_s05_0.05_knife_10_n03041632_7680.JPEG
subject-05,1,358,NaN,na,chair,0.10,0357_nse_s05_0.10_chair_10_n04099969_2114.JPEG
subject-05,1,359,NaN,na,clock,0.10,0358_nse_s05_0.10_clock_10_n02708093_2012.JPEG
subject-05,1,360,1.16735911369324,oven,elephant,0.60,0359_nse_s05_0.60_elephant_10_n02504458_4228.JPEG
subject-05,1,361,0.533457040786743,cat,elephant,0.60,0360_nse_s05_0.60_elephant_10_n02504013_5811.JPEG
subject-05,1,362,0.562445878982544,bicycle,bicycle,0.03,0361_nse_s05_0.03_bicycle_10_n03792782_5284.JPEG
subject-05,1,363,0.698714017868042,chair,chair,0.35,0362_nse_s05_0.35_chair_10_n04099969_1717.JPEG
subject-05,1,364,1.433345079422,cat,elephant,0.03,0363_nse_s05_0.03_elephant_10_n02504013_10390.JPEG
subject-05,1,365,0.849070072174072,boat,knife,0.90,0364_nse_s05_0.90_knife_10_n03041632_47703.JPEG
subject-05,1,366,0.909448862075806,car,car,0.00,0365_nse_s05_0.00_car_10_n02814533_80.JPEG
subject-05,1,367,0.759639978408813,bird,bird,0.35,0366_nse_s05_0.35_bird_10_n01824575_1443.JPEG
subject-05,1,368,0.922365188598633,bear,bicycle,0.10,0367_nse_s05_0.10_bicycle_10_n03792782_7678.JPEG
subject-05,1,369,1.49427008628845,bottle,keyboard,0.35,0368_nse_s05_0.35_keyboard_10_n03085013_18979.JPEG
subject-05,1,370,1.04703783988953,chair,bear,0.20,0369_nse_s05_0.20_bear_10_n02134418_1085.JPEG
subject-05,1,371,1.00394010543823,bird,bird,0.10,0370_nse_s05_0.10_bird_10_n01592084_4316.JPEG
subject-05,1,372,NaN,na,bird,0.10,0371_nse_s05_0.10_bird_10_n01534433_13697.JPEG
subject-05,1,373,NaN,na,cat,0.20,0372_nse_s05_0.20_cat_10_n02123045_10553.JPEG
subject-05,1,374,0.535810947418213,boat,boat,0.03,0373_nse_s05_0.03_boat_10_n03344393_3784.JPEG
subject-05,1,375,0.601619958877563,oven,knife,0.10,0374_nse_s05_0.10_knife_10_n03041632_3504.JPEG
subject-05,1,376,0.689805030822754,bicycle,bicycle,0.00,0375_nse_s05_0.00_bicycle_10_n02835271_713.JPEG
subject-05,1,377,0.638964176177979,boat,bottle,0.90,0376_nse_s05_0.90_bottle_10_n03983396_4540.JPEG
subject-05,1,378,0.775499105453491,oven,bottle,0.60,0377_nse_s05_0.60_bottle_10_n04557648_3729.JPEG
subject-05,1,379,0.842263221740723,keyboard,keyboard,0.03,0378_nse_s05_0.03_keyboard_10_n03085013_16871.JPEG
subject-05,1,380,0.637834072113037,bicycle,bicycle,0.05,0379_nse_s05_0.05_bicycle_10_n03792782_10298.JPEG
subject-05,1,381,0.657801151275635,boat,knife,0.60,0380_nse_s05_0.60_knife_10_n03041632_27709.JPEG
subject-05,1,382,0.624540090560913,chair,oven,0.60,0381_nse_s05_0.60_oven_10_n04111531_4785.JPEG
subject-05,1,383,0.728418827056885,bird,bird,0.00,0382_nse_s05_0.00_bird_10_n01819313_4470.JPEG
subject-05,1,384,0.66451096534729,oven,car,0.05,0383_nse_s05_0.05_car_10_n02814533_37181.JPEG
subject-05,1,385,0.645118951797485,cat,chair,0.90,0384_nse_s05_0.90_chair_10_n02791124_885.JPEG
subject-05,1,386,1.02360320091248,keyboard,bottle,0.20,0385_nse_s05_0.20_bottle_10_n04560804_15967.JPEG
subject-05,1,387,0.857241868972778,dog,dog,0.10,0386_nse_s05_0.10_dog_10_n02088238_8037.JPEG
subject-05,1,388,0.869354009628296,clock,clock,0.00,0387_nse_s05_0.00_clock_10_n02708093_810.JPEG
subject-05,1,389,0.98039698600769,bear,elephant,0.35,0388_nse_s05_0.35_elephant_10_n02504458_26.JPEG
subject-05,1,390,1.09264206886292,car,boat,0.90,0389_nse_s05_0.90_boat_10_n04612504_27085.JPEG
subject-05,1,391,0.851287841796875,keyboard,keyboard,0.00,0390_nse_s05_0.00_keyboard_10_n03085013_20218.JPEG
subject-05,1,392,0.829464912414551,chair,truck,0.20,0391_nse_s05_0.20_truck_10_n03417042_2056.JPEG
subject-05,1,393,0.750059127807617,bear,chair,0.00,0392_nse_s05_0.00_chair_10_n04429376_27005.JPEG
subject-05,1,394,0.808447122573853,cat,knife,0.35,0393_nse_s05_0.35_knife_10_n03041632_56454.JPEG
subject-05,1,395,0.660914897918701,bicycle,bicycle,0.03,0394_nse_s05_0.03_bicycle_10_n03792782_8550.JPEG
subject-05,1,396,0.710510969161987,clock,clock,0.20,0395_nse_s05_0.20_clock_10_n04548280_5013.JPEG
subject-05,1,397,0.700988054275513,oven,knife,0.20,0396_nse_s05_0.20_knife_10_n03041632_20595.JPEG
subject-05,1,398,1.11541700363159,cat,clock,0.90,0397_nse_s05_0.90_clock_10_n02708093_2197.JPEG
subject-05,1,399,1.00610089302063,boat,boat,0.60,0398_nse_s05_0.60_boat_10_n04612504_5535.JPEG
subject-05,1,400,1.33455204963684,airplane,airplane,0.03,0399_nse_s05_0.03_airplane_10_n02690373_7046.JPEG
subject-05,1,401,0.84521222114563,cat,dog,0.60,0400_nse_s05_0.60_dog_10_n02090622_6745.JPEG
subject-05,1,402,1.08772301673889,oven,oven,0.05,0401_nse_s05_0.05_oven_10_n04111531_21896.JPEG
subject-05,1,403,0.992216825485229,boat,dog,0.90,0402_nse_s05_0.90_dog_10_n02096051_8027.JPEG
subject-05,1,404,NaN,na,boat,0.03,0403_nse_s05_0.03_boat_10_n03662601_3955.JPEG
subject-05,1,405,NaN,na,keyboard,0.20,0404_nse_s05_0.20_keyboard_10_n04505470_10129.JPEG
subject-05,1,406,0.744262933731079,clock,clock,0.60,0405_nse_s05_0.60_clock_10_n04548280_6210.JPEG
subject-05,1,407,0.585004091262817,oven,bicycle,0.20,0406_nse_s05_0.20_bicycle_10_n02835271_18361.JPEG
subject-05,1,408,0.889354944229126,chair,dog,0.03,0407_nse_s05_0.03_dog_10_n02107574_3018.JPEG
subject-05,1,409,0.571686983108521,boat,boat,0.05,0408_nse_s05_0.05_boat_10_n04273569_5891.JPEG
subject-05,1,410,0.917710065841675,bear,elephant,0.90,0409_nse_s05_0.90_elephant_10_n02504458_972.JPEG
subject-05,1,411,0.89133882522583,keyboard,keyboard,0.05,0410_nse_s05_0.05_keyboard_10_n03085013_17455.JPEG
subject-05,1,412,0.612178087234497,bird,bird,0.00,0411_nse_s05_0.00_bird_10_n02018795_5369.JPEG
subject-05,1,413,0.600610017776489,boat,truck,0.60,0412_nse_s05_0.60_truck_10_n03796401_16586.JPEG
subject-05,1,414,0.544749021530151,car,bicycle,0.90,0413_nse_s05_0.90_bicycle_10_n03792782_5020.JPEG
subject-05,1,415,0.702991962432861,oven,oven,0.20,0414_nse_s05_0.20_oven_10_n04111531_14488.JPEG
subject-05,1,416,0.937315940856934,elephant,elephant,0.10,0415_nse_s05_0.10_elephant_10_n02504013_24811.JPEG
subject-05,1,417,0.45734977722168,boat,airplane,0.90,0416_nse_s05_0.90_airplane_10_n02690373_9170.JPEG
subject-05,1,418,0.739058017730713,bear,airplane,0.60,0417_nse_s05_0.60_airplane_10_n02690373_6914.JPEG
subject-05,1,419,0.701644897460938,oven,truck,0.35,0418_nse_s05_0.35_truck_10_n04467665_34406.JPEG
subject-05,1,420,NaN,na,chair,0.35,0419_nse_s05_0.35_chair_10_n04429376_27560.JPEG
subject-05,1,421,1.33147215843201,boat,truck,0.03,0420_nse_s05_0.03_truck_10_n03796401_27514.JPEG
subject-05,1,422,0.788547992706299,chair,chair,0.10,0421_nse_s05_0.10_chair_10_n02791124_139.JPEG
subject-05,1,423,0.976321220397949,oven,knife,0.00,0422_nse_s05_0.00_knife_10_n03041632_30821.JPEG
subject-05,1,424,0.904988050460815,oven,knife,0.10,0423_nse_s05_0.10_knife_10_n03041632_289.JPEG
subject-05,1,425,0.930006980895996,clock,bottle,0.90,0424_nse_s05_0.90_bottle_10_n03983396_10089.JPEG
subject-05,1,426,0.665612936019897,elephant,elephant,0.03,0425_nse_s05_0.03_elephant_10_n02504458_2251.JPEG
subject-05,1,427,0.423882961273193,boat,boat,0.90,0426_nse_s05_0.90_boat_10_n03344393_2223.JPEG
subject-05,1,428,0.732176065444946,bird,bird,0.10,0427_nse_s05_0.10_bird_10_n01843065_915.JPEG
subject-05,1,429,0.467596054077148,cat,car,0.90,0428_nse_s05_0.90_car_10_n03100240_8987.JPEG
subject-05,1,430,0.909502983093262,knife,knife,0.05,0429_nse_s05_0.05_knife_10_n03041632_12242.JPEG
subject-05,1,431,0.734055995941162,bicycle,bird,0.35,0430_nse_s05_0.35_bird_10_n02027492_22478.JPEG
subject-05,1,432,0.462358951568604,cat,cat,0.00,0431_nse_s05_0.00_cat_10_n02124075_2676.JPEG
subject-05,1,433,0.650753974914551,bottle,bottle,0.05,0432_nse_s05_0.05_bottle_10_n02823428_4694.JPEG
subject-05,1,434,0.444988012313843,boat,airplane,0.60,0433_nse_s05_0.60_airplane_10_n02690373_3289.JPEG
subject-05,1,435,0.773130893707275,bottle,knife,0.35,0434_nse_s05_0.35_knife_10_n03041632_27832.JPEG
subject-05,1,436,1.00728297233582,keyboard,keyboard,0.03,0435_nse_s05_0.03_keyboard_10_n03085013_21678.JPEG
subject-05,1,437,0.756063938140869,clock,keyboard,0.35,0436_nse_s05_0.35_keyboard_10_n03085013_3691.JPEG
subject-05,1,438,0.560467004776001,oven,knife,0.35,0437_nse_s05_0.35_knife_10_n03041632_4260.JPEG
subject-05,1,439,0.96470308303833,car,car,0.20,0438_nse_s05_0.20_car_10_n03100240_16861.JPEG
subject-05,1,440,0.568203926086426,oven,oven,0.05,0439_nse_s05_0.05_oven_10_n04111531_12843.JPEG
subject-05,1,441,0.964983224868774,dog,dog,0.35,0440_nse_s05_0.35_dog_10_n02098286_2798.JPEG
subject-05,1,442,0.925342082977295,oven,clock,0.20,0441_nse_s05_0.20_clock_10_n03196217_11063.JPEG
subject-05,1,443,0.615957021713257,boat,oven,0.90,0442_nse_s05_0.90_oven_10_n04111531_1398.JPEG
subject-05,1,444,1.27189803123474,car,car,0.05,0443_nse_s05_0.05_car_10_n04285008_16604.JPEG
subject-05,1,445,1.00820398330688,bicycle,clock,0.03,0444_nse_s05_0.03_clock_10_n02708093_7956.JPEG
subject-05,1,446,0.498225927352905,boat,bear,0.90,0445_nse_s05_0.90_bear_10_n02133161_13461.JPEG
subject-05,1,447,0.594903945922852,chair,chair,0.03,0446_nse_s05_0.03_chair_10_n04099969_16881.JPEG
subject-05,1,448,0.706054925918579,car,car,0.35,0447_nse_s05_0.35_car_10_n04285008_7034.JPEG
subject-05,1,449,1.50012516975403,dog,dog,0.00,0448_nse_s05_0.00_dog_10_n02091244_10579.JPEG
subject-05,1,450,1.42084884643555,bicycle,bicycle,0.03,0449_nse_s05_0.03_bicycle_10_n02835271_20175.JPEG
subject-05,1,451,0.865876913070679,dog,dog,0.35,0450_nse_s05_0.35_dog_10_n02113712_1245.JPEG
subject-05,1,452,1.44805693626404,car,cat,0.20,0451_nse_s05_0.20_cat_10_n02123045_3868.JPEG
subject-05,1,453,1.09845900535583,knife,knife,0.20,0452_nse_s05_0.20_knife_10_n03041632_10000.JPEG
subject-05,1,454,0.735100984573364,keyboard,keyboard,0.00,0453_nse_s05_0.00_keyboard_10_n04505470_8469.JPEG
subject-05,1,455,0.763171911239624,cat,elephant,0.10,0454_nse_s05_0.10_elephant_10_n02504013_2728.JPEG
subject-05,1,456,0.713250875473022,boat,boat,0.05,0455_nse_s05_0.05_boat_10_n02951358_5295.JPEG
subject-05,1,457,1.06822299957275,chair,elephant,0.90,0456_nse_s05_0.90_elephant_10_n02504013_1830.JPEG
subject-05,1,458,0.757968902587891,bicycle,bicycle,0.00,0457_nse_s05_0.00_bicycle_10_n03792782_27375.JPEG
subject-05,1,459,0.824212074279785,elephant,oven,0.20,0458_nse_s05_0.20_oven_10_n04111531_584.JPEG
subject-05,1,460,0.515244960784912,boat,boat,0.60,0459_nse_s05_0.60_boat_10_n03662601_26917.JPEG
subject-05,1,461,1.17150616645813,knife,knife,0.03,0460_nse_s05_0.03_knife_10_n03041632_21560.JPEG
subject-05,1,462,0.937435865402222,bicycle,cat,0.60,0461_nse_s05_0.60_cat_10_n02124075_9613.JPEG
subject-05,1,463,0.849007129669189,elephant,elephant,0.10,0462_nse_s05_0.10_elephant_10_n02504458_2419.JPEG
subject-05,1,464,0.939048051834106,dog,dog,0.00,0463_nse_s05_0.00_dog_10_n02106550_4773.JPEG
subject-05,1,465,1.27380895614624,cat,cat,0.05,0464_nse_s05_0.05_cat_10_n02123394_7128.JPEG
subject-05,1,466,0.784101963043213,chair,clock,0.20,0465_nse_s05_0.20_clock_10_n04548280_2260.JPEG
subject-05,1,467,0.880831003189087,bear,truck,0.20,0466_nse_s05_0.20_truck_10_n03417042_1182.JPEG
subject-05,1,468,0.808686017990112,boat,elephant,0.10,0467_nse_s05_0.10_elephant_10_n02504458_6399.JPEG
subject-05,1,469,0.737362146377563,car,car,0.05,0468_nse_s05_0.05_car_10_n03100240_4294.JPEG
subject-05,1,470,0.649173021316528,bird,bird,0.00,0469_nse_s05_0.00_bird_10_n01795545_8020.JPEG
subject-05,1,471,0.653642177581787,boat,bicycle,0.60,0470_nse_s05_0.60_bicycle_10_n03792782_11817.JPEG
subject-05,1,472,0.954567909240723,knife,knife,0.20,0471_nse_s05_0.20_knife_10_n03041632_11358.JPEG
subject-05,1,473,0.719796180725098,bicycle,bicycle,0.20,0472_nse_s05_0.20_bicycle_10_n03792782_3373.JPEG
subject-05,1,474,0.632359027862549,car,car,0.35,0473_nse_s05_0.35_car_10_n04285008_11004.JPEG
subject-05,1,475,1.47849607467651,elephant,bear,0.10,0474_nse_s05_0.10_bear_10_n02132136_7865.JPEG
subject-05,1,476,0.661207914352417,bear,bicycle,0.20,0475_nse_s05_0.20_bicycle_10_n02835271_19565.JPEG
subject-05,1,477,0.957194805145264,cat,airplane,0.90,0476_nse_s05_0.90_airplane_10_n02690373_8521.JPEG
subject-05,1,478,0.800976037979126,dog,dog,0.03,0477_nse_s05_0.03_dog_10_n02091831_11553.JPEG
subject-05,1,479,1.17336487770081,truck,truck,0.05,0478_nse_s05_0.05_truck_10_n03417042_127.JPEG
subject-05,1,480,0.879990100860596,bicycle,bird,0.20,0479_nse_s05_0.20_bird_10_n01614925_34514.JPEG
subject-05,1,481,0.638518095016479,oven,oven,0.03,0480_nse_s05_0.03_oven_10_n04111531_2855.JPEG
subject-05,1,482,0.775328874588013,bicycle,chair,0.60,0481_nse_s05_0.60_chair_10_n04099969_13096.JPEG
subject-05,1,483,0.703702926635742,cat,airplane,0.20,0482_nse_s05_0.20_airplane_10_n02690373_9427.JPEG
subject-05,1,484,0.784414768218994,boat,elephant,0.90,0483_nse_s05_0.90_elephant_10_n02504013_1305.JPEG
subject-05,1,485,0.644608020782471,oven,dog,0.60,0484_nse_s05_0.60_dog_10_n02086240_11552.JPEG
subject-05,1,486,0.756829977035522,airplane,airplane,0.20,0485_nse_s05_0.20_airplane_10_n02690373_6465.JPEG
subject-05,1,487,0.801298856735229,oven,oven,0.03,0486_nse_s05_0.03_oven_10_n04111531_7619.JPEG
subject-05,1,488,0.836148977279663,dog,dog,0.00,0487_nse_s05_0.00_dog_10_n02091831_5559.JPEG
subject-05,1,489,1.07883620262146,cat,bicycle,0.20,0488_nse_s05_0.20_bicycle_10_n03792782_1868.JPEG
subject-05,1,490,0.780144214630127,bear,airplane,0.90,0489_nse_s05_0.90_airplane_10_n02690373_9662.JPEG
subject-05,1,491,1.16826915740967,elephant,elephant,0.05,0490_nse_s05_0.05_elephant_10_n02504458_9094.JPEG
subject-05,1,492,1.14299607276917,elephant,elephant,0.03,0491_nse_s05_0.03_elephant_10_n02504458_98.JPEG
subject-05,1,493,1.31384110450745,bear,bicycle,0.10,0492_nse_s05_0.10_bicycle_10_n03792782_38596.JPEG
subject-05,1,494,0.77176308631897,oven,keyboard,0.60,0493_nse_s05_0.60_keyboard_10_n04505470_9514.JPEG
subject-05,1,495,0.553781986236572,boat,clock,0.35,0494_nse_s05_0.35_clock_10_n03196217_4970.JPEG
subject-05,1,496,0.62903618812561,clock,clock,0.20,0495_nse_s05_0.20_clock_10_n03196217_82.JPEG
subject-05,1,497,0.541342973709106,boat,cat,0.60,0496_nse_s05_0.60_cat_10_n02125311_2164.JPEG
subject-05,1,498,0.845358848571777,knife,knife,0.00,0497_nse_s05_0.00_knife_10_n03041632_927.JPEG
subject-05,1,499,0.665617942810059,keyboard,keyboard,0.05,0498_nse_s05_0.05_keyboard_10_n03085013_20590.JPEG
subject-05,1,500,0.677890062332153,clock,bird,0.20,0499_nse_s05_0.20_bird_10_n01797886_10196.JPEG
subject-05,1,501,0.998074054718018,boat,boat,0.05,0500_nse_s05_0.05_boat_10_n03662601_28424.JPEG
subject-05,1,502,NaN,na,car,0.35,0501_nse_s05_0.35_car_10_n04285008_8212.JPEG
subject-05,1,503,0.621819972991943,airplane,airplane,0.05,0502_nse_s05_0.05_airplane_10_n02690373_4753.JPEG
subject-05,1,504,0.600383043289185,clock,clock,0.10,0503_nse_s05_0.10_clock_10_n02708093_4569.JPEG
subject-05,1,505,0.712363004684448,dog,dog,0.05,0504_nse_s05_0.05_dog_10_n02091032_7280.JPEG
subject-05,1,506,0.592568874359131,car,car,0.05,0505_nse_s05_0.05_car_10_n03100240_813.JPEG
subject-05,1,507,0.872498035430908,elephant,elephant,0.60,0506_nse_s05_0.60_elephant_10_n02504013_5636.JPEG
subject-05,1,508,0.879273891448975,truck,truck,0.10,0507_nse_s05_0.10_truck_10_n03796401_14028.JPEG
subject-05,1,509,0.575690984725952,boat,airplane,0.90,0508_nse_s05_0.90_airplane_10_n02690373_10210.JPEG
subject-05,1,510,0.607609033584595,cat,chair,0.35,0509_nse_s05_0.35_chair_10_n04099969_4816.JPEG
subject-05,1,511,0.865962982177734,oven,knife,0.05,0510_nse_s05_0.05_knife_10_n03041632_80317.JPEG
subject-05,1,512,0.67809796333313,bird,bird,0.10,0511_nse_s05_0.10_bird_10_n01829413_1810.JPEG
subject-05,1,513,0.712900161743164,bicycle,bicycle,0.10,0512_nse_s05_0.10_bicycle_10_n03792782_16351.JPEG
subject-05,1,514,0.580572128295898,cat,bird,0.60,0513_nse_s05_0.60_bird_10_n01860187_36871.JPEG
subject-05,1,515,1.08230686187744,dog,bottle,0.20,0514_nse_s05_0.20_bottle_10_n03983396_2952.JPEG
subject-05,1,516,0.726105928421021,bird,bird,0.35,0515_nse_s05_0.35_bird_10_n02033041_4319.JPEG
subject-05,1,517,0.496102094650269,oven,clock,0.60,0516_nse_s05_0.60_clock_10_n02708093_32.JPEG
subject-05,1,518,0.856616020202637,bird,bird,0.05,0517_nse_s05_0.05_bird_10_n01828970_9808.JPEG
subject-05,1,519,0.768756866455078,elephant,knife,0.60,0518_nse_s05_0.60_knife_10_n03041632_24817.JPEG
subject-05,1,520,0.675497055053711,elephant,elephant,0.03,0519_nse_s05_0.03_elephant_10_n02504013_812.JPEG
subject-05,1,521,0.511225938796997,cat,boat,0.35,0520_nse_s05_0.35_boat_10_n03662601_26902.JPEG
subject-05,1,522,0.685853004455566,bear,bear,0.00,0521_nse_s05_0.00_bear_10_n02133161_11796.JPEG
subject-05,1,523,0.839017868041992,oven,chair,0.20,0522_nse_s05_0.20_chair_10_n03376595_6107.JPEG
subject-05,1,524,0.583623170852661,cat,cat,0.05,0523_nse_s05_0.05_cat_10_n02124075_9318.JPEG
subject-05,1,525,0.503283023834229,boat,dog,0.60,0524_nse_s05_0.60_dog_10_n02112350_4660.JPEG
subject-05,1,526,0.502482175827026,bear,bear,0.20,0525_nse_s05_0.20_bear_10_n02133161_12739.JPEG
subject-05,1,527,0.422523021697998,clock,bottle,0.60,0526_nse_s05_0.60_bottle_10_n03937543_3079.JPEG
subject-05,1,528,0.496280193328857,oven,airplane,0.90,0527_nse_s05_0.90_airplane_10_n02690373_2908.JPEG
subject-05,1,529,0.754673004150391,elephant,elephant,0.00,0528_nse_s05_0.00_elephant_10_n02504013_6187.JPEG
subject-05,1,530,0.682849884033203,bird,bird,0.10,0529_nse_s05_0.10_bird_10_n01537544_2957.JPEG
subject-05,1,531,0.597923040390015,car,car,0.10,0530_nse_s05_0.10_car_10_n04285008_9730.JPEG
subject-05,1,532,0.796665906906128,truck,truck,0.00,0531_nse_s05_0.00_truck_10_n04467665_1174.JPEG
subject-05,1,533,0.548820018768311,cat,knife,0.05,0532_nse_s05_0.05_knife_10_n03041632_10140.JPEG
subject-05,1,534,0.661216974258423,cat,cat,0.10,0533_nse_s05_0.10_cat_10_n02123597_11492.JPEG
subject-05,1,535,0.458400011062622,oven,dog,0.90,0534_nse_s05_0.90_dog_10_n02100735_6800.JPEG
subject-05,1,536,0.74690580368042,elephant,elephant,0.00,0535_nse_s05_0.00_elephant_10_n02504458_666.JPEG
subject-05,1,537,1.08902192115784,elephant,elephant,0.10,0536_nse_s05_0.10_elephant_10_n02504458_9835.JPEG
subject-05,1,538,0.561227083206177,boat,knife,0.60,0537_nse_s05_0.60_knife_10_n03041632_40508.JPEG
subject-05,1,539,0.619248867034912,oven,bottle,0.03,0538_nse_s05_0.03_bottle_10_n03983396_9776.JPEG
subject-05,1,540,NaN,na,clock,0.05,0539_nse_s05_0.05_clock_10_n03196217_1908.JPEG
subject-05,1,541,0.553368091583252,chair,chair,0.00,0540_nse_s05_0.00_chair_10_n04099969_16985.JPEG
subject-05,1,542,0.528045177459717,oven,bottle,0.10,0541_nse_s05_0.10_bottle_10_n03937543_337.JPEG
subject-05,1,543,0.956567049026489,dog,keyboard,0.20,0542_nse_s05_0.20_keyboard_10_n03085013_1695.JPEG
subject-05,1,544,0.76296591758728,dog,dog,0.00,0543_nse_s05_0.00_dog_10_n02106550_3992.JPEG
subject-05,1,545,0.469178915023804,clock,clock,0.20,0544_nse_s05_0.20_clock_10_n02708093_5551.JPEG
subject-05,1,546,0.459725141525269,cat,cat,0.35,0545_nse_s05_0.35_cat_10_n02123597_578.JPEG
subject-05,1,547,0.695837020874023,car,truck,0.03,0546_nse_s05_0.03_truck_10_n03417042_27988.JPEG
subject-05,1,548,0.746315002441406,bear,knife,0.10,0547_nse_s05_0.10_knife_10_n03041632_29827.JPEG
subject-05,1,549,0.474157094955444,cat,boat,0.60,0548_nse_s05_0.60_boat_10_n04612504_14176.JPEG
subject-05,1,550,1.11933517456055,bird,bird,0.05,0549_nse_s05_0.05_bird_10_n02056570_9405.JPEG
subject-05,1,551,0.947259187698364,keyboard,keyboard,0.03,0550_nse_s05_0.03_keyboard_10_n03085013_31266.JPEG
subject-05,1,552,0.751250982284546,clock,airplane,0.35,0551_nse_s05_0.35_airplane_10_n02690373_5870.JPEG
subject-05,1,553,0.85388708114624,bicycle,bear,0.90,0552_nse_s05_0.90_bear_10_n02134084_7145.JPEG
subject-05,1,554,0.606127023696899,clock,truck,0.60,0553_nse_s05_0.60_truck_10_n04467665_28301.JPEG
subject-05,1,555,0.602430105209351,oven,keyboard,0.20,0554_nse_s05_0.20_keyboard_10_n04505470_255.JPEG
subject-05,1,556,0.672130823135376,cat,truck,0.35,0555_nse_s05_0.35_truck_10_n03796401_9219.JPEG
subject-05,1,557,0.699460029602051,boat,boat,0.20,0556_nse_s05_0.20_boat_10_n02951358_10018.JPEG
subject-05,1,558,0.957145929336548,keyboard,chair,0.03,0557_nse_s05_0.03_chair_10_n03376595_2165.JPEG
subject-05,1,559,1.26983308792114,boat,airplane,0.05,0558_nse_s05_0.05_airplane_10_n02690373_9324.JPEG
subject-05,1,560,0.706353902816772,airplane,airplane,0.20,0559_nse_s05_0.20_airplane_10_n02690373_5917.JPEG
subject-05,1,561,0.911890029907227,truck,truck,0.03,0560_nse_s05_0.03_truck_10_n04467665_51949.JPEG
subject-05,1,562,0.478016138076782,boat,oven,0.10,0561_nse_s05_0.10_oven_10_n04111531_8117.JPEG
subject-05,1,563,0.806483030319214,oven,clock,0.20,0562_nse_s05_0.20_clock_10_n03196217_5554.JPEG
subject-05,1,564,0.658792972564697,cat,chair,0.20,0563_nse_s05_0.20_chair_10_n02791124_3420.JPEG
subject-05,1,565,0.571564912796021,boat,truck,0.60,0564_nse_s05_0.60_truck_10_n03796401_6845.JPEG
subject-05,1,566,0.632497072219849,clock,cat,0.35,0565_nse_s05_0.35_cat_10_n02124075_8133.JPEG
subject-05,1,567,0.522901058197021,bear,airplane,0.60,0566_nse_s05_0.60_airplane_10_n02690373_4136.JPEG
subject-05,1,568,0.759023904800415,elephant,elephant,0.05,0567_nse_s05_0.05_elephant_10_n02504458_7708.JPEG
subject-05,1,569,1.26391506195068,car,car,0.05,0568_nse_s05_0.05_car_10_n04285008_12573.JPEG
subject-05,1,570,0.508221864700317,bear,bear,0.90,0569_nse_s05_0.90_bear_10_n02134418_1921.JPEG
subject-05,1,571,1.00633215904236,knife,knife,0.05,0570_nse_s05_0.05_knife_10_n03041632_14916.JPEG
subject-05,1,572,0.696706056594849,boat,bottle,0.90,0571_nse_s05_0.90_bottle_10_n03983396_4285.JPEG
subject-05,1,573,0.655145883560181,boat,boat,0.05,0572_nse_s05_0.05_boat_10_n03662601_862.JPEG
subject-05,1,574,0.432216882705688,cat,dog,0.35,0573_nse_s05_0.35_dog_10_n02091467_741.JPEG
subject-05,1,575,0.481824159622192,boat,car,0.90,0574_nse_s05_0.90_car_10_n04285008_1124.JPEG
subject-05,1,576,0.447956085205078,clock,truck,0.90,0575_nse_s05_0.90_truck_10_n04467665_22914.JPEG
subject-05,1,577,0.549341917037964,bear,bicycle,0.90,0576_nse_s05_0.90_bicycle_10_n02835271_3448.JPEG
subject-05,1,578,0.507843971252441,boat,bird,0.90,0577_nse_s05_0.90_bird_10_n01614925_17021.JPEG
subject-05,1,579,0.820385932922363,knife,knife,0.03,0578_nse_s05_0.03_knife_10_n03041632_35365.JPEG
subject-05,1,580,0.818794012069702,dog,dog,0.03,0579_nse_s05_0.03_dog_10_n02091244_11407.JPEG
subject-05,1,581,0.516972064971924,boat,knife,0.90,0580_nse_s05_0.90_knife_10_n03041632_18959.JPEG
subject-05,1,582,0.644522190093994,car,car,0.05,0581_nse_s05_0.05_car_10_n03100240_9640.JPEG
subject-05,1,583,0.715624094009399,bear,bear,0.00,0582_nse_s05_0.00_bear_10_n02133161_10928.JPEG
subject-05,1,584,0.813976049423218,bear,bicycle,0.35,0583_nse_s05_0.35_bicycle_10_n03792782_5696.JPEG
subject-05,1,585,1.00448083877563,keyboard,keyboard,0.00,0584_nse_s05_0.00_keyboard_10_n04505470_9446.JPEG
subject-05,1,586,0.524405956268311,boat,boat,0.20,0585_nse_s05_0.20_boat_10_n02951358_4534.JPEG
subject-05,1,587,0.752336025238037,bird,bird,0.00,0586_nse_s05_0.00_bird_10_n02037110_2521.JPEG
subject-05,1,588,0.688968181610107,chair,chair,0.10,0587_nse_s05_0.10_chair_10_n02791124_7729.JPEG
subject-05,1,589,0.563750982284546,boat,car,0.90,0588_nse_s05_0.90_car_10_n02814533_22093.JPEG
subject-05,1,590,0.800105810165405,truck,truck,0.05,0589_nse_s05_0.05_truck_10_n03796401_4450.JPEG
subject-05,1,591,0.474272012710571,boat,oven,0.90,0590_nse_s05_0.90_oven_10_n04111531_12820.JPEG
subject-05,1,592,0.556903123855591,boat,clock,0.35,0591_nse_s05_0.35_clock_10_n04548280_2045.JPEG
subject-05,1,593,0.963353157043457,bear,bear,0.20,0592_nse_s05_0.20_bear_10_n02132136_24852.JPEG
subject-05,1,594,0.558501005172729,boat,boat,0.10,0593_nse_s05_0.10_boat_10_n02951358_34760.JPEG
subject-05,1,595,0.526715993881226,oven,oven,0.90,0594_nse_s05_0.90_oven_10_n04111531_3202.JPEG
subject-05,1,596,0.468847036361694,boat,oven,0.60,0595_nse_s05_0.60_oven_10_n04111531_7189.JPEG
subject-05,1,597,0.672709941864014,truck,truck,0.00,0596_nse_s05_0.00_truck_10_n03417042_22559.JPEG
subject-05,1,598,0.624910831451416,cat,keyboard,0.60,0597_nse_s05_0.60_keyboard_10_n03085013_2073.JPEG
subject-05,1,599,0.585184097290039,oven,bottle,0.60,0598_nse_s05_0.60_bottle_10_n04557648_2855.JPEG
subject-05,1,600,0.469197988510132,boat,elephant,0.90,0599_nse_s05_0.90_elephant_10_n02504013_8007.JPEG
subject-05,1,601,0.767740964889526,keyboard,oven,0.35,0600_nse_s05_0.35_oven_10_n04111531_9688.JPEG
subject-05,1,602,1.50026893615723,boat,boat,0.35,0601_nse_s05_0.35_boat_10_n03662601_12649.JPEG
subject-05,1,603,0.72048807144165,bear,truck,0.90,0602_nse_s05_0.90_truck_10_n04467665_39836.JPEG
subject-05,1,604,0.748310089111328,cat,cat,0.05,0603_nse_s05_0.05_cat_10_n02125311_9494.JPEG
subject-05,1,605,0.50049901008606,cat,elephant,0.35,0604_nse_s05_0.35_elephant_10_n02504458_7805.JPEG
subject-05,1,606,0.749161005020142,keyboard,keyboard,0.10,0605_nse_s05_0.10_keyboard_10_n04505470_945.JPEG
subject-05,1,607,0.961257934570312,bear,bear,0.10,0606_nse_s05_0.10_bear_10_n02134084_264.JPEG
subject-05,1,608,0.743783950805664,bird,bird,0.03,0607_nse_s05_0.03_bird_10_n01828970_3471.JPEG
subject-05,1,609,0.558436870574951,bird,bird,0.00,0608_nse_s05_0.00_bird_10_n01795545_3274.JPEG
subject-05,1,610,0.492254972457886,boat,clock,0.60,0609_nse_s05_0.60_clock_10_n04548280_8412.JPEG
subject-05,1,611,0.624852895736694,keyboard,keyboard,0.10,0610_nse_s05_0.10_keyboard_10_n04505470_8782.JPEG
subject-05,1,612,0.744997978210449,car,car,0.10,0611_nse_s05_0.10_car_10_n02814533_3511.JPEG
subject-05,1,613,0.55136513710022,oven,oven,0.03,0612_nse_s05_0.03_oven_10_n04111531_5204.JPEG
subject-05,1,614,0.379647970199585,clock,knife,0.90,0613_nse_s05_0.90_knife_10_n03041632_4318.JPEG
subject-05,1,615,0.784133911132812,knife,knife,0.35,0614_nse_s05_0.35_knife_10_n03041632_9963.JPEG
subject-05,1,616,0.720729112625122,clock,chair,0.35,0615_nse_s05_0.35_chair_10_n02791124_10186.JPEG
subject-05,1,617,0.49448299407959,bicycle,boat,0.35,0616_nse_s05_0.35_boat_10_n02951358_4650.JPEG
subject-05,1,618,1.17750191688538,truck,truck,0.05,0617_nse_s05_0.05_truck_10_n04467665_64402.JPEG
subject-05,1,619,0.567341089248657,boat,knife,0.60,0618_nse_s05_0.60_knife_10_n03041632_52848.JPEG
subject-05,1,620,0.531649827957153,boat,boat,0.60,0619_nse_s05_0.60_boat_10_n04273569_30568.JPEG
subject-05,1,621,0.752243041992188,keyboard,keyboard,0.03,0620_nse_s05_0.03_keyboard_10_n04505470_10581.JPEG
subject-05,1,622,0.567155122756958,bear,dog,0.60,0621_nse_s05_0.60_dog_10_n02088466_2784.JPEG
subject-05,1,623,1.14714884757996,cat,bird,0.03,0622_nse_s05_0.03_bird_10_n02018795_2495.JPEG
subject-05,1,624,0.7240309715271,keyboard,keyboard,0.10,0623_nse_s05_0.10_keyboard_10_n03085013_19008.JPEG
subject-05,1,625,0.852139949798584,bicycle,bicycle,0.03,0624_nse_s05_0.03_bicycle_10_n02835271_10424.JPEG
subject-05,1,626,0.551286935806274,clock,clock,0.35,0625_nse_s05_0.35_clock_10_n04548280_1893.JPEG
subject-05,1,627,0.816976070404053,bottle,bottle,0.05,0626_nse_s05_0.05_bottle_10_n03983396_16742.JPEG
subject-05,1,628,0.888873100280762,knife,knife,0.03,0627_nse_s05_0.03_knife_10_n03041632_3101.JPEG
subject-05,1,629,0.817200899124146,truck,truck,0.05,0628_nse_s05_0.05_truck_10_n03417042_10283.JPEG
subject-05,1,630,0.507128000259399,boat,airplane,0.60,0629_nse_s05_0.60_airplane_10_n02690373_1450.JPEG
subject-05,1,631,1.18155312538147,car,bottle,0.20,0630_nse_s05_0.20_bottle_10_n02823428_4516.JPEG
subject-05,1,632,0.709729909896851,airplane,truck,0.35,0631_nse_s05_0.35_truck_10_n03417042_3422.JPEG
subject-05,1,633,0.546414852142334,cat,cat,0.03,0632_nse_s05_0.03_cat_10_n02124075_1183.JPEG
subject-05,1,634,0.423305034637451,boat,truck,0.60,0633_nse_s05_0.60_truck_10_n03796401_2552.JPEG
subject-05,1,635,0.695477962493896,bicycle,bicycle,0.20,0634_nse_s05_0.20_bicycle_10_n02835271_11332.JPEG
subject-05,1,636,0.655941963195801,bear,truck,0.90,0635_nse_s05_0.90_truck_10_n04467665_11115.JPEG
subject-05,1,637,0.622770071029663,car,keyboard,0.35,0636_nse_s05_0.35_keyboard_10_n03085013_2752.JPEG
subject-05,1,638,0.583349943161011,car,car,0.03,0637_nse_s05_0.03_car_10_n03100240_350.JPEG
subject-05,1,639,0.665447950363159,cat,elephant,0.35,0638_nse_s05_0.35_elephant_10_n02504013_22740.JPEG
subject-05,1,640,0.445194005966187,clock,clock,0.10,0639_nse_s05_0.10_clock_10_n02708093_1482.JPEG
subject-05,1,641,0.635499000549316,airplane,airplane,0.10,0640_nse_s05_0.10_airplane_10_n02690373_1797.JPEG
subject-05,1,642,0.641946077346802,chair,chair,0.05,0641_nse_s05_0.05_chair_10_n03376595_14087.JPEG
subject-05,1,643,0.47035813331604,boat,bear,0.90,0642_nse_s05_0.90_bear_10_n02132136_15450.JPEG
subject-05,1,644,0.620556831359863,oven,airplane,0.60,0643_nse_s05_0.60_airplane_10_n02690373_6942.JPEG
subject-05,1,645,0.903027057647705,clock,clock,0.03,0644_nse_s05_0.03_clock_10_n04548280_4229.JPEG
subject-05,1,646,0.59950590133667,bear,bear,0.00,0645_nse_s05_0.00_bear_10_n02134418_4939.JPEG
subject-05,1,647,0.697410821914673,elephant,elephant,0.05,0646_nse_s05_0.05_elephant_10_n02504458_7408.JPEG
subject-05,1,648,0.417971134185791,boat,bicycle,0.90,0647_nse_s05_0.90_bicycle_10_n03792782_5160.JPEG
subject-05,1,649,0.647032022476196,elephant,elephant,0.10,0648_nse_s05_0.10_elephant_10_n02504013_5678.JPEG
subject-05,1,650,0.536834001541138,clock,clock,0.90,0649_nse_s05_0.90_clock_10_n04548280_3098.JPEG
subject-05,1,651,0.4355149269104,oven,clock,0.35,0650_nse_s05_0.35_clock_10_n02708093_3544.JPEG
subject-05,1,652,0.47661304473877,cat,truck,0.90,0651_nse_s05_0.90_truck_10_n04467665_51501.JPEG
subject-05,1,653,0.48144006729126,boat,bear,0.35,0652_nse_s05_0.35_bear_10_n02134418_5640.JPEG
subject-05,1,654,0.641849994659424,keyboard,cat,0.90,0653_nse_s05_0.90_cat_10_n02125311_301.JPEG
subject-05,1,655,0.629472970962524,car,car,0.03,0654_nse_s05_0.03_car_10_n04285008_11559.JPEG
subject-05,1,656,0.67339301109314,bear,bird,0.20,0655_nse_s05_0.20_bird_10_n01531178_2911.JPEG
subject-05,1,657,0.523802995681763,cat,elephant,0.60,0656_nse_s05_0.60_elephant_10_n02504458_62.JPEG
subject-05,1,658,0.606778860092163,clock,boat,0.90,0657_nse_s05_0.90_boat_10_n04612504_19293.JPEG
subject-05,1,659,0.597310066223145,boat,oven,0.20,0658_nse_s05_0.20_oven_10_n04111531_14611.JPEG
subject-05,1,660,0.495475053787231,cat,cat,0.20,0659_nse_s05_0.20_cat_10_n02125311_19819.JPEG
subject-05,1,661,0.632246971130371,boat,bicycle,0.60,0660_nse_s05_0.60_bicycle_10_n03792782_17430.JPEG
subject-05,1,662,0.953067064285278,dog,dog,0.10,0661_nse_s05_0.10_dog_10_n02113624_859.JPEG
subject-05,1,663,1.50016617774963,elephant,elephant,0.00,0662_nse_s05_0.00_elephant_10_n02504013_9982.JPEG
subject-05,1,664,0.539414882659912,boat,clock,0.60,0663_nse_s05_0.60_clock_10_n04548280_2988.JPEG
subject-05,1,665,0.600042104721069,bicycle,bicycle,0.03,0664_nse_s05_0.03_bicycle_10_n03792782_1418.JPEG
subject-05,1,666,0.496020078659058,cat,cat,0.90,0665_nse_s05_0.90_cat_10_n02123045_16441.JPEG
subject-05,1,667,0.410310029983521,boat,boat,0.05,0666_nse_s05_0.05_boat_10_n03344393_12520.JPEG
subject-05,1,668,0.514873027801514,bear,car,0.60,0667_nse_s05_0.60_car_10_n04285008_8696.JPEG
subject-05,1,669,0.51338791847229,airplane,bear,0.60,0668_nse_s05_0.60_bear_10_n02132136_1076.JPEG
subject-05,1,670,0.787626981735229,elephant,elephant,0.00,0669_nse_s05_0.00_elephant_10_n02504458_5493.JPEG
subject-05,1,671,0.829168081283569,dog,dog,0.03,0670_nse_s05_0.03_dog_10_n02110958_13794.JPEG
subject-05,1,672,0.551539182662964,bear,boat,0.90,0671_nse_s05_0.90_boat_10_n04612504_14752.JPEG
subject-05,1,673,0.672542095184326,car,boat,0.60,0672_nse_s05_0.60_boat_10_n04612504_1491.JPEG
subject-05,1,674,0.493192911148071,cat,cat,0.00,0673_nse_s05_0.00_cat_10_n02123045_7877.JPEG
subject-05,1,675,0.796905994415283,knife,knife,0.00,0674_nse_s05_0.00_knife_10_n03041632_12707.JPEG
subject-05,1,676,0.825606107711792,bottle,bottle,0.05,0675_nse_s05_0.05_bottle_10_n03983396_1390.JPEG
subject-05,1,677,0.645273923873901,airplane,airplane,0.00,0676_nse_s05_0.00_airplane_10_n02690373_7370.JPEG
subject-05,1,678,0.713744878768921,knife,knife,0.00,0677_nse_s05_0.00_knife_10_n03041632_28129.JPEG
subject-05,1,679,0.525696039199829,boat,keyboard,0.35,0678_nse_s05_0.35_keyboard_10_n04505470_4619.JPEG
subject-05,1,680,0.567596912384033,bear,oven,0.20,0679_nse_s05_0.20_oven_10_n04111531_10802.JPEG
subject-05,1,681,0.54415488243103,boat,boat,0.20,0680_nse_s05_0.20_boat_10_n02951358_355.JPEG
subject-05,1,682,0.495091199874878,clock,elephant,0.90,0681_nse_s05_0.90_elephant_10_n02504013_6413.JPEG
subject-05,1,683,0.423733949661255,cat,bicycle,0.35,0682_nse_s05_0.35_bicycle_10_n03792782_34197.JPEG
subject-05,1,684,0.652122020721436,chair,chair,0.10,0683_nse_s05_0.10_chair_10_n02791124_15583.JPEG
subject-05,1,685,0.813090085983276,cat,knife,0.10,0684_nse_s05_0.10_knife_10_n03041632_23968.JPEG
subject-05,1,686,0.678750038146973,bear,bear,0.90,0685_nse_s05_0.90_bear_10_n02134084_3096.JPEG
subject-05,1,687,0.637333154678345,bottle,bottle,0.03,0686_nse_s05_0.03_bottle_10_n02823428_4623.JPEG
subject-05,1,688,0.511273860931396,clock,bear,0.20,0687_nse_s05_0.20_bear_10_n02134418_5131.JPEG
subject-05,1,689,0.455508947372437,boat,cat,0.35,0688_nse_s05_0.35_cat_10_n02124075_12904.JPEG
subject-05,1,690,0.521838903427124,oven,dog,0.35,0689_nse_s05_0.35_dog_10_n02094114_8085.JPEG
subject-05,1,691,0.772114992141724,keyboard,keyboard,0.20,0690_nse_s05_0.20_keyboard_10_n04505470_5054.JPEG
subject-05,1,692,0.564763069152832,bear,airplane,0.60,0691_nse_s05_0.60_airplane_10_n02690373_2130.JPEG
subject-05,1,693,0.497491836547852,boat,elephant,0.60,0692_nse_s05_0.60_elephant_10_n02504458_7634.JPEG
subject-05,1,694,0.794346809387207,airplane,airplane,0.20,0693_nse_s05_0.20_airplane_10_n02690373_6459.JPEG
subject-05,1,695,0.881855010986328,dog,dog,0.05,0694_nse_s05_0.05_dog_10_n02085782_8935.JPEG
subject-05,1,696,0.56715989112854,cat,bicycle,0.20,0695_nse_s05_0.20_bicycle_10_n03792782_10876.JPEG
subject-05,1,697,0.824774026870728,truck,truck,0.20,0696_nse_s05_0.20_truck_10_n03417042_22482.JPEG
subject-05,1,698,0.745226860046387,car,car,0.20,0697_nse_s05_0.20_car_10_n03100240_11854.JPEG
subject-05,1,699,0.636148929595947,cat,cat,0.20,0698_nse_s05_0.20_cat_10_n02123597_513.JPEG
subject-05,1,700,0.564578056335449,bear,bird,0.35,0699_nse_s05_0.35_bird_10_n01833805_3289.JPEG
subject-05,1,701,0.584759950637817,boat,boat,0.35,0700_nse_s05_0.35_boat_10_n04612504_2858.JPEG
subject-05,1,702,0.503645181655884,clock,bicycle,0.90,0701_nse_s05_0.90_bicycle_10_n03792782_70169.JPEG
subject-05,1,703,0.461924076080322,oven,oven,0.90,0702_nse_s05_0.90_oven_10_n04111531_23068.JPEG
subject-05,1,704,0.54432201385498,cat,elephant,0.20,0703_nse_s05_0.20_elephant_10_n02504013_1636.JPEG
subject-05,1,705,0.502002000808716,boat,boat,0.20,0704_nse_s05_0.20_boat_10_n04273569_1913.JPEG
subject-05,1,706,0.537851810455322,bear,bear,0.00,0705_nse_s05_0.00_bear_10_n02134084_1867.JPEG
subject-05,1,707,0.555850982666016,bear,bear,0.05,0706_nse_s05_0.05_bear_10_n02133161_15847.JPEG
subject-05,1,708,0.575246095657349,keyboard,keyboard,0.90,0707_nse_s05_0.90_keyboard_10_n03085013_20999.JPEG
subject-05,1,709,0.795918941497803,airplane,airplane,0.35,0708_nse_s05_0.35_airplane_10_n02690373_5789.JPEG
subject-05,1,710,1.35426902770996,truck,truck,0.35,0709_nse_s05_0.35_truck_10_n03796401_8351.JPEG
subject-05,1,711,0.652443885803223,cat,cat,0.05,0710_nse_s05_0.05_cat_10_n02123597_7802.JPEG
subject-05,1,712,0.564813852310181,boat,bottle,0.90,0711_nse_s05_0.90_bottle_10_n02823428_8077.JPEG
subject-05,1,713,0.701158046722412,car,car,0.03,0712_nse_s05_0.03_car_10_n02814533_34288.JPEG
subject-05,1,714,0.545454025268555,boat,bird,0.60,0713_nse_s05_0.60_bird_10_n02037110_554.JPEG
subject-05,1,715,0.481925010681152,clock,bottle,0.60,0714_nse_s05_0.60_bottle_10_n02823428_6823.JPEG
subject-05,1,716,0.70782208442688,car,car,0.03,0715_nse_s05_0.03_car_10_n02814533_24801.JPEG
subject-05,1,717,0.506987810134888,cat,keyboard,0.90,0716_nse_s05_0.90_keyboard_10_n03085013_3980.JPEG
subject-05,1,718,0.559872150421143,boat,truck,0.35,0717_nse_s05_0.35_truck_10_n04467665_79452.JPEG
subject-05,1,719,0.609995126724243,bird,bird,0.10,0718_nse_s05_0.10_bird_10_n01532829_1969.JPEG
subject-05,1,720,0.816766023635864,truck,truck,0.35,0719_nse_s05_0.35_truck_10_n03417042_13729.JPEG
subject-05,1,721,0.528998136520386,bear,dog,0.60,0720_nse_s05_0.60_dog_10_n02091467_5700.JPEG
subject-05,1,722,1.04946899414062,car,car,0.35,0721_nse_s05_0.35_car_10_n02814533_94425.JPEG
subject-05,1,723,1.06180095672607,bird,bird,0.03,0722_nse_s05_0.03_bird_10_n01795545_15740.JPEG
subject-05,1,724,0.506383895874023,cat,keyboard,0.10,0723_nse_s05_0.10_keyboard_10_n03085013_21472.JPEG
subject-05,1,725,0.55099892616272,bicycle,bicycle,0.03,0724_nse_s05_0.03_bicycle_10_n03792782_556.JPEG
subject-05,1,726,0.695197820663452,truck,truck,0.20,0725_nse_s05_0.20_truck_10_n03417042_13755.JPEG
subject-05,1,727,0.531997919082642,boat,keyboard,0.90,0726_nse_s05_0.90_keyboard_10_n03085013_15907.JPEG
subject-05,1,728,0.612713098526001,airplane,airplane,0.35,0727_nse_s05_0.35_airplane_10_n02690373_9266.JPEG
subject-05,1,729,0.578500986099243,airplane,airplane,0.00,0728_nse_s05_0.00_airplane_10_n02690373_7487.JPEG
subject-05,1,730,0.768263816833496,chair,chair,0.05,0729_nse_s05_0.05_chair_10_n03376595_7081.JPEG
subject-05,1,731,1.032231092453,dog,dog,0.20,0730_nse_s05_0.20_dog_10_n02101388_6538.JPEG
subject-05,1,732,0.492813110351562,boat,boat,0.00,0731_nse_s05_0.00_boat_10_n02951358_8840.JPEG
subject-05,1,733,0.788439035415649,bicycle,bicycle,0.05,0732_nse_s05_0.05_bicycle_10_n02835271_1487.JPEG
subject-05,1,734,0.509000062942505,bear,bird,0.60,0733_nse_s05_0.60_bird_10_n01843065_10949.JPEG
subject-05,1,735,0.404896974563599,clock,keyboard,0.35,0734_nse_s05_0.35_keyboard_10_n03085013_18989.JPEG
subject-05,1,736,1.00141191482544,oven,clock,0.90,0735_nse_s05_0.90_clock_10_n03196217_5222.JPEG
subject-05,1,737,0.414875030517578,boat,car,0.90,0736_nse_s05_0.90_car_10_n02814533_40679.JPEG
subject-05,1,738,1.20979404449463,cat,dog,0.03,0737_nse_s05_0.03_dog_10_n02094258_5581.JPEG
subject-05,1,739,0.823421001434326,keyboard,keyboard,0.10,0738_nse_s05_0.10_keyboard_10_n04505470_5056.JPEG
subject-05,1,740,0.46536111831665,boat,bear,0.60,0739_nse_s05_0.60_bear_10_n02133161_18639.JPEG
subject-05,1,741,0.818176031112671,bicycle,bicycle,0.10,0740_nse_s05_0.10_bicycle_10_n03792782_65779.JPEG
subject-05,1,742,0.84659481048584,airplane,airplane,0.10,0741_nse_s05_0.10_airplane_10_n02690373_8641.JPEG
subject-05,1,743,0.927170038223267,bear,bear,0.05,0742_nse_s05_0.05_bear_10_n02134418_1740.JPEG
subject-05,1,744,0.649852991104126,airplane,airplane,0.20,0743_nse_s05_0.20_airplane_10_n02690373_10657.JPEG
subject-05,1,745,0.708212852478027,elephant,elephant,0.05,0744_nse_s05_0.05_elephant_10_n02504458_423.JPEG
subject-05,1,746,0.496180057525635,oven,knife,0.00,0745_nse_s05_0.00_knife_10_n03041632_7832.JPEG
subject-05,1,747,0.962448120117188,dog,dog,0.03,0746_nse_s05_0.03_dog_10_n02093754_5584.JPEG
subject-05,1,748,1.2346510887146,knife,knife,0.03,0747_nse_s05_0.03_knife_10_n03041632_17100.JPEG
subject-05,1,749,0.895165920257568,knife,knife,0.03,0748_nse_s05_0.03_knife_10_n03041632_4494.JPEG
subject-05,1,750,0.68633508682251,bicycle,knife,0.90,0749_nse_s05_0.90_knife_10_n03041632_38433.JPEG
subject-05,1,751,0.705908060073853,bear,bear,0.03,0750_nse_s05_0.03_bear_10_n02134418_11121.JPEG
subject-05,1,752,0.626008987426758,chair,oven,0.60,0751_nse_s05_0.60_oven_10_n04111531_82.JPEG
subject-05,1,753,0.646564960479736,chair,chair,0.00,0752_nse_s05_0.00_chair_10_n02791124_4060.JPEG
subject-05,1,754,0.635228872299194,chair,chair,0.00,0753_nse_s05_0.00_chair_10_n03376595_1001.JPEG
subject-05,1,755,0.409191131591797,boat,keyboard,0.60,0754_nse_s05_0.60_keyboard_10_n04505470_2518.JPEG
subject-05,1,756,0.391242027282715,clock,bottle,0.90,0755_nse_s05_0.90_bottle_10_n03937543_8922.JPEG
subject-05,1,757,0.595777034759521,keyboard,keyboard,0.10,0756_nse_s05_0.10_keyboard_10_n03085013_20478.JPEG
subject-05,1,758,0.716344118118286,bear,airplane,0.90,0757_nse_s05_0.90_airplane_10_n02690373_19749.JPEG
subject-05,1,759,0.812402963638306,keyboard,keyboard,0.35,0758_nse_s05_0.35_keyboard_10_n04505470_4521.JPEG
subject-05,1,760,0.603174924850464,clock,bottle,0.10,0759_nse_s05_0.10_bottle_10_n04591713_1808.JPEG
subject-05,1,761,1.19125604629517,chair,chair,0.20,0760_nse_s05_0.20_chair_10_n02791124_5415.JPEG
subject-05,1,762,0.582813024520874,bear,bottle,0.20,0761_nse_s05_0.20_bottle_10_n04557648_665.JPEG
subject-05,1,763,0.740500926971436,bicycle,chair,0.60,0762_nse_s05_0.60_chair_10_n02791124_3804.JPEG
subject-05,1,764,0.606664896011353,oven,oven,0.05,0763_nse_s05_0.05_oven_10_n04111531_6958.JPEG
subject-05,1,765,0.43498420715332,boat,boat,0.90,0764_nse_s05_0.90_boat_10_n04273569_7315.JPEG
subject-05,1,766,0.739080905914307,knife,knife,0.00,0765_nse_s05_0.00_knife_10_n03041632_36235.JPEG
subject-05,1,767,0.827620029449463,car,car,0.03,0766_nse_s05_0.03_car_10_n04285008_3541.JPEG
subject-05,1,768,0.709352016448975,car,car,0.05,0767_nse_s05_0.05_car_10_n03100240_4605.JPEG
subject-05,1,769,0.84287691116333,bicycle,bicycle,0.10,0768_nse_s05_0.10_bicycle_10_n02835271_12042.JPEG
subject-05,1,770,0.725332975387573,clock,oven,0.20,0769_nse_s05_0.20_oven_10_n04111531_13172.JPEG
subject-05,1,771,0.938091039657593,bear,bear,0.35,0770_nse_s05_0.35_bear_10_n02134084_20723.JPEG
subject-05,1,772,1.3048369884491,oven,cat,0.03,0771_nse_s05_0.03_cat_10_n02123597_3314.JPEG
subject-05,1,773,0.61891508102417,airplane,knife,0.10,0772_nse_s05_0.10_knife_10_n03041632_2546.JPEG
subject-05,1,774,0.539186000823975,boat,chair,0.35,0773_nse_s05_0.35_chair_10_n03376595_9048.JPEG
subject-05,1,775,0.842736005783081,bottle,bottle,0.10,0774_nse_s05_0.10_bottle_10_n03983396_3796.JPEG
subject-05,1,776,0.593401908874512,boat,cat,0.90,0775_nse_s05_0.90_cat_10_n02123159_4380.JPEG
subject-05,1,777,1.23872494697571,chair,clock,0.10,0776_nse_s05_0.10_clock_10_n04548280_4841.JPEG
subject-05,1,778,1.12131190299988,keyboard,keyboard,0.35,0777_nse_s05_0.35_keyboard_10_n04505470_4925.JPEG
subject-05,1,779,0.933322191238403,bicycle,bicycle,0.05,0778_nse_s05_0.05_bicycle_10_n02835271_7280.JPEG
subject-05,1,780,0.461782932281494,cat,cat,0.10,0779_nse_s05_0.10_cat_10_n02123045_8127.JPEG
subject-05,1,781,0.449478149414062,clock,clock,0.00,0780_nse_s05_0.00_clock_10_n04548280_4186.JPEG
subject-05,1,782,0.548416137695312,car,car,0.00,0781_nse_s05_0.00_car_10_n04285008_6951.JPEG
subject-05,1,783,0.707450151443481,cat,bird,0.20,0782_nse_s05_0.20_bird_10_n02033041_9532.JPEG
subject-05,1,784,0.541105985641479,boat,bird,0.05,0783_nse_s05_0.05_bird_10_n01819313_6745.JPEG
subject-05,1,785,0.480339050292969,bear,airplane,0.60,0784_nse_s05_0.60_airplane_10_n02690373_7740.JPEG
subject-05,1,786,0.635957956314087,boat,boat,0.05,0785_nse_s05_0.05_boat_10_n02951358_10511.JPEG
subject-05,1,787,0.5342857837677,clock,clock,0.00,0786_nse_s05_0.00_clock_10_n04548280_8887.JPEG
subject-05,1,788,0.583755016326904,clock,bottle,0.00,0787_nse_s05_0.00_bottle_10_n03937543_5716.JPEG
subject-05,1,789,0.52092981338501,cat,knife,0.60,0788_nse_s05_0.60_knife_10_n03041632_48071.JPEG
subject-05,1,790,0.554646015167236,keyboard,keyboard,0.00,0789_nse_s05_0.00_keyboard_10_n04505470_4599.JPEG
subject-05,1,791,0.499549865722656,cat,cat,0.20,0790_nse_s05_0.20_cat_10_n02123597_12863.JPEG
subject-05,1,792,0.580150127410889,airplane,airplane,0.00,0791_nse_s05_0.00_airplane_10_n02690373_8743.JPEG
subject-05,1,793,0.453567981719971,boat,clock,0.90,0792_nse_s05_0.90_clock_10_n04548280_4738.JPEG
subject-05,1,794,0.428416967391968,oven,bird,0.60,0793_nse_s05_0.60_bird_10_n01828970_22936.JPEG
subject-05,1,795,1.23904609680176,boat,bear,0.03,0794_nse_s05_0.03_bear_10_n02134084_3177.JPEG
subject-05,1,796,0.661314964294434,cat,chair,0.35,0795_nse_s05_0.35_chair_10_n04429376_16849.JPEG
subject-05,1,797,0.881749868392944,chair,bottle,0.20,0796_nse_s05_0.20_bottle_10_n04557648_9195.JPEG
subject-05,1,798,0.40941596031189,clock,clock,0.05,0797_nse_s05_0.05_clock_10_n04548280_494.JPEG
subject-05,1,799,0.581443071365356,bicycle,bicycle,0.10,0798_nse_s05_0.10_bicycle_10_n02835271_942.JPEG
subject-05,1,800,0.501436948776245,clock,clock,0.03,0799_nse_s05_0.03_clock_10_n02708093_3793.JPEG
subject-05,1,801,0.491730928421021,cat,cat,0.05,0800_nse_s05_0.05_cat_10_n02123597_5017.JPEG
subject-05,1,802,0.466376066207886,cat,cat,0.00,0801_nse_s05_0.00_cat_10_n02123394_6487.JPEG
subject-05,1,803,0.408304929733276,cat,dog,0.90,0802_nse_s05_0.90_dog_10_n02101006_3327.JPEG
subject-05,1,804,0.882524013519287,bicycle,bicycle,0.20,0803_nse_s05_0.20_bicycle_10_n03792782_15016.JPEG
subject-05,1,805,1.055016040802,oven,oven,0.10,0804_nse_s05_0.10_oven_10_n04111531_22715.JPEG
subject-05,1,806,0.561846017837524,bear,bear,0.00,0805_nse_s05_0.00_bear_10_n02133161_1301.JPEG
subject-05,1,807,0.644154071807861,car,car,0.00,0806_nse_s05_0.00_car_10_n04285008_17075.JPEG
subject-05,1,808,0.531665086746216,boat,boat,0.10,0807_nse_s05_0.10_boat_10_n03662601_3381.JPEG
subject-05,1,809,0.505470037460327,clock,boat,0.90,0808_nse_s05_0.90_boat_10_n03662601_9069.JPEG
subject-05,1,810,1.0456919670105,knife,knife,0.20,0809_nse_s05_0.20_knife_10_n03041632_36280.JPEG
subject-05,1,811,0.698222875595093,elephant,elephant,0.03,0810_nse_s05_0.03_elephant_10_n02504013_579.JPEG
subject-05,1,812,1.44515204429626,oven,oven,0.10,0811_nse_s05_0.10_oven_10_n04111531_1442.JPEG
subject-05,1,813,0.567678928375244,car,car,0.10,0812_nse_s05_0.10_car_10_n04285008_5898.JPEG
subject-05,1,814,0.739253044128418,bicycle,bird,0.20,0813_nse_s05_0.20_bird_10_n01592084_1205.JPEG
subject-05,1,815,0.483922004699707,boat,clock,0.90,0814_nse_s05_0.90_clock_10_n02708093_2676.JPEG
subject-05,1,816,0.779816150665283,chair,chair,0.00,0815_nse_s05_0.00_chair_10_n04429376_10544.JPEG
subject-05,1,817,1.400141954422,truck,truck,0.05,0816_nse_s05_0.05_truck_10_n04467665_10036.JPEG
subject-05,1,818,0.695580005645752,airplane,airplane,0.00,0817_nse_s05_0.00_airplane_10_n02690373_17764.JPEG
subject-05,1,819,0.948260068893433,elephant,elephant,0.10,0818_nse_s05_0.10_elephant_10_n02504013_2861.JPEG
subject-05,1,820,0.709357976913452,bicycle,knife,0.10,0819_nse_s05_0.10_knife_10_n03041632_22190.JPEG
subject-05,1,821,0.475584983825684,boat,elephant,0.20,0820_nse_s05_0.20_elephant_10_n02504013_1901.JPEG
subject-05,1,822,0.787842988967896,cat,cat,0.00,0821_nse_s05_0.00_cat_10_n02123045_6622.JPEG
subject-05,1,823,0.5468430519104,bear,car,0.90,0822_nse_s05_0.90_car_10_n04285008_5617.JPEG
subject-05,1,824,0.574872016906738,cat,bird,0.10,0823_nse_s05_0.10_bird_10_n01798484_19654.JPEG
subject-05,1,825,0.809352874755859,airplane,airplane,0.05,0824_nse_s05_0.05_airplane_10_n02690373_6614.JPEG
subject-05,1,826,0.566261053085327,chair,bottle,0.90,0825_nse_s05_0.90_bottle_10_n03983396_3028.JPEG
subject-05,1,827,0.486659049987793,boat,cat,0.60,0826_nse_s05_0.60_cat_10_n02125311_18483.JPEG
subject-05,1,828,0.544717073440552,clock,clock,0.05,0827_nse_s05_0.05_clock_10_n04548280_406.JPEG
subject-05,1,829,0.703624963760376,car,car,0.10,0828_nse_s05_0.10_car_10_n02814533_18148.JPEG
subject-05,1,830,0.52321195602417,cat,chair,0.60,0829_nse_s05_0.60_chair_10_n04429376_54754.JPEG
subject-05,1,831,0.594892978668213,keyboard,keyboard,0.10,0830_nse_s05_0.10_keyboard_10_n04505470_5055.JPEG
subject-05,1,832,0.95394492149353,car,car,0.20,0831_nse_s05_0.20_car_10_n02814533_10510.JPEG
subject-05,1,833,0.576483964920044,car,car,0.20,0832_nse_s05_0.20_car_10_n03100240_4840.JPEG
subject-05,1,834,0.581151008605957,oven,oven,0.05,0833_nse_s05_0.05_oven_10_n04111531_5950.JPEG
subject-05,1,835,0.576054096221924,cat,cat,0.20,0834_nse_s05_0.20_cat_10_n02125311_13188.JPEG
subject-05,1,836,0.658658027648926,clock,knife,0.35,0835_nse_s05_0.35_knife_10_n03041632_10109.JPEG
subject-05,1,837,0.684426069259644,bicycle,bicycle,0.05,0836_nse_s05_0.05_bicycle_10_n03792782_5034.JPEG
subject-05,1,838,0.444606065750122,boat,chair,0.20,0837_nse_s05_0.20_chair_10_n03376595_270.JPEG
subject-05,1,839,0.787246942520142,car,car,0.05,0838_nse_s05_0.05_car_10_n04285008_8953.JPEG
subject-05,1,840,0.621006965637207,airplane,airplane,0.03,0839_nse_s05_0.03_airplane_10_n02690373_7473.JPEG
subject-05,1,841,0.544728994369507,boat,boat,0.00,0840_nse_s05_0.00_boat_10_n03662601_16495.JPEG
subject-05,1,842,0.557176113128662,cat,bird,0.10,0841_nse_s05_0.10_bird_10_n02009229_2334.JPEG
subject-05,1,843,0.690187931060791,oven,oven,0.35,0842_nse_s05_0.35_oven_10_n04111531_1305.JPEG
subject-05,1,844,0.510493993759155,clock,chair,0.35,0843_nse_s05_0.35_chair_10_n02791124_2091.JPEG
subject-05,1,845,0.408915996551514,cat,bicycle,0.60,0844_nse_s05_0.60_bicycle_10_n02835271_12264.JPEG
subject-05,1,846,0.573129177093506,bottle,oven,0.00,0845_nse_s05_0.00_oven_10_n04111531_7355.JPEG
subject-05,1,847,1.0449800491333,truck,truck,0.10,0846_nse_s05_0.10_truck_10_n03417042_26971.JPEG
subject-05,1,848,0.68102502822876,elephant,elephant,0.05,0847_nse_s05_0.05_elephant_10_n02504458_3390.JPEG
subject-05,1,849,0.42596697807312,cat,keyboard,0.90,0848_nse_s05_0.90_keyboard_10_n04505470_10705.JPEG
subject-05,1,850,0.57566499710083,airplane,airplane,0.05,0849_nse_s05_0.05_airplane_10_n02690373_4070.JPEG
subject-05,1,851,0.528640985488892,boat,clock,0.90,0850_nse_s05_0.90_clock_10_n04548280_5170.JPEG
subject-05,1,852,0.934158802032471,truck,truck,0.10,0851_nse_s05_0.10_truck_10_n04467665_45801.JPEG
subject-05,1,853,0.746216773986816,truck,truck,0.35,0852_nse_s05_0.35_truck_10_n03417042_12013.JPEG
subject-05,1,854,0.490871906280518,car,knife,0.90,0853_nse_s05_0.90_knife_10_n03041632_11797.JPEG
subject-05,1,855,0.46549391746521,boat,keyboard,0.90,0854_nse_s05_0.90_keyboard_10_n04505470_704.JPEG
subject-05,1,856,0.931475877761841,boat,airplane,0.35,0855_nse_s05_0.35_airplane_10_n02690373_9346.JPEG
subject-05,1,857,0.605955123901367,clock,keyboard,0.90,0856_nse_s05_0.90_keyboard_10_n03085013_20801.JPEG
subject-05,1,858,0.633850812911987,clock,clock,0.05,0857_nse_s05_0.05_clock_10_n03196217_5214.JPEG
subject-05,1,859,0.7376868724823,oven,bear,0.35,0858_nse_s05_0.35_bear_10_n02134084_13663.JPEG
subject-05,1,860,0.62560510635376,airplane,airplane,0.05,0859_nse_s05_0.05_airplane_10_n02690373_4294.JPEG
subject-05,1,861,0.645662069320679,clock,clock,0.20,0860_nse_s05_0.20_clock_10_n02708093_7169.JPEG
subject-05,1,862,1.30930995941162,chair,chair,0.05,0861_nse_s05_0.05_chair_10_n02791124_12475.JPEG
subject-05,1,863,NaN,na,bear,0.05,0862_nse_s05_0.05_bear_10_n02134084_14992.JPEG
subject-05,1,864,0.741816997528076,elephant,elephant,0.03,0863_nse_s05_0.03_elephant_10_n02504013_3626.JPEG
subject-05,1,865,0.623884916305542,oven,airplane,0.60,0864_nse_s05_0.60_airplane_10_n02690373_6114.JPEG
subject-05,1,866,0.56744909286499,bicycle,bicycle,0.03,0865_nse_s05_0.03_bicycle_10_n02835271_9842.JPEG
subject-05,1,867,0.994047880172729,oven,oven,0.03,0866_nse_s05_0.03_oven_10_n04111531_16463.JPEG
subject-05,1,868,0.697867870330811,airplane,airplane,0.05,0867_nse_s05_0.05_airplane_10_n02690373_6798.JPEG
subject-05,1,869,0.588404178619385,boat,chair,0.60,0868_nse_s05_0.60_chair_10_n02791124_7174.JPEG
subject-05,1,870,0.413109064102173,boat,boat,0.20,0869_nse_s05_0.20_boat_10_n04273569_3805.JPEG
subject-05,1,871,0.411655902862549,oven,chair,0.90,0870_nse_s05_0.90_chair_10_n04429376_19175.JPEG
subject-05,1,872,0.908177852630615,knife,knife,0.20,0871_nse_s05_0.20_knife_10_n03041632_4443.JPEG
subject-05,1,873,0.604400157928467,boat,boat,0.00,0872_nse_s05_0.00_boat_10_n03662601_3741.JPEG
subject-05,1,874,0.648962020874023,keyboard,clock,0.05,0873_nse_s05_0.05_clock_10_n02708093_260.JPEG
subject-05,1,875,0.593430042266846,cat,dog,0.35,0874_nse_s05_0.35_dog_10_n02101556_9675.JPEG
subject-05,1,876,0.360294103622437,clock,clock,0.90,0875_nse_s05_0.90_clock_10_n03196217_2525.JPEG
subject-05,1,877,0.864951133728027,bear,keyboard,0.90,0876_nse_s05_0.90_keyboard_10_n03085013_17795.JPEG
subject-05,1,878,0.731705904006958,cat,dog,0.05,0877_nse_s05_0.05_dog_10_n02091831_8250.JPEG
subject-05,1,879,0.638256788253784,car,bottle,0.60,0878_nse_s05_0.60_bottle_10_n03937543_6162.JPEG
subject-05,1,880,0.396674871444702,oven,boat,0.90,0879_nse_s05_0.90_boat_10_n04273569_14690.JPEG
subject-05,1,881,0.839224815368652,bottle,bottle,0.10,0880_nse_s05_0.10_bottle_10_n03983396_10229.JPEG
subject-05,1,882,0.821105003356934,chair,elephant,0.90,0881_nse_s05_0.90_elephant_10_n02504458_10332.JPEG
subject-05,1,883,0.846920013427734,boat,truck,0.35,0882_nse_s05_0.35_truck_10_n03417042_176.JPEG
subject-05,1,884,0.720805883407593,elephant,truck,0.90,0883_nse_s05_0.90_truck_10_n03417042_29353.JPEG
subject-05,1,885,0.749520063400269,chair,cat,0.20,0884_nse_s05_0.20_cat_10_n02123394_6883.JPEG
subject-05,1,886,0.829389810562134,keyboard,oven,0.90,0885_nse_s05_0.90_oven_10_n04111531_5110.JPEG
subject-05,1,887,0.682672023773193,bear,boat,0.35,0886_nse_s05_0.35_boat_10_n04612504_4664.JPEG
subject-05,1,888,0.894543886184692,clock,clock,0.00,0887_nse_s05_0.00_clock_10_n04548280_9965.JPEG
subject-05,1,889,0.798928022384644,boat,oven,0.90,0888_nse_s05_0.90_oven_10_n04111531_6533.JPEG
subject-05,1,890,1.17065691947937,clock,bicycle,0.90,0889_nse_s05_0.90_bicycle_10_n03792782_12442.JPEG
subject-05,1,891,0.638719081878662,cat,cat,0.35,0890_nse_s05_0.35_cat_10_n02123597_3994.JPEG
subject-05,1,892,0.940809965133667,bicycle,oven,0.20,0891_nse_s05_0.20_oven_10_n04111531_20056.JPEG
subject-05,1,893,0.571034908294678,boat,boat,0.03,0892_nse_s05_0.03_boat_10_n04273569_3943.JPEG
subject-05,1,894,0.591939926147461,airplane,airplane,0.05,0893_nse_s05_0.05_airplane_10_n02690373_3712.JPEG
subject-05,1,895,0.734276056289673,cat,elephant,0.90,0894_nse_s05_0.90_elephant_10_n02504458_5652.JPEG
subject-05,1,896,0.755155086517334,bird,bird,0.00,0895_nse_s05_0.00_bird_10_n01601694_11217.JPEG
subject-05,1,897,0.967529058456421,truck,truck,0.00,0896_nse_s05_0.00_truck_10_n03417042_15928.JPEG
subject-05,1,898,0.771422147750854,oven,airplane,0.60,0897_nse_s05_0.60_airplane_10_n02690373_6210.JPEG
subject-05,1,899,0.77528715133667,cat,car,0.60,0898_nse_s05_0.60_car_10_n02814533_25129.JPEG
subject-05,1,900,0.781259059906006,airplane,airplane,0.05,0899_nse_s05_0.05_airplane_10_n02690373_3408.JPEG
subject-05,1,901,0.482428073883057,boat,knife,0.20,0900_nse_s05_0.20_knife_10_n03041632_31483.JPEG
subject-05,1,902,0.870057106018066,knife,knife,0.35,0901_nse_s05_0.35_knife_10_n03041632_47234.JPEG
subject-05,1,903,0.860836982727051,clock,airplane,0.35,0902_nse_s05_0.35_airplane_10_n02690373_9012.JPEG
subject-05,1,904,0.529621839523315,boat,bicycle,0.35,0903_nse_s05_0.35_bicycle_10_n03792782_13735.JPEG
subject-05,1,905,1.02589797973633,cat,cat,0.00,0904_nse_s05_0.00_cat_10_n02124075_9371.JPEG
subject-05,1,906,0.429991960525513,boat,boat,0.60,0905_nse_s05_0.60_boat_10_n03662601_27812.JPEG
subject-05,1,907,0.607406139373779,bear,boat,0.35,0906_nse_s05_0.35_boat_10_n02951358_5118.JPEG
subject-05,1,908,0.657654047012329,cat,bird,0.20,0907_nse_s05_0.20_bird_10_n01843065_4980.JPEG
subject-05,1,909,0.683968067169189,truck,truck,0.05,0908_nse_s05_0.05_truck_10_n03417042_11031.JPEG
subject-05,1,910,0.987740993499756,dog,dog,0.20,0909_nse_s05_0.20_dog_10_n02102177_5991.JPEG
subject-05,1,911,0.516211986541748,clock,dog,0.60,0910_nse_s05_0.60_dog_10_n02088466_9023.JPEG
subject-05,1,912,0.644500970840454,cat,dog,0.60,0911_nse_s05_0.60_dog_10_n02111129_3863.JPEG
subject-05,1,913,1.50034999847412,oven,chair,0.90,0912_nse_s05_0.90_chair_10_n04099969_15553.JPEG
subject-05,1,914,0.469505071640015,car,car,0.20,0913_nse_s05_0.20_car_10_n02814533_34886.JPEG
subject-05,1,915,1.30378699302673,bear,bicycle,0.03,0914_nse_s05_0.03_bicycle_10_n03792782_6678.JPEG
subject-05,1,916,1.50019502639771,chair,oven,0.10,0915_nse_s05_0.10_oven_10_n04111531_13113.JPEG
subject-05,1,917,0.622787952423096,bottle,oven,0.05,0916_nse_s05_0.05_oven_10_n04111531_1230.JPEG
subject-05,1,918,0.940850019454956,bottle,bottle,0.10,0917_nse_s05_0.10_bottle_10_n04560804_15492.JPEG
subject-05,1,919,0.446907997131348,clock,knife,0.90,0918_nse_s05_0.90_knife_10_n03041632_4808.JPEG
subject-05,1,920,0.537314891815186,cat,elephant,0.03,0919_nse_s05_0.03_elephant_10_n02504458_3762.JPEG
subject-05,1,921,0.642509937286377,car,car,0.03,0920_nse_s05_0.03_car_10_n03100240_3345.JPEG
subject-05,1,922,1.06804418563843,bear,cat,0.60,0921_nse_s05_0.60_cat_10_n02125311_14569.JPEG
subject-05,1,923,0.749351024627686,cat,oven,0.35,0922_nse_s05_0.35_oven_10_n04111531_81.JPEG
subject-05,1,924,0.607855081558228,airplane,airplane,0.03,0923_nse_s05_0.03_airplane_10_n02690373_349.JPEG
subject-05,1,925,0.788454055786133,clock,bear,0.05,0924_nse_s05_0.05_bear_10_n02134418_2162.JPEG
subject-05,1,926,0.93799090385437,car,bicycle,0.00,0925_nse_s05_0.00_bicycle_10_n02835271_324.JPEG
subject-05,1,927,1.23342180252075,bicycle,bicycle,0.60,0926_nse_s05_0.60_bicycle_10_n03792782_42345.JPEG
subject-05,1,928,0.715257167816162,bear,oven,0.60,0927_nse_s05_0.60_oven_10_n04111531_3902.JPEG
subject-05,1,929,0.843413829803467,airplane,airplane,0.03,0928_nse_s05_0.03_airplane_10_n02690373_8996.JPEG
subject-05,1,930,0.915586948394775,knife,knife,0.05,0929_nse_s05_0.05_knife_10_n03041632_9759.JPEG
subject-05,1,931,0.819720029830933,boat,dog,0.60,0930_nse_s05_0.60_dog_10_n02093754_1245.JPEG
subject-05,1,932,0.940120935440063,bottle,chair,0.05,0931_nse_s05_0.05_chair_10_n02791124_4956.JPEG
subject-05,1,933,0.554639101028442,cat,chair,0.60,0932_nse_s05_0.60_chair_10_n04099969_857.JPEG
subject-05,1,934,1.14292788505554,dog,dog,0.10,0933_nse_s05_0.10_dog_10_n02091467_11563.JPEG
subject-05,1,935,0.604012966156006,car,car,0.20,0934_nse_s05_0.20_car_10_n04285008_6177.JPEG
subject-05,1,936,0.745952844619751,bird,bird,0.00,0935_nse_s05_0.00_bird_10_n01820546_759.JPEG
subject-05,1,937,0.582710981369019,car,car,0.10,0936_nse_s05_0.10_car_10_n03100240_19940.JPEG
subject-05,1,938,0.58196496963501,bear,bottle,0.35,0937_nse_s05_0.35_bottle_10_n03937543_10869.JPEG
subject-05,1,939,0.80820894241333,bicycle,oven,0.20,0938_nse_s05_0.20_oven_10_n04111531_18245.JPEG
subject-05,1,940,0.59079909324646,oven,boat,0.35,0939_nse_s05_0.35_boat_10_n04612504_4117.JPEG
subject-05,1,941,1.10140919685364,bear,bear,0.03,0940_nse_s05_0.03_bear_10_n02132136_4111.JPEG
subject-05,1,942,1.14599609375,dog,dog,0.10,0941_nse_s05_0.10_dog_10_n02110185_5135.JPEG
subject-05,1,943,0.720104932785034,bottle,bottle,0.03,0942_nse_s05_0.03_bottle_10_n03937543_5519.JPEG
subject-05,1,944,NaN,na,elephant,0.20,0943_nse_s05_0.20_elephant_10_n02504458_3648.JPEG
subject-05,1,945,0.540176868438721,boat,bicycle,0.90,0944_nse_s05_0.90_bicycle_10_n02835271_7863.JPEG
subject-05,1,946,0.750513076782227,bicycle,bicycle,0.10,0945_nse_s05_0.10_bicycle_10_n03792782_9091.JPEG
subject-05,1,947,0.602734088897705,oven,cat,0.60,0946_nse_s05_0.60_cat_10_n02123159_575.JPEG
subject-05,1,948,0.599317073822021,cat,cat,0.20,0947_nse_s05_0.20_cat_10_n02124075_4172.JPEG
subject-05,1,949,0.849628925323486,oven,knife,0.10,0948_nse_s05_0.10_knife_10_n03041632_15299.JPEG
subject-05,1,950,0.647953033447266,oven,knife,0.20,0949_nse_s05_0.20_knife_10_n03041632_102828.JPEG
subject-05,1,951,0.606559038162231,boat,boat,0.00,0950_nse_s05_0.00_boat_10_n02951358_9159.JPEG
subject-05,1,952,0.718393087387085,cat,dog,0.05,0951_nse_s05_0.05_dog_10_n02106382_15477.JPEG
subject-05,1,953,0.706776857376099,bear,bear,0.10,0952_nse_s05_0.10_bear_10_n02133161_2978.JPEG
subject-05,1,954,0.827757835388184,cat,cat,0.10,0953_nse_s05_0.10_cat_10_n02125311_17234.JPEG
subject-05,1,955,0.748410224914551,elephant,elephant,0.10,0954_nse_s05_0.10_elephant_10_n02504458_4909.JPEG
subject-05,1,956,0.692948818206787,car,car,0.00,0955_nse_s05_0.00_car_10_n04285008_16117.JPEG
subject-05,1,957,0.789274930953979,bottle,bottle,0.00,0956_nse_s05_0.00_bottle_10_n02823428_880.JPEG
subject-05,1,958,0.685177803039551,bottle,bottle,0.05,0957_nse_s05_0.05_bottle_10_n02823428_4605.JPEG
subject-05,1,959,0.651074171066284,oven,knife,0.20,0958_nse_s05_0.20_knife_10_n03041632_4787.JPEG
subject-05,1,960,0.829854011535645,oven,oven,0.10,0959_nse_s05_0.10_oven_10_n04111531_1662.JPEG
subject-05,1,961,0.417993068695068,boat,elephant,0.90,0960_nse_s05_0.90_elephant_10_n02504458_1218.JPEG
subject-05,1,962,0.66286301612854,elephant,elephant,0.00,0961_nse_s05_0.00_elephant_10_n02504458_3881.JPEG
subject-05,1,963,0.629611968994141,bear,bird,0.60,0962_nse_s05_0.60_bird_10_n01798484_1870.JPEG
subject-05,1,964,0.720005989074707,chair,keyboard,0.90,0963_nse_s05_0.90_keyboard_10_n04505470_1721.JPEG
subject-05,1,965,1.27905893325806,bicycle,bicycle,0.10,0964_nse_s05_0.10_bicycle_10_n02835271_4656.JPEG
subject-05,1,966,0.68364691734314,cat,cat,0.03,0965_nse_s05_0.03_cat_10_n02123597_11762.JPEG
subject-05,1,967,1.41174793243408,oven,cat,0.90,0966_nse_s05_0.90_cat_10_n02123394_2730.JPEG
subject-05,1,968,0.780622959136963,clock,clock,0.35,0967_nse_s05_0.35_clock_10_n02708093_3748.JPEG
subject-05,1,969,0.798946857452393,cat,dog,0.90,0968_nse_s05_0.90_dog_10_n02105641_3557.JPEG
subject-05,1,970,0.513175964355469,boat,oven,0.90,0969_nse_s05_0.90_oven_10_n04111531_2937.JPEG
subject-05,1,971,0.809712171554565,truck,truck,0.03,0970_nse_s05_0.03_truck_10_n03417042_3643.JPEG
subject-05,1,972,0.867533922195435,knife,knife,0.00,0971_nse_s05_0.00_knife_10_n03041632_41381.JPEG
subject-05,1,973,0.580562114715576,truck,truck,0.00,0972_nse_s05_0.00_truck_10_n03417042_6193.JPEG
subject-05,1,974,1.1840980052948,dog,dog,0.00,0973_nse_s05_0.00_dog_10_n02108422_5686.JPEG
subject-05,1,975,0.6961669921875,cat,cat,0.05,0974_nse_s05_0.05_cat_10_n02123159_6381.JPEG
subject-05,1,976,0.556475877761841,boat,chair,0.20,0975_nse_s05_0.20_chair_10_n04429376_17363.JPEG
subject-05,1,977,0.636788129806519,bottle,bottle,0.10,0976_nse_s05_0.10_bottle_10_n04560804_545.JPEG
subject-05,1,978,0.68195915222168,bird,dog,0.20,0977_nse_s05_0.20_dog_10_n02090622_10557.JPEG
subject-05,1,979,0.916531085968018,bicycle,bicycle,0.20,0978_nse_s05_0.20_bicycle_10_n02835271_12453.JPEG
subject-05,1,980,0.653002977371216,oven,bear,0.60,0979_nse_s05_0.60_bear_10_n02134084_347.JPEG
subject-05,1,981,0.581467866897583,boat,knife,0.03,0980_nse_s05_0.03_knife_10_n03041632_16826.JPEG
subject-05,1,982,1.00720310211182,bear,bear,0.90,0981_nse_s05_0.90_bear_10_n02132136_1393.JPEG
subject-05,1,983,0.583461999893188,clock,clock,0.00,0982_nse_s05_0.00_clock_10_n03196217_5137.JPEG
subject-05,1,984,0.68024206161499,car,car,0.00,0983_nse_s05_0.00_car_10_n02814533_27588.JPEG
subject-05,1,985,0.57654595375061,oven,bear,0.90,0984_nse_s05_0.90_bear_10_n02134084_266.JPEG
subject-05,1,986,0.696971893310547,bird,bird,0.03,0985_nse_s05_0.03_bird_10_n02027492_7093.JPEG
subject-05,1,987,0.771695852279663,cat,cat,0.35,0986_nse_s05_0.35_cat_10_n02124075_6261.JPEG
subject-05,1,988,0.616070985794067,bottle,airplane,0.90,0987_nse_s05_0.90_airplane_10_n02690373_5430.JPEG
subject-05,1,989,0.704312086105347,knife,knife,0.05,0988_nse_s05_0.05_knife_10_n03041632_11969.JPEG
subject-05,1,990,0.762861013412476,car,car,0.03,0989_nse_s05_0.03_car_10_n04285008_8255.JPEG
subject-05,1,991,0.644939184188843,bear,cat,0.35,0990_nse_s05_0.35_cat_10_n02123394_1053.JPEG
subject-05,1,992,0.673245906829834,car,car,0.20,0991_nse_s05_0.20_car_10_n03100240_300.JPEG
subject-05,1,993,0.561264991760254,keyboard,keyboard,0.05,0992_nse_s05_0.05_keyboard_10_n04505470_5561.JPEG
subject-05,1,994,0.773626089096069,keyboard,keyboard,0.05,0993_nse_s05_0.05_keyboard_10_n03085013_21155.JPEG
subject-05,1,995,0.680779933929443,boat,bird,0.90,0994_nse_s05_0.90_bird_10_n02002724_3417.JPEG
subject-05,1,996,0.601095199584961,keyboard,keyboard,0.03,0995_nse_s05_0.03_keyboard_10_n03085013_22002.JPEG
subject-05,1,997,0.726902008056641,oven,dog,0.60,0996_nse_s05_0.60_dog_10_n02104365_7849.JPEG
subject-05,1,998,0.562847852706909,keyboard,keyboard,0.00,0997_nse_s05_0.00_keyboard_10_n04505470_961.JPEG
subject-05,1,999,0.950991868972778,chair,chair,0.00,0998_nse_s05_0.00_chair_10_n02791124_5599.JPEG
subject-05,1,1000,1.10134696960449,bottle,bottle,0.00,0999_nse_s05_0.00_bottle_10_n04591713_1615.JPEG
subject-05,1,1001,0.731199979782104,elephant,bear,0.60,1000_nse_s05_0.60_bear_10_n02132136_5767.JPEG
subject-05,1,1002,0.752012968063354,clock,chair,0.00,1001_nse_s05_0.00_chair_10_n03376595_3910.JPEG
subject-05,1,1003,1.0552830696106,bottle,knife,0.10,1002_nse_s05_0.10_knife_10_n03041632_41493.JPEG
subject-05,1,1004,0.667287826538086,keyboard,keyboard,0.20,1003_nse_s05_0.20_keyboard_10_n04505470_1651.JPEG
subject-05,1,1005,0.67964506149292,bicycle,bicycle,0.05,1004_nse_s05_0.05_bicycle_10_n03792782_19194.JPEG
subject-05,1,1006,0.767168998718262,keyboard,keyboard,0.05,1005_nse_s05_0.05_keyboard_10_n03085013_30899.JPEG
subject-05,1,1007,1.10231900215149,oven,oven,0.03,1006_nse_s05_0.03_oven_10_n04111531_3265.JPEG
subject-05,1,1008,0.699815034866333,oven,oven,0.00,1007_nse_s05_0.00_oven_10_n04111531_15492.JPEG
subject-05,1,1009,0.568639993667603,boat,truck,0.60,1008_nse_s05_0.60_truck_10_n04467665_535.JPEG
subject-05,1,1010,0.724065065383911,bear,oven,0.35,1009_nse_s05_0.35_oven_10_n04111531_2922.JPEG
subject-05,1,1011,1.2038300037384,car,car,0.35,1010_nse_s05_0.35_car_10_n02814533_5437.JPEG
subject-05,1,1012,0.807250022888184,cat,car,0.60,1011_nse_s05_0.60_car_10_n03100240_7448.JPEG
subject-05,1,1013,0.733027935028076,elephant,elephant,0.05,1012_nse_s05_0.05_elephant_10_n02504458_9854.JPEG
subject-05,1,1014,1.09937906265259,bear,bear,0.05,1013_nse_s05_0.05_bear_10_n02133161_8654.JPEG
subject-05,1,1015,0.690485000610352,airplane,airplane,0.20,1014_nse_s05_0.20_airplane_10_n02690373_2632.JPEG
