subj,session,trial,rt,object_response,category,condition,imagename
subject-02,1,1,0.935236930847168,bicycle,bicycle,0.35,0000_nse_s02_0.35_bicycle_10_n03792782_19053.JPEG
subject-02,1,2,0.663241863250732,boat,boat,0.20,0001_nse_s02_0.20_boat_10_n03344393_2724.JPEG
subject-02,1,3,0.623234987258911,boat,elephant,0.90,0002_nse_s02_0.90_elephant_10_n02504458_2967.JPEG
subject-02,1,4,0.829555988311768,boat,knife,0.20,0003_nse_s02_0.20_knife_10_n03041632_80317.JPEG
subject-02,1,5,0.695809841156006,keyboard,keyboard,0.60,0004_nse_s02_0.60_keyboard_10_n04505470_4599.JPEG
subject-02,1,6,0.624464988708496,airplane,airplane,0.00,0005_nse_s02_0.00_airplane_10_n02690373_1235.JPEG
subject-02,1,7,0.808665990829468,boat,boat,0.03,0006_nse_s02_0.03_boat_10_n02951358_14598.JPEG
subject-02,1,8,0.65288782119751,clock,knife,0.00,0007_nse_s02_0.00_knife_10_n03041632_7380.JPEG
subject-02,1,9,0.798811912536621,cat,bear,0.20,0008_nse_s02_0.20_bear_10_n02133161_4060.JPEG
subject-02,1,10,0.747164964675903,cat,car,0.90,0009_nse_s02_0.90_car_10_n03100240_2313.JPEG
subject-02,1,11,1.35271716117859,bear,bear,0.35,0010_nse_s02_0.35_bear_10_n02133161_9786.JPEG
subject-02,1,12,0.712796926498413,clock,clock,0.05,0011_nse_s02_0.05_clock_10_n04548280_5136.JPEG
subject-02,1,13,1.3070981502533,chair,chair,0.10,0012_nse_s02_0.10_chair_10_n04099969_20604.JPEG
subject-02,1,14,1.15987491607666,airplane,airplane,0.03,0013_nse_s02_0.03_airplane_10_n02690373_4608.JPEG
subject-02,1,15,1.15962600708008,boat,cat,0.10,0014_nse_s02_0.10_cat_10_n02123394_5071.JPEG
subject-02,1,16,0.653826951980591,bicycle,bicycle,0.20,0015_nse_s02_0.20_bicycle_10_n02835271_4138.JPEG
subject-02,1,17,1.28981709480286,bicycle,oven,0.90,0016_nse_s02_0.90_oven_10_n04111531_797.JPEG
subject-02,1,18,1.21266984939575,boat,boat,0.10,0017_nse_s02_0.10_boat_10_n04273569_1379.JPEG
subject-02,1,19,0.846909046173096,cat,cat,0.20,0018_nse_s02_0.20_cat_10_n02124075_11684.JPEG
subject-02,1,20,0.655009984970093,oven,oven,0.00,0019_nse_s02_0.00_oven_10_n04111531_4665.JPEG
subject-02,1,21,1.14307904243469,dog,dog,0.00,0020_nse_s02_0.00_dog_10_n02090379_1292.JPEG
subject-02,1,22,0.735655069351196,oven,oven,0.05,0021_nse_s02_0.05_oven_10_n04111531_887.JPEG
subject-02,1,23,1.04179501533508,dog,dog,0.20,0022_nse_s02_0.20_dog_10_n02095889_9050.JPEG
subject-02,1,24,0.893826961517334,oven,oven,0.35,0023_nse_s02_0.35_oven_10_n04111531_13560.JPEG
subject-02,1,25,0.573961019515991,oven,airplane,0.90,0024_nse_s02_0.90_airplane_10_n02690373_2981.JPEG
subject-02,1,26,0.996100902557373,bird,knife,0.35,0025_nse_s02_0.35_knife_10_n03041632_29285.JPEG
subject-02,1,27,0.926855087280273,elephant,elephant,0.10,0026_nse_s02_0.10_elephant_10_n02504458_155.JPEG
subject-02,1,28,0.97074294090271,oven,bird,0.03,0027_nse_s02_0.03_bird_10_n01833805_1474.JPEG
subject-02,1,29,0.923071146011353,truck,truck,0.05,0028_nse_s02_0.05_truck_10_n04467665_46073.JPEG
subject-02,1,30,1.09190201759338,bird,bird,0.20,0029_nse_s02_0.20_bird_10_n02002724_18695.JPEG
subject-02,1,31,0.78399395942688,car,car,0.03,0030_nse_s02_0.03_car_10_n04285008_16670.JPEG
subject-02,1,32,1.35861206054688,bicycle,bicycle,0.00,0031_nse_s02_0.00_bicycle_10_n02835271_7256.JPEG
subject-02,1,33,NaN,na,bear,0.03,0032_nse_s02_0.03_bear_10_n02134418_4458.JPEG
subject-02,1,34,0.632723093032837,oven,clock,0.00,0033_nse_s02_0.00_clock_10_n04548280_8474.JPEG
subject-02,1,35,0.762785911560059,car,car,0.05,0034_nse_s02_0.05_car_10_n03100240_7936.JPEG
subject-02,1,36,0.828490972518921,airplane,airplane,0.03,0035_nse_s02_0.03_airplane_10_n02690373_734.JPEG
subject-02,1,37,0.949656009674072,clock,clock,0.20,0036_nse_s02_0.20_clock_10_n02708093_5658.JPEG
subject-02,1,38,0.925685882568359,clock,chair,0.90,0037_nse_s02_0.90_chair_10_n04099969_2418.JPEG
subject-02,1,39,0.582859992980957,clock,elephant,0.90,0038_nse_s02_0.90_elephant_10_n02504458_693.JPEG
subject-02,1,40,1.08054995536804,bicycle,bicycle,0.00,0039_nse_s02_0.00_bicycle_10_n03792782_52.JPEG
subject-02,1,41,1.41085386276245,cat,cat,0.05,0040_nse_s02_0.05_cat_10_n02124075_8627.JPEG
subject-02,1,42,0.716142177581787,cat,cat,0.60,0041_nse_s02_0.60_cat_10_n02125311_2181.JPEG
subject-02,1,43,0.752446174621582,keyboard,keyboard,0.05,0042_nse_s02_0.05_keyboard_10_n03085013_24087.JPEG
subject-02,1,44,0.752957105636597,oven,oven,0.10,0043_nse_s02_0.10_oven_10_n04111531_16198.JPEG
subject-02,1,45,1.13515090942383,truck,truck,0.03,0044_nse_s02_0.03_truck_10_n03796401_10276.JPEG
subject-02,1,46,0.757872104644775,truck,dog,0.90,0045_nse_s02_0.90_dog_10_n02099712_4403.JPEG
subject-02,1,47,0.88010311126709,car,car,0.03,0046_nse_s02_0.03_car_10_n04285008_10917.JPEG
subject-02,1,48,1.07407307624817,bicycle,knife,0.60,0047_nse_s02_0.60_knife_10_n03041632_29920.JPEG
subject-02,1,49,1.10992288589478,bicycle,elephant,0.20,0048_nse_s02_0.20_elephant_10_n02504458_4696.JPEG
subject-02,1,50,0.718481063842773,chair,chair,0.10,0049_nse_s02_0.10_chair_10_n04099969_5242.JPEG
subject-02,1,51,0.799501180648804,chair,bird,0.60,0050_nse_s02_0.60_bird_10_n02006656_10971.JPEG
subject-02,1,52,1.29799485206604,truck,truck,0.35,0051_nse_s02_0.35_truck_10_n03796401_7518.JPEG
subject-02,1,53,1.15034794807434,elephant,elephant,0.00,0052_nse_s02_0.00_elephant_10_n02504013_4594.JPEG
subject-02,1,54,1.37254786491394,bottle,bottle,0.03,0053_nse_s02_0.03_bottle_10_n03937543_4437.JPEG
subject-02,1,55,0.733142852783203,clock,clock,0.05,0054_nse_s02_0.05_clock_10_n03196217_6237.JPEG
subject-02,1,56,0.785031080245972,chair,chair,0.10,0055_nse_s02_0.10_chair_10_n04099969_15553.JPEG
subject-02,1,57,0.795068979263306,chair,elephant,0.90,0056_nse_s02_0.90_elephant_10_n02504458_837.JPEG
subject-02,1,58,1.03960204124451,bird,clock,0.60,0057_nse_s02_0.60_clock_10_n04548280_5969.JPEG
subject-02,1,59,0.731981039047241,truck,truck,0.20,0058_nse_s02_0.20_truck_10_n04467665_1015.JPEG
subject-02,1,60,0.816648006439209,elephant,elephant,0.00,0059_nse_s02_0.00_elephant_10_n02504458_4414.JPEG
subject-02,1,61,0.923399925231934,knife,knife,0.05,0060_nse_s02_0.05_knife_10_n03041632_31363.JPEG
subject-02,1,62,0.89198899269104,knife,bottle,0.60,0061_nse_s02_0.60_bottle_10_n02823428_617.JPEG
subject-02,1,63,1.05621099472046,knife,bottle,0.60,0062_nse_s02_0.60_bottle_10_n02823428_3971.JPEG
subject-02,1,64,1.01674914360046,knife,bird,0.35,0063_nse_s02_0.35_bird_10_n01860187_1217.JPEG
subject-02,1,65,0.863559007644653,car,car,0.00,0064_nse_s02_0.00_car_10_n03100240_2905.JPEG
subject-02,1,66,0.769717216491699,boat,boat,0.00,0065_nse_s02_0.00_boat_10_n02951358_4958.JPEG
subject-02,1,67,0.943598031997681,boat,boat,0.03,0066_nse_s02_0.03_boat_10_n02951358_30737.JPEG
subject-02,1,68,0.728089809417725,boat,bird,0.90,0067_nse_s02_0.90_bird_10_n01560419_7746.JPEG
subject-02,1,69,0.817101955413818,car,keyboard,0.20,0068_nse_s02_0.20_keyboard_10_n04505470_8469.JPEG
subject-02,1,70,1.03091216087341,elephant,elephant,0.03,0069_nse_s02_0.03_elephant_10_n02504458_5384.JPEG
subject-02,1,71,1.09725117683411,elephant,cat,0.90,0070_nse_s02_0.90_cat_10_n02123597_6405.JPEG
subject-02,1,72,0.927871942520142,elephant,bird,0.20,0071_nse_s02_0.20_bird_10_n02056570_10003.JPEG
subject-02,1,73,0.566436052322388,boat,boat,0.35,0072_nse_s02_0.35_boat_10_n03344393_4246.JPEG
subject-02,1,74,0.934727907180786,knife,knife,0.10,0073_nse_s02_0.10_knife_10_n03041632_10540.JPEG
subject-02,1,75,1.19912195205688,elephant,dog,0.35,0074_nse_s02_0.35_dog_10_n02111129_2495.JPEG
subject-02,1,76,1.12771010398865,clock,bottle,0.20,0075_nse_s02_0.20_bottle_10_n04557648_2408.JPEG
subject-02,1,77,0.735569000244141,bicycle,bicycle,0.00,0076_nse_s02_0.00_bicycle_10_n02835271_1851.JPEG
subject-02,1,78,0.813679933547974,bicycle,truck,0.90,0077_nse_s02_0.90_truck_10_n03417042_20826.JPEG
subject-02,1,79,0.98978590965271,bicycle,bird,0.35,0078_nse_s02_0.35_bird_10_n01534433_4968.JPEG
subject-02,1,80,1.31271910667419,bottle,bottle,0.20,0079_nse_s02_0.20_bottle_10_n03937543_10597.JPEG
subject-02,1,81,0.730901002883911,boat,keyboard,0.10,0080_nse_s02_0.10_keyboard_10_n03085013_23635.JPEG
subject-02,1,82,1.01359701156616,bottle,bottle,0.20,0081_nse_s02_0.20_bottle_10_n03937543_3191.JPEG
subject-02,1,83,0.773040056228638,boat,chair,0.35,0082_nse_s02_0.35_chair_10_n02791124_3121.JPEG
subject-02,1,84,0.733082056045532,bicycle,bicycle,0.05,0083_nse_s02_0.05_bicycle_10_n02835271_15717.JPEG
subject-02,1,85,0.77734112739563,truck,truck,0.03,0084_nse_s02_0.03_truck_10_n04467665_70579.JPEG
subject-02,1,86,0.940131187438965,truck,dog,0.90,0085_nse_s02_0.90_dog_10_n02096585_10511.JPEG
subject-02,1,87,0.950740098953247,bottle,bottle,0.10,0086_nse_s02_0.10_bottle_10_n03937543_1177.JPEG
subject-02,1,88,1.21966910362244,truck,truck,0.05,0087_nse_s02_0.05_truck_10_n04467665_2098.JPEG
subject-02,1,89,1.32300186157227,clock,elephant,0.35,0088_nse_s02_0.35_elephant_10_n02504013_1028.JPEG
subject-02,1,90,1.45367288589478,car,car,0.00,0089_nse_s02_0.00_car_10_n04285008_1797.JPEG
subject-02,1,91,0.775965929031372,bicycle,bicycle,0.05,0090_nse_s02_0.05_bicycle_10_n02835271_12385.JPEG
subject-02,1,92,0.98251485824585,bicycle,car,0.90,0091_nse_s02_0.90_car_10_n03100240_672.JPEG
subject-02,1,93,0.887540817260742,keyboard,keyboard,0.10,0092_nse_s02_0.10_keyboard_10_n03085013_23546.JPEG
subject-02,1,94,0.972465991973877,keyboard,elephant,0.60,0093_nse_s02_0.60_elephant_10_n02504013_10229.JPEG
subject-02,1,95,0.933066129684448,clock,clock,0.03,0094_nse_s02_0.03_clock_10_n04548280_8161.JPEG
subject-02,1,96,0.58407998085022,clock,airplane,0.90,0095_nse_s02_0.90_airplane_10_n02690373_10114.JPEG
subject-02,1,97,0.782402992248535,clock,clock,0.03,0096_nse_s02_0.03_clock_10_n04548280_3103.JPEG
subject-02,1,98,0.788106918334961,bicycle,bicycle,0.10,0097_nse_s02_0.10_bicycle_10_n02835271_6013.JPEG
subject-02,1,99,1.02354001998901,elephant,dog,0.05,0098_nse_s02_0.05_dog_10_n02108915_1553.JPEG
subject-02,1,100,0.662636041641235,car,car,0.35,0099_nse_s02_0.35_car_10_n03100240_9668.JPEG
subject-02,1,101,0.998871088027954,airplane,airplane,0.05,0100_nse_s02_0.05_airplane_10_n02690373_3669.JPEG
subject-02,1,102,0.784818172454834,chair,chair,0.20,0101_nse_s02_0.20_chair_10_n03376595_9610.JPEG
subject-02,1,103,0.968667984008789,chair,bicycle,0.90,0102_nse_s02_0.90_bicycle_10_n03792782_9086.JPEG
subject-02,1,104,0.721167087554932,boat,boat,0.05,0103_nse_s02_0.05_boat_10_n04273569_16949.JPEG
subject-02,1,105,0.907828092575073,bear,bird,0.10,0104_nse_s02_0.10_bird_10_n01817953_13037.JPEG
subject-02,1,106,0.600262880325317,clock,clock,0.00,0105_nse_s02_0.00_clock_10_n02708093_2805.JPEG
subject-02,1,107,0.814762115478516,airplane,airplane,0.05,0106_nse_s02_0.05_airplane_10_n02690373_4029.JPEG
subject-02,1,108,1.49416279792786,truck,truck,0.10,0107_nse_s02_0.10_truck_10_n03796401_1691.JPEG
subject-02,1,109,1.04134511947632,truck,chair,0.35,0108_nse_s02_0.35_chair_10_n04099969_2465.JPEG
subject-02,1,110,1.14809584617615,truck,oven,0.60,0109_nse_s02_0.60_oven_10_n04111531_3082.JPEG
subject-02,1,111,NaN,na,truck,0.35,0110_nse_s02_0.35_truck_10_n03796401_3445.JPEG
subject-02,1,112,1.50026488304138,truck,knife,0.90,0111_nse_s02_0.90_knife_10_n03041632_84012.JPEG
subject-02,1,113,1.25032806396484,elephant,elephant,0.05,0112_nse_s02_0.05_elephant_10_n02504013_1763.JPEG
subject-02,1,114,0.910075902938843,airplane,oven,0.03,0113_nse_s02_0.03_oven_10_n04111531_8344.JPEG
subject-02,1,115,0.556332111358643,airplane,bicycle,0.90,0114_nse_s02_0.90_bicycle_10_n03792782_8184.JPEG
subject-02,1,116,NaN,na,knife,0.20,0115_nse_s02_0.20_knife_10_n03041632_927.JPEG
subject-02,1,117,0.849071025848389,knife,car,0.90,0116_nse_s02_0.90_car_10_n02814533_40984.JPEG
subject-02,1,118,0.841482877731323,knife,knife,0.20,0117_nse_s02_0.20_knife_10_n03041632_13645.JPEG
subject-02,1,119,1.05581593513489,elephant,elephant,0.35,0118_nse_s02_0.35_elephant_10_n02504013_15805.JPEG
subject-02,1,120,0.820450067520142,elephant,dog,0.90,0119_nse_s02_0.90_dog_10_n02107908_9591.JPEG
subject-02,1,121,0.926170110702515,knife,knife,0.00,0120_nse_s02_0.00_knife_10_n03041632_15174.JPEG
subject-02,1,122,1.19460821151733,car,car,0.20,0121_nse_s02_0.20_car_10_n03100240_3364.JPEG
subject-02,1,123,0.647228002548218,car,car,0.03,0122_nse_s02_0.03_car_10_n03100240_29.JPEG
subject-02,1,124,0.907713890075684,oven,oven,0.10,0123_nse_s02_0.10_oven_10_n04111531_22715.JPEG
subject-02,1,125,0.813878059387207,bicycle,bicycle,0.20,0124_nse_s02_0.20_bicycle_10_n02835271_14157.JPEG
subject-02,1,126,0.660189867019653,keyboard,keyboard,0.05,0125_nse_s02_0.05_keyboard_10_n03085013_1387.JPEG
subject-02,1,127,0.904742956161499,keyboard,keyboard,0.60,0126_nse_s02_0.60_keyboard_10_n03085013_18918.JPEG
subject-02,1,128,0.789377927780151,airplane,airplane,0.03,0127_nse_s02_0.03_airplane_10_n02690373_8521.JPEG
subject-02,1,129,0.845687866210938,airplane,dog,0.90,0128_nse_s02_0.90_dog_10_n02093256_1411.JPEG
subject-02,1,130,0.922378063201904,bird,bird,0.10,0129_nse_s02_0.10_bird_10_n02009229_4497.JPEG
subject-02,1,131,0.712852001190186,oven,oven,0.10,0130_nse_s02_0.10_oven_10_n04111531_8414.JPEG
subject-02,1,132,0.562686920166016,oven,car,0.60,0131_nse_s02_0.60_car_10_n03100240_11191.JPEG
subject-02,1,133,0.583189964294434,clock,clock,0.05,0132_nse_s02_0.05_clock_10_n04548280_715.JPEG
subject-02,1,134,1.06771397590637,car,bottle,0.00,0133_nse_s02_0.00_bottle_10_n04557648_3364.JPEG
subject-02,1,135,0.761915922164917,car,car,0.10,0134_nse_s02_0.10_car_10_n03100240_5959.JPEG
subject-02,1,136,0.84632396697998,car,dog,0.60,0135_nse_s02_0.60_dog_10_n02088364_13200.JPEG
subject-02,1,137,0.828100919723511,chair,chair,0.20,0136_nse_s02_0.20_chair_10_n04429376_619.JPEG
subject-02,1,138,0.86441707611084,bicycle,bicycle,0.03,0137_nse_s02_0.03_bicycle_10_n02835271_12473.JPEG
subject-02,1,139,0.654292106628418,bicycle,bird,0.10,0138_nse_s02_0.10_bird_10_n02025239_13511.JPEG
subject-02,1,140,1.23900198936462,airplane,bird,0.10,0139_nse_s02_0.10_bird_10_n02051845_5997.JPEG
subject-02,1,141,1.19984292984009,bear,cat,0.03,0140_nse_s02_0.03_cat_10_n02123159_5441.JPEG
subject-02,1,142,0.91405200958252,boat,knife,0.20,0141_nse_s02_0.20_knife_10_n03041632_105080.JPEG
subject-02,1,143,1.18287515640259,cat,bird,0.90,0142_nse_s02_0.90_bird_10_n01818515_2312.JPEG
subject-02,1,144,0.92668604850769,cat,knife,0.03,0143_nse_s02_0.03_knife_10_n03041632_1884.JPEG
subject-02,1,145,1.05694198608398,bird,bird,0.05,0144_nse_s02_0.05_bird_10_n02018207_27162.JPEG
subject-02,1,146,1.2475049495697,elephant,elephant,0.10,0145_nse_s02_0.10_elephant_10_n02504013_16929.JPEG
subject-02,1,147,1.01238203048706,elephant,boat,0.90,0146_nse_s02_0.90_boat_10_n03662601_15107.JPEG
subject-02,1,148,1.27306890487671,keyboard,keyboard,0.05,0147_nse_s02_0.05_keyboard_10_n03085013_7520.JPEG
subject-02,1,149,0.971503973007202,cat,bear,0.60,0148_nse_s02_0.60_bear_10_n02133161_4617.JPEG
subject-02,1,150,0.809735059738159,bird,bird,0.05,0149_nse_s02_0.05_bird_10_n01843383_7828.JPEG
subject-02,1,151,1.22176504135132,bottle,bottle,0.20,0150_nse_s02_0.20_bottle_10_n04560804_19221.JPEG
subject-02,1,152,0.943519115447998,bottle,bottle,0.20,0151_nse_s02_0.20_bottle_10_n02823428_5015.JPEG
subject-02,1,153,0.666841983795166,bottle,chair,0.60,0152_nse_s02_0.60_chair_10_n04429376_57425.JPEG
subject-02,1,154,0.857238054275513,bicycle,bicycle,0.00,0153_nse_s02_0.00_bicycle_10_n03792782_6146.JPEG
subject-02,1,155,0.78759503364563,keyboard,keyboard,0.10,0154_nse_s02_0.10_keyboard_10_n03085013_6629.JPEG
subject-02,1,156,0.910705089569092,keyboard,oven,0.90,0155_nse_s02_0.90_oven_10_n04111531_9762.JPEG
subject-02,1,157,1.10914492607117,keyboard,oven,0.60,0156_nse_s02_0.60_oven_10_n04111531_11405.JPEG
subject-02,1,158,1.21580004692078,car,oven,0.20,0157_nse_s02_0.20_oven_10_n04111531_467.JPEG
subject-02,1,159,0.715987205505371,bottle,bottle,0.20,0158_nse_s02_0.20_bottle_10_n04579145_7208.JPEG
subject-02,1,160,0.898101091384888,bottle,bottle,0.60,0159_nse_s02_0.60_bottle_10_n02823428_1305.JPEG
subject-02,1,161,0.728797197341919,clock,clock,0.05,0160_nse_s02_0.05_clock_10_n02708093_1546.JPEG
subject-02,1,162,0.648617029190063,clock,elephant,0.90,0161_nse_s02_0.90_elephant_10_n02504458_563.JPEG
subject-02,1,163,0.686453819274902,clock,truck,0.90,0162_nse_s02_0.90_truck_10_n03417042_12531.JPEG
subject-02,1,164,1.31100392341614,clock,elephant,0.35,0163_nse_s02_0.35_elephant_10_n02504458_4163.JPEG
subject-02,1,165,1.05724287033081,bicycle,bicycle,0.03,0164_nse_s02_0.03_bicycle_10_n02835271_4374.JPEG
subject-02,1,166,0.80883002281189,bicycle,truck,0.35,0165_nse_s02_0.35_truck_10_n03796401_6841.JPEG
subject-02,1,167,1.01542997360229,bird,bird,0.03,0166_nse_s02_0.03_bird_10_n02018207_7997.JPEG
subject-02,1,168,1.00577282905579,bicycle,bicycle,0.00,0167_nse_s02_0.00_bicycle_10_n03792782_43328.JPEG
subject-02,1,169,1.37103199958801,knife,knife,0.00,0168_nse_s02_0.00_knife_10_n03041632_40530.JPEG
subject-02,1,170,0.733453989028931,airplane,airplane,0.00,0169_nse_s02_0.00_airplane_10_n02690373_8446.JPEG
subject-02,1,171,0.953797101974487,bicycle,bicycle,0.03,0170_nse_s02_0.03_bicycle_10_n03792782_4467.JPEG
subject-02,1,172,0.822204113006592,car,car,0.00,0171_nse_s02_0.00_car_10_n02814533_7283.JPEG
subject-02,1,173,1.27338290214539,car,airplane,0.90,0172_nse_s02_0.90_airplane_10_n02690373_5885.JPEG
subject-02,1,174,1.24723315238953,bird,bird,0.35,0173_nse_s02_0.35_bird_10_n01829413_3119.JPEG
subject-02,1,175,0.723521947860718,bird,clock,0.90,0174_nse_s02_0.90_clock_10_n04548280_8278.JPEG
subject-02,1,176,1.09223389625549,truck,truck,0.05,0175_nse_s02_0.05_truck_10_n04467665_62524.JPEG
subject-02,1,177,0.935996055603027,truck,oven,0.20,0176_nse_s02_0.20_oven_10_n04111531_4998.JPEG
subject-02,1,178,0.72774600982666,clock,clock,0.20,0177_nse_s02_0.20_clock_10_n04548280_8008.JPEG
subject-02,1,179,1.10672402381897,bird,bird,0.20,0178_nse_s02_0.20_bird_10_n02002556_4676.JPEG
subject-02,1,180,1.0833899974823,dog,dog,0.03,0179_nse_s02_0.03_dog_10_n02106550_1292.JPEG
subject-02,1,181,0.806226968765259,elephant,elephant,0.03,0180_nse_s02_0.03_elephant_10_n02504013_6053.JPEG
subject-02,1,182,1.22843599319458,car,car,0.03,0181_nse_s02_0.03_car_10_n03100240_17108.JPEG
subject-02,1,183,0.888612031936646,bottle,bottle,0.35,0182_nse_s02_0.35_bottle_10_n04591713_1784.JPEG
subject-02,1,184,0.987128019332886,bird,bird,0.05,0183_nse_s02_0.05_bird_10_n02037110_6173.JPEG
subject-02,1,185,0.729988813400269,bird,bear,0.90,0184_nse_s02_0.90_bear_10_n02133161_4043.JPEG
subject-02,1,186,0.790612936019897,bottle,bottle,0.35,0185_nse_s02_0.35_bottle_10_n04591713_2787.JPEG
subject-02,1,187,0.65125298500061,bottle,bicycle,0.60,0186_nse_s02_0.60_bicycle_10_n02835271_1119.JPEG
subject-02,1,188,1.03965091705322,bottle,truck,0.90,0187_nse_s02_0.90_truck_10_n03796401_27924.JPEG
subject-02,1,189,1.10586094856262,elephant,elephant,0.03,0188_nse_s02_0.03_elephant_10_n02504458_4236.JPEG
subject-02,1,190,1.01455807685852,elephant,keyboard,0.60,0189_nse_s02_0.60_keyboard_10_n03085013_17260.JPEG
subject-02,1,191,0.666911125183105,bicycle,bicycle,0.05,0190_nse_s02_0.05_bicycle_10_n02835271_8203.JPEG
subject-02,1,192,0.765702962875366,bottle,bottle,0.05,0191_nse_s02_0.05_bottle_10_n04560804_9365.JPEG
subject-02,1,193,1.50010204315186,oven,knife,0.35,0192_nse_s02_0.35_knife_10_n03041632_22734.JPEG
subject-02,1,194,0.926244020462036,oven,airplane,0.90,0193_nse_s02_0.90_airplane_10_n02690373_5797.JPEG
subject-02,1,195,0.548907995223999,oven,chair,0.60,0194_nse_s02_0.60_chair_10_n04099969_319.JPEG
subject-02,1,196,0.692585945129395,oven,dog,0.35,0195_nse_s02_0.35_dog_10_n02088466_12201.JPEG
subject-02,1,197,0.573896169662476,oven,dog,0.60,0196_nse_s02_0.60_dog_10_n02112706_4223.JPEG
subject-02,1,198,0.671602010726929,bird,bird,0.10,0197_nse_s02_0.10_bird_10_n01530575_7574.JPEG
subject-02,1,199,1.50019907951355,bird,knife,0.10,0198_nse_s02_0.10_knife_10_n03041632_25257.JPEG
subject-02,1,200,0.981471061706543,car,car,0.20,0199_nse_s02_0.20_car_10_n04285008_7.JPEG
subject-02,1,201,0.771714925765991,car,dog,0.90,0200_nse_s02_0.90_dog_10_n02105505_2558.JPEG
subject-02,1,202,0.764263868331909,knife,knife,0.10,0201_nse_s02_0.10_knife_10_n03041632_44238.JPEG
subject-02,1,203,0.638707876205444,bird,bird,0.00,0202_nse_s02_0.00_bird_10_n01819313_1515.JPEG
subject-02,1,204,1.04481792449951,bird,dog,0.10,0203_nse_s02_0.10_dog_10_n02102177_8261.JPEG
subject-02,1,205,0.783477067947388,elephant,elephant,0.05,0204_nse_s02_0.05_elephant_10_n02504013_1125.JPEG
subject-02,1,206,1.44191908836365,elephant,knife,0.60,0205_nse_s02_0.60_knife_10_n03041632_15754.JPEG
subject-02,1,207,0.993518114089966,keyboard,keyboard,0.05,0206_nse_s02_0.05_keyboard_10_n04505470_659.JPEG
subject-02,1,208,NaN,na,cat,0.03,0207_nse_s02_0.03_cat_10_n02125311_21825.JPEG
subject-02,1,209,0.685003995895386,cat,car,0.60,0208_nse_s02_0.60_car_10_n04285008_9045.JPEG
subject-02,1,210,0.842711925506592,cat,keyboard,0.35,0209_nse_s02_0.35_keyboard_10_n04505470_5065.JPEG
subject-02,1,211,1.04314780235291,elephant,elephant,0.35,0210_nse_s02_0.35_elephant_10_n02504458_5858.JPEG
subject-02,1,212,0.725342988967896,bird,bird,0.00,0211_nse_s02_0.00_bird_10_n01798484_4743.JPEG
subject-02,1,213,0.623906850814819,cat,cat,0.05,0212_nse_s02_0.05_cat_10_n02123159_2499.JPEG
subject-02,1,214,0.883798837661743,clock,clock,0.35,0213_nse_s02_0.35_clock_10_n03196217_11714.JPEG
subject-02,1,215,1.08296799659729,clock,boat,0.35,0214_nse_s02_0.35_boat_10_n02951358_12282.JPEG
subject-02,1,216,0.935387849807739,bird,bird,0.35,0215_nse_s02_0.35_bird_10_n02018207_6457.JPEG
subject-02,1,217,1.0877799987793,bottle,bottle,0.03,0216_nse_s02_0.03_bottle_10_n04560804_173.JPEG
subject-02,1,218,0.950770139694214,chair,chair,0.20,0217_nse_s02_0.20_chair_10_n04099969_14028.JPEG
subject-02,1,219,1.1713399887085,bird,cat,0.10,0218_nse_s02_0.10_cat_10_n02125311_9823.JPEG
subject-02,1,220,0.925919055938721,airplane,airplane,0.00,0219_nse_s02_0.00_airplane_10_n02690373_9939.JPEG
subject-02,1,221,1.27076697349548,knife,knife,0.03,0220_nse_s02_0.03_knife_10_n03041632_36814.JPEG
subject-02,1,222,1.26068115234375,airplane,airplane,0.00,0221_nse_s02_0.00_airplane_10_n02690373_10176.JPEG
subject-02,1,223,0.997336149215698,airplane,bird,0.20,0222_nse_s02_0.20_bird_10_n01796340_18474.JPEG
subject-02,1,224,1.03567504882812,keyboard,keyboard,0.03,0223_nse_s02_0.03_keyboard_10_n04505470_4922.JPEG
subject-02,1,225,1.16311812400818,airplane,bottle,0.00,0224_nse_s02_0.00_bottle_10_n04560804_23356.JPEG
subject-02,1,226,0.968985080718994,elephant,elephant,0.03,0225_nse_s02_0.03_elephant_10_n02504458_5152.JPEG
subject-02,1,227,0.658937931060791,boat,airplane,0.05,0226_nse_s02_0.05_airplane_10_n02690373_6363.JPEG
subject-02,1,228,NaN,na,bear,0.20,0227_nse_s02_0.20_bear_10_n02133161_7939.JPEG
subject-02,1,229,1.46380996704102,bear,bird,0.35,0228_nse_s02_0.35_bird_10_n01514859_11643.JPEG
subject-02,1,230,0.707587003707886,keyboard,keyboard,0.00,0229_nse_s02_0.00_keyboard_10_n03085013_24206.JPEG
subject-02,1,231,0.630223035812378,car,car,0.03,0230_nse_s02_0.03_car_10_n04285008_11713.JPEG
subject-02,1,232,1.35887217521667,knife,knife,0.35,0231_nse_s02_0.35_knife_10_n03041632_42162.JPEG
subject-02,1,233,1.35727119445801,bicycle,bird,0.05,0232_nse_s02_0.05_bird_10_n02056570_9464.JPEG
subject-02,1,234,1.17983984947205,bird,bird,0.00,0233_nse_s02_0.00_bird_10_n01855032_5221.JPEG
subject-02,1,235,1.34558701515198,bird,boat,0.60,0234_nse_s02_0.60_boat_10_n04273569_9306.JPEG
subject-02,1,236,0.837977886199951,bird,bear,0.60,0235_nse_s02_0.60_bear_10_n02132136_2719.JPEG
subject-02,1,237,0.94240403175354,boat,boat,0.35,0236_nse_s02_0.35_boat_10_n04612504_30980.JPEG
subject-02,1,238,0.680732011795044,boat,keyboard,0.60,0237_nse_s02_0.60_keyboard_10_n03085013_18907.JPEG
subject-02,1,239,0.602436065673828,boat,cat,0.60,0238_nse_s02_0.60_cat_10_n02125311_15956.JPEG
subject-02,1,240,0.517372131347656,boat,cat,0.60,0239_nse_s02_0.60_cat_10_n02125311_19354.JPEG
subject-02,1,241,0.665750980377197,oven,oven,0.20,0240_nse_s02_0.20_oven_10_n04111531_3191.JPEG
subject-02,1,242,1.09406495094299,clock,clock,0.03,0241_nse_s02_0.03_clock_10_n03196217_5995.JPEG
subject-02,1,243,1.12998604774475,dog,dog,0.05,0242_nse_s02_0.05_dog_10_n02094258_3390.JPEG
subject-02,1,244,0.94507098197937,dog,clock,0.90,0243_nse_s02_0.90_clock_10_n03196217_5627.JPEG
subject-02,1,245,1.16489195823669,cat,cat,0.05,0244_nse_s02_0.05_cat_10_n02124075_6380.JPEG
subject-02,1,246,1.25726699829102,truck,truck,0.05,0245_nse_s02_0.05_truck_10_n03796401_4454.JPEG
subject-02,1,247,0.729245185852051,airplane,airplane,0.35,0246_nse_s02_0.35_airplane_10_n02690373_9991.JPEG
subject-02,1,248,0.879013061523438,oven,oven,0.05,0247_nse_s02_0.05_oven_10_n04111531_18052.JPEG
subject-02,1,249,0.655699968338013,boat,boat,0.35,0248_nse_s02_0.35_boat_10_n03344393_7118.JPEG
subject-02,1,250,1.09975600242615,cat,bear,0.05,0249_nse_s02_0.05_bear_10_n02134418_18982.JPEG
subject-02,1,251,0.951559066772461,elephant,bird,0.35,0250_nse_s02_0.35_bird_10_n01818515_36659.JPEG
subject-02,1,252,0.758265018463135,car,car,0.10,0251_nse_s02_0.10_car_10_n04285008_15217.JPEG
subject-02,1,253,0.878405094146729,car,oven,0.35,0252_nse_s02_0.35_oven_10_n04111531_6536.JPEG
subject-02,1,254,0.784026145935059,keyboard,keyboard,0.03,0253_nse_s02_0.03_keyboard_10_n04505470_1464.JPEG
subject-02,1,255,1.0817928314209,keyboard,keyboard,0.03,0254_nse_s02_0.03_keyboard_10_n04505470_4679.JPEG
subject-02,1,256,1.19443106651306,elephant,elephant,0.20,0255_nse_s02_0.20_elephant_10_n02504013_812.JPEG
subject-02,1,257,1.27085494995117,bicycle,bicycle,0.35,0256_nse_s02_0.35_bicycle_10_n02835271_1357.JPEG
subject-02,1,258,0.976758003234863,chair,chair,0.35,0257_nse_s02_0.35_chair_10_n02791124_6075.JPEG
subject-02,1,259,0.715675115585327,chair,cat,0.60,0258_nse_s02_0.60_cat_10_n02125311_1413.JPEG
subject-02,1,260,0.614128112792969,boat,boat,0.03,0259_nse_s02_0.03_boat_10_n04273569_24494.JPEG
subject-02,1,261,0.912883996963501,oven,clock,0.20,0260_nse_s02_0.20_clock_10_n03196217_11320.JPEG
subject-02,1,262,0.555212020874023,clock,clock,0.20,0261_nse_s02_0.20_clock_10_n04548280_3198.JPEG
subject-02,1,263,0.661604166030884,clock,boat,0.60,0262_nse_s02_0.60_boat_10_n02951358_5693.JPEG
subject-02,1,264,1.35818004608154,chair,keyboard,0.03,0263_nse_s02_0.03_keyboard_10_n03085013_20753.JPEG
subject-02,1,265,0.708209991455078,airplane,airplane,0.20,0264_nse_s02_0.20_airplane_10_n02690373_7487.JPEG
subject-02,1,266,1.08289003372192,bear,bear,0.10,0265_nse_s02_0.10_bear_10_n02134084_27037.JPEG
subject-02,1,267,0.750648975372314,bear,knife,0.90,0266_nse_s02_0.90_knife_10_n03041632_43975.JPEG
subject-02,1,268,0.554841995239258,boat,boat,0.10,0267_nse_s02_0.10_boat_10_n04612504_7103.JPEG
subject-02,1,269,0.514432191848755,boat,knife,0.60,0268_nse_s02_0.60_knife_10_n03041632_44133.JPEG
subject-02,1,270,0.574867963790894,boat,bear,0.90,0269_nse_s02_0.90_bear_10_n02134418_4297.JPEG
subject-02,1,271,0.694963932037354,oven,oven,0.00,0270_nse_s02_0.00_oven_10_n04111531_11221.JPEG
subject-02,1,272,0.846803188323975,knife,knife,0.00,0271_nse_s02_0.00_knife_10_n03041632_54603.JPEG
subject-02,1,273,0.991458177566528,knife,bear,0.35,0272_nse_s02_0.35_bear_10_n02133161_4583.JPEG
subject-02,1,274,1.04419183731079,elephant,elephant,0.05,0273_nse_s02_0.05_elephant_10_n02504013_5271.JPEG
subject-02,1,275,1.03737092018127,dog,dog,0.00,0274_nse_s02_0.00_dog_10_n02097474_7244.JPEG
subject-02,1,276,1.16563677787781,cat,cat,0.05,0275_nse_s02_0.05_cat_10_n02123045_251.JPEG
subject-02,1,277,1.40220284461975,cat,elephant,0.03,0276_nse_s02_0.03_elephant_10_n02504013_5848.JPEG
subject-02,1,278,0.908250093460083,bird,bird,0.10,0277_nse_s02_0.10_bird_10_n01819313_3093.JPEG
subject-02,1,279,0.889837026596069,cat,cat,0.35,0278_nse_s02_0.35_cat_10_n02123394_747.JPEG
subject-02,1,280,0.724064111709595,keyboard,keyboard,0.35,0279_nse_s02_0.35_keyboard_10_n04505470_4592.JPEG
subject-02,1,281,0.922834873199463,keyboard,knife,0.10,0280_nse_s02_0.10_knife_10_n03041632_30565.JPEG
subject-02,1,282,1.17518711090088,keyboard,elephant,0.10,0281_nse_s02_0.10_elephant_10_n02504013_5398.JPEG
subject-02,1,283,1.06223607063293,airplane,airplane,0.20,0282_nse_s02_0.20_airplane_10_n02690373_9441.JPEG
subject-02,1,284,1.42267799377441,truck,truck,0.03,0283_nse_s02_0.03_truck_10_n03796401_7160.JPEG
subject-02,1,285,0.59089207649231,oven,oven,0.03,0284_nse_s02_0.03_oven_10_n04111531_4146.JPEG
subject-02,1,286,0.814198017120361,car,car,0.00,0285_nse_s02_0.00_car_10_n02814533_24181.JPEG
subject-02,1,287,0.596404075622559,car,airplane,0.60,0286_nse_s02_0.60_airplane_10_n02690373_9605.JPEG
subject-02,1,288,0.619375944137573,car,oven,0.35,0287_nse_s02_0.35_oven_10_n04111531_15489.JPEG
subject-02,1,289,0.563979148864746,car,chair,0.90,0288_nse_s02_0.90_chair_10_n03376595_3233.JPEG
subject-02,1,290,0.554153919219971,car,cat,0.60,0289_nse_s02_0.60_cat_10_n02123045_3278.JPEG
subject-02,1,291,0.55104398727417,car,cat,0.20,0290_nse_s02_0.20_cat_10_n02125311_41284.JPEG
subject-02,1,292,0.48782205581665,car,truck,0.90,0291_nse_s02_0.90_truck_10_n04467665_26416.JPEG
subject-02,1,293,0.747695922851562,elephant,elephant,0.00,0292_nse_s02_0.00_elephant_10_n02504013_1708.JPEG
subject-02,1,294,0.807768821716309,bird,bird,0.35,0293_nse_s02_0.35_bird_10_n02007558_4925.JPEG
subject-02,1,295,1.10415601730347,truck,truck,0.00,0294_nse_s02_0.00_truck_10_n03417042_27383.JPEG
subject-02,1,296,0.650315999984741,truck,truck,0.00,0295_nse_s02_0.00_truck_10_n03796401_322.JPEG
subject-02,1,297,0.93276309967041,knife,knife,0.05,0296_nse_s02_0.05_knife_10_n03041632_13846.JPEG
subject-02,1,298,1.19281506538391,chair,knife,0.03,0297_nse_s02_0.03_knife_10_n03041632_21859.JPEG
subject-02,1,299,0.896529912948608,chair,boat,0.90,0298_nse_s02_0.90_boat_10_n03662601_16425.JPEG
subject-02,1,300,0.619755029678345,chair,cat,0.90,0299_nse_s02_0.90_cat_10_n02123597_151.JPEG
subject-02,1,301,1.18824315071106,chair,cat,0.60,0300_nse_s02_0.60_cat_10_n02123045_20493.JPEG
subject-02,1,302,0.810906887054443,bird,bear,0.00,0301_nse_s02_0.00_bear_10_n02134418_855.JPEG
subject-02,1,303,0.814635992050171,knife,knife,0.00,0302_nse_s02_0.00_knife_10_n03041632_41077.JPEG
subject-02,1,304,0.766366958618164,knife,clock,0.60,0303_nse_s02_0.60_clock_10_n02708093_496.JPEG
subject-02,1,305,0.618933916091919,keyboard,keyboard,0.00,0304_nse_s02_0.00_keyboard_10_n04505470_5128.JPEG
subject-02,1,306,0.979416131973267,knife,knife,0.03,0305_nse_s02_0.03_knife_10_n03041632_30821.JPEG
subject-02,1,307,1.48363089561462,bear,bear,0.00,0306_nse_s02_0.00_bear_10_n02132136_5861.JPEG
subject-02,1,308,0.700472116470337,bear,chair,0.90,0307_nse_s02_0.90_chair_10_n03376595_5972.JPEG
subject-02,1,309,0.515630960464478,oven,oven,0.10,0308_nse_s02_0.10_oven_10_n04111531_22517.JPEG
subject-02,1,310,0.859884977340698,chair,chair,0.35,0309_nse_s02_0.35_chair_10_n03376595_6691.JPEG
subject-02,1,311,0.97395396232605,bear,bear,0.10,0310_nse_s02_0.10_bear_10_n02134084_17327.JPEG
subject-02,1,312,1.02658820152283,keyboard,keyboard,0.10,0311_nse_s02_0.10_keyboard_10_n03085013_23549.JPEG
subject-02,1,313,0.73813009262085,keyboard,boat,0.60,0312_nse_s02_0.60_boat_10_n04273569_1861.JPEG
subject-02,1,314,0.728629112243652,clock,clock,0.10,0313_nse_s02_0.10_clock_10_n03196217_5745.JPEG
subject-02,1,315,0.591492891311646,clock,bicycle,0.60,0314_nse_s02_0.60_bicycle_10_n03792782_9786.JPEG
subject-02,1,316,0.657140970230103,bird,bird,0.00,0315_nse_s02_0.00_bird_10_n01592084_10639.JPEG
subject-02,1,317,1.25299286842346,bear,dog,0.60,0316_nse_s02_0.60_dog_10_n02099267_785.JPEG
subject-02,1,318,0.724583864212036,bear,oven,0.60,0317_nse_s02_0.60_oven_10_n04111531_695.JPEG
subject-02,1,319,0.798465013504028,bottle,bottle,0.00,0318_nse_s02_0.00_bottle_10_n03937543_43.JPEG
subject-02,1,320,0.612834215164185,keyboard,keyboard,0.20,0319_nse_s02_0.20_keyboard_10_n04505470_4202.JPEG
subject-02,1,321,1.07921004295349,oven,oven,0.10,0320_nse_s02_0.10_oven_10_n04111531_17917.JPEG
subject-02,1,322,0.546479940414429,oven,chair,0.90,0321_nse_s02_0.90_chair_10_n02791124_146.JPEG
subject-02,1,323,0.995996952056885,oven,chair,0.35,0322_nse_s02_0.35_chair_10_n04429376_11813.JPEG
subject-02,1,324,0.68899393081665,oven,clock,0.90,0323_nse_s02_0.90_clock_10_n04548280_2421.JPEG
subject-02,1,325,0.993391990661621,chair,chair,0.35,0324_nse_s02_0.35_chair_10_n04099969_20390.JPEG
subject-02,1,326,1.27008581161499,chair,chair,0.03,0325_nse_s02_0.03_chair_10_n04429376_22004.JPEG
subject-02,1,327,1.01444411277771,chair,airplane,0.60,0326_nse_s02_0.60_airplane_10_n02690373_9813.JPEG
subject-02,1,328,0.842597961425781,chair,car,0.35,0327_nse_s02_0.35_car_10_n04285008_891.JPEG
subject-02,1,329,0.916141033172607,cat,dog,0.20,0328_nse_s02_0.20_dog_10_n02113624_6196.JPEG
subject-02,1,330,0.806504964828491,chair,chair,0.00,0329_nse_s02_0.00_chair_10_n04099969_2572.JPEG
subject-02,1,331,0.512110948562622,boat,boat,0.20,0330_nse_s02_0.20_boat_10_n03662601_7336.JPEG
subject-02,1,332,0.991749048233032,cat,dog,0.35,0331_nse_s02_0.35_dog_10_n02112350_9255.JPEG
subject-02,1,333,1.29605484008789,dog,car,0.90,0332_nse_s02_0.90_car_10_n04285008_15218.JPEG
subject-02,1,334,0.947713136672974,boat,boat,0.35,0333_nse_s02_0.35_boat_10_n03344393_7826.JPEG
subject-02,1,335,1.1755690574646,car,chair,0.00,0334_nse_s02_0.00_chair_10_n03376595_584.JPEG
subject-02,1,336,0.736409902572632,bicycle,bicycle,0.05,0335_nse_s02_0.05_bicycle_10_n02835271_7280.JPEG
subject-02,1,337,0.950679063796997,dog,bear,0.03,0336_nse_s02_0.03_bear_10_n02132136_9536.JPEG
subject-02,1,338,0.578250885009766,oven,oven,0.05,0337_nse_s02_0.05_oven_10_n04111531_7067.JPEG
subject-02,1,339,0.898704051971436,car,car,0.00,0338_nse_s02_0.00_car_10_n03100240_1477.JPEG
subject-02,1,340,1.04306888580322,airplane,airplane,0.05,0339_nse_s02_0.05_airplane_10_n02690373_5197.JPEG
subject-02,1,341,1.11705589294434,dog,dog,0.20,0340_nse_s02_0.20_dog_10_n02109525_73656.JPEG
subject-02,1,342,0.90955114364624,dog,dog,0.05,0341_nse_s02_0.05_dog_10_n02089078_2855.JPEG
subject-02,1,343,1.16806793212891,car,car,0.60,0342_nse_s02_0.60_car_10_n04285008_7903.JPEG
subject-02,1,344,0.936631917953491,boat,boat,0.00,0343_nse_s02_0.00_boat_10_n03662601_1973.JPEG
subject-02,1,345,1.03504395484924,knife,bird,0.35,0344_nse_s02_0.35_bird_10_n01817953_558.JPEG
subject-02,1,346,1.30955696105957,truck,truck,0.20,0345_nse_s02_0.20_truck_10_n03417042_20280.JPEG
subject-02,1,347,1.21578097343445,chair,elephant,0.05,0346_nse_s02_0.05_elephant_10_n02504013_1878.JPEG
subject-02,1,348,0.952246904373169,bottle,bottle,0.10,0347_nse_s02_0.10_bottle_10_n04591713_4019.JPEG
subject-02,1,349,1.12077879905701,bottle,bird,0.00,0348_nse_s02_0.00_bird_10_n01514859_5034.JPEG
subject-02,1,350,0.772772073745728,airplane,airplane,0.00,0349_nse_s02_0.00_airplane_10_n02690373_932.JPEG
subject-02,1,351,0.885558128356934,boat,car,0.60,0350_nse_s02_0.60_car_10_n03100240_7213.JPEG
subject-02,1,352,0.699738025665283,airplane,airplane,0.10,0351_nse_s02_0.10_airplane_10_n02690373_2867.JPEG
subject-02,1,353,0.997807025909424,dog,dog,0.35,0352_nse_s02_0.35_dog_10_n02107574_4993.JPEG
subject-02,1,354,0.78019905090332,dog,bear,0.60,0353_nse_s02_0.60_bear_10_n02134084_21462.JPEG
subject-02,1,355,1.0157458782196,truck,truck,0.00,0354_nse_s02_0.00_truck_10_n04467665_53583.JPEG
subject-02,1,356,1.19796109199524,clock,truck,0.00,0355_nse_s02_0.00_truck_10_n04467665_34228.JPEG
subject-02,1,357,0.913241863250732,keyboard,keyboard,0.10,0356_nse_s02_0.10_keyboard_10_n04505470_2038.JPEG
subject-02,1,358,0.819571971893311,oven,oven,0.00,0357_nse_s02_0.00_oven_10_n04111531_73.JPEG
subject-02,1,359,0.915635108947754,truck,truck,0.03,0358_nse_s02_0.03_truck_10_n03417042_27015.JPEG
subject-02,1,360,0.854349851608276,truck,bicycle,0.60,0359_nse_s02_0.60_bicycle_10_n02835271_5643.JPEG
subject-02,1,361,1.22108387947083,truck,knife,0.90,0360_nse_s02_0.90_knife_10_n03041632_3781.JPEG
subject-02,1,362,0.726457834243774,elephant,elephant,0.03,0361_nse_s02_0.03_elephant_10_n02504013_6431.JPEG
subject-02,1,363,0.797219038009644,truck,truck,0.05,0362_nse_s02_0.05_truck_10_n04467665_56496.JPEG
subject-02,1,364,0.54095983505249,oven,oven,0.35,0363_nse_s02_0.35_oven_10_n04111531_1562.JPEG
subject-02,1,365,0.685537815093994,oven,boat,0.90,0364_nse_s02_0.90_boat_10_n04273569_31564.JPEG
subject-02,1,366,1.06766700744629,chair,chair,0.00,0365_nse_s02_0.00_chair_10_n02791124_1810.JPEG
subject-02,1,367,0.97348690032959,truck,truck,0.35,0366_nse_s02_0.35_truck_10_n03796401_28097.JPEG
subject-02,1,368,0.726344108581543,truck,bear,0.90,0367_nse_s02_0.90_bear_10_n02132136_11198.JPEG
subject-02,1,369,1.49843621253967,truck,clock,0.90,0368_nse_s02_0.90_clock_10_n02708093_56.JPEG
subject-02,1,370,0.530974864959717,truck,elephant,0.60,0369_nse_s02_0.60_elephant_10_n02504458_5182.JPEG
subject-02,1,371,1.42753291130066,truck,airplane,0.60,0370_nse_s02_0.60_airplane_10_n02690373_8589.JPEG
subject-02,1,372,1.15536999702454,bear,bear,0.10,0371_nse_s02_0.10_bear_10_n02134418_132.JPEG
subject-02,1,373,0.861543893814087,bear,dog,0.60,0372_nse_s02_0.60_dog_10_n02101556_12417.JPEG
subject-02,1,374,NaN,na,bottle,0.90,0373_nse_s02_0.90_bottle_10_n02823428_3907.JPEG
subject-02,1,375,1.18027305603027,bear,clock,0.60,0374_nse_s02_0.60_clock_10_n03196217_454.JPEG
subject-02,1,376,1.48697996139526,airplane,bear,0.10,0375_nse_s02_0.10_bear_10_n02134084_264.JPEG
subject-02,1,377,0.848752021789551,chair,oven,0.20,0376_nse_s02_0.20_oven_10_n04111531_1770.JPEG
subject-02,1,378,1.1091091632843,dog,dog,0.10,0377_nse_s02_0.10_dog_10_n02107142_11546.JPEG
subject-02,1,379,0.877801895141602,dog,airplane,0.90,0378_nse_s02_0.90_airplane_10_n02690373_1800.JPEG
subject-02,1,380,0.921597003936768,oven,oven,0.05,0379_nse_s02_0.05_oven_10_n04111531_6508.JPEG
subject-02,1,381,1.25835990905762,cat,elephant,0.00,0380_nse_s02_0.00_elephant_10_n02504458_5191.JPEG
subject-02,1,382,0.770333051681519,dog,car,0.90,0381_nse_s02_0.90_car_10_n02814533_46520.JPEG
subject-02,1,383,1.28274607658386,dog,dog,0.03,0382_nse_s02_0.03_dog_10_n02110185_6951.JPEG
subject-02,1,384,1.44907903671265,dog,boat,0.03,0383_nse_s02_0.03_boat_10_n03344393_4143.JPEG
subject-02,1,385,0.979681968688965,truck,truck,0.20,0384_nse_s02_0.20_truck_10_n03417042_20609.JPEG
subject-02,1,386,0.647499084472656,boat,boat,0.10,0385_nse_s02_0.10_boat_10_n03344393_6606.JPEG
subject-02,1,387,0.621375799179077,boat,boat,0.00,0386_nse_s02_0.00_boat_10_n02951358_34926.JPEG
subject-02,1,388,0.543804883956909,boat,boat,0.10,0387_nse_s02_0.10_boat_10_n02951358_4538.JPEG
subject-02,1,389,0.734744071960449,airplane,airplane,0.20,0388_nse_s02_0.20_airplane_10_n02690373_2584.JPEG
subject-02,1,390,0.930475950241089,airplane,truck,0.60,0389_nse_s02_0.60_truck_10_n04467665_5116.JPEG
subject-02,1,391,0.707175016403198,boat,boat,0.05,0390_nse_s02_0.05_boat_10_n02951358_6309.JPEG
subject-02,1,392,0.635493993759155,boat,clock,0.35,0391_nse_s02_0.35_clock_10_n04548280_3746.JPEG
subject-02,1,393,0.541756868362427,boat,bottle,0.90,0392_nse_s02_0.90_bottle_10_n03983396_12478.JPEG
subject-02,1,394,0.991319894790649,boat,dog,0.20,0393_nse_s02_0.20_dog_10_n02094258_3143.JPEG
subject-02,1,395,1.26641893386841,chair,chair,0.03,0394_nse_s02_0.03_chair_10_n04429376_6690.JPEG
subject-02,1,396,0.99623703956604,chair,keyboard,0.35,0395_nse_s02_0.35_keyboard_10_n03085013_20495.JPEG
subject-02,1,397,0.694797992706299,bottle,bottle,0.60,0396_nse_s02_0.60_bottle_10_n02823428_2835.JPEG
subject-02,1,398,0.868539810180664,knife,knife,0.00,0397_nse_s02_0.00_knife_10_n03041632_11932.JPEG
subject-02,1,399,0.88282299041748,truck,truck,0.35,0398_nse_s02_0.35_truck_10_n04467665_13331.JPEG
subject-02,1,400,1.17941498756409,bicycle,bicycle,0.05,0399_nse_s02_0.05_bicycle_10_n03792782_10929.JPEG
subject-02,1,401,0.964216947555542,bear,bear,0.10,0400_nse_s02_0.10_bear_10_n02134084_5274.JPEG
subject-02,1,402,1.03885793685913,bicycle,bicycle,0.03,0401_nse_s02_0.03_bicycle_10_n02835271_12945.JPEG
subject-02,1,403,NaN,na,bear,0.20,0402_nse_s02_0.20_bear_10_n02133161_3171.JPEG
subject-02,1,404,0.706043004989624,clock,clock,0.10,0403_nse_s02_0.10_clock_10_n02708093_4061.JPEG
subject-02,1,405,0.804319143295288,oven,oven,0.03,0404_nse_s02_0.03_oven_10_n04111531_669.JPEG
subject-02,1,406,1.20894312858582,bottle,bottle,0.10,0405_nse_s02_0.10_bottle_10_n02823428_7206.JPEG
subject-02,1,407,1.10536408424377,bottle,clock,0.20,0406_nse_s02_0.20_clock_10_n04548280_252.JPEG
subject-02,1,408,0.926053047180176,bottle,bear,0.60,0407_nse_s02_0.60_bear_10_n02134418_5111.JPEG
subject-02,1,409,0.969594955444336,boat,boat,0.03,0408_nse_s02_0.03_boat_10_n02951358_11325.JPEG
subject-02,1,410,0.70612907409668,clock,clock,0.03,0409_nse_s02_0.03_clock_10_n04548280_5074.JPEG
subject-02,1,411,1.02612805366516,clock,dog,0.35,0410_nse_s02_0.35_dog_10_n02107312_4114.JPEG
subject-02,1,412,1.38736987113953,car,car,0.20,0411_nse_s02_0.20_car_10_n02814533_458.JPEG
subject-02,1,413,1.18490099906921,car,keyboard,0.60,0412_nse_s02_0.60_keyboard_10_n03085013_19724.JPEG
subject-02,1,414,0.850889921188354,car,knife,0.90,0413_nse_s02_0.90_knife_10_n03041632_55140.JPEG
subject-02,1,415,0.910498857498169,car,knife,0.05,0414_nse_s02_0.05_knife_10_n03041632_31632.JPEG
subject-02,1,416,0.579138994216919,chair,chair,0.05,0415_nse_s02_0.05_chair_10_n03376595_7859.JPEG
subject-02,1,417,0.937461853027344,chair,bird,0.03,0416_nse_s02_0.03_bird_10_n01798484_14153.JPEG
subject-02,1,418,1.0276198387146,elephant,elephant,0.00,0417_nse_s02_0.00_elephant_10_n02504458_11265.JPEG
subject-02,1,419,0.825784921646118,cat,cat,0.00,0418_nse_s02_0.00_cat_10_n02123159_2398.JPEG
subject-02,1,420,1.12208986282349,knife,knife,0.00,0419_nse_s02_0.00_knife_10_n03041632_11613.JPEG
subject-02,1,421,1.3119330406189,bear,bear,0.05,0420_nse_s02_0.05_bear_10_n02133161_4894.JPEG
subject-02,1,422,0.726498126983643,bicycle,bicycle,0.20,0421_nse_s02_0.20_bicycle_10_n02835271_9097.JPEG
subject-02,1,423,0.907979965209961,cat,oven,0.05,0422_nse_s02_0.05_oven_10_n04111531_3181.JPEG
subject-02,1,424,0.730511903762817,clock,oven,0.35,0423_nse_s02_0.35_oven_10_n04111531_9963.JPEG
subject-02,1,425,1.05662298202515,keyboard,keyboard,0.00,0424_nse_s02_0.00_keyboard_10_n03085013_2169.JPEG
subject-02,1,426,1.20880007743835,bear,elephant,0.20,0425_nse_s02_0.20_elephant_10_n02504013_8863.JPEG
subject-02,1,427,0.898814916610718,bird,bird,0.05,0426_nse_s02_0.05_bird_10_n01817953_1534.JPEG
subject-02,1,428,0.951105833053589,bird,bird,0.60,0427_nse_s02_0.60_bird_10_n02025239_7726.JPEG
subject-02,1,429,0.81712794303894,bird,knife,0.35,0428_nse_s02_0.35_knife_10_n03041632_2546.JPEG
subject-02,1,430,0.986653089523315,bird,bird,0.20,0429_nse_s02_0.20_bird_10_n01820546_1955.JPEG
subject-02,1,431,0.792843103408813,bird,oven,0.20,0430_nse_s02_0.20_oven_10_n04111531_3345.JPEG
subject-02,1,432,0.674560070037842,bird,bottle,0.60,0431_nse_s02_0.60_bottle_10_n04557648_10899.JPEG
subject-02,1,433,0.719108104705811,bird,truck,0.60,0432_nse_s02_0.60_truck_10_n03417042_10520.JPEG
subject-02,1,434,0.625895023345947,bird,oven,0.90,0433_nse_s02_0.90_oven_10_n04111531_15735.JPEG
subject-02,1,435,1.09762907028198,dog,dog,0.00,0434_nse_s02_0.00_dog_10_n02092002_4728.JPEG
subject-02,1,436,1.02852702140808,bear,bear,0.10,0435_nse_s02_0.10_bear_10_n02132136_30840.JPEG
subject-02,1,437,0.649263143539429,bear,chair,0.90,0436_nse_s02_0.90_chair_10_n02791124_2973.JPEG
subject-02,1,438,0.724898815155029,chair,keyboard,0.20,0437_nse_s02_0.20_keyboard_10_n03085013_6904.JPEG
subject-02,1,439,1.00818490982056,airplane,airplane,0.10,0438_nse_s02_0.10_airplane_10_n02690373_8350.JPEG
subject-02,1,440,0.828577995300293,bottle,knife,0.05,0439_nse_s02_0.05_knife_10_n03041632_49570.JPEG
subject-02,1,441,0.804954051971436,keyboard,keyboard,0.03,0440_nse_s02_0.03_keyboard_10_n03085013_5440.JPEG
subject-02,1,442,0.749475002288818,truck,truck,0.00,0441_nse_s02_0.00_truck_10_n03417042_1332.JPEG
subject-02,1,443,0.612099885940552,car,car,0.10,0442_nse_s02_0.10_car_10_n03100240_10410.JPEG
subject-02,1,444,0.794328927993774,bird,bird,0.00,0443_nse_s02_0.00_bird_10_n02013706_5102.JPEG
subject-02,1,445,0.838900089263916,keyboard,keyboard,0.03,0444_nse_s02_0.03_keyboard_10_n04505470_2130.JPEG
subject-02,1,446,1.11309790611267,keyboard,truck,0.60,0445_nse_s02_0.60_truck_10_n04467665_7069.JPEG
subject-02,1,447,0.895210027694702,boat,elephant,0.35,0446_nse_s02_0.35_elephant_10_n02504013_4145.JPEG
subject-02,1,448,1.10727190971375,knife,knife,0.05,0447_nse_s02_0.05_knife_10_n03041632_131.JPEG
subject-02,1,449,1.36001992225647,knife,car,0.35,0448_nse_s02_0.35_car_10_n04285008_4069.JPEG
subject-02,1,450,1.01134181022644,cat,cat,0.05,0449_nse_s02_0.05_cat_10_n02123597_1399.JPEG
subject-02,1,451,0.85645604133606,truck,truck,0.10,0450_nse_s02_0.10_truck_10_n03417042_1963.JPEG
subject-02,1,452,0.922349214553833,truck,oven,0.60,0451_nse_s02_0.60_oven_10_n04111531_4421.JPEG
subject-02,1,453,1.13677287101746,truck,dog,0.60,0452_nse_s02_0.60_dog_10_n02098105_7229.JPEG
subject-02,1,454,0.66587495803833,keyboard,keyboard,0.20,0453_nse_s02_0.20_keyboard_10_n04505470_494.JPEG
subject-02,1,455,1.11006903648376,oven,oven,0.03,0454_nse_s02_0.03_oven_10_n04111531_19576.JPEG
subject-02,1,456,0.908239126205444,dog,dog,0.10,0455_nse_s02_0.10_dog_10_n02085936_10298.JPEG
subject-02,1,457,0.758515119552612,bird,bird,0.00,0456_nse_s02_0.00_bird_10_n01829413_2090.JPEG
subject-02,1,458,0.827003002166748,boat,airplane,0.35,0457_nse_s02_0.35_airplane_10_n02690373_6524.JPEG
subject-02,1,459,0.876809120178223,boat,airplane,0.20,0458_nse_s02_0.20_airplane_10_n02690373_10311.JPEG
subject-02,1,460,0.445544958114624,boat,bird,0.90,0459_nse_s02_0.90_bird_10_n02037110_14088.JPEG
subject-02,1,461,0.965289115905762,boat,oven,0.90,0460_nse_s02_0.90_oven_10_n04111531_1556.JPEG
subject-02,1,462,1.11582899093628,dog,dog,0.00,0461_nse_s02_0.00_dog_10_n02110627_7168.JPEG
subject-02,1,463,0.935789108276367,car,car,0.00,0462_nse_s02_0.00_car_10_n04285008_17056.JPEG
subject-02,1,464,1.07126188278198,bear,bear,0.35,0463_nse_s02_0.35_bear_10_n02134084_16525.JPEG
subject-02,1,465,1.08542609214783,bear,elephant,0.10,0464_nse_s02_0.10_elephant_10_n02504013_17337.JPEG
subject-02,1,466,0.976438999176025,bear,car,0.90,0465_nse_s02_0.90_car_10_n02814533_5618.JPEG
subject-02,1,467,0.812323093414307,bear,oven,0.90,0466_nse_s02_0.90_oven_10_n04111531_2677.JPEG
subject-02,1,468,0.66478705406189,clock,clock,0.00,0467_nse_s02_0.00_clock_10_n02708093_570.JPEG
subject-02,1,469,0.785047054290771,car,car,0.03,0468_nse_s02_0.03_car_10_n03100240_5356.JPEG
subject-02,1,470,0.791621923446655,keyboard,chair,0.20,0469_nse_s02_0.20_chair_10_n03376595_9813.JPEG
subject-02,1,471,1.15811800956726,boat,bicycle,0.10,0470_nse_s02_0.10_bicycle_10_n03792782_20071.JPEG
subject-02,1,472,0.957257032394409,bear,bear,0.35,0471_nse_s02_0.35_bear_10_n02132136_9911.JPEG
subject-02,1,473,0.917722940444946,elephant,elephant,0.03,0472_nse_s02_0.03_elephant_10_n02504458_6484.JPEG
subject-02,1,474,1.04012298583984,bear,bear,0.10,0473_nse_s02_0.10_bear_10_n02133161_4576.JPEG
subject-02,1,475,0.64687705039978,bear,bear,0.05,0474_nse_s02_0.05_bear_10_n02133161_6860.JPEG
subject-02,1,476,0.81315803527832,bear,elephant,0.60,0475_nse_s02_0.60_elephant_10_n02504013_1386.JPEG
subject-02,1,477,0.70362114906311,boat,boat,0.03,0476_nse_s02_0.03_boat_10_n03662601_1565.JPEG
subject-02,1,478,0.664283990859985,boat,boat,0.10,0477_nse_s02_0.10_boat_10_n04273569_17917.JPEG
subject-02,1,479,0.638611078262329,boat,boat,0.60,0478_nse_s02_0.60_boat_10_n02951358_9622.JPEG
subject-02,1,480,0.645251035690308,car,car,0.20,0479_nse_s02_0.20_car_10_n02814533_28756.JPEG
subject-02,1,481,1.0740020275116,dog,dog,0.10,0480_nse_s02_0.10_dog_10_n02109961_14475.JPEG
subject-02,1,482,0.880464792251587,dog,clock,0.35,0481_nse_s02_0.35_clock_10_n04548280_2455.JPEG
subject-02,1,483,1.10813403129578,dog,bird,0.03,0482_nse_s02_0.03_bird_10_n01560419_3101.JPEG
subject-02,1,484,0.772833824157715,car,car,0.10,0483_nse_s02_0.10_car_10_n04285008_629.JPEG
subject-02,1,485,0.725084066390991,cat,oven,0.05,0484_nse_s02_0.05_oven_10_n04111531_9881.JPEG
subject-02,1,486,0.729107856750488,elephant,elephant,0.00,0485_nse_s02_0.00_elephant_10_n02504458_12095.JPEG
subject-02,1,487,0.634576797485352,oven,oven,0.05,0486_nse_s02_0.05_oven_10_n04111531_545.JPEG
subject-02,1,488,1.20661520957947,knife,knife,0.03,0487_nse_s02_0.03_knife_10_n03041632_77022.JPEG
subject-02,1,489,0.845381021499634,cat,boat,0.10,0488_nse_s02_0.10_boat_10_n04273569_5072.JPEG
subject-02,1,490,0.681535959243774,boat,cat,0.90,0489_nse_s02_0.90_cat_10_n02123045_7307.JPEG
subject-02,1,491,0.663995027542114,boat,bear,0.90,0490_nse_s02_0.90_bear_10_n02132136_3971.JPEG
subject-02,1,492,1.50021600723267,airplane,airplane,0.20,0491_nse_s02_0.20_airplane_10_n02690373_3473.JPEG
subject-02,1,493,0.636210918426514,boat,boat,0.00,0492_nse_s02_0.00_boat_10_n03662601_1157.JPEG
subject-02,1,494,0.626664161682129,clock,clock,0.00,0493_nse_s02_0.00_clock_10_n04548280_8454.JPEG
subject-02,1,495,1.45539283752441,dog,dog,0.00,0494_nse_s02_0.00_dog_10_n02108551_14603.JPEG
subject-02,1,496,NaN,na,keyboard,0.60,0495_nse_s02_0.60_keyboard_10_n03085013_21444.JPEG
subject-02,1,497,1.02957916259766,dog,clock,0.20,0496_nse_s02_0.20_clock_10_n03196217_1804.JPEG
subject-02,1,498,0.51150107383728,clock,clock,0.00,0497_nse_s02_0.00_clock_10_n03196217_3605.JPEG
subject-02,1,499,0.79452109336853,truck,truck,0.20,0498_nse_s02_0.20_truck_10_n04467665_12177.JPEG
subject-02,1,500,1.13853001594543,bicycle,bicycle,0.20,0499_nse_s02_0.20_bicycle_10_n02835271_10362.JPEG
subject-02,1,501,0.936872959136963,bicycle,bicycle,0.35,0500_nse_s02_0.35_bicycle_10_n03792782_16149.JPEG
subject-02,1,502,1.19534301757812,bicycle,knife,0.35,0501_nse_s02_0.35_knife_10_n03041632_39836.JPEG
subject-02,1,503,1.15397882461548,bicycle,clock,0.60,0502_nse_s02_0.60_clock_10_n04548280_8480.JPEG
subject-02,1,504,0.989138126373291,airplane,airplane,0.05,0503_nse_s02_0.05_airplane_10_n02690373_614.JPEG
subject-02,1,505,0.896180868148804,airplane,bear,0.90,0504_nse_s02_0.90_bear_10_n02134418_4480.JPEG
subject-02,1,506,0.94046688079834,airplane,keyboard,0.90,0505_nse_s02_0.90_keyboard_10_n04505470_3261.JPEG
subject-02,1,507,0.746990919113159,boat,boat,0.05,0506_nse_s02_0.05_boat_10_n04273569_345.JPEG
subject-02,1,508,1.18404793739319,boat,chair,0.20,0507_nse_s02_0.20_chair_10_n03376595_4937.JPEG
subject-02,1,509,0.76817512512207,boat,boat,0.00,0508_nse_s02_0.00_boat_10_n03344393_8219.JPEG
subject-02,1,510,1.18003606796265,bottle,bottle,0.00,0509_nse_s02_0.00_bottle_10_n03983396_10362.JPEG
subject-02,1,511,1.3174729347229,bottle,dog,0.35,0510_nse_s02_0.35_dog_10_n02099712_1937.JPEG
subject-02,1,512,0.953650951385498,airplane,airplane,0.03,0511_nse_s02_0.03_airplane_10_n02690373_9071.JPEG
subject-02,1,513,1.3148980140686,cat,cat,0.20,0512_nse_s02_0.20_cat_10_n02124075_20092.JPEG
subject-02,1,514,0.577313184738159,cat,bear,0.00,0513_nse_s02_0.00_bear_10_n02132136_22717.JPEG
subject-02,1,515,0.529863119125366,oven,oven,0.03,0514_nse_s02_0.03_oven_10_n04111531_7252.JPEG
subject-02,1,516,0.673594951629639,oven,elephant,0.35,0515_nse_s02_0.35_elephant_10_n02504013_3600.JPEG
subject-02,1,517,1.00217914581299,bicycle,bicycle,0.20,0516_nse_s02_0.20_bicycle_10_n02835271_8109.JPEG
subject-02,1,518,0.683870077133179,bicycle,bird,0.05,0517_nse_s02_0.05_bird_10_n01614925_15683.JPEG
subject-02,1,519,0.703771114349365,bicycle,clock,0.35,0518_nse_s02_0.35_clock_10_n03196217_1028.JPEG
subject-02,1,520,0.647485017776489,boat,boat,0.05,0519_nse_s02_0.05_boat_10_n03344393_3754.JPEG
subject-02,1,521,1.03216505050659,bicycle,knife,0.00,0520_nse_s02_0.00_knife_10_n03041632_99875.JPEG
subject-02,1,522,1.33570194244385,bear,bear,0.20,0521_nse_s02_0.20_bear_10_n02134084_887.JPEG
subject-02,1,523,0.795380115509033,airplane,airplane,0.10,0522_nse_s02_0.10_airplane_10_n02690373_6138.JPEG
subject-02,1,524,0.900213956832886,airplane,chair,0.35,0523_nse_s02_0.35_chair_10_n03376595_6850.JPEG
subject-02,1,525,0.952474117279053,airplane,bird,0.03,0524_nse_s02_0.03_bird_10_n01534433_5774.JPEG
subject-02,1,526,0.807337045669556,dog,dog,0.03,0525_nse_s02_0.03_dog_10_n02113978_11355.JPEG
subject-02,1,527,0.651693105697632,dog,boat,0.90,0526_nse_s02_0.90_boat_10_n03662601_3557.JPEG
subject-02,1,528,0.920228958129883,dog,boat,0.35,0527_nse_s02_0.35_boat_10_n04612504_15844.JPEG
subject-02,1,529,1.04840111732483,dog,clock,0.20,0528_nse_s02_0.20_clock_10_n04548280_1206.JPEG
subject-02,1,530,0.785423040390015,dog,bear,0.35,0529_nse_s02_0.35_bear_10_n02133161_4331.JPEG
subject-02,1,531,0.782365083694458,keyboard,keyboard,0.35,0530_nse_s02_0.35_keyboard_10_n04505470_8895.JPEG
subject-02,1,532,0.719552993774414,truck,truck,0.20,0531_nse_s02_0.20_truck_10_n03796401_8858.JPEG
subject-02,1,533,0.695765972137451,bicycle,bicycle,0.05,0532_nse_s02_0.05_bicycle_10_n02835271_18537.JPEG
subject-02,1,534,1.03742289543152,dog,dog,0.05,0533_nse_s02_0.05_dog_10_n02093754_646.JPEG
subject-02,1,535,0.843362092971802,dog,keyboard,0.60,0534_nse_s02_0.60_keyboard_10_n03085013_22839.JPEG
subject-02,1,536,0.641125202178955,chair,chair,0.05,0535_nse_s02_0.05_chair_10_n03376595_1762.JPEG
subject-02,1,537,0.831799983978271,chair,keyboard,0.90,0536_nse_s02_0.90_keyboard_10_n03085013_18788.JPEG
subject-02,1,538,1.08351898193359,cat,cat,0.00,0537_nse_s02_0.00_cat_10_n02123597_7802.JPEG
subject-02,1,539,0.814364194869995,bicycle,bicycle,0.35,0538_nse_s02_0.35_bicycle_10_n03792782_15016.JPEG
subject-02,1,540,0.550865888595581,bicycle,oven,0.90,0539_nse_s02_0.90_oven_10_n04111531_6479.JPEG
subject-02,1,541,0.557178020477295,bicycle,boat,0.90,0540_nse_s02_0.90_boat_10_n04273569_1594.JPEG
subject-02,1,542,0.673322916030884,airplane,airplane,0.10,0541_nse_s02_0.10_airplane_10_n02690373_4055.JPEG
subject-02,1,543,1.13436198234558,dog,clock,0.35,0542_nse_s02_0.35_clock_10_n02708093_480.JPEG
subject-02,1,544,1.50020408630371,airplane,airplane,0.35,0543_nse_s02_0.35_airplane_10_n02690373_4851.JPEG
subject-02,1,545,0.825975894927979,airplane,cat,0.60,0544_nse_s02_0.60_cat_10_n02124075_4933.JPEG
subject-02,1,546,0.499472856521606,airplane,cat,0.90,0545_nse_s02_0.90_cat_10_n02125311_15360.JPEG
subject-02,1,547,0.88166880607605,truck,truck,0.20,0546_nse_s02_0.20_truck_10_n04467665_28313.JPEG
subject-02,1,548,0.696012020111084,car,car,0.00,0547_nse_s02_0.00_car_10_n02814533_5916.JPEG
subject-02,1,549,0.702100992202759,keyboard,oven,0.03,0548_nse_s02_0.03_oven_10_n04111531_114.JPEG
subject-02,1,550,0.868758201599121,clock,knife,0.60,0549_nse_s02_0.60_knife_10_n03041632_4787.JPEG
subject-02,1,551,0.953143835067749,airplane,airplane,0.03,0550_nse_s02_0.03_airplane_10_n02690373_4061.JPEG
subject-02,1,552,0.613929986953735,keyboard,keyboard,0.10,0551_nse_s02_0.10_keyboard_10_n04505470_8575.JPEG
subject-02,1,553,1.30244779586792,keyboard,chair,0.60,0552_nse_s02_0.60_chair_10_n02791124_9616.JPEG
subject-02,1,554,0.802520990371704,keyboard,elephant,0.05,0553_nse_s02_0.05_elephant_10_n02504013_8992.JPEG
subject-02,1,555,0.717088937759399,car,car,0.05,0554_nse_s02_0.05_car_10_n03100240_266.JPEG
subject-02,1,556,0.623615026473999,car,cat,0.90,0555_nse_s02_0.90_cat_10_n02123394_1318.JPEG
subject-02,1,557,0.614264011383057,car,bottle,0.90,0556_nse_s02_0.90_bottle_10_n04591713_7392.JPEG
subject-02,1,558,1.00449919700623,car,bottle,0.03,0557_nse_s02_0.03_bottle_10_n04557648_2068.JPEG
subject-02,1,559,1.40950512886047,bicycle,bicycle,0.20,0558_nse_s02_0.20_bicycle_10_n03792782_52665.JPEG
subject-02,1,560,0.993756055831909,bicycle,elephant,0.60,0559_nse_s02_0.60_elephant_10_n02504458_1496.JPEG
subject-02,1,561,0.816462993621826,keyboard,keyboard,0.05,0560_nse_s02_0.05_keyboard_10_n03085013_25419.JPEG
subject-02,1,562,0.701442956924438,bottle,bottle,0.35,0561_nse_s02_0.35_bottle_10_n02823428_3550.JPEG
subject-02,1,563,0.799638032913208,bottle,dog,0.00,0562_nse_s02_0.00_dog_10_n02111277_1128.JPEG
subject-02,1,564,1.03362202644348,bird,bird,0.05,0563_nse_s02_0.05_bird_10_n02037110_12453.JPEG
subject-02,1,565,0.850530862808228,bird,chair,0.60,0564_nse_s02_0.60_chair_10_n03376595_3169.JPEG
subject-02,1,566,0.603604793548584,car,car,0.20,0565_nse_s02_0.20_car_10_n02814533_35442.JPEG
subject-02,1,567,0.878127098083496,bottle,bottle,0.35,0566_nse_s02_0.35_bottle_10_n04557648_8157.JPEG
subject-02,1,568,0.674499034881592,clock,clock,0.10,0567_nse_s02_0.10_clock_10_n03196217_2528.JPEG
subject-02,1,569,0.626937866210938,clock,bottle,0.90,0568_nse_s02_0.90_bottle_10_n04591713_6610.JPEG
subject-02,1,570,1.35495495796204,bear,bear,0.20,0569_nse_s02_0.20_bear_10_n02134418_597.JPEG
subject-02,1,571,0.991173982620239,dog,bear,0.03,0570_nse_s02_0.03_bear_10_n02134418_4575.JPEG
subject-02,1,572,0.851505041122437,airplane,airplane,0.10,0571_nse_s02_0.10_airplane_10_n02690373_6336.JPEG
subject-02,1,573,NaN,na,truck,0.05,0572_nse_s02_0.05_truck_10_n04467665_1220.JPEG
subject-02,1,574,0.732137203216553,bicycle,bicycle,0.00,0573_nse_s02_0.00_bicycle_10_n02835271_1974.JPEG
subject-02,1,575,0.784641027450562,car,boat,0.00,0574_nse_s02_0.00_boat_10_n03662601_5182.JPEG
subject-02,1,576,1.41316914558411,car,chair,0.03,0575_nse_s02_0.03_chair_10_n02791124_7147.JPEG
subject-02,1,577,1.5000159740448,car,bottle,0.35,0576_nse_s02_0.35_bottle_10_n03937543_10866.JPEG
subject-02,1,578,0.940918207168579,knife,knife,0.05,0577_nse_s02_0.05_knife_10_n03041632_42887.JPEG
subject-02,1,579,NaN,na,bicycle,0.60,0578_nse_s02_0.60_bicycle_10_n02835271_8928.JPEG
subject-02,1,580,0.807644128799438,airplane,airplane,0.00,0579_nse_s02_0.00_airplane_10_n02690373_8746.JPEG
subject-02,1,581,1.1662700176239,bird,bird,0.10,0580_nse_s02_0.10_bird_10_n01855672_5693.JPEG
subject-02,1,582,0.993758201599121,keyboard,keyboard,0.00,0581_nse_s02_0.00_keyboard_10_n03085013_4717.JPEG
subject-02,1,583,1.16234111785889,elephant,elephant,0.00,0582_nse_s02_0.00_elephant_10_n02504013_8270.JPEG
subject-02,1,584,0.89824104309082,elephant,bottle,0.90,0583_nse_s02_0.90_bottle_10_n04557648_17011.JPEG
subject-02,1,585,1.10476899147034,car,car,0.00,0584_nse_s02_0.00_car_10_n04285008_8231.JPEG
subject-02,1,586,1.1434919834137,bear,bear,0.20,0585_nse_s02_0.20_bear_10_n02132136_14614.JPEG
subject-02,1,587,NaN,na,dog,0.00,0586_nse_s02_0.00_dog_10_n02089973_1516.JPEG
subject-02,1,588,0.753824949264526,cat,cat,0.03,0587_nse_s02_0.03_cat_10_n02124075_11473.JPEG
subject-02,1,589,0.783718109130859,cat,bottle,0.05,0588_nse_s02_0.05_bottle_10_n04591713_6232.JPEG
subject-02,1,590,0.644126892089844,bottle,bottle,0.05,0589_nse_s02_0.05_bottle_10_n03983396_2130.JPEG
subject-02,1,591,0.526370048522949,bottle,keyboard,0.90,0590_nse_s02_0.90_keyboard_10_n03085013_20877.JPEG
subject-02,1,592,1.27610802650452,bicycle,car,0.05,0591_nse_s02_0.05_car_10_n04285008_13276.JPEG
subject-02,1,593,0.852499008178711,bicycle,clock,0.90,0592_nse_s02_0.90_clock_10_n02708093_6381.JPEG
subject-02,1,594,0.674914836883545,bicycle,airplane,0.60,0593_nse_s02_0.60_airplane_10_n02690373_306.JPEG
subject-02,1,595,0.472917079925537,bicycle,keyboard,0.60,0594_nse_s02_0.60_keyboard_10_n04505470_4540.JPEG
subject-02,1,596,0.63916015625,bicycle,dog,0.60,0595_nse_s02_0.60_dog_10_n02106662_9420.JPEG
subject-02,1,597,0.5156090259552,bicycle,oven,0.60,0596_nse_s02_0.60_oven_10_n04111531_9424.JPEG
subject-02,1,598,0.914178848266602,bicycle,boat,0.00,0597_nse_s02_0.00_boat_10_n03344393_9050.JPEG
subject-02,1,599,0.895802021026611,elephant,elephant,0.03,0598_nse_s02_0.03_elephant_10_n02504013_784.JPEG
subject-02,1,600,1.20321202278137,elephant,knife,0.10,0599_nse_s02_0.10_knife_10_n03041632_52929.JPEG
subject-02,1,601,0.846783876419067,elephant,knife,0.60,0600_nse_s02_0.60_knife_10_n03041632_18311.JPEG
subject-02,1,602,0.715342044830322,elephant,keyboard,0.35,0601_nse_s02_0.35_keyboard_10_n03085013_2092.JPEG
subject-02,1,603,0.96784496307373,cat,cat,0.00,0602_nse_s02_0.00_cat_10_n02123159_4919.JPEG
subject-02,1,604,0.758311986923218,cat,boat,0.35,0603_nse_s02_0.35_boat_10_n03344393_6718.JPEG
subject-02,1,605,0.488980054855347,cat,bicycle,0.35,0604_nse_s02_0.35_bicycle_10_n03792782_19375.JPEG
subject-02,1,606,0.427752017974854,cat,truck,0.90,0605_nse_s02_0.90_truck_10_n04467665_5674.JPEG
subject-02,1,607,0.502601146697998,cat,cat,0.10,0606_nse_s02_0.10_cat_10_n02123394_274.JPEG
subject-02,1,608,0.646176099777222,chair,chair,0.03,0607_nse_s02_0.03_chair_10_n02791124_2009.JPEG
subject-02,1,609,1.06890106201172,bottle,bottle,0.05,0608_nse_s02_0.05_bottle_10_n03937543_245.JPEG
subject-02,1,610,0.929164886474609,bottle,bird,0.90,0609_nse_s02_0.90_bird_10_n02037110_7752.JPEG
subject-02,1,611,1.25778698921204,car,car,0.35,0610_nse_s02_0.35_car_10_n03100240_6197.JPEG
subject-02,1,612,0.926342010498047,bicycle,bicycle,0.00,0611_nse_s02_0.00_bicycle_10_n03792782_50847.JPEG
subject-02,1,613,0.82407808303833,bicycle,bottle,0.60,0612_nse_s02_0.60_bottle_10_n02823428_818.JPEG
subject-02,1,614,0.560358047485352,bicycle,boat,0.60,0613_nse_s02_0.60_boat_10_n02951358_4485.JPEG
subject-02,1,615,0.59158992767334,keyboard,keyboard,0.20,0614_nse_s02_0.20_keyboard_10_n03085013_20712.JPEG
subject-02,1,616,0.759954929351807,keyboard,airplane,0.60,0615_nse_s02_0.60_airplane_10_n02690373_20996.JPEG
subject-02,1,617,1.08861303329468,truck,truck,0.20,0616_nse_s02_0.20_truck_10_n04467665_43419.JPEG
subject-02,1,618,0.965287923812866,truck,bicycle,0.20,0617_nse_s02_0.20_bicycle_10_n03792782_74429.JPEG
subject-02,1,619,0.646803855895996,car,car,0.10,0618_nse_s02_0.10_car_10_n02814533_48541.JPEG
subject-02,1,620,0.73728609085083,car,bird,0.20,0619_nse_s02_0.20_bird_10_n02011460_2062.JPEG
subject-02,1,621,0.798476934432983,car,bird,0.60,0620_nse_s02_0.60_bird_10_n01833805_6674.JPEG
subject-02,1,622,0.735265016555786,bottle,bottle,0.10,0621_nse_s02_0.10_bottle_10_n03983396_778.JPEG
subject-02,1,623,0.911121129989624,bottle,bird,0.05,0622_nse_s02_0.05_bird_10_n01820546_3104.JPEG
subject-02,1,624,1.43781495094299,dog,dog,0.05,0623_nse_s02_0.05_dog_10_n02106030_15845.JPEG
subject-02,1,625,0.79996395111084,chair,chair,0.10,0624_nse_s02_0.10_chair_10_n03376595_9591.JPEG
subject-02,1,626,0.731109142303467,chair,clock,0.90,0625_nse_s02_0.90_clock_10_n03196217_10640.JPEG
subject-02,1,627,0.729022026062012,keyboard,keyboard,0.35,0626_nse_s02_0.35_keyboard_10_n04505470_2869.JPEG
subject-02,1,628,1.0256028175354,bicycle,bicycle,0.03,0627_nse_s02_0.03_bicycle_10_n03792782_7846.JPEG
subject-02,1,629,0.747967004776001,keyboard,oven,0.60,0628_nse_s02_0.60_oven_10_n04111531_2189.JPEG
subject-02,1,630,0.640451908111572,airplane,airplane,0.03,0629_nse_s02_0.03_airplane_10_n02690373_2026.JPEG
subject-02,1,631,0.798151016235352,chair,chair,0.00,0630_nse_s02_0.00_chair_10_n02791124_1140.JPEG
subject-02,1,632,0.889632940292358,chair,truck,0.35,0631_nse_s02_0.35_truck_10_n04467665_5020.JPEG
subject-02,1,633,1.12818884849548,chair,dog,0.20,0632_nse_s02_0.20_dog_10_n02102040_2462.JPEG
subject-02,1,634,1.22495198249817,bottle,bottle,0.03,0633_nse_s02_0.03_bottle_10_n04560804_15812.JPEG
subject-02,1,635,1.32265400886536,bottle,chair,0.20,0634_nse_s02_0.20_chair_10_n04099969_11352.JPEG
subject-02,1,636,0.883092164993286,bottle,keyboard,0.60,0635_nse_s02_0.60_keyboard_10_n03085013_6313.JPEG
subject-02,1,637,1.01069617271423,dog,dog,0.20,0636_nse_s02_0.20_dog_10_n02097474_867.JPEG
subject-02,1,638,0.900696992874146,cat,cat,0.03,0637_nse_s02_0.03_cat_10_n02123597_2168.JPEG
subject-02,1,639,0.907227993011475,cat,bear,0.03,0638_nse_s02_0.03_bear_10_n02133161_6335.JPEG
subject-02,1,640,0.461718082427979,cat,bottle,0.20,0639_nse_s02_0.20_bottle_10_n03937543_161.JPEG
subject-02,1,641,1.05222797393799,bear,bear,0.10,0640_nse_s02_0.10_bear_10_n02133161_9364.JPEG
subject-02,1,642,0.942939043045044,cat,knife,0.10,0641_nse_s02_0.10_knife_10_n03041632_10109.JPEG
subject-02,1,643,0.727607011795044,bottle,bottle,0.03,0642_nse_s02_0.03_bottle_10_n04591713_3281.JPEG
subject-02,1,644,0.580659151077271,bottle,bottle,0.10,0643_nse_s02_0.10_bottle_10_n03983396_12497.JPEG
subject-02,1,645,1.00081300735474,boat,bicycle,0.35,0644_nse_s02_0.35_bicycle_10_n02835271_6919.JPEG
subject-02,1,646,0.577555894851685,car,car,0.00,0645_nse_s02_0.00_car_10_n02814533_1215.JPEG
subject-02,1,647,0.608314037322998,car,bottle,0.60,0646_nse_s02_0.60_bottle_10_n04560804_8550.JPEG
subject-02,1,648,0.958895921707153,car,bear,0.60,0647_nse_s02_0.60_bear_10_n02133161_7422.JPEG
subject-02,1,649,1.47858786582947,bear,bear,0.35,0648_nse_s02_0.35_bear_10_n02132136_9807.JPEG
subject-02,1,650,0.771002054214478,airplane,airplane,0.35,0649_nse_s02_0.35_airplane_10_n02690373_6455.JPEG
subject-02,1,651,1.06168508529663,bird,bird,0.35,0650_nse_s02_0.35_bird_10_n01824575_2715.JPEG
subject-02,1,652,1.03603005409241,chair,chair,0.05,0651_nse_s02_0.05_chair_10_n04429376_11977.JPEG
subject-02,1,653,0.87519907951355,bear,dog,0.20,0652_nse_s02_0.20_dog_10_n02108551_1089.JPEG
subject-02,1,654,0.758808851242065,bear,boat,0.20,0653_nse_s02_0.20_boat_10_n03344393_465.JPEG
subject-02,1,655,0.702935934066772,bicycle,bicycle,0.10,0654_nse_s02_0.10_bicycle_10_n02835271_15691.JPEG
subject-02,1,656,0.810083866119385,keyboard,keyboard,0.20,0655_nse_s02_0.20_keyboard_10_n03085013_24648.JPEG
subject-02,1,657,0.751503944396973,keyboard,oven,0.35,0656_nse_s02_0.35_oven_10_n04111531_14383.JPEG
subject-02,1,658,0.911403894424438,truck,truck,0.00,0657_nse_s02_0.00_truck_10_n03417042_12095.JPEG
subject-02,1,659,0.788851022720337,truck,bicycle,0.90,0658_nse_s02_0.90_bicycle_10_n03792782_757.JPEG
subject-02,1,660,1.18733191490173,cat,cat,0.35,0659_nse_s02_0.35_cat_10_n02124075_13978.JPEG
subject-02,1,661,0.525956869125366,cat,elephant,0.90,0660_nse_s02_0.90_elephant_10_n02504013_1455.JPEG
subject-02,1,662,0.770565986633301,oven,oven,0.05,0661_nse_s02_0.05_oven_10_n04111531_46651.JPEG
subject-02,1,663,0.782604932785034,elephant,elephant,0.05,0662_nse_s02_0.05_elephant_10_n02504458_4583.JPEG
subject-02,1,664,0.72095799446106,elephant,bird,0.90,0663_nse_s02_0.90_bird_10_n02018207_22020.JPEG
subject-02,1,665,1.18247890472412,elephant,keyboard,0.03,0664_nse_s02_0.03_keyboard_10_n03085013_15175.JPEG
subject-02,1,666,0.718106985092163,bicycle,bicycle,0.05,0665_nse_s02_0.05_bicycle_10_n03792782_6287.JPEG
subject-02,1,667,0.92467212677002,cat,cat,0.03,0666_nse_s02_0.03_cat_10_n02125311_22340.JPEG
subject-02,1,668,0.676676034927368,cat,airplane,0.90,0667_nse_s02_0.90_airplane_10_n02690373_5032.JPEG
subject-02,1,669,1.11004495620728,oven,keyboard,0.00,0668_nse_s02_0.00_keyboard_10_n03085013_21807.JPEG
subject-02,1,670,0.724524021148682,car,car,0.00,0669_nse_s02_0.00_car_10_n03100240_4167.JPEG
subject-02,1,671,1.01494908332825,elephant,bear,0.35,0670_nse_s02_0.35_bear_10_n02134084_14908.JPEG
subject-02,1,672,0.752686977386475,bottle,bottle,0.10,0671_nse_s02_0.10_bottle_10_n02823428_7100.JPEG
subject-02,1,673,0.635217905044556,airplane,airplane,0.10,0672_nse_s02_0.10_airplane_10_n02690373_303.JPEG
subject-02,1,674,0.832996129989624,elephant,elephant,0.05,0673_nse_s02_0.05_elephant_10_n02504013_11218.JPEG
subject-02,1,675,0.768764972686768,car,car,0.05,0674_nse_s02_0.05_car_10_n03100240_3988.JPEG
subject-02,1,676,1.5000159740448,bear,bear,0.05,0675_nse_s02_0.05_bear_10_n02134418_12628.JPEG
subject-02,1,677,1.21640801429749,boat,clock,0.60,0676_nse_s02_0.60_clock_10_n03196217_5365.JPEG
subject-02,1,678,1.03634691238403,elephant,elephant,0.05,0677_nse_s02_0.05_elephant_10_n02504013_3224.JPEG
subject-02,1,679,1.03404307365417,elephant,clock,0.60,0678_nse_s02_0.60_clock_10_n02708093_3438.JPEG
subject-02,1,680,0.677429914474487,elephant,dog,0.90,0679_nse_s02_0.90_dog_10_n02099429_170.JPEG
subject-02,1,681,0.621943950653076,elephant,bear,0.90,0680_nse_s02_0.90_bear_10_n02134084_1536.JPEG
subject-02,1,682,1.16668510437012,elephant,cat,0.00,0681_nse_s02_0.00_cat_10_n02123045_12800.JPEG
subject-02,1,683,0.650629043579102,bottle,bottle,0.00,0682_nse_s02_0.00_bottle_10_n03983396_4364.JPEG
subject-02,1,684,0.724948883056641,keyboard,keyboard,0.03,0683_nse_s02_0.03_keyboard_10_n04505470_5561.JPEG
subject-02,1,685,0.836848020553589,car,car,0.03,0684_nse_s02_0.03_car_10_n03100240_18069.JPEG
subject-02,1,686,0.620381832122803,car,airplane,0.60,0685_nse_s02_0.60_airplane_10_n02690373_8406.JPEG
subject-02,1,687,1.24631309509277,clock,clock,0.00,0686_nse_s02_0.00_clock_10_n03196217_157.JPEG
subject-02,1,688,0.639619112014771,clock,knife,0.60,0687_nse_s02_0.60_knife_10_n03041632_3504.JPEG
subject-02,1,689,1.14520192146301,elephant,elephant,0.60,0688_nse_s02_0.60_elephant_10_n02504013_3547.JPEG
subject-02,1,690,0.935883045196533,truck,truck,0.03,0689_nse_s02_0.03_truck_10_n03417042_12988.JPEG
subject-02,1,691,1.26406192779541,cat,cat,0.20,0690_nse_s02_0.20_cat_10_n02123045_38.JPEG
subject-02,1,692,1.25420808792114,bear,knife,0.20,0691_nse_s02_0.20_knife_10_n03041632_1143.JPEG
subject-02,1,693,1.47345519065857,bear,knife,0.03,0692_nse_s02_0.03_knife_10_n03041632_383.JPEG
subject-02,1,694,1.1636598110199,knife,knife,0.35,0693_nse_s02_0.35_knife_10_n03041632_737.JPEG
subject-02,1,695,0.702275991439819,truck,truck,0.10,0694_nse_s02_0.10_truck_10_n04467665_70237.JPEG
subject-02,1,696,0.891814947128296,knife,knife,0.10,0695_nse_s02_0.10_knife_10_n03041632_30958.JPEG
subject-02,1,697,1.02731704711914,airplane,boat,0.20,0696_nse_s02_0.20_boat_10_n03344393_8649.JPEG
subject-02,1,698,0.60127592086792,car,car,0.05,0697_nse_s02_0.05_car_10_n02814533_20044.JPEG
subject-02,1,699,0.815699100494385,car,keyboard,0.90,0698_nse_s02_0.90_keyboard_10_n04505470_10264.JPEG
subject-02,1,700,1.08961415290833,bird,bird,0.03,0699_nse_s02_0.03_bird_10_n01843065_2876.JPEG
subject-02,1,701,0.595721006393433,clock,clock,0.00,0700_nse_s02_0.00_clock_10_n04548280_5337.JPEG
subject-02,1,702,0.88875412940979,airplane,airplane,0.20,0701_nse_s02_0.20_airplane_10_n02690373_10657.JPEG
subject-02,1,703,1.45454287528992,boat,boat,0.03,0702_nse_s02_0.03_boat_10_n02951358_30736.JPEG
subject-02,1,704,1.01485109329224,dog,dog,0.10,0703_nse_s02_0.10_dog_10_n02106550_2027.JPEG
subject-02,1,705,1.14383697509766,truck,truck,0.00,0704_nse_s02_0.00_truck_10_n03417042_5779.JPEG
subject-02,1,706,0.803468942642212,airplane,airplane,0.00,0705_nse_s02_0.00_airplane_10_n02690373_2908.JPEG
subject-02,1,707,0.593700885772705,clock,clock,0.10,0706_nse_s02_0.10_clock_10_n04548280_9220.JPEG
subject-02,1,708,0.608589887619019,clock,truck,0.90,0707_nse_s02_0.90_truck_10_n03796401_2988.JPEG
subject-02,1,709,1.19904088973999,truck,truck,0.00,0708_nse_s02_0.00_truck_10_n03417042_29855.JPEG
subject-02,1,710,0.742640018463135,bird,bird,0.00,0709_nse_s02_0.00_bird_10_n01820546_6625.JPEG
subject-02,1,711,0.687527179718018,bird,bottle,0.90,0710_nse_s02_0.90_bottle_10_n04591713_3093.JPEG
subject-02,1,712,0.839111804962158,car,truck,0.10,0711_nse_s02_0.10_truck_10_n03796401_2186.JPEG
subject-02,1,713,0.783021926879883,keyboard,keyboard,0.00,0712_nse_s02_0.00_keyboard_10_n04505470_1335.JPEG
subject-02,1,714,0.672547101974487,keyboard,keyboard,0.90,0713_nse_s02_0.90_keyboard_10_n04505470_1712.JPEG
subject-02,1,715,0.73229193687439,keyboard,oven,0.35,0714_nse_s02_0.35_oven_10_n04111531_7664.JPEG
subject-02,1,716,0.976008176803589,keyboard,truck,0.20,0715_nse_s02_0.20_truck_10_n03417042_10538.JPEG
subject-02,1,717,0.879476070404053,bicycle,bicycle,0.10,0716_nse_s02_0.10_bicycle_10_n02835271_15739.JPEG
subject-02,1,718,1.17811894416809,bicycle,cat,0.03,0717_nse_s02_0.03_cat_10_n02123045_169.JPEG
subject-02,1,719,0.724617958068848,bicycle,elephant,0.20,0718_nse_s02_0.20_elephant_10_n02504458_11216.JPEG
subject-02,1,720,0.736670970916748,bicycle,cat,0.60,0719_nse_s02_0.60_cat_10_n02123159_2246.JPEG
subject-02,1,721,0.780501127243042,bicycle,boat,0.10,0720_nse_s02_0.10_boat_10_n03344393_1680.JPEG
subject-02,1,722,0.654641151428223,car,car,0.20,0721_nse_s02_0.20_car_10_n04285008_1959.JPEG
subject-02,1,723,0.653145790100098,chair,chair,0.35,0722_nse_s02_0.35_chair_10_n02791124_3048.JPEG
subject-02,1,724,0.820724964141846,chair,truck,0.90,0723_nse_s02_0.90_truck_10_n03796401_28309.JPEG
subject-02,1,725,1.01920986175537,car,car,0.10,0724_nse_s02_0.10_car_10_n02814533_4087.JPEG
subject-02,1,726,0.864552021026611,car,clock,0.20,0725_nse_s02_0.20_clock_10_n04548280_6869.JPEG
subject-02,1,727,1.01613688468933,car,bear,0.20,0726_nse_s02_0.20_bear_10_n02133161_6593.JPEG
subject-02,1,728,NaN,na,airplane,0.00,0727_nse_s02_0.00_airplane_10_n02690373_5712.JPEG
subject-02,1,729,1.05166578292847,boat,bird,0.10,0728_nse_s02_0.10_bird_10_n01855032_7728.JPEG
subject-02,1,730,1.07939291000366,airplane,knife,0.00,0729_nse_s02_0.00_knife_10_n03041632_31932.JPEG
subject-02,1,731,0.847001075744629,airplane,bird,0.20,0730_nse_s02_0.20_bird_10_n01820546_6921.JPEG
subject-02,1,732,0.546375036239624,car,car,0.10,0731_nse_s02_0.10_car_10_n02814533_10251.JPEG
subject-02,1,733,NaN,na,dog,0.00,0732_nse_s02_0.00_dog_10_n02110185_2440.JPEG
subject-02,1,734,0.696797132492065,boat,boat,0.10,0733_nse_s02_0.10_boat_10_n04612504_24113.JPEG
subject-02,1,735,1.2115318775177,knife,knife,0.20,0734_nse_s02_0.20_knife_10_n03041632_20697.JPEG
subject-02,1,736,1.21811604499817,truck,truck,0.05,0735_nse_s02_0.05_truck_10_n04467665_513.JPEG
subject-02,1,737,0.786641836166382,keyboard,keyboard,0.10,0736_nse_s02_0.10_keyboard_10_n03085013_11682.JPEG
subject-02,1,738,1.0234432220459,bear,bear,0.20,0737_nse_s02_0.20_bear_10_n02134084_5888.JPEG
subject-02,1,739,1.11375498771667,bicycle,bicycle,0.03,0738_nse_s02_0.03_bicycle_10_n03792782_5071.JPEG
subject-02,1,740,1.32761597633362,cat,cat,0.00,0739_nse_s02_0.00_cat_10_n02123159_2484.JPEG
subject-02,1,741,0.618735074996948,cat,knife,0.90,0740_nse_s02_0.90_knife_10_n03041632_45569.JPEG
subject-02,1,742,0.648949146270752,keyboard,keyboard,0.00,0741_nse_s02_0.00_keyboard_10_n04505470_1744.JPEG
subject-02,1,743,1.03874707221985,keyboard,cat,0.10,0742_nse_s02_0.10_cat_10_n02123597_4763.JPEG
subject-02,1,744,0.721482992172241,bicycle,bicycle,0.10,0743_nse_s02_0.10_bicycle_10_n03792782_21541.JPEG
subject-02,1,745,0.981515884399414,dog,bear,0.00,0744_nse_s02_0.00_bear_10_n02132136_10318.JPEG
subject-02,1,746,0.648059129714966,truck,truck,0.20,0745_nse_s02_0.20_truck_10_n04467665_670.JPEG
subject-02,1,747,0.592236995697021,car,car,0.05,0746_nse_s02_0.05_car_10_n02814533_12185.JPEG
subject-02,1,748,0.889689922332764,car,dog,0.10,0747_nse_s02_0.10_dog_10_n02085936_684.JPEG
subject-02,1,749,0.750576972961426,chair,chair,0.00,0748_nse_s02_0.00_chair_10_n03376595_4978.JPEG
subject-02,1,750,0.735592126846313,chair,boat,0.35,0749_nse_s02_0.35_boat_10_n02951358_34307.JPEG
subject-02,1,751,0.480125188827515,boat,boat,0.00,0750_nse_s02_0.00_boat_10_n04612504_12864.JPEG
subject-02,1,752,0.540509939193726,boat,bicycle,0.90,0751_nse_s02_0.90_bicycle_10_n02835271_13124.JPEG
subject-02,1,753,0.714776992797852,elephant,elephant,0.20,0752_nse_s02_0.20_elephant_10_n02504013_15219.JPEG
subject-02,1,754,0.928868770599365,keyboard,keyboard,0.00,0753_nse_s02_0.00_keyboard_10_n03085013_3439.JPEG
subject-02,1,755,0.697311878204346,keyboard,cat,0.60,0754_nse_s02_0.60_cat_10_n02123159_1872.JPEG
subject-02,1,756,0.655418157577515,airplane,airplane,0.10,0755_nse_s02_0.10_airplane_10_n02690373_8996.JPEG
subject-02,1,757,0.923657178878784,car,car,0.35,0756_nse_s02_0.35_car_10_n04285008_3651.JPEG
subject-02,1,758,1.06036591529846,cat,cat,0.10,0757_nse_s02_0.10_cat_10_n02123159_433.JPEG
subject-02,1,759,1.01186585426331,cat,oven,0.20,0758_nse_s02_0.20_oven_10_n04111531_2922.JPEG
subject-02,1,760,0.872448921203613,chair,chair,0.03,0759_nse_s02_0.03_chair_10_n03376595_9219.JPEG
subject-02,1,761,0.962419986724854,knife,knife,0.05,0760_nse_s02_0.05_knife_10_n03041632_51581.JPEG
subject-02,1,762,1.32023906707764,bicycle,bicycle,0.10,0761_nse_s02_0.10_bicycle_10_n03792782_18299.JPEG
subject-02,1,763,NaN,na,dog,0.20,0762_nse_s02_0.20_dog_10_n02091134_7924.JPEG
subject-02,1,764,1.05542993545532,dog,knife,0.90,0763_nse_s02_0.90_knife_10_n03041632_43289.JPEG
subject-02,1,765,0.700819969177246,dog,bicycle,0.90,0764_nse_s02_0.90_bicycle_10_n03792782_16024.JPEG
subject-02,1,766,0.953610897064209,bottle,bottle,0.05,0765_nse_s02_0.05_bottle_10_n04560804_13665.JPEG
subject-02,1,767,0.665325164794922,bottle,cat,0.90,0766_nse_s02_0.90_cat_10_n02123597_14713.JPEG
subject-02,1,768,1.50020098686218,truck,truck,0.10,0767_nse_s02_0.10_truck_10_n03796401_8117.JPEG
subject-02,1,769,1.05287194252014,cat,elephant,0.60,0768_nse_s02_0.60_elephant_10_n02504013_16197.JPEG
subject-02,1,770,0.783233165740967,bicycle,bicycle,0.05,0769_nse_s02_0.05_bicycle_10_n03792782_33116.JPEG
subject-02,1,771,0.768182039260864,elephant,elephant,0.10,0770_nse_s02_0.10_elephant_10_n02504458_13179.JPEG
subject-02,1,772,1.48825693130493,car,car,0.10,0771_nse_s02_0.10_car_10_n02814533_38862.JPEG
subject-02,1,773,0.847860097885132,car,bird,0.60,0772_nse_s02_0.60_bird_10_n02006656_6111.JPEG
subject-02,1,774,1.00889897346497,chair,chair,0.20,0773_nse_s02_0.20_chair_10_n02791124_5004.JPEG
subject-02,1,775,0.883180141448975,chair,cat,0.03,0774_nse_s02_0.03_cat_10_n02123159_3429.JPEG
subject-02,1,776,0.95097804069519,elephant,elephant,0.10,0775_nse_s02_0.10_elephant_10_n02504013_10330.JPEG
subject-02,1,777,1.10139989852905,chair,oven,0.00,0776_nse_s02_0.00_oven_10_n04111531_2186.JPEG
subject-02,1,778,1.08326601982117,chair,elephant,0.00,0777_nse_s02_0.00_elephant_10_n02504458_1351.JPEG
subject-02,1,779,1.30588102340698,keyboard,keyboard,0.05,0778_nse_s02_0.05_keyboard_10_n03085013_23904.JPEG
subject-02,1,780,0.942704916000366,airplane,airplane,0.20,0779_nse_s02_0.20_airplane_10_n02690373_1563.JPEG
subject-02,1,781,0.986589908599854,airplane,bicycle,0.90,0780_nse_s02_0.90_bicycle_10_n03792782_28970.JPEG
subject-02,1,782,1.00830411911011,airplane,knife,0.03,0781_nse_s02_0.03_knife_10_n03041632_28129.JPEG
subject-02,1,783,0.514871120452881,airplane,dog,0.60,0782_nse_s02_0.60_dog_10_n02106166_20689.JPEG
subject-02,1,784,0.7430100440979,airplane,knife,0.60,0783_nse_s02_0.60_knife_10_n03041632_24384.JPEG
subject-02,1,785,0.703397035598755,car,car,0.10,0784_nse_s02_0.10_car_10_n03100240_7333.JPEG
subject-02,1,786,0.715219974517822,oven,oven,0.03,0785_nse_s02_0.03_oven_10_n04111531_4939.JPEG
subject-02,1,787,0.637636184692383,oven,chair,0.60,0786_nse_s02_0.60_chair_10_n02791124_2624.JPEG
subject-02,1,788,1.33331894874573,truck,truck,0.03,0787_nse_s02_0.03_truck_10_n03417042_29384.JPEG
subject-02,1,789,0.922672986984253,truck,cat,0.35,0788_nse_s02_0.35_cat_10_n02123045_3421.JPEG
subject-02,1,790,0.674954175949097,truck,oven,0.00,0789_nse_s02_0.00_oven_10_n04111531_8812.JPEG
subject-02,1,791,0.774322032928467,truck,elephant,0.90,0790_nse_s02_0.90_elephant_10_n02504013_1254.JPEG
subject-02,1,792,0.726235866546631,airplane,airplane,0.35,0791_nse_s02_0.35_airplane_10_n02690373_8743.JPEG
subject-02,1,793,1.35407400131226,bear,bear,0.00,0792_nse_s02_0.00_bear_10_n02133161_24015.JPEG
subject-02,1,794,0.939455032348633,bear,cat,0.20,0793_nse_s02_0.20_cat_10_n02125311_47731.JPEG
subject-02,1,795,0.94619083404541,bottle,bottle,0.05,0794_nse_s02_0.05_bottle_10_n04579145_2958.JPEG
subject-02,1,796,0.636318922042847,bottle,clock,0.03,0795_nse_s02_0.03_clock_10_n03196217_5636.JPEG
subject-02,1,797,0.727388858795166,bottle,clock,0.35,0796_nse_s02_0.35_clock_10_n02708093_2530.JPEG
subject-02,1,798,0.757907867431641,knife,knife,0.03,0797_nse_s02_0.03_knife_10_n03041632_30602.JPEG
subject-02,1,799,1.40055203437805,dog,chair,0.05,0798_nse_s02_0.05_chair_10_n04099969_16266.JPEG
subject-02,1,800,1.30939602851868,dog,chair,0.90,0799_nse_s02_0.90_chair_10_n02791124_4930.JPEG
subject-02,1,801,1.50034999847412,dog,cat,0.60,0800_nse_s02_0.60_cat_10_n02123394_937.JPEG
subject-02,1,802,0.976562023162842,dog,bottle,0.35,0801_nse_s02_0.35_bottle_10_n04579145_7429.JPEG
subject-02,1,803,0.54540491104126,dog,cat,0.90,0802_nse_s02_0.90_cat_10_n02123045_9433.JPEG
subject-02,1,804,0.795492172241211,dog,chair,0.60,0803_nse_s02_0.60_chair_10_n03376595_6942.JPEG
subject-02,1,805,0.855015993118286,dog,bear,0.60,0804_nse_s02_0.60_bear_10_n02132136_9150.JPEG
subject-02,1,806,0.700191020965576,dog,car,0.90,0805_nse_s02_0.90_car_10_n03100240_16908.JPEG
subject-02,1,807,1.19064998626709,cat,cat,0.05,0806_nse_s02_0.05_cat_10_n02123394_5726.JPEG
subject-02,1,808,1.50039505958557,cat,bear,0.10,0807_nse_s02_0.10_bear_10_n02134084_19255.JPEG
subject-02,1,809,1.24101185798645,keyboard,keyboard,0.03,0808_nse_s02_0.03_keyboard_10_n03085013_23793.JPEG
subject-02,1,810,0.81489086151123,keyboard,bottle,0.60,0809_nse_s02_0.60_bottle_10_n02823428_418.JPEG
subject-02,1,811,0.759322166442871,keyboard,dog,0.60,0810_nse_s02_0.60_dog_10_n02093256_19495.JPEG
subject-02,1,812,1.23535394668579,keyboard,cat,0.35,0811_nse_s02_0.35_cat_10_n02123597_7323.JPEG
subject-02,1,813,1.26323199272156,keyboard,dog,0.90,0812_nse_s02_0.90_dog_10_n02085782_2241.JPEG
subject-02,1,814,0.745777130126953,keyboard,airplane,0.90,0813_nse_s02_0.90_airplane_10_n02690373_6549.JPEG
subject-02,1,815,0.968476057052612,bear,bear,0.00,0814_nse_s02_0.00_bear_10_n02134084_6747.JPEG
subject-02,1,816,0.882860898971558,bicycle,bicycle,0.03,0815_nse_s02_0.03_bicycle_10_n03792782_2364.JPEG
subject-02,1,817,0.948540925979614,bird,bird,0.05,0816_nse_s02_0.05_bird_10_n01860187_5764.JPEG
subject-02,1,818,0.74923300743103,car,car,0.03,0817_nse_s02_0.03_car_10_n02814533_63218.JPEG
subject-02,1,819,0.577036142349243,car,elephant,0.35,0818_nse_s02_0.35_elephant_10_n02504013_25516.JPEG
subject-02,1,820,0.789592027664185,bottle,bottle,0.10,0819_nse_s02_0.10_bottle_10_n04579145_4610.JPEG
subject-02,1,821,0.857851982116699,bottle,boat,0.20,0820_nse_s02_0.20_boat_10_n03662601_8482.JPEG
subject-02,1,822,0.648587942123413,bottle,clock,0.35,0821_nse_s02_0.35_clock_10_n04548280_7839.JPEG
subject-02,1,823,0.64609694480896,airplane,airplane,0.05,0822_nse_s02_0.05_airplane_10_n02690373_7099.JPEG
subject-02,1,824,0.874139070510864,clock,clock,0.60,0823_nse_s02_0.60_clock_10_n02708093_6696.JPEG
subject-02,1,825,0.49640417098999,clock,bear,0.90,0824_nse_s02_0.90_bear_10_n02134418_11706.JPEG
subject-02,1,826,1.08710408210754,bird,bird,0.03,0825_nse_s02_0.03_bird_10_n01828970_23168.JPEG
subject-02,1,827,0.731734991073608,bird,boat,0.90,0826_nse_s02_0.90_boat_10_n02951358_12969.JPEG
subject-02,1,828,0.651493072509766,bottle,bottle,0.00,0827_nse_s02_0.00_bottle_10_n04557648_4209.JPEG
subject-02,1,829,0.528228998184204,bottle,knife,0.90,0828_nse_s02_0.90_knife_10_n03041632_31849.JPEG
subject-02,1,830,0.910772085189819,bear,bear,0.05,0829_nse_s02_0.05_bear_10_n02134084_18382.JPEG
subject-02,1,831,1.02483510971069,bear,bottle,0.35,0830_nse_s02_0.35_bottle_10_n04560804_19743.JPEG
subject-02,1,832,0.644941091537476,boat,boat,0.03,0831_nse_s02_0.03_boat_10_n02951358_32651.JPEG
subject-02,1,833,0.606142044067383,clock,clock,0.10,0832_nse_s02_0.10_clock_10_n02708093_7882.JPEG
subject-02,1,834,0.495688199996948,clock,car,0.60,0833_nse_s02_0.60_car_10_n02814533_1533.JPEG
subject-02,1,835,0.756232976913452,clock,bear,0.35,0834_nse_s02_0.35_bear_10_n02133161_14945.JPEG
subject-02,1,836,0.547218084335327,boat,boat,0.10,0835_nse_s02_0.10_boat_10_n02951358_34116.JPEG
subject-02,1,837,0.720875978469849,boat,clock,0.35,0836_nse_s02_0.35_clock_10_n02708093_2393.JPEG
subject-02,1,838,0.773419141769409,airplane,airplane,0.03,0837_nse_s02_0.03_airplane_10_n02690373_813.JPEG
subject-02,1,839,1.05533385276794,airplane,dog,0.60,0838_nse_s02_0.60_dog_10_n02102480_7238.JPEG
subject-02,1,840,1.2291259765625,airplane,cat,0.00,0839_nse_s02_0.00_cat_10_n02123394_2059.JPEG
subject-02,1,841,1.14925312995911,airplane,chair,0.60,0840_nse_s02_0.60_chair_10_n02791124_1335.JPEG
subject-02,1,842,0.518450975418091,airplane,truck,0.60,0841_nse_s02_0.60_truck_10_n03417042_9121.JPEG
subject-02,1,843,1.14653086662292,truck,truck,0.10,0842_nse_s02_0.10_truck_10_n03796401_2101.JPEG
subject-02,1,844,0.690708875656128,chair,chair,0.03,0843_nse_s02_0.03_chair_10_n02791124_3180.JPEG
subject-02,1,845,1.08937001228333,chair,elephant,0.10,0844_nse_s02_0.10_elephant_10_n02504458_5641.JPEG
subject-02,1,846,0.879857063293457,cat,cat,0.00,0845_nse_s02_0.00_cat_10_n02123045_3477.JPEG
subject-02,1,847,0.477594137191772,cat,airplane,0.90,0846_nse_s02_0.90_airplane_10_n02690373_7698.JPEG
subject-02,1,848,1.06292390823364,car,car,0.20,0847_nse_s02_0.20_car_10_n02814533_26334.JPEG
subject-02,1,849,0.66677188873291,chair,chair,0.03,0848_nse_s02_0.03_chair_10_n04429376_16370.JPEG
subject-02,1,850,0.881072044372559,keyboard,keyboard,0.03,0849_nse_s02_0.03_keyboard_10_n03085013_19607.JPEG
subject-02,1,851,1.26936984062195,elephant,elephant,0.35,0850_nse_s02_0.35_elephant_10_n02504013_8913.JPEG
subject-02,1,852,0.929365158081055,boat,truck,0.60,0851_nse_s02_0.60_truck_10_n04467665_707.JPEG
subject-02,1,853,0.91353702545166,car,car,0.35,0852_nse_s02_0.35_car_10_n02814533_38719.JPEG
subject-02,1,854,0.742275953292847,boat,bird,0.20,0853_nse_s02_0.20_bird_10_n01530575_8161.JPEG
subject-02,1,855,0.902756929397583,boat,boat,0.60,0854_nse_s02_0.60_boat_10_n02951358_35469.JPEG
subject-02,1,856,0.976867198944092,cat,cat,0.05,0855_nse_s02_0.05_cat_10_n02124075_9970.JPEG
subject-02,1,857,0.767709016799927,oven,oven,0.20,0856_nse_s02_0.20_oven_10_n04111531_1398.JPEG
subject-02,1,858,0.811264991760254,bottle,bottle,0.00,0857_nse_s02_0.00_bottle_10_n04579145_1783.JPEG
subject-02,1,859,0.961079120635986,bird,airplane,0.20,0858_nse_s02_0.20_airplane_10_n02690373_18603.JPEG
subject-02,1,860,1.08439588546753,bird,bicycle,0.20,0859_nse_s02_0.20_bicycle_10_n03792782_3388.JPEG
subject-02,1,861,0.619931936264038,chair,chair,0.00,0860_nse_s02_0.00_chair_10_n03376595_6907.JPEG
subject-02,1,862,0.5887131690979,oven,oven,0.10,0861_nse_s02_0.10_oven_10_n04111531_15667.JPEG
subject-02,1,863,1.24784898757935,chair,chair,0.10,0862_nse_s02_0.10_chair_10_n04429376_6496.JPEG
subject-02,1,864,1.02896308898926,cat,bear,0.05,0863_nse_s02_0.05_bear_10_n02133161_10329.JPEG
subject-02,1,865,0.751863956451416,cat,bicycle,0.10,0864_nse_s02_0.10_bicycle_10_n03792782_8057.JPEG
subject-02,1,866,0.774694919586182,cat,oven,0.20,0865_nse_s02_0.20_oven_10_n04111531_9041.JPEG
subject-02,1,867,1.07112193107605,truck,truck,0.35,0866_nse_s02_0.35_truck_10_n03417042_22918.JPEG
subject-02,1,868,1.02366995811462,dog,dog,0.03,0867_nse_s02_0.03_dog_10_n02108000_191.JPEG
subject-02,1,869,0.692186832427979,oven,oven,0.00,0868_nse_s02_0.00_oven_10_n04111531_12702.JPEG
subject-02,1,870,0.5068359375,oven,clock,0.60,0869_nse_s02_0.60_clock_10_n03196217_8578.JPEG
subject-02,1,871,1.01821708679199,elephant,elephant,0.20,0870_nse_s02_0.20_elephant_10_n02504458_650.JPEG
subject-02,1,872,0.825289011001587,keyboard,knife,0.35,0871_nse_s02_0.35_knife_10_n03041632_4879.JPEG
subject-02,1,873,0.476989984512329,oven,oven,0.10,0872_nse_s02_0.10_oven_10_n04111531_8398.JPEG
subject-02,1,874,1.3434681892395,bicycle,bicycle,0.10,0873_nse_s02_0.10_bicycle_10_n02835271_6789.JPEG
subject-02,1,875,1.12913799285889,oven,truck,0.90,0874_nse_s02_0.90_truck_10_n03796401_9627.JPEG
subject-02,1,876,0.481496095657349,oven,bicycle,0.60,0875_nse_s02_0.60_bicycle_10_n03792782_146.JPEG
subject-02,1,877,0.931482076644897,bottle,bottle,0.35,0876_nse_s02_0.35_bottle_10_n04591713_2212.JPEG
subject-02,1,878,1.00868201255798,oven,knife,0.10,0877_nse_s02_0.10_knife_10_n03041632_17091.JPEG
subject-02,1,879,0.844161033630371,bicycle,bicycle,0.20,0878_nse_s02_0.20_bicycle_10_n02835271_4003.JPEG
subject-02,1,880,0.626560211181641,bicycle,truck,0.90,0879_nse_s02_0.90_truck_10_n03796401_27282.JPEG
subject-02,1,881,0.841845989227295,cat,cat,0.10,0880_nse_s02_0.10_cat_10_n02123159_351.JPEG
subject-02,1,882,0.887050867080688,cat,cat,0.20,0881_nse_s02_0.20_cat_10_n02123045_12462.JPEG
subject-02,1,883,0.662456035614014,cat,bear,0.90,0882_nse_s02_0.90_bear_10_n02134084_14809.JPEG
subject-02,1,884,0.715248107910156,cat,cat,0.03,0883_nse_s02_0.03_cat_10_n02123159_1876.JPEG
subject-02,1,885,0.802809000015259,bird,bird,0.03,0884_nse_s02_0.03_bird_10_n01614925_118.JPEG
subject-02,1,886,0.731194019317627,bird,bird,0.60,0885_nse_s02_0.60_bird_10_n01534433_5467.JPEG
subject-02,1,887,0.850392818450928,chair,chair,0.05,0886_nse_s02_0.05_chair_10_n04099969_1241.JPEG
subject-02,1,888,0.845500946044922,chair,bird,0.60,0887_nse_s02_0.60_bird_10_n01531178_26559.JPEG
subject-02,1,889,0.755171060562134,bottle,bottle,0.35,0888_nse_s02_0.35_bottle_10_n02823428_1832.JPEG
subject-02,1,890,0.837673187255859,cat,knife,0.35,0889_nse_s02_0.35_knife_10_n03041632_29338.JPEG
subject-02,1,891,0.665699005126953,clock,clock,0.00,0890_nse_s02_0.00_clock_10_n03196217_5877.JPEG
subject-02,1,892,1.07155680656433,boat,boat,0.05,0891_nse_s02_0.05_boat_10_n03662601_3616.JPEG
subject-02,1,893,0.532141923904419,boat,bird,0.90,0892_nse_s02_0.90_bird_10_n02006656_4291.JPEG
subject-02,1,894,0.582115173339844,boat,bear,0.60,0893_nse_s02_0.60_bear_10_n02134418_5437.JPEG
subject-02,1,895,1.43425798416138,bottle,bottle,0.05,0894_nse_s02_0.05_bottle_10_n03937543_1228.JPEG
subject-02,1,896,0.702288866043091,car,car,0.35,0895_nse_s02_0.35_car_10_n04285008_15177.JPEG
subject-02,1,897,0.898621082305908,airplane,airplane,0.03,0896_nse_s02_0.03_airplane_10_n02690373_2730.JPEG
subject-02,1,898,1.04210901260376,chair,chair,0.03,0897_nse_s02_0.03_chair_10_n04429376_29750.JPEG
subject-02,1,899,1.05412292480469,bear,bear,0.03,0898_nse_s02_0.03_bear_10_n02132136_8312.JPEG
subject-02,1,900,0.997338056564331,car,car,0.03,0899_nse_s02_0.03_car_10_n04285008_1573.JPEG
subject-02,1,901,0.97066593170166,truck,truck,0.05,0900_nse_s02_0.05_truck_10_n04467665_8674.JPEG
subject-02,1,902,0.674560785293579,chair,chair,0.35,0901_nse_s02_0.35_chair_10_n02791124_8022.JPEG
subject-02,1,903,0.872659921646118,bear,bear,0.00,0902_nse_s02_0.00_bear_10_n02132136_15462.JPEG
subject-02,1,904,1.07973194122314,bear,dog,0.90,0903_nse_s02_0.90_dog_10_n02105641_3156.JPEG
subject-02,1,905,0.509433031082153,bear,oven,0.90,0904_nse_s02_0.90_oven_10_n04111531_7717.JPEG
subject-02,1,906,0.759919166564941,bear,boat,0.60,0905_nse_s02_0.60_boat_10_n03344393_5852.JPEG
subject-02,1,907,0.590925216674805,car,car,0.03,0906_nse_s02_0.03_car_10_n03100240_7935.JPEG
subject-02,1,908,0.567158937454224,keyboard,keyboard,0.10,0907_nse_s02_0.10_keyboard_10_n03085013_6954.JPEG
subject-02,1,909,1.33389687538147,keyboard,keyboard,0.20,0908_nse_s02_0.20_keyboard_10_n03085013_16459.JPEG
subject-02,1,910,0.810824155807495,keyboard,bear,0.10,0909_nse_s02_0.10_bear_10_n02134084_6419.JPEG
subject-02,1,911,1.00129914283752,keyboard,boat,0.05,0910_nse_s02_0.05_boat_10_n03344393_2985.JPEG
subject-02,1,912,0.95998215675354,bicycle,bicycle,0.03,0911_nse_s02_0.03_bicycle_10_n03792782_565.JPEG
subject-02,1,913,0.682317018508911,clock,clock,0.00,0912_nse_s02_0.00_clock_10_n03196217_2224.JPEG
subject-02,1,914,1.18070816993713,clock,elephant,0.90,0913_nse_s02_0.90_elephant_10_n02504458_10088.JPEG
subject-02,1,915,0.709508895874023,cat,cat,0.00,0914_nse_s02_0.00_cat_10_n02123394_3581.JPEG
subject-02,1,916,0.961622953414917,airplane,airplane,0.03,0915_nse_s02_0.03_airplane_10_n02690373_1348.JPEG
subject-02,1,917,0.997877836227417,airplane,boat,0.20,0916_nse_s02_0.20_boat_10_n03344393_14493.JPEG
subject-02,1,918,0.925986051559448,airplane,knife,0.20,0917_nse_s02_0.20_knife_10_n03041632_17859.JPEG
subject-02,1,919,0.785957813262939,airplane,bear,0.05,0918_nse_s02_0.05_bear_10_n02132136_5274.JPEG
subject-02,1,920,1.13829779624939,airplane,bird,0.60,0919_nse_s02_0.60_bird_10_n01829413_7589.JPEG
subject-02,1,921,0.76850414276123,boat,boat,0.20,0920_nse_s02_0.20_boat_10_n04273569_14178.JPEG
subject-02,1,922,NaN,na,airplane,0.00,0921_nse_s02_0.00_airplane_10_n02690373_1351.JPEG
subject-02,1,923,0.871090173721313,bicycle,bicycle,0.03,0922_nse_s02_0.03_bicycle_10_n03792782_13438.JPEG
subject-02,1,924,0.793653964996338,keyboard,keyboard,0.35,0923_nse_s02_0.35_keyboard_10_n04505470_276.JPEG
subject-02,1,925,0.708793163299561,keyboard,knife,0.90,0924_nse_s02_0.90_knife_10_n03041632_48675.JPEG
subject-02,1,926,1.05153012275696,keyboard,car,0.35,0925_nse_s02_0.35_car_10_n03100240_1275.JPEG
subject-02,1,927,0.851731061935425,cat,cat,0.05,0926_nse_s02_0.05_cat_10_n02123045_3672.JPEG
subject-02,1,928,1.09418702125549,airplane,airplane,0.60,0927_nse_s02_0.60_airplane_10_n02690373_866.JPEG
subject-02,1,929,0.716086149215698,cat,cat,0.35,0928_nse_s02_0.35_cat_10_n02123597_7081.JPEG
subject-02,1,930,0.598663091659546,boat,boat,0.10,0929_nse_s02_0.10_boat_10_n04273569_1576.JPEG
subject-02,1,931,0.58346700668335,boat,keyboard,0.90,0930_nse_s02_0.90_keyboard_10_n04505470_255.JPEG
subject-02,1,932,0.97107195854187,knife,knife,0.05,0931_nse_s02_0.05_knife_10_n03041632_289.JPEG
subject-02,1,933,0.793689966201782,knife,boat,0.90,0932_nse_s02_0.90_boat_10_n04273569_8552.JPEG
subject-02,1,934,0.738435983657837,knife,bicycle,0.60,0933_nse_s02_0.60_bicycle_10_n03792782_6735.JPEG
subject-02,1,935,1.50028300285339,bottle,bottle,0.00,0934_nse_s02_0.00_bottle_10_n03983396_12042.JPEG
subject-02,1,936,0.72680401802063,chair,chair,0.10,0935_nse_s02_0.10_chair_10_n04429376_16869.JPEG
subject-02,1,937,1.39310193061829,clock,dog,0.05,0936_nse_s02_0.05_dog_10_n02108551_4021.JPEG
subject-02,1,938,0.853806972503662,airplane,airplane,0.10,0937_nse_s02_0.10_airplane_10_n02690373_19107.JPEG
subject-02,1,939,0.736017942428589,elephant,elephant,0.00,0938_nse_s02_0.00_elephant_10_n02504458_5412.JPEG
subject-02,1,940,1.16393089294434,truck,car,0.05,0939_nse_s02_0.05_car_10_n03100240_7495.JPEG
subject-02,1,941,1.02419304847717,airplane,airplane,0.35,0940_nse_s02_0.35_airplane_10_n02690373_17157.JPEG
subject-02,1,942,0.843788862228394,airplane,dog,0.35,0941_nse_s02_0.35_dog_10_n02110627_4275.JPEG
subject-02,1,943,0.542809963226318,airplane,knife,0.90,0942_nse_s02_0.90_knife_10_n03041632_29827.JPEG
subject-02,1,944,0.502084970474243,airplane,chair,0.90,0943_nse_s02_0.90_chair_10_n04099969_65.JPEG
subject-02,1,945,1.03555393218994,keyboard,oven,0.03,0944_nse_s02_0.03_oven_10_n04111531_523.JPEG
subject-02,1,946,1.00468301773071,bird,bird,0.10,0945_nse_s02_0.10_bird_10_n01819313_4383.JPEG
subject-02,1,947,1.21657204627991,bird,chair,0.05,0946_nse_s02_0.05_chair_10_n04429376_10421.JPEG
subject-02,1,948,0.885154008865356,cat,cat,0.35,0947_nse_s02_0.35_cat_10_n02123045_7780.JPEG
subject-02,1,949,0.60742712020874,cat,clock,0.90,0948_nse_s02_0.90_clock_10_n03196217_7313.JPEG
subject-02,1,950,0.514317989349365,cat,cat,0.00,0949_nse_s02_0.00_cat_10_n02123394_2847.JPEG
subject-02,1,951,0.977748155593872,bird,cat,0.35,0950_nse_s02_0.35_cat_10_n02125311_48090.JPEG
subject-02,1,952,0.524726867675781,chair,chair,0.10,0951_nse_s02_0.10_chair_10_n03376595_1943.JPEG
subject-02,1,953,0.575007915496826,chair,bird,0.90,0952_nse_s02_0.90_bird_10_n01534433_905.JPEG
subject-02,1,954,0.997602939605713,chair,chair,0.60,0953_nse_s02_0.60_chair_10_n03376595_1818.JPEG
subject-02,1,955,1.3846321105957,chair,elephant,0.90,0954_nse_s02_0.90_elephant_10_n02504013_17878.JPEG
subject-02,1,956,0.677093982696533,boat,boat,0.35,0955_nse_s02_0.35_boat_10_n02951358_34916.JPEG
subject-02,1,957,0.834818124771118,boat,truck,0.60,0956_nse_s02_0.60_truck_10_n03796401_23347.JPEG
subject-02,1,958,0.834022998809814,elephant,elephant,0.20,0957_nse_s02_0.20_elephant_10_n02504458_6058.JPEG
subject-02,1,959,0.623565912246704,clock,clock,0.20,0958_nse_s02_0.20_clock_10_n03196217_191.JPEG
subject-02,1,960,0.87355899810791,car,car,0.60,0959_nse_s02_0.60_car_10_n03100240_15067.JPEG
subject-02,1,961,0.742004871368408,bottle,bottle,0.05,0960_nse_s02_0.05_bottle_10_n03983396_7865.JPEG
subject-02,1,962,1.499920129776,knife,knife,0.03,0961_nse_s02_0.03_knife_10_n03041632_4318.JPEG
subject-02,1,963,0.814541101455688,knife,bicycle,0.90,0962_nse_s02_0.90_bicycle_10_n02835271_4542.JPEG
subject-02,1,964,0.92179799079895,cat,bottle,0.20,0963_nse_s02_0.20_bottle_10_n04557648_9839.JPEG
subject-02,1,965,0.849565029144287,cat,keyboard,0.35,0964_nse_s02_0.35_keyboard_10_n03085013_10366.JPEG
subject-02,1,966,0.694135904312134,chair,chair,0.00,0965_nse_s02_0.00_chair_10_n04429376_8921.JPEG
subject-02,1,967,1.1305878162384,chair,truck,0.20,0966_nse_s02_0.20_truck_10_n04467665_45983.JPEG
subject-02,1,968,0.888444900512695,car,car,0.60,0967_nse_s02_0.60_car_10_n02814533_26523.JPEG
subject-02,1,969,0.824676036834717,bird,bird,0.03,0968_nse_s02_0.03_bird_10_n01614925_4776.JPEG
subject-02,1,970,1.31036114692688,boat,boat,0.00,0969_nse_s02_0.00_boat_10_n04273569_9576.JPEG
subject-02,1,971,0.72988486289978,boat,bottle,0.90,0970_nse_s02_0.90_bottle_10_n04557648_9017.JPEG
subject-02,1,972,0.974539995193481,bicycle,bicycle,0.35,0971_nse_s02_0.35_bicycle_10_n02835271_24498.JPEG
subject-02,1,973,0.69743800163269,boat,truck,0.03,0972_nse_s02_0.03_truck_10_n04467665_1354.JPEG
subject-02,1,974,0.97932505607605,boat,bear,0.20,0973_nse_s02_0.20_bear_10_n02134084_1105.JPEG
subject-02,1,975,0.510125875473022,boat,bear,0.35,0974_nse_s02_0.35_bear_10_n02132136_34240.JPEG
subject-02,1,976,0.671062231063843,car,car,0.05,0975_nse_s02_0.05_car_10_n02814533_31821.JPEG
subject-02,1,977,0.629204988479614,car,boat,0.60,0976_nse_s02_0.60_boat_10_n04273569_6331.JPEG
subject-02,1,978,1.22878098487854,airplane,airplane,0.10,0977_nse_s02_0.10_airplane_10_n02690373_1670.JPEG
subject-02,1,979,0.67254114151001,airplane,bear,0.60,0978_nse_s02_0.60_bear_10_n02132136_14832.JPEG
subject-02,1,980,0.800622940063477,elephant,elephant,0.35,0979_nse_s02_0.35_elephant_10_n02504458_10101.JPEG
subject-02,1,981,0.663910865783691,bicycle,bicycle,0.35,0980_nse_s02_0.35_bicycle_10_n02835271_25109.JPEG
subject-02,1,982,0.654291152954102,bicycle,bicycle,0.00,0981_nse_s02_0.00_bicycle_10_n02835271_1918.JPEG
subject-02,1,983,0.528321981430054,bicycle,bicycle,0.00,0982_nse_s02_0.00_bicycle_10_n03792782_19532.JPEG
subject-02,1,984,0.634395837783813,cat,cat,0.10,0983_nse_s02_0.10_cat_10_n02123045_381.JPEG
subject-02,1,985,0.976337909698486,car,car,0.35,0984_nse_s02_0.35_car_10_n02814533_9726.JPEG
subject-02,1,986,0.958624124526978,car,bottle,0.10,0985_nse_s02_0.10_bottle_10_n04557648_2122.JPEG
subject-02,1,987,0.581661939620972,car,airplane,0.90,0986_nse_s02_0.90_airplane_10_n02690373_20071.JPEG
subject-02,1,988,0.557920217514038,boat,boat,0.20,0987_nse_s02_0.20_boat_10_n02951358_16453.JPEG
subject-02,1,989,0.608180999755859,airplane,airplane,0.05,0988_nse_s02_0.05_airplane_10_n02690373_17722.JPEG
subject-02,1,990,0.977111101150513,airplane,truck,0.60,0989_nse_s02_0.60_truck_10_n03417042_7225.JPEG
subject-02,1,991,0.575818061828613,clock,clock,0.10,0990_nse_s02_0.10_clock_10_n03196217_421.JPEG
subject-02,1,992,1.09644412994385,clock,bicycle,0.60,0991_nse_s02_0.60_bicycle_10_n02835271_8266.JPEG
subject-02,1,993,0.696569919586182,clock,truck,0.90,0992_nse_s02_0.90_truck_10_n03417042_5698.JPEG
subject-02,1,994,NaN,na,clock,0.03,0993_nse_s02_0.03_clock_10_n04548280_20518.JPEG
subject-02,1,995,0.836596965789795,bicycle,bicycle,0.10,0994_nse_s02_0.10_bicycle_10_n02835271_18205.JPEG
subject-02,1,996,0.940561056137085,bicycle,bird,0.00,0995_nse_s02_0.00_bird_10_n02011460_6337.JPEG
subject-02,1,997,0.722146034240723,bicycle,oven,0.00,0996_nse_s02_0.00_oven_10_n04111531_2770.JPEG
subject-02,1,998,0.844595193862915,boat,bicycle,0.05,0997_nse_s02_0.05_bicycle_10_n03792782_9436.JPEG
subject-02,1,999,0.605834007263184,bottle,bottle,0.20,0998_nse_s02_0.20_bottle_10_n04560804_3746.JPEG
subject-02,1,1000,0.671880006790161,chair,chair,0.00,0999_nse_s02_0.00_chair_10_n03376595_2368.JPEG
subject-02,1,1001,0.570425987243652,chair,boat,0.60,1000_nse_s02_0.60_boat_10_n03344393_364.JPEG
subject-02,1,1002,0.853938102722168,bird,bird,0.35,1001_nse_s02_0.35_bird_10_n01534433_10289.JPEG
subject-02,1,1003,0.77559494972229,bottle,bottle,0.60,1002_nse_s02_0.60_bottle_10_n04560804_8230.JPEG
subject-02,1,1004,0.641177892684937,bottle,keyboard,0.35,1003_nse_s02_0.35_keyboard_10_n03085013_17584.JPEG
subject-02,1,1005,0.75307297706604,airplane,airplane,0.35,1004_nse_s02_0.35_airplane_10_n02690373_4946.JPEG
subject-02,1,1006,0.621485948562622,oven,oven,0.00,1005_nse_s02_0.00_oven_10_n04111531_8081.JPEG
subject-02,1,1007,1.07123017311096,knife,knife,0.00,1006_nse_s02_0.00_knife_10_n03041632_12651.JPEG
subject-02,1,1008,1.00003600120544,oven,bicycle,0.35,1007_nse_s02_0.35_bicycle_10_n02835271_9190.JPEG
subject-02,1,1009,0.929708003997803,clock,clock,0.00,1008_nse_s02_0.00_clock_10_n02708093_864.JPEG
subject-02,1,1010,0.803562879562378,keyboard,keyboard,0.05,1009_nse_s02_0.05_keyboard_10_n04505470_2446.JPEG
