subj,session,trial,rt,object_response,category,condition,imagename
subject-09,1,1,0.53160285949707,clock,clock,0,0001_s5n_s09_0_clock_00_clock3-bear3.png
subject-09,1,2,0.732402801513672,bird,bird,0,0002_s5n_s09_0_bird_00_bird5-car2.png
subject-09,1,3,0.902878046035767,chair,chair,0,0003_s5n_s09_0_chair_00_chair2-keyboard2.png
subject-09,1,4,0.658556938171387,cat,cat,0,0004_s5n_s09_0_cat_00_cat4-chair2.png
subject-09,1,5,0.868398904800415,truck,truck,0,0005_s5n_s09_0_truck_00_truck10-car3.png
subject-09,1,6,0.712296962738037,oven,oven,0,0006_s5n_s09_0_oven_00_oven1-boat3.png
subject-09,1,7,1.01461505889893,chair,airplane,0,0007_s5n_s09_0_airplane_00_airplane5-chair3.png
subject-09,1,8,1.46883201599121,bear,bear,0,0008_s5n_s09_0_bear_00_bear9-knife2.png
subject-09,1,9,1.14615607261658,dog,cat,0,0009_s5n_s09_0_cat_00_cat3-bear2.png
subject-09,1,10,0.557001829147339,clock,clock,0,0010_s5n_s09_0_clock_00_clock8-oven3.png
subject-09,1,11,0.89124584197998,boat,airplane,0,0011_s5n_s09_0_airplane_00_airplane8-bird1.png
subject-09,1,12,0.547148942947388,cat,cat,0,0012_s5n_s09_0_cat_00_cat2-cat1.png
subject-09,1,13,0.733345985412598,bird,bird,0,0013_s5n_s09_0_bird_00_bird1-clock3.png
subject-09,1,14,0.889502048492432,boat,boat,0,0014_s5n_s09_0_boat_00_boat9-clock1.png
subject-09,1,15,1.30556392669678,bird,knife,0,0015_s5n_s09_0_knife_00_knife4-bear1.png
subject-09,1,16,0.907043933868408,bear,bear,0,0016_s5n_s09_0_bear_00_bear1-chair2.png
subject-09,1,17,1.15538096427917,boat,bottle,0,0017_s5n_s09_0_bottle_00_bottle1-keyboard3.png
subject-09,1,18,0.899615049362183,keyboard,keyboard,0,0018_s5n_s09_0_keyboard_00_keyboard9-bird1.png
subject-09,1,19,0.672399997711182,oven,oven,0,0019_s5n_s09_0_oven_00_oven10-oven3.png
subject-09,1,20,0.49769115447998,bicycle,bicycle,0,0020_s5n_s09_0_bicycle_00_bicycle5-bottle3.png
subject-09,1,21,0.689258098602295,bicycle,bicycle,0,0021_s5n_s09_0_bicycle_00_bicycle6-car2.png
subject-09,1,22,0.850712060928345,dog,dog,0,0022_s5n_s09_0_dog_00_dog5-oven1.png
subject-09,1,23,1.06114196777344,elephant,elephant,0,0023_s5n_s09_0_elephant_00_elephant6-car3.png
subject-09,1,24,1.22485613822937,bird,boat,0,0024_s5n_s09_0_boat_00_boat7-bottle1.png
subject-09,1,25,1.18595504760742,clock,elephant,0,0025_s5n_s09_0_elephant_00_elephant6-truck3.png
subject-09,1,26,0.71671986579895,clock,clock,0,0026_s5n_s09_0_clock_00_clock10-boat2.png
subject-09,1,27,0.534213066101074,cat,cat,0,0027_s5n_s09_0_cat_00_cat5-car2.png
subject-09,1,28,0.859340190887451,dog,bird,0,0028_s5n_s09_0_bird_00_bird1-keyboard3.png
subject-09,1,29,0.637267112731934,chair,chair,0,0029_s5n_s09_0_chair_00_chair4-keyboard2.png
subject-09,1,30,1.02021193504333,bird,car,0,0030_s5n_s09_0_car_00_car4-bear3.png
subject-09,1,31,1.50001907348633,bicycle,bicycle,0,0031_s5n_s09_0_bicycle_00_bicycle8-truck1.png
subject-09,1,32,0.554502010345459,chair,chair,0,0032_s5n_s09_0_chair_00_chair1-oven3.png
subject-09,1,33,0.789335012435913,chair,boat,0,0033_s5n_s09_0_boat_00_boat7-truck2.png
subject-09,1,34,0.651033163070679,truck,truck,0,0034_s5n_s09_0_truck_00_truck7-truck2.png
subject-09,1,35,0.836536884307861,knife,knife,0,0035_s5n_s09_0_knife_00_knife8-bicycle1.png
subject-09,1,36,0.821868181228638,clock,clock,0,0036_s5n_s09_0_clock_00_clock4-car2.png
subject-09,1,37,0.661936044692993,dog,dog,0,0037_s5n_s09_0_dog_00_dog10-car3.png
subject-09,1,38,0.972060918807983,bicycle,bicycle,0,0038_s5n_s09_0_bicycle_00_bicycle10-clock2.png
subject-09,1,39,0.550143957138062,cat,cat,0,0039_s5n_s09_0_cat_00_cat7-elephant1.png
subject-09,1,40,0.42779016494751,clock,clock,0,0040_s5n_s09_0_clock_00_clock8-keyboard1.png
subject-09,1,41,0.945577144622803,dog,elephant,0,0041_s5n_s09_0_elephant_00_elephant8-airplane3.png
subject-09,1,42,0.64792013168335,elephant,elephant,0,0042_s5n_s09_0_elephant_00_elephant1-car3.png
subject-09,1,43,0.963291883468628,elephant,elephant,0,0043_s5n_s09_0_elephant_00_elephant3-oven1.png
subject-09,1,44,0.916285037994385,car,car,0,0044_s5n_s09_0_car_00_car8-clock2.png
subject-09,1,45,0.818964958190918,dog,bear,0,0045_s5n_s09_0_bear_00_bear6-cat3.png
subject-09,1,46,1.00503706932068,chair,chair,0,0046_s5n_s09_0_chair_00_chair5-bicycle1.png
subject-09,1,47,0.690927982330322,truck,truck,0,0047_s5n_s09_0_truck_00_truck9-boat3.png
subject-09,1,48,0.462249994277954,bottle,bottle,0,0048_s5n_s09_0_bottle_00_bottle6-boat3.png
subject-09,1,49,1.0617368221283,dog,dog,0,0049_s5n_s09_0_dog_00_dog1-bird1.png
subject-09,1,50,0.635020971298218,cat,cat,0,0050_s5n_s09_0_cat_00_cat3-bicycle1.png
subject-09,1,51,1.32019996643066,truck,truck,0,0051_s5n_s09_0_truck_00_truck3-bird2.png
subject-09,1,52,0.727648019790649,knife,knife,0,0052_s5n_s09_0_knife_00_knife6-bicycle1.png
subject-09,1,53,0.638472080230713,keyboard,keyboard,0,0053_s5n_s09_0_keyboard_00_keyboard7-knife1.png
subject-09,1,54,0.761725187301636,knife,knife,0,0054_s5n_s09_0_knife_00_knife10-keyboard3.png
subject-09,1,55,0.696802854537964,cat,cat,0,0055_s5n_s09_0_cat_00_cat5-bottle1.png
subject-09,1,56,1.11732602119446,oven,oven,0,0056_s5n_s09_0_oven_00_oven2-bear3.png
subject-09,1,57,0.873437881469727,knife,knife,0,0057_s5n_s09_0_knife_00_knife5-keyboard3.png
subject-09,1,58,0.988821983337402,knife,knife,0,0058_s5n_s09_0_knife_00_knife2-truck2.png
subject-09,1,59,1.08213996887207,dog,cat,0,0059_s5n_s09_0_cat_00_cat9-boat2.png
subject-09,1,60,0.9308021068573,airplane,airplane,0,0060_s5n_s09_0_airplane_00_airplane7-airplane3.png
subject-09,1,61,1.36307406425476,dog,dog,0,0061_s5n_s09_0_dog_00_dog6-cat1.png
subject-09,1,62,0.586246967315674,car,car,0,0062_s5n_s09_0_car_00_car10-car1.png
subject-09,1,63,0.603649854660034,cat,elephant,0,0063_s5n_s09_0_elephant_00_elephant2-bird1.png
subject-09,1,64,1.24974393844604,chair,chair,0,0064_s5n_s09_0_chair_00_chair5-boat3.png
subject-09,1,65,0.763433933258057,knife,boat,0,0065_s5n_s09_0_boat_00_boat6-car1.png
subject-09,1,66,0.425348997116089,clock,clock,0,0066_s5n_s09_0_clock_00_clock6-truck3.png
subject-09,1,67,0.549394845962524,chair,oven,0,0067_s5n_s09_0_oven_00_oven4-keyboard3.png
subject-09,1,68,1.500244140625,truck,truck,0,0068_s5n_s09_0_truck_00_truck6-dog2.png
subject-09,1,69,1.47459602355957,keyboard,keyboard,0,0069_s5n_s09_0_keyboard_00_keyboard3-elephant2.png
subject-09,1,70,0.53635311126709,bottle,bottle,0,0070_s5n_s09_0_bottle_00_bottle10-clock2.png
subject-09,1,71,0.45603609085083,clock,clock,0,0071_s5n_s09_0_clock_00_clock9-bird2.png
subject-09,1,72,0.982361078262329,chair,oven,0,0072_s5n_s09_0_oven_00_oven7-clock2.png
subject-09,1,73,0.943994998931885,bird,bird,0,0073_s5n_s09_0_bird_00_bird10-bicycle1.png
subject-09,1,74,0.775311946868896,airplane,airplane,0,0074_s5n_s09_0_airplane_00_airplane4-boat3.png
subject-09,1,75,0.529249906539917,knife,boat,0,0075_s5n_s09_0_boat_00_boat4-dog2.png
subject-09,1,76,0.514801025390625,chair,chair,0,0076_s5n_s09_0_chair_00_chair8-bicycle3.png
subject-09,1,77,0.57581901550293,airplane,airplane,0,0077_s5n_s09_0_airplane_00_airplane7-car1.png
subject-09,1,78,0.778609991073608,truck,truck,0,0078_s5n_s09_0_truck_00_truck2-clock1.png
subject-09,1,79,0.718362808227539,knife,cat,0,0079_s5n_s09_0_cat_00_cat10-elephant3.png
subject-09,1,80,0.718736886978149,bicycle,bicycle,0,0080_s5n_s09_0_bicycle_00_bicycle1-elephant2.png
subject-09,1,81,1.0283420085907,airplane,bear,0,0081_s5n_s09_0_bear_00_bear6-clock1.png
subject-09,1,82,0.559545993804932,clock,clock,0,0082_s5n_s09_0_clock_00_clock6-bottle1.png
subject-09,1,83,0.789245843887329,boat,boat,0,0083_s5n_s09_0_boat_00_boat1-bear1.png
subject-09,1,84,0.62093710899353,car,car,0,0084_s5n_s09_0_car_00_car3-oven3.png
subject-09,1,85,0.761082887649536,car,car,0,0085_s5n_s09_0_car_00_car4-car2.png
subject-09,1,86,0.738610029220581,keyboard,keyboard,0,0086_s5n_s09_0_keyboard_00_keyboard8-airplane2.png
subject-09,1,87,0.532830953598022,clock,clock,0,0087_s5n_s09_0_clock_00_clock10-knife3.png
subject-09,1,88,1.41122913360596,chair,elephant,0,0088_s5n_s09_0_elephant_00_elephant5-bicycle3.png
subject-09,1,89,0.580270051956177,car,car,0,0089_s5n_s09_0_car_00_car3-elephant3.png
subject-09,1,90,0.598201990127563,truck,truck,0,0090_s5n_s09_0_truck_00_truck7-bird2.png
subject-09,1,91,1.11331701278687,truck,knife,0,0091_s5n_s09_0_knife_00_knife7-car2.png
subject-09,1,92,0.822067975997925,car,car,0,0092_s5n_s09_0_car_00_car1-chair3.png
subject-09,1,93,0.569835901260376,truck,truck,0,0093_s5n_s09_0_truck_00_truck4-bear1.png
subject-09,1,94,1.00946402549744,bottle,bottle,0,0094_s5n_s09_0_bottle_00_bottle9-oven2.png
subject-09,1,95,0.672791957855225,bicycle,bicycle,0,0095_s5n_s09_0_bicycle_00_bicycle4-car2.png
subject-09,1,96,0.881295919418335,car,boat,0,0096_s5n_s09_0_boat_00_boat10-boat3.png
subject-09,1,97,0.991500854492188,bear,bear,0,0097_s5n_s09_0_bear_00_bear10-chair2.png
subject-09,1,98,0.414835214614868,bear,bear,0,0098_s5n_s09_0_bear_00_bear2-bird3.png
subject-09,1,99,0.917369842529297,car,car,0,0099_s5n_s09_0_car_00_car7-dog3.png
subject-09,1,100,0.795994997024536,car,boat,0,0100_s5n_s09_0_boat_00_boat7-boat2.png
subject-09,1,101,0.557093858718872,boat,cat,0,0101_s5n_s09_0_cat_00_cat10-airplane3.png
subject-09,1,102,0.781080007553101,bear,elephant,0,0102_s5n_s09_0_elephant_00_elephant4-bicycle2.png
subject-09,1,103,0.983380079269409,bird,bird,0,0103_s5n_s09_0_bird_00_bird5-oven3.png
subject-09,1,104,0.530652046203613,bird,bird,0,0104_s5n_s09_0_bird_00_bird4-dog3.png
subject-09,1,105,0.747091054916382,knife,knife,0,0105_s5n_s09_0_knife_00_knife4-airplane3.png
subject-09,1,106,0.908026933670044,chair,chair,0,0106_s5n_s09_0_chair_00_chair10-bicycle1.png
subject-09,1,107,1.07279396057129,bear,elephant,0,0107_s5n_s09_0_elephant_00_elephant4-clock3.png
subject-09,1,108,0.691544055938721,bicycle,bicycle,0,0108_s5n_s09_0_bicycle_00_bicycle9-airplane2.png
subject-09,1,109,0.774878025054932,knife,keyboard,0,0109_s5n_s09_0_keyboard_00_keyboard7-oven2.png
subject-09,1,110,1.27632284164429,elephant,elephant,0,0110_s5n_s09_0_elephant_00_elephant3-chair1.png
subject-09,1,111,1.04701685905457,bear,bird,0,0111_s5n_s09_0_bird_00_bird5-cat2.png
subject-09,1,112,0.57874608039856,bottle,bottle,0,0112_s5n_s09_0_bottle_00_bottle3-bicycle3.png
subject-09,1,113,0.755306959152222,car,car,0,0113_s5n_s09_0_car_00_car8-knife2.png
subject-09,1,114,0.895319938659668,knife,keyboard,0,0114_s5n_s09_0_keyboard_00_keyboard3-car2.png
subject-09,1,115,0.5052170753479,clock,clock,0,0115_s5n_s09_0_clock_00_clock1-bear1.png
subject-09,1,116,1.28448700904846,bear,boat,0,0116_s5n_s09_0_boat_00_boat3-dog3.png
subject-09,1,117,0.599801778793335,chair,chair,0,0117_s5n_s09_0_chair_00_chair6-truck2.png
subject-09,1,118,0.609138965606689,knife,knife,0,0118_s5n_s09_0_knife_00_knife7-bird3.png
subject-09,1,119,0.811846971511841,bear,boat,0,0119_s5n_s09_0_boat_00_boat1-bird3.png
subject-09,1,120,0.781428098678589,knife,keyboard,0,0120_s5n_s09_0_keyboard_00_keyboard2-clock1.png
subject-09,1,121,0.889272928237915,dog,dog,0,0121_s5n_s09_0_dog_00_dog9-cat1.png
subject-09,1,122,0.450738906860352,cat,cat,0,0122_s5n_s09_0_cat_00_cat4-airplane1.png
subject-09,1,123,0.774595022201538,knife,boat,0,0123_s5n_s09_0_boat_00_boat10-bear3.png
subject-09,1,124,0.768525838851929,knife,boat,0,0124_s5n_s09_0_boat_00_boat4-car3.png
subject-09,1,125,0.667685985565186,bird,bird,0,0125_s5n_s09_0_bird_00_bird10-cat1.png
subject-09,1,126,1.12916803359985,knife,boat,0,0126_s5n_s09_0_boat_00_boat2-keyboard1.png
subject-09,1,127,NaN,na,bicycle,0,0127_s5n_s09_0_bicycle_00_bicycle5-keyboard3.png
subject-09,1,128,1.45470905303955,oven,oven,0,0128_s5n_s09_0_oven_00_oven5-dog3.png
subject-09,1,129,0.656580924987793,chair,chair,0,0129_s5n_s09_0_chair_00_chair5-car1.png
subject-09,1,130,0.584674835205078,truck,truck,0,0130_s5n_s09_0_truck_00_truck6-boat2.png
subject-09,1,131,0.731090068817139,cat,bear,0,0131_s5n_s09_0_bear_00_bear10-clock1.png
subject-09,1,132,0.684262990951538,car,car,0,0132_s5n_s09_0_car_00_car8-airplane3.png
subject-09,1,133,0.607439994812012,car,car,0,0133_s5n_s09_0_car_00_car2-bird3.png
subject-09,1,134,0.439301013946533,cat,bird,0,0134_s5n_s09_0_bird_00_bird8-knife2.png
subject-09,1,135,0.708786010742188,boat,boat,0,0135_s5n_s09_0_boat_00_boat7-elephant3.png
subject-09,1,136,0.442679882049561,clock,clock,0,0136_s5n_s09_0_clock_00_clock3-dog2.png
subject-09,1,137,0.584748029708862,chair,chair,0,0137_s5n_s09_0_chair_00_chair9-bird3.png
subject-09,1,138,0.646373987197876,knife,knife,0,0138_s5n_s09_0_knife_00_knife10-elephant3.png
subject-09,1,139,1.42997598648071,elephant,elephant,0,0139_s5n_s09_0_elephant_00_elephant10-bear1.png
subject-09,1,140,0.824038982391357,clock,clock,0,0140_s5n_s09_0_clock_00_clock9-keyboard2.png
subject-09,1,141,0.539747953414917,chair,chair,0,0141_s5n_s09_0_chair_00_chair8-oven1.png
subject-09,1,142,0.533545017242432,clock,clock,0,0142_s5n_s09_0_clock_00_clock7-bear2.png
subject-09,1,143,0.673614978790283,clock,keyboard,0,0143_s5n_s09_0_keyboard_00_keyboard7-clock3.png
subject-09,1,144,0.805539131164551,knife,oven,0,0144_s5n_s09_0_oven_00_oven8-cat3.png
subject-09,1,145,0.513195037841797,chair,chair,0,0145_s5n_s09_0_chair_00_chair10-clock1.png
subject-09,1,146,1.00819396972656,chair,oven,0,0146_s5n_s09_0_oven_00_oven6-knife3.png
subject-09,1,147,0.860664129257202,knife,cat,0,0147_s5n_s09_0_cat_00_cat10-bicycle1.png
subject-09,1,148,0.939114093780518,bird,airplane,0,0148_s5n_s09_0_airplane_00_airplane5-knife1.png
subject-09,1,149,1.0548300743103,elephant,elephant,0,0149_s5n_s09_0_elephant_00_elephant7-bird1.png
subject-09,1,150,0.539792060852051,bicycle,bicycle,0,0150_s5n_s09_0_bicycle_00_bicycle4-oven3.png
subject-09,1,151,0.793961048126221,dog,bird,0,0151_s5n_s09_0_bird_00_bird7-keyboard3.png
subject-09,1,152,1.02998685836792,car,car,0,0152_s5n_s09_0_car_00_car9-cat1.png
subject-09,1,153,0.507307052612305,bicycle,bicycle,0,0153_s5n_s09_0_bicycle_00_bicycle7-bear2.png
subject-09,1,154,0.625052928924561,oven,oven,0,0154_s5n_s09_0_oven_00_oven9-chair1.png
subject-09,1,155,0.508023023605347,bicycle,bicycle,0,0155_s5n_s09_0_bicycle_00_bicycle5-car3.png
subject-09,1,156,0.461725950241089,clock,clock,0,0156_s5n_s09_0_clock_00_clock6-chair3.png
subject-09,1,157,0.594068050384521,truck,truck,0,0157_s5n_s09_0_truck_00_truck6-oven3.png
subject-09,1,158,0.787965059280396,dog,dog,0,0158_s5n_s09_0_dog_00_dog6-elephant2.png
subject-09,1,159,0.466450214385986,bottle,bottle,0,0159_s5n_s09_0_bottle_00_bottle4-bicycle1.png
subject-09,1,160,1.10526609420776,cat,bear,0,0160_s5n_s09_0_bear_00_bear6-bottle3.png
subject-09,1,161,0.582974910736084,car,car,0,0161_s5n_s09_0_car_00_car4-cat3.png
subject-09,1,162,0.799726963043213,airplane,airplane,0,0162_s5n_s09_0_airplane_00_airplane2-bicycle1.png
subject-09,1,163,0.661610841751099,chair,chair,0,0163_s5n_s09_0_chair_00_chair3-knife1.png
subject-09,1,164,0.646732091903687,bicycle,bicycle,0,0164_s5n_s09_0_bicycle_00_bicycle7-cat1.png
subject-09,1,165,0.671124935150146,elephant,elephant,0,0165_s5n_s09_0_elephant_00_elephant1-bottle1.png
subject-09,1,166,0.654119968414307,bicycle,bicycle,0,0166_s5n_s09_0_bicycle_00_bicycle8-bear2.png
subject-09,1,167,0.686017990112305,truck,truck,0,0167_s5n_s09_0_truck_00_truck1-dog1.png
subject-09,1,168,0.493988037109375,clock,clock,0,0168_s5n_s09_0_clock_00_clock5-elephant2.png
subject-09,1,169,0.633922815322876,oven,oven,0,0169_s5n_s09_0_oven_00_oven4-chair1.png
subject-09,1,170,0.820081949234009,chair,oven,0,0170_s5n_s09_0_oven_00_oven7-car3.png
subject-09,1,171,0.559708118438721,cat,cat,0,0171_s5n_s09_0_cat_00_cat4-cat3.png
subject-09,1,172,0.714169979095459,truck,truck,0,0172_s5n_s09_0_truck_00_truck4-oven2.png
subject-09,1,173,1.0376091003418,dog,bird,0,0173_s5n_s09_0_bird_00_bird7-cat3.png
subject-09,1,174,0.698771953582764,chair,chair,0,0174_s5n_s09_0_chair_00_chair8-boat1.png
subject-09,1,175,0.608974933624268,knife,knife,0,0175_s5n_s09_0_knife_00_knife8-cat2.png
subject-09,1,176,0.730262994766235,keyboard,keyboard,0,0176_s5n_s09_0_keyboard_00_keyboard7-boat2.png
subject-09,1,177,0.462378978729248,clock,clock,0,0177_s5n_s09_0_clock_00_clock4-elephant2.png
subject-09,1,178,0.470011949539185,bottle,bottle,0,0178_s5n_s09_0_bottle_00_bottle10-bear2.png
subject-09,1,179,0.555269002914429,keyboard,keyboard,0,0179_s5n_s09_0_keyboard_00_keyboard10-boat2.png
subject-09,1,180,0.962702035903931,keyboard,keyboard,0,0180_s5n_s09_0_keyboard_00_keyboard3-clock3.png
subject-09,1,181,0.695032835006714,car,car,0,0181_s5n_s09_0_car_00_car4-bottle1.png
subject-09,1,182,0.83290696144104,knife,knife,0,0182_s5n_s09_0_knife_00_knife1-bird2.png
subject-09,1,183,0.510445117950439,clock,clock,0,0183_s5n_s09_0_clock_00_clock8-bear2.png
subject-09,1,184,1.1714301109314,bicycle,bicycle,0,0184_s5n_s09_0_bicycle_00_bicycle2-bottle1.png
subject-09,1,185,0.809046030044556,knife,knife,0,0185_s5n_s09_0_knife_00_knife3-clock2.png
subject-09,1,186,0.542403936386108,bottle,bottle,0,0186_s5n_s09_0_bottle_00_bottle3-airplane2.png
subject-09,1,187,0.856594085693359,cat,truck,0,0187_s5n_s09_0_truck_00_truck3-bear3.png
subject-09,1,188,0.556488037109375,bicycle,bicycle,0,0188_s5n_s09_0_bicycle_00_bicycle2-bird3.png
subject-09,1,189,0.564409017562866,clock,clock,0,0189_s5n_s09_0_clock_00_clock1-clock2.png
subject-09,1,190,0.766531944274902,bear,bear,0,0190_s5n_s09_0_bear_00_bear4-elephant2.png
subject-09,1,191,0.412101984024048,clock,clock,0,0191_s5n_s09_0_clock_00_clock8-boat1.png
subject-09,1,192,0.715386867523193,dog,dog,0,0192_s5n_s09_0_dog_00_dog4-truck2.png
subject-09,1,193,0.760308027267456,dog,dog,0,0193_s5n_s09_0_dog_00_dog3-bird2.png
subject-09,1,194,0.876283884048462,cat,airplane,0,0194_s5n_s09_0_airplane_00_airplane2-cat1.png
subject-09,1,195,0.583906888961792,chair,chair,0,0195_s5n_s09_0_chair_00_chair3-bottle3.png
subject-09,1,196,1.16991996765137,dog,bear,0,0196_s5n_s09_0_bear_00_bear10-car2.png
subject-09,1,197,0.593408823013306,oven,oven,0,0197_s5n_s09_0_oven_00_oven9-boat2.png
subject-09,1,198,1.07760286331177,car,car,0,0198_s5n_s09_0_car_00_car7-bird3.png
subject-09,1,199,0.592764139175415,car,car,0,0199_s5n_s09_0_car_00_car2-chair1.png
subject-09,1,200,0.679299116134644,truck,truck,0,0200_s5n_s09_0_truck_00_truck8-elephant1.png
subject-09,1,201,0.424849987030029,clock,clock,0,0201_s5n_s09_0_clock_00_clock3-keyboard3.png
subject-09,1,202,0.740819215774536,airplane,airplane,0,0202_s5n_s09_0_airplane_00_airplane7-bottle3.png
subject-09,1,203,0.455671072006226,keyboard,keyboard,0,0203_s5n_s09_0_keyboard_00_keyboard5-bicycle1.png
subject-09,1,204,0.625931978225708,car,car,0,0204_s5n_s09_0_car_00_car2-knife3.png
subject-09,1,205,0.895642042160034,truck,truck,0,0205_s5n_s09_0_truck_00_truck2-keyboard1.png
subject-09,1,206,0.719713926315308,knife,knife,0,0206_s5n_s09_0_knife_00_knife4-clock3.png
subject-09,1,207,0.819583892822266,knife,airplane,0,0207_s5n_s09_0_airplane_00_airplane4-truck2.png
subject-09,1,208,0.459918022155762,clock,clock,0,0208_s5n_s09_0_clock_00_clock5-airplane1.png
subject-09,1,209,0.521529912948608,clock,clock,0,0209_s5n_s09_0_clock_00_clock9-airplane1.png
subject-09,1,210,1.09255886077881,bicycle,bicycle,0,0210_s5n_s09_0_bicycle_00_bicycle6-boat2.png
subject-09,1,211,0.693866014480591,dog,dog,0,0211_s5n_s09_0_dog_00_dog4-cat3.png
subject-09,1,212,0.864155054092407,elephant,elephant,0,0212_s5n_s09_0_elephant_00_elephant4-boat3.png
subject-09,1,213,0.448054075241089,boat,boat,0,0213_s5n_s09_0_boat_00_boat9-airplane2.png
subject-09,1,214,0.639595031738281,bear,bear,0,0214_s5n_s09_0_bear_00_bear3-bird3.png
subject-09,1,215,0.654315948486328,airplane,airplane,0,0215_s5n_s09_0_airplane_00_airplane1-bicycle2.png
subject-09,1,216,0.540496826171875,bottle,bottle,0,0216_s5n_s09_0_bottle_00_bottle5-keyboard2.png
subject-09,1,217,0.823813915252686,knife,knife,0,0217_s5n_s09_0_knife_00_knife9-boat1.png
subject-09,1,218,0.823732852935791,boat,airplane,0,0218_s5n_s09_0_airplane_00_airplane10-elephant1.png
subject-09,1,219,0.67236590385437,dog,dog,0,0219_s5n_s09_0_dog_00_dog7-keyboard3.png
subject-09,1,220,0.679198980331421,dog,bird,0,0220_s5n_s09_0_bird_00_bird8-boat3.png
subject-09,1,221,0.754619121551514,bear,bear,0,0221_s5n_s09_0_bear_00_bear3-keyboard2.png
subject-09,1,222,0.677754163742065,knife,knife,0,0222_s5n_s09_0_knife_00_knife4-keyboard1.png
subject-09,1,223,0.894811868667603,dog,dog,0,0223_s5n_s09_0_dog_00_dog8-chair3.png
subject-09,1,224,0.609402179718018,knife,knife,0,0224_s5n_s09_0_knife_00_knife2-bird1.png
subject-09,1,225,0.525182962417603,clock,clock,0,0225_s5n_s09_0_clock_00_clock9-chair3.png
subject-09,1,226,0.404137134552002,clock,clock,0,0226_s5n_s09_0_clock_00_clock4-oven1.png
subject-09,1,227,0.529239177703857,dog,dog,0,0227_s5n_s09_0_dog_00_dog10-bottle1.png
subject-09,1,228,0.752544164657593,knife,keyboard,0,0228_s5n_s09_0_keyboard_00_keyboard1-elephant3.png
subject-09,1,229,0.523032188415527,clock,clock,0,0229_s5n_s09_0_clock_00_clock2-elephant2.png
subject-09,1,230,0.99260401725769,truck,truck,0,0230_s5n_s09_0_truck_00_truck6-truck2.png
subject-09,1,231,1.46821784973145,knife,bird,0,0231_s5n_s09_0_bird_00_bird3-boat3.png
subject-09,1,232,0.591364860534668,truck,truck,0,0232_s5n_s09_0_truck_00_truck6-bicycle1.png
subject-09,1,233,0.599723100662231,dog,dog,0,0233_s5n_s09_0_dog_00_dog6-bicycle1.png
subject-09,1,234,0.969707012176514,knife,boat,0,0234_s5n_s09_0_boat_00_boat2-bottle2.png
subject-09,1,235,1.02335810661316,boat,airplane,0,0235_s5n_s09_0_airplane_00_airplane8-truck3.png
subject-09,1,236,0.892704010009766,airplane,airplane,0,0236_s5n_s09_0_airplane_00_airplane8-clock2.png
subject-09,1,237,0.546800851821899,knife,knife,0,0237_s5n_s09_0_knife_00_knife10-bear3.png
subject-09,1,238,0.524312973022461,boat,boat,0,0238_s5n_s09_0_boat_00_boat9-bear3.png
subject-09,1,239,0.640577077865601,cat,cat,0,0239_s5n_s09_0_cat_00_cat8-bear1.png
subject-09,1,240,0.756268978118896,dog,bird,0,0240_s5n_s09_0_bird_00_bird8-bottle1.png
subject-09,1,241,0.870954036712646,dog,dog,0,0241_s5n_s09_0_dog_00_dog3-knife3.png
subject-09,1,242,0.613776922225952,bottle,bottle,0,0242_s5n_s09_0_bottle_00_bottle6-airplane1.png
subject-09,1,243,0.507497072219849,oven,oven,0,0243_s5n_s09_0_oven_00_oven5-bottle3.png
subject-09,1,244,0.622826099395752,keyboard,keyboard,0,0244_s5n_s09_0_keyboard_00_keyboard8-chair2.png
subject-09,1,245,0.72332501411438,knife,knife,0,0245_s5n_s09_0_knife_00_knife6-truck1.png
subject-09,1,246,0.922983169555664,bird,bird,0,0246_s5n_s09_0_bird_00_bird5-keyboard2.png
subject-09,1,247,1.00743818283081,knife,knife,0,0247_s5n_s09_0_knife_00_knife1-airplane1.png
subject-09,1,248,0.766861200332642,keyboard,keyboard,0,0248_s5n_s09_0_keyboard_00_keyboard8-dog3.png
subject-09,1,249,0.753457069396973,clock,boat,0,0249_s5n_s09_0_boat_00_boat6-airplane2.png
subject-09,1,250,0.614823818206787,bird,bird,0,0250_s5n_s09_0_bird_00_bird10-elephant2.png
subject-09,1,251,0.697876930236816,airplane,airplane,0,0251_s5n_s09_0_airplane_00_airplane1-elephant1.png
subject-09,1,252,0.468302011489868,oven,oven,0,0252_s5n_s09_0_oven_00_oven6-airplane3.png
subject-09,1,253,0.832724094390869,elephant,elephant,0,0253_s5n_s09_0_elephant_00_elephant9-dog3.png
subject-09,1,254,0.445106029510498,clock,clock,0,0254_s5n_s09_0_clock_00_clock5-oven1.png
subject-09,1,255,0.401559829711914,oven,oven,0,0255_s5n_s09_0_oven_00_oven2-oven3.png
subject-09,1,256,0.686379909515381,airplane,airplane,0,0256_s5n_s09_0_airplane_00_airplane10-dog3.png
subject-09,1,257,0.634543895721436,bottle,bottle,0,0257_s5n_s09_0_bottle_00_bottle4-truck1.png
subject-09,1,258,0.504194974899292,chair,chair,0,0258_s5n_s09_0_chair_00_chair8-airplane1.png
subject-09,1,259,0.712117910385132,knife,keyboard,0,0259_s5n_s09_0_keyboard_00_keyboard6-chair1.png
subject-09,1,260,0.574295997619629,bear,bear,0,0260_s5n_s09_0_bear_00_bear1-clock2.png
subject-09,1,261,0.997718095779419,knife,airplane,0,0261_s5n_s09_0_airplane_00_airplane3-keyboard2.png
subject-09,1,262,0.481904983520508,chair,chair,0,0262_s5n_s09_0_chair_00_chair7-chair1.png
subject-09,1,263,0.529683828353882,bear,bear,0,0263_s5n_s09_0_bear_00_bear2-cat2.png
subject-09,1,264,0.529567956924438,bottle,bottle,0,0264_s5n_s09_0_bottle_00_bottle5-cat1.png
subject-09,1,265,0.582860946655273,bear,bear,0,0265_s5n_s09_0_bear_00_bear9-bottle2.png
subject-09,1,266,0.961400032043457,bicycle,bicycle,0,0266_s5n_s09_0_bicycle_00_bicycle7-elephant2.png
subject-09,1,267,0.486375093460083,boat,boat,0,0267_s5n_s09_0_boat_00_boat9-knife2.png
subject-09,1,268,0.431972980499268,clock,clock,0,0268_s5n_s09_0_clock_00_clock6-clock2.png
subject-09,1,269,0.706949949264526,dog,dog,0,0269_s5n_s09_0_dog_00_dog6-bird1.png
subject-09,1,270,0.976994037628174,dog,dog,0,0270_s5n_s09_0_dog_00_dog2-dog3.png
subject-09,1,271,0.867149829864502,bicycle,bicycle,0,0271_s5n_s09_0_bicycle_00_bicycle2-knife2.png
subject-09,1,272,0.552905082702637,cat,dog,0,0272_s5n_s09_0_dog_00_dog4-keyboard2.png
subject-09,1,273,0.761279106140137,clock,clock,0,0273_s5n_s09_0_clock_00_clock10-truck2.png
subject-09,1,274,0.459967851638794,chair,chair,0,0274_s5n_s09_0_chair_00_chair5-clock2.png
subject-09,1,275,1.50011992454529,bicycle,bicycle,0,0275_s5n_s09_0_bicycle_00_bicycle9-chair1.png
subject-09,1,276,0.589920997619629,bird,bird,0,0276_s5n_s09_0_bird_00_bird5-chair1.png
subject-09,1,277,0.537617921829224,chair,chair,0,0277_s5n_s09_0_chair_00_chair6-bird2.png
subject-09,1,278,0.544847011566162,keyboard,keyboard,0,0278_s5n_s09_0_keyboard_00_keyboard9-cat1.png
subject-09,1,279,0.614849090576172,oven,bird,0,0279_s5n_s09_0_bird_00_bird5-truck2.png
subject-09,1,280,0.736182928085327,oven,boat,0,0280_s5n_s09_0_boat_00_boat10-oven1.png
subject-09,1,281,0.52752685546875,boat,boat,0,0281_s5n_s09_0_boat_00_boat9-chair2.png
subject-09,1,282,1.05150890350342,bear,bear,0,0282_s5n_s09_0_bear_00_bear10-oven1.png
subject-09,1,283,0.612617969512939,car,car,0,0283_s5n_s09_0_car_00_car7-oven2.png
subject-09,1,284,0.984091997146606,dog,cat,0,0284_s5n_s09_0_cat_00_cat9-cat3.png
subject-09,1,285,0.437598943710327,cat,cat,0,0285_s5n_s09_0_cat_00_cat6-chair3.png
subject-09,1,286,0.491213083267212,bottle,bottle,0,0286_s5n_s09_0_bottle_00_bottle5-bird3.png
subject-09,1,287,0.590487957000732,chair,chair,0,0287_s5n_s09_0_chair_00_chair10-oven1.png
subject-09,1,288,0.481716871261597,keyboard,keyboard,0,0288_s5n_s09_0_keyboard_00_keyboard9-airplane3.png
subject-09,1,289,0.773214101791382,knife,knife,0,0289_s5n_s09_0_knife_00_knife6-boat3.png
subject-09,1,290,0.4671630859375,keyboard,keyboard,0,0290_s5n_s09_0_keyboard_00_keyboard1-car3.png
subject-09,1,291,1.20530700683594,dog,dog,0,0291_s5n_s09_0_dog_00_dog8-boat3.png
subject-09,1,292,0.42878794670105,cat,cat,0,0292_s5n_s09_0_cat_00_cat8-bird2.png
subject-09,1,293,0.695664882659912,cat,cat,0,0293_s5n_s09_0_cat_00_cat9-truck1.png
subject-09,1,294,0.811730146408081,bicycle,bicycle,0,0294_s5n_s09_0_bicycle_00_bicycle8-bird2.png
subject-09,1,295,0.633387088775635,dog,dog,0,0295_s5n_s09_0_dog_00_dog4-bird1.png
subject-09,1,296,0.419273853302002,cat,cat,0,0296_s5n_s09_0_cat_00_cat7-truck2.png
subject-09,1,297,0.64275598526001,knife,knife,0,0297_s5n_s09_0_knife_00_knife5-cat2.png
subject-09,1,298,1.50006508827209,elephant,elephant,0,0298_s5n_s09_0_elephant_00_elephant10-keyboard1.png
subject-09,1,299,1.26819205284119,boat,keyboard,0,0299_s5n_s09_0_keyboard_00_keyboard4-keyboard2.png
subject-09,1,300,0.782752990722656,dog,dog,0,0300_s5n_s09_0_dog_00_dog5-truck2.png
subject-09,1,301,0.412600040435791,chair,chair,0,0301_s5n_s09_0_chair_00_chair5-oven2.png
subject-09,1,302,0.828250885009766,elephant,elephant,0,0302_s5n_s09_0_elephant_00_elephant7-airplane3.png
subject-09,1,303,0.792898893356323,chair,airplane,0,0303_s5n_s09_0_airplane_00_airplane5-oven3.png
subject-09,1,304,0.676606893539429,bottle,bottle,0,0304_s5n_s09_0_bottle_00_bottle9-bottle1.png
subject-09,1,305,0.800512075424194,bicycle,bicycle,0,0305_s5n_s09_0_bicycle_00_bicycle4-truck3.png
subject-09,1,306,0.746330976486206,knife,knife,0,0306_s5n_s09_0_knife_00_knife3-bear2.png
subject-09,1,307,0.737526893615723,truck,truck,0,0307_s5n_s09_0_truck_00_truck3-bicycle1.png
subject-09,1,308,0.429764032363892,bottle,bottle,0,0308_s5n_s09_0_bottle_00_bottle4-dog2.png
subject-09,1,309,0.583400011062622,truck,truck,0,0309_s5n_s09_0_truck_00_truck9-bottle2.png
subject-09,1,310,0.920323848724365,knife,bottle,0,0310_s5n_s09_0_bottle_00_bottle7-elephant2.png
subject-09,1,311,1.17456102371216,chair,bird,0,0311_s5n_s09_0_bird_00_bird3-oven1.png
subject-09,1,312,0.83063793182373,knife,keyboard,0,0312_s5n_s09_0_keyboard_00_keyboard7-truck2.png
subject-09,1,313,0.635308027267456,bear,elephant,0,0313_s5n_s09_0_elephant_00_elephant4-chair3.png
subject-09,1,314,0.6353919506073,clock,clock,0,0314_s5n_s09_0_clock_00_clock7-cat2.png
subject-09,1,315,0.491342067718506,bottle,bottle,0,0315_s5n_s09_0_bottle_00_bottle6-dog3.png
subject-09,1,316,0.628750085830688,bear,bear,0,0316_s5n_s09_0_bear_00_bear2-keyboard2.png
subject-09,1,317,0.590284109115601,airplane,airplane,0,0317_s5n_s09_0_airplane_00_airplane4-bird3.png
subject-09,1,318,0.912245988845825,airplane,airplane,0,0318_s5n_s09_0_airplane_00_airplane3-car1.png
subject-09,1,319,0.82562518119812,knife,keyboard,0,0319_s5n_s09_0_keyboard_00_keyboard3-cat1.png
subject-09,1,320,0.981720924377441,truck,truck,0,0320_s5n_s09_0_truck_00_truck3-knife2.png
subject-09,1,321,1.04898190498352,bicycle,bicycle,0,0321_s5n_s09_0_bicycle_00_bicycle9-keyboard3.png
subject-09,1,322,1.09460616111755,car,car,0,0322_s5n_s09_0_car_00_car6-truck3.png
subject-09,1,323,0.826145887374878,truck,truck,0,0323_s5n_s09_0_truck_00_truck4-bottle2.png
subject-09,1,324,0.78783392906189,boat,boat,0,0324_s5n_s09_0_boat_00_boat3-airplane2.png
subject-09,1,325,0.84632396697998,truck,boat,0,0325_s5n_s09_0_boat_00_boat3-cat3.png
subject-09,1,326,0.638304948806763,knife,bird,0,0326_s5n_s09_0_bird_00_bird6-car3.png
subject-09,1,327,0.532372951507568,truck,truck,0,0327_s5n_s09_0_truck_00_truck5-dog3.png
subject-09,1,328,0.63203501701355,chair,keyboard,0,0328_s5n_s09_0_keyboard_00_keyboard7-chair3.png
subject-09,1,329,1.22418689727783,truck,car,0,0329_s5n_s09_0_car_00_car5-keyboard3.png
subject-09,1,330,0.732563018798828,bicycle,bicycle,0,0330_s5n_s09_0_bicycle_00_bicycle8-chair2.png
subject-09,1,331,0.426415920257568,bottle,bottle,0,0331_s5n_s09_0_bottle_00_bottle4-airplane1.png
subject-09,1,332,0.626321077346802,dog,dog,0,0332_s5n_s09_0_dog_00_dog4-airplane3.png
subject-09,1,333,0.781016111373901,elephant,elephant,0,0333_s5n_s09_0_elephant_00_elephant8-truck3.png
subject-09,1,334,0.526790857315063,boat,boat,0,0334_s5n_s09_0_boat_00_boat5-bicycle3.png
subject-09,1,335,1.50027799606323,oven,oven,0,0335_s5n_s09_0_oven_00_oven6-elephant2.png
subject-09,1,336,0.742055892944336,truck,truck,0,0336_s5n_s09_0_truck_00_truck2-car3.png
subject-09,1,337,0.471395015716553,cat,cat,0,0337_s5n_s09_0_cat_00_cat1-cat3.png
subject-09,1,338,0.671789884567261,chair,chair,0,0338_s5n_s09_0_chair_00_chair9-bicycle3.png
subject-09,1,339,0.662927865982056,truck,truck,0,0339_s5n_s09_0_truck_00_truck7-elephant2.png
subject-09,1,340,0.624531030654907,oven,oven,0,0340_s5n_s09_0_oven_00_oven10-bicycle1.png
subject-09,1,341,0.454271078109741,cat,cat,0,0341_s5n_s09_0_cat_00_cat9-bicycle1.png
subject-09,1,342,0.427706956863403,oven,oven,0,0342_s5n_s09_0_oven_00_oven4-bottle2.png
subject-09,1,343,0.572617053985596,bear,bear,0,0343_s5n_s09_0_bear_00_bear2-car2.png
subject-09,1,344,0.485970020294189,oven,oven,0,0344_s5n_s09_0_oven_00_oven6-bicycle1.png
subject-09,1,345,0.548649787902832,airplane,airplane,0,0345_s5n_s09_0_airplane_00_airplane1-chair2.png
subject-09,1,346,1.5002601146698,bird,bird,0,0346_s5n_s09_0_bird_00_bird8-keyboard2.png
subject-09,1,347,0.747760057449341,knife,knife,0,0347_s5n_s09_0_knife_00_knife4-boat1.png
subject-09,1,348,0.71855092048645,knife,knife,0,0348_s5n_s09_0_knife_00_knife5-oven2.png
subject-09,1,349,0.596759796142578,dog,dog,0,0349_s5n_s09_0_dog_00_dog4-bottle2.png
subject-09,1,350,1.24993896484375,bear,bear,0,0350_s5n_s09_0_bear_00_bear2-airplane1.png
subject-09,1,351,0.755661010742188,cat,boat,0,0351_s5n_s09_0_boat_00_boat3-keyboard2.png
subject-09,1,352,0.487595081329346,oven,oven,0,0352_s5n_s09_0_oven_00_oven3-car2.png
subject-09,1,353,0.395276069641113,clock,clock,0,0353_s5n_s09_0_clock_00_clock10-airplane1.png
subject-09,1,354,0.641448974609375,car,car,0,0354_s5n_s09_0_car_00_car1-airplane1.png
subject-09,1,355,0.457346200942993,bottle,bottle,0,0355_s5n_s09_0_bottle_00_bottle1-clock1.png
subject-09,1,356,0.661880970001221,truck,truck,0,0356_s5n_s09_0_truck_00_truck3-cat1.png
subject-09,1,357,1.20092105865479,truck,truck,0,0357_s5n_s09_0_truck_00_truck1-knife1.png
subject-09,1,358,0.623593091964722,bear,elephant,0,0358_s5n_s09_0_elephant_00_elephant7-keyboard3.png
subject-09,1,359,1.09330010414124,knife,bird,0,0359_s5n_s09_0_bird_00_bird6-elephant2.png
subject-09,1,360,0.608459949493408,oven,oven,0,0360_s5n_s09_0_oven_00_oven6-bear2.png
subject-09,1,361,1.26856803894043,dog,elephant,0,0361_s5n_s09_0_elephant_00_elephant8-cat1.png
subject-09,1,362,0.692184925079346,oven,oven,0,0362_s5n_s09_0_oven_00_oven9-knife3.png
subject-09,1,363,0.669730186462402,cat,cat,0,0363_s5n_s09_0_cat_00_cat5-elephant2.png
subject-09,1,364,0.807281017303467,bear,bear,0,0364_s5n_s09_0_bear_00_bear2-elephant1.png
subject-09,1,365,0.744943857192993,knife,knife,0,0365_s5n_s09_0_knife_00_knife7-bottle3.png
subject-09,1,366,0.499612092971802,cat,cat,0,0366_s5n_s09_0_cat_00_cat3-truck3.png
subject-09,1,367,0.507345914840698,bear,bear,0,0367_s5n_s09_0_bear_00_bear4-oven2.png
subject-09,1,368,0.861014127731323,dog,dog,0,0368_s5n_s09_0_dog_00_dog3-boat1.png
subject-09,1,369,1.40489292144775,dog,dog,0,0369_s5n_s09_0_dog_00_dog4-oven1.png
subject-09,1,370,0.897988080978394,keyboard,keyboard,0,0370_s5n_s09_0_keyboard_00_keyboard4-clock2.png
subject-09,1,371,0.640801906585693,cat,dog,0,0371_s5n_s09_0_dog_00_dog9-bicycle3.png
subject-09,1,372,0.610758781433105,chair,chair,0,0372_s5n_s09_0_chair_00_chair8-clock3.png
subject-09,1,373,1.23258304595947,bicycle,bicycle,0,0373_s5n_s09_0_bicycle_00_bicycle1-dog3.png
subject-09,1,374,0.548153877258301,cat,cat,0,0374_s5n_s09_0_cat_00_cat9-clock2.png
subject-09,1,375,0.680620908737183,oven,oven,0,0375_s5n_s09_0_oven_00_oven2-bird2.png
subject-09,1,376,0.847630023956299,airplane,airplane,0,0376_s5n_s09_0_airplane_00_airplane9-keyboard2.png
subject-09,1,377,0.639402866363525,truck,truck,0,0377_s5n_s09_0_truck_00_truck3-oven2.png
subject-09,1,378,1.11706280708313,bear,bear,0,0378_s5n_s09_0_bear_00_bear3-bicycle2.png
subject-09,1,379,1.26287221908569,knife,boat,0,0379_s5n_s09_0_boat_00_boat6-clock2.png
subject-09,1,380,0.624958992004395,keyboard,keyboard,0,0380_s5n_s09_0_keyboard_00_keyboard8-keyboard2.png
subject-09,1,381,0.633074998855591,truck,truck,0,0381_s5n_s09_0_truck_00_truck3-car3.png
subject-09,1,382,1.26331186294556,elephant,elephant,0,0382_s5n_s09_0_elephant_00_elephant9-elephant3.png
subject-09,1,383,0.533365964889526,clock,clock,0,0383_s5n_s09_0_clock_00_clock8-chair2.png
subject-09,1,384,0.617230892181396,bottle,bottle,0,0384_s5n_s09_0_bottle_00_bottle8-elephant3.png
subject-09,1,385,1.18681788444519,dog,dog,0,0385_s5n_s09_0_dog_00_dog9-chair2.png
subject-09,1,386,0.540913105010986,chair,chair,0,0386_s5n_s09_0_chair_00_chair4-bear2.png
subject-09,1,387,0.71135687828064,knife,boat,0,0387_s5n_s09_0_boat_00_boat4-bicycle3.png
subject-09,1,388,0.47324013710022,bottle,bottle,0,0388_s5n_s09_0_bottle_00_bottle2-clock1.png
subject-09,1,389,0.618630886077881,bird,bird,0,0389_s5n_s09_0_bird_00_bird5-airplane3.png
subject-09,1,390,0.718549966812134,cat,cat,0,0390_s5n_s09_0_cat_00_cat2-car3.png
subject-09,1,391,1.2417368888855,bear,bear,0,0391_s5n_s09_0_bear_00_bear2-knife2.png
subject-09,1,392,0.643141031265259,chair,chair,0,0392_s5n_s09_0_chair_00_chair7-truck3.png
subject-09,1,393,0.680644035339355,car,car,0,0393_s5n_s09_0_car_00_car7-bear1.png
subject-09,1,394,0.651419878005981,oven,oven,0,0394_s5n_s09_0_oven_00_oven4-clock2.png
subject-09,1,395,0.759577035903931,bear,bear,0,0395_s5n_s09_0_bear_00_bear10-keyboard3.png
subject-09,1,396,0.472583055496216,bottle,bottle,0,0396_s5n_s09_0_bottle_00_bottle6-bicycle3.png
subject-09,1,397,0.588984966278076,knife,knife,0,0397_s5n_s09_0_knife_00_knife6-bird1.png
subject-09,1,398,0.633859157562256,knife,knife,0,0398_s5n_s09_0_knife_00_knife2-bicycle3.png
subject-09,1,399,0.772022008895874,bear,bear,0,0399_s5n_s09_0_bear_00_bear3-chair2.png
subject-09,1,400,0.650222063064575,bird,bird,0,0400_s5n_s09_0_bird_00_bird8-chair1.png
subject-09,1,401,0.718082904815674,chair,chair,0,0401_s5n_s09_0_chair_00_chair8-knife2.png
subject-09,1,402,0.933677911758423,car,car,0,0402_s5n_s09_0_car_00_car6-boat1.png
subject-09,1,403,0.583293199539185,boat,boat,0,0403_s5n_s09_0_boat_00_boat1-car2.png
subject-09,1,404,0.695422887802124,truck,truck,0,0404_s5n_s09_0_truck_00_truck10-clock1.png
subject-09,1,405,0.419593095779419,boat,boat,0,0405_s5n_s09_0_boat_00_boat9-dog2.png
subject-09,1,406,0.819733142852783,dog,dog,0,0406_s5n_s09_0_dog_00_dog9-bear3.png
subject-09,1,407,0.651599884033203,knife,knife,0,0407_s5n_s09_0_knife_00_knife7-boat3.png
subject-09,1,408,0.919744968414307,boat,boat,0,0408_s5n_s09_0_boat_00_boat2-bear3.png
subject-09,1,409,1.12259101867676,dog,dog,0,0409_s5n_s09_0_dog_00_dog5-bear3.png
subject-09,1,410,0.452188014984131,chair,chair,0,0410_s5n_s09_0_chair_00_chair7-bird1.png
subject-09,1,411,0.7137131690979,boat,airplane,0,0411_s5n_s09_0_airplane_00_airplane3-oven1.png
subject-09,1,412,0.505712985992432,bear,bear,0,0412_s5n_s09_0_bear_00_bear2-oven1.png
subject-09,1,413,0.88479208946228,bottle,bottle,0,0413_s5n_s09_0_bottle_00_bottle8-keyboard3.png
subject-09,1,414,0.614096164703369,keyboard,keyboard,0,0414_s5n_s09_0_keyboard_00_keyboard5-cat1.png
subject-09,1,415,0.592505931854248,cat,cat,0,0415_s5n_s09_0_cat_00_cat9-bottle2.png
subject-09,1,416,0.476340055465698,bottle,bottle,0,0416_s5n_s09_0_bottle_00_bottle3-bear2.png
subject-09,1,417,0.597119092941284,truck,truck,0,0417_s5n_s09_0_truck_00_truck5-knife3.png
subject-09,1,418,0.405214071273804,cat,cat,0,0418_s5n_s09_0_cat_00_cat2-boat2.png
subject-09,1,419,0.959758996963501,knife,bear,0,0419_s5n_s09_0_bear_00_bear6-car2.png
subject-09,1,420,1.01344203948975,airplane,airplane,0,0420_s5n_s09_0_airplane_00_airplane4-knife1.png
subject-09,1,421,0.767502069473267,bottle,knife,0,0421_s5n_s09_0_knife_00_knife3-keyboard3.png
subject-09,1,422,0.54545783996582,keyboard,keyboard,0,0422_s5n_s09_0_keyboard_00_keyboard10-car1.png
subject-09,1,423,1.35944509506226,bottle,bottle,0,0423_s5n_s09_0_bottle_00_bottle6-bottle3.png
subject-09,1,424,0.769916772842407,bear,bear,0,0424_s5n_s09_0_bear_00_bear3-car2.png
subject-09,1,425,0.724133968353271,elephant,elephant,0,0425_s5n_s09_0_elephant_00_elephant3-knife1.png
subject-09,1,426,0.483870983123779,oven,oven,0,0426_s5n_s09_0_oven_00_oven1-cat1.png
subject-09,1,427,0.416478157043457,clock,clock,0,0427_s5n_s09_0_clock_00_clock2-dog1.png
subject-09,1,428,0.584223031997681,airplane,airplane,0,0428_s5n_s09_0_airplane_00_airplane4-dog2.png
subject-09,1,429,0.778832912445068,cat,cat,0,0429_s5n_s09_0_cat_00_cat7-boat3.png
subject-09,1,430,0.584506988525391,dog,dog,0,0430_s5n_s09_0_dog_00_dog3-dog1.png
subject-09,1,431,0.667632818222046,car,car,0,0431_s5n_s09_0_car_00_car6-elephant3.png
subject-09,1,432,0.592068195343018,knife,keyboard,0,0432_s5n_s09_0_keyboard_00_keyboard10-keyboard1.png
subject-09,1,433,0.730134010314941,truck,truck,0,0433_s5n_s09_0_truck_00_truck6-knife2.png
subject-09,1,434,0.640717029571533,knife,knife,0,0434_s5n_s09_0_knife_00_knife7-chair2.png
subject-09,1,435,0.770768880844116,dog,elephant,0,0435_s5n_s09_0_elephant_00_elephant2-keyboard3.png
subject-09,1,436,0.562618970870972,car,car,0,0436_s5n_s09_0_car_00_car8-chair1.png
subject-09,1,437,0.548482894897461,boat,boat,0,0437_s5n_s09_0_boat_00_boat7-cat3.png
subject-09,1,438,0.548618078231812,bottle,bottle,0,0438_s5n_s09_0_bottle_00_bottle9-cat2.png
subject-09,1,439,0.815658092498779,dog,dog,0,0439_s5n_s09_0_dog_00_dog7-chair2.png
subject-09,1,440,0.940124988555908,oven,oven,0,0440_s5n_s09_0_oven_00_oven3-bear2.png
subject-09,1,441,0.472932100296021,bottle,bottle,0,0441_s5n_s09_0_bottle_00_bottle5-oven2.png
subject-09,1,442,0.616261005401611,airplane,airplane,0,0442_s5n_s09_0_airplane_00_airplane4-bottle1.png
subject-09,1,443,1.36208391189575,boat,cat,0,0443_s5n_s09_0_cat_00_cat10-bird2.png
subject-09,1,444,0.985791921615601,bird,bird,0,0444_s5n_s09_0_bird_00_bird9-bicycle3.png
subject-09,1,445,0.710986852645874,keyboard,keyboard,0,0445_s5n_s09_0_keyboard_00_keyboard9-bear2.png
subject-09,1,446,0.448651075363159,cat,cat,0,0446_s5n_s09_0_cat_00_cat7-clock3.png
subject-09,1,447,0.681413888931274,airplane,airplane,0,0447_s5n_s09_0_airplane_00_airplane2-bear1.png
subject-09,1,448,0.689404010772705,dog,dog,0,0448_s5n_s09_0_dog_00_dog10-truck2.png
subject-09,1,449,0.427188873291016,bottle,bottle,0,0449_s5n_s09_0_bottle_00_bottle1-bear1.png
subject-09,1,450,0.658911943435669,airplane,airplane,0,0450_s5n_s09_0_airplane_00_airplane9-airplane2.png
subject-09,1,451,0.542865991592407,airplane,airplane,0,0451_s5n_s09_0_airplane_00_airplane1-clock1.png
subject-09,1,452,0.529299020767212,chair,oven,0,0452_s5n_s09_0_oven_00_oven7-cat1.png
subject-09,1,453,0.420796871185303,cat,cat,0,0453_s5n_s09_0_cat_00_cat6-bear1.png
subject-09,1,454,0.81316089630127,bottle,clock,0,0454_s5n_s09_0_clock_00_clock1-elephant2.png
subject-09,1,455,0.41283392906189,bottle,bottle,0,0455_s5n_s09_0_bottle_00_bottle5-elephant1.png
subject-09,1,456,0.644747018814087,truck,truck,0,0456_s5n_s09_0_truck_00_truck9-elephant1.png
subject-09,1,457,1.01249098777771,keyboard,keyboard,0,0457_s5n_s09_0_keyboard_00_keyboard8-cat3.png
subject-09,1,458,1.09611487388611,knife,boat,0,0458_s5n_s09_0_boat_00_boat6-dog1.png
subject-09,1,459,0.888144969940186,knife,boat,0,0459_s5n_s09_0_boat_00_boat6-elephant2.png
subject-09,1,460,0.563254117965698,bear,bear,0,0460_s5n_s09_0_bear_00_bear8-boat2.png
subject-09,1,461,0.516847133636475,bird,bird,0,0461_s5n_s09_0_bird_00_bird5-bird1.png
subject-09,1,462,0.891924858093262,truck,car,0,0462_s5n_s09_0_car_00_car5-truck3.png
subject-09,1,463,0.821775197982788,keyboard,keyboard,0,0463_s5n_s09_0_keyboard_00_keyboard1-dog3.png
subject-09,1,464,0.861884117126465,dog,dog,0,0464_s5n_s09_0_dog_00_dog7-car2.png
subject-09,1,465,1.113126039505,knife,boat,0,0465_s5n_s09_0_boat_00_boat6-truck3.png
subject-09,1,466,0.53730583190918,chair,chair,0,0466_s5n_s09_0_chair_00_chair10-airplane2.png
subject-09,1,467,0.675408124923706,car,car,0,0467_s5n_s09_0_car_00_car8-cat1.png
subject-09,1,468,1.19051289558411,bicycle,bicycle,0,0468_s5n_s09_0_bicycle_00_bicycle2-dog1.png
subject-09,1,469,0.828814029693604,bicycle,bicycle,0,0469_s5n_s09_0_bicycle_00_bicycle7-clock3.png
subject-09,1,470,0.858795166015625,truck,truck,0,0470_s5n_s09_0_truck_00_truck6-bottle3.png
subject-09,1,471,0.978685855865479,airplane,airplane,0,0471_s5n_s09_0_airplane_00_airplane5-bottle3.png
subject-09,1,472,0.824650049209595,keyboard,boat,0,0472_s5n_s09_0_boat_00_boat4-bird1.png
subject-09,1,473,0.86220908164978,airplane,airplane,0,0473_s5n_s09_0_airplane_00_airplane10-knife3.png
subject-09,1,474,0.715385913848877,bear,elephant,0,0474_s5n_s09_0_elephant_00_elephant6-dog2.png
subject-09,1,475,0.515780925750732,clock,clock,0,0475_s5n_s09_0_clock_00_clock8-cat1.png
subject-09,1,476,0.694817781448364,bear,bear,0,0476_s5n_s09_0_bear_00_bear5-bird1.png
subject-09,1,477,1.35751390457153,bicycle,bicycle,0,0477_s5n_s09_0_bicycle_00_bicycle8-boat1.png
subject-09,1,478,0.710781812667847,car,car,0,0478_s5n_s09_0_car_00_car4-bicycle3.png
subject-09,1,479,0.624253034591675,bear,elephant,0,0479_s5n_s09_0_elephant_00_elephant1-keyboard3.png
subject-09,1,480,0.502025127410889,keyboard,keyboard,0,0480_s5n_s09_0_keyboard_00_keyboard5-dog3.png
subject-09,1,481,0.600099086761475,bear,bear,0,0481_s5n_s09_0_bear_00_bear8-bottle1.png
subject-09,1,482,0.654041051864624,bicycle,bicycle,0,0482_s5n_s09_0_bicycle_00_bicycle3-bird1.png
subject-09,1,483,0.599653959274292,bird,bird,0,0483_s5n_s09_0_bird_00_bird9-dog2.png
subject-09,1,484,0.482765197753906,cat,cat,0,0484_s5n_s09_0_cat_00_cat2-truck3.png
subject-09,1,485,1.35241889953613,elephant,elephant,0,0485_s5n_s09_0_elephant_00_elephant2-cat1.png
subject-09,1,486,0.44970703125,chair,chair,0,0486_s5n_s09_0_chair_00_chair4-truck2.png
subject-09,1,487,0.511399030685425,bicycle,bicycle,0,0487_s5n_s09_0_bicycle_00_bicycle4-bicycle3.png
subject-09,1,488,0.587460041046143,cat,cat,0,0488_s5n_s09_0_cat_00_cat7-knife2.png
subject-09,1,489,0.626825094223022,bear,bear,0,0489_s5n_s09_0_bear_00_bear1-bear3.png
subject-09,1,490,0.626753091812134,cat,cat,0,0490_s5n_s09_0_cat_00_cat4-clock2.png
subject-09,1,491,0.553285837173462,airplane,airplane,0,0491_s5n_s09_0_airplane_00_airplane5-bicycle1.png
subject-09,1,492,0.493396043777466,clock,clock,0,0492_s5n_s09_0_clock_00_clock7-bicycle1.png
subject-09,1,493,0.830636978149414,bear,bear,0,0493_s5n_s09_0_bear_00_bear4-boat2.png
subject-09,1,494,0.635128974914551,bicycle,bicycle,0,0494_s5n_s09_0_bicycle_00_bicycle1-bottle3.png
subject-09,1,495,1.42663192749023,elephant,bird,0,0495_s5n_s09_0_bird_00_bird3-knife3.png
subject-09,1,496,0.902440071105957,knife,boat,0,0496_s5n_s09_0_boat_00_boat6-bicycle2.png
subject-09,1,497,0.63398814201355,keyboard,keyboard,0,0497_s5n_s09_0_keyboard_00_keyboard6-bicycle1.png
subject-09,1,498,0.772274017333984,truck,truck,0,0498_s5n_s09_0_truck_00_truck8-dog3.png
subject-09,1,499,0.423018932342529,clock,clock,0,0499_s5n_s09_0_clock_00_clock3-elephant3.png
subject-09,1,500,0.654600143432617,bottle,bottle,0,0500_s5n_s09_0_bottle_00_bottle3-bird1.png
subject-09,1,501,0.569334983825684,bicycle,bicycle,0,0501_s5n_s09_0_bicycle_00_bicycle1-bicycle3.png
subject-09,1,502,0.600863933563232,keyboard,oven,0,0502_s5n_s09_0_oven_00_oven8-chair1.png
subject-09,1,503,0.683794021606445,bicycle,bicycle,0,0503_s5n_s09_0_bicycle_00_bicycle10-dog3.png
subject-09,1,504,0.521684885025024,cat,cat,0,0504_s5n_s09_0_cat_00_cat6-keyboard3.png
subject-09,1,505,0.80888295173645,truck,truck,0,0505_s5n_s09_0_truck_00_truck2-oven3.png
subject-09,1,506,0.970180034637451,cat,bear,0,0506_s5n_s09_0_bear_00_bear8-dog1.png
subject-09,1,507,0.613905906677246,airplane,airplane,0,0507_s5n_s09_0_airplane_00_airplane6-bear3.png
subject-09,1,508,1.02154183387756,keyboard,keyboard,0,0508_s5n_s09_0_keyboard_00_keyboard4-cat2.png
subject-09,1,509,0.48307204246521,oven,oven,0,0509_s5n_s09_0_oven_00_oven1-clock3.png
subject-09,1,510,0.636403799057007,bottle,bottle,0,0510_s5n_s09_0_bottle_00_bottle1-dog2.png
subject-09,1,511,0.712937831878662,elephant,elephant,0,0511_s5n_s09_0_elephant_00_elephant9-boat3.png
subject-09,1,512,0.652850866317749,bird,bird,0,0512_s5n_s09_0_bird_00_bird2-car3.png
subject-09,1,513,0.78212308883667,airplane,airplane,0,0513_s5n_s09_0_airplane_00_airplane6-bottle2.png
subject-09,1,514,0.636267900466919,cat,bird,0,0514_s5n_s09_0_bird_00_bird3-cat1.png
subject-09,1,515,0.52203893661499,keyboard,keyboard,0,0515_s5n_s09_0_keyboard_00_keyboard9-boat2.png
subject-09,1,516,1.17645192146301,cat,cat,0,0516_s5n_s09_0_cat_00_cat8-bicycle3.png
subject-09,1,517,0.506371974945068,oven,oven,0,0517_s5n_s09_0_oven_00_oven8-knife2.png
subject-09,1,518,1.35184097290039,bird,bird,0,0518_s5n_s09_0_bird_00_bird4-cat3.png
subject-09,1,519,0.620994091033936,chair,chair,0,0519_s5n_s09_0_chair_00_chair9-elephant1.png
subject-09,1,520,0.753704786300659,bear,bear,0,0520_s5n_s09_0_bear_00_bear4-truck3.png
subject-09,1,521,0.829626083374023,dog,dog,0,0521_s5n_s09_0_dog_00_dog2-bottle2.png
subject-09,1,522,0.59650707244873,airplane,airplane,0,0522_s5n_s09_0_airplane_00_airplane3-airplane2.png
subject-09,1,523,0.566696882247925,chair,chair,0,0523_s5n_s09_0_chair_00_chair2-bear2.png
subject-09,1,524,0.880093097686768,oven,oven,0,0524_s5n_s09_0_oven_00_oven10-airplane2.png
subject-09,1,525,0.779305934906006,knife,knife,0,0525_s5n_s09_0_knife_00_knife4-oven2.png
subject-09,1,526,0.748707056045532,chair,bird,0,0526_s5n_s09_0_bird_00_bird1-chair2.png
subject-09,1,527,0.694740056991577,truck,truck,0,0527_s5n_s09_0_truck_00_truck9-chair3.png
subject-09,1,528,0.91631007194519,car,car,0,0528_s5n_s09_0_car_00_car9-truck3.png
subject-09,1,529,1.15875101089478,bicycle,bicycle,0,0529_s5n_s09_0_bicycle_00_bicycle10-boat3.png
subject-09,1,530,0.519925117492676,boat,boat,0,0530_s5n_s09_0_boat_00_boat2-oven3.png
subject-09,1,531,0.898710966110229,oven,truck,0,0531_s5n_s09_0_truck_00_truck3-chair2.png
subject-09,1,532,0.74421501159668,airplane,airplane,0,0532_s5n_s09_0_airplane_00_airplane9-clock1.png
subject-09,1,533,1.28240489959717,elephant,elephant,0,0533_s5n_s09_0_elephant_00_elephant2-truck2.png
subject-09,1,534,0.870544910430908,cat,cat,0,0534_s5n_s09_0_cat_00_cat1-keyboard3.png
subject-09,1,535,1.44032502174377,chair,oven,0,0535_s5n_s09_0_oven_00_oven7-elephant1.png
subject-09,1,536,0.96204400062561,car,car,0,0536_s5n_s09_0_car_00_car1-car2.png
subject-09,1,537,0.577752828598022,truck,truck,0,0537_s5n_s09_0_truck_00_truck5-car1.png
subject-09,1,538,0.547760963439941,bicycle,bicycle,0,0538_s5n_s09_0_bicycle_00_bicycle4-chair2.png
subject-09,1,539,1.18534708023071,chair,chair,0,0539_s5n_s09_0_chair_00_chair5-truck3.png
subject-09,1,540,0.569365978240967,bicycle,bicycle,0,0540_s5n_s09_0_bicycle_00_bicycle6-cat1.png
subject-09,1,541,0.661528825759888,clock,clock,0,0541_s5n_s09_0_clock_00_clock1-car1.png
subject-09,1,542,0.73934006690979,keyboard,keyboard,0,0542_s5n_s09_0_keyboard_00_keyboard6-car2.png
subject-09,1,543,0.555279970169067,knife,keyboard,0,0543_s5n_s09_0_keyboard_00_keyboard7-bear2.png
subject-09,1,544,0.847814083099365,car,car,0,0544_s5n_s09_0_car_00_car5-airplane3.png
subject-09,1,545,0.46372389793396,clock,clock,0,0545_s5n_s09_0_clock_00_clock2-bear2.png
subject-09,1,546,1.42281222343445,elephant,elephant,0,0546_s5n_s09_0_elephant_00_elephant1-boat2.png
subject-09,1,547,1.17325091362,bottle,bottle,0,0547_s5n_s09_0_bottle_00_bottle7-cat2.png
subject-09,1,548,0.69688892364502,car,car,0,0548_s5n_s09_0_car_00_car1-keyboard2.png
subject-09,1,549,0.609534978866577,bear,bear,0,0549_s5n_s09_0_bear_00_bear9-boat2.png
subject-09,1,550,0.688261032104492,keyboard,keyboard,0,0550_s5n_s09_0_keyboard_00_keyboard2-bicycle3.png
subject-09,1,551,0.571097850799561,bear,bear,0,0551_s5n_s09_0_bear_00_bear7-truck1.png
subject-09,1,552,0.81029200553894,dog,dog,0,0552_s5n_s09_0_dog_00_dog10-bicycle1.png
subject-09,1,553,0.862850904464722,keyboard,oven,0,0553_s5n_s09_0_oven_00_oven6-bird1.png
subject-09,1,554,0.779895782470703,bear,bird,0,0554_s5n_s09_0_bird_00_bird7-truck2.png
subject-09,1,555,0.709510087966919,knife,knife,0,0555_s5n_s09_0_knife_00_knife4-car2.png
subject-09,1,556,1.10126781463623,truck,truck,0,0556_s5n_s09_0_truck_00_truck8-keyboard2.png
subject-09,1,557,0.977724075317383,dog,dog,0,0557_s5n_s09_0_dog_00_dog5-boat3.png
subject-09,1,558,0.538907051086426,bear,bear,0,0558_s5n_s09_0_bear_00_bear5-chair1.png
subject-09,1,559,1.15280294418335,elephant,elephant,0,0559_s5n_s09_0_elephant_00_elephant5-elephant1.png
subject-09,1,560,0.601183176040649,bicycle,bicycle,0,0560_s5n_s09_0_bicycle_00_bicycle4-knife3.png
subject-09,1,561,0.646147012710571,airplane,airplane,0,0561_s5n_s09_0_airplane_00_airplane4-bicycle2.png
subject-09,1,562,0.506361961364746,knife,knife,0,0562_s5n_s09_0_knife_00_knife2-cat3.png
subject-09,1,563,1.18218588829041,elephant,elephant,0,0563_s5n_s09_0_elephant_00_elephant8-bicycle3.png
subject-09,1,564,0.514594078063965,bottle,bottle,0,0564_s5n_s09_0_bottle_00_bottle3-boat3.png
subject-09,1,565,0.676122903823853,bear,bear,0,0565_s5n_s09_0_bear_00_bear2-dog1.png
subject-09,1,566,1.02240490913391,boat,boat,0,0566_s5n_s09_0_boat_00_boat4-chair2.png
subject-09,1,567,1.50015711784363,bear,elephant,0,0567_s5n_s09_0_elephant_00_elephant4-oven1.png
subject-09,1,568,0.668148994445801,truck,truck,0,0568_s5n_s09_0_truck_00_truck5-truck1.png
subject-09,1,569,0.744441032409668,car,car,0,0569_s5n_s09_0_car_00_car10-dog1.png
subject-09,1,570,0.697540998458862,knife,knife,0,0570_s5n_s09_0_knife_00_knife8-boat1.png
subject-09,1,571,0.718452930450439,chair,chair,0,0571_s5n_s09_0_chair_00_chair10-cat1.png
subject-09,1,572,1.0429961681366,car,car,0,0572_s5n_s09_0_car_00_car9-knife1.png
subject-09,1,573,0.634863138198853,bicycle,bicycle,0,0573_s5n_s09_0_bicycle_00_bicycle1-bear1.png
subject-09,1,574,0.881466865539551,keyboard,keyboard,0,0574_s5n_s09_0_keyboard_00_keyboard4-oven2.png
subject-09,1,575,0.52734112739563,chair,chair,0,0575_s5n_s09_0_chair_00_chair4-oven2.png
subject-09,1,576,0.489269018173218,knife,knife,0,0576_s5n_s09_0_knife_00_knife6-dog2.png
subject-09,1,577,0.594444990158081,airplane,airplane,0,0577_s5n_s09_0_airplane_00_airplane10-cat2.png
subject-09,1,578,0.588211059570312,knife,knife,0,0578_s5n_s09_0_knife_00_knife1-dog1.png
subject-09,1,579,1.31638097763062,airplane,airplane,0,0579_s5n_s09_0_airplane_00_airplane3-elephant1.png
subject-09,1,580,0.893833160400391,knife,knife,0,0580_s5n_s09_0_knife_00_knife10-oven3.png
subject-09,1,581,1.1647481918335,bird,bird,0,0581_s5n_s09_0_bird_00_bird10-chair1.png
subject-09,1,582,1.05647301673889,clock,clock,0,0582_s5n_s09_0_clock_00_clock10-cat1.png
subject-09,1,583,1.20273303985596,bird,bird,0,0583_s5n_s09_0_bird_00_bird7-knife2.png
subject-09,1,584,0.651260852813721,knife,knife,0,0584_s5n_s09_0_knife_00_knife9-chair1.png
subject-09,1,585,0.872536897659302,bottle,bottle,0,0585_s5n_s09_0_bottle_00_bottle7-clock1.png
subject-09,1,586,0.726560115814209,bottle,bottle,0,0586_s5n_s09_0_bottle_00_bottle10-car1.png
subject-09,1,587,1.13448786735535,airplane,dog,0,0587_s5n_s09_0_dog_00_dog4-chair1.png
subject-09,1,588,0.618339061737061,chair,chair,0,0588_s5n_s09_0_chair_00_chair1-airplane2.png
subject-09,1,589,0.709900856018066,cat,cat,0,0589_s5n_s09_0_cat_00_cat5-bear2.png
subject-09,1,590,1.23940992355347,bird,knife,0,0590_s5n_s09_0_knife_00_knife2-bottle2.png
subject-09,1,591,0.471126079559326,bottle,bottle,0,0591_s5n_s09_0_bottle_00_bottle2-car2.png
subject-09,1,592,0.823002099990845,boat,boat,0,0592_s5n_s09_0_boat_00_boat10-truck1.png
subject-09,1,593,0.576584100723267,clock,clock,0,0593_s5n_s09_0_clock_00_clock5-bicycle1.png
subject-09,1,594,0.562597990036011,bear,bear,0,0594_s5n_s09_0_bear_00_bear9-keyboard3.png
subject-09,1,595,0.625595092773438,chair,chair,0,0595_s5n_s09_0_chair_00_chair6-elephant2.png
subject-09,1,596,1.27151489257812,bird,bird,0,0596_s5n_s09_0_bird_00_bird6-airplane2.png
subject-09,1,597,0.47973108291626,bird,bird,0,0597_s5n_s09_0_bird_00_bird1-oven1.png
subject-09,1,598,0.809972047805786,boat,boat,0,0598_s5n_s09_0_boat_00_boat7-oven3.png
subject-09,1,599,0.692859172821045,keyboard,keyboard,0,0599_s5n_s09_0_keyboard_00_keyboard10-truck1.png
subject-09,1,600,0.439107179641724,airplane,airplane,0,0600_s5n_s09_0_airplane_00_airplane5-bird2.png
subject-09,1,601,0.603574991226196,clock,clock,0,0601_s5n_s09_0_clock_00_clock6-bicycle1.png
subject-09,1,602,0.833248138427734,bear,bear,0,0602_s5n_s09_0_bear_00_bear10-elephant1.png
subject-09,1,603,0.592836856842041,truck,truck,0,0603_s5n_s09_0_truck_00_truck2-boat3.png
subject-09,1,604,0.386465072631836,clock,clock,0,0604_s5n_s09_0_clock_00_clock7-dog2.png
subject-09,1,605,0.645519971847534,car,car,0,0605_s5n_s09_0_car_00_car9-bicycle2.png
subject-09,1,606,0.854065895080566,knife,knife,0,0606_s5n_s09_0_knife_00_knife6-oven3.png
subject-09,1,607,0.676000118255615,bear,bear,0,0607_s5n_s09_0_bear_00_bear4-knife1.png
subject-09,1,608,0.845824003219604,airplane,airplane,0,0608_s5n_s09_0_airplane_00_airplane4-keyboard3.png
subject-09,1,609,1.18281817436218,bird,bird,0,0609_s5n_s09_0_bird_00_bird4-clock1.png
subject-09,1,610,0.575024843215942,oven,oven,0,0610_s5n_s09_0_oven_00_oven5-airplane1.png
subject-09,1,611,0.444902181625366,bottle,bottle,0,0611_s5n_s09_0_bottle_00_bottle9-elephant2.png
subject-09,1,612,0.628513813018799,boat,boat,0,0612_s5n_s09_0_boat_00_boat1-bicycle2.png
subject-09,1,613,0.696209907531738,oven,oven,0,0613_s5n_s09_0_oven_00_oven10-bear1.png
subject-09,1,614,1.08859610557556,oven,oven,0,0614_s5n_s09_0_oven_00_oven2-truck3.png
subject-09,1,615,0.504839897155762,cat,cat,0,0615_s5n_s09_0_cat_00_cat5-chair3.png
subject-09,1,616,0.550260066986084,bear,bear,0,0616_s5n_s09_0_bear_00_bear8-bicycle3.png
subject-09,1,617,0.720555782318115,car,car,0,0617_s5n_s09_0_car_00_car9-bird1.png
subject-09,1,618,0.528444051742554,dog,dog,0,0618_s5n_s09_0_dog_00_dog5-knife2.png
subject-09,1,619,0.682066917419434,knife,knife,0,0619_s5n_s09_0_knife_00_knife9-elephant2.png
subject-09,1,620,1.25842094421387,clock,bicycle,0,0620_s5n_s09_0_bicycle_00_bicycle3-oven3.png
subject-09,1,621,0.857499122619629,elephant,elephant,0,0621_s5n_s09_0_elephant_00_elephant6-bicycle1.png
subject-09,1,622,0.717391967773438,elephant,elephant,0,0622_s5n_s09_0_elephant_00_elephant10-knife3.png
subject-09,1,623,0.741209030151367,chair,chair,0,0623_s5n_s09_0_chair_00_chair6-dog1.png
subject-09,1,624,0.794571161270142,bear,bear,0,0624_s5n_s09_0_bear_00_bear4-clock3.png
subject-09,1,625,0.461783170700073,chair,chair,0,0625_s5n_s09_0_chair_00_chair9-bottle3.png
subject-09,1,626,0.577406883239746,bicycle,bicycle,0,0626_s5n_s09_0_bicycle_00_bicycle9-cat3.png
subject-09,1,627,0.799582958221436,airplane,airplane,0,0627_s5n_s09_0_airplane_00_airplane2-bottle1.png
subject-09,1,628,0.531827926635742,oven,oven,0,0628_s5n_s09_0_oven_00_oven4-bicycle2.png
subject-09,1,629,0.753564834594727,bicycle,bicycle,0,0629_s5n_s09_0_bicycle_00_bicycle5-chair2.png
subject-09,1,630,1.34510898590088,dog,dog,0,0630_s5n_s09_0_dog_00_dog10-clock1.png
subject-09,1,631,0.69876503944397,clock,clock,0,0631_s5n_s09_0_clock_00_clock8-knife1.png
subject-09,1,632,0.582967042922974,boat,boat,0,0632_s5n_s09_0_boat_00_boat1-oven1.png
subject-09,1,633,1.28270792961121,bird,bird,0,0633_s5n_s09_0_bird_00_bird3-truck3.png
subject-09,1,634,0.490689992904663,cat,cat,0,0634_s5n_s09_0_cat_00_cat4-oven1.png
subject-09,1,635,0.769078969955444,bear,elephant,0,0635_s5n_s09_0_elephant_00_elephant1-dog2.png
subject-09,1,636,0.574338912963867,oven,oven,0,0636_s5n_s09_0_oven_00_oven6-chair3.png
subject-09,1,637,0.45831298828125,chair,chair,0,0637_s5n_s09_0_chair_00_chair7-cat1.png
subject-09,1,638,0.844367980957031,airplane,airplane,0,0638_s5n_s09_0_airplane_00_airplane10-bear3.png
subject-09,1,639,0.498080968856812,clock,clock,0,0639_s5n_s09_0_clock_00_clock10-bottle1.png
subject-09,1,640,0.98330283164978,bird,bird,0,0640_s5n_s09_0_bird_00_bird6-truck2.png
subject-09,1,641,0.975085973739624,knife,knife,0,0641_s5n_s09_0_knife_00_knife7-elephant2.png
subject-09,1,642,0.552594900131226,clock,clock,0,0642_s5n_s09_0_clock_00_clock6-car2.png
subject-09,1,643,0.719826936721802,car,car,0,0643_s5n_s09_0_car_00_car6-bottle1.png
subject-09,1,644,1.28197479248047,keyboard,keyboard,0,0644_s5n_s09_0_keyboard_00_keyboard5-oven2.png
subject-09,1,645,0.568088054656982,cat,cat,0,0645_s5n_s09_0_cat_00_cat2-bottle3.png
subject-09,1,646,0.80539608001709,bear,bear,0,0646_s5n_s09_0_bear_00_bear7-bicycle2.png
subject-09,1,647,0.742879152297974,bear,bear,0,0647_s5n_s09_0_bear_00_bear7-oven3.png
subject-09,1,648,0.535789012908936,airplane,airplane,0,0648_s5n_s09_0_airplane_00_airplane9-boat1.png
subject-09,1,649,0.488932847976685,cat,cat,0,0649_s5n_s09_0_cat_00_cat4-knife1.png
subject-09,1,650,0.429547071456909,chair,oven,0,0650_s5n_s09_0_oven_00_oven7-oven1.png
subject-09,1,651,1.15896201133728,bear,bear,0,0651_s5n_s09_0_bear_00_bear5-oven3.png
subject-09,1,652,1.212886095047,keyboard,keyboard,0,0652_s5n_s09_0_keyboard_00_keyboard4-knife2.png
subject-09,1,653,0.959301948547363,bicycle,bicycle,0,0653_s5n_s09_0_bicycle_00_bicycle7-knife2.png
subject-09,1,654,0.599150896072388,bear,bear,0,0654_s5n_s09_0_bear_00_bear3-cat1.png
subject-09,1,655,0.407238006591797,oven,oven,0,0655_s5n_s09_0_oven_00_oven1-dog3.png
subject-09,1,656,0.698231220245361,car,car,0,0656_s5n_s09_0_car_00_car7-boat3.png
subject-09,1,657,1.27405905723572,airplane,airplane,0,0657_s5n_s09_0_airplane_00_airplane4-cat3.png
subject-09,1,658,1.13598489761353,truck,truck,0,0658_s5n_s09_0_truck_00_truck10-truck3.png
subject-09,1,659,0.503275156021118,airplane,airplane,0,0659_s5n_s09_0_airplane_00_airplane9-knife3.png
subject-09,1,660,0.643562793731689,bear,elephant,0,0660_s5n_s09_0_elephant_00_elephant5-chair3.png
subject-09,1,661,0.865381956100464,bicycle,bicycle,0,0661_s5n_s09_0_bicycle_00_bicycle9-car1.png
subject-09,1,662,0.497119903564453,bottle,bottle,0,0662_s5n_s09_0_bottle_00_bottle1-cat3.png
subject-09,1,663,1.11130404472351,elephant,elephant,0,0663_s5n_s09_0_elephant_00_elephant3-truck1.png
subject-09,1,664,0.451630115509033,cat,cat,0,0664_s5n_s09_0_cat_00_cat1-car2.png
subject-09,1,665,0.99738597869873,elephant,elephant,0,0665_s5n_s09_0_elephant_00_elephant4-car3.png
subject-09,1,666,0.690047979354858,dog,dog,0,0666_s5n_s09_0_dog_00_dog2-bicycle2.png
subject-09,1,667,0.514484882354736,airplane,airplane,0,0667_s5n_s09_0_airplane_00_airplane4-bear3.png
subject-09,1,668,0.392523050308228,chair,chair,0,0668_s5n_s09_0_chair_00_chair8-bear1.png
subject-09,1,669,0.745850086212158,keyboard,keyboard,0,0669_s5n_s09_0_keyboard_00_keyboard3-bird3.png
subject-09,1,670,0.843986034393311,bicycle,bicycle,0,0670_s5n_s09_0_bicycle_00_bicycle9-bear1.png
subject-09,1,671,1.41922211647034,truck,bear,0,0671_s5n_s09_0_bear_00_bear10-cat2.png
subject-09,1,672,0.702136993408203,truck,truck,0,0672_s5n_s09_0_truck_00_truck2-airplane3.png
subject-09,1,673,0.867281913757324,elephant,elephant,0,0673_s5n_s09_0_elephant_00_elephant5-truck1.png
subject-09,1,674,0.81102991104126,airplane,keyboard,0,0674_s5n_s09_0_keyboard_00_keyboard6-elephant1.png
subject-09,1,675,0.81003212928772,airplane,airplane,0,0675_s5n_s09_0_airplane_00_airplane8-elephant3.png
subject-09,1,676,1.00984001159668,knife,knife,0,0676_s5n_s09_0_knife_00_knife8-car2.png
subject-09,1,677,0.46324610710144,boat,boat,0,0677_s5n_s09_0_boat_00_boat5-airplane1.png
subject-09,1,678,0.409899950027466,chair,chair,0,0678_s5n_s09_0_chair_00_chair3-car3.png
subject-09,1,679,0.901644945144653,oven,oven,0,0679_s5n_s09_0_oven_00_oven3-elephant3.png
subject-09,1,680,0.755527019500732,airplane,airplane,0,0680_s5n_s09_0_airplane_00_airplane2-dog1.png
subject-09,1,681,0.80144190788269,bird,bird,0,0681_s5n_s09_0_bird_00_bird3-bottle2.png
subject-09,1,682,0.976495981216431,elephant,elephant,0,0682_s5n_s09_0_elephant_00_elephant9-chair2.png
subject-09,1,683,0.760077953338623,oven,cat,0,0683_s5n_s09_0_cat_00_cat10-bear1.png
subject-09,1,684,0.526365995407104,bottle,bottle,0,0684_s5n_s09_0_bottle_00_bottle5-boat1.png
subject-09,1,685,0.84790301322937,elephant,elephant,0,0685_s5n_s09_0_elephant_00_elephant8-knife2.png
subject-09,1,686,0.76334810256958,clock,clock,0,0686_s5n_s09_0_clock_00_clock1-dog2.png
subject-09,1,687,0.4548020362854,chair,chair,0,0687_s5n_s09_0_chair_00_chair5-knife3.png
subject-09,1,688,0.854962110519409,dog,dog,0,0688_s5n_s09_0_dog_00_dog3-bear3.png
subject-09,1,689,0.840816974639893,oven,oven,0,0689_s5n_s09_0_oven_00_oven9-oven1.png
subject-09,1,690,0.87065601348877,airplane,airplane,0,0690_s5n_s09_0_airplane_00_airplane7-bird3.png
subject-09,1,691,0.962718963623047,clock,cat,0,0691_s5n_s09_0_cat_00_cat10-keyboard1.png
subject-09,1,692,0.694761991500854,truck,truck,0,0692_s5n_s09_0_truck_00_truck4-airplane3.png
subject-09,1,693,0.779319047927856,chair,chair,0,0693_s5n_s09_0_chair_00_chair3-dog2.png
subject-09,1,694,0.586416006088257,cat,cat,0,0694_s5n_s09_0_cat_00_cat7-dog3.png
subject-09,1,695,0.56516695022583,clock,clock,0,0695_s5n_s09_0_clock_00_clock9-cat1.png
subject-09,1,696,0.741172075271606,dog,dog,0,0696_s5n_s09_0_dog_00_dog1-knife3.png
subject-09,1,697,0.519520044326782,clock,clock,0,0697_s5n_s09_0_clock_00_clock5-chair3.png
subject-09,1,698,1.43511414527893,airplane,airplane,0,0698_s5n_s09_0_airplane_00_airplane7-boat2.png
subject-09,1,699,1.18206191062927,dog,dog,0,0699_s5n_s09_0_dog_00_dog1-bear1.png
subject-09,1,700,0.673631191253662,knife,knife,0,0700_s5n_s09_0_knife_00_knife1-elephant1.png
subject-09,1,701,1.40325117111206,dog,truck,0,0701_s5n_s09_0_truck_00_truck1-bird1.png
subject-09,1,702,0.635174036026001,keyboard,keyboard,0,0702_s5n_s09_0_keyboard_00_keyboard1-chair2.png
subject-09,1,703,0.53412389755249,knife,knife,0,0703_s5n_s09_0_knife_00_knife5-truck3.png
subject-09,1,704,1.00229001045227,elephant,elephant,0,0704_s5n_s09_0_elephant_00_elephant5-bottle2.png
subject-09,1,705,0.412989139556885,cat,cat,0,0705_s5n_s09_0_cat_00_cat5-dog3.png
subject-09,1,706,0.435719013214111,keyboard,keyboard,0,0706_s5n_s09_0_keyboard_00_keyboard3-boat1.png
subject-09,1,707,0.567073106765747,cat,cat,0,0707_s5n_s09_0_cat_00_cat9-dog2.png
subject-09,1,708,0.397173881530762,chair,chair,0,0708_s5n_s09_0_chair_00_chair5-bottle3.png
subject-09,1,709,0.818863153457642,cat,bird,0,0709_s5n_s09_0_bird_00_bird8-elephant1.png
subject-09,1,710,0.866360902786255,oven,dog,0,0710_s5n_s09_0_dog_00_dog7-oven2.png
subject-09,1,711,0.617445945739746,elephant,elephant,0,0711_s5n_s09_0_elephant_00_elephant5-bear2.png
subject-09,1,712,0.641993999481201,bear,bear,0,0712_s5n_s09_0_bear_00_bear3-airplane1.png
subject-09,1,713,0.5572190284729,bird,bird,0,0713_s5n_s09_0_bird_00_bird7-oven3.png
subject-09,1,714,0.632730960845947,bear,bear,0,0714_s5n_s09_0_bear_00_bear8-truck3.png
subject-09,1,715,0.578133106231689,knife,knife,0,0715_s5n_s09_0_knife_00_knife9-bicycle1.png
subject-09,1,716,0.483701944351196,boat,boat,0,0716_s5n_s09_0_boat_00_boat5-knife2.png
subject-09,1,717,0.821305990219116,bear,bear,0,0717_s5n_s09_0_bear_00_bear5-bicycle3.png
subject-09,1,718,0.561911106109619,knife,knife,0,0718_s5n_s09_0_knife_00_knife1-keyboard3.png
subject-09,1,719,0.838058948516846,knife,knife,0,0719_s5n_s09_0_knife_00_knife2-bear2.png
subject-09,1,720,0.583711862564087,cat,cat,0,0720_s5n_s09_0_cat_00_cat5-keyboard3.png
subject-09,1,721,0.653228998184204,dog,bottle,0,0721_s5n_s09_0_bottle_00_bottle7-boat3.png
subject-09,1,722,1.50011301040649,bear,truck,0,0722_s5n_s09_0_truck_00_truck7-keyboard3.png
subject-09,1,723,0.66995096206665,dog,dog,0,0723_s5n_s09_0_dog_00_dog1-dog2.png
subject-09,1,724,0.783027172088623,elephant,elephant,0,0724_s5n_s09_0_elephant_00_elephant7-clock2.png
subject-09,1,725,0.461526870727539,cat,cat,0,0725_s5n_s09_0_cat_00_cat4-truck3.png
subject-09,1,726,0.853078126907349,car,car,0,0726_s5n_s09_0_car_00_car7-clock1.png
subject-09,1,727,0.606863975524902,boat,boat,0,0727_s5n_s09_0_boat_00_boat1-chair3.png
subject-09,1,728,1.09805107116699,bear,elephant,0,0728_s5n_s09_0_elephant_00_elephant8-boat2.png
subject-09,1,729,1.02817797660828,bicycle,bicycle,0,0729_s5n_s09_0_bicycle_00_bicycle9-bottle1.png
subject-09,1,730,0.574131011962891,truck,truck,0,0730_s5n_s09_0_truck_00_truck10-airplane1.png
subject-09,1,731,1.32675981521606,bear,bear,0,0731_s5n_s09_0_bear_00_bear10-bear2.png
subject-09,1,732,0.551194190979004,bear,bear,0,0732_s5n_s09_0_bear_00_bear9-dog1.png
subject-09,1,733,0.481004953384399,oven,oven,0,0733_s5n_s09_0_oven_00_oven3-cat2.png
subject-09,1,734,0.489354848861694,chair,chair,0,0734_s5n_s09_0_chair_00_chair2-knife1.png
subject-09,1,735,0.542693138122559,clock,clock,0,0735_s5n_s09_0_clock_00_clock1-boat3.png
subject-09,1,736,0.605232000350952,airplane,airplane,0,0736_s5n_s09_0_airplane_00_airplane8-chair1.png
subject-09,1,737,0.420937061309814,clock,clock,0,0737_s5n_s09_0_clock_00_clock8-airplane2.png
subject-09,1,738,0.58873987197876,cat,cat,0,0738_s5n_s09_0_cat_00_cat1-chair2.png
subject-09,1,739,1.00257015228271,bicycle,bicycle,0,0739_s5n_s09_0_bicycle_00_bicycle4-keyboard3.png
subject-09,1,740,0.988312005996704,bear,bear,0,0740_s5n_s09_0_bear_00_bear7-bear2.png
subject-09,1,741,0.671802997589111,keyboard,keyboard,0,0741_s5n_s09_0_keyboard_00_keyboard1-clock1.png
subject-09,1,742,1.20203018188477,elephant,bear,0,0742_s5n_s09_0_bear_00_bear3-truck3.png
subject-09,1,743,0.396305084228516,cat,cat,0,0743_s5n_s09_0_cat_00_cat1-boat1.png
subject-09,1,744,0.656185865402222,elephant,elephant,0,0744_s5n_s09_0_elephant_00_elephant7-car3.png
subject-09,1,745,1.12666893005371,cat,bird,0,0745_s5n_s09_0_bird_00_bird3-bear3.png
subject-09,1,746,1.08800601959229,airplane,truck,0,0746_s5n_s09_0_truck_00_truck3-keyboard3.png
subject-09,1,747,0.556026935577393,bottle,bottle,0,0747_s5n_s09_0_bottle_00_bottle3-knife3.png
subject-09,1,748,0.441483020782471,keyboard,keyboard,0,0748_s5n_s09_0_keyboard_00_keyboard9-bicycle2.png
subject-09,1,749,0.379848003387451,clock,clock,0,0749_s5n_s09_0_clock_00_clock5-clock2.png
subject-09,1,750,0.579035043716431,car,car,0,0750_s5n_s09_0_car_00_car8-bear1.png
subject-09,1,751,1.22489500045776,bicycle,bicycle,0,0751_s5n_s09_0_bicycle_00_bicycle2-bicycle1.png
subject-09,1,752,0.69490909576416,boat,boat,0,0752_s5n_s09_0_boat_00_boat8-knife1.png
subject-09,1,753,0.394486904144287,bottle,bottle,0,0753_s5n_s09_0_bottle_00_bottle9-truck1.png
subject-09,1,754,0.948744058609009,knife,knife,0,0754_s5n_s09_0_knife_00_knife10-chair1.png
subject-09,1,755,0.7115318775177,elephant,elephant,0,0755_s5n_s09_0_elephant_00_elephant2-clock1.png
subject-09,1,756,0.424643039703369,elephant,elephant,0,0756_s5n_s09_0_elephant_00_elephant2-bottle3.png
subject-09,1,757,0.564498901367188,bear,bear,0,0757_s5n_s09_0_bear_00_bear8-elephant2.png
subject-09,1,758,0.87265419960022,boat,cat,0,0758_s5n_s09_0_cat_00_cat10-oven2.png
subject-09,1,759,0.409613847732544,oven,oven,0,0759_s5n_s09_0_oven_00_oven9-keyboard1.png
subject-09,1,760,0.915734052658081,clock,clock,0,0760_s5n_s09_0_clock_00_clock1-truck3.png
subject-09,1,761,1.04046201705933,elephant,elephant,0,0761_s5n_s09_0_elephant_00_elephant6-knife2.png
subject-09,1,762,0.393070936203003,chair,chair,0,0762_s5n_s09_0_chair_00_chair1-clock2.png
subject-09,1,763,0.469651222229004,keyboard,keyboard,0,0763_s5n_s09_0_keyboard_00_keyboard10-airplane3.png
subject-09,1,764,0.701664924621582,bicycle,bicycle,0,0764_s5n_s09_0_bicycle_00_bicycle7-truck3.png
subject-09,1,765,0.70191216468811,bottle,bottle,0,0765_s5n_s09_0_bottle_00_bottle8-bird1.png
subject-09,1,766,1.14051699638367,airplane,airplane,0,0766_s5n_s09_0_airplane_00_airplane10-oven2.png
subject-09,1,767,0.580105066299438,keyboard,keyboard,0,0767_s5n_s09_0_keyboard_00_keyboard2-bottle1.png
subject-09,1,768,1.30890703201294,bird,bird,0,0768_s5n_s09_0_bird_00_bird4-bicycle2.png
subject-09,1,769,0.921376943588257,keyboard,keyboard,0,0769_s5n_s09_0_keyboard_00_keyboard7-bottle1.png
subject-09,1,770,0.721883058547974,elephant,elephant,0,0770_s5n_s09_0_elephant_00_elephant9-airplane2.png
subject-09,1,771,0.459182977676392,chair,chair,0,0771_s5n_s09_0_chair_00_chair1-cat3.png
subject-09,1,772,0.38834285736084,cat,cat,0,0772_s5n_s09_0_cat_00_cat1-oven1.png
subject-09,1,773,0.620780944824219,chair,chair,0,0773_s5n_s09_0_chair_00_chair4-chair3.png
subject-09,1,774,0.450514078140259,boat,boat,0,0774_s5n_s09_0_boat_00_boat4-boat3.png
subject-09,1,775,0.796462059020996,bird,bird,0,0775_s5n_s09_0_bird_00_bird7-bottle1.png
subject-09,1,776,0.725763082504272,elephant,elephant,0,0776_s5n_s09_0_elephant_00_elephant8-elephant1.png
subject-09,1,777,0.58771800994873,knife,knife,0,0777_s5n_s09_0_knife_00_knife8-truck3.png
subject-09,1,778,0.587153911590576,oven,oven,0,0778_s5n_s09_0_oven_00_oven5-bird1.png
subject-09,1,779,1.0032160282135,elephant,elephant,0,0779_s5n_s09_0_elephant_00_elephant9-clock3.png
subject-09,1,780,0.793344974517822,cat,bear,0,0780_s5n_s09_0_bear_00_bear6-boat3.png
subject-09,1,781,1.0850830078125,boat,boat,0,0781_s5n_s09_0_boat_00_boat3-clock3.png
subject-09,1,782,0.669137001037598,elephant,elephant,0,0782_s5n_s09_0_elephant_00_elephant7-knife2.png
subject-09,1,783,0.755012989044189,chair,chair,0,0783_s5n_s09_0_chair_00_chair7-elephant1.png
subject-09,1,784,0.446547031402588,boat,boat,0,0784_s5n_s09_0_boat_00_boat8-dog3.png
subject-09,1,785,0.970688104629517,dog,bird,0,0785_s5n_s09_0_bird_00_bird1-truck1.png
subject-09,1,786,0.440392017364502,chair,chair,0,0786_s5n_s09_0_chair_00_chair4-cat2.png
subject-09,1,787,0.791892051696777,boat,airplane,0,0787_s5n_s09_0_airplane_00_airplane3-chair3.png
subject-09,1,788,0.886070966720581,bird,bird,0,0788_s5n_s09_0_bird_00_bird3-dog1.png
subject-09,1,789,0.486110925674438,bird,bird,0,0789_s5n_s09_0_bird_00_bird5-bear3.png
subject-09,1,790,0.47229790687561,boat,boat,0,0790_s5n_s09_0_boat_00_boat5-car3.png
subject-09,1,791,0.842698812484741,dog,dog,0,0791_s5n_s09_0_dog_00_dog10-oven2.png
subject-09,1,792,0.733345031738281,bottle,bottle,0,0792_s5n_s09_0_bottle_00_bottle6-knife3.png
subject-09,1,793,0.663031101226807,truck,truck,0,0793_s5n_s09_0_truck_00_truck4-knife1.png
subject-09,1,794,0.740390062332153,airplane,airplane,0,0794_s5n_s09_0_airplane_00_airplane9-oven2.png
subject-09,1,795,0.42415189743042,cat,cat,0,0795_s5n_s09_0_cat_00_cat1-dog1.png
subject-09,1,796,0.66231894493103,clock,clock,0,0796_s5n_s09_0_clock_00_clock2-knife1.png
subject-09,1,797,1.0483410358429,knife,knife,0,0797_s5n_s09_0_knife_00_knife10-knife1.png
subject-09,1,798,0.440386056900024,oven,oven,0,0798_s5n_s09_0_oven_00_oven2-boat3.png
subject-09,1,799,0.548070907592773,bottle,bottle,0,0799_s5n_s09_0_bottle_00_bottle10-boat3.png
subject-09,1,800,0.777010202407837,chair,chair,0,0800_s5n_s09_0_chair_00_chair7-knife2.png
subject-09,1,801,0.631220817565918,chair,chair,0,0801_s5n_s09_0_chair_00_chair10-dog1.png
subject-09,1,802,0.693074941635132,knife,knife,0,0802_s5n_s09_0_knife_00_knife1-oven1.png
subject-09,1,803,0.576391935348511,chair,chair,0,0803_s5n_s09_0_chair_00_chair7-clock3.png
subject-09,1,804,0.508989095687866,cat,cat,0,0804_s5n_s09_0_cat_00_cat9-chair2.png
subject-09,1,805,0.725180864334106,knife,knife,0,0805_s5n_s09_0_knife_00_knife3-cat1.png
subject-09,1,806,1.00851511955261,truck,truck,0,0806_s5n_s09_0_truck_00_truck6-bear2.png
subject-09,1,807,1.04100704193115,airplane,keyboard,0,0807_s5n_s09_0_keyboard_00_keyboard9-elephant2.png
subject-09,1,808,0.710732936859131,bicycle,bicycle,0,0808_s5n_s09_0_bicycle_00_bicycle1-oven1.png
subject-09,1,809,1.35456895828247,chair,chair,0,0809_s5n_s09_0_chair_00_chair9-boat2.png
subject-09,1,810,0.510709047317505,chair,chair,0,0810_s5n_s09_0_chair_00_chair8-car1.png
subject-09,1,811,0.610798120498657,car,car,0,0811_s5n_s09_0_car_00_car4-boat1.png
subject-09,1,812,0.576865911483765,car,car,0,0812_s5n_s09_0_car_00_car1-clock2.png
subject-09,1,813,1.29901599884033,truck,truck,0,0813_s5n_s09_0_truck_00_truck2-elephant1.png
subject-09,1,814,0.522672891616821,chair,oven,0,0814_s5n_s09_0_oven_00_oven7-dog2.png
subject-09,1,815,0.698921918869019,car,car,0,0815_s5n_s09_0_car_00_car2-cat3.png
subject-09,1,816,0.584398984909058,keyboard,keyboard,0,0816_s5n_s09_0_keyboard_00_keyboard5-airplane3.png
subject-09,1,817,0.900499820709229,knife,knife,0,0817_s5n_s09_0_knife_00_knife9-bird1.png
subject-09,1,818,1.18443822860718,truck,keyboard,0,0818_s5n_s09_0_keyboard_00_keyboard4-truck3.png
subject-09,1,819,0.983947038650513,bear,bear,0,0819_s5n_s09_0_bear_00_bear4-cat3.png
subject-09,1,820,0.805841207504272,knife,keyboard,0,0820_s5n_s09_0_keyboard_00_keyboard2-elephant1.png
subject-09,1,821,0.528714895248413,truck,truck,0,0821_s5n_s09_0_truck_00_truck6-cat2.png
subject-09,1,822,0.729241132736206,knife,boat,0,0822_s5n_s09_0_boat_00_boat6-knife2.png
subject-09,1,823,0.391007900238037,clock,clock,0,0823_s5n_s09_0_clock_00_clock10-bird3.png
subject-09,1,824,1.22050094604492,truck,truck,0,0824_s5n_s09_0_truck_00_truck5-cat3.png
subject-09,1,825,0.54955792427063,car,car,0,0825_s5n_s09_0_car_00_car8-dog1.png
subject-09,1,826,0.441177845001221,bottle,bottle,0,0826_s5n_s09_0_bottle_00_bottle5-airplane1.png
subject-09,1,827,1.07052397727966,elephant,elephant,0,0827_s5n_s09_0_elephant_00_elephant1-airplane2.png
subject-09,1,828,0.818427085876465,car,car,0,0828_s5n_s09_0_car_00_car4-clock1.png
subject-09,1,829,1.1394829750061,bicycle,bicycle,0,0829_s5n_s09_0_bicycle_00_bicycle1-knife3.png
subject-09,1,830,1.06169199943542,airplane,airplane,0,0830_s5n_s09_0_airplane_00_airplane3-dog1.png
subject-09,1,831,0.61496901512146,bicycle,bicycle,0,0831_s5n_s09_0_bicycle_00_bicycle1-boat3.png
subject-09,1,832,0.769191980361938,truck,truck,0,0832_s5n_s09_0_truck_00_truck5-keyboard1.png
subject-09,1,833,0.637230157852173,bicycle,bicycle,0,0833_s5n_s09_0_bicycle_00_bicycle5-elephant1.png
subject-09,1,834,0.715466976165771,bicycle,bicycle,0,0834_s5n_s09_0_bicycle_00_bicycle1-clock3.png
subject-09,1,835,1.2819550037384,airplane,airplane,0,0835_s5n_s09_0_airplane_00_airplane6-knife1.png
subject-09,1,836,0.635948181152344,boat,boat,0,0836_s5n_s09_0_boat_00_boat3-bicycle2.png
subject-09,1,837,0.822098016738892,boat,boat,0,0837_s5n_s09_0_boat_00_boat4-bottle2.png
subject-09,1,838,0.446266889572144,bottle,bottle,0,0838_s5n_s09_0_bottle_00_bottle3-chair3.png
subject-09,1,839,0.514743089675903,oven,oven,0,0839_s5n_s09_0_oven_00_oven10-cat2.png
subject-09,1,840,0.839691877365112,bird,bird,0,0840_s5n_s09_0_bird_00_bird9-elephant2.png
subject-09,1,841,0.448864936828613,cat,cat,0,0841_s5n_s09_0_cat_00_cat5-boat1.png
subject-09,1,842,0.562832117080688,bicycle,bicycle,0,0842_s5n_s09_0_bicycle_00_bicycle10-airplane2.png
subject-09,1,843,0.832589864730835,car,car,0,0843_s5n_s09_0_car_00_car4-elephant3.png
subject-09,1,844,0.548963069915771,knife,knife,0,0844_s5n_s09_0_knife_00_knife5-clock1.png
subject-09,1,845,0.581721067428589,car,car,0,0845_s5n_s09_0_car_00_car10-bottle3.png
subject-09,1,846,0.741255044937134,chair,chair,0,0846_s5n_s09_0_chair_00_chair7-boat3.png
subject-09,1,847,1.37380194664001,elephant,elephant,0,0847_s5n_s09_0_elephant_00_elephant6-oven1.png
subject-09,1,848,0.778759956359863,airplane,airplane,0,0848_s5n_s09_0_airplane_00_airplane3-cat1.png
subject-09,1,849,0.37297797203064,clock,clock,0,0849_s5n_s09_0_clock_00_clock10-oven2.png
subject-09,1,850,0.726764917373657,keyboard,keyboard,0,0850_s5n_s09_0_keyboard_00_keyboard6-bottle2.png
subject-09,1,851,1.19421100616455,chair,chair,0,0851_s5n_s09_0_chair_00_chair10-bird3.png
subject-09,1,852,0.426018953323364,boat,boat,0,0852_s5n_s09_0_boat_00_boat9-cat3.png
subject-09,1,853,0.648412942886353,knife,knife,0,0853_s5n_s09_0_knife_00_knife10-dog1.png
subject-09,1,854,0.387791156768799,cat,cat,0,0854_s5n_s09_0_cat_00_cat7-bottle1.png
subject-09,1,855,1.16371989250183,keyboard,keyboard,0,0855_s5n_s09_0_keyboard_00_keyboard5-bottle1.png
subject-09,1,856,0.893396139144897,bear,elephant,0,0856_s5n_s09_0_elephant_00_elephant4-bird1.png
subject-09,1,857,0.433032035827637,cat,cat,0,0857_s5n_s09_0_cat_00_cat2-elephant1.png
subject-09,1,858,0.40463399887085,clock,clock,0,0858_s5n_s09_0_clock_00_clock5-keyboard1.png
subject-09,1,859,0.821616888046265,keyboard,keyboard,0,0859_s5n_s09_0_keyboard_00_keyboard10-oven3.png
subject-09,1,860,0.691307067871094,chair,chair,0,0860_s5n_s09_0_chair_00_chair5-cat3.png
subject-09,1,861,0.974212884902954,dog,bird,0,0861_s5n_s09_0_bird_00_bird1-knife3.png
subject-09,1,862,0.665701150894165,car,car,0,0862_s5n_s09_0_car_00_car1-dog2.png
subject-09,1,863,0.966447114944458,bird,bird,0,0863_s5n_s09_0_bird_00_bird2-clock3.png
subject-09,1,864,0.650059938430786,truck,truck,0,0864_s5n_s09_0_truck_00_truck5-airplane2.png
subject-09,1,865,0.514294147491455,clock,clock,0,0865_s5n_s09_0_clock_00_clock4-bottle3.png
subject-09,1,866,0.390460968017578,cat,cat,0,0866_s5n_s09_0_cat_00_cat3-cat1.png
subject-09,1,867,0.552559852600098,keyboard,keyboard,0,0867_s5n_s09_0_keyboard_00_keyboard4-bottle2.png
subject-09,1,868,0.644281148910522,dog,dog,0,0868_s5n_s09_0_dog_00_dog1-airplane3.png
subject-09,1,869,0.606299877166748,keyboard,keyboard,0,0869_s5n_s09_0_keyboard_00_keyboard1-bear2.png
subject-09,1,870,0.692185163497925,dog,dog,0,0870_s5n_s09_0_dog_00_dog3-clock1.png
subject-09,1,871,1.01389217376709,oven,cat,0,0871_s5n_s09_0_cat_00_cat10-bottle1.png
subject-09,1,872,0.459836006164551,boat,boat,0,0872_s5n_s09_0_boat_00_boat9-bird1.png
subject-09,1,873,0.521443128585815,dog,dog,0,0873_s5n_s09_0_dog_00_dog5-elephant1.png
subject-09,1,874,0.645412921905518,keyboard,keyboard,0,0874_s5n_s09_0_keyboard_00_keyboard8-oven1.png
subject-09,1,875,0.507323026657104,bottle,bottle,0,0875_s5n_s09_0_bottle_00_bottle3-cat3.png
subject-09,1,876,0.470101118087769,car,car,0,0876_s5n_s09_0_car_00_car2-car3.png
subject-09,1,877,0.423828125,bottle,bottle,0,0877_s5n_s09_0_bottle_00_bottle7-keyboard2.png
subject-09,1,878,0.831318140029907,truck,truck,0,0878_s5n_s09_0_truck_00_truck1-bear1.png
subject-09,1,879,0.701027154922485,boat,bird,0,0879_s5n_s09_0_bird_00_bird7-car2.png
subject-09,1,880,0.522547960281372,oven,oven,0,0880_s5n_s09_0_oven_00_oven9-bear2.png
subject-09,1,881,0.305437088012695,keyboard,keyboard,0,0881_s5n_s09_0_keyboard_00_keyboard5-knife2.png
subject-09,1,882,0.529240846633911,bicycle,bicycle,0,0882_s5n_s09_0_bicycle_00_bicycle2-keyboard2.png
subject-09,1,883,0.373012065887451,chair,chair,0,0883_s5n_s09_0_chair_00_chair3-airplane2.png
subject-09,1,884,0.419596910476685,knife,knife,0,0884_s5n_s09_0_knife_00_knife4-cat2.png
subject-09,1,885,0.479552984237671,bottle,bottle,0,0885_s5n_s09_0_bottle_00_bottle8-dog2.png
subject-09,1,886,0.449331998825073,cat,cat,0,0886_s5n_s09_0_cat_00_cat8-car2.png
subject-09,1,887,0.827472925186157,bird,cat,0,0887_s5n_s09_0_cat_00_cat4-car2.png
subject-09,1,888,0.743459939956665,bird,bird,0,0888_s5n_s09_0_bird_00_bird1-bicycle2.png
subject-09,1,889,0.943461179733276,boat,boat,0,0889_s5n_s09_0_boat_00_boat4-elephant2.png
subject-09,1,890,0.605053901672363,bear,bear,0,0890_s5n_s09_0_bear_00_bear1-elephant1.png
subject-09,1,891,0.389285802841187,bottle,bottle,0,0891_s5n_s09_0_bottle_00_bottle9-car3.png
subject-09,1,892,0.451678991317749,bottle,bottle,0,0892_s5n_s09_0_bottle_00_bottle2-knife3.png
subject-09,1,893,0.429043054580688,clock,clock,0,0893_s5n_s09_0_clock_00_clock2-bicycle1.png
subject-09,1,894,0.77466893196106,truck,car,0,0894_s5n_s09_0_car_00_car5-bear3.png
subject-09,1,895,0.466958999633789,airplane,airplane,0,0895_s5n_s09_0_airplane_00_airplane6-chair3.png
subject-09,1,896,1.15865302085876,oven,oven,0,0896_s5n_s09_0_oven_00_oven2-chair1.png
subject-09,1,897,0.423019170761108,oven,oven,0,0897_s5n_s09_0_oven_00_oven3-truck1.png
subject-09,1,898,0.848186016082764,knife,knife,0,0898_s5n_s09_0_knife_00_knife2-elephant2.png
subject-09,1,899,0.684937953948975,knife,knife,0,0899_s5n_s09_0_knife_00_knife2-car3.png
subject-09,1,900,0.539416074752808,cat,cat,0,0900_s5n_s09_0_cat_00_cat9-bird3.png
subject-09,1,901,0.655014038085938,bicycle,bicycle,0,0901_s5n_s09_0_bicycle_00_bicycle6-dog2.png
subject-09,1,902,1.47201609611511,bottle,dog,0,0902_s5n_s09_0_dog_00_dog3-truck2.png
subject-09,1,903,1.00976514816284,car,car,0,0903_s5n_s09_0_car_00_car4-oven2.png
subject-09,1,904,0.4584059715271,dog,dog,0,0904_s5n_s09_0_dog_00_dog10-dog1.png
subject-09,1,905,1.25014710426331,knife,knife,0,0905_s5n_s09_0_knife_00_knife9-bottle2.png
subject-09,1,906,0.565376043319702,knife,knife,0,0906_s5n_s09_0_knife_00_knife6-clock2.png
subject-09,1,907,0.58782696723938,car,car,0,0907_s5n_s09_0_car_00_car8-truck3.png
subject-09,1,908,0.49009895324707,airplane,airplane,0,0908_s5n_s09_0_airplane_00_airplane5-bear2.png
subject-09,1,909,1.08653020858765,elephant,elephant,0,0909_s5n_s09_0_elephant_00_elephant8-oven3.png
subject-09,1,910,0.439853191375732,elephant,elephant,0,0910_s5n_s09_0_elephant_00_elephant8-dog1.png
subject-09,1,911,0.547115802764893,bicycle,bicycle,0,0911_s5n_s09_0_bicycle_00_bicycle4-boat1.png
subject-09,1,912,0.661100149154663,car,car,0,0912_s5n_s09_0_car_00_car9-clock2.png
subject-09,1,913,1.36058306694031,boat,dog,0,0913_s5n_s09_0_dog_00_dog9-car1.png
subject-09,1,914,0.522991180419922,airplane,airplane,0,0914_s5n_s09_0_airplane_00_airplane4-airplane1.png
subject-09,1,915,0.51689887046814,bird,bird,0,0915_s5n_s09_0_bird_00_bird9-bear3.png
subject-09,1,916,0.539209127426147,cat,cat,0,0916_s5n_s09_0_cat_00_cat1-bird1.png
subject-09,1,917,1.1550600528717,knife,knife,0,0917_s5n_s09_0_knife_00_knife9-airplane2.png
subject-09,1,918,0.529880046844482,clock,clock,0,0918_s5n_s09_0_clock_00_clock7-truck3.png
subject-09,1,919,0.615761041641235,chair,bottle,0,0919_s5n_s09_0_bottle_00_bottle7-truck2.png
subject-09,1,920,0.662080049514771,car,car,0,0920_s5n_s09_0_car_00_car1-oven3.png
subject-09,1,921,0.515471935272217,bottle,bottle,0,0921_s5n_s09_0_bottle_00_bottle3-bottle3.png
subject-09,1,922,0.515383005142212,oven,oven,0,0922_s5n_s09_0_oven_00_oven3-airplane1.png
subject-09,1,923,0.752554893493652,car,car,0,0923_s5n_s09_0_car_00_car6-bear1.png
subject-09,1,924,0.80653715133667,airplane,airplane,0,0924_s5n_s09_0_airplane_00_airplane6-keyboard3.png
subject-09,1,925,0.646818161010742,dog,dog,0,0925_s5n_s09_0_dog_00_dog10-elephant1.png
subject-09,1,926,0.930593967437744,knife,keyboard,0,0926_s5n_s09_0_keyboard_00_keyboard2-knife1.png
subject-09,1,927,0.492020845413208,car,car,0,0927_s5n_s09_0_car_00_car6-knife1.png
subject-09,1,928,0.851110935211182,bicycle,bicycle,0,0928_s5n_s09_0_bicycle_00_bicycle10-elephant2.png
subject-09,1,929,0.690636157989502,chair,chair,0,0929_s5n_s09_0_chair_00_chair9-dog2.png
subject-09,1,930,0.628481864929199,bird,bird,0,0930_s5n_s09_0_bird_00_bird5-dog2.png
subject-09,1,931,0.415380954742432,chair,chair,0,0931_s5n_s09_0_chair_00_chair7-bottle1.png
subject-09,1,932,0.552824974060059,bicycle,bicycle,0,0932_s5n_s09_0_bicycle_00_bicycle7-oven1.png
subject-09,1,933,1.26754903793335,dog,dog,0,0933_s5n_s09_0_dog_00_dog5-car3.png
subject-09,1,934,0.460567951202393,chair,chair,0,0934_s5n_s09_0_chair_00_chair8-elephant1.png
subject-09,1,935,0.814822912216187,bear,elephant,0,0935_s5n_s09_0_elephant_00_elephant6-bottle2.png
subject-09,1,936,0.638956069946289,oven,oven,0,0936_s5n_s09_0_oven_00_oven4-elephant3.png
subject-09,1,937,0.623296022415161,elephant,elephant,0,0937_s5n_s09_0_elephant_00_elephant2-airplane3.png
subject-09,1,938,0.977061986923218,keyboard,keyboard,0,0938_s5n_s09_0_keyboard_00_keyboard6-boat2.png
subject-09,1,939,0.546535015106201,boat,boat,0,0939_s5n_s09_0_boat_00_boat9-keyboard2.png
subject-09,1,940,1.2866690158844,boat,boat,0,0940_s5n_s09_0_boat_00_boat10-cat1.png
subject-09,1,941,0.562734842300415,car,car,0,0941_s5n_s09_0_car_00_car3-truck1.png
subject-09,1,942,0.724256038665771,elephant,elephant,0,0942_s5n_s09_0_elephant_00_elephant3-cat2.png
subject-09,1,943,0.394499063491821,bottle,bottle,0,0943_s5n_s09_0_bottle_00_bottle2-bottle3.png
subject-09,1,944,0.43182110786438,oven,oven,0,0944_s5n_s09_0_oven_00_oven2-car1.png
subject-09,1,945,1.04539895057678,dog,dog,0,0945_s5n_s09_0_dog_00_dog1-cat3.png
subject-09,1,946,0.723973989486694,dog,dog,0,0946_s5n_s09_0_dog_00_dog7-knife3.png
subject-09,1,947,0.707109928131104,elephant,elephant,0,0947_s5n_s09_0_elephant_00_elephant1-bear2.png
subject-09,1,948,0.727626800537109,boat,boat,0,0948_s5n_s09_0_boat_00_boat2-bird1.png
subject-09,1,949,0.475672006607056,oven,oven,0,0949_s5n_s09_0_oven_00_oven2-bicycle1.png
subject-09,1,950,0.81827187538147,bear,bear,0,0950_s5n_s09_0_bear_00_bear8-airplane1.png
subject-09,1,951,0.563920974731445,bottle,bottle,0,0951_s5n_s09_0_bottle_00_bottle6-oven3.png
subject-09,1,952,0.347147941589355,clock,clock,0,0952_s5n_s09_0_clock_00_clock4-bird3.png
subject-09,1,953,0.941566944122314,bicycle,bicycle,0,0953_s5n_s09_0_bicycle_00_bicycle3-elephant2.png
subject-09,1,954,0.416729927062988,airplane,airplane,0,0954_s5n_s09_0_airplane_00_airplane4-elephant1.png
subject-09,1,955,1.32553815841675,boat,knife,0,0955_s5n_s09_0_knife_00_knife6-chair3.png
subject-09,1,956,0.399996042251587,chair,chair,0,0956_s5n_s09_0_chair_00_chair3-bicycle3.png
subject-09,1,957,0.65592885017395,keyboard,keyboard,0,0957_s5n_s09_0_keyboard_00_keyboard7-dog1.png
subject-09,1,958,0.56139087677002,boat,boat,0,0958_s5n_s09_0_boat_00_boat8-bottle1.png
subject-09,1,959,0.668713092803955,bicycle,bicycle,0,0959_s5n_s09_0_bicycle_00_bicycle1-chair1.png
subject-09,1,960,1.12278509140015,car,car,0,0960_s5n_s09_0_car_00_car3-bottle3.png
subject-09,1,961,0.384177923202515,bottle,bottle,0,0961_s5n_s09_0_bottle_00_bottle1-chair2.png
subject-09,1,962,0.352090120315552,bottle,bottle,0,0962_s5n_s09_0_bottle_00_bottle5-knife1.png
subject-09,1,963,0.568500995635986,clock,clock,0,0963_s5n_s09_0_clock_00_clock4-knife1.png
subject-09,1,964,0.87280011177063,dog,dog,0,0964_s5n_s09_0_dog_00_dog4-bicycle1.png
subject-09,1,965,0.482820987701416,car,car,0,0965_s5n_s09_0_car_00_car6-chair3.png
subject-09,1,966,0.91248607635498,bicycle,bicycle,0,0966_s5n_s09_0_bicycle_00_bicycle5-cat1.png
subject-09,1,967,0.749566078186035,knife,knife,0,0967_s5n_s09_0_knife_00_knife6-knife1.png
subject-09,1,968,0.403884172439575,chair,chair,0,0968_s5n_s09_0_chair_00_chair10-bottle3.png
subject-09,1,969,1.21230316162109,chair,chair,0,0969_s5n_s09_0_chair_00_chair9-keyboard2.png
subject-09,1,970,1.01208305358887,truck,truck,0,0970_s5n_s09_0_truck_00_truck2-bottle3.png
subject-09,1,971,1.00628185272217,elephant,elephant,0,0971_s5n_s09_0_elephant_00_elephant2-boat1.png
subject-09,1,972,1.42786598205566,truck,truck,0,0972_s5n_s09_0_truck_00_truck7-bear2.png
subject-09,1,973,0.789958953857422,oven,oven,0,0973_s5n_s09_0_oven_00_oven9-bird3.png
subject-09,1,974,0.389931201934814,boat,boat,0,0974_s5n_s09_0_boat_00_boat4-knife2.png
subject-09,1,975,0.813166856765747,bird,cat,0,0975_s5n_s09_0_cat_00_cat4-keyboard2.png
subject-09,1,976,0.518502950668335,keyboard,keyboard,0,0976_s5n_s09_0_keyboard_00_keyboard6-dog2.png
subject-09,1,977,0.420167922973633,keyboard,keyboard,0,0977_s5n_s09_0_keyboard_00_keyboard8-truck3.png
subject-09,1,978,0.576138019561768,airplane,airplane,0,0978_s5n_s09_0_airplane_00_airplane7-keyboard1.png
subject-09,1,979,0.423922061920166,airplane,airplane,0,0979_s5n_s09_0_airplane_00_airplane3-clock1.png
subject-09,1,980,0.615999937057495,truck,truck,0,0980_s5n_s09_0_truck_00_truck7-chair2.png
subject-09,1,981,0.931348085403442,cat,cat,0,0981_s5n_s09_0_cat_00_cat3-oven2.png
subject-09,1,982,0.531925916671753,bear,bear,0,0982_s5n_s09_0_bear_00_bear10-knife2.png
subject-09,1,983,0.580384016036987,bicycle,bicycle,0,0983_s5n_s09_0_bicycle_00_bicycle6-airplane2.png
subject-09,1,984,0.588546991348267,car,car,0,0984_s5n_s09_0_car_00_car3-airplane3.png
subject-09,1,985,0.564712047576904,bear,bear,0,0985_s5n_s09_0_bear_00_bear4-car3.png
subject-09,1,986,0.496786832809448,car,car,0,0986_s5n_s09_0_car_00_car10-keyboard2.png
subject-09,1,987,1.17567920684814,airplane,airplane,0,0987_s5n_s09_0_airplane_00_airplane4-car1.png
subject-09,1,988,0.805136919021606,bird,bird,0,0988_s5n_s09_0_bird_00_bird5-bicycle1.png
subject-09,1,989,0.582905054092407,keyboard,keyboard,0,0989_s5n_s09_0_keyboard_00_keyboard1-bird2.png
subject-09,1,990,0.853953123092651,keyboard,oven,0,0990_s5n_s09_0_oven_00_oven8-keyboard3.png
subject-09,1,991,0.562390089035034,bear,bear,0,0991_s5n_s09_0_bear_00_bear6-bear1.png
subject-09,1,992,0.561779022216797,clock,clock,0,0992_s5n_s09_0_clock_00_clock8-truck2.png
subject-09,1,993,0.783066987991333,dog,dog,0,0993_s5n_s09_0_dog_00_dog1-chair1.png
subject-09,1,994,0.653478145599365,oven,oven,0,0994_s5n_s09_0_oven_00_oven3-clock3.png
subject-09,1,995,0.437150955200195,bear,bear,0,0995_s5n_s09_0_bear_00_bear7-clock1.png
subject-09,1,996,0.676521062850952,car,car,0,0996_s5n_s09_0_car_00_car9-keyboard2.png
subject-09,1,997,0.430732011795044,bird,bird,0,0997_s5n_s09_0_bird_00_bird9-bottle3.png
subject-09,1,998,0.801360130310059,truck,truck,0,0998_s5n_s09_0_truck_00_truck8-cat2.png
subject-09,1,999,0.969259977340698,car,car,0,0999_s5n_s09_0_car_00_car5-oven2.png
subject-09,1,1000,0.431470155715942,bicycle,bicycle,0,1000_s5n_s09_0_bicycle_00_bicycle4-airplane1.png
subject-09,1,1001,0.533628940582275,truck,truck,0,1001_s5n_s09_0_truck_00_truck9-truck3.png
subject-09,1,1002,0.501902103424072,bottle,bottle,0,1002_s5n_s09_0_bottle_00_bottle7-airplane3.png
subject-09,1,1003,0.59601616859436,bird,bird,0,1003_s5n_s09_0_bird_00_bird1-elephant2.png
subject-09,1,1004,0.871523141860962,elephant,elephant,0,1004_s5n_s09_0_elephant_00_elephant7-cat1.png
subject-09,1,1005,0.478692054748535,knife,knife,0,1005_s5n_s09_0_knife_00_knife4-knife2.png
subject-09,1,1006,1.23778581619263,bottle,bottle,0,1006_s5n_s09_0_bottle_00_bottle4-oven2.png
subject-09,1,1007,0.503098964691162,clock,clock,0,1007_s5n_s09_0_clock_00_clock10-dog3.png
subject-09,1,1008,0.910890102386475,bicycle,bicycle,0,1008_s5n_s09_0_bicycle_00_bicycle9-bird3.png
subject-09,1,1009,0.556029081344604,knife,knife,0,1009_s5n_s09_0_knife_00_knife5-knife3.png
subject-09,1,1010,0.4308021068573,bicycle,bicycle,0,1010_s5n_s09_0_bicycle_00_bicycle1-airplane2.png
subject-09,1,1011,0.946319103240967,car,car,0,1011_s5n_s09_0_car_00_car4-bird1.png
subject-09,1,1012,0.73845386505127,chair,chair,0,1012_s5n_s09_0_chair_00_chair9-chair3.png
subject-09,1,1013,0.599666118621826,truck,truck,0,1013_s5n_s09_0_truck_00_truck4-boat3.png
subject-09,1,1014,0.591999053955078,bird,bird,0,1014_s5n_s09_0_bird_00_bird7-bird2.png
subject-09,1,1015,0.569108963012695,bird,bird,0,1015_s5n_s09_0_bird_00_bird8-clock1.png
subject-09,1,1016,0.929609060287476,elephant,elephant,0,1016_s5n_s09_0_elephant_00_elephant7-dog1.png
subject-09,1,1017,0.899589061737061,bottle,bottle,0,1017_s5n_s09_0_bottle_00_bottle10-truck3.png
subject-09,1,1018,1.0074450969696,bird,bird,0,1018_s5n_s09_0_bird_00_bird6-boat2.png
subject-09,1,1019,0.577025175094604,dog,dog,0,1019_s5n_s09_0_dog_00_dog8-clock2.png
subject-09,1,1020,0.62335991859436,oven,oven,0,1020_s5n_s09_0_oven_00_oven4-car1.png
subject-09,1,1021,1.12351107597351,dog,dog,0,1021_s5n_s09_0_dog_00_dog9-bottle1.png
subject-09,1,1022,0.79349684715271,truck,truck,0,1022_s5n_s09_0_truck_00_truck9-airplane2.png
subject-09,1,1023,0.500483989715576,car,car,0,1023_s5n_s09_0_car_00_car3-boat1.png
subject-09,1,1024,0.446310043334961,boat,boat,0,1024_s5n_s09_0_boat_00_boat1-elephant3.png
subject-09,1,1025,0.451494932174683,oven,oven,0,1025_s5n_s09_0_oven_00_oven5-bicycle1.png
subject-09,1,1026,0.981307029724121,airplane,airplane,0,1026_s5n_s09_0_airplane_00_airplane5-dog3.png
subject-09,1,1027,0.488131999969482,boat,boat,0,1027_s5n_s09_0_boat_00_boat1-keyboard3.png
subject-09,1,1028,0.280078887939453,boat,boat,0,1028_s5n_s09_0_boat_00_boat8-bird2.png
subject-09,1,1029,0.695374011993408,bicycle,bicycle,0,1029_s5n_s09_0_bicycle_00_bicycle6-bicycle3.png
subject-09,1,1030,0.264908075332642,bottle,bottle,0,1030_s5n_s09_0_bottle_00_bottle4-car3.png
subject-09,1,1031,0.840479850769043,dog,dog,0,1031_s5n_s09_0_dog_00_dog9-airplane3.png
subject-09,1,1032,0.602504968643188,elephant,elephant,0,1032_s5n_s09_0_elephant_00_elephant7-bear3.png
subject-09,1,1033,0.473115921020508,chair,chair,0,1033_s5n_s09_0_chair_00_chair9-bear1.png
subject-09,1,1034,0.471810102462769,airplane,airplane,0,1034_s5n_s09_0_airplane_00_airplane10-truck1.png
subject-09,1,1035,0.480245113372803,oven,oven,0,1035_s5n_s09_0_oven_00_oven6-truck1.png
subject-09,1,1036,0.663686037063599,keyboard,keyboard,0,1036_s5n_s09_0_keyboard_00_keyboard5-bird3.png
subject-09,1,1037,1.001797914505,bicycle,bicycle,0,1037_s5n_s09_0_bicycle_00_bicycle5-dog2.png
subject-09,1,1038,0.639461994171143,truck,truck,0,1038_s5n_s09_0_truck_00_truck2-bird2.png
subject-09,1,1039,1.03078389167786,bottle,bottle,0,1039_s5n_s09_0_bottle_00_bottle10-dog1.png
subject-09,1,1040,0.638426065444946,oven,oven,0,1040_s5n_s09_0_oven_00_oven4-truck3.png
subject-09,1,1041,0.878562927246094,bird,bird,0,1041_s5n_s09_0_bird_00_bird1-airplane2.png
subject-09,1,1042,0.608684062957764,bird,bird,0,1042_s5n_s09_0_bird_00_bird9-chair1.png
subject-09,1,1043,0.586665868759155,bicycle,bicycle,0,1043_s5n_s09_0_bicycle_00_bicycle9-knife3.png
subject-09,1,1044,0.732141017913818,bear,bear,0,1044_s5n_s09_0_bear_00_bear4-keyboard3.png
subject-09,1,1045,0.370373964309692,clock,clock,0,1045_s5n_s09_0_clock_00_clock6-knife2.png
subject-09,1,1046,1.50035500526428,bear,dog,0,1046_s5n_s09_0_dog_00_dog8-keyboard3.png
subject-09,1,1047,0.893018960952759,bicycle,bicycle,0,1047_s5n_s09_0_bicycle_00_bicycle1-truck1.png
subject-09,1,1048,0.385105848312378,bicycle,bicycle,0,1048_s5n_s09_0_bicycle_00_bicycle5-bear1.png
subject-09,1,1049,0.901304006576538,cat,boat,0,1049_s5n_s09_0_boat_00_boat7-clock3.png
subject-09,1,1050,0.393250942230225,oven,oven,0,1050_s5n_s09_0_oven_00_oven10-truck2.png
subject-09,1,1051,0.984495878219604,dog,dog,0,1051_s5n_s09_0_dog_00_dog3-elephant2.png
subject-09,1,1052,0.762144804000854,chair,chair,0,1052_s5n_s09_0_chair_00_chair5-keyboard2.png
subject-09,1,1053,1.12202191352844,bird,boat,0,1053_s5n_s09_0_boat_00_boat7-chair1.png
subject-09,1,1054,0.575133800506592,car,car,0,1054_s5n_s09_0_car_00_car5-knife2.png
subject-09,1,1055,0.591702938079834,keyboard,keyboard,0,1055_s5n_s09_0_keyboard_00_keyboard5-bear3.png
subject-09,1,1056,1.07750487327576,dog,dog,0,1056_s5n_s09_0_dog_00_dog8-bear3.png
subject-09,1,1057,0.335324048995972,clock,clock,0,1057_s5n_s09_0_clock_00_clock3-cat1.png
subject-09,1,1058,0.418954133987427,oven,oven,0,1058_s5n_s09_0_oven_00_oven6-oven3.png
subject-09,1,1059,0.551036834716797,car,car,0,1059_s5n_s09_0_car_00_car10-elephant2.png
subject-09,1,1060,0.718309879302979,cat,boat,0,1060_s5n_s09_0_boat_00_boat5-boat3.png
subject-09,1,1061,0.343146085739136,oven,oven,0,1061_s5n_s09_0_oven_00_oven4-dog1.png
subject-09,1,1062,0.737275123596191,bear,elephant,0,1062_s5n_s09_0_elephant_00_elephant8-clock2.png
subject-09,1,1063,0.907886981964111,truck,truck,0,1063_s5n_s09_0_truck_00_truck10-elephant3.png
subject-09,1,1064,0.829351902008057,knife,knife,0,1064_s5n_s09_0_knife_00_knife7-airplane3.png
subject-09,1,1065,0.969260931015015,clock,clock,0,1065_s5n_s09_0_clock_00_clock2-bottle3.png
subject-09,1,1066,0.76167106628418,truck,truck,0,1066_s5n_s09_0_truck_00_truck6-clock2.png
subject-09,1,1067,1.50007915496826,elephant,elephant,0,1067_s5n_s09_0_elephant_00_elephant3-keyboard2.png
subject-09,1,1068,0.694128036499023,truck,truck,0,1068_s5n_s09_0_truck_00_truck3-clock3.png
subject-09,1,1069,0.539993047714233,bear,bear,0,1069_s5n_s09_0_bear_00_bear10-truck1.png
subject-09,1,1070,1.32305312156677,chair,airplane,0,1070_s5n_s09_0_airplane_00_airplane10-car3.png
subject-09,1,1071,0.592455148696899,truck,oven,0,1071_s5n_s09_0_oven_00_oven7-keyboard1.png
subject-09,1,1072,0.545763969421387,car,car,0,1072_s5n_s09_0_car_00_car10-chair1.png
subject-09,1,1073,0.530488014221191,boat,boat,0,1073_s5n_s09_0_boat_00_boat2-airplane1.png
subject-09,1,1074,1.04631209373474,bear,bear,0,1074_s5n_s09_0_bear_00_bear6-bird2.png
subject-09,1,1075,1.28372311592102,dog,dog,0,1075_s5n_s09_0_dog_00_dog2-knife3.png
subject-09,1,1076,0.978307008743286,bicycle,bicycle,0,1076_s5n_s09_0_bicycle_00_bicycle4-cat1.png
subject-09,1,1077,1.14555096626282,cat,bird,0,1077_s5n_s09_0_bird_00_bird2-knife1.png
subject-09,1,1078,0.39331316947937,clock,clock,0,1078_s5n_s09_0_clock_00_clock3-car2.png
subject-09,1,1079,0.426192998886108,airplane,airplane,0,1079_s5n_s09_0_airplane_00_airplane9-car2.png
subject-09,1,1080,0.430992126464844,bird,bird,0,1080_s5n_s09_0_bird_00_bird10-clock1.png
subject-09,1,1081,0.733419895172119,car,car,0,1081_s5n_s09_0_car_00_car3-bird2.png
subject-09,1,1082,0.447657108306885,cat,cat,0,1082_s5n_s09_0_cat_00_cat4-dog3.png
subject-09,1,1083,0.692869901657104,dog,dog,0,1083_s5n_s09_0_dog_00_dog10-keyboard2.png
subject-09,1,1084,1.21689796447754,bear,bear,0,1084_s5n_s09_0_bear_00_bear10-bottle1.png
subject-09,1,1085,0.349720001220703,bottle,bottle,0,1085_s5n_s09_0_bottle_00_bottle8-bicycle1.png
subject-09,1,1086,0.387259960174561,clock,clock,0,1086_s5n_s09_0_clock_00_clock4-airplane1.png
subject-09,1,1087,0.589537143707275,bicycle,bicycle,0,1087_s5n_s09_0_bicycle_00_bicycle4-bottle1.png
subject-09,1,1088,0.55771803855896,bottle,bottle,0,1088_s5n_s09_0_bottle_00_bottle8-bottle3.png
subject-09,1,1089,0.613777875900269,bear,bear,0,1089_s5n_s09_0_bear_00_bear5-airplane3.png
subject-09,1,1090,1.14419889450073,knife,knife,0,1090_s5n_s09_0_knife_00_knife5-bicycle2.png
subject-09,1,1091,0.629692792892456,bottle,bottle,0,1091_s5n_s09_0_bottle_00_bottle7-oven2.png
subject-09,1,1092,0.389145135879517,cat,cat,0,1092_s5n_s09_0_cat_00_cat5-airplane2.png
subject-09,1,1093,0.458546161651611,bicycle,bicycle,0,1093_s5n_s09_0_bicycle_00_bicycle1-bird1.png
