subj,session,trial,rt,object_response,category,condition,imagename
subject-06,1,1,1.32128190994263,bird,cat,0,0001_s5n_s06_0_cat_00_cat3-elephant2.png
subject-06,1,2,1.46937298774719,boat,boat,0,0002_s5n_s06_0_boat_00_boat7-elephant3.png
subject-06,1,3,1.16898798942566,cat,cat,0,0003_s5n_s06_0_cat_00_cat7-knife2.png
subject-06,1,4,0.7760910987854,dog,dog,0,0004_s5n_s06_0_dog_00_dog10-airplane1.png
subject-06,1,5,0.947626829147339,oven,boat,0,0005_s5n_s06_0_boat_00_boat3-keyboard2.png
subject-06,1,6,0.793107986450195,keyboard,knife,0,0006_s5n_s06_0_knife_00_knife2-bottle2.png
subject-06,1,7,0.970710039138794,airplane,cat,0,0007_s5n_s06_0_cat_00_cat4-oven1.png
subject-06,1,8,1.00206995010376,bottle,bottle,0,0008_s5n_s06_0_bottle_00_bottle7-clock1.png
subject-06,1,9,0.925171136856079,bottle,bottle,0,0009_s5n_s06_0_bottle_00_bottle7-bear1.png
subject-06,1,10,0.794543981552124,car,car,0,0010_s5n_s06_0_car_00_car7-airplane2.png
subject-06,1,11,0.634506940841675,chair,chair,0,0011_s5n_s06_0_chair_00_chair10-clock1.png
subject-06,1,12,0.791721820831299,airplane,airplane,0,0012_s5n_s06_0_airplane_00_airplane5-chair3.png
subject-06,1,13,1.39987993240356,bird,bird,0,0013_s5n_s06_0_bird_00_bird6-elephant2.png
subject-06,1,14,0.717418909072876,oven,bicycle,0,0014_s5n_s06_0_bicycle_00_bicycle4-keyboard3.png
subject-06,1,15,1.50040411949158,chair,truck,0,0015_s5n_s06_0_truck_00_truck3-bear3.png
subject-06,1,16,0.80792498588562,cat,cat,0,0016_s5n_s06_0_cat_00_cat1-chair2.png
subject-06,1,17,0.785794973373413,dog,airplane,0,0017_s5n_s06_0_airplane_00_airplane4-bear3.png
subject-06,1,18,0.78259801864624,bear,bear,0,0018_s5n_s06_0_bear_00_bear4-oven2.png
subject-06,1,19,1.03617906570435,car,car,0,0019_s5n_s06_0_car_00_car6-truck3.png
subject-06,1,20,1.25127911567688,dog,dog,0,0020_s5n_s06_0_dog_00_dog10-dog1.png
subject-06,1,21,0.867192029953003,cat,knife,0,0021_s5n_s06_0_knife_00_knife7-boat3.png
subject-06,1,22,1.01472115516663,elephant,elephant,0,0022_s5n_s06_0_elephant_00_elephant2-boat1.png
subject-06,1,23,0.776056051254272,car,car,0,0023_s5n_s06_0_car_00_car7-keyboard3.png
subject-06,1,24,1.06147813796997,cat,cat,0,0024_s5n_s06_0_cat_00_cat1-dog1.png
subject-06,1,25,0.931226968765259,truck,truck,0,0025_s5n_s06_0_truck_00_truck10-clock1.png
subject-06,1,26,1.11447310447693,cat,cat,0,0026_s5n_s06_0_cat_00_cat2-car3.png
subject-06,1,27,1.10820412635803,car,airplane,0,0027_s5n_s06_0_airplane_00_airplane8-chair1.png
subject-06,1,28,0.964627981185913,bird,knife,0,0028_s5n_s06_0_knife_00_knife1-airplane1.png
subject-06,1,29,1.26628613471985,truck,truck,0,0029_s5n_s06_0_truck_00_truck5-bird2.png
subject-06,1,30,0.874258041381836,boat,boat,0,0030_s5n_s06_0_boat_00_boat8-dog3.png
subject-06,1,31,0.792042970657349,elephant,elephant,0,0031_s5n_s06_0_elephant_00_elephant6-bicycle1.png
subject-06,1,32,1.43765997886658,bear,bear,0,0032_s5n_s06_0_bear_00_bear10-cat2.png
subject-06,1,33,1.02265501022339,truck,truck,0,0033_s5n_s06_0_truck_00_truck8-bottle2.png
subject-06,1,34,0.892253875732422,car,boat,0,0034_s5n_s06_0_boat_00_boat4-bird1.png
subject-06,1,35,0.723716020584106,chair,chair,0,0035_s5n_s06_0_chair_00_chair7-bird1.png
subject-06,1,36,0.660946846008301,elephant,elephant,0,0036_s5n_s06_0_elephant_00_elephant5-bear2.png
subject-06,1,37,0.949229955673218,bottle,bottle,0,0037_s5n_s06_0_bottle_00_bottle3-cat3.png
subject-06,1,38,1.30285000801086,airplane,knife,0,0038_s5n_s06_0_knife_00_knife7-airplane3.png
subject-06,1,39,0.642263889312744,clock,clock,0,0039_s5n_s06_0_clock_00_clock4-chair1.png
subject-06,1,40,0.766123056411743,boat,knife,0,0040_s5n_s06_0_knife_00_knife2-cat3.png
subject-06,1,41,0.766125917434692,car,boat,0,0041_s5n_s06_0_boat_00_boat8-truck2.png
subject-06,1,42,1.0050630569458,clock,clock,0,0042_s5n_s06_0_clock_00_clock10-dog3.png
subject-06,1,43,1.22885680198669,bird,bird,0,0043_s5n_s06_0_bird_00_bird6-oven1.png
subject-06,1,44,0.714928150177002,clock,clock,0,0044_s5n_s06_0_clock_00_clock6-car2.png
subject-06,1,45,0.583654165267944,bottle,bottle,0,0045_s5n_s06_0_bottle_00_bottle10-bear2.png
subject-06,1,46,NaN,na,car,0,0046_s5n_s06_0_car_00_car1-car2.png
subject-06,1,47,0.920106887817383,cat,boat,0,0047_s5n_s06_0_boat_00_boat6-dog1.png
subject-06,1,48,0.706051826477051,car,keyboard,0,0048_s5n_s06_0_keyboard_00_keyboard10-car1.png
subject-06,1,49,0.905057907104492,bicycle,bicycle,0,0049_s5n_s06_0_bicycle_00_bicycle7-elephant2.png
subject-06,1,50,1.50010418891907,boat,airplane,0,0050_s5n_s06_0_airplane_00_airplane4-elephant1.png
subject-06,1,51,0.522248983383179,bottle,bottle,0,0051_s5n_s06_0_bottle_00_bottle4-dog2.png
subject-06,1,52,0.775967836380005,elephant,elephant,0,0052_s5n_s06_0_elephant_00_elephant8-oven3.png
subject-06,1,53,0.845311164855957,elephant,elephant,0,0053_s5n_s06_0_elephant_00_elephant7-car3.png
subject-06,1,54,0.809185981750488,bird,airplane,0,0054_s5n_s06_0_airplane_00_airplane4-knife1.png
subject-06,1,55,1.07008504867554,cat,cat,0,0055_s5n_s06_0_cat_00_cat5-dog3.png
subject-06,1,56,1.46934700012207,bicycle,bicycle,0,0056_s5n_s06_0_bicycle_00_bicycle5-keyboard3.png
subject-06,1,57,0.979498863220215,keyboard,keyboard,0,0057_s5n_s06_0_keyboard_00_keyboard4-keyboard2.png
subject-06,1,58,0.803575992584229,bird,airplane,0,0058_s5n_s06_0_airplane_00_airplane6-knife1.png
subject-06,1,59,0.481143951416016,chair,chair,0,0059_s5n_s06_0_chair_00_chair7-airplane1.png
subject-06,1,60,0.704113960266113,bicycle,bicycle,0,0060_s5n_s06_0_bicycle_00_bicycle1-bird1.png
subject-06,1,61,0.657649993896484,bear,bear,0,0061_s5n_s06_0_bear_00_bear4-cat3.png
subject-06,1,62,1.14441394805908,car,car,0,0062_s5n_s06_0_car_00_car8-chair1.png
subject-06,1,63,0.783572912216187,dog,dog,0,0063_s5n_s06_0_dog_00_dog1-cat3.png
subject-06,1,64,0.652992963790894,chair,chair,0,0064_s5n_s06_0_chair_00_chair10-bicycle1.png
subject-06,1,65,0.601802110671997,chair,chair,0,0065_s5n_s06_0_chair_00_chair5-bottle3.png
subject-06,1,66,0.971143960952759,dog,dog,0,0066_s5n_s06_0_dog_00_dog4-elephant2.png
subject-06,1,67,0.632707118988037,bottle,bottle,0,0067_s5n_s06_0_bottle_00_bottle3-chair3.png
subject-06,1,68,1.20199680328369,bird,airplane,0,0068_s5n_s06_0_airplane_00_airplane3-dog1.png
subject-06,1,69,0.817435026168823,bottle,bottle,0,0069_s5n_s06_0_bottle_00_bottle5-bird3.png
subject-06,1,70,0.851313829421997,bird,bird,0,0070_s5n_s06_0_bird_00_bird6-bottle3.png
subject-06,1,71,0.621258974075317,bottle,knife,0,0071_s5n_s06_0_knife_00_knife10-chair1.png
subject-06,1,72,1.26675987243652,boat,bicycle,0,0072_s5n_s06_0_bicycle_00_bicycle8-bird2.png
subject-06,1,73,0.707101821899414,elephant,elephant,0,0073_s5n_s06_0_elephant_00_elephant1-dog2.png
subject-06,1,74,0.863162040710449,car,oven,0,0074_s5n_s06_0_oven_00_oven9-airplane2.png
subject-06,1,75,1.25514197349548,car,car,0,0075_s5n_s06_0_car_00_car5-oven2.png
subject-06,1,76,0.793957948684692,airplane,bird,0,0076_s5n_s06_0_bird_00_bird7-boat1.png
subject-06,1,77,0.725326061248779,elephant,elephant,0,0077_s5n_s06_0_elephant_00_elephant1-car3.png
subject-06,1,78,0.694118022918701,oven,knife,0,0078_s5n_s06_0_knife_00_knife4-boat1.png
subject-06,1,79,0.647727012634277,elephant,truck,0,0079_s5n_s06_0_truck_00_truck7-truck2.png
subject-06,1,80,0.634078979492188,car,car,0,0080_s5n_s06_0_car_00_car4-boat1.png
subject-06,1,81,1.1736798286438,clock,clock,0,0081_s5n_s06_0_clock_00_clock7-bottle2.png
subject-06,1,82,0.550904989242554,clock,clock,0,0082_s5n_s06_0_clock_00_clock2-bottle3.png
subject-06,1,83,0.828572988510132,elephant,elephant,0,0083_s5n_s06_0_elephant_00_elephant2-bird1.png
subject-06,1,84,0.882562875747681,dog,dog,0,0084_s5n_s06_0_dog_00_dog3-knife3.png
subject-06,1,85,1.3064398765564,truck,truck,0,0085_s5n_s06_0_truck_00_truck5-keyboard1.png
subject-06,1,86,0.786731958389282,car,oven,0,0086_s5n_s06_0_oven_00_oven3-bottle3.png
subject-06,1,87,0.67001485824585,oven,oven,0,0087_s5n_s06_0_oven_00_oven2-bicycle1.png
subject-06,1,88,1.1956570148468,bicycle,bicycle,0,0088_s5n_s06_0_bicycle_00_bicycle1-chair1.png
subject-06,1,89,0.911870956420898,bird,bird,0,0089_s5n_s06_0_bird_00_bird1-bicycle2.png
subject-06,1,90,0.602916955947876,dog,dog,0,0090_s5n_s06_0_dog_00_dog10-bicycle1.png
subject-06,1,91,0.85080099105835,dog,dog,0,0091_s5n_s06_0_dog_00_dog10-bottle1.png
subject-06,1,92,1.12915706634521,bird,bird,0,0092_s5n_s06_0_bird_00_bird9-keyboard1.png
subject-06,1,93,1.07655501365662,car,truck,0,0093_s5n_s06_0_truck_00_truck1-bicycle3.png
subject-06,1,94,0.884116172790527,chair,chair,0,0094_s5n_s06_0_chair_00_chair10-car2.png
subject-06,1,95,0.569631814956665,bottle,bottle,0,0095_s5n_s06_0_bottle_00_bottle8-bottle3.png
subject-06,1,96,1.24785184860229,dog,dog,0,0096_s5n_s06_0_dog_00_dog6-elephant2.png
subject-06,1,97,0.6180579662323,bird,cat,0,0097_s5n_s06_0_cat_00_cat10-bottle1.png
subject-06,1,98,0.753242015838623,elephant,elephant,0,0098_s5n_s06_0_elephant_00_elephant6-knife2.png
subject-06,1,99,1.43122816085815,cat,cat,0,0099_s5n_s06_0_cat_00_cat4-cat3.png
subject-06,1,100,0.763052940368652,airplane,airplane,0,0100_s5n_s06_0_airplane_00_airplane6-bottle2.png
subject-06,1,101,1.04101896286011,elephant,elephant,0,0101_s5n_s06_0_elephant_00_elephant6-bottle2.png
subject-06,1,102,0.727432012557983,bottle,oven,0,0102_s5n_s06_0_oven_00_oven8-cat3.png
subject-06,1,103,0.636910915374756,chair,chair,0,0103_s5n_s06_0_chair_00_chair5-car1.png
subject-06,1,104,0.815231084823608,airplane,airplane,0,0104_s5n_s06_0_airplane_00_airplane7-airplane3.png
subject-06,1,105,0.868674039840698,dog,dog,0,0105_s5n_s06_0_dog_00_dog1-airplane3.png
subject-06,1,106,0.978468894958496,car,car,0,0106_s5n_s06_0_car_00_car8-clock2.png
subject-06,1,107,0.756011009216309,oven,oven,0,0107_s5n_s06_0_oven_00_oven4-bicycle2.png
subject-06,1,108,0.779615163803101,bird,dog,0,0108_s5n_s06_0_dog_00_dog2-bicycle2.png
subject-06,1,109,0.781654119491577,airplane,airplane,0,0109_s5n_s06_0_airplane_00_airplane2-bicycle1.png
subject-06,1,110,1.11922597885132,elephant,elephant,0,0110_s5n_s06_0_elephant_00_elephant4-chair3.png
subject-06,1,111,0.996572971343994,knife,keyboard,0,0111_s5n_s06_0_keyboard_00_keyboard6-car2.png
subject-06,1,112,0.937295913696289,bird,bird,0,0112_s5n_s06_0_bird_00_bird4-clock1.png
subject-06,1,113,0.625187873840332,oven,oven,0,0113_s5n_s06_0_oven_00_oven10-bicycle1.png
subject-06,1,114,0.764964818954468,clock,bottle,0,0114_s5n_s06_0_bottle_00_bottle7-truck2.png
subject-06,1,115,0.6269690990448,boat,boat,0,0115_s5n_s06_0_boat_00_boat5-knife2.png
subject-06,1,116,0.884222030639648,car,car,0,0116_s5n_s06_0_car_00_car5-airplane3.png
subject-06,1,117,0.71546196937561,keyboard,keyboard,0,0117_s5n_s06_0_keyboard_00_keyboard3-car2.png
subject-06,1,118,0.788187026977539,dog,bear,0,0118_s5n_s06_0_bear_00_bear1-elephant1.png
subject-06,1,119,0.682003021240234,car,car,0,0119_s5n_s06_0_car_00_car6-boat1.png
subject-06,1,120,0.773381948471069,boat,keyboard,0,0120_s5n_s06_0_keyboard_00_keyboard3-clock3.png
subject-06,1,121,0.659667015075684,bottle,bottle,0,0121_s5n_s06_0_bottle_00_bottle1-bird3.png
subject-06,1,122,0.731693983078003,oven,truck,0,0122_s5n_s06_0_truck_00_truck1-car3.png
subject-06,1,123,1.44667506217957,knife,knife,0,0123_s5n_s06_0_knife_00_knife3-bear2.png
subject-06,1,124,0.570824861526489,chair,chair,0,0124_s5n_s06_0_chair_00_chair9-boat2.png
subject-06,1,125,0.770339965820312,oven,oven,0,0125_s5n_s06_0_oven_00_oven2-dog3.png
subject-06,1,126,1.50015783309937,bear,bear,0,0126_s5n_s06_0_bear_00_bear2-oven1.png
subject-06,1,127,1.43470001220703,truck,truck,0,0127_s5n_s06_0_truck_00_truck7-bird2.png
subject-06,1,128,0.844475030899048,truck,cat,0,0128_s5n_s06_0_cat_00_cat10-oven2.png
subject-06,1,129,0.806133031845093,keyboard,keyboard,0,0129_s5n_s06_0_keyboard_00_keyboard4-clock2.png
subject-06,1,130,0.832439184188843,car,car,0,0130_s5n_s06_0_car_00_car3-dog2.png
subject-06,1,131,0.886015892028809,boat,boat,0,0131_s5n_s06_0_boat_00_boat9-cat3.png
subject-06,1,132,0.708930969238281,bottle,bottle,0,0132_s5n_s06_0_bottle_00_bottle9-keyboard1.png
subject-06,1,133,1.44185495376587,elephant,elephant,0,0133_s5n_s06_0_elephant_00_elephant2-bear3.png
subject-06,1,134,1.35125708580017,bear,car,0,0134_s5n_s06_0_car_00_car10-dog1.png
subject-06,1,135,0.921293020248413,clock,clock,0,0135_s5n_s06_0_clock_00_clock10-boat2.png
subject-06,1,136,1.49853610992432,clock,bicycle,0,0136_s5n_s06_0_bicycle_00_bicycle9-car1.png
subject-06,1,137,1.03382897377014,bird,airplane,0,0137_s5n_s06_0_airplane_00_airplane3-cat1.png
subject-06,1,138,0.72549295425415,chair,chair,0,0138_s5n_s06_0_chair_00_chair5-cat3.png
subject-06,1,139,0.672782897949219,keyboard,keyboard,0,0139_s5n_s06_0_keyboard_00_keyboard2-bicycle3.png
subject-06,1,140,1.26796388626099,truck,truck,0,0140_s5n_s06_0_truck_00_truck6-bicycle1.png
subject-06,1,141,0.877715826034546,airplane,airplane,0,0141_s5n_s06_0_airplane_00_airplane6-bear3.png
subject-06,1,142,0.98511815071106,cat,knife,0,0142_s5n_s06_0_knife_00_knife6-bottle3.png
subject-06,1,143,1.23249316215515,bicycle,bicycle,0,0143_s5n_s06_0_bicycle_00_bicycle5-cat1.png
subject-06,1,144,0.686837911605835,keyboard,keyboard,0,0144_s5n_s06_0_keyboard_00_keyboard5-keyboard1.png
subject-06,1,145,1.29388308525085,truck,truck,0,0145_s5n_s06_0_truck_00_truck4-oven2.png
subject-06,1,146,0.549865961074829,dog,dog,0,0146_s5n_s06_0_dog_00_dog1-bear1.png
subject-06,1,147,1.25706791877747,bicycle,bicycle,0,0147_s5n_s06_0_bicycle_00_bicycle10-elephant2.png
subject-06,1,148,0.996823072433472,truck,truck,0,0148_s5n_s06_0_truck_00_truck9-bottle2.png
subject-06,1,149,0.620146036148071,oven,oven,0,0149_s5n_s06_0_oven_00_oven4-dog1.png
subject-06,1,150,1.40601396560669,knife,knife,0,0150_s5n_s06_0_knife_00_knife4-car2.png
subject-06,1,151,0.975624799728394,knife,knife,0,0151_s5n_s06_0_knife_00_knife5-keyboard3.png
subject-06,1,152,1.07758593559265,truck,truck,0,0152_s5n_s06_0_truck_00_truck8-cat2.png
subject-06,1,153,1.13982796669006,car,dog,0,0153_s5n_s06_0_dog_00_dog6-truck2.png
subject-06,1,154,0.686951160430908,bird,bird,0,0154_s5n_s06_0_bird_00_bird9-elephant2.png
subject-06,1,155,0.994945049285889,bird,bird,0,0155_s5n_s06_0_bird_00_bird6-boat2.png
subject-06,1,156,0.6753249168396,car,car,0,0156_s5n_s06_0_car_00_car3-bottle3.png
subject-06,1,157,1.36702990531921,elephant,elephant,0,0157_s5n_s06_0_elephant_00_elephant8-clock2.png
subject-06,1,158,0.5991370677948,bird,bird,0,0158_s5n_s06_0_bird_00_bird5-cat2.png
subject-06,1,159,1.09277105331421,dog,dog,0,0159_s5n_s06_0_dog_00_dog3-bird2.png
subject-06,1,160,0.699774980545044,clock,clock,0,0160_s5n_s06_0_clock_00_clock6-bottle1.png
subject-06,1,161,0.631376981735229,bottle,bottle,0,0161_s5n_s06_0_bottle_00_bottle6-bottle3.png
subject-06,1,162,0.77727198600769,truck,truck,0,0162_s5n_s06_0_truck_00_truck2-chair1.png
subject-06,1,163,1.16680598258972,bicycle,airplane,0,0163_s5n_s06_0_airplane_00_airplane10-bear3.png
subject-06,1,164,0.593521118164062,knife,boat,0,0164_s5n_s06_0_boat_00_boat8-bottle1.png
subject-06,1,165,1.06864881515503,elephant,bear,0,0165_s5n_s06_0_bear_00_bear4-clock3.png
subject-06,1,166,0.840354919433594,clock,boat,0,0166_s5n_s06_0_boat_00_boat3-car3.png
subject-06,1,167,0.555382966995239,keyboard,keyboard,0,0167_s5n_s06_0_keyboard_00_keyboard7-car3.png
subject-06,1,168,1.37123203277588,bicycle,bicycle,0,0168_s5n_s06_0_bicycle_00_bicycle9-keyboard3.png
subject-06,1,169,0.59266996383667,car,car,0,0169_s5n_s06_0_car_00_car9-truck3.png
subject-06,1,170,0.781241893768311,truck,truck,0,0170_s5n_s06_0_truck_00_truck1-clock3.png
subject-06,1,171,0.69699501991272,keyboard,keyboard,0,0171_s5n_s06_0_keyboard_00_keyboard10-truck1.png
subject-06,1,172,0.661503076553345,bottle,bottle,0,0172_s5n_s06_0_bottle_00_bottle1-dog2.png
subject-06,1,173,1.49100208282471,dog,cat,0,0173_s5n_s06_0_cat_00_cat9-clock2.png
subject-06,1,174,0.915034055709839,bird,bird,0,0174_s5n_s06_0_bird_00_bird7-knife2.png
subject-06,1,175,0.617125988006592,keyboard,keyboard,0,0175_s5n_s06_0_keyboard_00_keyboard1-elephant3.png
subject-06,1,176,1.46506500244141,bicycle,bicycle,0,0176_s5n_s06_0_bicycle_00_bicycle9-airplane2.png
subject-06,1,177,0.758870840072632,dog,dog,0,0177_s5n_s06_0_dog_00_dog5-boat3.png
subject-06,1,178,0.742187976837158,bicycle,bicycle,0,0178_s5n_s06_0_bicycle_00_bicycle1-dog3.png
subject-06,1,179,0.903885126113892,truck,oven,0,0179_s5n_s06_0_oven_00_oven9-chair1.png
subject-06,1,180,0.751938104629517,car,boat,0,0180_s5n_s06_0_boat_00_boat1-bird3.png
subject-06,1,181,0.784225940704346,dog,dog,0,0181_s5n_s06_0_dog_00_dog3-dog1.png
subject-06,1,182,1.03136086463928,bicycle,bicycle,0,0182_s5n_s06_0_bicycle_00_bicycle7-bicycle2.png
subject-06,1,183,1.08490896224976,cat,cat,0,0183_s5n_s06_0_cat_00_cat1-oven1.png
subject-06,1,184,0.600475072860718,bottle,bottle,0,0184_s5n_s06_0_bottle_00_bottle5-airplane1.png
subject-06,1,185,1.14027118682861,bear,bear,0,0185_s5n_s06_0_bear_00_bear9-knife2.png
subject-06,1,186,0.831602096557617,chair,chair,0,0186_s5n_s06_0_chair_00_chair1-cat3.png
subject-06,1,187,1.50018811225891,knife,knife,0,0187_s5n_s06_0_knife_00_knife5-cat2.png
subject-06,1,188,1.12005281448364,dog,dog,0,0188_s5n_s06_0_dog_00_dog4-clock1.png
subject-06,1,189,0.551550149917603,elephant,elephant,0,0189_s5n_s06_0_elephant_00_elephant5-truck1.png
subject-06,1,190,1.08186197280884,airplane,airplane,0,0190_s5n_s06_0_airplane_00_airplane1-clock1.png
subject-06,1,191,0.96258807182312,bear,truck,0,0191_s5n_s06_0_truck_00_truck4-boat3.png
subject-06,1,192,0.856186151504517,truck,truck,0,0192_s5n_s06_0_truck_00_truck6-clock2.png
subject-06,1,193,0.825424909591675,bicycle,bicycle,0,0193_s5n_s06_0_bicycle_00_bicycle2-dog1.png
subject-06,1,194,0.749323129653931,elephant,elephant,0,0194_s5n_s06_0_elephant_00_elephant5-chair3.png
subject-06,1,195,0.695496797561646,elephant,elephant,0,0195_s5n_s06_0_elephant_00_elephant1-oven2.png
subject-06,1,196,1.35148286819458,chair,chair,0,0196_s5n_s06_0_chair_00_chair10-oven1.png
subject-06,1,197,1.1432728767395,keyboard,keyboard,0,0197_s5n_s06_0_keyboard_00_keyboard5-cat1.png
subject-06,1,198,0.723548173904419,keyboard,keyboard,0,0198_s5n_s06_0_keyboard_00_keyboard6-bottle2.png
subject-06,1,199,1.03174209594727,cat,airplane,0,0199_s5n_s06_0_airplane_00_airplane3-airplane2.png
subject-06,1,200,0.785444021224976,airplane,airplane,0,0200_s5n_s06_0_airplane_00_airplane10-dog3.png
subject-06,1,201,1.49999403953552,truck,knife,0,0201_s5n_s06_0_knife_00_knife1-truck2.png
subject-06,1,202,1.41925406455994,car,knife,0,0202_s5n_s06_0_knife_00_knife6-chair3.png
subject-06,1,203,1.25948691368103,cat,bear,0,0203_s5n_s06_0_bear_00_bear6-cat3.png
subject-06,1,204,1.50028514862061,bicycle,bicycle,0,0204_s5n_s06_0_bicycle_00_bicycle10-dog3.png
subject-06,1,205,0.881766080856323,clock,clock,0,0205_s5n_s06_0_clock_00_clock1-clock2.png
subject-06,1,206,1.35210013389587,truck,car,0,0206_s5n_s06_0_car_00_car8-cat1.png
subject-06,1,207,0.751929044723511,oven,oven,0,0207_s5n_s06_0_oven_00_oven5-bottle3.png
subject-06,1,208,0.687415838241577,clock,clock,0,0208_s5n_s06_0_clock_00_clock8-cat1.png
subject-06,1,209,0.873301029205322,boat,truck,0,0209_s5n_s06_0_truck_00_truck3-car3.png
subject-06,1,210,1.3437180519104,knife,boat,0,0210_s5n_s06_0_boat_00_boat1-keyboard3.png
subject-06,1,211,0.835349082946777,elephant,elephant,0,0211_s5n_s06_0_elephant_00_elephant10-knife3.png
subject-06,1,212,0.89136791229248,cat,knife,0,0212_s5n_s06_0_knife_00_knife3-keyboard3.png
subject-06,1,213,0.852797031402588,chair,chair,0,0213_s5n_s06_0_chair_00_chair2-boat1.png
subject-06,1,214,1.12525701522827,car,car,0,0214_s5n_s06_0_car_00_car2-car3.png
subject-06,1,215,0.595802783966064,bottle,bottle,0,0215_s5n_s06_0_bottle_00_bottle6-knife3.png
subject-06,1,216,1.13308215141296,bear,bear,0,0216_s5n_s06_0_bear_00_bear2-airplane1.png
subject-06,1,217,0.826768159866333,boat,boat,0,0217_s5n_s06_0_boat_00_boat9-clock1.png
subject-06,1,218,1.06648802757263,cat,dog,0,0218_s5n_s06_0_dog_00_dog8-dog3.png
subject-06,1,219,0.966009140014648,bear,airplane,0,0219_s5n_s06_0_airplane_00_airplane3-chair3.png
subject-06,1,220,0.735337018966675,oven,oven,0,0220_s5n_s06_0_oven_00_oven5-dog3.png
subject-06,1,221,0.820610046386719,keyboard,cat,0,0221_s5n_s06_0_cat_00_cat10-elephant3.png
subject-06,1,222,0.853253841400146,dog,dog,0,0222_s5n_s06_0_dog_00_dog10-elephant1.png
subject-06,1,223,0.663496971130371,oven,oven,0,0223_s5n_s06_0_oven_00_oven1-boat3.png
subject-06,1,224,0.771433115005493,car,boat,0,0224_s5n_s06_0_boat_00_boat10-oven1.png
subject-06,1,225,0.710885047912598,chair,chair,0,0225_s5n_s06_0_chair_00_chair5-boat3.png
subject-06,1,226,0.918938875198364,truck,truck,0,0226_s5n_s06_0_truck_00_truck6-cat2.png
subject-06,1,227,0.612498044967651,bottle,bottle,0,0227_s5n_s06_0_bottle_00_bottle3-airplane2.png
subject-06,1,228,1.31370520591736,dog,dog,0,0228_s5n_s06_0_dog_00_dog5-oven1.png
subject-06,1,229,0.907318115234375,clock,clock,0,0229_s5n_s06_0_clock_00_clock2-knife1.png
subject-06,1,230,0.939289808273315,car,car,0,0230_s5n_s06_0_car_00_car5-keyboard3.png
subject-06,1,231,1.14696478843689,truck,bear,0,0231_s5n_s06_0_bear_00_bear4-boat2.png
subject-06,1,232,0.656874895095825,clock,clock,0,0232_s5n_s06_0_clock_00_clock8-oven3.png
subject-06,1,233,1.38918399810791,car,truck,0,0233_s5n_s06_0_truck_00_truck5-dog3.png
subject-06,1,234,0.850541114807129,chair,chair,0,0234_s5n_s06_0_chair_00_chair1-oven3.png
subject-06,1,235,1.182049036026,bear,bear,0,0235_s5n_s06_0_bear_00_bear4-keyboard3.png
subject-06,1,236,0.589667081832886,chair,chair,0,0236_s5n_s06_0_chair_00_chair2-bear2.png
subject-06,1,237,0.889286041259766,truck,dog,0,0237_s5n_s06_0_dog_00_dog4-truck2.png
subject-06,1,238,0.758379936218262,clock,clock,0,0238_s5n_s06_0_clock_00_clock7-truck3.png
subject-06,1,239,0.69717001914978,dog,dog,0,0239_s5n_s06_0_dog_00_dog5-car3.png
subject-06,1,240,1.05170202255249,truck,cat,0,0240_s5n_s06_0_cat_00_cat3-oven2.png
subject-06,1,241,0.691504001617432,bird,bird,0,0241_s5n_s06_0_bird_00_bird7-bottle1.png
subject-06,1,242,0.684936046600342,clock,clock,0,0242_s5n_s06_0_clock_00_clock7-car1.png
subject-06,1,243,0.814314126968384,bottle,bottle,0,0243_s5n_s06_0_bottle_00_bottle10-boat3.png
subject-06,1,244,0.563246011734009,oven,oven,0,0244_s5n_s06_0_oven_00_oven5-bird1.png
subject-06,1,245,0.618880987167358,bottle,bottle,0,0245_s5n_s06_0_bottle_00_bottle2-bottle3.png
subject-06,1,246,1.50002503395081,clock,airplane,0,0246_s5n_s06_0_airplane_00_airplane10-oven2.png
subject-06,1,247,0.782793998718262,cat,knife,0,0247_s5n_s06_0_knife_00_knife7-bottle3.png
subject-06,1,248,0.89819598197937,dog,cat,0,0248_s5n_s06_0_cat_00_cat5-keyboard3.png
subject-06,1,249,0.975536108016968,boat,boat,0,0249_s5n_s06_0_boat_00_boat9-keyboard2.png
subject-06,1,250,0.753346920013428,bird,airplane,0,0250_s5n_s06_0_airplane_00_airplane8-bird1.png
subject-06,1,251,0.768932104110718,chair,chair,0,0251_s5n_s06_0_chair_00_chair1-airplane2.png
subject-06,1,252,0.700639963150024,bottle,bottle,0,0252_s5n_s06_0_bottle_00_bottle4-truck1.png
subject-06,1,253,0.716382026672363,chair,chair,0,0253_s5n_s06_0_chair_00_chair5-truck3.png
subject-06,1,254,0.839727878570557,car,bird,0,0254_s5n_s06_0_bird_00_bird6-truck2.png
subject-06,1,255,0.646922826766968,car,car,0,0255_s5n_s06_0_car_00_car3-elephant3.png
subject-06,1,256,0.708806991577148,bottle,bottle,0,0256_s5n_s06_0_bottle_00_bottle2-elephant1.png
subject-06,1,257,0.853538990020752,oven,oven,0,0257_s5n_s06_0_oven_00_oven6-knife3.png
subject-06,1,258,0.633727073669434,elephant,bear,0,0258_s5n_s06_0_bear_00_bear3-bicycle2.png
subject-06,1,259,0.84538197517395,car,car,0,0259_s5n_s06_0_car_00_car7-dog3.png
subject-06,1,260,1.06641888618469,bear,bear,0,0260_s5n_s06_0_bear_00_bear2-dog1.png
subject-06,1,261,1.02264285087585,bicycle,bicycle,0,0261_s5n_s06_0_bicycle_00_bicycle3-truck3.png
subject-06,1,262,1.37050008773804,elephant,bear,0,0262_s5n_s06_0_bear_00_bear3-dog3.png
subject-06,1,263,0.648400068283081,dog,dog,0,0263_s5n_s06_0_dog_00_dog8-bear3.png
subject-06,1,264,0.694132089614868,bottle,bottle,0,0264_s5n_s06_0_bottle_00_bottle9-elephant2.png
subject-06,1,265,1.1886248588562,elephant,bear,0,0265_s5n_s06_0_bear_00_bear8-knife3.png
subject-06,1,266,1.42061400413513,bird,boat,0,0266_s5n_s06_0_boat_00_boat6-knife2.png
subject-06,1,267,0.7740159034729,elephant,elephant,0,0267_s5n_s06_0_elephant_00_elephant7-cat1.png
subject-06,1,268,0.76751708984375,keyboard,keyboard,0,0268_s5n_s06_0_keyboard_00_keyboard10-boat2.png
subject-06,1,269,1.29922103881836,boat,boat,0,0269_s5n_s06_0_boat_00_boat5-clock3.png
subject-06,1,270,0.498768091201782,boat,boat,0,0270_s5n_s06_0_boat_00_boat9-chair2.png
subject-06,1,271,0.600314855575562,chair,chair,0,0271_s5n_s06_0_chair_00_chair5-bicycle1.png
subject-06,1,272,1.42367506027222,chair,chair,0,0272_s5n_s06_0_chair_00_chair1-chair1.png
subject-06,1,273,1.37756109237671,bicycle,bicycle,0,0273_s5n_s06_0_bicycle_00_bicycle4-car2.png
subject-06,1,274,0.56383490562439,bicycle,bicycle,0,0274_s5n_s06_0_bicycle_00_bicycle3-oven3.png
subject-06,1,275,1.45757794380188,bear,bear,0,0275_s5n_s06_0_bear_00_bear2-cat2.png
subject-06,1,276,0.919050931930542,truck,truck,0,0276_s5n_s06_0_truck_00_truck3-oven2.png
subject-06,1,277,0.912913084030151,car,car,0,0277_s5n_s06_0_car_00_car4-bear3.png
subject-06,1,278,1.2127411365509,bottle,bottle,0,0278_s5n_s06_0_bottle_00_bottle9-bottle1.png
subject-06,1,279,0.74387001991272,oven,oven,0,0279_s5n_s06_0_oven_00_oven1-dog3.png
subject-06,1,280,1.17546510696411,car,car,0,0280_s5n_s06_0_car_00_car9-bicycle2.png
subject-06,1,281,0.815018892288208,bird,bird,0,0281_s5n_s06_0_bird_00_bird8-clock1.png
subject-06,1,282,0.630759000778198,bird,bird,0,0282_s5n_s06_0_bird_00_bird9-bottle3.png
subject-06,1,283,0.768118143081665,cat,cat,0,0283_s5n_s06_0_cat_00_cat4-truck3.png
subject-06,1,284,0.823959827423096,bear,bear,0,0284_s5n_s06_0_bear_00_bear10-truck1.png
subject-06,1,285,0.95572304725647,elephant,elephant,0,0285_s5n_s06_0_elephant_00_elephant8-dog1.png
subject-06,1,286,0.755211114883423,chair,chair,0,0286_s5n_s06_0_chair_00_chair2-keyboard2.png
subject-06,1,287,0.810965061187744,bird,bird,0,0287_s5n_s06_0_bird_00_bird10-bird2.png
subject-06,1,288,0.810503005981445,bear,bear,0,0288_s5n_s06_0_bear_00_bear7-bicycle2.png
subject-06,1,289,0.771281957626343,bird,bird,0,0289_s5n_s06_0_bird_00_bird7-truck2.png
subject-06,1,290,0.826698064804077,bird,cat,0,0290_s5n_s06_0_cat_00_cat10-bicycle1.png
subject-06,1,291,1.10463905334473,elephant,elephant,0,0291_s5n_s06_0_elephant_00_elephant1-airplane2.png
subject-06,1,292,0.695727825164795,knife,knife,0,0292_s5n_s06_0_knife_00_knife5-truck3.png
subject-06,1,293,0.965485811233521,bear,bear,0,0293_s5n_s06_0_bear_00_bear2-bird3.png
subject-06,1,294,0.758903026580811,bear,bear,0,0294_s5n_s06_0_bear_00_bear10-oven1.png
subject-06,1,295,0.809165954589844,boat,boat,0,0295_s5n_s06_0_boat_00_boat4-car3.png
subject-06,1,296,0.694910049438477,bird,bird,0,0296_s5n_s06_0_bird_00_bird8-car2.png
subject-06,1,297,0.859009981155396,truck,truck,0,0297_s5n_s06_0_truck_00_truck1-dog1.png
subject-06,1,298,0.783628940582275,chair,chair,0,0298_s5n_s06_0_chair_00_chair5-oven2.png
subject-06,1,299,0.776638031005859,oven,oven,0,0299_s5n_s06_0_oven_00_oven5-keyboard2.png
subject-06,1,300,0.671066045761108,oven,oven,0,0300_s5n_s06_0_oven_00_oven3-bear2.png
subject-06,1,301,0.978854894638062,chair,chair,0,0301_s5n_s06_0_chair_00_chair8-boat1.png
subject-06,1,302,0.886576890945435,car,car,0,0302_s5n_s06_0_car_00_car7-boat3.png
subject-06,1,303,0.755686044692993,cat,cat,0,0303_s5n_s06_0_cat_00_cat10-clock1.png
subject-06,1,304,0.765358924865723,bird,bird,0,0304_s5n_s06_0_bird_00_bird1-keyboard3.png
subject-06,1,305,0.642690896987915,oven,oven,0,0305_s5n_s06_0_oven_00_oven3-car2.png
subject-06,1,306,1.02848887443542,car,bicycle,0,0306_s5n_s06_0_bicycle_00_bicycle6-car2.png
subject-06,1,307,0.620223999023438,clock,clock,0,0307_s5n_s06_0_clock_00_clock5-keyboard1.png
subject-06,1,308,0.71456503868103,oven,oven,0,0308_s5n_s06_0_oven_00_oven4-car1.png
subject-06,1,309,0.85039496421814,knife,knife,0,0309_s5n_s06_0_knife_00_knife10-oven3.png
subject-06,1,310,0.641955852508545,boat,boat,0,0310_s5n_s06_0_boat_00_boat3-clock3.png
subject-06,1,311,0.914031028747559,knife,knife,0,0311_s5n_s06_0_knife_00_knife1-clock2.png
subject-06,1,312,0.521347045898438,bird,bird,0,0312_s5n_s06_0_bird_00_bird10-clock1.png
subject-06,1,313,0.728847026824951,boat,truck,0,0313_s5n_s06_0_truck_00_truck1-cat1.png
subject-06,1,314,0.884304046630859,boat,airplane,0,0314_s5n_s06_0_airplane_00_airplane8-clock2.png
subject-06,1,315,1.12206602096558,oven,boat,0,0315_s5n_s06_0_boat_00_boat10-truck1.png
subject-06,1,316,0.928791999816895,knife,knife,0,0316_s5n_s06_0_knife_00_knife4-bear1.png
subject-06,1,317,0.976600170135498,cat,cat,0,0317_s5n_s06_0_cat_00_cat8-bird2.png
subject-06,1,318,0.600206136703491,chair,chair,0,0318_s5n_s06_0_chair_00_chair8-bicycle3.png
subject-06,1,319,0.623519897460938,bottle,bottle,0,0319_s5n_s06_0_bottle_00_bottle5-keyboard2.png
subject-06,1,320,0.938841104507446,elephant,elephant,0,0320_s5n_s06_0_elephant_00_elephant5-bottle2.png
subject-06,1,321,0.775964975357056,bird,cat,0,0321_s5n_s06_0_cat_00_cat9-cat3.png
subject-06,1,322,1.14537811279297,truck,oven,0,0322_s5n_s06_0_oven_00_oven8-keyboard3.png
subject-06,1,323,0.77721095085144,boat,boat,0,0323_s5n_s06_0_boat_00_boat6-bear1.png
subject-06,1,324,0.649420976638794,keyboard,keyboard,0,0324_s5n_s06_0_keyboard_00_keyboard4-bottle2.png
subject-06,1,325,1.00314092636108,bird,bird,0,0325_s5n_s06_0_bird_00_bird6-airplane2.png
subject-06,1,326,0.710424184799194,bicycle,bicycle,0,0326_s5n_s06_0_bicycle_00_bicycle4-knife3.png
subject-06,1,327,0.588613033294678,bottle,bottle,0,0327_s5n_s06_0_bottle_00_bottle5-clock3.png
subject-06,1,328,1.05257201194763,chair,chair,0,0328_s5n_s06_0_chair_00_chair9-bicycle3.png
subject-06,1,329,0.584623098373413,chair,oven,0,0329_s5n_s06_0_oven_00_oven7-dog2.png
subject-06,1,330,0.908405065536499,car,car,0,0330_s5n_s06_0_car_00_car2-knife3.png
subject-06,1,331,0.878031015396118,boat,boat,0,0331_s5n_s06_0_boat_00_boat6-clock2.png
subject-06,1,332,0.609461069107056,bottle,bottle,0,0332_s5n_s06_0_bottle_00_bottle9-bicycle1.png
subject-06,1,333,1.49999713897705,elephant,elephant,0,0333_s5n_s06_0_elephant_00_elephant7-bear3.png
subject-06,1,334,1.09467887878418,knife,knife,0,0334_s5n_s06_0_knife_00_knife2-dog1.png
subject-06,1,335,0.756322860717773,bird,bird,0,0335_s5n_s06_0_bird_00_bird3-bird2.png
subject-06,1,336,0.679993867874146,chair,clock,0,0336_s5n_s06_0_clock_00_clock10-knife3.png
subject-06,1,337,0.719851016998291,boat,boat,0,0337_s5n_s06_0_boat_00_boat3-airplane2.png
subject-06,1,338,0.94396185874939,chair,chair,0,0338_s5n_s06_0_chair_00_chair7-bottle1.png
subject-06,1,339,0.968580961227417,truck,truck,0,0339_s5n_s06_0_truck_00_truck4-airplane3.png
subject-06,1,340,0.592012882232666,car,keyboard,0,0340_s5n_s06_0_keyboard_00_keyboard7-truck2.png
subject-06,1,341,0.707390785217285,knife,knife,0,0341_s5n_s06_0_knife_00_knife3-clock2.png
subject-06,1,342,0.776849985122681,keyboard,dog,0,0342_s5n_s06_0_dog_00_dog1-chair1.png
subject-06,1,343,1.00000619888306,cat,cat,0,0343_s5n_s06_0_cat_00_cat6-chair3.png
subject-06,1,344,0.832206964492798,bear,bear,0,0344_s5n_s06_0_bear_00_bear1-chair2.png
subject-06,1,345,1.04759407043457,airplane,airplane,0,0345_s5n_s06_0_airplane_00_airplane3-elephant1.png
subject-06,1,346,0.916997194290161,clock,clock,0,0346_s5n_s06_0_clock_00_clock8-bear2.png
subject-06,1,347,0.833102941513062,bicycle,bicycle,0,0347_s5n_s06_0_bicycle_00_bicycle10-clock2.png
subject-06,1,348,0.718415021896362,boat,clock,0,0348_s5n_s06_0_clock_00_clock9-chair3.png
subject-06,1,349,0.658074140548706,chair,chair,0,0349_s5n_s06_0_chair_00_chair3-bottle3.png
subject-06,1,350,0.760318994522095,elephant,elephant,0,0350_s5n_s06_0_elephant_00_elephant6-dog2.png
subject-06,1,351,0.83729887008667,car,car,0,0351_s5n_s06_0_car_00_car4-bottle1.png
subject-06,1,352,0.68357515335083,airplane,airplane,0,0352_s5n_s06_0_airplane_00_airplane5-bicycle1.png
subject-06,1,353,0.807090044021606,chair,chair,0,0353_s5n_s06_0_chair_00_chair8-chair3.png
subject-06,1,354,1.50017285346985,truck,truck,0,0354_s5n_s06_0_truck_00_truck7-chair2.png
subject-06,1,355,0.665466070175171,bottle,bottle,0,0355_s5n_s06_0_bottle_00_bottle6-bicycle3.png
subject-06,1,356,0.734736204147339,truck,truck,0,0356_s5n_s06_0_truck_00_truck3-bicycle1.png
subject-06,1,357,1.13692378997803,bicycle,bicycle,0,0357_s5n_s06_0_bicycle_00_bicycle6-airplane2.png
subject-06,1,358,0.666450977325439,bicycle,bicycle,0,0358_s5n_s06_0_bicycle_00_bicycle10-boat3.png
subject-06,1,359,0.983987808227539,truck,bird,0,0359_s5n_s06_0_bird_00_bird3-boat3.png
subject-06,1,360,0.661884069442749,chair,chair,0,0360_s5n_s06_0_chair_00_chair7-cat1.png
subject-06,1,361,0.639664173126221,bicycle,bicycle,0,0361_s5n_s06_0_bicycle_00_bicycle1-oven1.png
subject-06,1,362,0.70932412147522,knife,knife,0,0362_s5n_s06_0_knife_00_knife4-cat2.png
subject-06,1,363,0.992951154708862,bottle,bottle,0,0363_s5n_s06_0_bottle_00_bottle6-boat3.png
subject-06,1,364,0.848780870437622,car,car,0,0364_s5n_s06_0_car_00_car4-bicycle3.png
subject-06,1,365,1.11870217323303,cat,cat,0,0365_s5n_s06_0_cat_00_cat7-clock3.png
subject-06,1,366,1.12021899223328,truck,truck,0,0366_s5n_s06_0_truck_00_truck5-airplane2.png
subject-06,1,367,0.552402019500732,bottle,bottle,0,0367_s5n_s06_0_bottle_00_bottle5-truck1.png
subject-06,1,368,1.37653088569641,cat,cat,0,0368_s5n_s06_0_cat_00_cat5-airplane2.png
subject-06,1,369,0.770587921142578,bicycle,bicycle,0,0369_s5n_s06_0_bicycle_00_bicycle2-bicycle1.png
subject-06,1,370,0.864369869232178,bear,bear,0,0370_s5n_s06_0_bear_00_bear10-clock1.png
subject-06,1,371,1.1582350730896,car,car,0,0371_s5n_s06_0_car_00_car6-bicycle3.png
subject-06,1,372,0.719671964645386,cat,dog,0,0372_s5n_s06_0_dog_00_dog1-boat3.png
subject-06,1,373,0.667266845703125,bicycle,bicycle,0,0373_s5n_s06_0_bicycle_00_bicycle7-bear2.png
subject-06,1,374,0.683579921722412,keyboard,keyboard,0,0374_s5n_s06_0_keyboard_00_keyboard3-bird3.png
subject-06,1,375,0.577032804489136,keyboard,keyboard,0,0375_s5n_s06_0_keyboard_00_keyboard6-chair1.png
subject-06,1,376,0.871620893478394,car,dog,0,0376_s5n_s06_0_dog_00_dog9-car1.png
subject-06,1,377,0.657969951629639,elephant,elephant,0,0377_s5n_s06_0_elephant_00_elephant7-knife2.png
subject-06,1,378,0.768373966217041,chair,oven,0,0378_s5n_s06_0_oven_00_oven6-chair3.png
subject-06,1,379,1.30867600440979,bear,bear,0,0379_s5n_s06_0_bear_00_bear10-bear2.png
subject-06,1,380,0.707957983016968,cat,cat,0,0380_s5n_s06_0_cat_00_cat7-boat3.png
subject-06,1,381,0.915488958358765,dog,dog,0,0381_s5n_s06_0_dog_00_dog9-bear3.png
subject-06,1,382,0.733406066894531,dog,dog,0,0382_s5n_s06_0_dog_00_dog6-cat1.png
subject-06,1,383,0.627425909042358,bottle,bottle,0,0383_s5n_s06_0_bottle_00_bottle4-oven2.png
subject-06,1,384,0.74084210395813,cat,dog,0,0384_s5n_s06_0_dog_00_dog7-knife3.png
subject-06,1,385,0.842180013656616,truck,truck,0,0385_s5n_s06_0_truck_00_truck2-bird2.png
subject-06,1,386,0.717504978179932,keyboard,keyboard,0,0386_s5n_s06_0_keyboard_00_keyboard8-oven1.png
subject-06,1,387,0.941115856170654,knife,knife,0,0387_s5n_s06_0_knife_00_knife9-boat1.png
subject-06,1,388,1.02666902542114,bear,bear,0,0388_s5n_s06_0_bear_00_bear10-chair2.png
subject-06,1,389,1.45895409584045,bicycle,bicycle,0,0389_s5n_s06_0_bicycle_00_bicycle3-bird1.png
subject-06,1,390,0.618188142776489,bottle,bottle,0,0390_s5n_s06_0_bottle_00_bottle9-oven2.png
subject-06,1,391,0.725648880004883,oven,oven,0,0391_s5n_s06_0_oven_00_oven5-bicycle1.png
subject-06,1,392,0.849492073059082,knife,knife,0,0392_s5n_s06_0_knife_00_knife6-bicycle1.png
subject-06,1,393,0.964224100112915,boat,boat,0,0393_s5n_s06_0_boat_00_boat2-oven3.png
subject-06,1,394,1.18831610679626,elephant,elephant,0,0394_s5n_s06_0_elephant_00_elephant9-elephant3.png
subject-06,1,395,0.750411033630371,cat,cat,0,0395_s5n_s06_0_cat_00_cat5-knife2.png
subject-06,1,396,1.31955289840698,bear,bear,0,0396_s5n_s06_0_bear_00_bear8-elephant2.png
subject-06,1,397,1.29771590232849,knife,boat,0,0397_s5n_s06_0_boat_00_boat10-bear3.png
subject-06,1,398,0.707733154296875,bottle,bottle,0,0398_s5n_s06_0_bottle_00_bottle7-cat2.png
subject-06,1,399,0.822806835174561,keyboard,oven,0,0399_s5n_s06_0_oven_00_oven2-bottle1.png
subject-06,1,400,0.638855934143066,boat,boat,0,0400_s5n_s06_0_boat_00_boat5-car3.png
subject-06,1,401,0.638362169265747,bicycle,bicycle,0,0401_s5n_s06_0_bicycle_00_bicycle5-elephant1.png
subject-06,1,402,0.83197283744812,bear,bear,0,0402_s5n_s06_0_bear_00_bear7-dog3.png
subject-06,1,403,0.777324914932251,knife,keyboard,0,0403_s5n_s06_0_keyboard_00_keyboard3-bicycle2.png
subject-06,1,404,1.50037908554077,clock,chair,0,0404_s5n_s06_0_chair_00_chair4-keyboard2.png
subject-06,1,405,0.627460956573486,clock,clock,0,0405_s5n_s06_0_clock_00_clock9-bird2.png
subject-06,1,406,0.873365879058838,keyboard,airplane,0,0406_s5n_s06_0_airplane_00_airplane9-knife3.png
subject-06,1,407,1.50000786781311,boat,cat,0,0407_s5n_s06_0_cat_00_cat10-keyboard1.png
subject-06,1,408,1.21467995643616,bear,bear,0,0408_s5n_s06_0_bear_00_bear5-bicycle3.png
subject-06,1,409,0.969218969345093,truck,oven,0,0409_s5n_s06_0_oven_00_oven7-keyboard1.png
subject-06,1,410,0.830904960632324,bicycle,bicycle,0,0410_s5n_s06_0_bicycle_00_bicycle1-bottle3.png
subject-06,1,411,0.879089117050171,bottle,bottle,0,0411_s5n_s06_0_bottle_00_bottle9-car3.png
subject-06,1,412,0.948937892913818,clock,oven,0,0412_s5n_s06_0_oven_00_oven6-bird1.png
subject-06,1,413,0.810489892959595,truck,truck,0,0413_s5n_s06_0_truck_00_truck4-bear1.png
subject-06,1,414,0.596187829971313,truck,truck,0,0414_s5n_s06_0_truck_00_truck10-bicycle1.png
subject-06,1,415,0.660380840301514,bottle,bottle,0,0415_s5n_s06_0_bottle_00_bottle7-airplane3.png
subject-06,1,416,0.638271808624268,chair,chair,0,0416_s5n_s06_0_chair_00_chair7-knife2.png
subject-06,1,417,0.937827110290527,truck,truck,0,0417_s5n_s06_0_truck_00_truck10-car3.png
subject-06,1,418,0.916099071502686,clock,clock,0,0418_s5n_s06_0_clock_00_clock7-boat3.png
subject-06,1,419,0.925525903701782,keyboard,keyboard,0,0419_s5n_s06_0_keyboard_00_keyboard1-bear2.png
subject-06,1,420,1.44886088371277,truck,knife,0,0420_s5n_s06_0_knife_00_knife7-car2.png
subject-06,1,421,0.765026092529297,car,car,0,0421_s5n_s06_0_car_00_car7-oven2.png
subject-06,1,422,0.793833017349243,car,clock,0,0422_s5n_s06_0_clock_00_clock1-elephant2.png
subject-06,1,423,0.771451950073242,keyboard,keyboard,0,0423_s5n_s06_0_keyboard_00_keyboard4-oven2.png
subject-06,1,424,1.0704870223999,elephant,bear,0,0424_s5n_s06_0_bear_00_bear3-airplane1.png
subject-06,1,425,0.818734169006348,oven,oven,0,0425_s5n_s06_0_oven_00_oven9-bear2.png
subject-06,1,426,0.84178900718689,airplane,airplane,0,0426_s5n_s06_0_airplane_00_airplane10-boat3.png
subject-06,1,427,0.749189138412476,bird,bird,0,0427_s5n_s06_0_bird_00_bird1-clock3.png
subject-06,1,428,0.840269088745117,knife,knife,0,0428_s5n_s06_0_knife_00_knife5-bicycle2.png
subject-06,1,429,0.650007963180542,bottle,bottle,0,0429_s5n_s06_0_bottle_00_bottle2-car2.png
subject-06,1,430,0.804183959960938,knife,knife,0,0430_s5n_s06_0_knife_00_knife7-bird3.png
subject-06,1,431,0.735483169555664,keyboard,keyboard,0,0431_s5n_s06_0_keyboard_00_keyboard1-bird2.png
subject-06,1,432,0.775200128555298,airplane,airplane,0,0432_s5n_s06_0_airplane_00_airplane10-cat2.png
subject-06,1,433,0.975064992904663,bicycle,bicycle,0,0433_s5n_s06_0_bicycle_00_bicycle1-bear1.png
subject-06,1,434,0.623423099517822,bicycle,bicycle,0,0434_s5n_s06_0_bicycle_00_bicycle6-boat2.png
subject-06,1,435,0.922049045562744,truck,truck,0,0435_s5n_s06_0_truck_00_truck9-chair3.png
subject-06,1,436,0.693019866943359,clock,clock,0,0436_s5n_s06_0_clock_00_clock7-cat2.png
subject-06,1,437,1.36246013641357,bear,bear,0,0437_s5n_s06_0_bear_00_bear10-bottle1.png
subject-06,1,438,0.799876928329468,cat,cat,0,0438_s5n_s06_0_cat_00_cat9-bird3.png
subject-06,1,439,0.761141061782837,oven,oven,0,0439_s5n_s06_0_oven_00_oven1-bird3.png
subject-06,1,440,0.814139127731323,bicycle,bicycle,0,0440_s5n_s06_0_bicycle_00_bicycle9-bear1.png
subject-06,1,441,1.18656301498413,cat,cat,0,0441_s5n_s06_0_cat_00_cat5-bicycle3.png
subject-06,1,442,0.870450019836426,elephant,elephant,0,0442_s5n_s06_0_elephant_00_elephant9-boat3.png
subject-06,1,443,0.794502019882202,oven,oven,0,0443_s5n_s06_0_oven_00_oven3-airplane1.png
subject-06,1,444,1.18811011314392,bear,bear,0,0444_s5n_s06_0_bear_00_bear8-bear1.png
subject-06,1,445,0.558102130889893,keyboard,keyboard,0,0445_s5n_s06_0_keyboard_00_keyboard7-clock3.png
subject-06,1,446,0.749439001083374,clock,clock,0,0446_s5n_s06_0_clock_00_clock10-bottle1.png
subject-06,1,447,1.13129806518555,bird,bird,0,0447_s5n_s06_0_bird_00_bird1-knife3.png
subject-06,1,448,1.28494381904602,boat,keyboard,0,0448_s5n_s06_0_keyboard_00_keyboard9-elephant2.png
subject-06,1,449,0.870898008346558,bird,bird,0,0449_s5n_s06_0_bird_00_bird5-car2.png
subject-06,1,450,0.590312004089355,oven,oven,0,0450_s5n_s06_0_oven_00_oven9-boat2.png
subject-06,1,451,0.976112127304077,bear,bear,0,0451_s5n_s06_0_bear_00_bear4-knife1.png
subject-06,1,452,0.853669881820679,elephant,elephant,0,0452_s5n_s06_0_elephant_00_elephant4-car3.png
subject-06,1,453,0.999108076095581,truck,truck,0,0453_s5n_s06_0_truck_00_truck2-elephant1.png
subject-06,1,454,1.09347796440125,clock,knife,0,0454_s5n_s06_0_knife_00_knife5-knife3.png
subject-06,1,455,0.776603937149048,keyboard,keyboard,0,0455_s5n_s06_0_keyboard_00_keyboard5-oven2.png
subject-06,1,456,1.27014589309692,bicycle,bicycle,0,0456_s5n_s06_0_bicycle_00_bicycle3-elephant2.png
subject-06,1,457,1.0782618522644,truck,knife,0,0457_s5n_s06_0_knife_00_knife8-truck3.png
subject-06,1,458,0.75568413734436,clock,clock,0,0458_s5n_s06_0_clock_00_clock5-elephant2.png
subject-06,1,459,1.15490412712097,boat,boat,0,0459_s5n_s06_0_boat_00_boat9-bird1.png
subject-06,1,460,1.20816206932068,oven,bear,0,0460_s5n_s06_0_bear_00_bear6-chair1.png
subject-06,1,461,0.939921855926514,knife,keyboard,0,0461_s5n_s06_0_keyboard_00_keyboard3-elephant2.png
subject-06,1,462,1.16381692886353,bear,bear,0,0462_s5n_s06_0_bear_00_bear6-bear1.png
subject-06,1,463,1.39617609977722,dog,dog,0,0463_s5n_s06_0_dog_00_dog2-airplane2.png
subject-06,1,464,0.788388967514038,dog,bear,0,0464_s5n_s06_0_bear_00_bear6-bottle3.png
subject-06,1,465,1.34473514556885,knife,boat,0,0465_s5n_s06_0_boat_00_boat8-elephant1.png
subject-06,1,466,0.63808798789978,boat,boat,0,0466_s5n_s06_0_boat_00_boat3-bicycle2.png
subject-06,1,467,0.92388391494751,elephant,elephant,0,0467_s5n_s06_0_elephant_00_elephant2-truck2.png
subject-06,1,468,0.631579160690308,oven,oven,0,0468_s5n_s06_0_oven_00_oven9-oven1.png
subject-06,1,469,0.955288171768188,truck,truck,0,0469_s5n_s06_0_truck_00_truck5-car1.png
subject-06,1,470,0.871168851852417,truck,truck,0,0470_s5n_s06_0_truck_00_truck6-oven3.png
subject-06,1,471,1.25757884979248,elephant,elephant,0,0471_s5n_s06_0_elephant_00_elephant6-truck3.png
subject-06,1,472,0.897055864334106,knife,knife,0,0472_s5n_s06_0_knife_00_knife9-chair1.png
subject-06,1,473,0.734422206878662,car,car,0,0473_s5n_s06_0_car_00_car9-cat1.png
subject-06,1,474,1.19042015075684,bear,bird,0,0474_s5n_s06_0_bird_00_bird2-clock3.png
subject-06,1,475,0.944762945175171,dog,dog,0,0475_s5n_s06_0_dog_00_dog7-keyboard3.png
subject-06,1,476,0.551730155944824,clock,clock,0,0476_s5n_s06_0_clock_00_clock8-airplane2.png
subject-06,1,477,1.22383213043213,airplane,airplane,0,0477_s5n_s06_0_airplane_00_airplane5-boat3.png
subject-06,1,478,1.46962094306946,oven,oven,0,0478_s5n_s06_0_oven_00_oven6-truck1.png
subject-06,1,479,1.41495203971863,clock,airplane,0,0479_s5n_s06_0_airplane_00_airplane10-car3.png
subject-06,1,480,1.00910401344299,knife,knife,0,0480_s5n_s06_0_knife_00_knife5-oven2.png
subject-06,1,481,1.50019502639771,dog,dog,0,0481_s5n_s06_0_dog_00_dog9-boat1.png
subject-06,1,482,0.589238882064819,car,car,0,0482_s5n_s06_0_car_00_car4-cat3.png
subject-06,1,483,0.784129858016968,car,car,0,0483_s5n_s06_0_car_00_car5-bottle1.png
subject-06,1,484,1.30795979499817,bear,dog,0,0484_s5n_s06_0_dog_00_dog2-knife3.png
subject-06,1,485,0.963536977767944,elephant,dog,0,0485_s5n_s06_0_dog_00_dog8-boat3.png
subject-06,1,486,0.679506063461304,cat,cat,0,0486_s5n_s06_0_cat_00_cat9-truck1.png
subject-06,1,487,0.732738018035889,dog,dog,0,0487_s5n_s06_0_dog_00_dog8-bottle2.png
subject-06,1,488,0.748085021972656,oven,oven,0,0488_s5n_s06_0_oven_00_oven8-chair1.png
subject-06,1,489,1.16352510452271,airplane,airplane,0,0489_s5n_s06_0_airplane_00_airplane6-chair3.png
subject-06,1,490,0.618221044540405,dog,dog,0,0490_s5n_s06_0_dog_00_dog4-chair1.png
subject-06,1,491,0.935547113418579,elephant,elephant,0,0491_s5n_s06_0_elephant_00_elephant8-cat1.png
subject-06,1,492,0.720028162002563,cat,cat,0,0492_s5n_s06_0_cat_00_cat2-boat2.png
subject-06,1,493,0.783249855041504,bird,bird,0,0493_s5n_s06_0_bird_00_bird5-dog2.png
subject-06,1,494,0.667137145996094,airplane,airplane,0,0494_s5n_s06_0_airplane_00_airplane10-knife3.png
subject-06,1,495,0.669153928756714,oven,oven,0,0495_s5n_s06_0_oven_00_oven6-oven3.png
subject-06,1,496,0.706291198730469,clock,clock,0,0496_s5n_s06_0_clock_00_clock3-car2.png
subject-06,1,497,0.862502813339233,bicycle,bicycle,0,0497_s5n_s06_0_bicycle_00_bicycle1-truck1.png
subject-06,1,498,1.02437090873718,truck,truck,0,0498_s5n_s06_0_truck_00_truck5-truck1.png
subject-06,1,499,0.540181159973145,bird,bird,0,0499_s5n_s06_0_bird_00_bird9-dog2.png
subject-06,1,500,1.38812899589539,airplane,airplane,0,0500_s5n_s06_0_airplane_00_airplane7-keyboard1.png
subject-06,1,501,0.611780881881714,bird,bird,0,0501_s5n_s06_0_bird_00_bird1-oven1.png
subject-06,1,502,1.2330961227417,knife,boat,0,0502_s5n_s06_0_boat_00_boat8-bird2.png
subject-06,1,503,1.2404899597168,knife,boat,0,0503_s5n_s06_0_boat_00_boat7-keyboard3.png
subject-06,1,504,0.879863023757935,elephant,bear,0,0504_s5n_s06_0_bear_00_bear7-truck1.png
subject-06,1,505,0.762705087661743,clock,clock,0,0505_s5n_s06_0_clock_00_clock3-elephant3.png
subject-06,1,506,0.994698047637939,airplane,airplane,0,0506_s5n_s06_0_airplane_00_airplane5-bear2.png
subject-06,1,507,1.25710606575012,car,car,0,0507_s5n_s06_0_car_00_car5-knife2.png
subject-06,1,508,0.704599857330322,bicycle,bicycle,0,0508_s5n_s06_0_bicycle_00_bicycle4-chair2.png
subject-06,1,509,0.828354835510254,chair,chair,0,0509_s5n_s06_0_chair_00_chair4-chair3.png
subject-06,1,510,1.50013494491577,knife,airplane,0,0510_s5n_s06_0_airplane_00_airplane5-bird2.png
subject-06,1,511,0.823274850845337,dog,dog,0,0511_s5n_s06_0_dog_00_dog1-car2.png
subject-06,1,512,0.700648069381714,chair,chair,0,0512_s5n_s06_0_chair_00_chair8-clock3.png
subject-06,1,513,1.28144598007202,airplane,airplane,0,0513_s5n_s06_0_airplane_00_airplane5-bottle3.png
subject-06,1,514,0.913021802902222,cat,cat,0,0514_s5n_s06_0_cat_00_cat7-truck2.png
subject-06,1,515,0.545414209365845,bird,bird,0,0515_s5n_s06_0_bird_00_bird8-chair1.png
subject-06,1,516,0.806379079818726,elephant,elephant,0,0516_s5n_s06_0_elephant_00_elephant3-chair1.png
subject-06,1,517,NaN,na,airplane,0,0517_s5n_s06_0_airplane_00_airplane2-dog1.png
subject-06,1,518,0.807766199111938,airplane,airplane,0,0518_s5n_s06_0_airplane_00_airplane4-bicycle2.png
subject-06,1,519,0.715718984603882,chair,chair,0,0519_s5n_s06_0_chair_00_chair4-truck2.png
subject-06,1,520,0.815253019332886,truck,truck,0,0520_s5n_s06_0_truck_00_truck10-truck3.png
subject-06,1,521,0.564060926437378,clock,clock,0,0521_s5n_s06_0_clock_00_clock4-elephant2.png
subject-06,1,522,0.657572984695435,dog,dog,0,0522_s5n_s06_0_dog_00_dog6-bird1.png
subject-06,1,523,0.895653009414673,bird,bird,0,0523_s5n_s06_0_bird_00_bird1-boat1.png
subject-06,1,524,1.14330410957336,bird,bird,0,0524_s5n_s06_0_bird_00_bird2-knife1.png
subject-06,1,525,0.867141008377075,airplane,airplane,0,0525_s5n_s06_0_airplane_00_airplane7-clock3.png
subject-06,1,526,0.75052809715271,oven,oven,0,0526_s5n_s06_0_oven_00_oven4-truck3.png
subject-06,1,527,0.735741853713989,dog,bear,0,0527_s5n_s06_0_bear_00_bear1-bicycle3.png
subject-06,1,528,0.72720193862915,knife,knife,0,0528_s5n_s06_0_knife_00_knife5-dog1.png
subject-06,1,529,0.645416021347046,bottle,bottle,0,0529_s5n_s06_0_bottle_00_bottle4-bicycle1.png
subject-06,1,530,0.737003087997437,keyboard,keyboard,0,0530_s5n_s06_0_keyboard_00_keyboard7-knife1.png
subject-06,1,531,0.552673101425171,oven,oven,0,0531_s5n_s06_0_oven_00_oven4-knife2.png
subject-06,1,532,1.2387490272522,knife,boat,0,0532_s5n_s06_0_boat_00_boat4-boat3.png
subject-06,1,533,0.587001085281372,keyboard,keyboard,0,0533_s5n_s06_0_keyboard_00_keyboard9-keyboard2.png
subject-06,1,534,0.702699899673462,bicycle,bicycle,0,0534_s5n_s06_0_bicycle_00_bicycle8-chair2.png
subject-06,1,535,0.688813924789429,keyboard,keyboard,0,0535_s5n_s06_0_keyboard_00_keyboard5-bird3.png
subject-06,1,536,0.69649600982666,bird,airplane,0,0536_s5n_s06_0_airplane_00_airplane7-cat3.png
subject-06,1,537,1.44216299057007,elephant,bear,0,0537_s5n_s06_0_bear_00_bear9-dog1.png
subject-06,1,538,0.62850284576416,dog,dog,0,0538_s5n_s06_0_dog_00_dog4-bicycle1.png
subject-06,1,539,0.843277931213379,car,car,0,0539_s5n_s06_0_car_00_car9-clock2.png
subject-06,1,540,1.33421111106873,bicycle,bicycle,0,0540_s5n_s06_0_bicycle_00_bicycle8-clock3.png
subject-06,1,541,0.95038890838623,truck,truck,0,0541_s5n_s06_0_truck_00_truck2-boat3.png
subject-06,1,542,1.01885509490967,dog,dog,0,0542_s5n_s06_0_dog_00_dog5-elephant1.png
subject-06,1,543,0.605341911315918,bicycle,bicycle,0,0543_s5n_s06_0_bicycle_00_bicycle9-bottle1.png
subject-06,1,544,0.651473999023438,cat,cat,0,0544_s5n_s06_0_cat_00_cat4-chair2.png
subject-06,1,545,1.29124712944031,truck,truck,0,0545_s5n_s06_0_truck_00_truck8-dog3.png
subject-06,1,546,0.809478998184204,bicycle,bicycle,0,0546_s5n_s06_0_bicycle_00_bicycle9-chair1.png
subject-06,1,547,0.777387142181396,bird,bird,0,0547_s5n_s06_0_bird_00_bird10-cat1.png
subject-06,1,548,1.20114803314209,car,car,0,0548_s5n_s06_0_car_00_car6-knife1.png
subject-06,1,549,0.908804893493652,dog,elephant,0,0549_s5n_s06_0_elephant_00_elephant4-bird1.png
subject-06,1,550,1.14043307304382,keyboard,keyboard,0,0550_s5n_s06_0_keyboard_00_keyboard7-bear2.png
subject-06,1,551,1.06381297111511,bicycle,bicycle,0,0551_s5n_s06_0_bicycle_00_bicycle5-dog2.png
subject-06,1,552,1.46371293067932,boat,boat,0,0552_s5n_s06_0_boat_00_boat9-boat3.png
subject-06,1,553,0.83401083946228,cat,cat,0,0553_s5n_s06_0_cat_00_cat6-keyboard3.png
subject-06,1,554,1.3908748626709,truck,truck,0,0554_s5n_s06_0_truck_00_truck6-bottle3.png
subject-06,1,555,1.26015901565552,oven,oven,0,0555_s5n_s06_0_oven_00_oven2-boat3.png
subject-06,1,556,0.630733966827393,bicycle,bicycle,0,0556_s5n_s06_0_bicycle_00_bicycle7-oven1.png
subject-06,1,557,1.18688607215881,knife,boat,0,0557_s5n_s06_0_boat_00_boat2-bear3.png
subject-06,1,558,0.902912855148315,bear,bear,0,0558_s5n_s06_0_bear_00_bear8-bicycle3.png
subject-06,1,559,1.03458714485168,elephant,elephant,0,0559_s5n_s06_0_elephant_00_elephant6-bird1.png
subject-06,1,560,0.750116109848022,car,car,0,0560_s5n_s06_0_car_00_car5-truck3.png
subject-06,1,561,0.581676006317139,keyboard,keyboard,0,0561_s5n_s06_0_keyboard_00_keyboard5-airplane3.png
subject-06,1,562,0.751643896102905,oven,oven,0,0562_s5n_s06_0_oven_00_oven3-clock3.png
subject-06,1,563,1.42117285728455,truck,truck,0,0563_s5n_s06_0_truck_00_truck7-elephant2.png
subject-06,1,564,0.567221879959106,bicycle,bicycle,0,0564_s5n_s06_0_bicycle_00_bicycle7-cat1.png
subject-06,1,565,0.798393964767456,cat,cat,0,0565_s5n_s06_0_cat_00_cat2-knife3.png
subject-06,1,566,0.522056818008423,oven,oven,0,0566_s5n_s06_0_oven_00_oven9-knife3.png
subject-06,1,567,0.705266952514648,bear,bear,0,0567_s5n_s06_0_bear_00_bear8-bottle1.png
subject-06,1,568,1.09198403358459,cat,cat,0,0568_s5n_s06_0_cat_00_cat6-clock3.png
subject-06,1,569,0.88618803024292,knife,knife,0,0569_s5n_s06_0_knife_00_knife6-oven3.png
subject-06,1,570,1.16374111175537,car,car,0,0570_s5n_s06_0_car_00_car8-truck3.png
subject-06,1,571,1.08722805976868,bear,bottle,0,0571_s5n_s06_0_bottle_00_bottle7-elephant2.png
subject-06,1,572,1.01654100418091,bicycle,bicycle,0,0572_s5n_s06_0_bicycle_00_bicycle5-oven3.png
subject-06,1,573,1.12375593185425,bear,bear,0,0573_s5n_s06_0_bear_00_bear2-car2.png
subject-06,1,574,1.13932394981384,bird,bird,0,0574_s5n_s06_0_bird_00_bird8-bottle1.png
subject-06,1,575,0.65502405166626,oven,oven,0,0575_s5n_s06_0_oven_00_oven9-bird3.png
subject-06,1,576,0.678454160690308,clock,clock,0,0576_s5n_s06_0_clock_00_clock5-airplane1.png
subject-06,1,577,1.15580916404724,keyboard,keyboard,0,0577_s5n_s06_0_keyboard_00_keyboard10-airplane3.png
subject-06,1,578,0.823091983795166,truck,truck,0,0578_s5n_s06_0_truck_00_truck9-boat3.png
subject-06,1,579,0.946265935897827,clock,clock,0,0579_s5n_s06_0_clock_00_clock10-oven2.png
subject-06,1,580,0.746509075164795,oven,chair,0,0580_s5n_s06_0_chair_00_chair6-truck2.png
subject-06,1,581,0.740142107009888,airplane,airplane,0,0581_s5n_s06_0_airplane_00_airplane5-oven3.png
subject-06,1,582,0.747687101364136,cat,cat,0,0582_s5n_s06_0_cat_00_cat5-bottle1.png
subject-06,1,583,0.9100182056427,airplane,airplane,0,0583_s5n_s06_0_airplane_00_airplane3-car1.png
subject-06,1,584,0.765321969985962,cat,boat,0,0584_s5n_s06_0_boat_00_boat6-cat1.png
subject-06,1,585,1.28166699409485,bird,bird,0,0585_s5n_s06_0_bird_00_bird9-bicycle3.png
subject-06,1,586,0.697419166564941,bear,bear,0,0586_s5n_s06_0_bear_00_bear5-airplane3.png
subject-06,1,587,0.759384155273438,airplane,airplane,0,0587_s5n_s06_0_airplane_00_airplane2-bear1.png
subject-06,1,588,0.72887396812439,airplane,knife,0,0588_s5n_s06_0_knife_00_knife1-keyboard3.png
subject-06,1,589,0.614970922470093,cat,cat,0,0589_s5n_s06_0_cat_00_cat8-car2.png
subject-06,1,590,0.893253087997437,bird,bird,0,0590_s5n_s06_0_bird_00_bird8-keyboard2.png
subject-06,1,591,0.716844797134399,bottle,bottle,0,0591_s5n_s06_0_bottle_00_bottle3-knife3.png
subject-06,1,592,0.662322998046875,keyboard,keyboard,0,0592_s5n_s06_0_keyboard_00_keyboard5-bicycle1.png
subject-06,1,593,0.834161043167114,bear,elephant,0,0593_s5n_s06_0_elephant_00_elephant8-truck3.png
subject-06,1,594,0.780485868453979,bicycle,bicycle,0,0594_s5n_s06_0_bicycle_00_bicycle9-bird3.png
subject-06,1,595,0.859009981155396,clock,airplane,0,0595_s5n_s06_0_airplane_00_airplane3-clock1.png
subject-06,1,596,0.953243970870972,keyboard,keyboard,0,0596_s5n_s06_0_keyboard_00_keyboard7-dog1.png
subject-06,1,597,0.593291997909546,keyboard,keyboard,0,0597_s5n_s06_0_keyboard_00_keyboard1-clock1.png
subject-06,1,598,0.524569988250732,cat,cat,0,0598_s5n_s06_0_cat_00_cat1-boat1.png
subject-06,1,599,0.786747932434082,dog,dog,0,0599_s5n_s06_0_dog_00_dog2-cat1.png
subject-06,1,600,1.46447801589966,oven,oven,0,0600_s5n_s06_0_oven_00_oven3-elephant3.png
subject-06,1,601,0.842044830322266,knife,knife,0,0601_s5n_s06_0_knife_00_knife3-cat1.png
subject-06,1,602,1.50032186508179,truck,truck,0,0602_s5n_s06_0_truck_00_truck6-bear2.png
subject-06,1,603,0.581778049468994,clock,clock,0,0603_s5n_s06_0_clock_00_clock2-elephant2.png
subject-06,1,604,0.873168230056763,chair,chair,0,0604_s5n_s06_0_chair_00_chair7-chair1.png
subject-06,1,605,0.842609882354736,knife,knife,0,0605_s5n_s06_0_knife_00_knife6-truck1.png
subject-06,1,606,0.85868501663208,truck,truck,0,0606_s5n_s06_0_truck_00_truck2-car3.png
subject-06,1,607,0.982562065124512,dog,bear,0,0607_s5n_s06_0_bear_00_bear1-bird2.png
subject-06,1,608,0.766139984130859,truck,truck,0,0608_s5n_s06_0_truck_00_truck3-cat1.png
subject-06,1,609,0.651823997497559,knife,knife,0,0609_s5n_s06_0_knife_00_knife1-bird2.png
subject-06,1,610,0.813899040222168,truck,truck,0,0610_s5n_s06_0_truck_00_truck6-knife2.png
subject-06,1,611,0.799535989761353,chair,chair,0,0611_s5n_s06_0_chair_00_chair7-car2.png
subject-06,1,612,0.939461946487427,truck,cat,0,0612_s5n_s06_0_cat_00_cat3-truck3.png
subject-06,1,613,0.639039993286133,bottle,bottle,0,0613_s5n_s06_0_bottle_00_bottle2-chair3.png
subject-06,1,614,0.900290012359619,truck,boat,0,0614_s5n_s06_0_boat_00_boat1-truck3.png
subject-06,1,615,1.28387212753296,elephant,elephant,0,0615_s5n_s06_0_elephant_00_elephant9-clock3.png
subject-06,1,616,0.783422946929932,airplane,airplane,0,0616_s5n_s06_0_airplane_00_airplane7-bird3.png
subject-06,1,617,0.547165870666504,clock,clock,0,0617_s5n_s06_0_clock_00_clock3-dog2.png
subject-06,1,618,0.592537879943848,keyboard,keyboard,0,0618_s5n_s06_0_keyboard_00_keyboard8-truck3.png
subject-06,1,619,0.792001008987427,knife,knife,0,0619_s5n_s06_0_knife_00_knife1-oven1.png
subject-06,1,620,0.540564060211182,cat,cat,0,0620_s5n_s06_0_cat_00_cat6-oven1.png
subject-06,1,621,0.556642055511475,clock,clock,0,0621_s5n_s06_0_clock_00_clock6-chair3.png
subject-06,1,622,0.998201131820679,dog,bear,0,0622_s5n_s06_0_bear_00_bear9-keyboard3.png
subject-06,1,623,0.52195405960083,chair,oven,0,0623_s5n_s06_0_oven_00_oven7-elephant1.png
subject-06,1,624,0.999598979949951,airplane,airplane,0,0624_s5n_s06_0_airplane_00_airplane8-elephant3.png
subject-06,1,625,0.777205944061279,dog,bear,0,0625_s5n_s06_0_bear_00_bear10-keyboard3.png
subject-06,1,626,0.576432943344116,bottle,bottle,0,0626_s5n_s06_0_bottle_00_bottle10-truck3.png
subject-06,1,627,1.07081007957458,oven,oven,0,0627_s5n_s06_0_oven_00_oven6-bicycle1.png
subject-06,1,628,0.769885063171387,clock,clock,0,0628_s5n_s06_0_clock_00_clock8-knife1.png
subject-06,1,629,1.06983208656311,clock,clock,0,0629_s5n_s06_0_clock_00_clock10-bird3.png
subject-06,1,630,0.961140155792236,keyboard,keyboard,0,0630_s5n_s06_0_keyboard_00_keyboard8-airplane2.png
subject-06,1,631,0.884478092193604,knife,knife,0,0631_s5n_s06_0_knife_00_knife1-chair1.png
subject-06,1,632,1.2301390171051,cat,cat,0,0632_s5n_s06_0_cat_00_cat1-cat3.png
subject-06,1,633,0.747781038284302,elephant,elephant,0,0633_s5n_s06_0_elephant_00_elephant8-boat2.png
subject-06,1,634,0.893659830093384,bicycle,bicycle,0,0634_s5n_s06_0_bicycle_00_bicycle2-keyboard2.png
subject-06,1,635,1.03370094299316,bird,bird,0,0635_s5n_s06_0_bird_00_bird6-car3.png
subject-06,1,636,1.05886101722717,truck,dog,0,0636_s5n_s06_0_dog_00_dog5-truck2.png
subject-06,1,637,0.561071157455444,bottle,bottle,0,0637_s5n_s06_0_bottle_00_bottle5-elephant1.png
subject-06,1,638,0.768310070037842,car,car,0,0638_s5n_s06_0_car_00_car7-elephant3.png
subject-06,1,639,1.50035881996155,dog,dog,0,0639_s5n_s06_0_dog_00_dog4-oven1.png
subject-06,1,640,0.807773113250732,clock,clock,0,0640_s5n_s06_0_clock_00_clock5-bicycle1.png
subject-06,1,641,0.955579042434692,knife,knife,0,0641_s5n_s06_0_knife_00_knife6-bird1.png
subject-06,1,642,1.00103712081909,knife,boat,0,0642_s5n_s06_0_boat_00_boat2-bird1.png
subject-06,1,643,0.716872930526733,oven,oven,0,0643_s5n_s06_0_oven_00_oven9-car2.png
subject-06,1,644,0.570202112197876,clock,clock,0,0644_s5n_s06_0_clock_00_clock2-bicycle1.png
subject-06,1,645,0.8229660987854,oven,car,0,0645_s5n_s06_0_car_00_car1-dog2.png
subject-06,1,646,0.630717992782593,car,car,0,0646_s5n_s06_0_car_00_car7-bear1.png
subject-06,1,647,1.13233709335327,bicycle,bear,0,0647_s5n_s06_0_bear_00_bear2-keyboard2.png
subject-06,1,648,0.685781002044678,bicycle,bicycle,0,0648_s5n_s06_0_bicycle_00_bicycle4-bicycle3.png
subject-06,1,649,0.748070001602173,airplane,airplane,0,0649_s5n_s06_0_airplane_00_airplane8-truck3.png
subject-06,1,650,0.742695808410645,cat,cat,0,0650_s5n_s06_0_cat_00_cat8-bear1.png
subject-06,1,651,1.38215208053589,bird,cat,0,0651_s5n_s06_0_cat_00_cat4-knife1.png
subject-06,1,652,0.735491991043091,chair,chair,0,0652_s5n_s06_0_chair_00_chair7-clock3.png
subject-06,1,653,0.897072076797485,car,car,0,0653_s5n_s06_0_car_00_car8-dog1.png
subject-06,1,654,0.903770923614502,chair,chair,0,0654_s5n_s06_0_chair_00_chair6-elephant2.png
subject-06,1,655,0.982158899307251,elephant,elephant,0,0655_s5n_s06_0_elephant_00_elephant4-clock3.png
subject-06,1,656,0.876755952835083,truck,oven,0,0656_s5n_s06_0_oven_00_oven7-clock2.png
subject-06,1,657,0.906481027603149,dog,dog,0,0657_s5n_s06_0_dog_00_dog1-dog2.png
subject-06,1,658,0.762162923812866,truck,truck,0,0658_s5n_s06_0_truck_00_truck1-chair2.png
subject-06,1,659,0.90013313293457,car,car,0,0659_s5n_s06_0_car_00_car1-clock2.png
subject-06,1,660,0.648069143295288,bird,bird,0,0660_s5n_s06_0_bird_00_bird10-bicycle1.png
subject-06,1,661,0.923505067825317,bird,bird,0,0661_s5n_s06_0_bird_00_bird2-dog2.png
subject-06,1,662,1.05491185188293,elephant,elephant,0,0662_s5n_s06_0_elephant_00_elephant9-bicycle2.png
subject-06,1,663,0.846181869506836,car,car,0,0663_s5n_s06_0_car_00_car1-oven3.png
subject-06,1,664,1.3916540145874,dog,boat,0,0664_s5n_s06_0_boat_00_boat7-cat3.png
subject-06,1,665,1.03702878952026,car,car,0,0665_s5n_s06_0_car_00_car3-boat1.png
subject-06,1,666,0.7305748462677,bird,bird,0,0666_s5n_s06_0_bird_00_bird4-dog3.png
subject-06,1,667,0.500241994857788,cat,cat,0,0667_s5n_s06_0_cat_00_cat1-bird1.png
subject-06,1,668,0.853241920471191,keyboard,keyboard,0,0668_s5n_s06_0_keyboard_00_keyboard8-keyboard2.png
subject-06,1,669,1.28258991241455,bird,bear,0,0669_s5n_s06_0_bear_00_bear6-car2.png
subject-06,1,670,0.706212997436523,airplane,airplane,0,0670_s5n_s06_0_airplane_00_airplane10-truck1.png
subject-06,1,671,0.571099996566772,bottle,bottle,0,0671_s5n_s06_0_bottle_00_bottle6-oven3.png
subject-06,1,672,1.29289603233337,chair,chair,0,0672_s5n_s06_0_chair_00_chair8-bear1.png
subject-06,1,673,0.724471092224121,boat,boat,0,0673_s5n_s06_0_boat_00_boat3-chair3.png
subject-06,1,674,1.12327694892883,cat,cat,0,0674_s5n_s06_0_cat_00_cat5-bear2.png
subject-06,1,675,1.07169103622437,oven,oven,0,0675_s5n_s06_0_oven_00_oven10-oven3.png
subject-06,1,676,0.641600131988525,clock,clock,0,0676_s5n_s06_0_clock_00_clock4-airplane1.png
subject-06,1,677,0.817414999008179,keyboard,keyboard,0,0677_s5n_s06_0_keyboard_00_keyboard6-knife2.png
subject-06,1,678,0.68724799156189,chair,chair,0,0678_s5n_s06_0_chair_00_chair9-elephant1.png
subject-06,1,679,0.713815927505493,clock,clock,0,0679_s5n_s06_0_clock_00_clock2-clock3.png
subject-06,1,680,0.87321400642395,cat,cat,0,0680_s5n_s06_0_cat_00_cat7-airplane2.png
subject-06,1,681,0.643160104751587,keyboard,keyboard,0,0681_s5n_s06_0_keyboard_00_keyboard10-oven3.png
subject-06,1,682,0.836481094360352,truck,truck,0,0682_s5n_s06_0_truck_00_truck8-elephant1.png
subject-06,1,683,0.689653158187866,keyboard,boat,0,0683_s5n_s06_0_boat_00_boat4-knife2.png
subject-06,1,684,0.748802900314331,bicycle,bicycle,0,0684_s5n_s06_0_bicycle_00_bicycle4-bottle1.png
subject-06,1,685,0.663109064102173,chair,chair,0,0685_s5n_s06_0_chair_00_chair8-oven1.png
subject-06,1,686,1.10002303123474,elephant,elephant,0,0686_s5n_s06_0_elephant_00_elephant7-airplane3.png
subject-06,1,687,1.1297459602356,truck,truck,0,0687_s5n_s06_0_truck_00_truck6-boat2.png
subject-06,1,688,0.869667053222656,car,car,0,0688_s5n_s06_0_car_00_car6-bottle1.png
subject-06,1,689,1.13896012306213,cat,boat,0,0689_s5n_s06_0_boat_00_boat5-airplane1.png
subject-06,1,690,0.701694011688232,truck,truck,0,0690_s5n_s06_0_truck_00_truck2-airplane3.png
subject-06,1,691,0.678347110748291,car,car,0,0691_s5n_s06_0_car_00_car2-bird3.png
subject-06,1,692,1.04621195793152,bear,bear,0,0692_s5n_s06_0_bear_00_bear8-truck3.png
subject-06,1,693,0.607830047607422,cat,cat,0,0693_s5n_s06_0_cat_00_cat2-bottle3.png
subject-06,1,694,0.847426891326904,bicycle,bicycle,0,0694_s5n_s06_0_bicycle_00_bicycle1-airplane2.png
subject-06,1,695,1.09342312812805,bicycle,bicycle,0,0695_s5n_s06_0_bicycle_00_bicycle2-knife2.png
subject-06,1,696,0.755132913589478,car,car,0,0696_s5n_s06_0_car_00_car8-bicycle2.png
subject-06,1,697,0.648563861846924,keyboard,keyboard,0,0697_s5n_s06_0_keyboard_00_keyboard6-bicycle1.png
subject-06,1,698,0.924667119979858,bear,bear,0,0698_s5n_s06_0_bear_00_bear10-knife2.png
subject-06,1,699,0.989028930664062,knife,boat,0,0699_s5n_s06_0_boat_00_boat6-car1.png
subject-06,1,700,0.712782144546509,bird,bird,0,0700_s5n_s06_0_bird_00_bird3-knife3.png
subject-06,1,701,0.821171045303345,oven,oven,0,0701_s5n_s06_0_oven_00_oven4-bottle2.png
subject-06,1,702,0.782583951950073,bicycle,bicycle,0,0702_s5n_s06_0_bicycle_00_bicycle9-knife3.png
subject-06,1,703,0.798177003860474,boat,boat,0,0703_s5n_s06_0_boat_00_boat1-bear1.png
subject-06,1,704,0.668361186981201,keyboard,knife,0,0704_s5n_s06_0_knife_00_knife8-bicycle1.png
subject-06,1,705,1.48411583900452,boat,airplane,0,0705_s5n_s06_0_airplane_00_airplane9-clock1.png
subject-06,1,706,0.791522026062012,knife,knife,0,0706_s5n_s06_0_knife_00_knife7-chair2.png
subject-06,1,707,0.675061941146851,bird,bird,0,0707_s5n_s06_0_bird_00_bird2-airplane3.png
subject-06,1,708,0.638543128967285,keyboard,keyboard,0,0708_s5n_s06_0_keyboard_00_keyboard6-elephant1.png
subject-06,1,709,1.49278402328491,knife,airplane,0,0709_s5n_s06_0_airplane_00_airplane9-car2.png
subject-06,1,710,0.88465404510498,bicycle,bicycle,0,0710_s5n_s06_0_bicycle_00_bicycle4-clock3.png
subject-06,1,711,0.778143882751465,truck,truck,0,0711_s5n_s06_0_truck_00_truck2-bicycle2.png
subject-06,1,712,0.909664154052734,elephant,elephant,0,0712_s5n_s06_0_elephant_00_elephant2-bottle3.png
subject-06,1,713,0.584934949874878,chair,chair,0,0713_s5n_s06_0_chair_00_chair9-chair3.png
subject-06,1,714,0.746318101882935,bicycle,bicycle,0,0714_s5n_s06_0_bicycle_00_bicycle2-car2.png
subject-06,1,715,0.692023992538452,car,clock,0,0715_s5n_s06_0_clock_00_clock10-truck2.png
subject-06,1,716,0.961414098739624,car,car,0,0716_s5n_s06_0_car_00_car8-knife2.png
subject-06,1,717,0.739357948303223,bird,bird,0,0717_s5n_s06_0_bird_00_bird10-chair1.png
subject-06,1,718,1.10103011131287,oven,truck,0,0718_s5n_s06_0_truck_00_truck5-cat3.png
subject-06,1,719,0.586867094039917,bird,bird,0,0719_s5n_s06_0_bird_00_bird4-bicycle2.png
subject-06,1,720,0.986404895782471,bicycle,bicycle,0,0720_s5n_s06_0_bicycle_00_bicycle8-boat1.png
subject-06,1,721,0.680561780929565,keyboard,keyboard,0,0721_s5n_s06_0_keyboard_00_keyboard2-clock1.png
subject-06,1,722,1.01670479774475,knife,bottle,0,0722_s5n_s06_0_bottle_00_bottle1-keyboard3.png
subject-06,1,723,0.870741128921509,truck,truck,0,0723_s5n_s06_0_truck_00_truck6-dog2.png
subject-06,1,724,0.801728963851929,oven,oven,0,0724_s5n_s06_0_oven_00_oven10-truck2.png
subject-06,1,725,0.547008037567139,boat,boat,0,0725_s5n_s06_0_boat_00_boat1-bicycle2.png
subject-06,1,726,0.817193984985352,bottle,bottle,0,0726_s5n_s06_0_bottle_00_bottle1-bear1.png
subject-06,1,727,0.703047037124634,bottle,bottle,0,0727_s5n_s06_0_bottle_00_bottle3-bicycle3.png
subject-06,1,728,1.21109485626221,cat,cat,0,0728_s5n_s06_0_cat_00_cat7-dog3.png
subject-06,1,729,0.751286029815674,chair,chair,0,0729_s5n_s06_0_chair_00_chair7-boat3.png
subject-06,1,730,0.543165922164917,bottle,bottle,0,0730_s5n_s06_0_bottle_00_bottle4-airplane1.png
subject-06,1,731,0.937294960021973,knife,boat,0,0731_s5n_s06_0_boat_00_boat8-oven1.png
subject-06,1,732,0.652832984924316,keyboard,keyboard,0,0732_s5n_s06_0_keyboard_00_keyboard10-keyboard1.png
subject-06,1,733,0.890214920043945,clock,clock,0,0733_s5n_s06_0_clock_00_clock8-truck2.png
subject-06,1,734,0.784517049789429,elephant,elephant,0,0734_s5n_s06_0_elephant_00_elephant8-bicycle3.png
subject-06,1,735,0.987231969833374,knife,boat,0,0735_s5n_s06_0_boat_00_boat6-airplane2.png
subject-06,1,736,0.973014116287231,bird,bird,0,0736_s5n_s06_0_bird_00_bird3-oven1.png
subject-06,1,737,0.672461986541748,chair,chair,0,0737_s5n_s06_0_chair_00_chair5-knife3.png
subject-06,1,738,0.68976092338562,oven,oven,0,0738_s5n_s06_0_oven_00_oven2-chair1.png
subject-06,1,739,0.705034017562866,clock,clock,0,0739_s5n_s06_0_clock_00_clock4-oven1.png
subject-06,1,740,0.973663091659546,knife,boat,0,0740_s5n_s06_0_boat_00_boat1-oven1.png
subject-06,1,741,0.86503005027771,elephant,elephant,0,0741_s5n_s06_0_elephant_00_elephant2-clock1.png
subject-06,1,742,0.680540084838867,car,car,0,0742_s5n_s06_0_car_00_car6-elephant3.png
subject-06,1,743,0.957874059677124,elephant,elephant,0,0743_s5n_s06_0_elephant_00_elephant3-oven1.png
subject-06,1,744,0.803888082504272,keyboard,keyboard,0,0744_s5n_s06_0_keyboard_00_keyboard5-dog3.png
subject-06,1,745,0.676080942153931,bird,airplane,0,0745_s5n_s06_0_airplane_00_airplane7-truck1.png
subject-06,1,746,0.991447925567627,keyboard,keyboard,0,0746_s5n_s06_0_keyboard_00_keyboard9-cat1.png
subject-06,1,747,1.10512113571167,keyboard,knife,0,0747_s5n_s06_0_knife_00_knife9-bottle2.png
subject-06,1,748,1.23749017715454,dog,bear,0,0748_s5n_s06_0_bear_00_bear6-boat3.png
subject-06,1,749,0.576941967010498,dog,dog,0,0749_s5n_s06_0_dog_00_dog10-clock1.png
subject-06,1,750,0.600520133972168,dog,dog,0,0750_s5n_s06_0_dog_00_dog3-truck2.png
subject-06,1,751,0.524318933486938,car,car,0,0751_s5n_s06_0_car_00_car4-clock1.png
subject-06,1,752,0.91596794128418,bird,bird,0,0752_s5n_s06_0_bird_00_bird8-boat3.png
subject-06,1,753,0.847519874572754,dog,bear,0,0753_s5n_s06_0_bear_00_bear7-clock1.png
subject-06,1,754,0.733843088150024,keyboard,keyboard,0,0754_s5n_s06_0_keyboard_00_keyboard4-bird1.png
subject-06,1,755,1.01118206977844,elephant,bear,0,0755_s5n_s06_0_bear_00_bear3-car2.png
subject-06,1,756,0.871828079223633,bicycle,bicycle,0,0756_s5n_s06_0_bicycle_00_bicycle9-cat3.png
subject-06,1,757,0.712133884429932,bicycle,bicycle,0,0757_s5n_s06_0_bicycle_00_bicycle7-clock3.png
subject-06,1,758,1.24523282051086,dog,dog,0,0758_s5n_s06_0_dog_00_dog8-clock2.png
subject-06,1,759,0.784958839416504,cat,airplane,0,0759_s5n_s06_0_airplane_00_airplane2-cat1.png
subject-06,1,760,0.713955163955688,chair,bottle,0,0760_s5n_s06_0_bottle_00_bottle7-oven2.png
subject-06,1,761,1.02424097061157,oven,oven,0,0761_s5n_s06_0_oven_00_oven6-elephant2.png
subject-06,1,762,0.969415903091431,clock,clock,0,0762_s5n_s06_0_clock_00_clock9-keyboard2.png
subject-06,1,763,0.831343173980713,bear,bear,0,0763_s5n_s06_0_bear_00_bear5-bottle1.png
subject-06,1,764,0.766072034835815,car,airplane,0,0764_s5n_s06_0_airplane_00_airplane4-truck2.png
subject-06,1,765,0.811930894851685,bear,bear,0,0765_s5n_s06_0_bear_00_bear8-boat2.png
subject-06,1,766,1.08202195167542,truck,truck,0,0766_s5n_s06_0_truck_00_truck10-airplane1.png
subject-06,1,767,0.724631071090698,clock,clock,0,0767_s5n_s06_0_clock_00_clock10-clock3.png
subject-06,1,768,0.969589948654175,knife,knife,0,0768_s5n_s06_0_knife_00_knife6-boat3.png
subject-06,1,769,0.714773893356323,chair,oven,0,0769_s5n_s06_0_oven_00_oven7-bottle1.png
subject-06,1,770,0.585475921630859,clock,clock,0,0770_s5n_s06_0_clock_00_clock4-bottle3.png
subject-06,1,771,0.701053142547607,airplane,airplane,0,0771_s5n_s06_0_airplane_00_airplane7-car1.png
subject-06,1,772,0.619698047637939,bottle,bottle,0,0772_s5n_s06_0_bottle_00_bottle9-truck1.png
subject-06,1,773,0.621827840805054,keyboard,keyboard,0,0773_s5n_s06_0_keyboard_00_keyboard6-bear2.png
subject-06,1,774,0.790930986404419,oven,cat,0,0774_s5n_s06_0_cat_00_cat5-chair3.png
subject-06,1,775,0.806056022644043,car,car,0,0775_s5n_s06_0_car_00_car1-chair3.png
subject-06,1,776,0.737649917602539,knife,knife,0,0776_s5n_s06_0_knife_00_knife1-elephant1.png
subject-06,1,777,0.799186944961548,car,knife,0,0777_s5n_s06_0_knife_00_knife2-truck2.png
subject-06,1,778,0.882918119430542,car,car,0,0778_s5n_s06_0_car_00_car10-elephant2.png
subject-06,1,779,1.42282891273499,clock,airplane,0,0779_s5n_s06_0_airplane_00_airplane3-keyboard2.png
subject-06,1,780,0.538557052612305,clock,clock,0,0780_s5n_s06_0_clock_00_clock6-bicycle1.png
subject-06,1,781,0.748669147491455,elephant,elephant,0,0781_s5n_s06_0_elephant_00_elephant5-car1.png
subject-06,1,782,0.680350065231323,knife,knife,0,0782_s5n_s06_0_knife_00_knife8-car2.png
subject-06,1,783,0.618216991424561,clock,clock,0,0783_s5n_s06_0_clock_00_clock5-oven1.png
subject-06,1,784,0.950026988983154,knife,knife,0,0784_s5n_s06_0_knife_00_knife2-elephant2.png
subject-06,1,785,0.603488922119141,oven,oven,0,0785_s5n_s06_0_oven_00_oven2-oven3.png
subject-06,1,786,0.767168045043945,dog,dog,0,0786_s5n_s06_0_dog_00_dog6-bicycle1.png
subject-06,1,787,0.944988965988159,truck,truck,0,0787_s5n_s06_0_truck_00_truck3-dog3.png
subject-06,1,788,0.815001964569092,bicycle,bicycle,0,0788_s5n_s06_0_bicycle_00_bicycle7-truck3.png
subject-06,1,789,0.606307029724121,bicycle,bicycle,0,0789_s5n_s06_0_bicycle_00_bicycle1-boat3.png
subject-06,1,790,0.74576997756958,clock,bear,0,0790_s5n_s06_0_bear_00_bear6-clock1.png
subject-06,1,791,1.22884392738342,truck,truck,0,0791_s5n_s06_0_truck_00_truck10-elephant3.png
subject-06,1,792,0.585602045059204,clock,clock,0,0792_s5n_s06_0_clock_00_clock1-boat3.png
subject-06,1,793,1.22489905357361,bird,bird,0,0793_s5n_s06_0_bird_00_bird7-cat3.png
subject-06,1,794,0.516679048538208,keyboard,keyboard,0,0794_s5n_s06_0_keyboard_00_keyboard9-chair2.png
subject-06,1,795,0.780649900436401,bird,bird,0,0795_s5n_s06_0_bird_00_bird4-airplane1.png
subject-06,1,796,0.726541996002197,oven,oven,0,0796_s5n_s06_0_oven_00_oven4-chair1.png
subject-06,1,797,0.665830135345459,oven,oven,0,0797_s5n_s06_0_oven_00_oven5-airplane1.png
subject-06,1,798,0.852309942245483,truck,truck,0,0798_s5n_s06_0_truck_00_truck1-bird1.png
subject-06,1,799,0.79155707359314,chair,chair,0,0799_s5n_s06_0_chair_00_chair10-cat1.png
subject-06,1,800,0.698624134063721,bear,bear,0,0800_s5n_s06_0_bear_00_bear1-clock2.png
subject-06,1,801,1.17677807807922,bicycle,bicycle,0,0801_s5n_s06_0_bicycle_00_bicycle10-airplane2.png
subject-06,1,802,0.638772964477539,bicycle,bicycle,0,0802_s5n_s06_0_bicycle_00_bicycle2-bird3.png
subject-06,1,803,0.724261999130249,bird,bird,0,0803_s5n_s06_0_bird_00_bird7-car2.png
subject-06,1,804,0.609979152679443,bird,bird,0,0804_s5n_s06_0_bird_00_bird2-car3.png
subject-06,1,805,1.50016403198242,dog,dog,0,0805_s5n_s06_0_dog_00_dog3-bear3.png
subject-06,1,806,0.620258092880249,keyboard,keyboard,0,0806_s5n_s06_0_keyboard_00_keyboard5-bottle1.png
subject-06,1,807,0.874112844467163,keyboard,keyboard,0,0807_s5n_s06_0_keyboard_00_keyboard7-bottle1.png
subject-06,1,808,0.92232084274292,truck,truck,0,0808_s5n_s06_0_truck_00_truck2-keyboard1.png
subject-06,1,809,0.814078092575073,airplane,airplane,0,0809_s5n_s06_0_airplane_00_airplane3-oven1.png
subject-06,1,810,0.699376821517944,bear,bear,0,0810_s5n_s06_0_bear_00_bear8-dog1.png
subject-06,1,811,0.861233949661255,truck,truck,0,0811_s5n_s06_0_truck_00_truck9-elephant1.png
subject-06,1,812,0.976526021957397,keyboard,keyboard,0,0812_s5n_s06_0_keyboard_00_keyboard9-bicycle2.png
subject-06,1,813,1.22123908996582,knife,knife,0,0813_s5n_s06_0_knife_00_knife7-elephant2.png
subject-06,1,814,0.790198087692261,knife,knife,0,0814_s5n_s06_0_knife_00_knife10-keyboard3.png
subject-06,1,815,0.675923109054565,knife,knife,0,0815_s5n_s06_0_knife_00_knife10-knife1.png
subject-06,1,816,0.787864923477173,truck,truck,0,0816_s5n_s06_0_truck_00_truck3-knife2.png
subject-06,1,817,0.556591033935547,boat,boat,0,0817_s5n_s06_0_boat_00_boat7-boat2.png
subject-06,1,818,0.772947072982788,elephant,elephant,0,0818_s5n_s06_0_elephant_00_elephant9-chair2.png
subject-06,1,819,0.575438022613525,chair,chair,0,0819_s5n_s06_0_chair_00_chair8-knife2.png
subject-06,1,820,0.790369987487793,bicycle,bicycle,0,0820_s5n_s06_0_bicycle_00_bicycle1-clock3.png
subject-06,1,821,0.906075000762939,boat,airplane,0,0821_s5n_s06_0_airplane_00_airplane1-elephant1.png
subject-06,1,822,0.675350904464722,bird,bird,0,0822_s5n_s06_0_bird_00_bird1-chair2.png
subject-06,1,823,0.783266067504883,dog,dog,0,0823_s5n_s06_0_dog_00_dog1-knife3.png
subject-06,1,824,0.585123062133789,keyboard,keyboard,0,0824_s5n_s06_0_keyboard_00_keyboard9-boat2.png
subject-06,1,825,0.931351184844971,knife,knife,0,0825_s5n_s06_0_knife_00_knife2-bear2.png
subject-06,1,826,0.762661933898926,airplane,airplane,0,0826_s5n_s06_0_airplane_00_airplane6-keyboard3.png
subject-06,1,827,0.616623163223267,chair,chair,0,0827_s5n_s06_0_chair_00_chair3-dog2.png
subject-06,1,828,0.467409133911133,oven,oven,0,0828_s5n_s06_0_oven_00_oven8-knife2.png
subject-06,1,829,1.30503392219543,chair,chair,0,0829_s5n_s06_0_chair_00_chair10-bird3.png
subject-06,1,830,0.582839012145996,dog,dog,0,0830_s5n_s06_0_dog_00_dog4-keyboard2.png
subject-06,1,831,0.614270210266113,knife,knife,0,0831_s5n_s06_0_knife_00_knife10-elephant3.png
subject-06,1,832,0.68413782119751,bird,bird,0,0832_s5n_s06_0_bird_00_bird3-cat1.png
subject-06,1,833,0.770503997802734,elephant,elephant,0,0833_s5n_s06_0_elephant_00_elephant7-bird1.png
subject-06,1,834,0.724291086196899,airplane,airplane,0,0834_s5n_s06_0_airplane_00_airplane4-boat3.png
subject-06,1,835,0.739563226699829,airplane,airplane,0,0835_s5n_s06_0_airplane_00_airplane4-cat3.png
subject-06,1,836,0.579622983932495,boat,boat,0,0836_s5n_s06_0_boat_00_boat5-boat3.png
subject-06,1,837,1.01683211326599,airplane,boat,0,0837_s5n_s06_0_boat_00_boat4-dog2.png
subject-06,1,838,0.88861083984375,dog,dog,0,0838_s5n_s06_0_dog_00_dog8-chair3.png
subject-06,1,839,0.527132987976074,car,car,0,0839_s5n_s06_0_car_00_car3-oven3.png
subject-06,1,840,0.717113018035889,chair,chair,0,0840_s5n_s06_0_chair_00_chair1-elephant1.png
subject-06,1,841,0.664919137954712,clock,clock,0,0841_s5n_s06_0_clock_00_clock4-car2.png
subject-06,1,842,0.804542064666748,car,boat,0,0842_s5n_s06_0_boat_00_boat1-car2.png
subject-06,1,843,1.17447280883789,airplane,boat,0,0843_s5n_s06_0_boat_00_boat4-elephant2.png
subject-06,1,844,0.997782945632935,airplane,airplane,0,0844_s5n_s06_0_airplane_00_airplane7-bottle3.png
subject-06,1,845,0.513355016708374,clock,clock,0,0845_s5n_s06_0_clock_00_clock6-clock2.png
subject-06,1,846,0.583051919937134,bottle,bottle,0,0846_s5n_s06_0_bottle_00_bottle1-car1.png
subject-06,1,847,0.982500791549683,bear,bear,0,0847_s5n_s06_0_bear_00_bear1-bear3.png
subject-06,1,848,0.673663139343262,clock,clock,0,0848_s5n_s06_0_clock_00_clock8-boat1.png
subject-06,1,849,1.0687038898468,elephant,elephant,0,0849_s5n_s06_0_elephant_00_elephant2-airplane3.png
subject-06,1,850,0.808094024658203,bird,bird,0,0850_s5n_s06_0_bird_00_bird9-chair1.png
subject-06,1,851,0.624662160873413,keyboard,keyboard,0,0851_s5n_s06_0_keyboard_00_keyboard5-knife2.png
subject-06,1,852,1.31028294563293,car,boat,0,0852_s5n_s06_0_boat_00_boat5-bicycle3.png
subject-06,1,853,0.634042024612427,cat,cat,0,0853_s5n_s06_0_cat_00_cat5-elephant2.png
subject-06,1,854,0.82756781578064,knife,knife,0,0854_s5n_s06_0_knife_00_knife9-bear3.png
subject-06,1,855,0.865120887756348,elephant,elephant,0,0855_s5n_s06_0_elephant_00_elephant9-dog3.png
subject-06,1,856,1.04820108413696,bear,bear,0,0856_s5n_s06_0_bear_00_bear8-airplane1.png
subject-06,1,857,0.57433009147644,clock,clock,0,0857_s5n_s06_0_clock_00_clock10-airplane1.png
subject-06,1,858,0.635468006134033,chair,chair,0,0858_s5n_s06_0_chair_00_chair4-bear2.png
subject-06,1,859,0.859524011611938,chair,dog,0,0859_s5n_s06_0_dog_00_dog7-oven2.png
subject-06,1,860,0.681684017181396,airplane,airplane,0,0860_s5n_s06_0_airplane_00_airplane7-boat2.png
subject-06,1,861,0.626097202301025,boat,boat,0,0861_s5n_s06_0_boat_00_boat9-knife2.png
subject-06,1,862,0.695574998855591,oven,oven,0,0862_s5n_s06_0_oven_00_oven4-keyboard3.png
subject-06,1,863,1.0524730682373,dog,dog,0,0863_s5n_s06_0_dog_00_dog4-cat3.png
subject-06,1,864,0.705945014953613,chair,chair,0,0864_s5n_s06_0_chair_00_chair8-airplane1.png
subject-06,1,865,1.23801398277283,airplane,airplane,0,0865_s5n_s06_0_airplane_00_airplane4-car1.png
subject-06,1,866,0.599389791488647,airplane,keyboard,0,0866_s5n_s06_0_keyboard_00_keyboard2-knife1.png
subject-06,1,867,0.609308004379272,airplane,airplane,0,0867_s5n_s06_0_airplane_00_airplane4-bird3.png
subject-06,1,868,0.68508505821228,bicycle,bicycle,0,0868_s5n_s06_0_bicycle_00_bicycle8-bear2.png
subject-06,1,869,0.854643106460571,car,car,0,0869_s5n_s06_0_car_00_car2-chair1.png
subject-06,1,870,0.911377906799316,car,car,0,0870_s5n_s06_0_car_00_car9-bird1.png
subject-06,1,871,0.807054996490479,boat,boat,0,0871_s5n_s06_0_boat_00_boat9-airplane2.png
subject-06,1,872,0.738580942153931,oven,oven,0,0872_s5n_s06_0_oven_00_oven10-cat2.png
subject-06,1,873,0.962806940078735,oven,cat,0,0873_s5n_s06_0_cat_00_cat4-keyboard2.png
subject-06,1,874,0.662671089172363,truck,truck,0,0874_s5n_s06_0_truck_00_truck1-bear1.png
subject-06,1,875,0.686329126358032,bear,bear,0,0875_s5n_s06_0_bear_00_bear5-boat2.png
subject-06,1,876,1.03402304649353,elephant,elephant,0,0876_s5n_s06_0_elephant_00_elephant8-elephant1.png
subject-06,1,877,0.579674959182739,chair,chair,0,0877_s5n_s06_0_chair_00_chair3-bicycle3.png
subject-06,1,878,0.595166921615601,clock,clock,0,0878_s5n_s06_0_clock_00_clock5-clock2.png
subject-06,1,879,1.28912901878357,cat,cat,0,0879_s5n_s06_0_cat_00_cat5-car2.png
subject-06,1,880,0.612773895263672,knife,knife,0,0880_s5n_s06_0_knife_00_knife9-bicycle1.png
subject-06,1,881,0.651140213012695,bottle,bottle,0,0881_s5n_s06_0_bottle_00_bottle3-bear2.png
subject-06,1,882,0.720901966094971,boat,boat,0,0882_s5n_s06_0_boat_00_boat3-dog3.png
subject-06,1,883,0.799017906188965,elephant,elephant,0,0883_s5n_s06_0_elephant_00_elephant6-car3.png
subject-06,1,884,0.638722896575928,car,car,0,0884_s5n_s06_0_car_00_car4-bird1.png
subject-06,1,885,0.846235036849976,elephant,elephant,0,0885_s5n_s06_0_elephant_00_elephant1-bear2.png
subject-06,1,886,0.673892021179199,bicycle,bicycle,0,0886_s5n_s06_0_bicycle_00_bicycle3-keyboard1.png
subject-06,1,887,0.552345037460327,boat,boat,0,0887_s5n_s06_0_boat_00_boat7-oven3.png
subject-06,1,888,0.714264869689941,elephant,elephant,0,0888_s5n_s06_0_elephant_00_elephant2-elephant3.png
subject-06,1,889,1.44577813148499,elephant,elephant,0,0889_s5n_s06_0_elephant_00_elephant3-knife1.png
subject-06,1,890,0.554143905639648,boat,boat,0,0890_s5n_s06_0_boat_00_boat2-airplane1.png
subject-06,1,891,0.623727083206177,dog,dog,0,0891_s5n_s06_0_dog_00_dog2-dog3.png
subject-06,1,892,0.671428918838501,clock,clock,0,0892_s5n_s06_0_clock_00_clock7-bear2.png
subject-06,1,893,0.808859825134277,knife,keyboard,0,0893_s5n_s06_0_keyboard_00_keyboard3-cat1.png
subject-06,1,894,0.540364980697632,dog,dog,0,0894_s5n_s06_0_dog_00_dog1-bird1.png
subject-06,1,895,0.915892124176025,car,car,0,0895_s5n_s06_0_car_00_car2-cat3.png
subject-06,1,896,0.477294921875,clock,clock,0,0896_s5n_s06_0_clock_00_clock8-keyboard1.png
subject-06,1,897,1.46387505531311,elephant,bear,0,0897_s5n_s06_0_bear_00_bear5-oven3.png
subject-06,1,898,0.77426290512085,cat,cat,0,0898_s5n_s06_0_cat_00_cat9-chair2.png
subject-06,1,899,0.798611164093018,car,car,0,0899_s5n_s06_0_car_00_car8-boat3.png
subject-06,1,900,0.946743965148926,knife,knife,0,0900_s5n_s06_0_knife_00_knife6-clock2.png
subject-06,1,901,0.616737127304077,bottle,bottle,0,0901_s5n_s06_0_bottle_00_bottle8-bicycle1.png
subject-06,1,902,0.90013599395752,knife,knife,0,0902_s5n_s06_0_knife_00_knife4-knife2.png
subject-06,1,903,0.98584508895874,bicycle,bicycle,0,0903_s5n_s06_0_bicycle_00_bicycle5-bottle3.png
subject-06,1,904,0.677824020385742,clock,clock,0,0904_s5n_s06_0_clock_00_clock9-airplane1.png
subject-06,1,905,0.671953916549683,keyboard,keyboard,0,0905_s5n_s06_0_keyboard_00_keyboard8-chair2.png
subject-06,1,906,0.879453897476196,car,car,0,0906_s5n_s06_0_car_00_car7-clock1.png
subject-06,1,907,0.625102996826172,oven,oven,0,0907_s5n_s06_0_oven_00_oven3-knife1.png
subject-06,1,908,1.04110288619995,knife,boat,0,0908_s5n_s06_0_boat_00_boat6-elephant2.png
subject-06,1,909,0.712683916091919,oven,oven,0,0909_s5n_s06_0_oven_00_oven2-bear3.png
subject-06,1,910,0.804411888122559,knife,knife,0,0910_s5n_s06_0_knife_00_knife1-dog1.png
subject-06,1,911,0.766366004943848,cat,elephant,0,0911_s5n_s06_0_elephant_00_elephant2-keyboard3.png
subject-06,1,912,0.744272232055664,bear,bear,0,0912_s5n_s06_0_bear_00_bear7-oven3.png
subject-06,1,913,0.705976963043213,oven,chair,0,0913_s5n_s06_0_chair_00_chair3-knife1.png
subject-06,1,914,1.3053560256958,bottle,bottle,0,0914_s5n_s06_0_bottle_00_bottle8-knife1.png
subject-06,1,915,0.942766189575195,bottle,bird,0,0915_s5n_s06_0_bird_00_bird3-bottle2.png
subject-06,1,916,0.828305959701538,knife,knife,0,0916_s5n_s06_0_knife_00_knife4-oven2.png
subject-06,1,917,0.598142147064209,cat,cat,0,0917_s5n_s06_0_cat_00_cat9-knife2.png
subject-06,1,918,0.783915042877197,truck,truck,0,0918_s5n_s06_0_truck_00_truck4-knife1.png
subject-06,1,919,0.676223039627075,dog,dog,0,0919_s5n_s06_0_dog_00_dog3-clock1.png
subject-06,1,920,1.12354683876038,knife,boat,0,0920_s5n_s06_0_boat_00_boat6-bicycle2.png
subject-06,1,921,0.731389999389648,bird,boat,0,0921_s5n_s06_0_boat_00_boat7-clock3.png
subject-06,1,922,0.654064893722534,knife,knife,0,0922_s5n_s06_0_knife_00_knife8-bottle3.png
subject-06,1,923,0.738062143325806,bird,bird,0,0923_s5n_s06_0_bird_00_bird3-dog1.png
subject-06,1,924,0.523751020431519,bird,bird,0,0924_s5n_s06_0_bird_00_bird10-bear2.png
subject-06,1,925,0.639214038848877,bird,cat,0,0925_s5n_s06_0_cat_00_cat10-airplane3.png
subject-06,1,926,0.558393955230713,clock,clock,0,0926_s5n_s06_0_clock_00_clock3-keyboard3.png
subject-06,1,927,0.581825971603394,keyboard,keyboard,0,0927_s5n_s06_0_keyboard_00_keyboard4-knife2.png
subject-06,1,928,0.705740928649902,knife,knife,0,0928_s5n_s06_0_knife_00_knife8-boat1.png
subject-06,1,929,1.00049209594727,bird,bird,0,0929_s5n_s06_0_bird_00_bird5-airplane3.png
subject-06,1,930,0.799772024154663,bear,bear,0,0930_s5n_s06_0_bear_00_bear2-knife2.png
subject-06,1,931,0.869608879089355,knife,knife,0,0931_s5n_s06_0_knife_00_knife2-bird1.png
subject-06,1,932,1.33963990211487,chair,bicycle,0,0932_s5n_s06_0_bicycle_00_bicycle2-bottle1.png
subject-06,1,933,0.955100774765015,dog,dog,0,0933_s5n_s06_0_dog_00_dog10-car3.png
subject-06,1,934,0.72464919090271,bird,dog,0,0934_s5n_s06_0_dog_00_dog8-keyboard3.png
subject-06,1,935,1.34870910644531,chair,chair,0,0935_s5n_s06_0_chair_00_chair8-elephant1.png
subject-06,1,936,0.848282098770142,dog,dog,0,0936_s5n_s06_0_dog_00_dog9-chair2.png
subject-06,1,937,0.62619686126709,truck,truck,0,0937_s5n_s06_0_truck_00_truck4-bottle2.png
subject-06,1,938,0.987814903259277,airplane,airplane,0,0938_s5n_s06_0_airplane_00_airplane10-elephant1.png
subject-06,1,939,1.44349789619446,truck,truck,0,0939_s5n_s06_0_truck_00_truck8-keyboard2.png
subject-06,1,940,0.656707048416138,cat,cat,0,0940_s5n_s06_0_cat_00_cat2-elephant1.png
subject-06,1,941,0.666635036468506,clock,clock,0,0941_s5n_s06_0_clock_00_clock3-cat1.png
subject-06,1,942,0.966919898986816,bear,bear,0,0942_s5n_s06_0_bear_00_bear9-bottle2.png
subject-06,1,943,0.922520875930786,cat,bottle,0,0943_s5n_s06_0_bottle_00_bottle7-keyboard2.png
subject-06,1,944,1.07650184631348,dog,truck,0,0944_s5n_s06_0_truck_00_truck3-keyboard3.png
subject-06,1,945,0.892218112945557,chair,chair,0,0945_s5n_s06_0_chair_00_chair9-keyboard2.png
subject-06,1,946,0.545569896697998,chair,chair,0,0946_s5n_s06_0_chair_00_chair5-bird1.png
subject-06,1,947,1.16137290000916,elephant,elephant,0,0947_s5n_s06_0_elephant_00_elephant2-cat1.png
subject-06,1,948,0.976988077163696,chair,oven,0,0948_s5n_s06_0_oven_00_oven7-cat1.png
subject-06,1,949,0.741742134094238,airplane,airplane,0,0949_s5n_s06_0_airplane_00_airplane4-bottle1.png
subject-06,1,950,0.781355142593384,car,car,0,0950_s5n_s06_0_car_00_car10-chair1.png
subject-06,1,951,0.680757999420166,bottle,bottle,0,0951_s5n_s06_0_bottle_00_bottle9-cat2.png
subject-06,1,952,0.696403980255127,oven,oven,0,0952_s5n_s06_0_oven_00_oven2-truck3.png
subject-06,1,953,1.03363919258118,airplane,bird,0,0953_s5n_s06_0_bird_00_bird5-truck2.png
subject-06,1,954,0.589395999908447,airplane,airplane,0,0954_s5n_s06_0_airplane_00_airplane4-airplane1.png
subject-06,1,955,0.656697034835815,car,car,0,0955_s5n_s06_0_car_00_car1-keyboard2.png
subject-06,1,956,0.772300958633423,car,boat,0,0956_s5n_s06_0_boat_00_boat10-boat3.png
subject-06,1,957,1.46702718734741,elephant,elephant,0,0957_s5n_s06_0_elephant_00_elephant10-elephant1.png
subject-06,1,958,0.690699100494385,clock,clock,0,0958_s5n_s06_0_clock_00_clock3-bear3.png
subject-06,1,959,0.685183048248291,bottle,bottle,0,0959_s5n_s06_0_bottle_00_bottle2-clock1.png
subject-06,1,960,0.717197179794312,car,car,0,0960_s5n_s06_0_car_00_car7-bird3.png
subject-06,1,961,1.29543900489807,cat,cat,0,0961_s5n_s06_0_cat_00_cat2-cat1.png
subject-06,1,962,0.811028003692627,keyboard,keyboard,0,0962_s5n_s06_0_keyboard_00_keyboard3-boat1.png
subject-06,1,963,1.08651995658875,car,car,0,0963_s5n_s06_0_car_00_car3-airplane3.png
subject-06,1,964,1.42617392539978,elephant,bear,0,0964_s5n_s06_0_bear_00_bear3-bird3.png
subject-06,1,965,0.855911016464233,bicycle,bicycle,0,0965_s5n_s06_0_bicycle_00_bicycle1-bicycle3.png
subject-06,1,966,0.612785816192627,oven,oven,0,0966_s5n_s06_0_oven_00_oven3-boat3.png
subject-06,1,967,0.782293081283569,chair,oven,0,0967_s5n_s06_0_oven_00_oven7-car3.png
subject-06,1,968,1.05947113037109,knife,boat,0,0968_s5n_s06_0_boat_00_boat6-truck3.png
subject-06,1,969,0.674998044967651,bottle,bottle,0,0969_s5n_s06_0_bottle_00_bottle3-bottle3.png
subject-06,1,970,1.12834906578064,chair,oven,0,0970_s5n_s06_0_oven_00_oven7-oven1.png
subject-06,1,971,0.698292016983032,bird,bird,0,0971_s5n_s06_0_bird_00_bird5-keyboard2.png
subject-06,1,972,0.459906101226807,bottle,bottle,0,0972_s5n_s06_0_bottle_00_bottle6-bird1.png
subject-06,1,973,0.66771411895752,chair,chair,0,0973_s5n_s06_0_chair_00_chair10-dog1.png
subject-06,1,974,0.63993501663208,clock,clock,0,0974_s5n_s06_0_clock_00_clock1-truck3.png
subject-06,1,975,0.602555990219116,clock,clock,0,0975_s5n_s06_0_clock_00_clock3-bicycle2.png
subject-06,1,976,0.679699182510376,elephant,elephant,0,0976_s5n_s06_0_elephant_00_elephant10-bear1.png
subject-06,1,977,0.871606111526489,clock,clock,0,0977_s5n_s06_0_clock_00_clock3-bird1.png
subject-06,1,978,0.657117128372192,chair,chair,0,0978_s5n_s06_0_chair_00_chair9-bear1.png
subject-06,1,979,0.718427896499634,bird,bird,0,0979_s5n_s06_0_bird_00_bird8-elephant1.png
subject-06,1,980,0.680449962615967,cat,cat,0,0980_s5n_s06_0_cat_00_cat1-car2.png
subject-06,1,981,1.22593998908997,bottle,bottle,0,0981_s5n_s06_0_bottle_00_bottle1-cat3.png
subject-06,1,982,1.47817802429199,dog,dog,0,0982_s5n_s06_0_dog_00_dog10-truck2.png
subject-06,1,983,0.739260911941528,oven,oven,0,0983_s5n_s06_0_oven_00_oven3-truck1.png
subject-06,1,984,0.809538125991821,dog,dog,0,0984_s5n_s06_0_dog_00_dog7-car2.png
subject-06,1,985,0.787402153015137,dog,dog,0,0985_s5n_s06_0_dog_00_dog9-bottle1.png
subject-06,1,986,0.994951009750366,truck,truck,0,0986_s5n_s06_0_truck_00_truck9-truck3.png
subject-06,1,987,0.61127495765686,oven,oven,0,0987_s5n_s06_0_oven_00_oven4-elephant3.png
subject-06,1,988,0.75929594039917,airplane,airplane,0,0988_s5n_s06_0_airplane_00_airplane9-truck1.png
subject-06,1,989,0.643454074859619,keyboard,keyboard,0,0989_s5n_s06_0_keyboard_00_keyboard1-chair2.png
subject-06,1,990,0.766756057739258,chair,chair,0,0990_s5n_s06_0_chair_00_chair9-bird3.png
subject-06,1,991,1.39054989814758,chair,elephant,0,0991_s5n_s06_0_elephant_00_elephant8-knife2.png
subject-06,1,992,0.860638856887817,car,car,0,0992_s5n_s06_0_car_00_car7-car1.png
subject-06,1,993,0.646256923675537,clock,clock,0,0993_s5n_s06_0_clock_00_clock6-bird3.png
subject-06,1,994,0.707597970962524,oven,oven,0,0994_s5n_s06_0_oven_00_oven9-keyboard1.png
subject-06,1,995,0.607187032699585,bottle,bottle,0,0995_s5n_s06_0_bottle_00_bottle8-bird1.png
subject-06,1,996,0.693607091903687,car,car,0,0996_s5n_s06_0_car_00_car6-bear1.png
subject-06,1,997,0.664245128631592,car,car,0,0997_s5n_s06_0_car_00_car9-knife1.png
subject-06,1,998,0.779463052749634,keyboard,keyboard,0,0998_s5n_s06_0_keyboard_00_keyboard4-truck3.png
subject-06,1,999,0.779314041137695,boat,boat,0,0999_s5n_s06_0_boat_00_boat7-bottle1.png
subject-06,1,1000,0.819372177124023,elephant,elephant,0,1000_s5n_s06_0_elephant_00_elephant3-keyboard2.png
subject-06,1,1001,1.50023508071899,bird,bear,0,1001_s5n_s06_0_bear_00_bear3-cat1.png
subject-06,1,1002,0.934906959533691,clock,clock,0,1002_s5n_s06_0_clock_00_clock2-dog1.png
subject-06,1,1003,1.13689208030701,dog,dog,0,1003_s5n_s06_0_dog_00_dog3-keyboard1.png
subject-06,1,1004,0.86058497428894,cat,cat,0,1004_s5n_s06_0_cat_00_cat7-elephant1.png
subject-06,1,1005,0.614076852798462,clock,clock,0,1005_s5n_s06_0_clock_00_clock1-bear1.png
subject-06,1,1006,0.829674959182739,bear,bear,0,1006_s5n_s06_0_bear_00_bear3-chair2.png
subject-06,1,1007,1.02898216247559,bicycle,bicycle,0,1007_s5n_s06_0_bicycle_00_bicycle4-oven3.png
subject-06,1,1008,0.706456899642944,bear,bear,0,1008_s5n_s06_0_bear_00_bear5-chair1.png
subject-06,1,1009,0.701045036315918,elephant,elephant,0,1009_s5n_s06_0_elephant_00_elephant4-bicycle2.png
subject-06,1,1010,0.516568899154663,chair,chair,0,1010_s5n_s06_0_chair_00_chair3-car3.png
subject-06,1,1011,0.654867172241211,bottle,bottle,0,1011_s5n_s06_0_bottle_00_bottle8-elephant3.png
subject-06,1,1012,0.822882175445557,keyboard,keyboard,0,1012_s5n_s06_0_keyboard_00_keyboard2-bottle1.png
subject-06,1,1013,0.873713970184326,knife,knife,0,1013_s5n_s06_0_knife_00_knife9-airplane2.png
subject-06,1,1014,1.35976386070251,clock,bear,0,1014_s5n_s06_0_bear_00_bear10-car2.png
subject-06,1,1015,0.821534156799316,elephant,elephant,0,1015_s5n_s06_0_elephant_00_elephant1-chair1.png
subject-06,1,1016,0.653572082519531,knife,knife,0,1016_s5n_s06_0_knife_00_knife6-airplane1.png
subject-06,1,1017,1.1068651676178,elephant,elephant,0,1017_s5n_s06_0_elephant_00_elephant1-bottle1.png
subject-06,1,1018,0.654947996139526,elephant,elephant,0,1018_s5n_s06_0_elephant_00_elephant9-airplane2.png
subject-06,1,1019,0.823882102966309,elephant,bird,0,1019_s5n_s06_0_bird_00_bird1-elephant2.png
subject-06,1,1020,0.753988027572632,cat,cat,0,1020_s5n_s06_0_cat_00_cat2-truck3.png
subject-06,1,1021,0.663411855697632,dog,dog,0,1021_s5n_s06_0_dog_00_dog7-chair2.png
subject-06,1,1022,0.586611032485962,oven,oven,0,1022_s5n_s06_0_oven_00_oven5-elephant1.png
subject-06,1,1023,1.1953649520874,elephant,bear,0,1023_s5n_s06_0_bear_00_bear3-truck3.png
subject-06,1,1024,1.14836192131042,bottle,dog,0,1024_s5n_s06_0_dog_00_dog2-bottle2.png
subject-06,1,1025,1.50015997886658,airplane,airplane,0,1025_s5n_s06_0_airplane_00_airplane1-chair2.png
subject-06,1,1026,0.687222003936768,clock,clock,0,1026_s5n_s06_0_clock_00_clock2-bear2.png
subject-06,1,1027,0.619678020477295,clock,clock,0,1027_s5n_s06_0_clock_00_clock1-car1.png
subject-06,1,1028,0.641273975372314,bottle,bottle,0,1028_s5n_s06_0_bottle_00_bottle5-chair1.png
subject-06,1,1029,0.935306072235107,knife,knife,0,1029_s5n_s06_0_knife_00_knife10-bear3.png
subject-06,1,1030,0.713129997253418,knife,knife,0,1030_s5n_s06_0_knife_00_knife4-clock3.png
subject-06,1,1031,0.696341991424561,chair,chair,0,1031_s5n_s06_0_chair_00_chair1-dog1.png
subject-06,1,1032,1.25039982795715,boat,boat,0,1032_s5n_s06_0_boat_00_boat1-chair3.png
subject-06,1,1033,0.682000160217285,elephant,elephant,0,1033_s5n_s06_0_elephant_00_elephant5-bicycle3.png
subject-06,1,1034,0.630110025405884,oven,oven,0,1034_s5n_s06_0_oven_00_oven6-airplane3.png
subject-06,1,1035,1.28364706039429,bear,elephant,0,1035_s5n_s06_0_elephant_00_elephant1-keyboard3.png
subject-06,1,1036,1.12339401245117,cat,cat,0,1036_s5n_s06_0_cat_00_cat4-bird2.png
subject-06,1,1037,0.584735870361328,clock,clock,0,1037_s5n_s06_0_clock_00_clock4-knife1.png
subject-06,1,1038,0.754288196563721,dog,bird,0,1038_s5n_s06_0_bird_00_bird7-keyboard3.png
subject-06,1,1039,0.79251503944397,car,truck,0,1039_s5n_s06_0_truck_00_truck2-oven3.png
subject-06,1,1040,0.756839990615845,airplane,airplane,0,1040_s5n_s06_0_airplane_00_airplane9-boat1.png
subject-06,1,1041,0.869680166244507,knife,knife,0,1041_s5n_s06_0_knife_00_knife2-bicycle3.png
subject-06,1,1042,0.567301034927368,clock,clock,0,1042_s5n_s06_0_clock_00_clock5-chair3.png
subject-06,1,1043,0.650739908218384,bird,bird,0,1043_s5n_s06_0_bird_00_bird10-elephant2.png
subject-06,1,1044,0.696141004562378,airplane,airplane,0,1044_s5n_s06_0_airplane_00_airplane2-bottle1.png
subject-06,1,1045,0.619705200195312,chair,chair,0,1045_s5n_s06_0_chair_00_chair10-airplane2.png
subject-06,1,1046,0.651643037796021,oven,oven,0,1046_s5n_s06_0_oven_00_oven4-clock2.png
subject-06,1,1047,0.859271049499512,bicycle,bicycle,0,1047_s5n_s06_0_bicycle_00_bicycle1-elephant2.png
subject-06,1,1048,0.920892000198364,bicycle,bicycle,0,1048_s5n_s06_0_bicycle_00_bicycle5-car3.png
subject-06,1,1049,0.736315965652466,bird,bird,0,1049_s5n_s06_0_bird_00_bird3-bear3.png
subject-06,1,1050,0.65216588973999,keyboard,keyboard,0,1050_s5n_s06_0_keyboard_00_keyboard8-dog3.png
subject-06,1,1051,0.73536205291748,clock,clock,0,1051_s5n_s06_0_clock_00_clock4-boat3.png
subject-06,1,1052,1.16671299934387,bird,bird,0,1052_s5n_s06_0_bird_00_bird2-bird2.png
subject-06,1,1053,0.66240406036377,airplane,airplane,0,1053_s5n_s06_0_airplane_00_airplane9-oven2.png
subject-06,1,1054,1.07767009735107,bottle,bottle,0,1054_s5n_s06_0_bottle_00_bottle3-boat3.png
subject-06,1,1055,0.692569017410278,keyboard,keyboard,0,1055_s5n_s06_0_keyboard_00_keyboard6-boat2.png
subject-06,1,1056,0.991867065429688,car,cat,0,1056_s5n_s06_0_cat_00_cat9-bottle2.png
subject-06,1,1057,1.35335898399353,cat,cat,0,1057_s5n_s06_0_cat_00_cat4-dog3.png
subject-06,1,1058,0.622621059417725,clock,clock,0,1058_s5n_s06_0_clock_00_clock9-cat1.png
subject-06,1,1059,0.675995111465454,boat,boat,0,1059_s5n_s06_0_boat_00_boat8-knife1.png
subject-06,1,1060,0.659348011016846,chair,chair,0,1060_s5n_s06_0_chair_00_chair2-knife1.png
subject-06,1,1061,0.724539995193481,knife,knife,0,1061_s5n_s06_0_knife_00_knife9-bird1.png
subject-06,1,1062,1.10872602462769,cat,cat,0,1062_s5n_s06_0_cat_00_cat10-bear1.png
subject-06,1,1063,0.718254089355469,keyboard,boat,0,1063_s5n_s06_0_boat_00_boat3-cat3.png
subject-06,1,1064,0.740082979202271,boat,boat,0,1064_s5n_s06_0_boat_00_boat6-bottle2.png
subject-06,1,1065,0.763702869415283,dog,dog,0,1065_s5n_s06_0_dog_00_dog5-bear3.png
subject-06,1,1066,0.640820980072021,car,car,0,1066_s5n_s06_0_car_00_car3-bird2.png
subject-06,1,1067,0.602231025695801,car,car,0,1067_s5n_s06_0_car_00_car8-bear1.png
subject-06,1,1068,0.655841827392578,car,car,0,1068_s5n_s06_0_car_00_car1-airplane1.png
subject-06,1,1069,0.725677013397217,chair,chair,0,1069_s5n_s06_0_chair_00_chair6-bird2.png
subject-06,1,1070,0.549838781356812,bottle,bottle,0,1070_s5n_s06_0_bottle_00_bottle6-bear2.png
subject-06,1,1071,1.50009703636169,elephant,elephant,0,1071_s5n_s06_0_elephant_00_elephant7-keyboard3.png
subject-06,1,1072,0.489197015762329,bottle,bottle,0,1072_s5n_s06_0_bottle_00_bottle5-oven2.png
subject-06,1,1073,0.788671016693115,chair,chair,0,1073_s5n_s06_0_chair_00_chair1-truck3.png
subject-06,1,1074,0.87440013885498,oven,oven,0,1074_s5n_s06_0_oven_00_oven6-bear2.png
subject-06,1,1075,0.603959083557129,oven,oven,0,1075_s5n_s06_0_oven_00_oven10-boat2.png
subject-06,1,1076,0.744163990020752,chair,chair,0,1076_s5n_s06_0_chair_00_chair4-cat2.png
subject-06,1,1077,0.944457054138184,bicycle,bicycle,0,1077_s5n_s06_0_bicycle_00_bicycle4-truck3.png
subject-06,1,1078,0.600401163101196,keyboard,keyboard,0,1078_s5n_s06_0_keyboard_00_keyboard6-dog2.png
subject-06,1,1079,0.798830986022949,cat,cat,0,1079_s5n_s06_0_cat_00_cat3-bear2.png
subject-06,1,1080,0.698835134506226,bear,bear,0,1080_s5n_s06_0_bear_00_bear9-boat2.png
subject-06,1,1081,1.12985897064209,cat,keyboard,0,1081_s5n_s06_0_keyboard_00_keyboard7-chair3.png
subject-06,1,1082,1.41379189491272,bottle,bottle,0,1082_s5n_s06_0_bottle_00_bottle10-car1.png
subject-06,1,1083,0.521059989929199,clock,clock,0,1083_s5n_s06_0_clock_00_clock7-keyboard2.png
subject-06,1,1084,1.50045609474182,bird,cat,0,1084_s5n_s06_0_cat_00_cat4-car2.png
subject-06,1,1085,0.481087923049927,clock,clock,0,1085_s5n_s06_0_clock_00_clock7-bicycle1.png
subject-06,1,1086,1.37278008460999,car,truck,0,1086_s5n_s06_0_truck_00_truck6-truck2.png
subject-06,1,1087,0.71176815032959,airplane,airplane,0,1087_s5n_s06_0_airplane_00_airplane8-bicycle3.png
subject-06,1,1088,0.803185939788818,bicycle,bicycle,0,1088_s5n_s06_0_bicycle_00_bicycle5-bear1.png
subject-06,1,1089,0.949023008346558,chair,chair,0,1089_s5n_s06_0_chair_00_chair5-keyboard2.png
subject-06,1,1090,1.14874196052551,bird,bird,0,1090_s5n_s06_0_bird_00_bird4-cat3.png
subject-06,1,1091,1.21691489219666,bicycle,bicycle,0,1091_s5n_s06_0_bicycle_00_bicycle4-airplane1.png
subject-06,1,1092,0.546612024307251,chair,chair,0,1092_s5n_s06_0_chair_00_chair8-car1.png
subject-06,1,1093,0.95672607421875,bird,bird,0,1093_s5n_s06_0_bird_00_bird8-knife2.png
subject-06,1,1094,0.772687911987305,airplane,airplane,0,1094_s5n_s06_0_airplane_00_airplane8-oven2.png
