subj,session,trial,rt,object_response,category,condition,imagename
subject-04,1,1,0.936746120452881,truck,truck,0,0001_s5n_s04_0_truck_00_truck2-bottle3.png
subject-04,1,2,0.943803071975708,bottle,knife,0,0002_s5n_s04_0_knife_00_knife5-clock1.png
subject-04,1,3,0.768746137619019,bear,bear,0,0003_s5n_s04_0_bear_00_bear5-bicycle3.png
subject-04,1,4,0.892146110534668,bird,bird,0,0004_s5n_s04_0_bird_00_bird7-bottle1.png
subject-04,1,5,0.830288887023926,bird,airplane,0,0005_s5n_s04_0_airplane_00_airplane10-dog3.png
subject-04,1,6,0.648141860961914,car,car,0,0006_s5n_s04_0_car_00_car3-boat1.png
subject-04,1,7,1.31547904014587,bird,bird,0,0007_s5n_s04_0_bird_00_bird4-airplane1.png
subject-04,1,8,NaN,na,bicycle,0,0008_s5n_s04_0_bicycle_00_bicycle5-dog2.png
subject-04,1,9,0.916871070861816,bottle,bottle,0,0009_s5n_s04_0_bottle_00_bottle6-chair2.png
subject-04,1,10,0.762730121612549,bottle,bottle,0,0010_s5n_s04_0_bottle_00_bottle1-clock1.png
subject-04,1,11,0.670104026794434,truck,car,0,0011_s5n_s04_0_car_00_car1-oven3.png
subject-04,1,12,0.626925945281982,bottle,bottle,0,0012_s5n_s04_0_bottle_00_bottle2-clock1.png
subject-04,1,13,0.757057905197144,bear,elephant,0,0013_s5n_s04_0_elephant_00_elephant6-bottle2.png
subject-04,1,14,0.980849027633667,truck,truck,0,0014_s5n_s04_0_truck_00_truck5-car1.png
subject-04,1,15,0.858602046966553,bird,airplane,0,0015_s5n_s04_0_airplane_00_airplane3-oven1.png
subject-04,1,16,0.619704961776733,bicycle,bicycle,0,0016_s5n_s04_0_bicycle_00_bicycle7-oven1.png
subject-04,1,17,0.940673112869263,bicycle,bicycle,0,0017_s5n_s04_0_bicycle_00_bicycle7-bicycle2.png
subject-04,1,18,0.732407093048096,chair,chair,0,0018_s5n_s04_0_chair_00_chair10-bird3.png
subject-04,1,19,0.618428945541382,clock,clock,0,0019_s5n_s04_0_clock_00_clock1-bear1.png
subject-04,1,20,0.842271089553833,bear,bear,0,0020_s5n_s04_0_bear_00_bear9-boat2.png
subject-04,1,21,1.01200389862061,bird,cat,0,0021_s5n_s04_0_cat_00_cat4-car2.png
subject-04,1,22,0.759992837905884,clock,keyboard,0,0022_s5n_s04_0_keyboard_00_keyboard1-elephant3.png
subject-04,1,23,0.822232007980347,truck,truck,0,0023_s5n_s04_0_truck_00_truck1-clock3.png
subject-04,1,24,0.851041078567505,cat,boat,0,0024_s5n_s04_0_boat_00_boat7-keyboard3.png
subject-04,1,25,0.942707061767578,bottle,boat,0,0025_s5n_s04_0_boat_00_boat7-cat3.png
subject-04,1,26,0.828719854354858,chair,chair,0,0026_s5n_s04_0_chair_00_chair1-chair1.png
subject-04,1,27,0.653739929199219,clock,bear,0,0027_s5n_s04_0_bear_00_bear6-clock1.png
subject-04,1,28,0.809738159179688,cat,cat,0,0028_s5n_s04_0_cat_00_cat4-bird2.png
subject-04,1,29,0.642775058746338,bear,bear,0,0029_s5n_s04_0_bear_00_bear8-knife3.png
subject-04,1,30,0.820770025253296,truck,truck,0,0030_s5n_s04_0_truck_00_truck2-airplane3.png
subject-04,1,31,1.1887788772583,car,bird,0,0031_s5n_s04_0_bird_00_bird1-chair2.png
subject-04,1,32,1.41229915618896,car,car,0,0032_s5n_s04_0_car_00_car1-clock2.png
subject-04,1,33,0.536108016967773,clock,clock,0,0033_s5n_s04_0_clock_00_clock8-bear2.png
subject-04,1,34,1.0522358417511,boat,cat,0,0034_s5n_s04_0_cat_00_cat5-airplane2.png
subject-04,1,35,0.621515035629272,boat,boat,0,0035_s5n_s04_0_boat_00_boat3-airplane2.png
subject-04,1,36,1.24583196640015,dog,dog,0,0036_s5n_s04_0_dog_00_dog10-clock1.png
subject-04,1,37,0.837829113006592,dog,dog,0,0037_s5n_s04_0_dog_00_dog10-car3.png
subject-04,1,38,1.00753593444824,truck,truck,0,0038_s5n_s04_0_truck_00_truck3-bird2.png
subject-04,1,39,0.72339916229248,clock,clock,0,0039_s5n_s04_0_clock_00_clock9-keyboard2.png
subject-04,1,40,NaN,na,elephant,0,0040_s5n_s04_0_elephant_00_elephant8-clock2.png
subject-04,1,41,1.19254779815674,bear,bear,0,0041_s5n_s04_0_bear_00_bear7-bear2.png
subject-04,1,42,0.747308969497681,bird,bird,0,0042_s5n_s04_0_bird_00_bird5-bear3.png
subject-04,1,43,0.808953046798706,bottle,bottle,0,0043_s5n_s04_0_bottle_00_bottle5-knife1.png
subject-04,1,44,0.871155977249146,cat,cat,0,0044_s5n_s04_0_cat_00_cat6-oven1.png
subject-04,1,45,0.978508949279785,car,truck,0,0045_s5n_s04_0_truck_00_truck10-bicycle1.png
subject-04,1,46,0.994084119796753,elephant,elephant,0,0046_s5n_s04_0_elephant_00_elephant5-bicycle3.png
subject-04,1,47,0.762665987014771,oven,keyboard,0,0047_s5n_s04_0_keyboard_00_keyboard10-keyboard1.png
subject-04,1,48,0.925557136535645,dog,dog,0,0048_s5n_s04_0_dog_00_dog6-cat1.png
subject-04,1,49,0.925143003463745,bear,bear,0,0049_s5n_s04_0_bear_00_bear1-bicycle3.png
subject-04,1,50,0.933324098587036,dog,dog,0,0050_s5n_s04_0_dog_00_dog6-clock1.png
subject-04,1,51,0.673699140548706,bear,bear,0,0051_s5n_s04_0_bear_00_bear8-elephant2.png
subject-04,1,52,0.773077011108398,clock,clock,0,0052_s5n_s04_0_clock_00_clock4-bird3.png
subject-04,1,53,1.46781015396118,airplane,cat,0,0053_s5n_s04_0_cat_00_cat9-knife2.png
subject-04,1,54,0.843188047409058,cat,cat,0,0054_s5n_s04_0_cat_00_cat1-car2.png
subject-04,1,55,0.621734857559204,car,car,0,0055_s5n_s04_0_car_00_car10-dog1.png
subject-04,1,56,0.80718994140625,airplane,knife,0,0056_s5n_s04_0_knife_00_knife7-bottle3.png
subject-04,1,57,0.620107889175415,bottle,bottle,0,0057_s5n_s04_0_bottle_00_bottle2-elephant1.png
subject-04,1,58,0.890171051025391,bottle,keyboard,0,0058_s5n_s04_0_keyboard_00_keyboard7-oven2.png
subject-04,1,59,1.09082293510437,chair,knife,0,0059_s5n_s04_0_knife_00_knife9-chair1.png
subject-04,1,60,1.16027498245239,bottle,bottle,0,0060_s5n_s04_0_bottle_00_bottle1-dog2.png
subject-04,1,61,0.759922981262207,car,bird,0,0061_s5n_s04_0_bird_00_bird6-truck2.png
subject-04,1,62,1.31377792358398,bicycle,bicycle,0,0062_s5n_s04_0_bicycle_00_bicycle3-oven3.png
subject-04,1,63,1.32122802734375,elephant,elephant,0,0063_s5n_s04_0_elephant_00_elephant1-boat2.png
subject-04,1,64,0.753594160079956,bottle,keyboard,0,0064_s5n_s04_0_keyboard_00_keyboard10-oven3.png
subject-04,1,65,1.38529086112976,bicycle,bicycle,0,0065_s5n_s04_0_bicycle_00_bicycle7-clock3.png
subject-04,1,66,1.50001311302185,clock,knife,0,0066_s5n_s04_0_knife_00_knife5-dog1.png
subject-04,1,67,0.908772945404053,chair,chair,0,0067_s5n_s04_0_chair_00_chair7-chair1.png
subject-04,1,68,0.784822940826416,car,car,0,0068_s5n_s04_0_car_00_car8-dog1.png
subject-04,1,69,0.915903806686401,chair,knife,0,0069_s5n_s04_0_knife_00_knife6-bicycle1.png
subject-04,1,70,0.623738050460815,clock,clock,0,0070_s5n_s04_0_clock_00_clock3-cat1.png
subject-04,1,71,0.86198902130127,clock,clock,0,0071_s5n_s04_0_clock_00_clock8-keyboard1.png
subject-04,1,72,1.26937484741211,oven,oven,0,0072_s5n_s04_0_oven_00_oven3-cat2.png
subject-04,1,73,0.955904960632324,oven,airplane,0,0073_s5n_s04_0_airplane_00_airplane10-bear3.png
subject-04,1,74,1.46944618225098,cat,elephant,0,0074_s5n_s04_0_elephant_00_elephant2-bear3.png
subject-04,1,75,1.38506317138672,airplane,boat,0,0075_s5n_s04_0_boat_00_boat4-bottle2.png
subject-04,1,76,1.06858587265015,keyboard,oven,0,0076_s5n_s04_0_oven_00_oven10-cat2.png
subject-04,1,77,0.946316003799438,chair,chair,0,0077_s5n_s04_0_chair_00_chair3-airplane2.png
subject-04,1,78,1.45965790748596,car,car,0,0078_s5n_s04_0_car_00_car1-airplane1.png
subject-04,1,79,1.44634914398193,clock,keyboard,0,0079_s5n_s04_0_keyboard_00_keyboard10-car1.png
subject-04,1,80,1.06998896598816,elephant,elephant,0,0080_s5n_s04_0_elephant_00_elephant2-bottle3.png
subject-04,1,81,NaN,na,truck,0,0081_s5n_s04_0_truck_00_truck10-truck3.png
subject-04,1,82,0.861240863800049,clock,clock,0,0082_s5n_s04_0_clock_00_clock2-bottle3.png
subject-04,1,83,0.891166925430298,cat,keyboard,0,0083_s5n_s04_0_keyboard_00_keyboard4-keyboard2.png
subject-04,1,84,0.899866104125977,bear,bear,0,0084_s5n_s04_0_bear_00_bear3-dog3.png
subject-04,1,85,1.34522700309753,bird,cat,0,0085_s5n_s04_0_cat_00_cat4-knife1.png
subject-04,1,86,0.861212015151978,clock,clock,0,0086_s5n_s04_0_clock_00_clock10-boat2.png
subject-04,1,87,0.930054903030396,bicycle,bicycle,0,0087_s5n_s04_0_bicycle_00_bicycle1-dog3.png
subject-04,1,88,0.621870994567871,bird,bird,0,0088_s5n_s04_0_bird_00_bird5-bird1.png
subject-04,1,89,0.867439985275269,car,car,0,0089_s5n_s04_0_car_00_car9-bird1.png
subject-04,1,90,1.50046300888062,bird,bird,0,0090_s5n_s04_0_bird_00_bird2-airplane3.png
subject-04,1,91,0.868273019790649,chair,chair,0,0091_s5n_s04_0_chair_00_chair4-cat2.png
subject-04,1,92,0.753674983978271,chair,elephant,0,0092_s5n_s04_0_elephant_00_elephant8-truck3.png
subject-04,1,93,0.958636045455933,chair,airplane,0,0093_s5n_s04_0_airplane_00_airplane8-chair1.png
subject-04,1,94,1.45109605789185,elephant,elephant,0,0094_s5n_s04_0_elephant_00_elephant4-bicycle2.png
subject-04,1,95,0.837944984436035,chair,chair,0,0095_s5n_s04_0_chair_00_chair10-oven1.png
subject-04,1,96,1.27575397491455,car,car,0,0096_s5n_s04_0_car_00_car8-cat1.png
subject-04,1,97,1.45435094833374,clock,clock,0,0097_s5n_s04_0_clock_00_clock4-car2.png
subject-04,1,98,1.47028112411499,airplane,airplane,0,0098_s5n_s04_0_airplane_00_airplane4-elephant1.png
subject-04,1,99,1.2704029083252,oven,dog,0,0099_s5n_s04_0_dog_00_dog3-boat1.png
subject-04,1,100,1.32437205314636,bear,bear,0,0100_s5n_s04_0_bear_00_bear8-airplane1.png
subject-04,1,101,NaN,na,chair,0,0101_s5n_s04_0_chair_00_chair10-car2.png
subject-04,1,102,0.882390975952148,keyboard,keyboard,0,0102_s5n_s04_0_keyboard_00_keyboard1-car3.png
subject-04,1,103,1.12304306030273,car,car,0,0103_s5n_s04_0_car_00_car6-bear1.png
subject-04,1,104,1.25266003608704,oven,oven,0,0104_s5n_s04_0_oven_00_oven1-boat3.png
subject-04,1,105,1.50014615058899,cat,cat,0,0105_s5n_s04_0_cat_00_cat7-elephant1.png
subject-04,1,106,1.20621705055237,airplane,airplane,0,0106_s5n_s04_0_airplane_00_airplane1-bicycle2.png
subject-04,1,107,1.31458902359009,oven,oven,0,0107_s5n_s04_0_oven_00_oven2-bicycle1.png
subject-04,1,108,0.978757858276367,bicycle,bicycle,0,0108_s5n_s04_0_bicycle_00_bicycle2-keyboard2.png
subject-04,1,109,0.794991970062256,clock,clock,0,0109_s5n_s04_0_clock_00_clock8-chair2.png
subject-04,1,110,1.48695182800293,chair,knife,0,0110_s5n_s04_0_knife_00_knife10-oven3.png
subject-04,1,111,1.50010013580322,elephant,boat,0,0111_s5n_s04_0_boat_00_boat5-clock3.png
subject-04,1,112,1.25668096542358,keyboard,keyboard,0,0112_s5n_s04_0_keyboard_00_keyboard9-chair2.png
subject-04,1,113,NaN,na,elephant,0,0113_s5n_s04_0_elephant_00_elephant4-chair3.png
subject-04,1,114,1.19336295127869,chair,knife,0,0114_s5n_s04_0_knife_00_knife6-truck1.png
subject-04,1,115,1.46931505203247,keyboard,keyboard,0,0115_s5n_s04_0_keyboard_00_keyboard8-keyboard2.png
subject-04,1,116,1.13147187232971,chair,boat,0,0116_s5n_s04_0_boat_00_boat9-knife2.png
subject-04,1,117,0.939189910888672,clock,clock,0,0117_s5n_s04_0_clock_00_clock6-oven1.png
subject-04,1,118,1.24648404121399,bottle,bird,0,0118_s5n_s04_0_bird_00_bird10-clock1.png
subject-04,1,119,1.36845111846924,boat,cat,0,0119_s5n_s04_0_cat_00_cat5-knife2.png
subject-04,1,120,1.09231615066528,car,car,0,0120_s5n_s04_0_car_00_car9-bicycle2.png
subject-04,1,121,1.48512196540833,car,cat,0,0121_s5n_s04_0_cat_00_cat3-bicycle1.png
subject-04,1,122,1.50024509429932,clock,clock,0,0122_s5n_s04_0_clock_00_clock1-boat3.png
subject-04,1,123,1.49999499320984,knife,knife,0,0123_s5n_s04_0_knife_00_knife4-clock3.png
subject-04,1,124,1.21819996833801,truck,truck,0,0124_s5n_s04_0_truck_00_truck8-elephant1.png
subject-04,1,125,1.20433592796326,truck,truck,0,0125_s5n_s04_0_truck_00_truck3-knife2.png
subject-04,1,126,1.35772299766541,chair,chair,0,0126_s5n_s04_0_chair_00_chair9-bicycle3.png
subject-04,1,127,1.47990202903748,elephant,elephant,0,0127_s5n_s04_0_elephant_00_elephant8-bird2.png
subject-04,1,128,1.10424089431763,car,car,0,0128_s5n_s04_0_car_00_car7-bird3.png
subject-04,1,129,0.881341934204102,chair,chair,0,0129_s5n_s04_0_chair_00_chair8-car1.png
subject-04,1,130,1.06581497192383,chair,oven,0,0130_s5n_s04_0_oven_00_oven7-clock2.png
subject-04,1,131,1.37343120574951,elephant,elephant,0,0131_s5n_s04_0_elephant_00_elephant5-bear2.png
subject-04,1,132,0.910946130752563,clock,clock,0,0132_s5n_s04_0_clock_00_clock10-dog3.png
subject-04,1,133,0.97277307510376,keyboard,keyboard,0,0133_s5n_s04_0_keyboard_00_keyboard9-keyboard2.png
subject-04,1,134,1.09684991836548,bottle,bottle,0,0134_s5n_s04_0_bottle_00_bottle1-chair2.png
subject-04,1,135,0.81876015663147,oven,oven,0,0135_s5n_s04_0_oven_00_oven3-truck1.png
subject-04,1,136,1.2809579372406,bottle,knife,0,0136_s5n_s04_0_knife_00_knife2-bicycle3.png
subject-04,1,137,1.50004696846008,boat,bird,0,0137_s5n_s04_0_bird_00_bird2-knife1.png
subject-04,1,138,1.45596480369568,airplane,boat,0,0138_s5n_s04_0_boat_00_boat10-bear3.png
subject-04,1,139,1.26369690895081,truck,cat,0,0139_s5n_s04_0_cat_00_cat9-chair2.png
subject-04,1,140,1.49573588371277,bicycle,bicycle,0,0140_s5n_s04_0_bicycle_00_bicycle8-boat1.png
subject-04,1,141,1.10943913459778,bear,bear,0,0141_s5n_s04_0_bear_00_bear4-knife1.png
subject-04,1,142,1.50029182434082,bottle,bottle,0,0142_s5n_s04_0_bottle_00_bottle6-airplane1.png
subject-04,1,143,0.628692865371704,clock,clock,0,0143_s5n_s04_0_clock_00_clock8-cat1.png
subject-04,1,144,0.794993877410889,bottle,bottle,0,0144_s5n_s04_0_bottle_00_bottle9-oven2.png
subject-04,1,145,1.14209699630737,bird,bird,0,0145_s5n_s04_0_bird_00_bird5-bicycle1.png
subject-04,1,146,0.99601411819458,clock,clock,0,0146_s5n_s04_0_clock_00_clock9-bird2.png
subject-04,1,147,1.20365309715271,cat,chair,0,0147_s5n_s04_0_chair_00_chair1-cat3.png
subject-04,1,148,1.48763108253479,cat,cat,0,0148_s5n_s04_0_cat_00_cat2-boat2.png
subject-04,1,149,1.42543005943298,bicycle,bicycle,0,0149_s5n_s04_0_bicycle_00_bicycle5-elephant1.png
subject-04,1,150,1.38370990753174,cat,car,0,0150_s5n_s04_0_car_00_car7-keyboard3.png
subject-04,1,151,1.41536498069763,cat,boat,0,0151_s5n_s04_0_boat_00_boat4-car3.png
subject-04,1,152,1.15328288078308,bottle,bottle,0,0152_s5n_s04_0_bottle_00_bottle6-bicycle3.png
subject-04,1,153,1.39083099365234,elephant,elephant,0,0153_s5n_s04_0_elephant_00_elephant7-bottle3.png
subject-04,1,154,0.986181020736694,boat,boat,0,0154_s5n_s04_0_boat_00_boat6-airplane2.png
subject-04,1,155,1.01776599884033,cat,cat,0,0155_s5n_s04_0_cat_00_cat4-airplane1.png
subject-04,1,156,1.2562940120697,truck,truck,0,0156_s5n_s04_0_truck_00_truck7-bear2.png
subject-04,1,157,1.08840298652649,dog,bear,0,0157_s5n_s04_0_bear_00_bear10-bottle1.png
subject-04,1,158,1.4173378944397,truck,truck,0,0158_s5n_s04_0_truck_00_truck6-boat2.png
subject-04,1,159,1.50008201599121,airplane,airplane,0,0159_s5n_s04_0_airplane_00_airplane10-boat3.png
subject-04,1,160,0.834100961685181,dog,bear,0,0160_s5n_s04_0_bear_00_bear6-cat3.png
subject-04,1,161,0.979912042617798,chair,chair,0,0161_s5n_s04_0_chair_00_chair1-bear1.png
subject-04,1,162,0.879857063293457,bear,bear,0,0162_s5n_s04_0_bear_00_bear8-truck3.png
subject-04,1,163,1.01215982437134,car,airplane,0,0163_s5n_s04_0_airplane_00_airplane1-chair2.png
subject-04,1,164,1.3580379486084,keyboard,keyboard,0,0164_s5n_s04_0_keyboard_00_keyboard3-bicycle2.png
subject-04,1,165,1.50014710426331,knife,airplane,0,0165_s5n_s04_0_airplane_00_airplane5-knife1.png
subject-04,1,166,1.41723799705505,bottle,bird,0,0166_s5n_s04_0_bird_00_bird9-bear3.png
subject-04,1,167,1.40079998970032,cat,cat,0,0167_s5n_s04_0_cat_00_cat5-bicycle3.png
subject-04,1,168,1.49530816078186,keyboard,oven,0,0168_s5n_s04_0_oven_00_oven4-bicycle2.png
subject-04,1,169,1.50027394294739,car,dog,0,0169_s5n_s04_0_dog_00_dog8-boat3.png
subject-04,1,170,1.5001859664917,elephant,elephant,0,0170_s5n_s04_0_elephant_00_elephant4-clock3.png
subject-04,1,171,NaN,na,boat,0,0171_s5n_s04_0_boat_00_boat3-keyboard2.png
subject-04,1,172,1.50001811981201,boat,airplane,0,0172_s5n_s04_0_airplane_00_airplane10-oven2.png
subject-04,1,173,1.26111793518066,oven,oven,0,0173_s5n_s04_0_oven_00_oven5-bicycle1.png
subject-04,1,174,1.24460291862488,oven,boat,0,0174_s5n_s04_0_boat_00_boat4-knife2.png
subject-04,1,175,1.14483785629272,bottle,bottle,0,0175_s5n_s04_0_bottle_00_bottle5-clock3.png
subject-04,1,176,1.50004291534424,boat,knife,0,0176_s5n_s04_0_knife_00_knife6-chair3.png
subject-04,1,177,1.50003790855408,boat,keyboard,0,0177_s5n_s04_0_keyboard_00_keyboard5-cat1.png
subject-04,1,178,NaN,na,cat,0,0178_s5n_s04_0_cat_00_cat1-airplane1.png
subject-04,1,179,1.08765411376953,dog,dog,0,0179_s5n_s04_0_dog_00_dog10-bottle1.png
subject-04,1,180,1.33434295654297,airplane,airplane,0,0180_s5n_s04_0_airplane_00_airplane4-bottle1.png
subject-04,1,181,1.25015306472778,clock,bicycle,0,0181_s5n_s04_0_bicycle_00_bicycle9-bear1.png
subject-04,1,182,1.50034999847412,airplane,airplane,0,0182_s5n_s04_0_airplane_00_airplane4-bicycle2.png
subject-04,1,183,0.973487854003906,bird,bird,0,0183_s5n_s04_0_bird_00_bird10-cat1.png
subject-04,1,184,1.47383213043213,chair,chair,0,0184_s5n_s04_0_chair_00_chair8-elephant1.png
subject-04,1,185,1.09594511985779,bicycle,bicycle,0,0185_s5n_s04_0_bicycle_00_bicycle4-keyboard3.png
subject-04,1,186,1.50036096572876,bottle,bottle,0,0186_s5n_s04_0_bottle_00_bottle8-dog2.png
subject-04,1,187,1.50018191337585,clock,boat,0,0187_s5n_s04_0_boat_00_boat4-elephant2.png
subject-04,1,188,1.29583787918091,boat,bear,0,0188_s5n_s04_0_bear_00_bear5-airplane3.png
subject-04,1,189,1.50029301643372,bicycle,bicycle,0,0189_s5n_s04_0_bicycle_00_bicycle1-knife3.png
subject-04,1,190,1.05790281295776,keyboard,airplane,0,0190_s5n_s04_0_airplane_00_airplane2-bear1.png
subject-04,1,191,1.23358607292175,keyboard,boat,0,0191_s5n_s04_0_boat_00_boat1-bear1.png
subject-04,1,192,0.719214200973511,cat,keyboard,0,0192_s5n_s04_0_keyboard_00_keyboard7-clock3.png
subject-04,1,193,1.01915383338928,bird,bird,0,0193_s5n_s04_0_bird_00_bird3-bird2.png
subject-04,1,194,1.45739388465881,boat,airplane,0,0194_s5n_s04_0_airplane_00_airplane4-dog2.png
subject-04,1,195,1.4191370010376,knife,knife,0,0195_s5n_s04_0_knife_00_knife4-car2.png
subject-04,1,196,1.44832015037537,chair,chair,0,0196_s5n_s04_0_chair_00_chair5-clock2.png
subject-04,1,197,1.50009799003601,truck,truck,0,0197_s5n_s04_0_truck_00_truck2-bicycle2.png
subject-04,1,198,1.46731686592102,keyboard,oven,0,0198_s5n_s04_0_oven_00_oven9-oven1.png
subject-04,1,199,1.06637716293335,keyboard,keyboard,0,0199_s5n_s04_0_keyboard_00_keyboard4-truck3.png
subject-04,1,200,0.929013013839722,oven,airplane,0,0200_s5n_s04_0_airplane_00_airplane2-dog1.png
subject-04,1,201,1.21168208122253,oven,oven,0,0201_s5n_s04_0_oven_00_oven6-knife3.png
subject-04,1,202,1.32585191726685,bear,cat,0,0202_s5n_s04_0_cat_00_cat10-oven2.png
subject-04,1,203,1.09592509269714,elephant,elephant,0,0203_s5n_s04_0_elephant_00_elephant9-dog3.png
subject-04,1,204,1.50020098686218,keyboard,keyboard,0,0204_s5n_s04_0_keyboard_00_keyboard5-bottle1.png
subject-04,1,205,1.50007104873657,oven,bear,0,0205_s5n_s04_0_bear_00_bear6-boat3.png
subject-04,1,206,1.45799112319946,bottle,bottle,0,0206_s5n_s04_0_bottle_00_bottle7-truck2.png
subject-04,1,207,0.786797046661377,boat,knife,0,0207_s5n_s04_0_knife_00_knife10-keyboard3.png
subject-04,1,208,1.11655592918396,bottle,bottle,0,0208_s5n_s04_0_bottle_00_bottle5-keyboard2.png
subject-04,1,209,1.10853099822998,bottle,bottle,0,0209_s5n_s04_0_bottle_00_bottle3-airplane2.png
subject-04,1,210,1.44108700752258,chair,airplane,0,0210_s5n_s04_0_airplane_00_airplane8-bicycle3.png
subject-04,1,211,1.50032114982605,truck,truck,0,0211_s5n_s04_0_truck_00_truck2-boat3.png
subject-04,1,212,1.46250605583191,car,truck,0,0212_s5n_s04_0_truck_00_truck3-oven2.png
subject-04,1,213,1.50006318092346,airplane,airplane,0,0213_s5n_s04_0_airplane_00_airplane10-airplane1.png
subject-04,1,214,1.04068088531494,boat,airplane,0,0214_s5n_s04_0_airplane_00_airplane2-bottle1.png
subject-04,1,215,1.47831296920776,oven,bird,0,0215_s5n_s04_0_bird_00_bird7-oven3.png
subject-04,1,216,1.47538185119629,oven,dog,0,0216_s5n_s04_0_dog_00_dog9-boat1.png
subject-04,1,217,NaN,na,bicycle,0,0217_s5n_s04_0_bicycle_00_bicycle6-bicycle3.png
subject-04,1,218,1.50030183792114,keyboard,elephant,0,0218_s5n_s04_0_elephant_00_elephant1-oven2.png
subject-04,1,219,1.35680794715881,keyboard,keyboard,0,0219_s5n_s04_0_keyboard_00_keyboard5-bicycle1.png
subject-04,1,220,1.25656795501709,keyboard,keyboard,0,0220_s5n_s04_0_keyboard_00_keyboard3-elephant2.png
subject-04,1,221,1.02454805374146,keyboard,knife,0,0221_s5n_s04_0_knife_00_knife6-airplane1.png
subject-04,1,222,1.36176919937134,boat,knife,0,0222_s5n_s04_0_knife_00_knife5-bicycle2.png
subject-04,1,223,1.0460159778595,truck,truck,0,0223_s5n_s04_0_truck_00_truck5-airplane2.png
subject-04,1,224,1.46253085136414,car,car,0,0224_s5n_s04_0_car_00_car8-truck3.png
subject-04,1,225,NaN,na,dog,0,0225_s5n_s04_0_dog_00_dog3-elephant2.png
subject-04,1,226,1.34604215621948,oven,elephant,0,0226_s5n_s04_0_elephant_00_elephant6-knife2.png
subject-04,1,227,1.10023283958435,oven,cat,0,0227_s5n_s04_0_cat_00_cat4-keyboard2.png
subject-04,1,228,1.186359167099,chair,chair,0,0228_s5n_s04_0_chair_00_chair7-knife2.png
subject-04,1,229,0.815755128860474,clock,clock,0,0229_s5n_s04_0_clock_00_clock4-chair1.png
subject-04,1,230,0.777109146118164,bottle,bottle,0,0230_s5n_s04_0_bottle_00_bottle4-dog2.png
subject-04,1,231,1.41337895393372,bottle,bottle,0,0231_s5n_s04_0_bottle_00_bottle9-cat2.png
subject-04,1,232,1.4826500415802,bear,bear,0,0232_s5n_s04_0_bear_00_bear1-clock2.png
subject-04,1,233,1.28690004348755,car,car,0,0233_s5n_s04_0_car_00_car5-airplane3.png
subject-04,1,234,0.857450008392334,clock,clock,0,0234_s5n_s04_0_clock_00_clock7-cat2.png
subject-04,1,235,1.13294696807861,oven,oven,0,0235_s5n_s04_0_oven_00_oven2-truck3.png
subject-04,1,236,1.1873140335083,bottle,bear,0,0236_s5n_s04_0_bear_00_bear7-bicycle2.png
subject-04,1,237,1.44065690040588,keyboard,boat,0,0237_s5n_s04_0_boat_00_boat1-chair3.png
subject-04,1,238,1.48711204528809,keyboard,knife,0,0238_s5n_s04_0_knife_00_knife8-bicycle1.png
subject-04,1,239,0.961938858032227,car,keyboard,0,0239_s5n_s04_0_keyboard_00_keyboard6-dog2.png
subject-04,1,240,1.4323558807373,bird,bird,0,0240_s5n_s04_0_bird_00_bird3-cat1.png
subject-04,1,241,0.930314064025879,cat,oven,0,0241_s5n_s04_0_oven_00_oven3-knife1.png
subject-04,1,242,1.31383800506592,cat,boat,0,0242_s5n_s04_0_boat_00_boat6-cat1.png
subject-04,1,243,1.50013089179993,elephant,elephant,0,0243_s5n_s04_0_elephant_00_elephant9-clock3.png
subject-04,1,244,1.11343717575073,keyboard,keyboard,0,0244_s5n_s04_0_keyboard_00_keyboard1-clock1.png
subject-04,1,245,1.50008320808411,bear,chair,0,0245_s5n_s04_0_chair_00_chair3-bottle3.png
subject-04,1,246,1.36629009246826,bear,bear,0,0246_s5n_s04_0_bear_00_bear1-bear3.png
subject-04,1,247,1.33816194534302,dog,dog,0,0247_s5n_s04_0_dog_00_dog2-cat1.png
subject-04,1,248,1.41927790641785,car,car,0,0248_s5n_s04_0_car_00_car5-bottle1.png
subject-04,1,249,1.31877613067627,knife,knife,0,0249_s5n_s04_0_knife_00_knife1-chair1.png
subject-04,1,250,0.864971876144409,boat,boat,0,0250_s5n_s04_0_boat_00_boat8-knife1.png
subject-04,1,251,0.911332845687866,oven,chair,0,0251_s5n_s04_0_chair_00_chair5-knife3.png
subject-04,1,252,1.50025320053101,chair,chair,0,0252_s5n_s04_0_chair_00_chair5-bicycle1.png
subject-04,1,253,1.35600304603577,dog,dog,0,0253_s5n_s04_0_dog_00_dog2-bicycle2.png
subject-04,1,254,1.19446611404419,bicycle,clock,0,0254_s5n_s04_0_clock_00_clock9-chair3.png
subject-04,1,255,1.25063300132751,bird,keyboard,0,0255_s5n_s04_0_keyboard_00_keyboard2-clock1.png
subject-04,1,256,0.889291048049927,oven,oven,0,0256_s5n_s04_0_oven_00_oven4-keyboard3.png
subject-04,1,257,0.849828004837036,car,cat,0,0257_s5n_s04_0_cat_00_cat7-airplane2.png
subject-04,1,258,1.18756198883057,truck,elephant,0,0258_s5n_s04_0_elephant_00_elephant6-truck3.png
subject-04,1,259,0.795567035675049,bicycle,bicycle,0,0259_s5n_s04_0_bicycle_00_bicycle10-airplane2.png
subject-04,1,260,0.927497863769531,dog,dog,0,0260_s5n_s04_0_dog_00_dog6-bicycle1.png
subject-04,1,261,1.41979503631592,bird,bird,0,0261_s5n_s04_0_bird_00_bird4-cat3.png
subject-04,1,262,1.09590005874634,airplane,airplane,0,0262_s5n_s04_0_airplane_00_airplane4-airplane1.png
subject-04,1,263,0.641755104064941,clock,clock,0,0263_s5n_s04_0_clock_00_clock6-bird3.png
subject-04,1,264,0.803603172302246,bird,bird,0,0264_s5n_s04_0_bird_00_bird8-clock1.png
subject-04,1,265,0.961699962615967,boat,boat,0,0265_s5n_s04_0_boat_00_boat6-bottle2.png
subject-04,1,266,1.10014319419861,chair,chair,0,0266_s5n_s04_0_chair_00_chair10-dog1.png
subject-04,1,267,1.15967512130737,car,car,0,0267_s5n_s04_0_car_00_car7-clock1.png
subject-04,1,268,1.12965202331543,truck,oven,0,0268_s5n_s04_0_oven_00_oven9-keyboard1.png
subject-04,1,269,0.859643936157227,car,car,0,0269_s5n_s04_0_car_00_car4-bicycle3.png
subject-04,1,270,1.02955913543701,elephant,elephant,0,0270_s5n_s04_0_elephant_00_elephant1-bear2.png
subject-04,1,271,1.48935508728027,bird,bird,0,0271_s5n_s04_0_bird_00_bird6-oven1.png
subject-04,1,272,1.31952309608459,truck,truck,0,0272_s5n_s04_0_truck_00_truck10-car3.png
subject-04,1,273,1.23425698280334,boat,bird,0,0273_s5n_s04_0_bird_00_bird3-oven1.png
subject-04,1,274,1.14810395240784,dog,bear,0,0274_s5n_s04_0_bear_00_bear6-bird2.png
subject-04,1,275,0.78550910949707,bicycle,bicycle,0,0275_s5n_s04_0_bicycle_00_bicycle2-knife2.png
subject-04,1,276,1.50009298324585,truck,truck,0,0276_s5n_s04_0_truck_00_truck6-truck2.png
subject-04,1,277,0.898355007171631,airplane,airplane,0,0277_s5n_s04_0_airplane_00_airplane8-clock2.png
subject-04,1,278,0.813880205154419,chair,chair,0,0278_s5n_s04_0_chair_00_chair5-cat3.png
subject-04,1,279,0.920203924179077,chair,chair,0,0279_s5n_s04_0_chair_00_chair1-truck3.png
subject-04,1,280,1.00373101234436,chair,bird,0,0280_s5n_s04_0_bird_00_bird3-boat3.png
subject-04,1,281,1.50028920173645,boat,keyboard,0,0281_s5n_s04_0_keyboard_00_keyboard3-cat1.png
subject-04,1,282,NaN,na,dog,0,0282_s5n_s04_0_dog_00_dog5-truck2.png
subject-04,1,283,1.21699810028076,car,knife,0,0283_s5n_s04_0_knife_00_knife5-truck3.png
subject-04,1,284,0.692931890487671,chair,chair,0,0284_s5n_s04_0_chair_00_chair6-dog1.png
subject-04,1,285,0.884357929229736,bottle,bottle,0,0285_s5n_s04_0_bottle_00_bottle5-boat1.png
subject-04,1,286,1.42334794998169,keyboard,keyboard,0,0286_s5n_s04_0_keyboard_00_keyboard2-bicycle3.png
subject-04,1,287,0.976495981216431,keyboard,bird,0,0287_s5n_s04_0_bird_00_bird7-keyboard3.png
subject-04,1,288,1.43622612953186,oven,knife,0,0288_s5n_s04_0_knife_00_knife7-airplane3.png
subject-04,1,289,1.0036928653717,oven,truck,0,0289_s5n_s04_0_truck_00_truck6-dog2.png
subject-04,1,290,1.21128010749817,bicycle,bicycle,0,0290_s5n_s04_0_bicycle_00_bicycle9-car1.png
subject-04,1,291,1.08163189888,clock,bear,0,0291_s5n_s04_0_bear_00_bear8-bear1.png
subject-04,1,292,0.750173807144165,truck,truck,0,0292_s5n_s04_0_truck_00_truck2-elephant1.png
subject-04,1,293,1.08010196685791,elephant,dog,0,0293_s5n_s04_0_dog_00_dog9-bottle1.png
subject-04,1,294,1.44971394538879,car,car,0,0294_s5n_s04_0_car_00_car7-elephant3.png
subject-04,1,295,1.31016612052917,boat,knife,0,0295_s5n_s04_0_knife_00_knife6-bird1.png
subject-04,1,296,1.5000011920929,clock,boat,0,0296_s5n_s04_0_boat_00_boat3-car3.png
subject-04,1,297,0.918126106262207,cat,cat,0,0297_s5n_s04_0_cat_00_cat4-clock2.png
subject-04,1,298,0.82684588432312,bear,bear,0,0298_s5n_s04_0_bear_00_bear4-oven2.png
subject-04,1,299,0.750874042510986,clock,cat,0,0299_s5n_s04_0_cat_00_cat10-elephant3.png
subject-04,1,300,0.741990089416504,clock,keyboard,0,0300_s5n_s04_0_keyboard_00_keyboard1-bear2.png
subject-04,1,301,0.963288068771362,airplane,dog,0,0301_s5n_s04_0_dog_00_dog4-oven1.png
subject-04,1,302,1.46989393234253,elephant,elephant,0,0302_s5n_s04_0_elephant_00_elephant8-elephant1.png
subject-04,1,303,1.34453105926514,cat,bear,0,0303_s5n_s04_0_bear_00_bear4-keyboard3.png
subject-04,1,304,0.844816923141479,car,car,0,0304_s5n_s04_0_car_00_car7-dog3.png
subject-04,1,305,1.17680191993713,elephant,elephant,0,0305_s5n_s04_0_elephant_00_elephant7-clock2.png
subject-04,1,306,1.09889101982117,bicycle,bicycle,0,0306_s5n_s04_0_bicycle_00_bicycle8-clock3.png
subject-04,1,307,1.24433398246765,chair,chair,0,0307_s5n_s04_0_chair_00_chair9-keyboard2.png
subject-04,1,308,0.842149019241333,dog,dog,0,0308_s5n_s04_0_dog_00_dog1-bear1.png
subject-04,1,309,1.28069305419922,car,boat,0,0309_s5n_s04_0_boat_00_boat9-bear3.png
subject-04,1,310,1.50008201599121,dog,dog,0,0310_s5n_s04_0_dog_00_dog10-dog1.png
subject-04,1,311,0.82474422454834,bear,bear,0,0311_s5n_s04_0_bear_00_bear7-dog3.png
subject-04,1,312,0.923835039138794,elephant,elephant,0,0312_s5n_s04_0_elephant_00_elephant1-dog2.png
subject-04,1,313,0.901757955551147,cat,boat,0,0313_s5n_s04_0_boat_00_boat1-elephant3.png
subject-04,1,314,0.714385986328125,oven,oven,0,0314_s5n_s04_0_oven_00_oven1-cat1.png
subject-04,1,315,1.48193192481995,bird,dog,0,0315_s5n_s04_0_dog_00_dog8-keyboard3.png
subject-04,1,316,1.31240582466125,keyboard,bear,0,0316_s5n_s04_0_bear_00_bear9-bottle2.png
subject-04,1,317,0.933880090713501,car,car,0,0317_s5n_s04_0_car_00_car3-airplane3.png
subject-04,1,318,0.850164890289307,boat,boat,0,0318_s5n_s04_0_boat_00_boat4-bicycle3.png
subject-04,1,319,0.972277879714966,clock,knife,0,0319_s5n_s04_0_knife_00_knife6-bottle3.png
subject-04,1,320,1.01906490325928,oven,keyboard,0,0320_s5n_s04_0_keyboard_00_keyboard9-bear2.png
subject-04,1,321,0.980559110641479,bicycle,bicycle,0,0321_s5n_s04_0_bicycle_00_bicycle1-clock3.png
subject-04,1,322,0.872277021408081,bottle,airplane,0,0322_s5n_s04_0_airplane_00_airplane2-cat1.png
subject-04,1,323,1.50015020370483,chair,chair,0,0323_s5n_s04_0_chair_00_chair3-bicycle3.png
subject-04,1,324,NaN,na,truck,0,0324_s5n_s04_0_truck_00_truck5-dog3.png
subject-04,1,325,1.21543717384338,boat,bottle,0,0325_s5n_s04_0_bottle_00_bottle3-chair3.png
subject-04,1,326,0.838354110717773,oven,oven,0,0326_s5n_s04_0_oven_00_oven3-airplane1.png
subject-04,1,327,0.675706148147583,oven,elephant,0,0327_s5n_s04_0_elephant_00_elephant8-knife2.png
subject-04,1,328,1.06707501411438,car,car,0,0328_s5n_s04_0_car_00_car10-chair1.png
subject-04,1,329,1.50003504753113,elephant,elephant,0,0329_s5n_s04_0_elephant_00_elephant6-oven1.png
subject-04,1,330,1.50013518333435,bird,bird,0,0330_s5n_s04_0_bird_00_bird9-bottle3.png
subject-04,1,331,1.50023889541626,oven,dog,0,0331_s5n_s04_0_dog_00_dog8-chair3.png
subject-04,1,332,1.44291877746582,oven,oven,0,0332_s5n_s04_0_oven_00_oven9-bear2.png
subject-04,1,333,1.1132869720459,clock,clock,0,0333_s5n_s04_0_clock_00_clock6-car2.png
subject-04,1,334,0.805631875991821,bird,bird,0,0334_s5n_s04_0_bird_00_bird7-car2.png
subject-04,1,335,1.01412582397461,bird,bird,0,0335_s5n_s04_0_bird_00_bird8-car2.png
subject-04,1,336,0.95127010345459,keyboard,keyboard,0,0336_s5n_s04_0_keyboard_00_keyboard4-bottle2.png
subject-04,1,337,1.41184902191162,keyboard,clock,0,0337_s5n_s04_0_clock_00_clock1-dog2.png
subject-04,1,338,0.865928888320923,clock,oven,0,0338_s5n_s04_0_oven_00_oven2-bird2.png
subject-04,1,339,1.50008893013,keyboard,bear,0,0339_s5n_s04_0_bear_00_bear10-clock1.png
subject-04,1,340,1.50023698806763,oven,clock,0,0340_s5n_s04_0_clock_00_clock1-elephant2.png
subject-04,1,341,1.41745114326477,cat,bird,0,0341_s5n_s04_0_bird_00_bird1-bear1.png
subject-04,1,342,1.20095896720886,cat,airplane,0,0342_s5n_s04_0_airplane_00_airplane7-bird3.png
subject-04,1,343,0.571897983551025,clock,clock,0,0343_s5n_s04_0_clock_00_clock5-elephant2.png
subject-04,1,344,1.24712800979614,chair,chair,0,0344_s5n_s04_0_chair_00_chair6-elephant2.png
subject-04,1,345,1.08471202850342,keyboard,dog,0,0345_s5n_s04_0_dog_00_dog1-chair1.png
subject-04,1,346,1.384272813797,elephant,dog,0,0346_s5n_s04_0_dog_00_dog7-bird3.png
subject-04,1,347,0.730774879455566,truck,truck,0,0347_s5n_s04_0_truck_00_truck2-bird2.png
subject-04,1,348,0.997825145721436,clock,clock,0,0348_s5n_s04_0_clock_00_clock7-dog2.png
subject-04,1,349,0.857959985733032,cat,dog,0,0349_s5n_s04_0_dog_00_dog4-elephant2.png
subject-04,1,350,0.728116035461426,oven,oven,0,0350_s5n_s04_0_oven_00_oven1-bird3.png
subject-04,1,351,0.949805974960327,chair,chair,0,0351_s5n_s04_0_chair_00_chair1-oven3.png
subject-04,1,352,0.886909008026123,car,car,0,0352_s5n_s04_0_car_00_car6-elephant3.png
subject-04,1,353,1.02453994750977,airplane,airplane,0,0353_s5n_s04_0_airplane_00_airplane5-bear2.png
subject-04,1,354,1.02474999427795,oven,oven,0,0354_s5n_s04_0_oven_00_oven3-bear2.png
subject-04,1,355,1.11734700202942,clock,clock,0,0355_s5n_s04_0_clock_00_clock7-truck3.png
subject-04,1,356,1.41346502304077,airplane,airplane,0,0356_s5n_s04_0_airplane_00_airplane5-bird2.png
subject-04,1,357,1.44353294372559,oven,boat,0,0357_s5n_s04_0_boat_00_boat6-elephant2.png
subject-04,1,358,1.02789783477783,airplane,airplane,0,0358_s5n_s04_0_airplane_00_airplane7-truck1.png
subject-04,1,359,1.1027569770813,keyboard,keyboard,0,0359_s5n_s04_0_keyboard_00_keyboard6-boat2.png
subject-04,1,360,1.50003814697266,car,oven,0,0360_s5n_s04_0_oven_00_oven9-knife3.png
subject-04,1,361,1.23067808151245,keyboard,chair,0,0361_s5n_s04_0_chair_00_chair8-knife2.png
subject-04,1,362,1.09978818893433,car,car,0,0362_s5n_s04_0_car_00_car7-boat3.png
subject-04,1,363,1.47369885444641,bird,elephant,0,0363_s5n_s04_0_elephant_00_elephant2-clock1.png
subject-04,1,364,1.47779202461243,car,cat,0,0364_s5n_s04_0_cat_00_cat9-boat2.png
subject-04,1,365,1.36969304084778,bottle,chair,0,0365_s5n_s04_0_chair_00_chair6-truck2.png
subject-04,1,366,1.2540431022644,cat,knife,0,0366_s5n_s04_0_knife_00_knife6-clock2.png
subject-04,1,367,1.01527905464172,bear,bear,0,0367_s5n_s04_0_bear_00_bear8-bicycle3.png
subject-04,1,368,1.50013208389282,chair,chair,0,0368_s5n_s04_0_chair_00_chair9-chair3.png
subject-04,1,369,1.50023794174194,keyboard,boat,0,0369_s5n_s04_0_boat_00_boat3-cat3.png
subject-04,1,370,1.43079996109009,car,cat,0,0370_s5n_s04_0_cat_00_cat5-car2.png
subject-04,1,371,1.50042796134949,bottle,oven,0,0371_s5n_s04_0_oven_00_oven7-elephant1.png
subject-04,1,372,1.42335510253906,boat,car,0,0372_s5n_s04_0_car_00_car7-oven2.png
subject-04,1,373,1.07500195503235,bear,bear,0,0373_s5n_s04_0_bear_00_bear1-chair2.png
subject-04,1,374,1.35058903694153,bear,airplane,0,0374_s5n_s04_0_airplane_00_airplane8-elephant3.png
subject-04,1,375,1.19689202308655,car,knife,0,0375_s5n_s04_0_knife_00_knife2-truck2.png
subject-04,1,376,1.50024318695068,dog,cat,0,0376_s5n_s04_0_cat_00_cat5-bottle1.png
subject-04,1,377,1.41020512580872,keyboard,airplane,0,0377_s5n_s04_0_airplane_00_airplane9-truck1.png
subject-04,1,378,1.16399312019348,keyboard,chair,0,0378_s5n_s04_0_chair_00_chair4-chair3.png
subject-04,1,379,1.29129505157471,chair,chair,0,0379_s5n_s04_0_chair_00_chair5-oven2.png
subject-04,1,380,1.07811903953552,bottle,bird,0,0380_s5n_s04_0_bird_00_bird8-chair1.png
subject-04,1,381,1.31573915481567,cat,cat,0,0381_s5n_s04_0_cat_00_cat3-cat1.png
subject-04,1,382,NaN,na,truck,0,0382_s5n_s04_0_truck_00_truck1-bear1.png
subject-04,1,383,1.35409116744995,elephant,elephant,0,0383_s5n_s04_0_elephant_00_elephant8-dog1.png
subject-04,1,384,1.00551009178162,truck,truck,0,0384_s5n_s04_0_truck_00_truck3-dog3.png
subject-04,1,385,1.48107695579529,bicycle,bicycle,0,0385_s5n_s04_0_bicycle_00_bicycle1-bicycle3.png
subject-04,1,386,1.48093914985657,bottle,boat,0,0386_s5n_s04_0_boat_00_boat6-truck3.png
subject-04,1,387,1.23592114448547,boat,clock,0,0387_s5n_s04_0_clock_00_clock8-boat1.png
subject-04,1,388,1.3865430355072,bear,bear,0,0388_s5n_s04_0_bear_00_bear4-boat2.png
subject-04,1,389,1.5003559589386,cat,cat,0,0389_s5n_s04_0_cat_00_cat10-clock1.png
subject-04,1,390,1.01611709594727,chair,chair,0,0390_s5n_s04_0_chair_00_chair7-bird1.png
subject-04,1,391,0.816650867462158,truck,car,0,0391_s5n_s04_0_car_00_car5-truck3.png
subject-04,1,392,1.50013613700867,elephant,elephant,0,0392_s5n_s04_0_elephant_00_elephant3-knife1.png
subject-04,1,393,1.33007907867432,keyboard,keyboard,0,0393_s5n_s04_0_keyboard_00_keyboard5-airplane3.png
subject-04,1,394,1.24403619766235,cat,cat,0,0394_s5n_s04_0_cat_00_cat10-airplane3.png
subject-04,1,395,1.04362010955811,oven,elephant,0,0395_s5n_s04_0_elephant_00_elephant3-cat2.png
subject-04,1,396,1.37332391738892,bottle,bottle,0,0396_s5n_s04_0_bottle_00_bottle7-airplane3.png
subject-04,1,397,NaN,na,clock,0,0397_s5n_s04_0_clock_00_clock10-truck2.png
subject-04,1,398,1.07202100753784,dog,cat,0,0398_s5n_s04_0_cat_00_cat4-dog3.png
subject-04,1,399,1.00404095649719,bottle,bottle,0,0399_s5n_s04_0_bottle_00_bottle10-truck3.png
subject-04,1,400,1.19432711601257,clock,clock,0,0400_s5n_s04_0_clock_00_clock6-bottle1.png
subject-04,1,401,1.29286599159241,truck,truck,0,0401_s5n_s04_0_truck_00_truck7-boat1.png
subject-04,1,402,0.922796964645386,oven,boat,0,0402_s5n_s04_0_boat_00_boat7-elephant3.png
subject-04,1,403,1.08301901817322,cat,boat,0,0403_s5n_s04_0_boat_00_boat10-cat1.png
subject-04,1,404,0.882658004760742,chair,chair,0,0404_s5n_s04_0_chair_00_chair4-keyboard2.png
subject-04,1,405,1.22665596008301,bicycle,bicycle,0,0405_s5n_s04_0_bicycle_00_bicycle2-bottle1.png
subject-04,1,406,1.19640588760376,bear,bear,0,0406_s5n_s04_0_bear_00_bear4-truck3.png
subject-04,1,407,1.25151014328003,oven,elephant,0,0407_s5n_s04_0_elephant_00_elephant8-airplane3.png
subject-04,1,408,0.848757028579712,oven,bear,0,0408_s5n_s04_0_bear_00_bear10-elephant1.png
subject-04,1,409,1.39494800567627,car,car,0,0409_s5n_s04_0_car_00_car6-knife1.png
subject-04,1,410,1.50004816055298,keyboard,keyboard,0,0410_s5n_s04_0_keyboard_00_keyboard7-bottle1.png
subject-04,1,411,1.50002908706665,chair,boat,0,0411_s5n_s04_0_boat_00_boat3-bicycle2.png
subject-04,1,412,0.921420097351074,oven,knife,0,0412_s5n_s04_0_knife_00_knife8-car2.png
subject-04,1,413,1.22229790687561,clock,oven,0,0413_s5n_s04_0_oven_00_oven7-bottle1.png
subject-04,1,414,1.50041198730469,car,airplane,0,0414_s5n_s04_0_airplane_00_airplane4-boat3.png
subject-04,1,415,0.819726943969727,oven,cat,0,0415_s5n_s04_0_cat_00_cat9-bottle2.png
subject-04,1,416,1.50009298324585,car,car,0,0416_s5n_s04_0_car_00_car4-bottle1.png
subject-04,1,417,1.34182381629944,bicycle,bicycle,0,0417_s5n_s04_0_bicycle_00_bicycle9-knife3.png
subject-04,1,418,NaN,na,airplane,0,0418_s5n_s04_0_airplane_00_airplane6-chair3.png
subject-04,1,419,0.948042869567871,oven,oven,0,0419_s5n_s04_0_oven_00_oven2-chair1.png
subject-04,1,420,NaN,na,oven,0,0420_s5n_s04_0_oven_00_oven8-cat3.png
subject-04,1,421,1.47502112388611,elephant,elephant,0,0421_s5n_s04_0_elephant_00_elephant7-cat1.png
subject-04,1,422,1.46640396118164,bicycle,bicycle,0,0422_s5n_s04_0_bicycle_00_bicycle10-dog3.png
subject-04,1,423,1.41017699241638,bottle,clock,0,0423_s5n_s04_0_clock_00_clock6-truck3.png
subject-04,1,424,0.813192844390869,bottle,bottle,0,0424_s5n_s04_0_bottle_00_bottle6-boat3.png
subject-04,1,425,1.50020813941956,chair,airplane,0,0425_s5n_s04_0_airplane_00_airplane7-boat2.png
subject-04,1,426,1.21060109138489,bear,keyboard,0,0426_s5n_s04_0_keyboard_00_keyboard6-bottle2.png
subject-04,1,427,1.36965894699097,bear,bear,0,0427_s5n_s04_0_bear_00_bear2-airplane1.png
subject-04,1,428,1.47656393051147,chair,cat,0,0428_s5n_s04_0_cat_00_cat10-bird2.png
subject-04,1,429,0.830457925796509,airplane,airplane,0,0429_s5n_s04_0_airplane_00_airplane7-airplane3.png
subject-04,1,430,0.906633138656616,oven,bear,0,0430_s5n_s04_0_bear_00_bear4-car3.png
subject-04,1,431,0.67466402053833,chair,chair,0,0431_s5n_s04_0_chair_00_chair1-dog1.png
subject-04,1,432,1.43391299247742,car,knife,0,0432_s5n_s04_0_knife_00_knife2-car3.png
subject-04,1,433,0.917340993881226,keyboard,airplane,0,0433_s5n_s04_0_airplane_00_airplane10-knife3.png
subject-04,1,434,NaN,na,chair,0,0434_s5n_s04_0_chair_00_chair2-keyboard2.png
subject-04,1,435,1.47235703468323,bottle,keyboard,0,0435_s5n_s04_0_keyboard_00_keyboard4-knife2.png
subject-04,1,436,1.50010991096497,bird,bird,0,0436_s5n_s04_0_bird_00_bird10-bird2.png
subject-04,1,437,1.24641990661621,bird,cat,0,0437_s5n_s04_0_cat_00_cat10-keyboard1.png
subject-04,1,438,NaN,na,elephant,0,0438_s5n_s04_0_elephant_00_elephant9-elephant3.png
subject-04,1,439,0.844505071640015,oven,chair,0,0439_s5n_s04_0_chair_00_chair8-clock3.png
subject-04,1,440,1.31472182273865,dog,dog,0,0440_s5n_s04_0_dog_00_dog5-car3.png
subject-04,1,441,1.34995579719543,bicycle,bicycle,0,0441_s5n_s04_0_bicycle_00_bicycle2-dog1.png
subject-04,1,442,1.09536504745483,bird,bird,0,0442_s5n_s04_0_bird_00_bird4-dog3.png
subject-04,1,443,0.955166816711426,car,car,0,0443_s5n_s04_0_car_00_car8-bicycle2.png
subject-04,1,444,0.968584060668945,truck,truck,0,0444_s5n_s04_0_truck_00_truck6-clock2.png
subject-04,1,445,0.906989097595215,bird,bird,0,0445_s5n_s04_0_bird_00_bird9-bicycle3.png
subject-04,1,446,1.05279493331909,clock,clock,0,0446_s5n_s04_0_clock_00_clock2-elephant2.png
subject-04,1,447,1.38888001441956,elephant,elephant,0,0447_s5n_s04_0_elephant_00_elephant8-boat2.png
subject-04,1,448,1.21030783653259,elephant,elephant,0,0448_s5n_s04_0_elephant_00_elephant1-airplane2.png
subject-04,1,449,1.22371506690979,chair,chair,0,0449_s5n_s04_0_chair_00_chair7-boat3.png
subject-04,1,450,0.948206186294556,oven,keyboard,0,0450_s5n_s04_0_keyboard_00_keyboard7-dog1.png
subject-04,1,451,1.40829491615295,chair,elephant,0,0451_s5n_s04_0_elephant_00_elephant5-elephant1.png
subject-04,1,452,1.08416819572449,elephant,dog,0,0452_s5n_s04_0_dog_00_dog9-cat1.png
subject-04,1,453,0.960582971572876,oven,oven,0,0453_s5n_s04_0_oven_00_oven3-boat3.png
subject-04,1,454,1.32844996452332,oven,airplane,0,0454_s5n_s04_0_airplane_00_airplane3-chair3.png
subject-04,1,455,1.50020599365234,elephant,dog,0,0455_s5n_s04_0_dog_00_dog10-elephant1.png
subject-04,1,456,1.35972499847412,chair,chair,0,0456_s5n_s04_0_chair_00_chair10-clock1.png
subject-04,1,457,0.97348690032959,dog,dog,0,0457_s5n_s04_0_dog_00_dog8-oven3.png
subject-04,1,458,1.50005197525024,car,car,0,0458_s5n_s04_0_car_00_car2-car3.png
subject-04,1,459,1.46488881111145,cat,bird,0,0459_s5n_s04_0_bird_00_bird9-elephant2.png
subject-04,1,460,1.49194502830505,chair,chair,0,0460_s5n_s04_0_chair_00_chair7-bottle1.png
subject-04,1,461,0.916026830673218,oven,boat,0,0461_s5n_s04_0_boat_00_boat5-boat3.png
subject-04,1,462,NaN,na,cat,0,0462_s5n_s04_0_cat_00_cat8-car2.png
subject-04,1,463,1.50012803077698,bottle,bottle,0,0463_s5n_s04_0_bottle_00_bottle3-bear2.png
subject-04,1,464,1.37096500396729,clock,bottle,0,0464_s5n_s04_0_bottle_00_bottle5-elephant1.png
subject-04,1,465,1.47125887870789,boat,boat,0,0465_s5n_s04_0_boat_00_boat7-truck2.png
subject-04,1,466,1.40100717544556,airplane,keyboard,0,0466_s5n_s04_0_keyboard_00_keyboard7-bear2.png
subject-04,1,467,1.22325301170349,boat,bottle,0,0467_s5n_s04_0_bottle_00_bottle9-keyboard1.png
subject-04,1,468,0.85310697555542,cat,bird,0,0468_s5n_s04_0_bird_00_bird1-airplane2.png
subject-04,1,469,0.991202116012573,oven,oven,0,0469_s5n_s04_0_oven_00_oven2-oven3.png
subject-04,1,470,0.945702791213989,oven,chair,0,0470_s5n_s04_0_chair_00_chair9-dog2.png
subject-04,1,471,1.46707105636597,oven,keyboard,0,0471_s5n_s04_0_keyboard_00_keyboard7-truck2.png
subject-04,1,472,1.29753589630127,bottle,keyboard,0,0472_s5n_s04_0_keyboard_00_keyboard7-knife1.png
subject-04,1,473,1.32487010955811,chair,chair,0,0473_s5n_s04_0_chair_00_chair2-knife1.png
subject-04,1,474,1.05465984344482,car,chair,0,0474_s5n_s04_0_chair_00_chair7-car2.png
subject-04,1,475,1.34630084037781,clock,airplane,0,0475_s5n_s04_0_airplane_00_airplane3-airplane2.png
subject-04,1,476,1.49837517738342,boat,boat,0,0476_s5n_s04_0_boat_00_boat5-airplane1.png
subject-04,1,477,1.50019001960754,car,elephant,0,0477_s5n_s04_0_elephant_00_elephant4-car3.png
subject-04,1,478,1.50023198127747,knife,airplane,0,0478_s5n_s04_0_airplane_00_airplane5-bicycle1.png
subject-04,1,479,0.720579147338867,car,car,0,0479_s5n_s04_0_car_00_car9-clock2.png
subject-04,1,480,1.29383111000061,clock,clock,0,0480_s5n_s04_0_clock_00_clock4-knife1.png
subject-04,1,481,0.948243141174316,truck,truck,0,0481_s5n_s04_0_truck_00_truck3-bicycle1.png
subject-04,1,482,1.26990485191345,keyboard,knife,0,0482_s5n_s04_0_knife_00_knife8-bottle3.png
subject-04,1,483,0.875634908676147,bottle,truck,0,0483_s5n_s04_0_truck_00_truck7-keyboard3.png
subject-04,1,484,1.50019097328186,bird,bird,0,0484_s5n_s04_0_bird_00_bird5-cat2.png
subject-04,1,485,1.41039204597473,clock,cat,0,0485_s5n_s04_0_cat_00_cat4-cat3.png
subject-04,1,486,1.50014805793762,keyboard,oven,0,0486_s5n_s04_0_oven_00_oven8-keyboard3.png
subject-04,1,487,0.909127950668335,keyboard,bear,0,0487_s5n_s04_0_bear_00_bear10-truck1.png
subject-04,1,488,1.50010800361633,car,keyboard,0,0488_s5n_s04_0_keyboard_00_keyboard8-oven1.png
subject-04,1,489,NaN,na,bird,0,0489_s5n_s04_0_bird_00_bird7-knife2.png
subject-04,1,490,1.30750393867493,cat,cat,0,0490_s5n_s04_0_cat_00_cat6-clock3.png
subject-04,1,491,1.50013995170593,truck,truck,0,0491_s5n_s04_0_truck_00_truck7-truck2.png
subject-04,1,492,0.980715990066528,keyboard,knife,0,0492_s5n_s04_0_knife_00_knife6-boat3.png
subject-04,1,493,1.24111199378967,oven,chair,0,0493_s5n_s04_0_chair_00_chair8-boat1.png
subject-04,1,494,1.44123101234436,bear,bear,0,0494_s5n_s04_0_bear_00_bear3-cat1.png
subject-04,1,495,1.49580812454224,elephant,airplane,0,0495_s5n_s04_0_airplane_00_airplane10-elephant1.png
subject-04,1,496,0.97106409072876,truck,truck,0,0496_s5n_s04_0_truck_00_truck5-cat3.png
subject-04,1,497,1.50000596046448,car,car,0,0497_s5n_s04_0_car_00_car4-car2.png
subject-04,1,498,1.35387301445007,clock,clock,0,0498_s5n_s04_0_clock_00_clock1-clock2.png
subject-04,1,499,1.49947714805603,bird,bird,0,0499_s5n_s04_0_bird_00_bird6-airplane2.png
subject-04,1,500,1.32175302505493,truck,truck,0,0500_s5n_s04_0_truck_00_truck7-oven2.png
subject-04,1,501,0.911344051361084,keyboard,boat,0,0501_s5n_s04_0_boat_00_boat8-bird2.png
subject-04,1,502,1.43291091918945,keyboard,bottle,0,0502_s5n_s04_0_bottle_00_bottle8-bicycle1.png
subject-04,1,503,0.925368070602417,airplane,airplane,0,0503_s5n_s04_0_airplane_00_airplane6-knife1.png
subject-04,1,504,1.48538184165955,oven,boat,0,0504_s5n_s04_0_boat_00_boat9-dog2.png
subject-04,1,505,1.50008010864258,clock,keyboard,0,0505_s5n_s04_0_keyboard_00_keyboard5-bird3.png
subject-04,1,506,1.50006198883057,chair,cat,0,0506_s5n_s04_0_cat_00_cat9-bicycle1.png
subject-04,1,507,1.2505362033844,clock,clock,0,0507_s5n_s04_0_clock_00_clock8-airplane2.png
subject-04,1,508,1.02681398391724,truck,truck,0,0508_s5n_s04_0_truck_00_truck4-knife1.png
subject-04,1,509,1.46238088607788,oven,truck,0,0509_s5n_s04_0_truck_00_truck3-keyboard3.png
subject-04,1,510,1.17824697494507,bird,bird,0,0510_s5n_s04_0_bird_00_bird10-chair1.png
subject-04,1,511,1.16045904159546,clock,boat,0,0511_s5n_s04_0_boat_00_boat1-car2.png
subject-04,1,512,1.50027990341187,truck,truck,0,0512_s5n_s04_0_truck_00_truck2-chair1.png
subject-04,1,513,0.89709997177124,cat,oven,0,0513_s5n_s04_0_oven_00_oven7-dog2.png
subject-04,1,514,0.934993982315063,car,elephant,0,0514_s5n_s04_0_elephant_00_elephant2-airplane3.png
subject-04,1,515,0.843708992004395,cat,cat,0,0515_s5n_s04_0_cat_00_cat8-bicycle3.png
subject-04,1,516,0.957290887832642,truck,truck,0,0516_s5n_s04_0_truck_00_truck1-bird1.png
subject-04,1,517,0.703910827636719,bottle,bottle,0,0517_s5n_s04_0_bottle_00_bottle3-knife3.png
subject-04,1,518,0.849675178527832,knife,knife,0,0518_s5n_s04_0_knife_00_knife4-cat2.png
subject-04,1,519,0.747369050979614,bear,bear,0,0519_s5n_s04_0_bear_00_bear9-knife2.png
subject-04,1,520,0.801270008087158,chair,keyboard,0,0520_s5n_s04_0_keyboard_00_keyboard8-chair2.png
subject-04,1,521,1.16971611976624,clock,clock,0,0521_s5n_s04_0_clock_00_clock2-dog1.png
subject-04,1,522,0.701978921890259,bird,bird,0,0522_s5n_s04_0_bird_00_bird4-clock1.png
subject-04,1,523,0.923573017120361,boat,car,0,0523_s5n_s04_0_car_00_car6-chair3.png
subject-04,1,524,0.945372819900513,cat,cat,0,0524_s5n_s04_0_cat_00_cat9-dog2.png
subject-04,1,525,1.12899804115295,elephant,dog,0,0525_s5n_s04_0_dog_00_dog7-oven2.png
subject-04,1,526,0.988588094711304,oven,oven,0,0526_s5n_s04_0_oven_00_oven2-dog3.png
subject-04,1,527,0.588322877883911,oven,oven,0,0527_s5n_s04_0_oven_00_oven3-bottle3.png
subject-04,1,528,0.817985057830811,bicycle,bicycle,0,0528_s5n_s04_0_bicycle_00_bicycle9-keyboard3.png
subject-04,1,529,0.856227159500122,cat,cat,0,0529_s5n_s04_0_cat_00_cat2-knife3.png
subject-04,1,530,0.75362491607666,car,car,0,0530_s5n_s04_0_car_00_car2-chair1.png
subject-04,1,531,1.03835201263428,airplane,airplane,0,0531_s5n_s04_0_airplane_00_airplane9-boat1.png
subject-04,1,532,0.692239999771118,bicycle,bicycle,0,0532_s5n_s04_0_bicycle_00_bicycle9-cat3.png
subject-04,1,533,0.745911836624146,bear,bear,0,0533_s5n_s04_0_bear_00_bear2-knife2.png
subject-04,1,534,1.34393692016602,bear,elephant,0,0534_s5n_s04_0_elephant_00_elephant6-cat2.png
subject-04,1,535,1.29733180999756,car,car,0,0535_s5n_s04_0_car_00_car4-elephant3.png
subject-04,1,536,0.788606882095337,cat,knife,0,0536_s5n_s04_0_knife_00_knife3-cat1.png
subject-04,1,537,1.10265016555786,cat,bear,0,0537_s5n_s04_0_bear_00_bear10-chair2.png
subject-04,1,538,0.57875394821167,bottle,bottle,0,0538_s5n_s04_0_bottle_00_bottle10-boat3.png
subject-04,1,539,0.624846935272217,bicycle,bicycle,0,0539_s5n_s04_0_bicycle_00_bicycle2-bird3.png
subject-04,1,540,0.979074954986572,bottle,knife,0,0540_s5n_s04_0_knife_00_knife2-elephant2.png
subject-04,1,541,0.94091010093689,knife,knife,0,0541_s5n_s04_0_knife_00_knife3-knife1.png
subject-04,1,542,0.846637010574341,clock,clock,0,0542_s5n_s04_0_clock_00_clock5-chair3.png
subject-04,1,543,0.798094034194946,chair,boat,0,0543_s5n_s04_0_boat_00_boat7-clock3.png
subject-04,1,544,1.50034594535828,dog,cat,0,0544_s5n_s04_0_cat_00_cat7-bottle1.png
subject-04,1,545,0.727614164352417,bottle,bottle,0,0545_s5n_s04_0_bottle_00_bottle3-bottle3.png
subject-04,1,546,1.35773587226868,bird,bird,0,0546_s5n_s04_0_bird_00_bird7-bird2.png
subject-04,1,547,0.787467002868652,car,car,0,0547_s5n_s04_0_car_00_car8-knife2.png
subject-04,1,548,0.549052000045776,clock,clock,0,0548_s5n_s04_0_clock_00_clock9-airplane1.png
subject-04,1,549,0.885144948959351,bicycle,elephant,0,0549_s5n_s04_0_elephant_00_elephant3-keyboard2.png
subject-04,1,550,1.32279491424561,elephant,knife,0,0550_s5n_s04_0_knife_00_knife10-elephant3.png
subject-04,1,551,1.0427839756012,bear,knife,0,0551_s5n_s04_0_knife_00_knife9-bicycle1.png
subject-04,1,552,0.894509077072144,chair,chair,0,0552_s5n_s04_0_chair_00_chair1-elephant1.png
subject-04,1,553,0.756486892700195,oven,oven,0,0553_s5n_s04_0_oven_00_oven4-truck3.png
subject-04,1,554,0.84846305847168,bird,bird,0,0554_s5n_s04_0_bird_00_bird10-bear2.png
subject-04,1,555,1.18608498573303,knife,airplane,0,0555_s5n_s04_0_airplane_00_airplane10-cat2.png
subject-04,1,556,1.27833080291748,cat,truck,0,0556_s5n_s04_0_truck_00_truck2-clock1.png
subject-04,1,557,1.46205496788025,car,car,0,0557_s5n_s04_0_car_00_car10-car1.png
subject-04,1,558,0.80551290512085,boat,boat,0,0558_s5n_s04_0_boat_00_boat2-bottle2.png
subject-04,1,559,0.988881826400757,truck,truck,0,0559_s5n_s04_0_truck_00_truck1-chair2.png
subject-04,1,560,0.971915006637573,bird,bird,0,0560_s5n_s04_0_bird_00_bird10-elephant2.png
subject-04,1,561,1.2564549446106,bottle,bottle,0,0561_s5n_s04_0_bottle_00_bottle1-bear1.png
subject-04,1,562,1.50033807754517,oven,boat,0,0562_s5n_s04_0_boat_00_boat3-clock3.png
subject-04,1,563,0.948326826095581,bottle,bottle,0,0563_s5n_s04_0_bottle_00_bottle8-bottle3.png
subject-04,1,564,0.478924036026001,clock,clock,0,0564_s5n_s04_0_clock_00_clock4-airplane1.png
subject-04,1,565,1.44584703445435,knife,dog,0,0565_s5n_s04_0_dog_00_dog6-bird1.png
subject-04,1,566,1.50027203559875,dog,bear,0,0566_s5n_s04_0_bear_00_bear1-bird2.png
subject-04,1,567,1.50003290176392,car,knife,0,0567_s5n_s04_0_knife_00_knife4-boat1.png
subject-04,1,568,NaN,na,truck,0,0568_s5n_s04_0_truck_00_truck9-elephant1.png
subject-04,1,569,1.20633482933044,truck,truck,0,0569_s5n_s04_0_truck_00_truck6-bottle3.png
subject-04,1,570,0.881724119186401,airplane,airplane,0,0570_s5n_s04_0_airplane_00_airplane4-knife1.png
subject-04,1,571,0.995532035827637,bicycle,bicycle,0,0571_s5n_s04_0_bicycle_00_bicycle3-bird1.png
subject-04,1,572,0.735368967056274,chair,chair,0,0572_s5n_s04_0_chair_00_chair9-elephant1.png
subject-04,1,573,1.30881190299988,car,car,0,0573_s5n_s04_0_car_00_car7-car1.png
subject-04,1,574,0.866191148757935,oven,elephant,0,0574_s5n_s04_0_elephant_00_elephant6-car3.png
subject-04,1,575,1.24282312393188,clock,clock,0,0575_s5n_s04_0_clock_00_clock4-elephant2.png
subject-04,1,576,1.41858792304993,clock,knife,0,0576_s5n_s04_0_knife_00_knife7-boat3.png
subject-04,1,577,0.742085933685303,keyboard,keyboard,0,0577_s5n_s04_0_keyboard_00_keyboard9-airplane3.png
subject-04,1,578,1.14868688583374,clock,bear,0,0578_s5n_s04_0_bear_00_bear9-keyboard3.png
subject-04,1,579,0.872606992721558,clock,clock,0,0579_s5n_s04_0_clock_00_clock8-truck2.png
subject-04,1,580,1.41603708267212,truck,truck,0,0580_s5n_s04_0_truck_00_truck9-boat3.png
subject-04,1,581,1.09998106956482,knife,knife,0,0581_s5n_s04_0_knife_00_knife2-bear2.png
subject-04,1,582,0.878031969070435,clock,clock,0,0582_s5n_s04_0_clock_00_clock3-bear3.png
subject-04,1,583,1.17834305763245,car,airplane,0,0583_s5n_s04_0_airplane_00_airplane4-truck2.png
subject-04,1,584,NaN,na,bird,0,0584_s5n_s04_0_bird_00_bird1-knife3.png
subject-04,1,585,1.24655699729919,boat,boat,0,0585_s5n_s04_0_boat_00_boat5-bicycle3.png
subject-04,1,586,1.49343585968018,bicycle,bicycle,0,0586_s5n_s04_0_bicycle_00_bicycle6-car2.png
subject-04,1,587,1.50003290176392,keyboard,car,0,0587_s5n_s04_0_car_00_car10-elephant2.png
subject-04,1,588,1.26003193855286,keyboard,boat,0,0588_s5n_s04_0_boat_00_boat4-bird1.png
subject-04,1,589,1.37343907356262,elephant,elephant,0,0589_s5n_s04_0_elephant_00_elephant7-bird1.png
subject-04,1,590,1.34955811500549,chair,chair,0,0590_s5n_s04_0_chair_00_chair10-bottle3.png
subject-04,1,591,1.0552659034729,bicycle,bicycle,0,0591_s5n_s04_0_bicycle_00_bicycle9-chair1.png
subject-04,1,592,1.17118692398071,bear,bear,0,0592_s5n_s04_0_bear_00_bear2-car2.png
subject-04,1,593,0.863026857376099,bird,bird,0,0593_s5n_s04_0_bird_00_bird7-boat1.png
subject-04,1,594,1.50007605552673,bird,bird,0,0594_s5n_s04_0_bird_00_bird5-airplane3.png
subject-04,1,595,1.18485593795776,elephant,elephant,0,0595_s5n_s04_0_elephant_00_elephant3-oven1.png
subject-04,1,596,1.09393215179443,bird,dog,0,0596_s5n_s04_0_dog_00_dog4-bicycle1.png
subject-04,1,597,0.931113958358765,keyboard,knife,0,0597_s5n_s04_0_knife_00_knife5-knife3.png
subject-04,1,598,0.698342084884644,clock,clock,0,0598_s5n_s04_0_clock_00_clock3-bird1.png
subject-04,1,599,1.42855501174927,knife,knife,0,0599_s5n_s04_0_knife_00_knife1-dog1.png
subject-04,1,600,1.26673793792725,airplane,airplane,0,0600_s5n_s04_0_airplane_00_airplane7-bottle3.png
subject-04,1,601,0.936690092086792,airplane,boat,0,0601_s5n_s04_0_boat_00_boat6-bicycle2.png
subject-04,1,602,1.18790817260742,bear,bear,0,0602_s5n_s04_0_bear_00_bear8-boat2.png
subject-04,1,603,1.19620394706726,bear,bear,0,0603_s5n_s04_0_bear_00_bear2-elephant1.png
subject-04,1,604,0.920533180236816,clock,clock,0,0604_s5n_s04_0_clock_00_clock2-bicycle1.png
subject-04,1,605,NaN,na,knife,0,0605_s5n_s04_0_knife_00_knife3-clock2.png
subject-04,1,606,1.17166686058044,airplane,dog,0,0606_s5n_s04_0_dog_00_dog4-keyboard2.png
subject-04,1,607,1.50005602836609,elephant,elephant,0,0607_s5n_s04_0_elephant_00_elephant5-car1.png
subject-04,1,608,1.50021815299988,chair,bear,0,0608_s5n_s04_0_bear_00_bear3-car2.png
subject-04,1,609,1.47849702835083,knife,boat,0,0609_s5n_s04_0_boat_00_boat4-dog2.png
subject-04,1,610,1.43775701522827,elephant,elephant,0,0610_s5n_s04_0_elephant_00_elephant5-truck1.png
subject-04,1,611,1.03282999992371,elephant,bottle,0,0611_s5n_s04_0_bottle_00_bottle7-elephant2.png
subject-04,1,612,1.40038299560547,elephant,knife,0,0612_s5n_s04_0_knife_00_knife7-bird3.png
subject-04,1,613,NaN,na,boat,0,0613_s5n_s04_0_boat_00_boat6-bear1.png
subject-04,1,614,1.29244017601013,airplane,airplane,0,0614_s5n_s04_0_airplane_00_airplane9-car2.png
subject-04,1,615,1.30031895637512,clock,clock,0,0615_s5n_s04_0_clock_00_clock4-boat3.png
subject-04,1,616,0.883604049682617,bicycle,bicycle,0,0616_s5n_s04_0_bicycle_00_bicycle1-bear1.png
subject-04,1,617,1.50019407272339,knife,boat,0,0617_s5n_s04_0_boat_00_boat8-elephant1.png
subject-04,1,618,1.19985198974609,boat,bicycle,0,0618_s5n_s04_0_bicycle_00_bicycle1-elephant2.png
subject-04,1,619,1.23545789718628,bicycle,bear,0,0619_s5n_s04_0_bear_00_bear5-bird1.png
subject-04,1,620,1.14409399032593,keyboard,oven,0,0620_s5n_s04_0_oven_00_oven8-chair1.png
subject-04,1,621,1.0513768196106,elephant,airplane,0,0621_s5n_s04_0_airplane_00_airplane3-elephant1.png
subject-04,1,622,0.913372039794922,bird,bird,0,0622_s5n_s04_0_bird_00_bird8-elephant1.png
subject-04,1,623,0.881894111633301,cat,bottle,0,0623_s5n_s04_0_bottle_00_bottle7-bear1.png
subject-04,1,624,0.722424030303955,boat,boat,0,0624_s5n_s04_0_boat_00_boat2-oven3.png
subject-04,1,625,1.24437689781189,cat,bird,0,0625_s5n_s04_0_bird_00_bird4-bicycle2.png
subject-04,1,626,1.41969299316406,elephant,airplane,0,0626_s5n_s04_0_airplane_00_airplane2-bicycle1.png
subject-04,1,627,0.927772998809814,keyboard,keyboard,0,0627_s5n_s04_0_keyboard_00_keyboard5-dog3.png
subject-04,1,628,1.39508008956909,elephant,elephant,0,0628_s5n_s04_0_elephant_00_elephant10-bear1.png
subject-04,1,629,1.50025606155396,bear,bottle,0,0629_s5n_s04_0_bottle_00_bottle3-boat3.png
subject-04,1,630,1.47619986534119,bottle,bird,0,0630_s5n_s04_0_bird_00_bird3-knife3.png
subject-04,1,631,1.17553496360779,truck,truck,0,0631_s5n_s04_0_truck_00_truck1-knife1.png
subject-04,1,632,1.40524005889893,airplane,dog,0,0632_s5n_s04_0_dog_00_dog1-knife3.png
subject-04,1,633,1.02744007110596,bicycle,bicycle,0,0633_s5n_s04_0_bicycle_00_bicycle1-airplane2.png
subject-04,1,634,1.28872394561768,truck,truck,0,0634_s5n_s04_0_truck_00_truck8-cat2.png
subject-04,1,635,1.42688202857971,truck,bear,0,0635_s5n_s04_0_bear_00_bear3-truck3.png
subject-04,1,636,0.694936990737915,oven,boat,0,0636_s5n_s04_0_boat_00_boat4-boat3.png
subject-04,1,637,0.740092992782593,cat,dog,0,0637_s5n_s04_0_dog_00_dog10-truck2.png
subject-04,1,638,0.816138029098511,truck,truck,0,0638_s5n_s04_0_truck_00_truck3-clock3.png
subject-04,1,639,0.861888885498047,clock,clock,0,0639_s5n_s04_0_clock_00_clock5-keyboard1.png
subject-04,1,640,1.01375699043274,bottle,bottle,0,0640_s5n_s04_0_bottle_00_bottle9-car3.png
subject-04,1,641,1.36780619621277,keyboard,keyboard,0,0641_s5n_s04_0_keyboard_00_keyboard5-knife2.png
subject-04,1,642,1.47344183921814,bird,bird,0,0642_s5n_s04_0_bird_00_bird5-truck2.png
subject-04,1,643,1.50011777877808,airplane,bear,0,0643_s5n_s04_0_bear_00_bear3-bicycle2.png
subject-04,1,644,1.24132108688354,truck,truck,0,0644_s5n_s04_0_truck_00_truck9-chair3.png
subject-04,1,645,1.50032591819763,chair,boat,0,0645_s5n_s04_0_boat_00_boat3-chair3.png
subject-04,1,646,NaN,na,bicycle,0,0646_s5n_s04_0_bicycle_00_bicycle7-knife2.png
subject-04,1,647,1.37102198600769,cat,airplane,0,0647_s5n_s04_0_airplane_00_airplane5-dog3.png
subject-04,1,648,1.26352190971375,elephant,cat,0,0648_s5n_s04_0_cat_00_cat7-knife2.png
subject-04,1,649,0.955691814422607,oven,oven,0,0649_s5n_s04_0_oven_00_oven5-dog3.png
subject-04,1,650,1.10928106307983,bicycle,bicycle,0,0650_s5n_s04_0_bicycle_00_bicycle5-cat1.png
subject-04,1,651,1.42340397834778,car,car,0,0651_s5n_s04_0_car_00_car7-airplane2.png
subject-04,1,652,1.45288395881653,keyboard,airplane,0,0652_s5n_s04_0_airplane_00_airplane3-car1.png
subject-04,1,653,1.49130702018738,oven,airplane,0,0653_s5n_s04_0_airplane_00_airplane3-clock1.png
subject-04,1,654,1.3285231590271,dog,dog,0,0654_s5n_s04_0_dog_00_dog2-knife3.png
subject-04,1,655,1.15280413627625,oven,bicycle,0,0655_s5n_s04_0_bicycle_00_bicycle7-elephant2.png
subject-04,1,656,1.36121606826782,knife,elephant,0,0656_s5n_s04_0_elephant_00_elephant1-keyboard3.png
subject-04,1,657,1.43754506111145,clock,clock,0,0657_s5n_s04_0_clock_00_clock10-oven2.png
subject-04,1,658,1.26732492446899,knife,knife,0,0658_s5n_s04_0_knife_00_knife2-dog1.png
subject-04,1,659,1.11272597312927,oven,oven,0,0659_s5n_s04_0_oven_00_oven5-bottle3.png
subject-04,1,660,0.918915987014771,bird,keyboard,0,0660_s5n_s04_0_keyboard_00_keyboard6-chair1.png
subject-04,1,661,1.49421405792236,car,car,0,0661_s5n_s04_0_car_00_car8-chair1.png
subject-04,1,662,1.50017786026001,oven,bicycle,0,0662_s5n_s04_0_bicycle_00_bicycle4-bottle1.png
subject-04,1,663,1.12632703781128,car,car,0,0663_s5n_s04_0_car_00_car8-boat3.png
subject-04,1,664,0.61812686920166,clock,clock,0,0664_s5n_s04_0_clock_00_clock2-bear2.png
subject-04,1,665,1.23258590698242,cat,car,0,0665_s5n_s04_0_car_00_car1-dog2.png
subject-04,1,666,1.50012707710266,elephant,elephant,0,0666_s5n_s04_0_elephant_00_elephant3-truck1.png
subject-04,1,667,1.17018699645996,cat,elephant,0,0667_s5n_s04_0_elephant_00_elephant2-keyboard3.png
subject-04,1,668,1.0375030040741,clock,clock,0,0668_s5n_s04_0_clock_00_clock7-boat3.png
subject-04,1,669,0.597100019454956,oven,oven,0,0669_s5n_s04_0_oven_00_oven5-elephant1.png
subject-04,1,670,0.918702125549316,bird,bird,0,0670_s5n_s04_0_bird_00_bird8-boat3.png
subject-04,1,671,1.36416411399841,car,car,0,0671_s5n_s04_0_car_00_car6-boat1.png
subject-04,1,672,1.50001382827759,keyboard,oven,0,0672_s5n_s04_0_oven_00_oven4-bottle2.png
subject-04,1,673,1.40917110443115,knife,bottle,0,0673_s5n_s04_0_bottle_00_bottle1-keyboard3.png
subject-04,1,674,1.50011396408081,bird,bird,0,0674_s5n_s04_0_bird_00_bird5-car2.png
subject-04,1,675,1.12579298019409,oven,truck,0,0675_s5n_s04_0_truck_00_truck5-bird2.png
subject-04,1,676,1.37155604362488,bicycle,bicycle,0,0676_s5n_s04_0_bicycle_00_bicycle7-bear2.png
subject-04,1,677,1.0090320110321,bicycle,bicycle,0,0677_s5n_s04_0_bicycle_00_bicycle4-clock3.png
subject-04,1,678,1.50002312660217,cat,cat,0,0678_s5n_s04_0_cat_00_cat9-cat3.png
subject-04,1,679,1.0387978553772,knife,knife,0,0679_s5n_s04_0_knife_00_knife9-boat1.png
subject-04,1,680,1.3746600151062,bottle,clock,0,0680_s5n_s04_0_clock_00_clock7-bear2.png
subject-04,1,681,0.753644943237305,bottle,bottle,0,0681_s5n_s04_0_bottle_00_bottle5-oven2.png
subject-04,1,682,1.29668593406677,cat,cat,0,0682_s5n_s04_0_cat_00_cat1-bird1.png
subject-04,1,683,1.08270311355591,elephant,elephant,0,0683_s5n_s04_0_elephant_00_elephant7-knife2.png
subject-04,1,684,1.05834913253784,chair,keyboard,0,0684_s5n_s04_0_keyboard_00_keyboard9-elephant2.png
subject-04,1,685,1.43206810951233,bottle,chair,0,0685_s5n_s04_0_chair_00_chair1-clock2.png
subject-04,1,686,0.915560960769653,bottle,bottle,0,0686_s5n_s04_0_bottle_00_bottle3-cat3.png
subject-04,1,687,0.869022130966187,cat,cat,0,0687_s5n_s04_0_cat_00_cat2-cat1.png
subject-04,1,688,0.931695938110352,truck,truck,0,0688_s5n_s04_0_truck_00_truck2-car3.png
subject-04,1,689,1.19117999076843,car,car,0,0689_s5n_s04_0_car_00_car3-dog2.png
subject-04,1,690,1.38329482078552,airplane,airplane,0,0690_s5n_s04_0_airplane_00_airplane6-keyboard3.png
subject-04,1,691,1.15824818611145,bird,airplane,0,0691_s5n_s04_0_airplane_00_airplane7-cat3.png
subject-04,1,692,1.21917605400085,cat,elephant,0,0692_s5n_s04_0_elephant_00_elephant2-truck2.png
subject-04,1,693,1.50007319450378,car,boat,0,0693_s5n_s04_0_boat_00_boat5-car3.png
subject-04,1,694,1.46416997909546,knife,knife,0,0694_s5n_s04_0_knife_00_knife3-bear2.png
subject-04,1,695,NaN,na,airplane,0,0695_s5n_s04_0_airplane_00_airplane7-clock3.png
subject-04,1,696,1.43250584602356,bear,bear,0,0696_s5n_s04_0_bear_00_bear5-oven3.png
subject-04,1,697,1.24195599555969,bird,bird,0,0697_s5n_s04_0_bird_00_bird9-keyboard1.png
subject-04,1,698,1.40946412086487,bottle,knife,0,0698_s5n_s04_0_knife_00_knife9-bear3.png
subject-04,1,699,0.933725833892822,car,car,0,0699_s5n_s04_0_car_00_car5-cat1.png
subject-04,1,700,0.977992057800293,knife,knife,0,0700_s5n_s04_0_knife_00_knife6-knife1.png
subject-04,1,701,1.46147489547729,boat,knife,0,0701_s5n_s04_0_knife_00_knife2-cat3.png
subject-04,1,702,0.999457120895386,bottle,dog,0,0702_s5n_s04_0_dog_00_dog1-boat3.png
subject-04,1,703,1.28275585174561,chair,chair,0,0703_s5n_s04_0_chair_00_chair3-knife1.png
subject-04,1,704,1.50032114982605,car,truck,0,0704_s5n_s04_0_truck_00_truck9-airplane2.png
subject-04,1,705,1.50007200241089,oven,bird,0,0705_s5n_s04_0_bird_00_bird1-clock3.png
subject-04,1,706,0.913794994354248,bird,bird,0,0706_s5n_s04_0_bird_00_bird1-bicycle2.png
subject-04,1,707,1.50015997886658,airplane,airplane,0,0707_s5n_s04_0_airplane_00_airplane9-keyboard2.png
subject-04,1,708,1.02709603309631,airplane,airplane,0,0708_s5n_s04_0_airplane_00_airplane5-bottle3.png
subject-04,1,709,1.50009489059448,bottle,boat,0,0709_s5n_s04_0_boat_00_boat1-bicycle2.png
subject-04,1,710,1.50009489059448,car,car,0,0710_s5n_s04_0_car_00_car5-knife2.png
subject-04,1,711,1.38754487037659,bicycle,bicycle,0,0711_s5n_s04_0_bicycle_00_bicycle1-truck1.png
subject-04,1,712,1.4169340133667,car,car,0,0712_s5n_s04_0_car_00_car8-airplane3.png
subject-04,1,713,NaN,na,airplane,0,0713_s5n_s04_0_airplane_00_airplane8-bird1.png
subject-04,1,714,1.10699486732483,bottle,bottle,0,0714_s5n_s04_0_bottle_00_bottle10-car1.png
subject-04,1,715,1.40651893615723,bird,bird,0,0715_s5n_s04_0_bird_00_bird7-cat3.png
subject-04,1,716,NaN,na,dog,0,0716_s5n_s04_0_dog_00_dog10-bicycle1.png
subject-04,1,717,0.813316822052002,bottle,bottle,0,0717_s5n_s04_0_bottle_00_bottle4-truck1.png
subject-04,1,718,1.03443694114685,chair,chair,0,0718_s5n_s04_0_chair_00_chair4-truck2.png
subject-04,1,719,1.44261407852173,cat,cat,0,0719_s5n_s04_0_cat_00_cat7-dog3.png
subject-04,1,720,1.4566810131073,bottle,dog,0,0720_s5n_s04_0_dog_00_dog7-chair2.png
subject-04,1,721,0.956201076507568,clock,truck,0,0721_s5n_s04_0_truck_00_truck9-bottle2.png
subject-04,1,722,1.50001096725464,clock,clock,0,0722_s5n_s04_0_clock_00_clock3-car2.png
subject-04,1,723,NaN,na,clock,0,0723_s5n_s04_0_clock_00_clock3-bicycle2.png
subject-04,1,724,1.12346291542053,airplane,airplane,0,0724_s5n_s04_0_airplane_00_airplane9-airplane2.png
subject-04,1,725,1.42165803909302,clock,dog,0,0725_s5n_s04_0_dog_00_dog4-airplane3.png
subject-04,1,726,0.958750009536743,oven,oven,0,0726_s5n_s04_0_oven_00_oven6-bicycle1.png
subject-04,1,727,0.980630159378052,keyboard,boat,0,0727_s5n_s04_0_boat_00_boat1-oven1.png
subject-04,1,728,1.16645812988281,bear,bear,0,0728_s5n_s04_0_bear_00_bear2-bird3.png
subject-04,1,729,1.50039196014404,bear,bear,0,0729_s5n_s04_0_bear_00_bear10-bear2.png
subject-04,1,730,1.20225691795349,oven,boat,0,0730_s5n_s04_0_boat_00_boat8-oven1.png
subject-04,1,731,0.910269975662231,oven,keyboard,0,0731_s5n_s04_0_keyboard_00_keyboard4-bird1.png
subject-04,1,732,0.864158868789673,cat,dog,0,0732_s5n_s04_0_dog_00_dog5-boat3.png
subject-04,1,733,1.49339699745178,dog,cat,0,0733_s5n_s04_0_cat_00_cat5-bear2.png
subject-04,1,734,1.24545502662659,airplane,cat,0,0734_s5n_s04_0_cat_00_cat5-dog3.png
subject-04,1,735,1.32983303070068,elephant,truck,0,0735_s5n_s04_0_truck_00_truck7-bird2.png
subject-04,1,736,0.858992099761963,car,dog,0,0736_s5n_s04_0_dog_00_dog6-truck2.png
subject-04,1,737,1.26431798934937,chair,bottle,0,0737_s5n_s04_0_bottle_00_bottle9-elephant2.png
subject-04,1,738,0.980614900588989,cat,cat,0,0738_s5n_s04_0_cat_00_cat6-chair3.png
subject-04,1,739,1.085688829422,bear,bear,0,0739_s5n_s04_0_bear_00_bear7-oven3.png
subject-04,1,740,1.5001540184021,chair,oven,0,0740_s5n_s04_0_oven_00_oven6-elephant2.png
subject-04,1,741,1.42100095748901,oven,oven,0,0741_s5n_s04_0_oven_00_oven9-bird3.png
subject-04,1,742,1.14265894889832,oven,oven,0,0742_s5n_s04_0_oven_00_oven10-airplane2.png
subject-04,1,743,1.50003910064697,cat,cat,0,0743_s5n_s04_0_cat_00_cat2-truck3.png
subject-04,1,744,1.25595784187317,clock,elephant,0,0744_s5n_s04_0_elephant_00_elephant4-bird1.png
subject-04,1,745,1.35569500923157,cat,dog,0,0745_s5n_s04_0_dog_00_dog8-bear3.png
subject-04,1,746,0.779739856719971,boat,boat,0,0746_s5n_s04_0_boat_00_boat9-airplane2.png
subject-04,1,747,1.50023603439331,elephant,elephant,0,0747_s5n_s04_0_elephant_00_elephant5-bottle2.png
subject-04,1,748,0.953763961791992,car,car,0,0748_s5n_s04_0_car_00_car9-cat1.png
subject-04,1,749,1.35359501838684,dog,dog,0,0749_s5n_s04_0_dog_00_dog8-dog3.png
subject-04,1,750,0.852910995483398,clock,clock,0,0750_s5n_s04_0_clock_00_clock10-bird3.png
subject-04,1,751,1.50019121170044,elephant,oven,0,0751_s5n_s04_0_oven_00_oven10-boat2.png
subject-04,1,752,0.850465059280396,bottle,bottle,0,0752_s5n_s04_0_bottle_00_bottle4-car3.png
subject-04,1,753,0.996510982513428,car,car,0,0753_s5n_s04_0_car_00_car3-bird2.png
subject-04,1,754,0.734338045120239,clock,clock,0,0754_s5n_s04_0_clock_00_clock7-car1.png
subject-04,1,755,0.751179933547974,bottle,bottle,0,0755_s5n_s04_0_bottle_00_bottle4-oven2.png
subject-04,1,756,1.4407320022583,bicycle,bicycle,0,0756_s5n_s04_0_bicycle_00_bicycle4-bicycle3.png
subject-04,1,757,1.07862997055054,keyboard,keyboard,0,0757_s5n_s04_0_keyboard_00_keyboard9-boat2.png
subject-04,1,758,1.4465970993042,bicycle,bicycle,0,0758_s5n_s04_0_bicycle_00_bicycle5-bottle3.png
subject-04,1,759,1.39209198951721,bottle,boat,0,0759_s5n_s04_0_boat_00_boat9-boat3.png
subject-04,1,760,1.15393686294556,bicycle,cat,0,0760_s5n_s04_0_cat_00_cat9-clock2.png
subject-04,1,761,1.15450119972229,chair,chair,0,0761_s5n_s04_0_chair_00_chair5-car1.png
subject-04,1,762,1.22987198829651,bottle,cat,0,0762_s5n_s04_0_cat_00_cat10-bottle1.png
subject-04,1,763,1.10566806793213,bird,bird,0,0763_s5n_s04_0_bird_00_bird6-elephant2.png
subject-04,1,764,0.990273952484131,cat,cat,0,0764_s5n_s04_0_cat_00_cat1-boat1.png
subject-04,1,765,1.38149285316467,bicycle,bicycle,0,0765_s5n_s04_0_bicycle_00_bicycle4-car2.png
subject-04,1,766,1.40364813804626,bird,elephant,0,0766_s5n_s04_0_elephant_00_elephant2-cat1.png
subject-04,1,767,0.904381990432739,airplane,car,0,0767_s5n_s04_0_car_00_car2-knife3.png
subject-04,1,768,0.772300958633423,chair,airplane,0,0768_s5n_s04_0_airplane_00_airplane5-oven3.png
subject-04,1,769,1.46173286437988,keyboard,keyboard,0,0769_s5n_s04_0_keyboard_00_keyboard4-oven2.png
subject-04,1,770,0.737841844558716,boat,boat,0,0770_s5n_s04_0_boat_00_boat6-car1.png
subject-04,1,771,NaN,na,bear,0,0771_s5n_s04_0_bear_00_bear10-oven1.png
subject-04,1,772,0.490205049514771,bicycle,bicycle,0,0772_s5n_s04_0_bicycle_00_bicycle9-bottle1.png
subject-04,1,773,0.825846910476685,keyboard,keyboard,0,0773_s5n_s04_0_keyboard_00_keyboard3-bird3.png
subject-04,1,774,0.788367033004761,chair,chair,0,0774_s5n_s04_0_chair_00_chair5-keyboard2.png
subject-04,1,775,0.842042207717896,bird,bird,0,0775_s5n_s04_0_bird_00_bird8-bottle1.png
subject-04,1,776,1.01775407791138,bear,bear,0,0776_s5n_s04_0_bear_00_bear3-chair2.png
subject-04,1,777,1.05385518074036,dog,boat,0,0777_s5n_s04_0_boat_00_boat7-bottle1.png
subject-04,1,778,1.42923307418823,boat,keyboard,0,0778_s5n_s04_0_keyboard_00_keyboard1-airplane2.png
subject-04,1,779,0.77449107170105,chair,knife,0,0779_s5n_s04_0_knife_00_knife10-chair1.png
subject-04,1,780,0.7449951171875,oven,oven,0,0780_s5n_s04_0_oven_00_oven5-bird1.png
subject-04,1,781,0.675100803375244,oven,oven,0,0781_s5n_s04_0_oven_00_oven9-car2.png
subject-04,1,782,0.767126083374023,cat,cat,0,0782_s5n_s04_0_cat_00_cat6-bear1.png
subject-04,1,783,1.2051568031311,dog,bird,0,0783_s5n_s04_0_bird_00_bird3-truck3.png
subject-04,1,784,0.688777923583984,boat,boat,0,0784_s5n_s04_0_boat_00_boat5-knife2.png
subject-04,1,785,1.36943006515503,elephant,knife,0,0785_s5n_s04_0_knife_00_knife7-elephant2.png
subject-04,1,786,1.27021884918213,bear,knife,0,0786_s5n_s04_0_knife_00_knife10-bear3.png
subject-04,1,787,1.03225183486938,elephant,elephant,0,0787_s5n_s04_0_elephant_00_elephant1-car3.png
subject-04,1,788,1.13267087936401,knife,knife,0,0788_s5n_s04_0_knife_00_knife4-keyboard1.png
subject-04,1,789,1.00089001655579,dog,dog,0,0789_s5n_s04_0_dog_00_dog10-oven2.png
subject-04,1,790,1.10021996498108,boat,boat,0,0790_s5n_s04_0_boat_00_boat4-chair2.png
subject-04,1,791,1.36787390708923,car,car,0,0791_s5n_s04_0_car_00_car4-bear3.png
subject-04,1,792,0.898411989212036,bicycle,bicycle,0,0792_s5n_s04_0_bicycle_00_bicycle10-elephant2.png
subject-04,1,793,1.18982791900635,keyboard,knife,0,0793_s5n_s04_0_knife_00_knife1-car3.png
subject-04,1,794,1.21231508255005,chair,chair,0,0794_s5n_s04_0_chair_00_chair9-bear1.png
subject-04,1,795,0.665369033813477,bicycle,bicycle,0,0795_s5n_s04_0_bicycle_00_bicycle8-truck1.png
subject-04,1,796,0.878906011581421,chair,chair,0,0796_s5n_s04_0_chair_00_chair9-bottle3.png
subject-04,1,797,1.11675810813904,car,truck,0,0797_s5n_s04_0_truck_00_truck3-bear3.png
subject-04,1,798,1.09311008453369,dog,bear,0,0798_s5n_s04_0_bear_00_bear6-bear1.png
subject-04,1,799,0.963514804840088,cat,boat,0,0799_s5n_s04_0_boat_00_boat7-oven3.png
subject-04,1,800,1.20667791366577,elephant,elephant,0,0800_s5n_s04_0_elephant_00_elephant9-chair2.png
subject-04,1,801,0.920839071273804,knife,airplane,0,0801_s5n_s04_0_airplane_00_airplane9-knife3.png
subject-04,1,802,0.67433500289917,clock,clock,0,0802_s5n_s04_0_clock_00_clock10-airplane1.png
subject-04,1,803,1.02024793624878,truck,truck,0,0803_s5n_s04_0_truck_00_truck4-airplane3.png
subject-04,1,804,1.01028513908386,chair,chair,0,0804_s5n_s04_0_chair_00_chair5-truck3.png
subject-04,1,805,0.963254928588867,boat,boat,0,0805_s5n_s04_0_boat_00_boat7-boat2.png
subject-04,1,806,1.03933000564575,elephant,keyboard,0,0806_s5n_s04_0_keyboard_00_keyboard6-elephant1.png
subject-04,1,807,0.814352989196777,bottle,bottle,0,0807_s5n_s04_0_bottle_00_bottle8-bird1.png
subject-04,1,808,1.13644003868103,truck,truck,0,0808_s5n_s04_0_truck_00_truck6-cat2.png
subject-04,1,809,0.957803964614868,knife,knife,0,0809_s5n_s04_0_knife_00_knife4-knife2.png
subject-04,1,810,0.749772071838379,car,dog,0,0810_s5n_s04_0_dog_00_dog1-car2.png
subject-04,1,811,1.04788184165955,oven,oven,0,0811_s5n_s04_0_oven_00_oven5-keyboard2.png
subject-04,1,812,1.41760683059692,bird,bird,0,0812_s5n_s04_0_bird_00_bird6-bottle3.png
subject-04,1,813,1.28588914871216,truck,truck,0,0813_s5n_s04_0_truck_00_truck6-knife2.png
subject-04,1,814,1.46165895462036,oven,cat,0,0814_s5n_s04_0_cat_00_cat3-oven2.png
subject-04,1,815,1.34539484977722,bottle,keyboard,0,0815_s5n_s04_0_keyboard_00_keyboard2-bottle1.png
subject-04,1,816,1.14488101005554,chair,bear,0,0816_s5n_s04_0_bear_00_bear6-bottle3.png
subject-04,1,817,1.08840608596802,truck,truck,0,0817_s5n_s04_0_truck_00_truck1-dog1.png
subject-04,1,818,1.16680002212524,dog,dog,0,0818_s5n_s04_0_dog_00_dog10-keyboard2.png
subject-04,1,819,1.19447112083435,bird,bird,0,0819_s5n_s04_0_bird_00_bird2-dog2.png
subject-04,1,820,1.50013995170593,car,car,0,0820_s5n_s04_0_car_00_car5-bear3.png
subject-04,1,821,1.23150897026062,cat,chair,0,0821_s5n_s04_0_chair_00_chair6-bird2.png
subject-04,1,822,1.4615330696106,car,truck,0,0822_s5n_s04_0_truck_00_truck3-cat1.png
subject-04,1,823,0.875195026397705,truck,truck,0,0823_s5n_s04_0_truck_00_truck6-oven3.png
subject-04,1,824,0.707206964492798,bottle,bottle,0,0824_s5n_s04_0_bottle_00_bottle5-airplane1.png
subject-04,1,825,1.23774194717407,cat,dog,0,0825_s5n_s04_0_dog_00_dog7-keyboard3.png
subject-04,1,826,1.15185308456421,chair,airplane,0,0826_s5n_s04_0_airplane_00_airplane5-chair3.png
subject-04,1,827,0.797510147094727,oven,oven,0,0827_s5n_s04_0_oven_00_oven1-dog3.png
subject-04,1,828,1.02785491943359,chair,chair,0,0828_s5n_s04_0_chair_00_chair3-car3.png
subject-04,1,829,0.973973989486694,car,car,0,0829_s5n_s04_0_car_00_car5-keyboard3.png
subject-04,1,830,0.979692935943604,bird,airplane,0,0830_s5n_s04_0_airplane_00_airplane4-keyboard3.png
subject-04,1,831,1.12528491020203,chair,chair,0,0831_s5n_s04_0_chair_00_chair5-bird1.png
subject-04,1,832,1.23859000205994,clock,clock,0,0832_s5n_s04_0_clock_00_clock5-bicycle1.png
subject-04,1,833,1.47664999961853,clock,airplane,0,0833_s5n_s04_0_airplane_00_airplane9-clock1.png
subject-04,1,834,0.860136032104492,bicycle,bicycle,0,0834_s5n_s04_0_bicycle_00_bicycle4-airplane1.png
subject-04,1,835,1.01222896575928,truck,truck,0,0835_s5n_s04_0_truck_00_truck3-car3.png
subject-04,1,836,1.01271104812622,chair,chair,0,0836_s5n_s04_0_chair_00_chair9-boat2.png
subject-04,1,837,1.50015497207642,airplane,dog,0,0837_s5n_s04_0_dog_00_dog3-bird2.png
subject-04,1,838,1.30401492118835,boat,bear,0,0838_s5n_s04_0_bear_00_bear3-bird3.png
subject-04,1,839,1.41798996925354,boat,keyboard,0,0839_s5n_s04_0_keyboard_00_keyboard9-truck3.png
subject-04,1,840,1.08567786216736,airplane,airplane,0,0840_s5n_s04_0_airplane_00_airplane9-oven2.png
subject-04,1,841,1.11493802070618,airplane,airplane,0,0841_s5n_s04_0_airplane_00_airplane1-clock1.png
subject-04,1,842,1.20707488059998,car,dog,0,0842_s5n_s04_0_dog_00_dog2-airplane2.png
subject-04,1,843,0.804160118103027,oven,oven,0,0843_s5n_s04_0_oven_00_oven4-elephant3.png
subject-04,1,844,1.35820484161377,truck,truck,0,0844_s5n_s04_0_truck_00_truck1-cat1.png
subject-04,1,845,0.750011920928955,chair,chair,0,0845_s5n_s04_0_chair_00_chair10-bicycle1.png
subject-04,1,846,1.02603006362915,boat,airplane,0,0846_s5n_s04_0_airplane_00_airplane10-car3.png
subject-04,1,847,1.0236668586731,keyboard,keyboard,0,0847_s5n_s04_0_keyboard_00_keyboard3-clock3.png
subject-04,1,848,1.46199512481689,elephant,boat,0,0848_s5n_s04_0_boat_00_boat2-bear3.png
subject-04,1,849,1.50005984306335,bicycle,bicycle,0,0849_s5n_s04_0_bicycle_00_bicycle2-bicycle1.png
subject-04,1,850,1.5002179145813,cat,boat,0,0850_s5n_s04_0_boat_00_boat1-bird3.png
subject-04,1,851,1.50032711029053,boat,bird,0,0851_s5n_s04_0_bird_00_bird8-knife2.png
subject-04,1,852,1.22352600097656,chair,elephant,0,0852_s5n_s04_0_elephant_00_elephant5-chair3.png
subject-04,1,853,1.30354309082031,cat,cat,0,0853_s5n_s04_0_cat_00_cat4-oven1.png
subject-04,1,854,1.06319999694824,truck,truck,0,0854_s5n_s04_0_truck_00_truck10-elephant3.png
subject-04,1,855,1.27077293395996,car,airplane,0,0855_s5n_s04_0_airplane_00_airplane4-car1.png
subject-04,1,856,1.42503499984741,clock,boat,0,0856_s5n_s04_0_boat_00_boat6-dog1.png
subject-04,1,857,0.684944152832031,bottle,bottle,0,0857_s5n_s04_0_bottle_00_bottle4-airplane1.png
subject-04,1,858,0.744877815246582,chair,chair,0,0858_s5n_s04_0_chair_00_chair10-cat1.png
subject-04,1,859,0.874338150024414,car,car,0,0859_s5n_s04_0_car_00_car3-elephant3.png
subject-04,1,860,0.604337930679321,chair,chair,0,0860_s5n_s04_0_chair_00_chair10-airplane2.png
subject-04,1,861,0.788010835647583,cat,cat,0,0861_s5n_s04_0_cat_00_cat1-chair2.png
subject-04,1,862,0.896525144577026,cat,cat,0,0862_s5n_s04_0_cat_00_cat3-bear2.png
subject-04,1,863,1.20288586616516,dog,bear,0,0863_s5n_s04_0_bear_00_bear10-keyboard3.png
subject-04,1,864,0.893836975097656,car,airplane,0,0864_s5n_s04_0_airplane_00_airplane8-oven2.png
subject-04,1,865,1.08612179756165,boat,boat,0,0865_s5n_s04_0_boat_00_boat9-bird1.png
subject-04,1,866,1.23828601837158,truck,truck,0,0866_s5n_s04_0_truck_00_truck2-keyboard1.png
subject-04,1,867,0.97593092918396,bicycle,bicycle,0,0867_s5n_s04_0_bicycle_00_bicycle1-bottle3.png
subject-04,1,868,1.19688606262207,elephant,elephant,0,0868_s5n_s04_0_elephant_00_elephant10-keyboard1.png
subject-04,1,869,0.773734092712402,bottle,bottle,0,0869_s5n_s04_0_bottle_00_bottle7-boat3.png
subject-04,1,870,1.50016403198242,car,car,0,0870_s5n_s04_0_car_00_car4-cat3.png
subject-04,1,871,1.17024803161621,elephant,elephant,0,0871_s5n_s04_0_elephant_00_elephant8-bicycle3.png
subject-04,1,872,1.40048503875732,bird,bird,0,0872_s5n_s04_0_bird_00_bird3-dog1.png
subject-04,1,873,1.13085889816284,bicycle,bicycle,0,0873_s5n_s04_0_bicycle_00_bicycle5-chair2.png
subject-04,1,874,1.38273000717163,bicycle,bicycle,0,0874_s5n_s04_0_bicycle_00_bicycle1-chair1.png
subject-04,1,875,1.50022506713867,bicycle,bicycle,0,0875_s5n_s04_0_bicycle_00_bicycle8-bear2.png
subject-04,1,876,NaN,na,truck,0,0876_s5n_s04_0_truck_00_truck4-bear1.png
subject-04,1,877,1.46905112266541,bottle,chair,0,0877_s5n_s04_0_chair_00_chair7-clock3.png
subject-04,1,878,0.847805976867676,truck,truck,0,0878_s5n_s04_0_truck_00_truck1-car3.png
subject-04,1,879,1.26128315925598,cat,cat,0,0879_s5n_s04_0_cat_00_cat3-elephant2.png
subject-04,1,880,0.945160865783691,cat,keyboard,0,0880_s5n_s04_0_keyboard_00_keyboard2-elephant1.png
subject-04,1,881,0.699408054351807,cat,cat,0,0881_s5n_s04_0_cat_00_cat2-car3.png
subject-04,1,882,0.8211350440979,bicycle,bicycle,0,0882_s5n_s04_0_bicycle_00_bicycle3-elephant2.png
subject-04,1,883,0.681594133377075,bottle,keyboard,0,0883_s5n_s04_0_keyboard_00_keyboard10-boat2.png
subject-04,1,884,1.08079099655151,oven,dog,0,0884_s5n_s04_0_dog_00_dog3-truck2.png
subject-04,1,885,0.726562976837158,bottle,keyboard,0,0885_s5n_s04_0_keyboard_00_keyboard5-oven2.png
subject-04,1,886,1.00066208839417,truck,truck,0,0886_s5n_s04_0_truck_00_truck4-boat3.png
subject-04,1,887,0.825747966766357,truck,truck,0,0887_s5n_s04_0_truck_00_truck6-bicycle1.png
subject-04,1,888,0.69352388381958,clock,clock,0,0888_s5n_s04_0_clock_00_clock2-knife1.png
subject-04,1,889,0.836680889129639,cat,cat,0,0889_s5n_s04_0_cat_00_cat2-bottle3.png
subject-04,1,890,1.49576187133789,oven,knife,0,0890_s5n_s04_0_knife_00_knife8-cat2.png
subject-04,1,891,1.41985416412354,bottle,bottle,0,0891_s5n_s04_0_bottle_00_bottle6-bear2.png
subject-04,1,892,0.859148979187012,car,car,0,0892_s5n_s04_0_car_00_car9-keyboard2.png
subject-04,1,893,0.997381210327148,truck,keyboard,0,0893_s5n_s04_0_keyboard_00_keyboard6-car2.png
subject-04,1,894,0.797351121902466,cat,cat,0,0894_s5n_s04_0_cat_00_cat5-elephant2.png
subject-04,1,895,0.740684986114502,oven,oven,0,0895_s5n_s04_0_oven_00_oven3-clock3.png
subject-04,1,896,1.49241518974304,bicycle,bicycle,0,0896_s5n_s04_0_bicycle_00_bicycle6-airplane2.png
subject-04,1,897,0.83306097984314,clock,clock,0,0897_s5n_s04_0_clock_00_clock6-clock2.png
subject-04,1,898,0.822546005249023,car,bear,0,0898_s5n_s04_0_bear_00_bear7-truck1.png
subject-04,1,899,0.976853132247925,bird,bird,0,0899_s5n_s04_0_bird_00_bird2-clock3.png
subject-04,1,900,1.09050607681274,truck,cat,0,0900_s5n_s04_0_cat_00_cat9-truck1.png
subject-04,1,901,0.85877799987793,truck,truck,0,0901_s5n_s04_0_truck_00_truck7-chair2.png
subject-04,1,902,0.966902017593384,truck,truck,0,0902_s5n_s04_0_truck_00_truck8-keyboard2.png
subject-04,1,903,0.972404003143311,airplane,keyboard,0,0903_s5n_s04_0_keyboard_00_keyboard1-bird2.png
subject-04,1,904,1.37837696075439,bottle,knife,0,0904_s5n_s04_0_knife_00_knife9-airplane2.png
subject-04,1,905,1.48592805862427,chair,elephant,0,0905_s5n_s04_0_elephant_00_elephant10-knife3.png
subject-04,1,906,1.03012681007385,car,car,0,0906_s5n_s04_0_car_00_car8-clock2.png
subject-04,1,907,0.892256021499634,oven,oven,0,0907_s5n_s04_0_oven_00_oven4-car1.png
subject-04,1,908,1.37676692008972,oven,keyboard,0,0908_s5n_s04_0_keyboard_00_keyboard8-truck3.png
subject-04,1,909,0.819020986557007,bicycle,bicycle,0,0909_s5n_s04_0_bicycle_00_bicycle9-airplane2.png
subject-04,1,910,1.42563819885254,knife,bear,0,0910_s5n_s04_0_bear_00_bear10-knife2.png
subject-04,1,911,1.24986100196838,bicycle,bicycle,0,0911_s5n_s04_0_bicycle_00_bicycle4-knife3.png
subject-04,1,912,0.987907886505127,bird,elephant,0,0912_s5n_s04_0_elephant_00_elephant8-cat1.png
subject-04,1,913,0.618103981018066,bicycle,bicycle,0,0913_s5n_s04_0_bicycle_00_bicycle1-oven1.png
subject-04,1,914,0.92408299446106,bicycle,bicycle,0,0914_s5n_s04_0_bicycle_00_bicycle9-bird3.png
subject-04,1,915,1.09144997596741,chair,chair,0,0915_s5n_s04_0_chair_00_chair2-bear2.png
subject-04,1,916,1.32097601890564,keyboard,keyboard,0,0916_s5n_s04_0_keyboard_00_keyboard4-cat2.png
subject-04,1,917,NaN,na,keyboard,0,0917_s5n_s04_0_keyboard_00_keyboard5-keyboard1.png
subject-04,1,918,0.688894987106323,boat,boat,0,0918_s5n_s04_0_boat_00_boat2-keyboard1.png
subject-04,1,919,1.40231204032898,elephant,elephant,0,0919_s5n_s04_0_elephant_00_elephant6-bicycle1.png
subject-04,1,920,0.840500116348267,bicycle,bicycle,0,0920_s5n_s04_0_bicycle_00_bicycle5-car3.png
subject-04,1,921,1.0535740852356,knife,knife,0,0921_s5n_s04_0_knife_00_knife5-keyboard3.png
subject-04,1,922,1.35408902168274,elephant,elephant,0,0922_s5n_s04_0_elephant_00_elephant2-elephant3.png
subject-04,1,923,1.05451798439026,chair,chair,0,0923_s5n_s04_0_chair_00_chair7-elephant1.png
subject-04,1,924,1.49346995353699,oven,oven,0,0924_s5n_s04_0_oven_00_oven2-car1.png
subject-04,1,925,1.1238489151001,cat,cat,0,0925_s5n_s04_0_cat_00_cat1-dog1.png
subject-04,1,926,1.40016198158264,clock,car,0,0926_s5n_s04_0_car_00_car2-bird3.png
subject-04,1,927,1.21329808235168,elephant,knife,0,0927_s5n_s04_0_knife_00_knife9-bird1.png
subject-04,1,928,1.07520985603333,clock,clock,0,0928_s5n_s04_0_clock_00_clock8-oven3.png
subject-04,1,929,NaN,na,bottle,0,0929_s5n_s04_0_bottle_00_bottle3-bird1.png
subject-04,1,930,0.895177125930786,car,knife,0,0930_s5n_s04_0_knife_00_knife7-car2.png
subject-04,1,931,0.623789072036743,oven,oven,0,0931_s5n_s04_0_oven_00_oven4-clock2.png
subject-04,1,932,0.983560800552368,elephant,elephant,0,0932_s5n_s04_0_elephant_00_elephant1-bottle1.png
subject-04,1,933,0.900044202804565,truck,bird,0,0933_s5n_s04_0_bird_00_bird1-truck1.png
subject-04,1,934,1.16849684715271,knife,knife,0,0934_s5n_s04_0_knife_00_knife6-dog2.png
subject-04,1,935,1.32057595252991,chair,keyboard,0,0935_s5n_s04_0_keyboard_00_keyboard7-boat2.png
subject-04,1,936,1.09055113792419,bird,elephant,0,0936_s5n_s04_0_elephant_00_elephant2-bird1.png
subject-04,1,937,0.903846025466919,dog,dog,0,0937_s5n_s04_0_dog_00_dog1-airplane3.png
subject-04,1,938,0.856316089630127,cat,dog,0,0938_s5n_s04_0_dog_00_dog5-oven1.png
subject-04,1,939,0.534754991531372,clock,clock,0,0939_s5n_s04_0_clock_00_clock10-clock3.png
subject-04,1,940,0.948397874832153,elephant,elephant,0,0940_s5n_s04_0_elephant_00_elephant9-airplane2.png
subject-04,1,941,0.503055095672607,clock,clock,0,0941_s5n_s04_0_clock_00_clock3-elephant3.png
subject-04,1,942,0.79509711265564,cat,keyboard,0,0942_s5n_s04_0_keyboard_00_keyboard9-cat1.png
subject-04,1,943,1.01677894592285,knife,keyboard,0,0943_s5n_s04_0_keyboard_00_keyboard3-car2.png
subject-04,1,944,1.34405899047852,oven,oven,0,0944_s5n_s04_0_oven_00_oven10-truck2.png
subject-04,1,945,1.21175003051758,truck,truck,0,0945_s5n_s04_0_truck_00_truck6-bear2.png
subject-04,1,946,0.912165880203247,bottle,bottle,0,0946_s5n_s04_0_bottle_00_bottle2-chair3.png
subject-04,1,947,1.31122899055481,oven,truck,0,0947_s5n_s04_0_truck_00_truck7-elephant2.png
subject-04,1,948,1.31218004226685,bear,bear,0,0948_s5n_s04_0_bear_00_bear5-boat2.png
subject-04,1,949,0.980525970458984,bottle,bottle,0,0949_s5n_s04_0_bottle_00_bottle2-knife3.png
subject-04,1,950,0.880664110183716,elephant,elephant,0,0950_s5n_s04_0_elephant_00_elephant10-elephant1.png
subject-04,1,951,0.902179956436157,boat,boat,0,0951_s5n_s04_0_boat_00_boat9-keyboard2.png
subject-04,1,952,0.586689949035645,bottle,bottle,0,0952_s5n_s04_0_bottle_00_bottle5-truck1.png
subject-04,1,953,1.26314997673035,bear,bear,0,0953_s5n_s04_0_bear_00_bear3-keyboard2.png
subject-04,1,954,0.824688911437988,keyboard,keyboard,0,0954_s5n_s04_0_keyboard_00_keyboard1-chair2.png
subject-04,1,955,1.03867602348328,car,bear,0,0955_s5n_s04_0_bear_00_bear10-car2.png
subject-04,1,956,0.69060492515564,chair,chair,0,0956_s5n_s04_0_chair_00_chair8-chair3.png
subject-04,1,957,0.983009099960327,bottle,bottle,0,0957_s5n_s04_0_bottle_00_bottle3-bicycle3.png
subject-04,1,958,0.853446006774902,bear,bear,0,0958_s5n_s04_0_bear_00_bear9-dog1.png
subject-04,1,959,0.728670835494995,elephant,dog,0,0959_s5n_s04_0_dog_00_dog6-elephant2.png
subject-04,1,960,1.19524908065796,dog,dog,0,0960_s5n_s04_0_dog_00_dog4-chair1.png
subject-04,1,961,1.27806806564331,bear,bear,0,0961_s5n_s04_0_bear_00_bear2-oven1.png
subject-04,1,962,1.14007496833801,airplane,airplane,0,0962_s5n_s04_0_airplane_00_airplane7-keyboard1.png
subject-04,1,963,0.623816967010498,bird,bird,0,0963_s5n_s04_0_bird_00_bird1-oven1.png
subject-04,1,964,1.06011486053467,elephant,knife,0,0964_s5n_s04_0_knife_00_knife9-elephant2.png
subject-04,1,965,0.814033031463623,oven,oven,0,0965_s5n_s04_0_oven_00_oven6-oven3.png
subject-04,1,966,1.1654269695282,bear,bear,0,0966_s5n_s04_0_bear_00_bear8-bottle1.png
subject-04,1,967,0.827704906463623,oven,oven,0,0967_s5n_s04_0_oven_00_oven7-oven1.png
subject-04,1,968,0.949760913848877,oven,oven,0,0968_s5n_s04_0_oven_00_oven3-elephant3.png
subject-04,1,969,0.588356971740723,boat,boat,0,0969_s5n_s04_0_boat_00_boat2-airplane1.png
subject-04,1,970,0.656103849411011,clock,clock,0,0970_s5n_s04_0_clock_00_clock8-knife1.png
subject-04,1,971,0.893509149551392,bicycle,bicycle,0,0971_s5n_s04_0_bicycle_00_bicycle6-dog2.png
subject-04,1,972,0.899326086044312,bottle,bottle,0,0972_s5n_s04_0_bottle_00_bottle9-bicycle1.png
subject-04,1,973,1.32840991020203,cat,dog,0,0973_s5n_s04_0_dog_00_dog7-car2.png
subject-04,1,974,1.31012892723083,airplane,boat,0,0974_s5n_s04_0_boat_00_boat7-chair1.png
subject-04,1,975,0.663732051849365,bottle,bottle,0,0975_s5n_s04_0_bottle_00_bottle2-car2.png
subject-04,1,976,1.29947686195374,chair,oven,0,0976_s5n_s04_0_oven_00_oven6-chair3.png
subject-04,1,977,1.1670970916748,truck,truck,0,0977_s5n_s04_0_truck_00_truck5-truck1.png
subject-04,1,978,1.10383009910583,clock,clock,0,0978_s5n_s04_0_clock_00_clock10-knife3.png
subject-04,1,979,1.43996405601501,bicycle,bear,0,0979_s5n_s04_0_bear_00_bear2-keyboard2.png
subject-04,1,980,NaN,na,knife,0,0980_s5n_s04_0_knife_00_knife7-chair2.png
subject-04,1,981,1.50008606910706,clock,elephant,0,0981_s5n_s04_0_elephant_00_elephant7-car3.png
subject-04,1,982,0.98326301574707,truck,truck,0,0982_s5n_s04_0_truck_00_truck2-oven3.png
subject-04,1,983,1.02107501029968,cat,cat,0,0983_s5n_s04_0_cat_00_cat8-bird2.png
subject-04,1,984,0.896909952163696,airplane,airplane,0,0984_s5n_s04_0_airplane_00_airplane4-bird3.png
subject-04,1,985,0.833172082901001,cat,bicycle,0,0985_s5n_s04_0_bicycle_00_bicycle5-keyboard3.png
subject-04,1,986,0.662094831466675,oven,oven,0,0986_s5n_s04_0_oven_00_oven6-bear2.png
subject-04,1,987,0.868035078048706,oven,oven,0,0987_s5n_s04_0_oven_00_oven6-truck1.png
subject-04,1,988,0.927418947219849,bear,bear,0,0988_s5n_s04_0_bear_00_bear1-elephant1.png
subject-04,1,989,0.927196025848389,bottle,bottle,0,0989_s5n_s04_0_bottle_00_bottle8-elephant3.png
subject-04,1,990,1.27091884613037,dog,dog,0,0990_s5n_s04_0_dog_00_dog3-knife3.png
subject-04,1,991,0.947123050689697,bottle,bottle,0,0991_s5n_s04_0_bottle_00_bottle1-cat3.png
subject-04,1,992,0.9008948802948,oven,oven,0,0992_s5n_s04_0_oven_00_oven5-airplane1.png
subject-04,1,993,0.969188928604126,car,car,0,0993_s5n_s04_0_car_00_car6-bicycle3.png
subject-04,1,994,0.761056900024414,boat,boat,0,0994_s5n_s04_0_boat_00_boat1-truck3.png
subject-04,1,995,0.753113985061646,clock,clock,0,0995_s5n_s04_0_clock_00_clock10-cat1.png
subject-04,1,996,1.2584490776062,boat,knife,0,0996_s5n_s04_0_knife_00_knife1-truck2.png
subject-04,1,997,0.909365892410278,bird,cat,0,0997_s5n_s04_0_cat_00_cat5-keyboard3.png
subject-04,1,998,0.939200162887573,keyboard,knife,0,0998_s5n_s04_0_knife_00_knife2-bird1.png
subject-04,1,999,0.991011142730713,knife,knife,0,0999_s5n_s04_0_knife_00_knife8-boat1.png
subject-04,1,1000,1.26743412017822,bottle,elephant,0,1000_s5n_s04_0_elephant_00_elephant3-chair1.png
subject-04,1,1001,1.37247395515442,truck,truck,0,1001_s5n_s04_0_truck_00_truck8-bottle2.png
subject-04,1,1002,1.13526797294617,car,car,0,1002_s5n_s04_0_car_00_car3-bottle3.png
subject-04,1,1003,0.472279071807861,clock,keyboard,0,1003_s5n_s04_0_keyboard_00_keyboard6-bicycle1.png
subject-04,1,1004,0.686933040618896,boat,boat,0,1004_s5n_s04_0_boat_00_boat2-bird1.png
subject-04,1,1005,1.08700609207153,cat,bear,0,1005_s5n_s04_0_bear_00_bear10-cat2.png
subject-04,1,1006,0.830792903900146,car,car,0,1006_s5n_s04_0_car_00_car10-keyboard2.png
subject-04,1,1007,1.04463195800781,chair,airplane,0,1007_s5n_s04_0_airplane_00_airplane4-bear3.png
subject-04,1,1008,1.19845080375671,clock,keyboard,0,1008_s5n_s04_0_keyboard_00_keyboard6-bear2.png
subject-04,1,1009,1.23375797271729,bird,bird,0,1009_s5n_s04_0_bird_00_bird5-oven3.png
subject-04,1,1010,1.50018000602722,chair,elephant,0,1010_s5n_s04_0_elephant_00_elephant9-boat3.png
subject-04,1,1011,1.28569722175598,bicycle,bicycle,0,1011_s5n_s04_0_bicycle_00_bicycle4-boat1.png
subject-04,1,1012,0.893685102462769,car,car,0,1012_s5n_s04_0_car_00_car10-bottle3.png
subject-04,1,1013,1.39990878105164,elephant,oven,0,1013_s5n_s04_0_oven_00_oven6-airplane3.png
subject-04,1,1014,0.952252864837646,chair,knife,0,1014_s5n_s04_0_knife_00_knife1-oven1.png
subject-04,1,1015,0.652464151382446,truck,truck,0,1015_s5n_s04_0_truck_00_truck3-chair2.png
subject-04,1,1016,1.44958901405334,bear,bear,0,1016_s5n_s04_0_bear_00_bear3-airplane1.png
subject-04,1,1017,0.708950996398926,car,car,0,1017_s5n_s04_0_car_00_car3-oven3.png
subject-04,1,1018,0.862652063369751,cat,dog,0,1018_s5n_s04_0_dog_00_dog9-bicycle3.png
subject-04,1,1019,0.906442880630493,bottle,bottle,0,1019_s5n_s04_0_bottle_00_bottle6-bottle3.png
subject-04,1,1020,1.22814512252808,chair,chair,0,1020_s5n_s04_0_chair_00_chair7-cat1.png
subject-04,1,1021,1.50028800964355,bicycle,dog,0,1021_s5n_s04_0_dog_00_dog9-car1.png
subject-04,1,1022,1.2035539150238,bicycle,bicycle,0,1022_s5n_s04_0_bicycle_00_bicycle5-oven3.png
subject-04,1,1023,1.00372099876404,airplane,airplane,0,1023_s5n_s04_0_airplane_00_airplane8-truck3.png
subject-04,1,1024,1.1640510559082,oven,cat,0,1024_s5n_s04_0_cat_00_cat10-bicycle1.png
subject-04,1,1025,0.747316122055054,car,car,0,1025_s5n_s04_0_car_00_car6-bottle1.png
subject-04,1,1026,0.784894943237305,cat,bird,0,1026_s5n_s04_0_bird_00_bird3-bear3.png
subject-04,1,1027,0.63830304145813,car,car,0,1027_s5n_s04_0_car_00_car7-bear1.png
subject-04,1,1028,0.844084978103638,bottle,bottle,0,1028_s5n_s04_0_bottle_00_bottle1-car1.png
subject-04,1,1029,0.93615984916687,chair,chair,0,1029_s5n_s04_0_chair_00_chair9-bird3.png
subject-04,1,1030,0.758216857910156,keyboard,keyboard,0,1030_s5n_s04_0_keyboard_00_keyboard8-airplane2.png
subject-04,1,1031,0.801423072814941,dog,dog,0,1031_s5n_s04_0_dog_00_dog1-cat3.png
subject-04,1,1032,0.947306871414185,truck,knife,0,1032_s5n_s04_0_knife_00_knife8-truck3.png
subject-04,1,1033,1.19175815582275,bear,elephant,0,1033_s5n_s04_0_elephant_00_elephant6-dog2.png
subject-04,1,1034,0.950429916381836,clock,clock,0,1034_s5n_s04_0_clock_00_clock10-bottle1.png
subject-04,1,1035,1.16644620895386,dog,dog,0,1035_s5n_s04_0_dog_00_dog1-bird1.png
subject-04,1,1036,1.209547996521,bicycle,boat,0,1036_s5n_s04_0_boat_00_boat10-truck1.png
subject-04,1,1037,1.46155405044556,elephant,bird,0,1037_s5n_s04_0_bird_00_bird3-bottle2.png
subject-04,1,1038,0.700159072875977,oven,oven,0,1038_s5n_s04_0_oven_00_oven2-bear3.png
subject-04,1,1039,0.72355318069458,dog,dog,0,1039_s5n_s04_0_dog_00_dog2-dog3.png
subject-04,1,1040,0.837505102157593,clock,clock,0,1040_s5n_s04_0_clock_00_clock6-chair3.png
subject-04,1,1041,NaN,na,knife,0,1041_s5n_s04_0_knife_00_knife1-elephant1.png
subject-04,1,1042,0.641214847564697,bird,bird,0,1042_s5n_s04_0_bird_00_bird8-keyboard2.png
subject-04,1,1043,0.970792055130005,airplane,car,0,1043_s5n_s04_0_car_00_car1-chair3.png
subject-04,1,1044,0.754405975341797,bicycle,bicycle,0,1044_s5n_s04_0_bicycle_00_bicycle3-truck3.png
subject-04,1,1045,1.01489114761353,bicycle,bicycle,0,1045_s5n_s04_0_bicycle_00_bicycle4-truck3.png
subject-04,1,1046,1.3611741065979,car,car,0,1046_s5n_s04_0_car_00_car6-truck3.png
subject-04,1,1047,0.566102981567383,oven,oven,0,1047_s5n_s04_0_oven_00_oven8-knife2.png
subject-04,1,1048,0.566515922546387,oven,oven,0,1048_s5n_s04_0_oven_00_oven3-car2.png
subject-04,1,1049,0.663758039474487,oven,keyboard,0,1049_s5n_s04_0_keyboard_00_keyboard1-dog3.png
subject-04,1,1050,1.4781219959259,clock,clock,0,1050_s5n_s04_0_clock_00_clock1-car1.png
subject-04,1,1051,0.539182186126709,car,car,0,1051_s5n_s04_0_car_00_car8-bear1.png
subject-04,1,1052,0.620792150497437,keyboard,keyboard,0,1052_s5n_s04_0_keyboard_00_keyboard3-boat1.png
subject-04,1,1053,1.06474781036377,bottle,bottle,0,1053_s5n_s04_0_bottle_00_bottle5-bird3.png
subject-04,1,1054,0.972499132156372,bear,knife,0,1054_s5n_s04_0_knife_00_knife4-airplane3.png
subject-04,1,1055,1.18612694740295,dog,dog,0,1055_s5n_s04_0_dog_00_dog3-bear3.png
subject-04,1,1056,1.14642310142517,dog,dog,0,1056_s5n_s04_0_dog_00_dog4-clock1.png
subject-04,1,1057,1.1301109790802,chair,oven,0,1057_s5n_s04_0_oven_00_oven7-keyboard1.png
subject-04,1,1058,0.5972900390625,boat,boat,0,1058_s5n_s04_0_boat_00_boat9-chair2.png
subject-04,1,1059,0.657585144042969,clock,clock,0,1059_s5n_s04_0_clock_00_clock6-bicycle1.png
subject-04,1,1060,0.986768007278442,dog,dog,0,1060_s5n_s04_0_dog_00_dog10-airplane1.png
subject-04,1,1061,1.37613201141357,clock,chair,0,1061_s5n_s04_0_chair_00_chair5-bottle3.png
subject-04,1,1062,1.50016021728516,chair,oven,0,1062_s5n_s04_0_oven_00_oven6-bird1.png
subject-04,1,1063,1.03707695007324,knife,knife,0,1063_s5n_s04_0_knife_00_knife9-bottle2.png
subject-04,1,1064,1.12665796279907,chair,chair,0,1064_s5n_s04_0_chair_00_chair8-oven1.png
subject-04,1,1065,0.618088006973267,oven,oven,0,1065_s5n_s04_0_oven_00_oven10-oven3.png
subject-04,1,1066,1.32397603988647,airplane,airplane,0,1066_s5n_s04_0_airplane_00_airplane6-bottle2.png
subject-04,1,1067,0.691205024719238,cat,cat,0,1067_s5n_s04_0_cat_00_cat7-truck2.png
subject-04,1,1068,0.851592779159546,bear,bear,0,1068_s5n_s04_0_bear_00_bear4-cat3.png
subject-04,1,1069,0.610967874526978,bottle,bottle,0,1069_s5n_s04_0_bottle_00_bottle10-bear2.png
subject-04,1,1070,1.10231900215149,bottle,bird,0,1070_s5n_s04_0_bird_00_bird2-car3.png
subject-04,1,1071,1.41742205619812,airplane,airplane,0,1071_s5n_s04_0_airplane_00_airplane10-truck1.png
subject-04,1,1072,1.50008893013,clock,airplane,0,1072_s5n_s04_0_airplane_00_airplane2-bird3.png
subject-04,1,1073,0.766707897186279,bird,bird,0,1073_s5n_s04_0_bird_00_bird9-dog2.png
subject-04,1,1074,0.887936115264893,knife,knife,0,1074_s5n_s04_0_knife_00_knife2-bottle2.png
subject-04,1,1075,0.812958002090454,chair,chair,0,1075_s5n_s04_0_chair_00_chair3-dog2.png
subject-04,1,1076,0.56524395942688,bicycle,bicycle,0,1076_s5n_s04_0_bicycle_00_bicycle5-bear1.png
subject-04,1,1077,0.75755786895752,car,car,0,1077_s5n_s04_0_car_00_car9-truck3.png
subject-04,1,1078,0.724422931671143,clock,clock,0,1078_s5n_s04_0_clock_00_clock5-oven1.png
subject-04,1,1079,1.32280707359314,bird,bird,0,1079_s5n_s04_0_bird_00_bird1-keyboard3.png
subject-04,1,1080,0.97652792930603,bird,boat,0,1080_s5n_s04_0_boat_00_boat8-dog3.png
subject-04,1,1081,0.804299116134644,oven,knife,0,1081_s5n_s04_0_knife_00_knife6-oven3.png
subject-04,1,1082,1.48889398574829,oven,boat,0,1082_s5n_s04_0_boat_00_boat6-clock2.png
subject-04,1,1083,0.740465879440308,clock,clock,0,1083_s5n_s04_0_clock_00_clock4-oven1.png
subject-04,1,1084,1.20000100135803,cat,elephant,0,1084_s5n_s04_0_elephant_00_elephant6-bird1.png
subject-04,1,1085,0.717213869094849,elephant,elephant,0,1085_s5n_s04_0_elephant_00_elephant7-airplane3.png
subject-04,1,1086,0.922390937805176,car,car,0,1086_s5n_s04_0_car_00_car2-cat3.png
subject-04,1,1087,0.698203086853027,chair,bear,0,1087_s5n_s04_0_bear_00_bear6-chair1.png
subject-04,1,1088,0.71143102645874,airplane,airplane,0,1088_s5n_s04_0_airplane_00_airplane4-cat3.png
subject-04,1,1089,0.979501008987427,airplane,airplane,0,1089_s5n_s04_0_airplane_00_airplane1-elephant1.png
subject-04,1,1090,0.961964845657349,oven,dog,0,1090_s5n_s04_0_dog_00_dog7-knife3.png
subject-04,1,1091,1.21362018585205,bear,bear,0,1091_s5n_s04_0_bear_00_bear5-chair1.png
subject-04,1,1092,1.14364981651306,clock,clock,0,1092_s5n_s04_0_clock_00_clock2-clock3.png
subject-04,1,1093,1.33483195304871,keyboard,knife,0,1093_s5n_s04_0_knife_00_knife10-dog1.png
subject-04,1,1094,1.5002019405365,bear,truck,0,1094_s5n_s04_0_truck_00_truck4-oven2.png
subject-04,1,1095,1.07089805603027,bird,bird,0,1095_s5n_s04_0_bird_00_bird6-boat2.png
subject-04,1,1096,1.14669299125671,chair,chair,0,1096_s5n_s04_0_chair_00_chair2-boat1.png
subject-04,1,1097,1.13078188896179,bird,bird,0,1097_s5n_s04_0_bird_00_bird5-dog2.png
subject-04,1,1098,0.761425018310547,bottle,bottle,0,1098_s5n_s04_0_bottle_00_bottle8-keyboard3.png
subject-04,1,1099,0.712620973587036,bottle,bottle,0,1099_s5n_s04_0_bottle_00_bottle6-dog3.png
subject-04,1,1100,0.713482856750488,oven,keyboard,0,1100_s5n_s04_0_keyboard_00_keyboard6-knife2.png
subject-04,1,1101,0.659307956695557,keyboard,keyboard,0,1101_s5n_s04_0_keyboard_00_keyboard8-dog3.png
subject-04,1,1102,1.29541802406311,knife,knife,0,1102_s5n_s04_0_knife_00_knife1-bird2.png
subject-04,1,1103,0.603137016296387,chair,keyboard,0,1103_s5n_s04_0_keyboard_00_keyboard7-chair3.png
subject-04,1,1104,0.72515606880188,keyboard,keyboard,0,1104_s5n_s04_0_keyboard_00_keyboard10-airplane3.png
