subj,session,trial,rt,object_response,category,condition,imagename
subject-07,1,1,1.2597861289978,oven,car,0,0001_s5n_s07_0_car_00_car4-cat3.png
subject-07,1,2,0.621042966842651,bottle,bottle,0,0002_s5n_s07_0_bottle_00_bottle8-bottle3.png
subject-07,1,3,0.820188999176025,oven,oven,0,0003_s5n_s07_0_oven_00_oven9-bear2.png
subject-07,1,4,0.838008880615234,bottle,keyboard,0,0004_s5n_s07_0_keyboard_00_keyboard10-truck1.png
subject-07,1,5,1.09108781814575,bear,bear,0,0005_s5n_s07_0_bear_00_bear3-cat1.png
subject-07,1,6,0.854781150817871,car,car,0,0006_s5n_s07_0_car_00_car4-oven2.png
subject-07,1,7,1.1863329410553,airplane,airplane,0,0007_s5n_s07_0_airplane_00_airplane10-oven2.png
subject-07,1,8,1.0719940662384,dog,dog,0,0008_s5n_s07_0_dog_00_dog8-dog3.png
subject-07,1,9,0.507885932922363,clock,clock,0,0009_s5n_s07_0_clock_00_clock10-bottle1.png
subject-07,1,10,0.9183189868927,keyboard,keyboard,0,0010_s5n_s07_0_keyboard_00_keyboard1-airplane2.png
subject-07,1,11,1.0035228729248,oven,boat,0,0011_s5n_s07_0_boat_00_boat3-cat3.png
subject-07,1,12,0.742499828338623,bottle,bottle,0,0012_s5n_s07_0_bottle_00_bottle8-dog2.png
subject-07,1,13,0.782343864440918,oven,oven,0,0013_s5n_s07_0_oven_00_oven1-dog3.png
subject-07,1,14,0.906344175338745,truck,truck,0,0014_s5n_s07_0_truck_00_truck8-elephant1.png
subject-07,1,15,0.745651960372925,airplane,airplane,0,0015_s5n_s07_0_airplane_00_airplane6-keyboard3.png
subject-07,1,16,0.847412824630737,clock,clock,0,0016_s5n_s07_0_clock_00_clock6-truck3.png
subject-07,1,17,0.704061031341553,bottle,boat,0,0017_s5n_s07_0_boat_00_boat7-truck2.png
subject-07,1,18,0.859272956848145,truck,truck,0,0018_s5n_s07_0_truck_00_truck7-oven2.png
subject-07,1,19,0.7207350730896,bear,elephant,0,0019_s5n_s07_0_elephant_00_elephant2-bottle3.png
subject-07,1,20,1.08483815193176,dog,dog,0,0020_s5n_s07_0_dog_00_dog3-dog1.png
subject-07,1,21,0.970663070678711,truck,truck,0,0021_s5n_s07_0_truck_00_truck2-bicycle2.png
subject-07,1,22,0.894193887710571,airplane,airplane,0,0022_s5n_s07_0_airplane_00_airplane1-bicycle2.png
subject-07,1,23,0.895699024200439,elephant,elephant,0,0023_s5n_s07_0_elephant_00_elephant8-boat2.png
subject-07,1,24,0.76534104347229,cat,knife,0,0024_s5n_s07_0_knife_00_knife9-elephant2.png
subject-07,1,25,0.88005805015564,boat,boat,0,0025_s5n_s07_0_boat_00_boat5-car3.png
subject-07,1,26,0.927713871002197,bird,bird,0,0026_s5n_s07_0_bird_00_bird7-cat3.png
subject-07,1,27,1.29176783561707,chair,chair,0,0027_s5n_s07_0_chair_00_chair9-elephant1.png
subject-07,1,28,0.65327000617981,airplane,airplane,0,0028_s5n_s07_0_airplane_00_airplane5-oven3.png
subject-07,1,29,0.901135921478271,elephant,elephant,0,0029_s5n_s07_0_elephant_00_elephant6-bottle2.png
subject-07,1,30,0.678689002990723,car,car,0,0030_s5n_s07_0_car_00_car9-clock2.png
subject-07,1,31,0.702643871307373,car,car,0,0031_s5n_s07_0_car_00_car4-car2.png
subject-07,1,32,0.882441997528076,chair,chair,0,0032_s5n_s07_0_chair_00_chair4-bear2.png
subject-07,1,33,0.752135992050171,elephant,elephant,0,0033_s5n_s07_0_elephant_00_elephant4-bicycle2.png
subject-07,1,34,0.953593969345093,keyboard,bicycle,0,0034_s5n_s07_0_bicycle_00_bicycle2-keyboard2.png
subject-07,1,35,0.631001949310303,chair,chair,0,0035_s5n_s07_0_chair_00_chair8-airplane1.png
subject-07,1,36,1.00473403930664,chair,chair,0,0036_s5n_s07_0_chair_00_chair9-chair3.png
subject-07,1,37,0.960177898406982,truck,elephant,0,0037_s5n_s07_0_elephant_00_elephant6-truck3.png
subject-07,1,38,0.914013862609863,bicycle,bicycle,0,0038_s5n_s07_0_bicycle_00_bicycle9-chair1.png
subject-07,1,39,1.13732004165649,car,boat,0,0039_s5n_s07_0_boat_00_boat10-cat1.png
subject-07,1,40,1.07680201530457,elephant,bear,0,0040_s5n_s07_0_bear_00_bear10-bear2.png
subject-07,1,41,0.816218137741089,cat,cat,0,0041_s5n_s07_0_cat_00_cat5-bottle1.png
subject-07,1,42,0.785830974578857,airplane,airplane,0,0042_s5n_s07_0_airplane_00_airplane4-elephant1.png
subject-07,1,43,0.766474962234497,cat,cat,0,0043_s5n_s07_0_cat_00_cat6-oven1.png
subject-07,1,44,0.843440055847168,oven,bird,0,0044_s5n_s07_0_bird_00_bird5-truck2.png
subject-07,1,45,0.74283504486084,truck,dog,0,0045_s5n_s07_0_dog_00_dog5-truck2.png
subject-07,1,46,0.949745893478394,bicycle,bicycle,0,0046_s5n_s07_0_bicycle_00_bicycle3-elephant2.png
subject-07,1,47,0.975723028182983,boat,boat,0,0047_s5n_s07_0_boat_00_boat9-bear3.png
subject-07,1,48,0.653028964996338,airplane,airplane,0,0048_s5n_s07_0_airplane_00_airplane8-oven2.png
subject-07,1,49,1.07104110717773,car,knife,0,0049_s5n_s07_0_knife_00_knife1-chair1.png
subject-07,1,50,1.04929208755493,bird,bird,0,0050_s5n_s07_0_bird_00_bird5-oven3.png
subject-07,1,51,0.788326978683472,bicycle,bicycle,0,0051_s5n_s07_0_bicycle_00_bicycle3-truck3.png
subject-07,1,52,0.728237152099609,boat,oven,0,0052_s5n_s07_0_oven_00_oven3-boat3.png
subject-07,1,53,1.03572702407837,car,car,0,0053_s5n_s07_0_car_00_car6-bottle1.png
subject-07,1,54,0.842933893203735,elephant,elephant,0,0054_s5n_s07_0_elephant_00_elephant6-car3.png
subject-07,1,55,0.936686992645264,elephant,elephant,0,0055_s5n_s07_0_elephant_00_elephant5-bottle2.png
subject-07,1,56,0.776416063308716,cat,boat,0,0056_s5n_s07_0_boat_00_boat1-chair3.png
subject-07,1,57,0.791844129562378,truck,truck,0,0057_s5n_s07_0_truck_00_truck2-bottle3.png
subject-07,1,58,0.723090887069702,cat,dog,0,0058_s5n_s07_0_dog_00_dog6-bird1.png
subject-07,1,59,1.1869649887085,cat,dog,0,0059_s5n_s07_0_dog_00_dog9-bicycle3.png
subject-07,1,60,0.809733152389526,elephant,elephant,0,0060_s5n_s07_0_elephant_00_elephant5-elephant1.png
subject-07,1,61,1.15997004508972,clock,clock,0,0061_s5n_s07_0_clock_00_clock4-boat3.png
subject-07,1,62,0.636528015136719,bottle,keyboard,0,0062_s5n_s07_0_keyboard_00_keyboard4-bottle2.png
subject-07,1,63,1.15528392791748,car,car,0,0063_s5n_s07_0_car_00_car10-bicycle2.png
subject-07,1,64,1.1493809223175,car,car,0,0064_s5n_s07_0_car_00_car9-truck3.png
subject-07,1,65,0.856595039367676,clock,clock,0,0065_s5n_s07_0_clock_00_clock2-elephant2.png
subject-07,1,66,1.15846085548401,truck,truck,0,0066_s5n_s07_0_truck_00_truck6-oven3.png
subject-07,1,67,0.704318046569824,bird,bird,0,0067_s5n_s07_0_bird_00_bird9-bicycle3.png
subject-07,1,68,0.989773035049438,boat,cat,0,0068_s5n_s07_0_cat_00_cat7-knife2.png
subject-07,1,69,0.66956901550293,cat,cat,0,0069_s5n_s07_0_cat_00_cat7-airplane2.png
subject-07,1,70,1.39857602119446,boat,car,0,0070_s5n_s07_0_car_00_car4-elephant3.png
subject-07,1,71,1.14090609550476,oven,chair,0,0071_s5n_s07_0_chair_00_chair6-bird2.png
subject-07,1,72,1.16507005691528,cat,bottle,0,0072_s5n_s07_0_bottle_00_bottle4-truck1.png
subject-07,1,73,1.02678203582764,bird,bird,0,0073_s5n_s07_0_bird_00_bird8-clock1.png
subject-07,1,74,0.636244058609009,clock,clock,0,0074_s5n_s07_0_clock_00_clock4-bottle3.png
subject-07,1,75,0.8386070728302,dog,dog,0,0075_s5n_s07_0_dog_00_dog2-dog3.png
subject-07,1,76,1.33246302604675,bird,bird,0,0076_s5n_s07_0_bird_00_bird9-bear3.png
subject-07,1,77,0.83909797668457,elephant,bear,0,0077_s5n_s07_0_bear_00_bear8-boat2.png
subject-07,1,78,0.73889422416687,bicycle,bicycle,0,0078_s5n_s07_0_bicycle_00_bicycle1-airplane2.png
subject-07,1,79,1.04831886291504,dog,dog,0,0079_s5n_s07_0_dog_00_dog4-elephant2.png
subject-07,1,80,NaN,na,car,0,0080_s5n_s07_0_car_00_car4-clock1.png
subject-07,1,81,1.08659911155701,keyboard,keyboard,0,0081_s5n_s07_0_keyboard_00_keyboard9-truck3.png
subject-07,1,82,1.11006093025208,keyboard,knife,0,0082_s5n_s07_0_knife_00_knife1-car3.png
subject-07,1,83,0.963973999023438,bird,truck,0,0083_s5n_s07_0_truck_00_truck3-bear3.png
subject-07,1,84,0.557805061340332,bottle,bottle,0,0084_s5n_s07_0_bottle_00_bottle3-knife3.png
subject-07,1,85,0.896706104278564,airplane,knife,0,0085_s5n_s07_0_knife_00_knife6-knife1.png
subject-07,1,86,0.988195180892944,keyboard,keyboard,0,0086_s5n_s07_0_keyboard_00_keyboard7-bottle1.png
subject-07,1,87,1.08983993530273,chair,chair,0,0087_s5n_s07_0_chair_00_chair5-clock2.png
subject-07,1,88,1.11289310455322,dog,bear,0,0088_s5n_s07_0_bear_00_bear3-chair2.png
subject-07,1,89,0.736629009246826,bottle,bottle,0,0089_s5n_s07_0_bottle_00_bottle2-knife3.png
subject-07,1,90,1.21427893638611,keyboard,bear,0,0090_s5n_s07_0_bear_00_bear4-keyboard3.png
subject-07,1,91,0.813801050186157,elephant,elephant,0,0091_s5n_s07_0_elephant_00_elephant5-chair3.png
subject-07,1,92,0.856091022491455,boat,keyboard,0,0092_s5n_s07_0_keyboard_00_keyboard4-knife2.png
subject-07,1,93,1.12346220016479,dog,dog,0,0093_s5n_s07_0_dog_00_dog3-bear3.png
subject-07,1,94,0.941175937652588,bicycle,bicycle,0,0094_s5n_s07_0_bicycle_00_bicycle4-oven3.png
subject-07,1,95,0.780898809432983,clock,clock,0,0095_s5n_s07_0_clock_00_clock1-truck3.png
subject-07,1,96,0.638723850250244,clock,clock,0,0096_s5n_s07_0_clock_00_clock5-oven1.png
subject-07,1,97,1.14013195037842,car,car,0,0097_s5n_s07_0_car_00_car1-oven3.png
subject-07,1,98,1.25218200683594,truck,truck,0,0098_s5n_s07_0_truck_00_truck8-bottle2.png
subject-07,1,99,0.69172191619873,chair,chair,0,0099_s5n_s07_0_chair_00_chair1-clock2.png
subject-07,1,100,0.745021820068359,cat,cat,0,0100_s5n_s07_0_cat_00_cat10-bicycle1.png
subject-07,1,101,1.44255590438843,bird,bird,0,0101_s5n_s07_0_bird_00_bird2-airplane3.png
subject-07,1,102,1.50008583068848,oven,chair,0,0102_s5n_s07_0_chair_00_chair8-keyboard3.png
subject-07,1,103,NaN,na,bicycle,0,0103_s5n_s07_0_bicycle_00_bicycle5-oven3.png
subject-07,1,104,0.751384019851685,clock,boat,0,0104_s5n_s07_0_boat_00_boat4-bicycle3.png
subject-07,1,105,0.983583927154541,oven,knife,0,0105_s5n_s07_0_knife_00_knife1-oven1.png
subject-07,1,106,0.623733043670654,bottle,bottle,0,0106_s5n_s07_0_bottle_00_bottle1-cat3.png
subject-07,1,107,0.916752099990845,bird,bird,0,0107_s5n_s07_0_bird_00_bird7-bird2.png
subject-07,1,108,0.840175867080688,bottle,bottle,0,0108_s5n_s07_0_bottle_00_bottle5-chair1.png
subject-07,1,109,1.42754697799683,bicycle,bicycle,0,0109_s5n_s07_0_bicycle_00_bicycle5-dog2.png
subject-07,1,110,1.12149810791016,elephant,elephant,0,0110_s5n_s07_0_elephant_00_elephant6-bicycle1.png
subject-07,1,111,0.768687009811401,oven,oven,0,0111_s5n_s07_0_oven_00_oven5-bottle3.png
subject-07,1,112,0.809647083282471,knife,knife,0,0112_s5n_s07_0_knife_00_knife9-boat1.png
subject-07,1,113,0.886866807937622,dog,elephant,0,0113_s5n_s07_0_elephant_00_elephant2-cat1.png
subject-07,1,114,0.926305055618286,oven,oven,0,0114_s5n_s07_0_oven_00_oven7-oven1.png
subject-07,1,115,0.737390995025635,truck,truck,0,0115_s5n_s07_0_truck_00_truck1-car3.png
subject-07,1,116,1.15311598777771,truck,truck,0,0116_s5n_s07_0_truck_00_truck1-cat1.png
subject-07,1,117,1.05450201034546,cat,airplane,0,0117_s5n_s07_0_airplane_00_airplane4-bottle1.png
subject-07,1,118,0.840742826461792,dog,dog,0,0118_s5n_s07_0_dog_00_dog1-bird1.png
subject-07,1,119,1.02632093429565,chair,knife,0,0119_s5n_s07_0_knife_00_knife6-chair3.png
subject-07,1,120,1.00461912155151,dog,dog,0,0120_s5n_s07_0_dog_00_dog1-cat3.png
subject-07,1,121,1.09025502204895,dog,dog,0,0121_s5n_s07_0_dog_00_dog10-truck2.png
subject-07,1,122,0.790769100189209,keyboard,keyboard,0,0122_s5n_s07_0_keyboard_00_keyboard7-knife1.png
subject-07,1,123,0.976341962814331,clock,clock,0,0123_s5n_s07_0_clock_00_clock7-cat2.png
subject-07,1,124,0.923835039138794,dog,elephant,0,0124_s5n_s07_0_elephant_00_elephant1-keyboard3.png
subject-07,1,125,0.62335991859436,clock,clock,0,0125_s5n_s07_0_clock_00_clock4-elephant2.png
subject-07,1,126,1.10896301269531,knife,knife,0,0126_s5n_s07_0_knife_00_knife6-boat3.png
subject-07,1,127,0.8838050365448,elephant,elephant,0,0127_s5n_s07_0_elephant_00_elephant5-bear2.png
subject-07,1,128,1.01024389266968,oven,oven,0,0128_s5n_s07_0_oven_00_oven4-bottle2.png
subject-07,1,129,0.689440011978149,clock,clock,0,0129_s5n_s07_0_clock_00_clock1-car1.png
subject-07,1,130,1.28201389312744,oven,chair,0,0130_s5n_s07_0_chair_00_chair6-truck2.png
subject-07,1,131,0.851845979690552,knife,airplane,0,0131_s5n_s07_0_airplane_00_airplane4-keyboard3.png
subject-07,1,132,0.897591114044189,bicycle,bicycle,0,0132_s5n_s07_0_bicycle_00_bicycle10-airplane2.png
subject-07,1,133,1.15324997901917,bird,bird,0,0133_s5n_s07_0_bird_00_bird10-bear2.png
subject-07,1,134,0.676553010940552,oven,oven,0,0134_s5n_s07_0_oven_00_oven4-knife2.png
subject-07,1,135,0.784765958786011,bird,boat,0,0135_s5n_s07_0_boat_00_boat6-cat1.png
subject-07,1,136,0.923904895782471,chair,chair,0,0136_s5n_s07_0_chair_00_chair8-clock3.png
subject-07,1,137,0.885374069213867,car,car,0,0137_s5n_s07_0_car_00_car8-clock2.png
subject-07,1,138,0.792866230010986,cat,cat,0,0138_s5n_s07_0_cat_00_cat2-bottle3.png
subject-07,1,139,1.28598999977112,truck,truck,0,0139_s5n_s07_0_truck_00_truck2-airplane3.png
subject-07,1,140,0.89368200302124,clock,keyboard,0,0140_s5n_s07_0_keyboard_00_keyboard2-elephant1.png
subject-07,1,141,1.06316113471985,keyboard,keyboard,0,0141_s5n_s07_0_keyboard_00_keyboard10-boat2.png
subject-07,1,142,1.13223385810852,oven,elephant,0,0142_s5n_s07_0_elephant_00_elephant10-keyboard1.png
subject-07,1,143,1.07208395004272,dog,dog,0,0143_s5n_s07_0_dog_00_dog4-oven1.png
subject-07,1,144,1.01831221580505,bird,bird,0,0144_s5n_s07_0_bird_00_bird10-bird2.png
subject-07,1,145,0.717555999755859,keyboard,keyboard,0,0145_s5n_s07_0_keyboard_00_keyboard5-keyboard1.png
subject-07,1,146,0.827600002288818,truck,truck,0,0146_s5n_s07_0_truck_00_truck2-chair1.png
subject-07,1,147,0.843008995056152,bottle,bottle,0,0147_s5n_s07_0_bottle_00_bottle7-cat2.png
subject-07,1,148,0.671910047531128,clock,clock,0,0148_s5n_s07_0_clock_00_clock5-elephant2.png
subject-07,1,149,0.557928085327148,cat,knife,0,0149_s5n_s07_0_knife_00_knife4-bear1.png
subject-07,1,150,1.449551820755,dog,dog,0,0150_s5n_s07_0_dog_00_dog5-car3.png
subject-07,1,151,0.759746074676514,airplane,airplane,0,0151_s5n_s07_0_airplane_00_airplane10-elephant1.png
subject-07,1,152,0.591268062591553,bottle,knife,0,0152_s5n_s07_0_knife_00_knife9-bottle2.png
subject-07,1,153,0.798744916915894,keyboard,knife,0,0153_s5n_s07_0_knife_00_knife4-oven2.png
subject-07,1,154,1.16826796531677,dog,dog,0,0154_s5n_s07_0_dog_00_dog9-boat1.png
subject-07,1,155,NaN,na,oven,0,0155_s5n_s07_0_oven_00_oven7-car3.png
subject-07,1,156,0.828609943389893,elephant,elephant,0,0156_s5n_s07_0_elephant_00_elephant3-cat2.png
subject-07,1,157,0.619307041168213,bicycle,bicycle,0,0157_s5n_s07_0_bicycle_00_bicycle1-dog3.png
subject-07,1,158,1.50005316734314,clock,clock,0,0158_s5n_s07_0_clock_00_clock8-knife1.png
subject-07,1,159,0.750843048095703,car,car,0,0159_s5n_s07_0_car_00_car9-knife1.png
subject-07,1,160,0.666536092758179,chair,chair,0,0160_s5n_s07_0_chair_00_chair8-bicycle3.png
subject-07,1,161,0.744495153427124,bear,bear,0,0161_s5n_s07_0_bear_00_bear2-oven1.png
subject-07,1,162,0.75490403175354,keyboard,keyboard,0,0162_s5n_s07_0_keyboard_00_keyboard5-cat1.png
subject-07,1,163,0.992020845413208,keyboard,keyboard,0,0163_s5n_s07_0_keyboard_00_keyboard6-bottle2.png
subject-07,1,164,0.861557960510254,car,car,0,0164_s5n_s07_0_car_00_car10-bottle3.png
subject-07,1,165,0.877708911895752,chair,oven,0,0165_s5n_s07_0_oven_00_oven7-bottle1.png
subject-07,1,166,1.01656198501587,car,airplane,0,0166_s5n_s07_0_airplane_00_airplane4-boat3.png
subject-07,1,167,0.648550033569336,cat,cat,0,0167_s5n_s07_0_cat_00_cat6-keyboard3.png
subject-07,1,168,0.895227909088135,cat,bear,0,0168_s5n_s07_0_bear_00_bear10-keyboard3.png
subject-07,1,169,0.704896926879883,cat,cat,0,0169_s5n_s07_0_cat_00_cat2-elephant1.png
subject-07,1,170,0.92946982383728,dog,dog,0,0170_s5n_s07_0_dog_00_dog7-bird3.png
subject-07,1,171,0.961076974868774,cat,cat,0,0171_s5n_s07_0_cat_00_cat5-chair3.png
subject-07,1,172,0.94420599937439,bottle,bottle,0,0172_s5n_s07_0_bottle_00_bottle9-oven2.png
subject-07,1,173,0.846358060836792,cat,cat,0,0173_s5n_s07_0_cat_00_cat10-bird2.png
subject-07,1,174,0.692129135131836,dog,bear,0,0174_s5n_s07_0_bear_00_bear3-bird3.png
subject-07,1,175,0.755305051803589,bicycle,bicycle,0,0175_s5n_s07_0_bicycle_00_bicycle4-truck3.png
subject-07,1,176,1.15467619895935,bird,boat,0,0176_s5n_s07_0_boat_00_boat4-elephant2.png
subject-07,1,177,0.808211088180542,chair,chair,0,0177_s5n_s07_0_chair_00_chair3-airplane2.png
subject-07,1,178,0.924098968505859,chair,chair,0,0178_s5n_s07_0_chair_00_chair2-boat1.png
subject-07,1,179,0.85628080368042,dog,dog,0,0179_s5n_s07_0_dog_00_dog7-chair2.png
subject-07,1,180,0.908679008483887,bottle,bear,0,0180_s5n_s07_0_bear_00_bear6-boat3.png
subject-07,1,181,NaN,na,oven,0,0181_s5n_s07_0_oven_00_oven3-cat2.png
subject-07,1,182,0.609624862670898,elephant,elephant,0,0182_s5n_s07_0_elephant_00_elephant9-clock3.png
subject-07,1,183,0.88732385635376,elephant,elephant,0,0183_s5n_s07_0_elephant_00_elephant8-cat1.png
subject-07,1,184,0.90078592300415,bird,boat,0,0184_s5n_s07_0_boat_00_boat6-clock2.png
subject-07,1,185,1.07877683639526,bottle,bottle,0,0185_s5n_s07_0_bottle_00_bottle5-knife1.png
subject-07,1,186,0.580008983612061,clock,clock,0,0186_s5n_s07_0_clock_00_clock7-boat3.png
subject-07,1,187,0.665794134140015,dog,dog,0,0187_s5n_s07_0_dog_00_dog3-clock1.png
subject-07,1,188,0.857400178909302,airplane,airplane,0,0188_s5n_s07_0_airplane_00_airplane5-chair3.png
subject-07,1,189,1.50003004074097,keyboard,airplane,0,0189_s5n_s07_0_airplane_00_airplane8-chair1.png
subject-07,1,190,0.701034069061279,knife,knife,0,0190_s5n_s07_0_knife_00_knife2-bicycle3.png
subject-07,1,191,0.854351997375488,bottle,dog,0,0191_s5n_s07_0_dog_00_dog2-bottle2.png
subject-07,1,192,0.626682996749878,clock,clock,0,0192_s5n_s07_0_clock_00_clock9-chair3.png
subject-07,1,193,1.24830508232117,truck,truck,0,0193_s5n_s07_0_truck_00_truck7-elephant2.png
subject-07,1,194,0.704113960266113,oven,bird,0,0194_s5n_s07_0_bird_00_bird3-oven1.png
subject-07,1,195,1.3119900226593,knife,boat,0,0195_s5n_s07_0_boat_00_boat1-bear1.png
subject-07,1,196,0.897942066192627,bear,bear,0,0196_s5n_s07_0_bear_00_bear5-boat2.png
subject-07,1,197,0.675542831420898,bear,bear,0,0197_s5n_s07_0_bear_00_bear8-bicycle3.png
subject-07,1,198,1.35388803482056,bottle,bottle,0,0198_s5n_s07_0_bottle_00_bottle1-car1.png
subject-07,1,199,0.669301986694336,chair,chair,0,0199_s5n_s07_0_chair_00_chair2-keyboard2.png
subject-07,1,200,0.968382835388184,keyboard,keyboard,0,0200_s5n_s07_0_keyboard_00_keyboard1-bird2.png
subject-07,1,201,0.799936056137085,keyboard,knife,0,0201_s5n_s07_0_knife_00_knife4-knife2.png
subject-07,1,202,0.800189971923828,knife,airplane,0,0202_s5n_s07_0_airplane_00_airplane8-elephant3.png
subject-07,1,203,0.831409931182861,clock,clock,0,0203_s5n_s07_0_clock_00_clock1-clock2.png
subject-07,1,204,0.771982908248901,chair,chair,0,0204_s5n_s07_0_chair_00_chair3-bicycle3.png
subject-07,1,205,1.34107494354248,keyboard,keyboard,0,0205_s5n_s07_0_keyboard_00_keyboard7-oven2.png
subject-07,1,206,0.978255987167358,knife,knife,0,0206_s5n_s07_0_knife_00_knife10-knife1.png
subject-07,1,207,1.36129093170166,car,car,0,0207_s5n_s07_0_car_00_car6-boat1.png
subject-07,1,208,0.909507036209106,cat,cat,0,0208_s5n_s07_0_cat_00_cat4-chair2.png
subject-07,1,209,1.44118118286133,knife,knife,0,0209_s5n_s07_0_knife_00_knife6-airplane1.png
subject-07,1,210,0.857061862945557,elephant,elephant,0,0210_s5n_s07_0_elephant_00_elephant8-bicycle3.png
subject-07,1,211,0.835599899291992,clock,clock,0,0211_s5n_s07_0_clock_00_clock4-chair1.png
subject-07,1,212,1.48420596122742,keyboard,bird,0,0212_s5n_s07_0_bird_00_bird3-bottle2.png
subject-07,1,213,0.683904886245728,bottle,bottle,0,0213_s5n_s07_0_bottle_00_bottle7-clock1.png
subject-07,1,214,1.500324010849,dog,dog,0,0214_s5n_s07_0_dog_00_dog2-bicycle2.png
subject-07,1,215,1.11951303482056,bicycle,bicycle,0,0215_s5n_s07_0_bicycle_00_bicycle4-bottle1.png
subject-07,1,216,0.789714097976685,bicycle,bicycle,0,0216_s5n_s07_0_bicycle_00_bicycle2-bottle1.png
subject-07,1,217,1.07518601417542,keyboard,truck,0,0217_s5n_s07_0_truck_00_truck5-knife3.png
subject-07,1,218,1.05269598960876,dog,bear,0,0218_s5n_s07_0_bear_00_bear9-boat2.png
subject-07,1,219,0.752433061599731,clock,oven,0,0219_s5n_s07_0_oven_00_oven6-chair3.png
subject-07,1,220,0.546389102935791,clock,clock,0,0220_s5n_s07_0_clock_00_clock2-knife1.png
subject-07,1,221,0.695117950439453,bicycle,bicycle,0,0221_s5n_s07_0_bicycle_00_bicycle4-airplane1.png
subject-07,1,222,1.12449216842651,keyboard,boat,0,0222_s5n_s07_0_boat_00_boat8-bottle1.png
subject-07,1,223,0.672980070114136,clock,clock,0,0223_s5n_s07_0_clock_00_clock3-car2.png
subject-07,1,224,0.859625101089478,bird,bird,0,0224_s5n_s07_0_bird_00_bird2-car3.png
subject-07,1,225,0.566851139068604,clock,clock,0,0225_s5n_s07_0_clock_00_clock5-airplane1.png
subject-07,1,226,0.936342000961304,keyboard,keyboard,0,0226_s5n_s07_0_keyboard_00_keyboard5-dog3.png
subject-07,1,227,0.713932037353516,cat,car,0,0227_s5n_s07_0_car_00_car7-elephant3.png
subject-07,1,228,0.726900815963745,oven,bottle,0,0228_s5n_s07_0_bottle_00_bottle7-keyboard2.png
subject-07,1,229,0.958420038223267,dog,boat,0,0229_s5n_s07_0_boat_00_boat3-dog3.png
subject-07,1,230,0.798122882843018,bottle,bottle,0,0230_s5n_s07_0_bottle_00_bottle3-cat3.png
subject-07,1,231,0.673645973205566,clock,clock,0,0231_s5n_s07_0_clock_00_clock3-dog2.png
subject-07,1,232,0.643927097320557,bird,bird,0,0232_s5n_s07_0_bird_00_bird7-car2.png
subject-07,1,233,0.942859888076782,cat,truck,0,0233_s5n_s07_0_truck_00_truck8-cat2.png
subject-07,1,234,0.645531892776489,chair,chair,0,0234_s5n_s07_0_chair_00_chair5-truck3.png
subject-07,1,235,1.04951286315918,elephant,elephant,0,0235_s5n_s07_0_elephant_00_elephant1-chair1.png
subject-07,1,236,1.05131697654724,bird,bird,0,0236_s5n_s07_0_bird_00_bird1-bear1.png
subject-07,1,237,1.22050213813782,bottle,elephant,0,0237_s5n_s07_0_elephant_00_elephant5-truck1.png
subject-07,1,238,0.812619924545288,airplane,airplane,0,0238_s5n_s07_0_airplane_00_airplane1-clock1.png
subject-07,1,239,1.0402979850769,knife,knife,0,0239_s5n_s07_0_knife_00_knife4-airplane3.png
subject-07,1,240,0.798425912857056,truck,truck,0,0240_s5n_s07_0_truck_00_truck1-chair2.png
subject-07,1,241,0.98364782333374,bird,knife,0,0241_s5n_s07_0_knife_00_knife2-bottle2.png
subject-07,1,242,1.29637408256531,knife,knife,0,0242_s5n_s07_0_knife_00_knife5-truck3.png
subject-07,1,243,0.783283948898315,cat,boat,0,0243_s5n_s07_0_boat_00_boat8-oven1.png
subject-07,1,244,0.768745899200439,car,car,0,0244_s5n_s07_0_car_00_car5-bottle1.png
subject-07,1,245,0.892081022262573,bird,bird,0,0245_s5n_s07_0_bird_00_bird8-elephant1.png
subject-07,1,246,1.0623300075531,bird,boat,0,0246_s5n_s07_0_boat_00_boat10-bear3.png
subject-07,1,247,0.799654006958008,elephant,elephant,0,0247_s5n_s07_0_elephant_00_elephant10-knife3.png
subject-07,1,248,0.707166910171509,bird,bird,0,0248_s5n_s07_0_bird_00_bird6-bottle3.png
subject-07,1,249,1.09020304679871,bird,knife,0,0249_s5n_s07_0_knife_00_knife8-truck3.png
subject-07,1,250,0.760112047195435,bird,bird,0,0250_s5n_s07_0_bird_00_bird2-bird2.png
subject-07,1,251,1.20577502250671,dog,dog,0,0251_s5n_s07_0_dog_00_dog7-oven2.png
subject-07,1,252,0.71514892578125,bicycle,bicycle,0,0252_s5n_s07_0_bicycle_00_bicycle8-truck1.png
subject-07,1,253,1.2662889957428,truck,truck,0,0253_s5n_s07_0_truck_00_truck10-truck3.png
subject-07,1,254,1.12158894538879,keyboard,keyboard,0,0254_s5n_s07_0_keyboard_00_keyboard1-chair2.png
subject-07,1,255,1.13519406318665,keyboard,keyboard,0,0255_s5n_s07_0_keyboard_00_keyboard9-cat1.png
subject-07,1,256,0.800714015960693,car,car,0,0256_s5n_s07_0_car_00_car5-truck3.png
subject-07,1,257,1.08623290061951,car,truck,0,0257_s5n_s07_0_truck_00_truck2-elephant1.png
subject-07,1,258,0.869961023330688,elephant,elephant,0,0258_s5n_s07_0_elephant_00_elephant7-car3.png
subject-07,1,259,0.609618186950684,car,car,0,0259_s5n_s07_0_car_00_car2-cat3.png
subject-07,1,260,0.830451965332031,clock,clock,0,0260_s5n_s07_0_clock_00_clock8-airplane2.png
subject-07,1,261,1.3084659576416,truck,keyboard,0,0261_s5n_s07_0_keyboard_00_keyboard7-truck2.png
subject-07,1,262,0.856895923614502,elephant,elephant,0,0262_s5n_s07_0_elephant_00_elephant1-airplane2.png
subject-07,1,263,0.618299007415771,bird,bird,0,0263_s5n_s07_0_bird_00_bird9-keyboard1.png
subject-07,1,264,1.13436007499695,bear,bear,0,0264_s5n_s07_0_bear_00_bear7-bear2.png
subject-07,1,265,0.804590940475464,keyboard,keyboard,0,0265_s5n_s07_0_keyboard_00_keyboard4-truck3.png
subject-07,1,266,1.11949586868286,knife,knife,0,0266_s5n_s07_0_knife_00_knife5-dog1.png
subject-07,1,267,1.50033593177795,bear,bear,0,0267_s5n_s07_0_bear_00_bear1-bird2.png
subject-07,1,268,0.710620164871216,elephant,elephant,0,0268_s5n_s07_0_elephant_00_elephant3-truck1.png
subject-07,1,269,0.710371971130371,dog,dog,0,0269_s5n_s07_0_dog_00_dog10-dog1.png
subject-07,1,270,0.86430811882019,airplane,airplane,0,0270_s5n_s07_0_airplane_00_airplane6-bear3.png
subject-07,1,271,0.965559959411621,chair,oven,0,0271_s5n_s07_0_oven_00_oven6-elephant2.png
subject-07,1,272,0.781141996383667,keyboard,keyboard,0,0272_s5n_s07_0_keyboard_00_keyboard4-keyboard2.png
subject-07,1,273,0.765765190124512,boat,boat,0,0273_s5n_s07_0_boat_00_boat5-airplane1.png
subject-07,1,274,0.913309097290039,oven,oven,0,0274_s5n_s07_0_oven_00_oven8-cat3.png
subject-07,1,275,0.651335000991821,bird,bird,0,0275_s5n_s07_0_bird_00_bird2-knife1.png
subject-07,1,276,0.975742101669312,dog,dog,0,0276_s5n_s07_0_dog_00_dog1-dog2.png
subject-07,1,277,0.790833950042725,cat,elephant,0,0277_s5n_s07_0_elephant_00_elephant2-bird1.png
subject-07,1,278,0.768912076950073,chair,chair,0,0278_s5n_s07_0_chair_00_chair3-car3.png
subject-07,1,279,0.638207912445068,clock,airplane,0,0279_s5n_s07_0_airplane_00_airplane10-knife3.png
subject-07,1,280,0.699764013290405,bicycle,bicycle,0,0280_s5n_s07_0_bicycle_00_bicycle2-bird3.png
subject-07,1,281,0.561410903930664,boat,boat,0,0281_s5n_s07_0_boat_00_boat3-car3.png
subject-07,1,282,0.744021892547607,car,car,0,0282_s5n_s07_0_car_00_car1-clock2.png
subject-07,1,283,1.0279438495636,car,car,0,0283_s5n_s07_0_car_00_car7-clock1.png
subject-07,1,284,0.897433996200562,cat,cat,0,0284_s5n_s07_0_cat_00_cat7-clock3.png
subject-07,1,285,1.09162592887878,bear,bear,0,0285_s5n_s07_0_bear_00_bear5-bicycle3.png
subject-07,1,286,0.758504152297974,bear,elephant,0,0286_s5n_s07_0_elephant_00_elephant6-cat2.png
subject-07,1,287,1.23601698875427,knife,knife,0,0287_s5n_s07_0_knife_00_knife6-bird1.png
subject-07,1,288,0.697367191314697,cat,bottle,0,0288_s5n_s07_0_bottle_00_bottle6-bear2.png
subject-07,1,289,0.705111980438232,truck,truck,0,0289_s5n_s07_0_truck_00_truck6-clock2.png
subject-07,1,290,0.658324003219604,oven,oven,0,0290_s5n_s07_0_oven_00_oven3-clock3.png
subject-07,1,291,1.27387499809265,car,knife,0,0291_s5n_s07_0_knife_00_knife4-boat1.png
subject-07,1,292,0.83512282371521,chair,chair,0,0292_s5n_s07_0_chair_00_chair5-bird1.png
subject-07,1,293,1.05064821243286,truck,truck,0,0293_s5n_s07_0_truck_00_truck10-airplane1.png
subject-07,1,294,0.550776958465576,keyboard,keyboard,0,0294_s5n_s07_0_keyboard_00_keyboard7-clock3.png
subject-07,1,295,1.13573408126831,elephant,elephant,0,0295_s5n_s07_0_elephant_00_elephant5-car1.png
subject-07,1,296,0.743373155593872,airplane,airplane,0,0296_s5n_s07_0_airplane_00_airplane5-dog3.png
subject-07,1,297,1.20534896850586,elephant,elephant,0,0297_s5n_s07_0_elephant_00_elephant7-bear3.png
subject-07,1,298,1.04272699356079,chair,oven,0,0298_s5n_s07_0_oven_00_oven7-dog2.png
subject-07,1,299,0.682217836380005,oven,oven,0,0299_s5n_s07_0_oven_00_oven9-bird3.png
subject-07,1,300,0.6247239112854,oven,oven,0,0300_s5n_s07_0_oven_00_oven1-bird3.png
subject-07,1,301,0.585917949676514,clock,clock,0,0301_s5n_s07_0_clock_00_clock4-airplane1.png
subject-07,1,302,1.30026793479919,bird,bird,0,0302_s5n_s07_0_bird_00_bird3-cat1.png
subject-07,1,303,0.875221014022827,bottle,bottle,0,0303_s5n_s07_0_bottle_00_bottle9-bicycle1.png
subject-07,1,304,1.029217004776,bear,bear,0,0304_s5n_s07_0_bear_00_bear7-bicycle2.png
subject-07,1,305,1.12866592407227,car,truck,0,0305_s5n_s07_0_truck_00_truck4-bear1.png
subject-07,1,306,0.876788854598999,dog,dog,0,0306_s5n_s07_0_dog_00_dog10-car3.png
subject-07,1,307,0.984564065933228,keyboard,keyboard,0,0307_s5n_s07_0_keyboard_00_keyboard6-elephant1.png
subject-07,1,308,0.76247501373291,car,airplane,0,0308_s5n_s07_0_airplane_00_airplane4-car1.png
subject-07,1,309,0.64422607421875,oven,oven,0,0309_s5n_s07_0_oven_00_oven10-bear1.png
subject-07,1,310,0.873806953430176,chair,airplane,0,0310_s5n_s07_0_airplane_00_airplane3-car1.png
subject-07,1,311,0.892362117767334,truck,truck,0,0311_s5n_s07_0_truck_00_truck6-cat2.png
subject-07,1,312,0.875634908676147,chair,keyboard,0,0312_s5n_s07_0_keyboard_00_keyboard7-chair3.png
subject-07,1,313,0.845350027084351,cat,bear,0,0313_s5n_s07_0_bear_00_bear4-car3.png
subject-07,1,314,0.789844989776611,car,car,0,0314_s5n_s07_0_car_00_car7-bird3.png
subject-07,1,315,0.992270946502686,keyboard,keyboard,0,0315_s5n_s07_0_keyboard_00_keyboard8-oven1.png
subject-07,1,316,0.94567608833313,chair,boat,0,0316_s5n_s07_0_boat_00_boat3-bicycle2.png
subject-07,1,317,0.758733987808228,truck,truck,0,0317_s5n_s07_0_truck_00_truck6-bicycle1.png
subject-07,1,318,0.666064977645874,elephant,elephant,0,0318_s5n_s07_0_elephant_00_elephant2-boat1.png
subject-07,1,319,0.751789808273315,elephant,elephant,0,0319_s5n_s07_0_elephant_00_elephant2-airplane3.png
subject-07,1,320,1.4254310131073,knife,knife,0,0320_s5n_s07_0_knife_00_knife6-clock2.png
subject-07,1,321,1.00103402137756,car,car,0,0321_s5n_s07_0_car_00_car1-dog2.png
subject-07,1,322,0.911404848098755,truck,dog,0,0322_s5n_s07_0_dog_00_dog6-truck2.png
subject-07,1,323,0.815295934677124,boat,bear,0,0323_s5n_s07_0_bear_00_bear6-bottle3.png
subject-07,1,324,0.616678953170776,chair,dog,0,0324_s5n_s07_0_dog_00_dog8-keyboard3.png
subject-07,1,325,0.753741025924683,truck,truck,0,0325_s5n_s07_0_truck_00_truck1-dog1.png
subject-07,1,326,0.991761922836304,elephant,elephant,0,0326_s5n_s07_0_elephant_00_elephant7-knife2.png
subject-07,1,327,0.777822017669678,bottle,bottle,0,0327_s5n_s07_0_bottle_00_bottle10-bear2.png
subject-07,1,328,0.838876962661743,car,car,0,0328_s5n_s07_0_car_00_car3-oven3.png
subject-07,1,329,NaN,na,clock,0,0329_s5n_s07_0_clock_00_clock10-truck2.png
subject-07,1,330,0.853636026382446,oven,bear,0,0330_s5n_s07_0_bear_00_bear10-oven1.png
subject-07,1,331,1.19081497192383,elephant,dog,0,0331_s5n_s07_0_dog_00_dog7-car2.png
subject-07,1,332,0.882176876068115,cat,cat,0,0332_s5n_s07_0_cat_00_cat5-elephant2.png
subject-07,1,333,0.762879133224487,bottle,bottle,0,0333_s5n_s07_0_bottle_00_bottle7-oven2.png
subject-07,1,334,1.09206700325012,chair,chair,0,0334_s5n_s07_0_chair_00_chair7-truck3.png
subject-07,1,335,1.01586103439331,keyboard,knife,0,0335_s5n_s07_0_knife_00_knife1-keyboard3.png
subject-07,1,336,0.869114875793457,keyboard,keyboard,0,0336_s5n_s07_0_keyboard_00_keyboard5-knife2.png
subject-07,1,337,0.87225604057312,car,bird,0,0337_s5n_s07_0_bird_00_bird7-truck2.png
subject-07,1,338,0.763609886169434,chair,chair,0,0338_s5n_s07_0_chair_00_chair10-bicycle1.png
subject-07,1,339,1.28688597679138,chair,chair,0,0339_s5n_s07_0_chair_00_chair8-oven1.png
subject-07,1,340,0.902204990386963,cat,cat,0,0340_s5n_s07_0_cat_00_cat1-car2.png
subject-07,1,341,0.747852087020874,bicycle,bicycle,0,0341_s5n_s07_0_bicycle_00_bicycle5-bear1.png
subject-07,1,342,0.717361927032471,truck,truck,0,0342_s5n_s07_0_truck_00_truck3-dog3.png
subject-07,1,343,0.875814914703369,keyboard,keyboard,0,0343_s5n_s07_0_keyboard_00_keyboard9-bicycle2.png
subject-07,1,344,0.783439874649048,oven,oven,0,0344_s5n_s07_0_oven_00_oven3-truck1.png
subject-07,1,345,0.731359004974365,boat,airplane,0,0345_s5n_s07_0_airplane_00_airplane4-cat3.png
subject-07,1,346,0.744543075561523,bird,bird,0,0346_s5n_s07_0_bird_00_bird8-chair1.png
subject-07,1,347,1.05170798301697,dog,dog,0,0347_s5n_s07_0_dog_00_dog8-bottle2.png
subject-07,1,348,0.783523082733154,bottle,bottle,0,0348_s5n_s07_0_bottle_00_bottle3-bicycle3.png
subject-07,1,349,0.790225982666016,oven,oven,0,0349_s5n_s07_0_oven_00_oven4-dog1.png
subject-07,1,350,0.727898836135864,oven,oven,0,0350_s5n_s07_0_oven_00_oven9-clock2.png
subject-07,1,351,NaN,na,bear,0,0351_s5n_s07_0_bear_00_bear4-oven2.png
subject-07,1,352,0.879669189453125,car,car,0,0352_s5n_s07_0_car_00_car1-car2.png
subject-07,1,353,0.965447187423706,knife,knife,0,0353_s5n_s07_0_knife_00_knife6-oven3.png
subject-07,1,354,0.597386837005615,clock,clock,0,0354_s5n_s07_0_clock_00_clock3-elephant3.png
subject-07,1,355,0.872875928878784,clock,boat,0,0355_s5n_s07_0_boat_00_boat2-bear3.png
subject-07,1,356,0.68450403213501,cat,cat,0,0356_s5n_s07_0_cat_00_cat3-elephant2.png
subject-07,1,357,0.761795043945312,knife,knife,0,0357_s5n_s07_0_knife_00_knife2-bear2.png
subject-07,1,358,1.01587891578674,oven,car,0,0358_s5n_s07_0_car_00_car4-bottle1.png
subject-07,1,359,0.801273822784424,cat,cat,0,0359_s5n_s07_0_cat_00_cat1-boat1.png
subject-07,1,360,0.825151920318604,chair,airplane,0,0360_s5n_s07_0_airplane_00_airplane6-chair3.png
subject-07,1,361,0.963643074035645,bird,bird,0,0361_s5n_s07_0_bird_00_bird5-keyboard2.png
subject-07,1,362,1.12535309791565,car,truck,0,0362_s5n_s07_0_truck_00_truck4-knife1.png
subject-07,1,363,0.765523910522461,chair,chair,0,0363_s5n_s07_0_chair_00_chair5-knife3.png
subject-07,1,364,0.78101110458374,car,car,0,0364_s5n_s07_0_car_00_car10-chair1.png
subject-07,1,365,1.24255084991455,chair,chair,0,0365_s5n_s07_0_chair_00_chair5-keyboard2.png
subject-07,1,366,0.588047027587891,oven,oven,0,0366_s5n_s07_0_oven_00_oven4-car1.png
subject-07,1,367,0.849751234054565,cat,bear,0,0367_s5n_s07_0_bear_00_bear6-cat3.png
subject-07,1,368,1.10874891281128,truck,truck,0,0368_s5n_s07_0_truck_00_truck8-dog3.png
subject-07,1,369,1.01004600524902,knife,bird,0,0369_s5n_s07_0_bird_00_bird4-bicycle2.png
subject-07,1,370,0.625569105148315,clock,clock,0,0370_s5n_s07_0_clock_00_clock1-bear1.png
subject-07,1,371,0.863483905792236,car,car,0,0371_s5n_s07_0_car_00_car8-bicycle2.png
subject-07,1,372,0.965327978134155,bottle,bottle,0,0372_s5n_s07_0_bottle_00_bottle2-car2.png
subject-07,1,373,0.794815063476562,knife,boat,0,0373_s5n_s07_0_boat_00_boat4-car3.png
subject-07,1,374,0.880603075027466,car,car,0,0374_s5n_s07_0_car_00_car9-cat1.png
subject-07,1,375,0.780793905258179,oven,bear,0,0375_s5n_s07_0_bear_00_bear2-keyboard2.png
subject-07,1,376,0.774533987045288,bicycle,bicycle,0,0376_s5n_s07_0_bicycle_00_bicycle2-bicycle1.png
subject-07,1,377,0.903714895248413,clock,clock,0,0377_s5n_s07_0_clock_00_clock10-clock3.png
subject-07,1,378,0.810482025146484,bird,bird,0,0378_s5n_s07_0_bird_00_bird5-bird1.png
subject-07,1,379,0.834914922714233,car,car,0,0379_s5n_s07_0_car_00_car3-dog2.png
subject-07,1,380,0.913029193878174,knife,bird,0,0380_s5n_s07_0_bird_00_bird4-clock1.png
subject-07,1,381,1.05307388305664,car,truck,0,0381_s5n_s07_0_truck_00_truck7-boat1.png
subject-07,1,382,0.998131990432739,truck,airplane,0,0382_s5n_s07_0_airplane_00_airplane4-truck2.png
subject-07,1,383,0.714089870452881,car,car,0,0383_s5n_s07_0_car_00_car4-boat1.png
subject-07,1,384,0.997349977493286,cat,bear,0,0384_s5n_s07_0_bear_00_bear1-bicycle3.png
subject-07,1,385,0.629525184631348,keyboard,keyboard,0,0385_s5n_s07_0_keyboard_00_keyboard9-chair2.png
subject-07,1,386,1.01084804534912,bird,boat,0,0386_s5n_s07_0_boat_00_boat6-dog1.png
subject-07,1,387,0.926692008972168,cat,cat,0,0387_s5n_s07_0_cat_00_cat4-oven1.png
subject-07,1,388,0.725386142730713,keyboard,keyboard,0,0388_s5n_s07_0_keyboard_00_keyboard10-oven3.png
subject-07,1,389,0.846990823745728,keyboard,keyboard,0,0389_s5n_s07_0_keyboard_00_keyboard6-boat2.png
subject-07,1,390,0.90865683555603,bear,bear,0,0390_s5n_s07_0_bear_00_bear8-truck3.png
subject-07,1,391,0.816004037857056,cat,cat,0,0391_s5n_s07_0_cat_00_cat8-car2.png
subject-07,1,392,0.809789896011353,airplane,airplane,0,0392_s5n_s07_0_airplane_00_airplane1-chair2.png
subject-07,1,393,1.12306094169617,dog,bear,0,0393_s5n_s07_0_bear_00_bear3-truck3.png
subject-07,1,394,1.03819608688354,cat,cat,0,0394_s5n_s07_0_cat_00_cat5-bicycle3.png
subject-07,1,395,1.07578897476196,keyboard,oven,0,0395_s5n_s07_0_oven_00_oven2-bottle1.png
subject-07,1,396,0.823090076446533,bottle,bottle,0,0396_s5n_s07_0_bottle_00_bottle5-truck1.png
subject-07,1,397,0.869123935699463,bottle,bottle,0,0397_s5n_s07_0_bottle_00_bottle3-chair3.png
subject-07,1,398,1.17635798454285,knife,knife,0,0398_s5n_s07_0_knife_00_knife9-bird1.png
subject-07,1,399,NaN,na,airplane,0,0399_s5n_s07_0_airplane_00_airplane8-bird1.png
subject-07,1,400,0.815768957138062,truck,truck,0,0400_s5n_s07_0_truck_00_truck9-airplane2.png
subject-07,1,401,0.799504995346069,airplane,airplane,0,0401_s5n_s07_0_airplane_00_airplane7-car1.png
subject-07,1,402,0.810055017471313,bear,bear,0,0402_s5n_s07_0_bear_00_bear4-clock3.png
subject-07,1,403,0.575492858886719,boat,boat,0,0403_s5n_s07_0_boat_00_boat9-clock1.png
subject-07,1,404,0.9720778465271,knife,boat,0,0404_s5n_s07_0_boat_00_boat7-elephant3.png
subject-07,1,405,1.10354399681091,chair,chair,0,0405_s5n_s07_0_chair_00_chair1-airplane2.png
subject-07,1,406,1.39120888710022,knife,knife,0,0406_s5n_s07_0_knife_00_knife5-bicycle2.png
subject-07,1,407,0.831197023391724,bicycle,bicycle,0,0407_s5n_s07_0_bicycle_00_bicycle9-airplane2.png
subject-07,1,408,0.963251113891602,chair,chair,0,0408_s5n_s07_0_chair_00_chair5-bicycle1.png
subject-07,1,409,0.891006946563721,keyboard,keyboard,0,0409_s5n_s07_0_keyboard_00_keyboard8-dog3.png
subject-07,1,410,0.620639085769653,cat,cat,0,0410_s5n_s07_0_cat_00_cat8-bird2.png
subject-07,1,411,0.924056053161621,dog,dog,0,0411_s5n_s07_0_dog_00_dog4-clock1.png
subject-07,1,412,1.24762105941772,bottle,bottle,0,0412_s5n_s07_0_bottle_00_bottle8-knife1.png
subject-07,1,413,1.0092601776123,bottle,bottle,0,0413_s5n_s07_0_bottle_00_bottle1-clock1.png
subject-07,1,414,0.754455089569092,cat,cat,0,0414_s5n_s07_0_cat_00_cat10-elephant3.png
subject-07,1,415,0.87770414352417,chair,chair,0,0415_s5n_s07_0_chair_00_chair5-cat3.png
subject-07,1,416,0.619040966033936,boat,boat,0,0416_s5n_s07_0_boat_00_boat9-dog2.png
subject-07,1,417,0.74849796295166,chair,airplane,0,0417_s5n_s07_0_airplane_00_airplane3-chair3.png
subject-07,1,418,0.87963080406189,keyboard,keyboard,0,0418_s5n_s07_0_keyboard_00_keyboard9-bird1.png
subject-07,1,419,0.799767971038818,cat,bear,0,0419_s5n_s07_0_bear_00_bear3-bicycle2.png
subject-07,1,420,0.586024045944214,clock,clock,0,0420_s5n_s07_0_clock_00_clock8-chair2.png
subject-07,1,421,0.794189214706421,bear,bear,0,0421_s5n_s07_0_bear_00_bear9-dog1.png
subject-07,1,422,0.838864088058472,car,car,0,0422_s5n_s07_0_car_00_car3-airplane3.png
subject-07,1,423,0.646647930145264,bottle,bottle,0,0423_s5n_s07_0_bottle_00_bottle10-dog1.png
subject-07,1,424,0.823801040649414,knife,knife,0,0424_s5n_s07_0_knife_00_knife1-elephant1.png
subject-07,1,425,0.85395884513855,car,car,0,0425_s5n_s07_0_car_00_car5-bear3.png
subject-07,1,426,0.823548078536987,oven,oven,0,0426_s5n_s07_0_oven_00_oven2-truck3.png
subject-07,1,427,0.606452941894531,keyboard,keyboard,0,0427_s5n_s07_0_keyboard_00_keyboard7-boat2.png
subject-07,1,428,0.629130125045776,clock,clock,0,0428_s5n_s07_0_clock_00_clock6-knife2.png
subject-07,1,429,1.17587494850159,car,car,0,0429_s5n_s07_0_car_00_car8-truck3.png
subject-07,1,430,1.50008296966553,knife,knife,0,0430_s5n_s07_0_knife_00_knife1-truck2.png
subject-07,1,431,0.843844175338745,cat,bear,0,0431_s5n_s07_0_bear_00_bear8-elephant2.png
subject-07,1,432,0.875670909881592,dog,dog,0,0432_s5n_s07_0_dog_00_dog3-keyboard1.png
subject-07,1,433,0.951186895370483,cat,bear,0,0433_s5n_s07_0_bear_00_bear4-boat2.png
subject-07,1,434,0.698820829391479,keyboard,keyboard,0,0434_s5n_s07_0_keyboard_00_keyboard1-bear2.png
subject-07,1,435,0.730783939361572,airplane,airplane,0,0435_s5n_s07_0_airplane_00_airplane1-elephant1.png
subject-07,1,436,0.946524143218994,boat,car,0,0436_s5n_s07_0_car_00_car7-boat3.png
subject-07,1,437,0.700070142745972,elephant,elephant,0,0437_s5n_s07_0_elephant_00_elephant9-airplane2.png
subject-07,1,438,1.18353414535522,oven,oven,0,0438_s5n_s07_0_oven_00_oven8-knife2.png
subject-07,1,439,1.28618216514587,car,boat,0,0439_s5n_s07_0_boat_00_boat3-keyboard2.png
subject-07,1,440,0.693198919296265,keyboard,keyboard,0,0440_s5n_s07_0_keyboard_00_keyboard5-bear3.png
subject-07,1,441,0.816655874252319,clock,clock,0,0441_s5n_s07_0_clock_00_clock3-keyboard3.png
subject-07,1,442,1.04054188728333,chair,chair,0,0442_s5n_s07_0_chair_00_chair7-bird1.png
subject-07,1,443,0.932114124298096,chair,cat,0,0443_s5n_s07_0_cat_00_cat6-chair3.png
subject-07,1,444,1.15649580955505,dog,dog,0,0444_s5n_s07_0_dog_00_dog4-truck2.png
subject-07,1,445,0.947815179824829,bottle,bottle,0,0445_s5n_s07_0_bottle_00_bottle9-elephant2.png
subject-07,1,446,0.862901926040649,elephant,elephant,0,0446_s5n_s07_0_elephant_00_elephant9-dog3.png
subject-07,1,447,0.813937902450562,oven,chair,0,0447_s5n_s07_0_chair_00_chair6-elephant2.png
subject-07,1,448,0.829427003860474,bottle,bottle,0,0448_s5n_s07_0_bottle_00_bottle7-elephant2.png
subject-07,1,449,NaN,na,truck,0,0449_s5n_s07_0_truck_00_truck2-oven3.png
subject-07,1,450,1.03030610084534,airplane,airplane,0,0450_s5n_s07_0_airplane_00_airplane9-truck1.png
subject-07,1,451,0.851204872131348,dog,dog,0,0451_s5n_s07_0_dog_00_dog4-cat3.png
subject-07,1,452,0.796945095062256,chair,knife,0,0452_s5n_s07_0_knife_00_knife6-truck1.png
subject-07,1,453,1.03643393516541,bottle,bottle,0,0453_s5n_s07_0_bottle_00_bottle9-keyboard1.png
subject-07,1,454,0.689855098724365,cat,cat,0,0454_s5n_s07_0_cat_00_cat5-knife2.png
subject-07,1,455,1.41158485412598,dog,dog,0,0455_s5n_s07_0_dog_00_dog4-bicycle1.png
subject-07,1,456,1.3427939414978,truck,truck,0,0456_s5n_s07_0_truck_00_truck2-clock1.png
subject-07,1,457,0.91064715385437,bottle,bottle,0,0457_s5n_s07_0_bottle_00_bottle5-oven2.png
subject-07,1,458,0.996378898620605,bicycle,bicycle,0,0458_s5n_s07_0_bicycle_00_bicycle3-oven3.png
subject-07,1,459,0.619755029678345,clock,clock,0,0459_s5n_s07_0_clock_00_clock5-chair3.png
subject-07,1,460,1.10337209701538,dog,elephant,0,0460_s5n_s07_0_elephant_00_elephant6-oven1.png
subject-07,1,461,0.873471975326538,bear,bear,0,0461_s5n_s07_0_bear_00_bear10-cat2.png
subject-07,1,462,0.951237916946411,car,car,0,0462_s5n_s07_0_car_00_car8-dog1.png
subject-07,1,463,0.604707002639771,clock,clock,0,0463_s5n_s07_0_clock_00_clock7-dog2.png
subject-07,1,464,0.818331003189087,bear,bear,0,0464_s5n_s07_0_bear_00_bear5-airplane3.png
subject-07,1,465,1.1534321308136,oven,oven,0,0465_s5n_s07_0_oven_00_oven10-truck2.png
subject-07,1,466,0.606515884399414,chair,chair,0,0466_s5n_s07_0_chair_00_chair7-cat1.png
subject-07,1,467,1.24413204193115,bird,boat,0,0467_s5n_s07_0_boat_00_boat6-elephant2.png
subject-07,1,468,1.08983588218689,car,car,0,0468_s5n_s07_0_car_00_car3-bottle3.png
subject-07,1,469,0.613270044326782,clock,clock,0,0469_s5n_s07_0_clock_00_clock6-bottle1.png
subject-07,1,470,1.08293509483337,car,boat,0,0470_s5n_s07_0_boat_00_boat10-truck1.png
subject-07,1,471,0.95888614654541,chair,dog,0,0471_s5n_s07_0_dog_00_dog8-boat3.png
subject-07,1,472,0.712411880493164,clock,airplane,0,0472_s5n_s07_0_airplane_00_airplane3-clock1.png
subject-07,1,473,0.919775009155273,oven,knife,0,0473_s5n_s07_0_knife_00_knife6-bottle3.png
subject-07,1,474,0.997527122497559,car,car,0,0474_s5n_s07_0_car_00_car6-bear1.png
subject-07,1,475,1.0885169506073,knife,airplane,0,0475_s5n_s07_0_airplane_00_airplane4-bear3.png
subject-07,1,476,0.909142971038818,oven,bird,0,0476_s5n_s07_0_bird_00_bird3-boat3.png
subject-07,1,477,1.21667098999023,cat,elephant,0,0477_s5n_s07_0_elephant_00_elephant7-cat1.png
subject-07,1,478,0.710184097290039,keyboard,keyboard,0,0478_s5n_s07_0_keyboard_00_keyboard2-clock1.png
subject-07,1,479,1.01885795593262,knife,knife,0,0479_s5n_s07_0_knife_00_knife2-car3.png
subject-07,1,480,0.821112871170044,chair,bear,0,0480_s5n_s07_0_bear_00_bear6-chair1.png
subject-07,1,481,0.850234031677246,boat,bear,0,0481_s5n_s07_0_bear_00_bear10-car2.png
subject-07,1,482,1.14974594116211,truck,cat,0,0482_s5n_s07_0_cat_00_cat3-oven2.png
subject-07,1,483,0.648850917816162,chair,chair,0,0483_s5n_s07_0_chair_00_chair8-bear1.png
subject-07,1,484,0.770150184631348,car,car,0,0484_s5n_s07_0_car_00_car4-bird1.png
subject-07,1,485,1.02613306045532,dog,dog,0,0485_s5n_s07_0_dog_00_dog6-bicycle1.png
subject-07,1,486,0.963776111602783,elephant,elephant,0,0486_s5n_s07_0_elephant_00_elephant8-airplane3.png
subject-07,1,487,1.00898289680481,chair,airplane,0,0487_s5n_s07_0_airplane_00_airplane8-truck3.png
subject-07,1,488,0.878281116485596,chair,chair,0,0488_s5n_s07_0_chair_00_chair7-clock3.png
subject-07,1,489,0.870543003082275,bicycle,bicycle,0,0489_s5n_s07_0_bicycle_00_bicycle2-dog1.png
subject-07,1,490,0.785911798477173,oven,oven,0,0490_s5n_s07_0_oven_00_oven3-knife1.png
subject-07,1,491,1.32353496551514,car,knife,0,0491_s5n_s07_0_knife_00_knife7-car2.png
subject-07,1,492,0.768928050994873,chair,chair,0,0492_s5n_s07_0_chair_00_chair7-knife2.png
subject-07,1,493,0.905802011489868,dog,dog,0,0493_s5n_s07_0_dog_00_dog5-boat3.png
subject-07,1,494,0.929577112197876,bear,bear,0,0494_s5n_s07_0_bear_00_bear1-bear3.png
subject-07,1,495,0.883938074111938,truck,truck,0,0495_s5n_s07_0_truck_00_truck4-oven2.png
subject-07,1,496,0.836302042007446,oven,knife,0,0496_s5n_s07_0_knife_00_knife10-elephant3.png
subject-07,1,497,0.790271997451782,airplane,airplane,0,0497_s5n_s07_0_airplane_00_airplane2-dog1.png
subject-07,1,498,0.996394157409668,bird,bird,0,0498_s5n_s07_0_bird_00_bird6-elephant2.png
subject-07,1,499,0.925703048706055,airplane,airplane,0,0499_s5n_s07_0_airplane_00_airplane3-dog1.png
subject-07,1,500,0.917392015457153,airplane,airplane,0,0500_s5n_s07_0_airplane_00_airplane2-cat1.png
subject-07,1,501,0.82044792175293,boat,boat,0,0501_s5n_s07_0_boat_00_boat8-bird2.png
subject-07,1,502,0.765777111053467,cat,cat,0,0502_s5n_s07_0_cat_00_cat5-bear2.png
subject-07,1,503,1.05945897102356,car,knife,0,0503_s5n_s07_0_knife_00_knife4-car2.png
subject-07,1,504,0.821161985397339,bottle,bottle,0,0504_s5n_s07_0_bottle_00_bottle6-airplane1.png
subject-07,1,505,0.69078803062439,cat,cat,0,0505_s5n_s07_0_cat_00_cat1-dog1.png
subject-07,1,506,0.682838916778564,bicycle,bicycle,0,0506_s5n_s07_0_bicycle_00_bicycle4-boat1.png
subject-07,1,507,1.00690698623657,bicycle,bicycle,0,0507_s5n_s07_0_bicycle_00_bicycle1-oven1.png
subject-07,1,508,0.998568773269653,bird,bird,0,0508_s5n_s07_0_bird_00_bird1-elephant2.png
subject-07,1,509,0.852275848388672,bicycle,bicycle,0,0509_s5n_s07_0_bicycle_00_bicycle8-clock3.png
subject-07,1,510,0.892590045928955,bear,bear,0,0510_s5n_s07_0_bear_00_bear8-bottle1.png
subject-07,1,511,0.900675058364868,bird,bird,0,0511_s5n_s07_0_bird_00_bird5-airplane3.png
subject-07,1,512,0.807992935180664,keyboard,keyboard,0,0512_s5n_s07_0_keyboard_00_keyboard6-bear2.png
subject-07,1,513,0.805343151092529,boat,boat,0,0513_s5n_s07_0_boat_00_boat9-boat3.png
subject-07,1,514,0.806802034378052,bird,bird,0,0514_s5n_s07_0_bird_00_bird3-truck3.png
subject-07,1,515,0.4825279712677,clock,clock,0,0515_s5n_s07_0_clock_00_clock6-bicycle1.png
subject-07,1,516,0.744382858276367,bicycle,bicycle,0,0516_s5n_s07_0_bicycle_00_bicycle7-cat1.png
subject-07,1,517,0.522193193435669,clock,clock,0,0517_s5n_s07_0_clock_00_clock5-clock2.png
subject-07,1,518,0.637717962265015,bicycle,bicycle,0,0518_s5n_s07_0_bicycle_00_bicycle5-car3.png
subject-07,1,519,1.13621616363525,knife,knife,0,0519_s5n_s07_0_knife_00_knife8-bottle3.png
subject-07,1,520,0.836444854736328,airplane,airplane,0,0520_s5n_s07_0_airplane_00_airplane3-elephant1.png
subject-07,1,521,1.02223801612854,boat,truck,0,0521_s5n_s07_0_truck_00_truck4-airplane3.png
subject-07,1,522,0.760261058807373,bird,bird,0,0522_s5n_s07_0_bird_00_bird9-dog2.png
subject-07,1,523,1.38393998146057,bicycle,bicycle,0,0523_s5n_s07_0_bicycle_00_bicycle9-cat3.png
subject-07,1,524,0.883141994476318,car,car,0,0524_s5n_s07_0_car_00_car2-car3.png
subject-07,1,525,0.99950909614563,car,car,0,0525_s5n_s07_0_car_00_car10-dog1.png
subject-07,1,526,0.722616195678711,elephant,elephant,0,0526_s5n_s07_0_elephant_00_elephant9-boat3.png
subject-07,1,527,0.648090839385986,boat,boat,0,0527_s5n_s07_0_boat_00_boat4-dog2.png
subject-07,1,528,0.77741003036499,clock,clock,0,0528_s5n_s07_0_clock_00_clock6-oven1.png
subject-07,1,529,0.971028089523315,keyboard,truck,0,0529_s5n_s07_0_truck_00_truck3-keyboard3.png
subject-07,1,530,0.970829010009766,keyboard,truck,0,0530_s5n_s07_0_truck_00_truck1-clock3.png
subject-07,1,531,1.25494599342346,chair,chair,0,0531_s5n_s07_0_chair_00_chair10-oven1.png
subject-07,1,532,NaN,na,truck,0,0532_s5n_s07_0_truck_00_truck10-clock1.png
subject-07,1,533,0.662074089050293,clock,clock,0,0533_s5n_s07_0_clock_00_clock10-cat1.png
subject-07,1,534,0.639477968215942,bird,bird,0,0534_s5n_s07_0_bird_00_bird7-bottle1.png
subject-07,1,535,0.601564168930054,clock,clock,0,0535_s5n_s07_0_clock_00_clock10-dog3.png
subject-07,1,536,0.695587873458862,boat,boat,0,0536_s5n_s07_0_boat_00_boat7-keyboard3.png
subject-07,1,537,0.825270891189575,keyboard,keyboard,0,0537_s5n_s07_0_keyboard_00_keyboard8-keyboard2.png
subject-07,1,538,0.717049837112427,cat,cat,0,0538_s5n_s07_0_cat_00_cat9-chair2.png
subject-07,1,539,0.630728960037231,chair,chair,0,0539_s5n_s07_0_chair_00_chair9-bicycle3.png
subject-07,1,540,0.668697118759155,bear,bear,0,0540_s5n_s07_0_bear_00_bear5-oven3.png
subject-07,1,541,0.833898067474365,bottle,bottle,0,0541_s5n_s07_0_bottle_00_bottle9-bottle1.png
subject-07,1,542,0.663655996322632,boat,knife,0,0542_s5n_s07_0_knife_00_knife2-truck2.png
subject-07,1,543,0.736170053482056,clock,clock,0,0543_s5n_s07_0_clock_00_clock6-car2.png
subject-07,1,544,0.819169998168945,keyboard,car,0,0544_s5n_s07_0_car_00_car1-keyboard2.png
subject-07,1,545,0.856121778488159,keyboard,keyboard,0,0545_s5n_s07_0_keyboard_00_keyboard3-bicycle2.png
subject-07,1,546,1.09374213218689,keyboard,keyboard,0,0546_s5n_s07_0_keyboard_00_keyboard10-keyboard1.png
subject-07,1,547,0.639496088027954,bear,bear,0,0547_s5n_s07_0_bear_00_bear8-knife3.png
subject-07,1,548,0.495216846466064,oven,oven,0,0548_s5n_s07_0_oven_00_oven4-truck3.png
subject-07,1,549,0.686294078826904,airplane,airplane,0,0549_s5n_s07_0_airplane_00_airplane7-cat3.png
subject-07,1,550,1.0022029876709,chair,chair,0,0550_s5n_s07_0_chair_00_chair10-airplane2.png
subject-07,1,551,1.20224809646606,truck,truck,0,0551_s5n_s07_0_truck_00_truck10-car3.png
subject-07,1,552,0.871793985366821,bicycle,bicycle,0,0552_s5n_s07_0_bicycle_00_bicycle3-bird1.png
subject-07,1,553,0.842917919158936,keyboard,keyboard,0,0553_s5n_s07_0_keyboard_00_keyboard3-elephant2.png
subject-07,1,554,0.582642078399658,bottle,bottle,0,0554_s5n_s07_0_bottle_00_bottle3-bottle3.png
subject-07,1,555,0.94649600982666,car,car,0,0555_s5n_s07_0_car_00_car6-bicycle3.png
subject-07,1,556,0.770047187805176,oven,oven,0,0556_s5n_s07_0_oven_00_oven2-bicycle1.png
subject-07,1,557,0.785820007324219,oven,oven,0,0557_s5n_s07_0_oven_00_oven9-car2.png
subject-07,1,558,0.577347993850708,bear,bear,0,0558_s5n_s07_0_bear_00_bear1-chair2.png
subject-07,1,559,0.731045961380005,keyboard,keyboard,0,0559_s5n_s07_0_keyboard_00_keyboard6-chair1.png
subject-07,1,560,0.909194946289062,bear,bear,0,0560_s5n_s07_0_bear_00_bear8-bear1.png
subject-07,1,561,0.661946058273315,boat,bird,0,0561_s5n_s07_0_bird_00_bird6-truck2.png
subject-07,1,562,0.661491870880127,elephant,elephant,0,0562_s5n_s07_0_elephant_00_elephant3-knife1.png
subject-07,1,563,0.829272985458374,keyboard,airplane,0,0563_s5n_s07_0_airplane_00_airplane9-keyboard2.png
subject-07,1,564,0.874143123626709,bear,bear,0,0564_s5n_s07_0_bear_00_bear9-knife2.png
subject-07,1,565,0.844252109527588,cat,dog,0,0565_s5n_s07_0_dog_00_dog3-truck2.png
subject-07,1,566,0.883851051330566,dog,dog,0,0566_s5n_s07_0_dog_00_dog8-clock2.png
subject-07,1,567,0.880273103713989,chair,chair,0,0567_s5n_s07_0_chair_00_chair7-bottle1.png
subject-07,1,568,0.757912158966064,chair,chair,0,0568_s5n_s07_0_chair_00_chair5-boat3.png
subject-07,1,569,0.794987201690674,chair,bottle,0,0569_s5n_s07_0_bottle_00_bottle7-truck2.png
subject-07,1,570,1.11859893798828,chair,boat,0,0570_s5n_s07_0_boat_00_boat1-oven1.png
subject-07,1,571,0.856778860092163,chair,dog,0,0571_s5n_s07_0_dog_00_dog8-chair3.png
subject-07,1,572,1.42629313468933,airplane,airplane,0,0572_s5n_s07_0_airplane_00_airplane6-bottle2.png
subject-07,1,573,1.09347295761108,dog,bird,0,0573_s5n_s07_0_bird_00_bird8-knife2.png
subject-07,1,574,0.733973026275635,bottle,bottle,0,0574_s5n_s07_0_bottle_00_bottle5-elephant1.png
subject-07,1,575,0.804090023040771,cat,cat,0,0575_s5n_s07_0_cat_00_cat6-bear1.png
subject-07,1,576,0.704074859619141,keyboard,knife,0,0576_s5n_s07_0_knife_00_knife10-chair1.png
subject-07,1,577,0.814121007919312,cat,cat,0,0577_s5n_s07_0_cat_00_cat1-keyboard3.png
subject-07,1,578,1.05652284622192,airplane,airplane,0,0578_s5n_s07_0_airplane_00_airplane9-oven2.png
subject-07,1,579,0.918689966201782,bottle,bottle,0,0579_s5n_s07_0_bottle_00_bottle5-cat1.png
subject-07,1,580,1.0800518989563,boat,chair,0,0580_s5n_s07_0_chair_00_chair9-boat2.png
subject-07,1,581,0.666326999664307,cat,bird,0,0581_s5n_s07_0_bird_00_bird1-keyboard3.png
subject-07,1,582,0.773630142211914,keyboard,cat,0,0582_s5n_s07_0_cat_00_cat10-airplane3.png
subject-07,1,583,1.50016689300537,clock,clock,0,0583_s5n_s07_0_clock_00_clock10-airplane1.png
subject-07,1,584,0.888481855392456,bear,bear,0,0584_s5n_s07_0_bear_00_bear2-airplane1.png
subject-07,1,585,0.787981033325195,bottle,bottle,0,0585_s5n_s07_0_bottle_00_bottle6-bird1.png
subject-07,1,586,0.903723955154419,keyboard,keyboard,0,0586_s5n_s07_0_keyboard_00_keyboard4-bird1.png
subject-07,1,587,1.01777195930481,chair,boat,0,0587_s5n_s07_0_boat_00_boat1-bird3.png
subject-07,1,588,0.68745493888855,bear,bear,0,0588_s5n_s07_0_bear_00_bear4-cat3.png
subject-07,1,589,0.911210060119629,bird,bird,0,0589_s5n_s07_0_bird_00_bird1-oven1.png
subject-07,1,590,1.50002312660217,airplane,airplane,0,0590_s5n_s07_0_airplane_00_airplane5-boat3.png
subject-07,1,591,0.672098875045776,oven,oven,0,0591_s5n_s07_0_oven_00_oven4-clock2.png
subject-07,1,592,0.779836893081665,bear,bear,0,0592_s5n_s07_0_bear_00_bear3-airplane1.png
subject-07,1,593,0.771610021591187,chair,chair,0,0593_s5n_s07_0_chair_00_chair7-car2.png
subject-07,1,594,0.773853063583374,bottle,boat,0,0594_s5n_s07_0_boat_00_boat4-bottle2.png
subject-07,1,595,0.949196100234985,bird,bird,0,0595_s5n_s07_0_bird_00_bird2-dog2.png
subject-07,1,596,0.935508966445923,keyboard,boat,0,0596_s5n_s07_0_boat_00_boat7-clock3.png
subject-07,1,597,0.789140939712524,bird,bird,0,0597_s5n_s07_0_bird_00_bird7-boat1.png
subject-07,1,598,0.605408906936646,clock,clock,0,0598_s5n_s07_0_clock_00_clock7-car1.png
subject-07,1,599,0.691670894622803,oven,oven,0,0599_s5n_s07_0_oven_00_oven8-chair1.png
subject-07,1,600,0.667325019836426,oven,oven,0,0600_s5n_s07_0_oven_00_oven3-car2.png
subject-07,1,601,0.952930927276611,oven,oven,0,0601_s5n_s07_0_oven_00_oven9-boat2.png
subject-07,1,602,0.898652076721191,airplane,cat,0,0602_s5n_s07_0_cat_00_cat9-knife2.png
subject-07,1,603,0.876443147659302,clock,clock,0,0603_s5n_s07_0_clock_00_clock1-boat3.png
subject-07,1,604,0.928108930587769,chair,chair,0,0604_s5n_s07_0_chair_00_chair8-knife2.png
subject-07,1,605,0.843925952911377,keyboard,keyboard,0,0605_s5n_s07_0_keyboard_00_keyboard5-bird3.png
subject-07,1,606,0.772952079772949,oven,clock,0,0606_s5n_s07_0_clock_00_clock1-elephant2.png
subject-07,1,607,0.663861989974976,clock,clock,0,0607_s5n_s07_0_clock_00_clock9-bird2.png
subject-07,1,608,1.04200792312622,oven,truck,0,0608_s5n_s07_0_truck_00_truck2-bird2.png
subject-07,1,609,0.849551916122437,dog,dog,0,0609_s5n_s07_0_dog_00_dog2-cat1.png
subject-07,1,610,0.857068061828613,bicycle,bicycle,0,0610_s5n_s07_0_bicycle_00_bicycle3-keyboard1.png
subject-07,1,611,0.489091873168945,clock,clock,0,0611_s5n_s07_0_clock_00_clock3-bear3.png
subject-07,1,612,0.881141185760498,oven,oven,0,0612_s5n_s07_0_oven_00_oven3-airplane1.png
subject-07,1,613,0.888497114181519,clock,boat,0,0613_s5n_s07_0_boat_00_boat3-clock3.png
subject-07,1,614,0.850301027297974,airplane,airplane,0,0614_s5n_s07_0_airplane_00_airplane4-airplane1.png
subject-07,1,615,0.652390003204346,bottle,bottle,0,0615_s5n_s07_0_bottle_00_bottle10-truck3.png
subject-07,1,616,0.906049013137817,truck,truck,0,0616_s5n_s07_0_truck_00_truck9-bottle2.png
subject-07,1,617,0.659270048141479,clock,clock,0,0617_s5n_s07_0_clock_00_clock4-bird3.png
subject-07,1,618,0.634212017059326,oven,oven,0,0618_s5n_s07_0_oven_00_oven2-boat3.png
subject-07,1,619,0.59599494934082,clock,clock,0,0619_s5n_s07_0_clock_00_clock6-chair3.png
subject-07,1,620,0.591063976287842,oven,oven,0,0620_s5n_s07_0_oven_00_oven10-bicycle1.png
subject-07,1,621,0.774327039718628,car,car,0,0621_s5n_s07_0_car_00_car10-elephant2.png
subject-07,1,622,0.753129005432129,cat,cat,0,0622_s5n_s07_0_cat_00_cat7-dog3.png
subject-07,1,623,0.742201089859009,oven,bear,0,0623_s5n_s07_0_bear_00_bear10-clock1.png
subject-07,1,624,1.1583411693573,dog,dog,0,0624_s5n_s07_0_dog_00_dog1-airplane3.png
subject-07,1,625,0.573809146881104,clock,knife,0,0625_s5n_s07_0_knife_00_knife5-clock1.png
subject-07,1,626,0.994837045669556,knife,knife,0,0626_s5n_s07_0_knife_00_knife6-dog2.png
subject-07,1,627,0.918627977371216,clock,clock,0,0627_s5n_s07_0_clock_00_clock2-bicycle1.png
subject-07,1,628,0.948699951171875,chair,chair,0,0628_s5n_s07_0_chair_00_chair9-bottle3.png
subject-07,1,629,0.805371999740601,airplane,airplane,0,0629_s5n_s07_0_airplane_00_airplane8-bicycle3.png
subject-07,1,630,0.683073997497559,clock,clock,0,0630_s5n_s07_0_clock_00_clock10-knife3.png
subject-07,1,631,NaN,na,car,0,0631_s5n_s07_0_car_00_car7-keyboard3.png
subject-07,1,632,0.912045001983643,boat,boat,0,0632_s5n_s07_0_boat_00_boat4-chair2.png
subject-07,1,633,0.711637020111084,elephant,elephant,0,0633_s5n_s07_0_elephant_00_elephant8-oven3.png
subject-07,1,634,1.08990597724915,dog,dog,0,0634_s5n_s07_0_dog_00_dog2-airplane2.png
subject-07,1,635,0.999119997024536,car,car,0,0635_s5n_s07_0_car_00_car10-car1.png
subject-07,1,636,1.1604220867157,bicycle,bicycle,0,0636_s5n_s07_0_bicycle_00_bicycle4-car2.png
subject-07,1,637,0.708524942398071,boat,boat,0,0637_s5n_s07_0_boat_00_boat2-airplane1.png
subject-07,1,638,0.682286024093628,car,car,0,0638_s5n_s07_0_car_00_car3-elephant3.png
subject-07,1,639,0.873975992202759,clock,clock,0,0639_s5n_s07_0_clock_00_clock3-bird1.png
subject-07,1,640,0.844081878662109,dog,dog,0,0640_s5n_s07_0_dog_00_dog5-elephant1.png
subject-07,1,641,1.10349702835083,airplane,airplane,0,0641_s5n_s07_0_airplane_00_airplane10-truck1.png
subject-07,1,642,1.07277798652649,car,truck,0,0642_s5n_s07_0_truck_00_truck10-bicycle1.png
subject-07,1,643,1.19405913352966,car,car,0,0643_s5n_s07_0_car_00_car8-knife2.png
subject-07,1,644,0.763238191604614,chair,chair,0,0644_s5n_s07_0_chair_00_chair4-chair3.png
subject-07,1,645,0.708842992782593,clock,bird,0,0645_s5n_s07_0_bird_00_bird10-clock1.png
subject-07,1,646,0.932750225067139,chair,chair,0,0646_s5n_s07_0_chair_00_chair1-chair1.png
subject-07,1,647,0.686470031738281,boat,boat,0,0647_s5n_s07_0_boat_00_boat9-cat3.png
subject-07,1,648,0.786552906036377,boat,boat,0,0648_s5n_s07_0_boat_00_boat1-car2.png
subject-07,1,649,0.684691905975342,boat,bottle,0,0649_s5n_s07_0_bottle_00_bottle2-chair3.png
subject-07,1,650,0.884298086166382,truck,truck,0,0650_s5n_s07_0_truck_00_truck2-boat3.png
subject-07,1,651,0.838181018829346,airplane,airplane,0,0651_s5n_s07_0_airplane_00_airplane9-airplane2.png
subject-07,1,652,1.05112195014954,knife,knife,0,0652_s5n_s07_0_knife_00_knife4-cat2.png
subject-07,1,653,0.828712940216064,bottle,bottle,0,0653_s5n_s07_0_bottle_00_bottle5-clock3.png
subject-07,1,654,0.974754810333252,airplane,airplane,0,0654_s5n_s07_0_airplane_00_airplane2-bicycle1.png
subject-07,1,655,0.674134016036987,clock,clock,0,0655_s5n_s07_0_clock_00_clock4-car2.png
subject-07,1,656,0.698302030563354,bear,bear,0,0656_s5n_s07_0_bear_00_bear4-truck3.png
subject-07,1,657,0.859467029571533,boat,boat,0,0657_s5n_s07_0_boat_00_boat9-knife2.png
subject-07,1,658,0.721330881118774,keyboard,keyboard,0,0658_s5n_s07_0_keyboard_00_keyboard5-bicycle1.png
subject-07,1,659,0.837650060653687,cat,bird,0,0659_s5n_s07_0_bird_00_bird3-bear3.png
subject-07,1,660,0.858795881271362,bear,bear,0,0660_s5n_s07_0_bear_00_bear4-knife1.png
subject-07,1,661,1.40512704849243,knife,knife,0,0661_s5n_s07_0_knife_00_knife10-dog1.png
subject-07,1,662,1.06115198135376,bicycle,cat,0,0662_s5n_s07_0_cat_00_cat4-keyboard2.png
subject-07,1,663,0.752231121063232,car,car,0,0663_s5n_s07_0_car_00_car6-truck3.png
subject-07,1,664,0.884933948516846,truck,truck,0,0664_s5n_s07_0_truck_00_truck3-oven2.png
subject-07,1,665,1.29836010932922,dog,bear,0,0665_s5n_s07_0_bear_00_bear7-truck1.png
subject-07,1,666,0.722597122192383,keyboard,keyboard,0,0666_s5n_s07_0_keyboard_00_keyboard9-airplane3.png
subject-07,1,667,0.884268045425415,dog,dog,0,0667_s5n_s07_0_dog_00_dog10-bottle1.png
subject-07,1,668,0.930572032928467,truck,truck,0,0668_s5n_s07_0_truck_00_truck3-car3.png
subject-07,1,669,1.05958294868469,truck,truck,0,0669_s5n_s07_0_truck_00_truck8-keyboard2.png
subject-07,1,670,0.737395048141479,bear,bear,0,0670_s5n_s07_0_bear_00_bear9-bottle2.png
subject-07,1,671,1.036954164505,keyboard,oven,0,0671_s5n_s07_0_oven_00_oven5-bird1.png
subject-07,1,672,0.814887046813965,clock,clock,0,0672_s5n_s07_0_clock_00_clock1-dog2.png
subject-07,1,673,1.05285215377808,truck,truck,0,0673_s5n_s07_0_truck_00_truck7-bear2.png
subject-07,1,674,0.700218915939331,chair,chair,0,0674_s5n_s07_0_chair_00_chair8-car1.png
subject-07,1,675,1.31388807296753,bicycle,bicycle,0,0675_s5n_s07_0_bicycle_00_bicycle1-elephant2.png
subject-07,1,676,1.16775393486023,car,car,0,0676_s5n_s07_0_car_00_car2-knife3.png
subject-07,1,677,0.575773954391479,clock,clock,0,0677_s5n_s07_0_clock_00_clock7-truck3.png
subject-07,1,678,0.983035802841187,boat,boat,0,0678_s5n_s07_0_boat_00_boat6-airplane2.png
subject-07,1,679,0.761388063430786,dog,dog,0,0679_s5n_s07_0_dog_00_dog9-chair2.png
subject-07,1,680,0.577484130859375,bear,bear,0,0680_s5n_s07_0_bear_00_bear2-car2.png
subject-07,1,681,0.58530592918396,chair,chair,0,0681_s5n_s07_0_chair_00_chair9-bear1.png
subject-07,1,682,1.07104301452637,bear,elephant,0,0682_s5n_s07_0_elephant_00_elephant10-elephant1.png
subject-07,1,683,0.642436981201172,clock,clock,0,0683_s5n_s07_0_clock_00_clock7-bottle2.png
subject-07,1,684,0.766029119491577,cat,bear,0,0684_s5n_s07_0_bear_00_bear6-bird2.png
subject-07,1,685,0.595570087432861,chair,chair,0,0685_s5n_s07_0_chair_00_chair10-car2.png
subject-07,1,686,1.18744301795959,knife,bottle,0,0686_s5n_s07_0_bottle_00_bottle1-keyboard3.png
subject-07,1,687,0.943163156509399,clock,airplane,0,0687_s5n_s07_0_airplane_00_airplane8-clock2.png
subject-07,1,688,0.848580837249756,cat,cat,0,0688_s5n_s07_0_cat_00_cat1-chair2.png
subject-07,1,689,1.00093984603882,bicycle,bicycle,0,0689_s5n_s07_0_bicycle_00_bicycle9-bear1.png
subject-07,1,690,0.954825162887573,cat,cat,0,0690_s5n_s07_0_cat_00_cat4-truck3.png
subject-07,1,691,0.91703200340271,knife,knife,0,0691_s5n_s07_0_knife_00_knife3-bear2.png
subject-07,1,692,0.952651977539062,bicycle,airplane,0,0692_s5n_s07_0_airplane_00_airplane3-cat1.png
subject-07,1,693,0.687594175338745,bicycle,bicycle,0,0693_s5n_s07_0_bicycle_00_bicycle1-bottle3.png
subject-07,1,694,0.657602071762085,cat,cat,0,0694_s5n_s07_0_cat_00_cat1-cat3.png
subject-07,1,695,1.09760499000549,bird,dog,0,0695_s5n_s07_0_dog_00_dog7-keyboard3.png
subject-07,1,696,0.889889001846313,knife,knife,0,0696_s5n_s07_0_knife_00_knife2-cat3.png
subject-07,1,697,0.697661161422729,elephant,elephant,0,0697_s5n_s07_0_elephant_00_elephant8-dog1.png
subject-07,1,698,0.920866012573242,oven,oven,0,0698_s5n_s07_0_oven_00_oven10-boat2.png
subject-07,1,699,0.88363790512085,oven,oven,0,0699_s5n_s07_0_oven_00_oven9-keyboard1.png
subject-07,1,700,0.887441873550415,bottle,bottle,0,0700_s5n_s07_0_bottle_00_bottle9-car3.png
subject-07,1,701,1.216383934021,dog,dog,0,0701_s5n_s07_0_dog_00_dog1-chair1.png
subject-07,1,702,0.75636100769043,bottle,bottle,0,0702_s5n_s07_0_bottle_00_bottle9-cat2.png
subject-07,1,703,0.862054109573364,elephant,elephant,0,0703_s5n_s07_0_elephant_00_elephant7-airplane3.png
subject-07,1,704,0.780467987060547,bottle,bottle,0,0704_s5n_s07_0_bottle_00_bottle3-bear2.png
subject-07,1,705,1.01100301742554,dog,elephant,0,0705_s5n_s07_0_elephant_00_elephant2-keyboard3.png
subject-07,1,706,0.832083940505981,bird,boat,0,0706_s5n_s07_0_boat_00_boat6-bicycle2.png
subject-07,1,707,0.993380069732666,bicycle,bicycle,0,0707_s5n_s07_0_bicycle_00_bicycle4-bicycle3.png
subject-07,1,708,0.808725833892822,dog,dog,0,0708_s5n_s07_0_dog_00_dog5-knife2.png
subject-07,1,709,0.678831100463867,bottle,bottle,0,0709_s5n_s07_0_bottle_00_bottle10-boat3.png
subject-07,1,710,0.808077812194824,dog,dog,0,0710_s5n_s07_0_dog_00_dog10-oven2.png
subject-07,1,711,0.899228811264038,dog,dog,0,0711_s5n_s07_0_dog_00_dog10-airplane1.png
subject-07,1,712,0.828835964202881,keyboard,keyboard,0,0712_s5n_s07_0_keyboard_00_keyboard9-boat2.png
subject-07,1,713,0.790261030197144,dog,dog,0,0713_s5n_s07_0_dog_00_dog10-keyboard2.png
subject-07,1,714,1.00603199005127,dog,dog,0,0714_s5n_s07_0_dog_00_dog4-bird1.png
subject-07,1,715,0.730059146881104,bottle,bottle,0,0715_s5n_s07_0_bottle_00_bottle2-clock1.png
subject-07,1,716,0.791352033615112,car,car,0,0716_s5n_s07_0_car_00_car9-bicycle2.png
subject-07,1,717,1.2587628364563,car,car,0,0717_s5n_s07_0_car_00_car8-chair1.png
subject-07,1,718,0.782328128814697,bottle,bottle,0,0718_s5n_s07_0_bottle_00_bottle4-bicycle1.png
subject-07,1,719,0.941839933395386,knife,knife,0,0719_s5n_s07_0_knife_00_knife2-dog1.png
subject-07,1,720,0.781682014465332,bird,bird,0,0720_s5n_s07_0_bird_00_bird5-chair1.png
subject-07,1,721,1.3268039226532,truck,truck,0,0721_s5n_s07_0_truck_00_truck2-car3.png
subject-07,1,722,0.988908052444458,truck,cat,0,0722_s5n_s07_0_cat_00_cat10-oven2.png
subject-07,1,723,0.966707944869995,oven,oven,0,0723_s5n_s07_0_oven_00_oven3-elephant3.png
subject-07,1,724,0.666055917739868,dog,dog,0,0724_s5n_s07_0_dog_00_dog3-bird2.png
subject-07,1,725,0.65035605430603,oven,keyboard,0,0725_s5n_s07_0_keyboard_00_keyboard7-dog1.png
subject-07,1,726,0.819740772247314,keyboard,keyboard,0,0726_s5n_s07_0_keyboard_00_keyboard3-cat1.png
subject-07,1,727,0.986937046051025,boat,boat,0,0727_s5n_s07_0_boat_00_boat5-clock3.png
subject-07,1,728,0.9515700340271,truck,truck,0,0728_s5n_s07_0_truck_00_truck5-keyboard1.png
subject-07,1,729,0.796223878860474,clock,clock,0,0729_s5n_s07_0_clock_00_clock10-oven2.png
subject-07,1,730,1.11758708953857,truck,cat,0,0730_s5n_s07_0_cat_00_cat3-truck3.png
subject-07,1,731,1.10165405273438,knife,knife,0,0731_s5n_s07_0_knife_00_knife6-bicycle1.png
subject-07,1,732,0.769493818283081,oven,oven,0,0732_s5n_s07_0_oven_00_oven9-chair1.png
subject-07,1,733,0.807509899139404,chair,chair,0,0733_s5n_s07_0_chair_00_chair3-knife1.png
subject-07,1,734,0.991216897964478,knife,knife,0,0734_s5n_s07_0_knife_00_knife7-elephant2.png
subject-07,1,735,0.937122106552124,elephant,elephant,0,0735_s5n_s07_0_elephant_00_elephant8-clock2.png
subject-07,1,736,0.945019960403442,truck,truck,0,0736_s5n_s07_0_truck_00_truck7-truck2.png
subject-07,1,737,0.884740829467773,bottle,bottle,0,0737_s5n_s07_0_bottle_00_bottle4-airplane1.png
subject-07,1,738,0.922637939453125,keyboard,keyboard,0,0738_s5n_s07_0_keyboard_00_keyboard5-airplane3.png
subject-07,1,739,0.768438100814819,cat,cat,0,0739_s5n_s07_0_cat_00_cat10-bear1.png
subject-07,1,740,0.808748960494995,knife,bird,0,0740_s5n_s07_0_bird_00_bird4-airplane1.png
subject-07,1,741,1.24614405632019,dog,dog,0,0741_s5n_s07_0_dog_00_dog6-cat1.png
subject-07,1,742,0.86153507232666,dog,elephant,0,0742_s5n_s07_0_elephant_00_elephant6-dog2.png
subject-07,1,743,0.937287092208862,oven,chair,0,0743_s5n_s07_0_chair_00_chair4-keyboard2.png
subject-07,1,744,0.920522928237915,keyboard,keyboard,0,0744_s5n_s07_0_keyboard_00_keyboard8-cat3.png
subject-07,1,745,1.07428097724915,bird,bird,0,0745_s5n_s07_0_bird_00_bird7-oven3.png
subject-07,1,746,0.852100133895874,chair,chair,0,0746_s5n_s07_0_chair_00_chair5-bottle3.png
subject-07,1,747,0.85185694694519,clock,clock,0,0747_s5n_s07_0_clock_00_clock6-clock2.png
subject-07,1,748,1.02208113670349,truck,truck,0,0748_s5n_s07_0_truck_00_truck9-chair3.png
subject-07,1,749,0.867685079574585,bird,bird,0,0749_s5n_s07_0_bird_00_bird1-airplane2.png
subject-07,1,750,0.781729221343994,bicycle,bicycle,0,0750_s5n_s07_0_bicycle_00_bicycle4-knife3.png
subject-07,1,751,0.673135995864868,oven,oven,0,0751_s5n_s07_0_oven_00_oven10-cat2.png
subject-07,1,752,0.826872110366821,bicycle,bicycle,0,0752_s5n_s07_0_bicycle_00_bicycle4-keyboard3.png
subject-07,1,753,1.24974989891052,bicycle,bicycle,0,0753_s5n_s07_0_bicycle_00_bicycle7-elephant2.png
subject-07,1,754,0.919564962387085,keyboard,keyboard,0,0754_s5n_s07_0_keyboard_00_keyboard3-bird3.png
subject-07,1,755,1.36318111419678,chair,chair,0,0755_s5n_s07_0_chair_00_chair1-dog1.png
subject-07,1,756,NaN,na,oven,0,0756_s5n_s07_0_oven_00_oven1-clock3.png
subject-07,1,757,1.09959506988525,knife,boat,0,0757_s5n_s07_0_boat_00_boat8-elephant1.png
subject-07,1,758,0.645120859146118,clock,clock,0,0758_s5n_s07_0_clock_00_clock3-cat1.png
subject-07,1,759,0.930092096328735,bird,boat,0,0759_s5n_s07_0_boat_00_boat6-bottle2.png
subject-07,1,760,0.843860149383545,truck,truck,0,0760_s5n_s07_0_truck_00_truck5-bird2.png
subject-07,1,761,0.889605045318604,car,car,0,0761_s5n_s07_0_car_00_car9-keyboard2.png
subject-07,1,762,0.935126781463623,elephant,elephant,0,0762_s5n_s07_0_elephant_00_elephant9-bicycle2.png
subject-07,1,763,0.842623949050903,chair,boat,0,0763_s5n_s07_0_boat_00_boat3-chair3.png
subject-07,1,764,0.890699148178101,knife,knife,0,0764_s5n_s07_0_knife_00_knife5-keyboard3.png
subject-07,1,765,0.944470882415771,clock,clock,0,0765_s5n_s07_0_clock_00_clock7-keyboard2.png
subject-07,1,766,0.982279062271118,keyboard,cat,0,0766_s5n_s07_0_cat_00_cat9-bottle2.png
subject-07,1,767,0.738614082336426,boat,boat,0,0767_s5n_s07_0_boat_00_boat7-oven3.png
subject-07,1,768,0.792813777923584,keyboard,keyboard,0,0768_s5n_s07_0_keyboard_00_keyboard3-car2.png
subject-07,1,769,0.844453811645508,boat,cat,0,0769_s5n_s07_0_cat_00_cat9-boat2.png
subject-07,1,770,0.552466154098511,boat,boat,0,0770_s5n_s07_0_boat_00_boat4-knife2.png
subject-07,1,771,0.82207202911377,cat,cat,0,0771_s5n_s07_0_cat_00_cat5-car2.png
subject-07,1,772,0.759576082229614,bicycle,bicycle,0,0772_s5n_s07_0_bicycle_00_bicycle9-bird3.png
subject-07,1,773,0.742959022521973,clock,clock,0,0773_s5n_s07_0_clock_00_clock5-bicycle1.png
subject-07,1,774,0.750711917877197,cat,cat,0,0774_s5n_s07_0_cat_00_cat5-keyboard3.png
subject-07,1,775,0.950032949447632,keyboard,keyboard,0,0775_s5n_s07_0_keyboard_00_keyboard6-bicycle1.png
subject-07,1,776,0.927942037582397,dog,dog,0,0776_s5n_s07_0_dog_00_dog4-airplane3.png
subject-07,1,777,0.698022127151489,cat,cat,0,0777_s5n_s07_0_cat_00_cat4-clock2.png
subject-07,1,778,0.764461994171143,cat,bear,0,0778_s5n_s07_0_bear_00_bear10-truck1.png
subject-07,1,779,0.90208101272583,chair,chair,0,0779_s5n_s07_0_chair_00_chair9-bird3.png
subject-07,1,780,0.741934061050415,cat,cat,0,0780_s5n_s07_0_cat_00_cat3-bicycle1.png
subject-07,1,781,1.00983905792236,bottle,bottle,0,0781_s5n_s07_0_bottle_00_bottle3-airplane2.png
subject-07,1,782,1.04107594490051,bird,boat,0,0782_s5n_s07_0_boat_00_boat6-knife2.png
subject-07,1,783,1.24048805236816,knife,knife,0,0783_s5n_s07_0_knife_00_knife3-knife1.png
subject-07,1,784,1.24936199188232,boat,car,0,0784_s5n_s07_0_car_00_car9-bird1.png
subject-07,1,785,0.678656816482544,bicycle,bicycle,0,0785_s5n_s07_0_bicycle_00_bicycle9-bottle1.png
subject-07,1,786,0.671803951263428,bicycle,bicycle,0,0786_s5n_s07_0_bicycle_00_bicycle1-knife3.png
subject-07,1,787,0.963387966156006,knife,knife,0,0787_s5n_s07_0_knife_00_knife1-bird2.png
subject-07,1,788,1.11746406555176,car,car,0,0788_s5n_s07_0_car_00_car1-airplane1.png
subject-07,1,789,0.917582035064697,clock,clock,0,0789_s5n_s07_0_clock_00_clock2-dog1.png
subject-07,1,790,0.695062875747681,bottle,bottle,0,0790_s5n_s07_0_bottle_00_bottle1-chair2.png
subject-07,1,791,1.23293423652649,dog,bird,0,0791_s5n_s07_0_bird_00_bird7-keyboard3.png
subject-07,1,792,1.17894911766052,dog,bear,0,0792_s5n_s07_0_bear_00_bear7-oven3.png
subject-07,1,793,1.29983282089233,bottle,bottle,0,0793_s5n_s07_0_bottle_00_bottle5-keyboard2.png
subject-07,1,794,0.815474033355713,chair,oven,0,0794_s5n_s07_0_oven_00_oven7-elephant1.png
subject-07,1,795,0.976947069168091,elephant,elephant,0,0795_s5n_s07_0_elephant_00_elephant8-bird2.png
subject-07,1,796,0.70108699798584,bottle,bottle,0,0796_s5n_s07_0_bottle_00_bottle8-bird1.png
subject-07,1,797,0.8090500831604,chair,oven,0,0797_s5n_s07_0_oven_00_oven6-bear2.png
subject-07,1,798,0.762580871582031,cat,cat,0,0798_s5n_s07_0_cat_00_cat5-airplane2.png
subject-07,1,799,1.19187498092651,car,car,0,0799_s5n_s07_0_car_00_car4-bear3.png
subject-07,1,800,0.769773006439209,airplane,airplane,0,0800_s5n_s07_0_airplane_00_airplane3-oven1.png
subject-07,1,801,0.915521860122681,boat,truck,0,0801_s5n_s07_0_truck_00_truck9-boat3.png
subject-07,1,802,0.737044095993042,boat,boat,0,0802_s5n_s07_0_boat_00_boat5-boat3.png
subject-07,1,803,0.907177925109863,truck,truck,0,0803_s5n_s07_0_truck_00_truck5-truck1.png
subject-07,1,804,0.852215051651001,oven,oven,0,0804_s5n_s07_0_oven_00_oven4-elephant3.png
subject-07,1,805,0.921512842178345,truck,truck,0,0805_s5n_s07_0_truck_00_truck3-chair2.png
subject-07,1,806,NaN,na,elephant,0,0806_s5n_s07_0_elephant_00_elephant7-keyboard3.png
subject-07,1,807,0.682764053344727,car,car,0,0807_s5n_s07_0_car_00_car7-bear1.png
subject-07,1,808,0.728945016860962,car,car,0,0808_s5n_s07_0_car_00_car8-bear1.png
subject-07,1,809,1.18586611747742,car,bird,0,0809_s5n_s07_0_bird_00_bird1-chair2.png
subject-07,1,810,0.869018077850342,bottle,bottle,0,0810_s5n_s07_0_bottle_00_bottle9-truck1.png
subject-07,1,811,1.18496012687683,truck,truck,0,0811_s5n_s07_0_truck_00_truck6-truck2.png
subject-07,1,812,0.777039051055908,cat,cat,0,0812_s5n_s07_0_cat_00_cat3-cat1.png
subject-07,1,813,0.814144134521484,chair,boat,0,0813_s5n_s07_0_boat_00_boat7-chair1.png
subject-07,1,814,0.86773681640625,bottle,bottle,0,0814_s5n_s07_0_bottle_00_bottle4-dog2.png
subject-07,1,815,1.08891201019287,chair,oven,0,0815_s5n_s07_0_oven_00_oven6-bicycle1.png
subject-07,1,816,1.02903509140015,elephant,elephant,0,0816_s5n_s07_0_elephant_00_elephant9-elephant3.png
subject-07,1,817,0.606933832168579,bottle,bottle,0,0817_s5n_s07_0_bottle_00_bottle6-bicycle3.png
subject-07,1,818,1.20695996284485,elephant,bird,0,0818_s5n_s07_0_bird_00_bird10-cat1.png
subject-07,1,819,0.760442972183228,cat,cat,0,0819_s5n_s07_0_cat_00_cat4-airplane1.png
subject-07,1,820,0.851401090621948,airplane,airplane,0,0820_s5n_s07_0_airplane_00_airplane7-airplane3.png
subject-07,1,821,0.820467948913574,knife,knife,0,0821_s5n_s07_0_knife_00_knife5-knife3.png
subject-07,1,822,1.2805118560791,bird,bird,0,0822_s5n_s07_0_bird_00_bird4-cat3.png
subject-07,1,823,0.959342002868652,bird,bird,0,0823_s5n_s07_0_bird_00_bird9-chair1.png
subject-07,1,824,0.829123020172119,bottle,bottle,0,0824_s5n_s07_0_bottle_00_bottle6-knife3.png
subject-07,1,825,0.82296085357666,cat,airplane,0,0825_s5n_s07_0_airplane_00_airplane2-bear1.png
subject-07,1,826,1.05249404907227,knife,knife,0,0826_s5n_s07_0_knife_00_knife5-oven2.png
subject-07,1,827,0.984634160995483,chair,knife,0,0827_s5n_s07_0_knife_00_knife9-chair1.png
subject-07,1,828,0.854363203048706,knife,boat,0,0828_s5n_s07_0_boat_00_boat1-keyboard3.png
subject-07,1,829,1.12126684188843,bicycle,bicycle,0,0829_s5n_s07_0_bicycle_00_bicycle10-elephant2.png
subject-07,1,830,0.952991962432861,dog,dog,0,0830_s5n_s07_0_dog_00_dog5-oven1.png
subject-07,1,831,0.790825128555298,chair,chair,0,0831_s5n_s07_0_chair_00_chair5-oven2.png
subject-07,1,832,1.16860890388489,chair,cat,0,0832_s5n_s07_0_cat_00_cat10-keyboard1.png
subject-07,1,833,1.13617300987244,knife,knife,0,0833_s5n_s07_0_knife_00_knife9-airplane2.png
subject-07,1,834,0.830050945281982,bicycle,bicycle,0,0834_s5n_s07_0_bicycle_00_bicycle7-bicycle2.png
subject-07,1,835,1.5004448890686,car,car,0,0835_s5n_s07_0_car_00_car6-elephant3.png
subject-07,1,836,0.650838851928711,chair,oven,0,0836_s5n_s07_0_oven_00_oven7-cat1.png
subject-07,1,837,0.737221002578735,bicycle,bicycle,0,0837_s5n_s07_0_bicycle_00_bicycle7-bear2.png
subject-07,1,838,1.24498105049133,elephant,elephant,0,0838_s5n_s07_0_elephant_00_elephant10-bear1.png
subject-07,1,839,0.906463861465454,elephant,elephant,0,0839_s5n_s07_0_elephant_00_elephant1-bear2.png
subject-07,1,840,1.00653505325317,bicycle,bicycle,0,0840_s5n_s07_0_bicycle_00_bicycle5-keyboard3.png
subject-07,1,841,0.754324913024902,oven,oven,0,0841_s5n_s07_0_oven_00_oven9-oven1.png
subject-07,1,842,0.829899072647095,chair,chair,0,0842_s5n_s07_0_chair_00_chair7-boat3.png
subject-07,1,843,0.853386163711548,bottle,bottle,0,0843_s5n_s07_0_bottle_00_bottle6-oven3.png
subject-07,1,844,0.860781908035278,chair,chair,0,0844_s5n_s07_0_chair_00_chair4-cat2.png
subject-07,1,845,1.0688099861145,bird,bird,0,0845_s5n_s07_0_bird_00_bird6-oven1.png
subject-07,1,846,1.00089192390442,truck,truck,0,0846_s5n_s07_0_truck_00_truck6-knife2.png
subject-07,1,847,0.816775798797607,oven,boat,0,0847_s5n_s07_0_boat_00_boat4-bird1.png
subject-07,1,848,0.830265998840332,car,car,0,0848_s5n_s07_0_car_00_car3-truck1.png
subject-07,1,849,0.878967046737671,airplane,airplane,0,0849_s5n_s07_0_airplane_00_airplane9-boat1.png
subject-07,1,850,1.01657104492188,airplane,airplane,0,0850_s5n_s07_0_airplane_00_airplane5-knife1.png
subject-07,1,851,0.669405937194824,cat,cat,0,0851_s5n_s07_0_cat_00_cat10-clock1.png
subject-07,1,852,1.19378304481506,dog,bear,0,0852_s5n_s07_0_bear_00_bear5-bird1.png
subject-07,1,853,1.31510186195374,bird,bird,0,0853_s5n_s07_0_bird_00_bird6-boat2.png
subject-07,1,854,0.67975902557373,bicycle,bicycle,0,0854_s5n_s07_0_bicycle_00_bicycle6-bicycle3.png
subject-07,1,855,0.762585163116455,bird,bird,0,0855_s5n_s07_0_bird_00_bird9-bottle3.png
subject-07,1,856,1.18618392944336,boat,keyboard,0,0856_s5n_s07_0_keyboard_00_keyboard1-car3.png
subject-07,1,857,0.6146080493927,oven,oven,0,0857_s5n_s07_0_oven_00_oven2-bear3.png
subject-07,1,858,1.00160694122314,bird,bird,0,0858_s5n_s07_0_bird_00_bird6-airplane2.png
subject-07,1,859,0.700425863265991,cat,cat,0,0859_s5n_s07_0_cat_00_cat2-boat2.png
subject-07,1,860,0.8383629322052,bird,bird,0,0860_s5n_s07_0_bird_00_bird8-boat3.png
subject-07,1,861,1.208172082901,car,car,0,0861_s5n_s07_0_car_00_car2-chair1.png
subject-07,1,862,0.624452829360962,oven,oven,0,0862_s5n_s07_0_oven_00_oven5-dog3.png
subject-07,1,863,0.923313856124878,clock,clock,0,0863_s5n_s07_0_clock_00_clock9-cat1.png
subject-07,1,864,1.14526391029358,airplane,airplane,0,0864_s5n_s07_0_airplane_00_airplane10-dog3.png
subject-07,1,865,0.815428972244263,airplane,airplane,0,0865_s5n_s07_0_airplane_00_airplane9-clock1.png
subject-07,1,866,0.850130081176758,airplane,boat,0,0866_s5n_s07_0_boat_00_boat2-bird1.png
subject-07,1,867,1.37212610244751,bear,dog,0,0867_s5n_s07_0_dog_00_dog3-elephant2.png
subject-07,1,868,0.703853845596313,bicycle,bicycle,0,0868_s5n_s07_0_bicycle_00_bicycle7-knife2.png
subject-07,1,869,1.14225196838379,boat,bear,0,0869_s5n_s07_0_bear_00_bear10-knife2.png
subject-07,1,870,0.940814018249512,bicycle,bicycle,0,0870_s5n_s07_0_bicycle_00_bicycle1-clock3.png
subject-07,1,871,1.1266131401062,oven,oven,0,0871_s5n_s07_0_oven_00_oven6-truck1.png
subject-07,1,872,1.03152799606323,bird,bird,0,0872_s5n_s07_0_bird_00_bird10-bicycle1.png
subject-07,1,873,0.885362863540649,airplane,airplane,0,0873_s5n_s07_0_airplane_00_airplane10-boat3.png
subject-07,1,874,0.795145034790039,dog,dog,0,0874_s5n_s07_0_dog_00_dog9-airplane3.png
subject-07,1,875,0.832573890686035,chair,chair,0,0875_s5n_s07_0_chair_00_chair1-cat3.png
subject-07,1,876,0.978765964508057,airplane,airplane,0,0876_s5n_s07_0_airplane_00_airplane9-knife3.png
subject-07,1,877,1.14095401763916,dog,bottle,0,0877_s5n_s07_0_bottle_00_bottle7-bear1.png
subject-07,1,878,0.934783935546875,bicycle,bicycle,0,0878_s5n_s07_0_bicycle_00_bicycle10-clock2.png
subject-07,1,879,0.588402986526489,bottle,bottle,0,0879_s5n_s07_0_bottle_00_bottle7-boat3.png
subject-07,1,880,0.810119867324829,bicycle,bicycle,0,0880_s5n_s07_0_bicycle_00_bicycle5-bottle3.png
subject-07,1,881,0.979510068893433,oven,boat,0,0881_s5n_s07_0_boat_00_boat3-airplane2.png
subject-07,1,882,0.865639925003052,cat,bird,0,0882_s5n_s07_0_bird_00_bird1-bicycle2.png
subject-07,1,883,1.06523203849792,keyboard,keyboard,0,0883_s5n_s07_0_keyboard_00_keyboard8-truck3.png
subject-07,1,884,1.08102011680603,elephant,elephant,0,0884_s5n_s07_0_elephant_00_elephant4-chair3.png
subject-07,1,885,1.05644512176514,truck,truck,0,0885_s5n_s07_0_truck_00_truck1-bicycle3.png
subject-07,1,886,0.90998911857605,cat,cat,0,0886_s5n_s07_0_cat_00_cat1-bird1.png
subject-07,1,887,0.778846979141235,boat,boat,0,0887_s5n_s07_0_boat_00_boat9-airplane2.png
subject-07,1,888,1.06351804733276,chair,chair,0,0888_s5n_s07_0_chair_00_chair10-clock1.png
subject-07,1,889,0.864502906799316,clock,clock,0,0889_s5n_s07_0_clock_00_clock2-bottle3.png
subject-07,1,890,0.832322120666504,oven,knife,0,0890_s5n_s07_0_knife_00_knife3-keyboard3.png
subject-07,1,891,0.672599077224731,boat,boat,0,0891_s5n_s07_0_boat_00_boat9-keyboard2.png
subject-07,1,892,0.710537910461426,cat,cat,0,0892_s5n_s07_0_cat_00_cat2-knife3.png
subject-07,1,893,0.834350109100342,bird,bird,0,0893_s5n_s07_0_bird_00_bird9-elephant2.png
subject-07,1,894,0.736840009689331,keyboard,keyboard,0,0894_s5n_s07_0_keyboard_00_keyboard10-car1.png
subject-07,1,895,0.83516001701355,airplane,cat,0,0895_s5n_s07_0_cat_00_cat9-cat3.png
subject-07,1,896,1.18884587287903,keyboard,keyboard,0,0896_s5n_s07_0_keyboard_00_keyboard2-knife1.png
subject-07,1,897,0.822088003158569,bottle,bottle,0,0897_s5n_s07_0_bottle_00_bottle5-airplane1.png
subject-07,1,898,1.17587113380432,chair,oven,0,0898_s5n_s07_0_oven_00_oven6-airplane3.png
subject-07,1,899,1.00543212890625,bear,bear,0,0899_s5n_s07_0_bear_00_bear2-elephant1.png
subject-07,1,900,0.803759098052979,boat,boat,0,0900_s5n_s07_0_boat_00_boat5-knife2.png
subject-07,1,901,1.13305997848511,bird,cat,0,0901_s5n_s07_0_cat_00_cat4-knife1.png
subject-07,1,902,0.734679937362671,cat,cat,0,0902_s5n_s07_0_cat_00_cat8-bicycle3.png
subject-07,1,903,0.82666802406311,truck,truck,0,0903_s5n_s07_0_truck_00_truck9-truck3.png
subject-07,1,904,1.00432682037354,elephant,boat,0,0904_s5n_s07_0_boat_00_boat7-boat2.png
subject-07,1,905,0.6423659324646,truck,truck,0,0905_s5n_s07_0_truck_00_truck3-bicycle1.png
subject-07,1,906,0.849968910217285,dog,dog,0,0906_s5n_s07_0_dog_00_dog9-bear3.png
subject-07,1,907,0.979952812194824,truck,truck,0,0907_s5n_s07_0_truck_00_truck10-elephant3.png
subject-07,1,908,1.08196997642517,truck,truck,0,0908_s5n_s07_0_truck_00_truck6-dog2.png
subject-07,1,909,0.690420866012573,car,car,0,0909_s5n_s07_0_car_00_car3-boat1.png
subject-07,1,910,1.29812502861023,truck,truck,0,0910_s5n_s07_0_truck_00_truck3-cat1.png
subject-07,1,911,0.621779918670654,chair,chair,0,0911_s5n_s07_0_chair_00_chair5-car1.png
subject-07,1,912,0.791555166244507,bicycle,bicycle,0,0912_s5n_s07_0_bicycle_00_bicycle6-dog2.png
subject-07,1,913,0.95927095413208,dog,elephant,0,0913_s5n_s07_0_elephant_00_elephant2-bear3.png
subject-07,1,914,0.874572038650513,cat,cat,0,0914_s5n_s07_0_cat_00_cat5-boat1.png
subject-07,1,915,0.623159170150757,oven,oven,0,0915_s5n_s07_0_oven_00_oven2-car1.png
subject-07,1,916,0.831082105636597,dog,dog,0,0916_s5n_s07_0_dog_00_dog4-chair1.png
subject-07,1,917,0.884791135787964,elephant,elephant,0,0917_s5n_s07_0_elephant_00_elephant8-elephant1.png
subject-07,1,918,1.47655296325684,bottle,bottle,0,0918_s5n_s07_0_bottle_00_bottle6-chair2.png
subject-07,1,919,1.23925089836121,elephant,bird,0,0919_s5n_s07_0_bird_00_bird3-knife3.png
subject-07,1,920,0.856137037277222,airplane,airplane,0,0920_s5n_s07_0_airplane_00_airplane4-dog2.png
subject-07,1,921,0.871347188949585,dog,dog,0,0921_s5n_s07_0_dog_00_dog6-elephant2.png
subject-07,1,922,0.855298042297363,oven,oven,0,0922_s5n_s07_0_oven_00_oven1-cat1.png
subject-07,1,923,0.733209133148193,dog,dog,0,0923_s5n_s07_0_dog_00_dog3-knife3.png
subject-07,1,924,0.692292928695679,keyboard,keyboard,0,0924_s5n_s07_0_keyboard_00_keyboard10-airplane3.png
subject-07,1,925,0.88559889793396,car,car,0,0925_s5n_s07_0_car_00_car7-car1.png
subject-07,1,926,1.0074679851532,chair,chair,0,0926_s5n_s07_0_chair_00_chair4-oven2.png
subject-07,1,927,0.79063081741333,cat,cat,0,0927_s5n_s07_0_cat_00_cat7-elephant1.png
subject-07,1,928,0.705628156661987,keyboard,keyboard,0,0928_s5n_s07_0_keyboard_00_keyboard7-car3.png
subject-07,1,929,0.859448909759521,chair,chair,0,0929_s5n_s07_0_chair_00_chair8-elephant1.png
subject-07,1,930,0.837708950042725,dog,elephant,0,0930_s5n_s07_0_elephant_00_elephant2-clock1.png
subject-07,1,931,1.14261913299561,bottle,bottle,0,0931_s5n_s07_0_bottle_00_bottle4-car3.png
subject-07,1,932,0.967195987701416,chair,keyboard,0,0932_s5n_s07_0_keyboard_00_keyboard9-elephant2.png
subject-07,1,933,0.745025157928467,chair,chair,0,0933_s5n_s07_0_chair_00_chair8-boat1.png
subject-07,1,934,1.29855990409851,bicycle,bicycle,0,0934_s5n_s07_0_bicycle_00_bicycle4-cat1.png
subject-07,1,935,0.667871952056885,clock,clock,0,0935_s5n_s07_0_clock_00_clock4-oven1.png
subject-07,1,936,0.930156946182251,bear,bear,0,0936_s5n_s07_0_bear_00_bear1-clock2.png
subject-07,1,937,0.883766889572144,airplane,airplane,0,0937_s5n_s07_0_airplane_00_airplane7-bird3.png
subject-07,1,938,0.983199119567871,airplane,boat,0,0938_s5n_s07_0_boat_00_boat8-dog3.png
subject-07,1,939,0.906699895858765,dog,dog,0,0939_s5n_s07_0_dog_00_dog10-bicycle1.png
subject-07,1,940,1.34399700164795,airplane,knife,0,0940_s5n_s07_0_knife_00_knife1-dog1.png
subject-07,1,941,1.35561203956604,knife,boat,0,0941_s5n_s07_0_boat_00_boat10-boat3.png
subject-07,1,942,1.02342987060547,chair,chair,0,0942_s5n_s07_0_chair_00_chair8-chair3.png
subject-07,1,943,0.792536973953247,oven,oven,0,0943_s5n_s07_0_oven_00_oven4-bicycle2.png
subject-07,1,944,0.83026909828186,knife,knife,0,0944_s5n_s07_0_knife_00_knife7-bird3.png
subject-07,1,945,1.37574911117554,keyboard,keyboard,0,0945_s5n_s07_0_keyboard_00_keyboard5-bottle1.png
subject-07,1,946,0.848979949951172,bear,elephant,0,0946_s5n_s07_0_elephant_00_elephant4-bird1.png
subject-07,1,947,0.785787105560303,bear,bear,0,0947_s5n_s07_0_bear_00_bear3-car2.png
subject-07,1,948,0.848019123077393,elephant,elephant,0,0948_s5n_s07_0_elephant_00_elephant1-boat2.png
subject-07,1,949,1.09470701217651,bear,bear,0,0949_s5n_s07_0_bear_00_bear4-elephant2.png
subject-07,1,950,1.50029802322388,bear,bear,0,0950_s5n_s07_0_bear_00_bear2-dog1.png
subject-07,1,951,1.42501997947693,elephant,elephant,0,0951_s5n_s07_0_elephant_00_elephant7-bird1.png
subject-07,1,952,0.787676095962524,bicycle,bicycle,0,0952_s5n_s07_0_bicycle_00_bicycle5-chair2.png
subject-07,1,953,0.988010883331299,oven,oven,0,0953_s5n_s07_0_oven_00_oven5-keyboard2.png
subject-07,1,954,0.719475984573364,car,car,0,0954_s5n_s07_0_car_00_car2-bird3.png
subject-07,1,955,1.28114795684814,knife,keyboard,0,0955_s5n_s07_0_keyboard_00_keyboard9-keyboard2.png
subject-07,1,956,1.18063378334045,truck,truck,0,0956_s5n_s07_0_truck_00_truck5-dog3.png
subject-07,1,957,1.29358196258545,knife,knife,0,0957_s5n_s07_0_knife_00_knife5-cat2.png
subject-07,1,958,0.763485908508301,airplane,airplane,0,0958_s5n_s07_0_airplane_00_airplane4-knife1.png
subject-07,1,959,0.876621007919312,dog,dog,0,0959_s5n_s07_0_dog_00_dog9-cat1.png
subject-07,1,960,1.17631006240845,cat,cat,0,0960_s5n_s07_0_cat_00_cat9-clock2.png
subject-07,1,961,0.686867952346802,bird,bird,0,0961_s5n_s07_0_bird_00_bird5-dog2.png
subject-07,1,962,1.00838494300842,bottle,bottle,0,0962_s5n_s07_0_bottle_00_bottle8-elephant3.png
subject-07,1,963,1.10723996162415,chair,chair,0,0963_s5n_s07_0_chair_00_chair10-dog1.png
subject-07,1,964,1.1238911151886,dog,dog,0,0964_s5n_s07_0_dog_00_dog8-bear3.png
subject-07,1,965,0.871466159820557,chair,chair,0,0965_s5n_s07_0_chair_00_chair6-dog1.png
subject-07,1,966,1.29323387145996,bottle,bottle,0,0966_s5n_s07_0_bottle_00_bottle2-elephant1.png
subject-07,1,967,0.816811084747314,bear,bear,0,0967_s5n_s07_0_bear_00_bear1-airplane3.png
subject-07,1,968,NaN,na,bear,0,0968_s5n_s07_0_bear_00_bear3-dog3.png
subject-07,1,969,0.692401885986328,bear,bear,0,0969_s5n_s07_0_bear_00_bear7-dog3.png
subject-07,1,970,1.17025303840637,dog,dog,0,0970_s5n_s07_0_dog_00_dog8-oven3.png
subject-07,1,971,1.05399084091187,bird,boat,0,0971_s5n_s07_0_boat_00_boat6-bear1.png
subject-07,1,972,0.802325963973999,oven,oven,0,0972_s5n_s07_0_oven_00_oven9-airplane2.png
subject-07,1,973,0.839241027832031,chair,chair,0,0973_s5n_s07_0_chair_00_chair4-truck2.png
subject-07,1,974,0.700693845748901,cat,cat,0,0974_s5n_s07_0_cat_00_cat9-truck1.png
subject-07,1,975,0.760823011398315,bicycle,bicycle,0,0975_s5n_s07_0_bicycle_00_bicycle5-elephant1.png
subject-07,1,976,0.884291172027588,bird,bird,0,0976_s5n_s07_0_bird_00_bird1-boat1.png
subject-07,1,977,0.978760004043579,keyboard,keyboard,0,0977_s5n_s07_0_keyboard_00_keyboard4-oven2.png
subject-07,1,978,0.800415992736816,chair,chair,0,0978_s5n_s07_0_chair_00_chair3-dog2.png
subject-07,1,979,0.715973138809204,bird,bird,0,0979_s5n_s07_0_bird_00_bird1-clock3.png
subject-07,1,980,0.694356918334961,knife,knife,0,0980_s5n_s07_0_knife_00_knife8-car2.png
subject-07,1,981,1.23132801055908,airplane,airplane,0,0981_s5n_s07_0_airplane_00_airplane7-clock3.png
subject-07,1,982,0.684650182723999,bird,bird,0,0982_s5n_s07_0_bird_00_bird5-bear3.png
subject-07,1,983,0.73848295211792,knife,knife,0,0983_s5n_s07_0_knife_00_knife7-bottle3.png
subject-07,1,984,1.04692196846008,airplane,airplane,0,0984_s5n_s07_0_airplane_00_airplane2-bird3.png
subject-07,1,985,0.838155031204224,oven,oven,0,0985_s5n_s07_0_oven_00_oven2-bird2.png
subject-07,1,986,1.062824010849,truck,truck,0,0986_s5n_s07_0_truck_00_truck2-keyboard1.png
subject-07,1,987,0.960835933685303,keyboard,keyboard,0,0987_s5n_s07_0_keyboard_00_keyboard7-bear2.png
subject-07,1,988,0.544309854507446,clock,clock,0,0988_s5n_s07_0_clock_00_clock8-oven3.png
subject-07,1,989,1.26782488822937,chair,boat,0,0989_s5n_s07_0_boat_00_boat9-chair2.png
subject-07,1,990,0.927425861358643,bicycle,bicycle,0,0990_s5n_s07_0_bicycle_00_bicycle1-truck1.png
subject-07,1,991,1.14321184158325,knife,knife,0,0991_s5n_s07_0_knife_00_knife10-keyboard3.png
subject-07,1,992,0.983005046844482,knife,boat,0,0992_s5n_s07_0_boat_00_boat10-oven1.png
subject-07,1,993,0.736968994140625,elephant,elephant,0,0993_s5n_s07_0_elephant_00_elephant2-elephant3.png
subject-07,1,994,0.904485940933228,knife,knife,0,0994_s5n_s07_0_knife_00_knife2-elephant2.png
subject-07,1,995,1.04437804222107,cat,cat,0,0995_s5n_s07_0_cat_00_cat4-car2.png
subject-07,1,996,0.468020915985107,oven,oven,0,0996_s5n_s07_0_oven_00_oven3-bear2.png
subject-07,1,997,1.04352307319641,elephant,elephant,0,0997_s5n_s07_0_elephant_00_elephant6-knife2.png
subject-07,1,998,0.780855894088745,elephant,elephant,0,0998_s5n_s07_0_elephant_00_elephant7-clock2.png
subject-07,1,999,0.780999898910522,oven,oven,0,0999_s5n_s07_0_oven_00_oven4-keyboard3.png
subject-07,1,1000,0.703877210617065,chair,chair,0,1000_s5n_s07_0_chair_00_chair1-bear1.png
subject-07,1,1001,0.812095880508423,keyboard,keyboard,0,1001_s5n_s07_0_keyboard_00_keyboard2-bottle1.png
subject-07,1,1002,0.812515020370483,bear,bear,0,1002_s5n_s07_0_bear_00_bear2-cat2.png
subject-07,1,1003,0.61210298538208,bicycle,bicycle,0,1003_s5n_s07_0_bicycle_00_bicycle7-oven1.png
subject-07,1,1004,1.21427798271179,knife,knife,0,1004_s5n_s07_0_knife_00_knife7-airplane3.png
subject-07,1,1005,0.930564165115356,cat,dog,0,1005_s5n_s07_0_dog_00_dog1-knife3.png
subject-07,1,1006,1.09764409065247,truck,truck,0,1006_s5n_s07_0_truck_00_truck6-boat2.png
subject-07,1,1007,0.950832843780518,bear,elephant,0,1007_s5n_s07_0_elephant_00_elephant4-oven1.png
subject-07,1,1008,0.872453212738037,knife,boat,0,1008_s5n_s07_0_boat_00_boat8-truck2.png
subject-07,1,1009,0.796081066131592,bicycle,bicycle,0,1009_s5n_s07_0_bicycle_00_bicycle10-boat3.png
subject-07,1,1010,0.849651098251343,knife,knife,0,1010_s5n_s07_0_knife_00_knife1-clock2.png
subject-07,1,1011,1.18206405639648,cat,cat,0,1011_s5n_s07_0_cat_00_cat2-truck3.png
subject-07,1,1012,0.835128784179688,elephant,elephant,0,1012_s5n_s07_0_elephant_00_elephant2-truck2.png
subject-07,1,1013,0.718999862670898,bottle,bottle,0,1013_s5n_s07_0_bottle_00_bottle10-clock2.png
subject-07,1,1014,1.11921310424805,cat,bird,0,1014_s5n_s07_0_bird_00_bird3-dog1.png
subject-07,1,1015,0.612345218658447,oven,oven,0,1015_s5n_s07_0_oven_00_oven10-oven3.png
subject-07,1,1016,0.717367172241211,clock,clock,0,1016_s5n_s07_0_clock_00_clock10-boat2.png
subject-07,1,1017,0.740916967391968,oven,oven,0,1017_s5n_s07_0_oven_00_oven5-airplane1.png
subject-07,1,1018,0.679013967514038,bottle,bottle,0,1018_s5n_s07_0_bottle_00_bottle4-oven2.png
subject-07,1,1019,0.91853404045105,chair,elephant,0,1019_s5n_s07_0_elephant_00_elephant3-chair1.png
subject-07,1,1020,0.810394048690796,oven,oven,0,1020_s5n_s07_0_oven_00_oven10-airplane2.png
subject-07,1,1021,0.629077911376953,bottle,bottle,0,1021_s5n_s07_0_bottle_00_bottle6-bottle3.png
subject-07,1,1022,1.07233691215515,chair,truck,0,1022_s5n_s07_0_truck_00_truck3-knife2.png
subject-07,1,1023,0.804805994033813,bicycle,bicycle,0,1023_s5n_s07_0_bicycle_00_bicycle1-bicycle3.png
subject-07,1,1024,0.704455852508545,cat,cat,0,1024_s5n_s07_0_cat_00_cat2-car3.png
subject-07,1,1025,0.777953147888184,bear,elephant,0,1025_s5n_s07_0_elephant_00_elephant4-clock3.png
subject-07,1,1026,0.5937340259552,chair,chair,0,1026_s5n_s07_0_chair_00_chair1-truck3.png
subject-07,1,1027,0.885655164718628,keyboard,keyboard,0,1027_s5n_s07_0_keyboard_00_keyboard1-clock1.png
subject-07,1,1028,0.601251840591431,oven,oven,0,1028_s5n_s07_0_oven_00_oven2-oven3.png
subject-07,1,1029,0.99561595916748,chair,knife,0,1029_s5n_s07_0_knife_00_knife10-oven3.png
subject-07,1,1030,0.766256093978882,bicycle,bicycle,0,1030_s5n_s07_0_bicycle_00_bicycle9-knife3.png
subject-07,1,1031,0.944553136825562,cat,boat,0,1031_s5n_s07_0_boat_00_boat7-cat3.png
subject-07,1,1032,0.797990083694458,oven,clock,0,1032_s5n_s07_0_clock_00_clock8-truck2.png
subject-07,1,1033,0.830102920532227,car,car,0,1033_s5n_s07_0_car_00_car8-boat3.png
subject-07,1,1034,0.870192050933838,bicycle,bicycle,0,1034_s5n_s07_0_bicycle_00_bicycle4-clock3.png
subject-07,1,1035,0.615033149719238,oven,oven,0,1035_s5n_s07_0_oven_00_oven6-oven3.png
subject-07,1,1036,0.769335985183716,car,car,0,1036_s5n_s07_0_car_00_car7-oven2.png
subject-07,1,1037,0.906851053237915,elephant,bird,0,1037_s5n_s07_0_bird_00_bird10-chair1.png
subject-07,1,1038,0.814921855926514,oven,chair,0,1038_s5n_s07_0_chair_00_chair7-airplane1.png
subject-07,1,1039,0.863048076629639,bear,bear,0,1039_s5n_s07_0_bear_00_bear7-clock1.png
subject-07,1,1040,0.816168069839478,bird,bird,0,1040_s5n_s07_0_bird_00_bird1-knife3.png
subject-07,1,1041,1.41562485694885,elephant,elephant,0,1041_s5n_s07_0_elephant_00_elephant1-dog2.png
subject-07,1,1042,0.623507022857666,bear,bear,0,1042_s5n_s07_0_bear_00_bear5-bottle1.png
subject-07,1,1043,0.839338064193726,airplane,airplane,0,1043_s5n_s07_0_airplane_00_airplane10-bear3.png
subject-07,1,1044,0.717035055160522,car,car,0,1044_s5n_s07_0_car_00_car6-knife1.png
subject-07,1,1045,0.732695817947388,bottle,bottle,0,1045_s5n_s07_0_bottle_00_bottle8-bicycle1.png
subject-07,1,1046,1.33262014389038,truck,truck,0,1046_s5n_s07_0_truck_00_truck7-chair2.png
subject-07,1,1047,0.610672950744629,keyboard,keyboard,0,1047_s5n_s07_0_keyboard_00_keyboard1-dog3.png
subject-07,1,1048,NaN,na,truck,0,1048_s5n_s07_0_truck_00_truck5-airplane2.png
subject-07,1,1049,0.942738056182861,dog,bear,0,1049_s5n_s07_0_bear_00_bear3-keyboard2.png
subject-07,1,1050,1.08071184158325,cat,cat,0,1050_s5n_s07_0_cat_00_cat3-bear2.png
subject-07,1,1051,0.804162979125977,keyboard,keyboard,0,1051_s5n_s07_0_keyboard_00_keyboard8-chair2.png
subject-07,1,1052,0.595862865447998,cat,cat,0,1052_s5n_s07_0_cat_00_cat1-airplane1.png
subject-07,1,1053,0.565936088562012,clock,clock,0,1053_s5n_s07_0_clock_00_clock7-bicycle1.png
subject-07,1,1054,0.666237831115723,oven,boat,0,1054_s5n_s07_0_boat_00_boat2-bottle2.png
subject-07,1,1055,0.913522005081177,dog,dog,0,1055_s5n_s07_0_dog_00_dog1-car2.png
subject-07,1,1056,1.15886902809143,dog,dog,0,1056_s5n_s07_0_dog_00_dog5-bear3.png
subject-07,1,1057,0.819880962371826,knife,knife,0,1057_s5n_s07_0_knife_00_knife10-bear3.png
subject-07,1,1058,0.681986093521118,car,car,0,1058_s5n_s07_0_car_00_car7-dog3.png
subject-07,1,1059,1.06580495834351,truck,truck,0,1059_s5n_s07_0_truck_00_truck9-elephant1.png
subject-07,1,1060,0.827277898788452,cat,cat,0,1060_s5n_s07_0_cat_00_cat8-bear1.png
subject-07,1,1061,0.980962991714478,dog,dog,0,1061_s5n_s07_0_dog_00_dog7-knife3.png
subject-07,1,1062,0.950595855712891,dog,dog,0,1062_s5n_s07_0_dog_00_dog6-clock1.png
subject-07,1,1063,0.934112787246704,bottle,bottle,0,1063_s5n_s07_0_bottle_00_bottle7-airplane3.png
subject-07,1,1064,0.843975782394409,bottle,bottle,0,1064_s5n_s07_0_bottle_00_bottle6-boat3.png
subject-07,1,1065,1.06603097915649,oven,oven,0,1065_s5n_s07_0_oven_00_oven5-elephant1.png
subject-07,1,1066,0.968458890914917,truck,truck,0,1066_s5n_s07_0_truck_00_truck3-bird2.png
subject-07,1,1067,0.751851081848145,cat,cat,0,1067_s5n_s07_0_cat_00_cat1-oven1.png
subject-07,1,1068,0.821176052093506,airplane,airplane,0,1068_s5n_s07_0_airplane_00_airplane5-bottle3.png
subject-07,1,1069,0.658685207366943,cat,cat,0,1069_s5n_s07_0_cat_00_cat5-dog3.png
subject-07,1,1070,1.12878894805908,dog,bear,0,1070_s5n_s07_0_bear_00_bear9-keyboard3.png
subject-07,1,1071,0.928822994232178,keyboard,airplane,0,1071_s5n_s07_0_airplane_00_airplane2-bottle1.png
subject-07,1,1072,0.851983070373535,knife,knife,0,1072_s5n_s07_0_knife_00_knife9-bear3.png
subject-07,1,1073,0.722456932067871,cat,cat,0,1073_s5n_s07_0_cat_00_cat4-bird2.png
subject-07,1,1074,0.7605140209198,bicycle,bicycle,0,1074_s5n_s07_0_bicycle_00_bicycle9-car1.png
subject-07,1,1075,1.13865613937378,elephant,elephant,0,1075_s5n_s07_0_elephant_00_elephant8-knife2.png
subject-07,1,1076,0.730490922927856,cat,cat,0,1076_s5n_s07_0_cat_00_cat4-dog3.png
subject-07,1,1077,0.640090942382812,bicycle,bicycle,0,1077_s5n_s07_0_bicycle_00_bicycle2-knife2.png
subject-07,1,1078,0.886147975921631,oven,oven,0,1078_s5n_s07_0_oven_00_oven1-boat3.png
subject-07,1,1079,0.953958988189697,chair,chair,0,1079_s5n_s07_0_chair_00_chair7-chair1.png
subject-07,1,1080,1.06148290634155,airplane,airplane,0,1080_s5n_s07_0_airplane_00_airplane10-car3.png
subject-07,1,1081,0.859151124954224,clock,clock,0,1081_s5n_s07_0_clock_00_clock5-keyboard1.png
subject-07,1,1082,0.713114976882935,oven,oven,0,1082_s5n_s07_0_oven_00_oven5-bicycle1.png
subject-07,1,1083,0.675472974777222,oven,oven,0,1083_s5n_s07_0_oven_00_oven4-chair1.png
subject-07,1,1084,1.38288378715515,airplane,airplane,0,1084_s5n_s07_0_airplane_00_airplane10-cat2.png
subject-07,1,1085,0.921190977096558,clock,clock,0,1085_s5n_s07_0_clock_00_clock6-bird3.png
subject-07,1,1086,0.691438913345337,bottle,bottle,0,1086_s5n_s07_0_bottle_00_bottle8-keyboard3.png
subject-07,1,1087,0.622982978820801,bicycle,bicycle,0,1087_s5n_s07_0_bicycle_00_bicycle9-keyboard3.png
subject-07,1,1088,0.923577070236206,car,car,0,1088_s5n_s07_0_car_00_car8-airplane3.png
subject-07,1,1089,0.677212953567505,oven,oven,0,1089_s5n_s07_0_oven_00_oven9-knife3.png
subject-07,1,1090,1.01728296279907,bottle,bottle,0,1090_s5n_s07_0_bottle_00_bottle5-bird3.png
subject-07,1,1091,1.0248749256134,elephant,elephant,0,1091_s5n_s07_0_elephant_00_elephant4-car3.png
subject-07,1,1092,0.97884202003479,cat,dog,0,1092_s5n_s07_0_dog_00_dog9-car1.png
subject-07,1,1093,0.816267013549805,cat,cat,0,1093_s5n_s07_0_cat_00_cat7-bottle1.png
subject-07,1,1094,1.00723814964294,airplane,airplane,0,1094_s5n_s07_0_airplane_00_airplane4-bicycle2.png
subject-07,1,1095,1.15638089179993,airplane,boat,0,1095_s5n_s07_0_boat_00_boat6-car1.png
subject-07,1,1096,0.877766132354736,clock,clock,0,1096_s5n_s07_0_clock_00_clock2-bear2.png
subject-07,1,1097,1.26369714736938,dog,elephant,0,1097_s5n_s07_0_elephant_00_elephant6-bird1.png
subject-07,1,1098,1.21491813659668,bear,bear,0,1098_s5n_s07_0_bear_00_bear8-airplane1.png
