subj,session,trial,rt,object_response,category,condition,imagename
subject-02,1,1,1.03254890441895,oven,clock,0,0001_s5n_s02_0_clock_00_clock4-chair1.png
subject-02,1,2,0.821159839630127,bird,bird,0,0002_s5n_s02_0_bird_00_bird10-bear2.png
subject-02,1,3,1.07075309753418,keyboard,knife,0,0003_s5n_s02_0_knife_00_knife7-airplane3.png
subject-02,1,4,1.0883960723877,cat,cat,0,0004_s5n_s02_0_cat_00_cat2-boat2.png
subject-02,1,5,1.16590213775635,bird,airplane,0,0005_s5n_s02_0_airplane_00_airplane2-cat1.png
subject-02,1,6,0.875960111618042,bicycle,bicycle,0,0006_s5n_s02_0_bicycle_00_bicycle7-truck3.png
subject-02,1,7,0.975268840789795,bottle,bottle,0,0007_s5n_s02_0_bottle_00_bottle4-car3.png
subject-02,1,8,0.960676908493042,bicycle,bicycle,0,0008_s5n_s02_0_bicycle_00_bicycle2-bicycle1.png
subject-02,1,9,1.40874981880188,knife,airplane,0,0009_s5n_s02_0_airplane_00_airplane7-clock3.png
subject-02,1,10,1.40978384017944,bottle,knife,0,0010_s5n_s02_0_knife_00_knife10-elephant3.png
subject-02,1,11,1.35740900039673,elephant,elephant,0,0011_s5n_s02_0_elephant_00_elephant10-elephant1.png
subject-02,1,12,1.50016689300537,chair,oven,0,0012_s5n_s02_0_oven_00_oven6-knife3.png
subject-02,1,13,0.90196704864502,elephant,elephant,0,0013_s5n_s02_0_elephant_00_elephant2-boat1.png
subject-02,1,14,0.99581503868103,bicycle,bicycle,0,0014_s5n_s02_0_bicycle_00_bicycle1-boat3.png
subject-02,1,15,0.79800820350647,bottle,bottle,0,0015_s5n_s02_0_bottle_00_bottle6-boat3.png
subject-02,1,16,0.978350162506104,elephant,elephant,0,0016_s5n_s02_0_elephant_00_elephant4-chair3.png
subject-02,1,17,1.06479096412659,bottle,bottle,0,0017_s5n_s02_0_bottle_00_bottle1-dog2.png
subject-02,1,18,0.8125159740448,truck,truck,0,0018_s5n_s02_0_truck_00_truck6-bicycle1.png
subject-02,1,19,0.727241039276123,bottle,bottle,0,0019_s5n_s02_0_bottle_00_bottle3-cat3.png
subject-02,1,20,1.14920806884766,bird,clock,0,0020_s5n_s02_0_clock_00_clock1-dog2.png
subject-02,1,21,0.810252904891968,truck,truck,0,0021_s5n_s02_0_truck_00_truck6-knife2.png
subject-02,1,22,0.905026197433472,oven,oven,0,0022_s5n_s02_0_oven_00_oven9-bear2.png
subject-02,1,23,0.896074056625366,elephant,elephant,0,0023_s5n_s02_0_elephant_00_elephant9-dog3.png
subject-02,1,24,1.0357038974762,bottle,bottle,0,0024_s5n_s02_0_bottle_00_bottle9-bicycle1.png
subject-02,1,25,1.23816704750061,bird,cat,0,0025_s5n_s02_0_cat_00_cat3-bicycle1.png
subject-02,1,26,1.20781207084656,keyboard,airplane,0,0026_s5n_s02_0_airplane_00_airplane3-chair3.png
subject-02,1,27,0.955068826675415,car,car,0,0027_s5n_s02_0_car_00_car8-bear1.png
subject-02,1,28,NaN,na,knife,0,0028_s5n_s02_0_knife_00_knife6-boat3.png
subject-02,1,29,0.909103870391846,bird,bird,0,0029_s5n_s02_0_bird_00_bird1-keyboard3.png
subject-02,1,30,0.962059020996094,dog,dog,0,0030_s5n_s02_0_dog_00_dog6-bicycle1.png
subject-02,1,31,1.40285706520081,dog,boat,0,0031_s5n_s02_0_boat_00_boat6-cat1.png
subject-02,1,32,0.926059007644653,chair,chair,0,0032_s5n_s02_0_chair_00_chair2-keyboard2.png
subject-02,1,33,1.23619508743286,airplane,bear,0,0033_s5n_s02_0_bear_00_bear6-cat3.png
subject-02,1,34,1.50005888938904,knife,airplane,0,0034_s5n_s02_0_airplane_00_airplane3-keyboard2.png
subject-02,1,35,1.00016593933105,elephant,elephant,0,0035_s5n_s02_0_elephant_00_elephant8-cat1.png
subject-02,1,36,0.956053018569946,knife,boat,0,0036_s5n_s02_0_boat_00_boat8-bottle1.png
subject-02,1,37,0.787631034851074,clock,clock,0,0037_s5n_s02_0_clock_00_clock7-bottle2.png
subject-02,1,38,1.37911295890808,bicycle,bicycle,0,0038_s5n_s02_0_bicycle_00_bicycle7-bear2.png
subject-02,1,39,0.850895166397095,clock,clock,0,0039_s5n_s02_0_clock_00_clock10-airplane1.png
subject-02,1,40,0.749644994735718,bottle,bottle,0,0040_s5n_s02_0_bottle_00_bottle9-oven2.png
subject-02,1,41,0.865277051925659,bird,bird,0,0041_s5n_s02_0_bird_00_bird5-truck2.png
subject-02,1,42,0.999499797821045,bird,bird,0,0042_s5n_s02_0_bird_00_bird9-keyboard1.png
subject-02,1,43,0.923510789871216,knife,boat,0,0043_s5n_s02_0_boat_00_boat6-dog1.png
subject-02,1,44,0.747806072235107,bottle,bottle,0,0044_s5n_s02_0_bottle_00_bottle1-bird3.png
subject-02,1,45,1.02541518211365,bird,airplane,0,0045_s5n_s02_0_airplane_00_airplane3-dog1.png
subject-02,1,46,1.11912393569946,truck,truck,0,0046_s5n_s02_0_truck_00_truck2-bottle3.png
subject-02,1,47,1.13497281074524,truck,truck,0,0047_s5n_s02_0_truck_00_truck6-bottle3.png
subject-02,1,48,NaN,na,bear,0,0048_s5n_s02_0_bear_00_bear2-dog1.png
subject-02,1,49,0.813463926315308,car,car,0,0049_s5n_s02_0_car_00_car1-oven3.png
subject-02,1,50,0.870254993438721,airplane,airplane,0,0050_s5n_s02_0_airplane_00_airplane7-truck1.png
subject-02,1,51,0.91593599319458,elephant,bear,0,0051_s5n_s02_0_bear_00_bear4-clock3.png
subject-02,1,52,0.917205810546875,chair,chair,0,0052_s5n_s02_0_chair_00_chair1-chair1.png
subject-02,1,53,0.803315877914429,car,car,0,0053_s5n_s02_0_car_00_car7-clock1.png
subject-02,1,54,0.788923978805542,elephant,elephant,0,0054_s5n_s02_0_elephant_00_elephant3-knife1.png
subject-02,1,55,1.02052783966064,knife,boat,0,0055_s5n_s02_0_boat_00_boat6-elephant2.png
subject-02,1,56,1.23859000205994,bicycle,bicycle,0,0056_s5n_s02_0_bicycle_00_bicycle7-oven1.png
subject-02,1,57,1.11447691917419,knife,boat,0,0057_s5n_s02_0_boat_00_boat6-airplane2.png
subject-02,1,58,1.3479630947113,bicycle,bicycle,0,0058_s5n_s02_0_bicycle_00_bicycle1-knife3.png
subject-02,1,59,0.979691982269287,elephant,elephant,0,0059_s5n_s02_0_elephant_00_elephant10-bear1.png
subject-02,1,60,0.940943956375122,chair,chair,0,0060_s5n_s02_0_chair_00_chair8-knife2.png
subject-02,1,61,1.08591413497925,elephant,bird,0,0061_s5n_s02_0_bird_00_bird3-knife3.png
subject-02,1,62,1.20988798141479,chair,oven,0,0062_s5n_s02_0_oven_00_oven5-bird1.png
subject-02,1,63,0.728661060333252,bicycle,bicycle,0,0063_s5n_s02_0_bicycle_00_bicycle10-clock2.png
subject-02,1,64,1.15226197242737,bird,bird,0,0064_s5n_s02_0_bird_00_bird3-truck3.png
subject-02,1,65,0.855097055435181,keyboard,keyboard,0,0065_s5n_s02_0_keyboard_00_keyboard3-car2.png
subject-02,1,66,0.964421033859253,chair,chair,0,0066_s5n_s02_0_chair_00_chair7-bottle1.png
subject-02,1,67,0.887861013412476,chair,oven,0,0067_s5n_s02_0_oven_00_oven6-chair3.png
subject-02,1,68,1.07371401786804,chair,boat,0,0068_s5n_s02_0_boat_00_boat7-keyboard3.png
subject-02,1,69,0.935230016708374,bird,bird,0,0069_s5n_s02_0_bird_00_bird9-bicycle3.png
subject-02,1,70,0.988322973251343,car,car,0,0070_s5n_s02_0_car_00_car2-knife3.png
subject-02,1,71,1.18310499191284,knife,knife,0,0071_s5n_s02_0_knife_00_knife2-car3.png
subject-02,1,72,0.993587970733643,keyboard,keyboard,0,0072_s5n_s02_0_keyboard_00_keyboard10-airplane3.png
subject-02,1,73,1.15001392364502,truck,truck,0,0073_s5n_s02_0_truck_00_truck1-bird1.png
subject-02,1,74,0.890022039413452,car,car,0,0074_s5n_s02_0_car_00_car3-airplane3.png
subject-02,1,75,1.12731099128723,truck,truck,0,0075_s5n_s02_0_truck_00_truck3-chair2.png
subject-02,1,76,1.03676915168762,bottle,bottle,0,0076_s5n_s02_0_bottle_00_bottle6-dog3.png
subject-02,1,77,1.13678097724915,chair,boat,0,0077_s5n_s02_0_boat_00_boat7-clock3.png
subject-02,1,78,0.738729000091553,clock,clock,0,0078_s5n_s02_0_clock_00_clock7-bear2.png
subject-02,1,79,0.808958053588867,clock,clock,0,0079_s5n_s02_0_clock_00_clock3-dog2.png
subject-02,1,80,1.41818904876709,dog,bear,0,0080_s5n_s02_0_bear_00_bear10-bottle1.png
subject-02,1,81,0.92432689666748,cat,cat,0,0081_s5n_s02_0_cat_00_cat5-chair3.png
subject-02,1,82,0.948271036148071,dog,dog,0,0082_s5n_s02_0_dog_00_dog10-airplane1.png
subject-02,1,83,0.756561994552612,elephant,elephant,0,0083_s5n_s02_0_elephant_00_elephant4-clock3.png
subject-02,1,84,0.857975959777832,bottle,bottle,0,0084_s5n_s02_0_bottle_00_bottle5-keyboard2.png
subject-02,1,85,1.3438560962677,knife,knife,0,0085_s5n_s02_0_knife_00_knife6-clock2.png
subject-02,1,86,NaN,na,elephant,0,0086_s5n_s02_0_elephant_00_elephant2-cat1.png
subject-02,1,87,0.907397985458374,elephant,bear,0,0087_s5n_s02_0_bear_00_bear1-clock2.png
subject-02,1,88,0.814645051956177,truck,truck,0,0088_s5n_s02_0_truck_00_truck9-bottle2.png
subject-02,1,89,0.932976961135864,cat,bird,0,0089_s5n_s02_0_bird_00_bird7-truck2.png
subject-02,1,90,0.794352054595947,bird,bird,0,0090_s5n_s02_0_bird_00_bird1-clock3.png
subject-02,1,91,0.942896127700806,bicycle,bicycle,0,0091_s5n_s02_0_bicycle_00_bicycle1-dog3.png
subject-02,1,92,1.05010795593262,elephant,dog,0,0092_s5n_s02_0_dog_00_dog4-elephant2.png
subject-02,1,93,0.868052959442139,bicycle,bicycle,0,0093_s5n_s02_0_bicycle_00_bicycle7-elephant2.png
subject-02,1,94,0.791465997695923,clock,clock,0,0094_s5n_s02_0_clock_00_clock5-bicycle1.png
subject-02,1,95,0.906163930892944,bottle,bottle,0,0095_s5n_s02_0_bottle_00_bottle8-keyboard3.png
subject-02,1,96,0.699876070022583,oven,oven,0,0096_s5n_s02_0_oven_00_oven2-chair1.png
subject-02,1,97,0.910735845565796,knife,keyboard,0,0097_s5n_s02_0_keyboard_00_keyboard9-bird1.png
subject-02,1,98,0.888200044631958,dog,dog,0,0098_s5n_s02_0_dog_00_dog10-truck2.png
subject-02,1,99,0.841609001159668,chair,chair,0,0099_s5n_s02_0_chair_00_chair7-cat1.png
subject-02,1,100,0.921730041503906,keyboard,boat,0,0100_s5n_s02_0_boat_00_boat3-car3.png
subject-02,1,101,1.12865996360779,dog,dog,0,0101_s5n_s02_0_dog_00_dog3-truck2.png
subject-02,1,102,0.990961074829102,dog,bear,0,0102_s5n_s02_0_bear_00_bear9-keyboard3.png
subject-02,1,103,0.747035026550293,bottle,bottle,0,0103_s5n_s02_0_bottle_00_bottle5-airplane1.png
subject-02,1,104,0.909523010253906,keyboard,keyboard,0,0104_s5n_s02_0_keyboard_00_keyboard4-bird1.png
subject-02,1,105,0.780938148498535,chair,chair,0,0105_s5n_s02_0_chair_00_chair1-truck3.png
subject-02,1,106,1.42705392837524,knife,knife,0,0106_s5n_s02_0_knife_00_knife2-bird1.png
subject-02,1,107,0.95019006729126,truck,truck,0,0107_s5n_s02_0_truck_00_truck2-bird2.png
subject-02,1,108,0.773382902145386,oven,oven,0,0108_s5n_s02_0_oven_00_oven4-car1.png
subject-02,1,109,0.767910003662109,oven,oven,0,0109_s5n_s02_0_oven_00_oven5-airplane1.png
subject-02,1,110,0.895704030990601,keyboard,keyboard,0,0110_s5n_s02_0_keyboard_00_keyboard9-chair2.png
subject-02,1,111,1.50004196166992,car,car,0,0111_s5n_s02_0_car_00_car3-bottle3.png
subject-02,1,112,0.967758893966675,car,keyboard,0,0112_s5n_s02_0_keyboard_00_keyboard8-dog3.png
subject-02,1,113,1.04338312149048,clock,clock,0,0113_s5n_s02_0_clock_00_clock8-cat1.png
subject-02,1,114,0.750263214111328,cat,cat,0,0114_s5n_s02_0_cat_00_cat1-keyboard3.png
subject-02,1,115,0.698425054550171,chair,chair,0,0115_s5n_s02_0_chair_00_chair5-clock2.png
subject-02,1,116,1.08247709274292,dog,dog,0,0116_s5n_s02_0_dog_00_dog9-boat1.png
subject-02,1,117,1.12234210968018,elephant,elephant,0,0117_s5n_s02_0_elephant_00_elephant7-bird1.png
subject-02,1,118,0.707906007766724,boat,boat,0,0118_s5n_s02_0_boat_00_boat9-boat3.png
subject-02,1,119,0.8856201171875,keyboard,keyboard,0,0119_s5n_s02_0_keyboard_00_keyboard4-knife2.png
subject-02,1,120,0.996068954467773,dog,dog,0,0120_s5n_s02_0_dog_00_dog4-bottle2.png
subject-02,1,121,0.852138996124268,airplane,airplane,0,0121_s5n_s02_0_airplane_00_airplane10-car3.png
subject-02,1,122,0.621284008026123,cat,cat,0,0122_s5n_s02_0_cat_00_cat8-bear1.png
subject-02,1,123,0.837683916091919,keyboard,knife,0,0123_s5n_s02_0_knife_00_knife1-truck2.png
subject-02,1,124,1.50014090538025,knife,cat,0,0124_s5n_s02_0_cat_00_cat10-airplane3.png
subject-02,1,125,0.897536993026733,truck,truck,0,0125_s5n_s02_0_truck_00_truck2-bicycle2.png
subject-02,1,126,1.05308103561401,truck,truck,0,0126_s5n_s02_0_truck_00_truck2-oven3.png
subject-02,1,127,1.06102609634399,bicycle,bicycle,0,0127_s5n_s02_0_bicycle_00_bicycle10-boat3.png
subject-02,1,128,1.11745810508728,truck,truck,0,0128_s5n_s02_0_truck_00_truck3-dog3.png
subject-02,1,129,1.04928207397461,dog,dog,0,0129_s5n_s02_0_dog_00_dog3-bird2.png
subject-02,1,130,0.913071870803833,chair,chair,0,0130_s5n_s02_0_chair_00_chair10-clock1.png
subject-02,1,131,1.32008695602417,knife,knife,0,0131_s5n_s02_0_knife_00_knife6-airplane1.png
subject-02,1,132,NaN,na,cat,0,0132_s5n_s02_0_cat_00_cat5-bear2.png
subject-02,1,133,1.35170602798462,elephant,elephant,0,0133_s5n_s02_0_elephant_00_elephant8-dog1.png
subject-02,1,134,0.783540010452271,bird,bird,0,0134_s5n_s02_0_bird_00_bird9-elephant2.png
subject-02,1,135,NaN,na,elephant,0,0135_s5n_s02_0_elephant_00_elephant2-truck2.png
subject-02,1,136,0.922388076782227,keyboard,keyboard,0,0136_s5n_s02_0_keyboard_00_keyboard9-bear2.png
subject-02,1,137,0.824253797531128,chair,chair,0,0137_s5n_s02_0_chair_00_chair6-dog1.png
subject-02,1,138,0.994067192077637,car,car,0,0138_s5n_s02_0_car_00_car10-bicycle2.png
subject-02,1,139,1.00987815856934,chair,chair,0,0139_s5n_s02_0_chair_00_chair10-bird3.png
subject-02,1,140,1.00335216522217,elephant,elephant,0,0140_s5n_s02_0_elephant_00_elephant6-knife2.png
subject-02,1,141,0.781704902648926,bicycle,bicycle,0,0141_s5n_s02_0_bicycle_00_bicycle3-keyboard1.png
subject-02,1,142,1.1275041103363,elephant,bear,0,0142_s5n_s02_0_bear_00_bear1-elephant1.png
subject-02,1,143,1.22168183326721,chair,chair,0,0143_s5n_s02_0_chair_00_chair8-bear1.png
subject-02,1,144,0.946202993392944,bird,bird,0,0144_s5n_s02_0_bird_00_bird6-bottle3.png
subject-02,1,145,0.849346876144409,bottle,bottle,0,0145_s5n_s02_0_bottle_00_bottle7-boat3.png
subject-02,1,146,0.72484302520752,clock,clock,0,0146_s5n_s02_0_clock_00_clock5-oven1.png
subject-02,1,147,0.732948064804077,oven,oven,0,0147_s5n_s02_0_oven_00_oven2-oven3.png
subject-02,1,148,1.14823603630066,bear,elephant,0,0148_s5n_s02_0_elephant_00_elephant2-bird1.png
subject-02,1,149,1.17960691452026,bicycle,bicycle,0,0149_s5n_s02_0_bicycle_00_bicycle9-bear1.png
subject-02,1,150,1.03300094604492,keyboard,keyboard,0,0150_s5n_s02_0_keyboard_00_keyboard10-boat2.png
subject-02,1,151,0.851986885070801,cat,bird,0,0151_s5n_s02_0_bird_00_bird2-airplane3.png
subject-02,1,152,0.780205011367798,cat,cat,0,0152_s5n_s02_0_cat_00_cat5-bottle1.png
subject-02,1,153,0.823617935180664,keyboard,keyboard,0,0153_s5n_s02_0_keyboard_00_keyboard5-knife2.png
subject-02,1,154,0.814632892608643,clock,clock,0,0154_s5n_s02_0_clock_00_clock7-car1.png
subject-02,1,155,0.969147920608521,oven,oven,0,0155_s5n_s02_0_oven_00_oven1-bird3.png
subject-02,1,156,0.899852991104126,dog,dog,0,0156_s5n_s02_0_dog_00_dog7-keyboard3.png
subject-02,1,157,0.79408597946167,boat,boat,0,0157_s5n_s02_0_boat_00_boat9-chair2.png
subject-02,1,158,0.842512845993042,chair,chair,0,0158_s5n_s02_0_chair_00_chair6-truck2.png
subject-02,1,159,1.0827260017395,chair,airplane,0,0159_s5n_s02_0_airplane_00_airplane8-clock2.png
subject-02,1,160,1.14421391487122,bottle,bottle,0,0160_s5n_s02_0_bottle_00_bottle6-bird1.png
subject-02,1,161,1.00064706802368,knife,airplane,0,0161_s5n_s02_0_airplane_00_airplane10-cat2.png
subject-02,1,162,0.817142009735107,elephant,elephant,0,0162_s5n_s02_0_elephant_00_elephant4-bicycle2.png
subject-02,1,163,0.8782958984375,car,car,0,0163_s5n_s02_0_car_00_car6-bicycle3.png
subject-02,1,164,0.971628904342651,knife,knife,0,0164_s5n_s02_0_knife_00_knife9-boat1.png
subject-02,1,165,0.974388122558594,truck,truck,0,0165_s5n_s02_0_truck_00_truck3-knife2.png
subject-02,1,166,0.903199195861816,chair,chair,0,0166_s5n_s02_0_chair_00_chair7-clock3.png
subject-02,1,167,1.01359415054321,elephant,elephant,0,0167_s5n_s02_0_elephant_00_elephant10-knife3.png
subject-02,1,168,0.837270021438599,keyboard,keyboard,0,0168_s5n_s02_0_keyboard_00_keyboard8-keyboard2.png
subject-02,1,169,0.883226871490479,chair,chair,0,0169_s5n_s02_0_chair_00_chair2-bear2.png
subject-02,1,170,0.885136127471924,oven,oven,0,0170_s5n_s02_0_oven_00_oven4-bottle2.png
subject-02,1,171,1.15017414093018,knife,boat,0,0171_s5n_s02_0_boat_00_boat6-knife2.png
subject-02,1,172,1.02831506729126,cat,cat,0,0172_s5n_s02_0_cat_00_cat3-bear2.png
subject-02,1,173,0.784446001052856,dog,dog,0,0173_s5n_s02_0_dog_00_dog4-oven1.png
subject-02,1,174,1.35167407989502,keyboard,keyboard,0,0174_s5n_s02_0_keyboard_00_keyboard5-bicycle1.png
subject-02,1,175,1.23002791404724,dog,dog,0,0175_s5n_s02_0_dog_00_dog3-knife3.png
subject-02,1,176,0.977800130844116,elephant,elephant,0,0176_s5n_s02_0_elephant_00_elephant5-truck1.png
subject-02,1,177,0.936604022979736,keyboard,boat,0,0177_s5n_s02_0_boat_00_boat3-airplane2.png
subject-02,1,178,0.732800006866455,oven,knife,0,0178_s5n_s02_0_knife_00_knife2-bottle2.png
subject-02,1,179,0.844717979431152,elephant,elephant,0,0179_s5n_s02_0_elephant_00_elephant9-boat3.png
subject-02,1,180,0.882133007049561,bear,bear,0,0180_s5n_s02_0_bear_00_bear8-airplane1.png
subject-02,1,181,0.981268882751465,car,car,0,0181_s5n_s02_0_car_00_car2-chair1.png
subject-02,1,182,0.905194997787476,bird,bird,0,0182_s5n_s02_0_bird_00_bird4-bicycle2.png
subject-02,1,183,0.88275408744812,elephant,knife,0,0183_s5n_s02_0_knife_00_knife2-elephant2.png
subject-02,1,184,0.639091968536377,boat,boat,0,0184_s5n_s02_0_boat_00_boat5-airplane1.png
subject-02,1,185,0.930911064147949,knife,knife,0,0185_s5n_s02_0_knife_00_knife10-bear3.png
subject-02,1,186,0.700389862060547,cat,cat,0,0186_s5n_s02_0_cat_00_cat1-oven1.png
subject-02,1,187,0.677850961685181,bottle,bottle,0,0187_s5n_s02_0_bottle_00_bottle5-bird3.png
subject-02,1,188,0.731208086013794,clock,clock,0,0188_s5n_s02_0_clock_00_clock5-chair3.png
subject-02,1,189,0.655155897140503,oven,oven,0,0189_s5n_s02_0_oven_00_oven5-elephant1.png
subject-02,1,190,0.739415884017944,cat,elephant,0,0190_s5n_s02_0_elephant_00_elephant8-truck3.png
subject-02,1,191,0.751868009567261,oven,oven,0,0191_s5n_s02_0_oven_00_oven1-clock3.png
subject-02,1,192,0.883542060852051,knife,boat,0,0192_s5n_s02_0_boat_00_boat8-truck2.png
subject-02,1,193,0.806793928146362,truck,truck,0,0193_s5n_s02_0_truck_00_truck4-boat3.png
subject-02,1,194,1.50001788139343,bicycle,bicycle,0,0194_s5n_s02_0_bicycle_00_bicycle3-oven3.png
subject-02,1,195,0.76014518737793,cat,cat,0,0195_s5n_s02_0_cat_00_cat9-clock2.png
subject-02,1,196,1.12155199050903,knife,airplane,0,0196_s5n_s02_0_airplane_00_airplane9-keyboard2.png
subject-02,1,197,0.707355976104736,bottle,bottle,0,0197_s5n_s02_0_bottle_00_bottle3-boat3.png
subject-02,1,198,1.04495906829834,cat,keyboard,0,0198_s5n_s02_0_keyboard_00_keyboard4-keyboard2.png
subject-02,1,199,1.12982106208801,knife,knife,0,0199_s5n_s02_0_knife_00_knife6-bottle3.png
subject-02,1,200,1.12987184524536,bird,boat,0,0200_s5n_s02_0_boat_00_boat4-dog2.png
subject-02,1,201,1.02975082397461,bird,bird,0,0201_s5n_s02_0_bird_00_bird7-cat3.png
subject-02,1,202,1.00805401802063,bird,bird,0,0202_s5n_s02_0_bird_00_bird6-airplane2.png
subject-02,1,203,0.885647058486938,bird,bird,0,0203_s5n_s02_0_bird_00_bird1-chair2.png
subject-02,1,204,1.10937309265137,keyboard,keyboard,0,0204_s5n_s02_0_keyboard_00_keyboard5-bottle1.png
subject-02,1,205,0.857156991958618,oven,oven,0,0205_s5n_s02_0_oven_00_oven3-airplane1.png
subject-02,1,206,0.726989984512329,cat,cat,0,0206_s5n_s02_0_cat_00_cat9-bird3.png
subject-02,1,207,1.00990295410156,bird,bird,0,0207_s5n_s02_0_bird_00_bird7-bird2.png
subject-02,1,208,1.02680993080139,bottle,bottle,0,0208_s5n_s02_0_bottle_00_bottle1-car1.png
subject-02,1,209,0.950155019760132,bottle,bottle,0,0209_s5n_s02_0_bottle_00_bottle5-truck1.png
subject-02,1,210,0.865869998931885,bottle,bottle,0,0210_s5n_s02_0_bottle_00_bottle9-cat2.png
subject-02,1,211,0.721184968948364,cat,cat,0,0211_s5n_s02_0_cat_00_cat5-car2.png
subject-02,1,212,0.683484077453613,oven,oven,0,0212_s5n_s02_0_oven_00_oven9-car2.png
subject-02,1,213,0.790952920913696,car,car,0,0213_s5n_s02_0_car_00_car10-car1.png
subject-02,1,214,0.948774814605713,bird,chair,0,0214_s5n_s02_0_chair_00_chair5-bird1.png
subject-02,1,215,1.05637907981873,dog,dog,0,0215_s5n_s02_0_dog_00_dog3-bear3.png
subject-02,1,216,1.00993490219116,chair,chair,0,0216_s5n_s02_0_chair_00_chair5-bottle3.png
subject-02,1,217,1.17882895469666,dog,dog,0,0217_s5n_s02_0_dog_00_dog6-cat1.png
subject-02,1,218,0.927175045013428,knife,knife,0,0218_s5n_s02_0_knife_00_knife10-oven3.png
subject-02,1,219,1.01903009414673,bird,bird,0,0219_s5n_s02_0_bird_00_bird1-boat1.png
subject-02,1,220,1.06080293655396,dog,dog,0,0220_s5n_s02_0_dog_00_dog10-keyboard2.png
subject-02,1,221,0.698897123336792,oven,oven,0,0221_s5n_s02_0_oven_00_oven4-truck3.png
subject-02,1,222,0.599195957183838,clock,clock,0,0222_s5n_s02_0_clock_00_clock5-airplane1.png
subject-02,1,223,0.623387098312378,clock,clock,0,0223_s5n_s02_0_clock_00_clock8-airplane2.png
subject-02,1,224,1.37109184265137,boat,bear,0,0224_s5n_s02_0_bear_00_bear2-cat2.png
subject-02,1,225,1.06550598144531,bottle,bottle,0,0225_s5n_s02_0_bottle_00_bottle8-bird1.png
subject-02,1,226,0.789371967315674,chair,dog,0,0226_s5n_s02_0_dog_00_dog8-chair3.png
subject-02,1,227,0.767455101013184,cat,cat,0,0227_s5n_s02_0_cat_00_cat8-bicycle3.png
subject-02,1,228,0.783931016921997,elephant,elephant,0,0228_s5n_s02_0_elephant_00_elephant7-bottle3.png
subject-02,1,229,1.15308690071106,bottle,boat,0,0229_s5n_s02_0_boat_00_boat3-bicycle2.png
subject-02,1,230,0.698901891708374,cat,cat,0,0230_s5n_s02_0_cat_00_cat4-cat3.png
subject-02,1,231,1.11416697502136,bottle,bottle,0,0231_s5n_s02_0_bottle_00_bottle8-bottle3.png
subject-02,1,232,0.662033081054688,clock,clock,0,0232_s5n_s02_0_clock_00_clock1-clock2.png
subject-02,1,233,1.01521396636963,elephant,elephant,0,0233_s5n_s02_0_elephant_00_elephant2-bear3.png
subject-02,1,234,0.839448928833008,bear,bear,0,0234_s5n_s02_0_bear_00_bear8-dog1.png
subject-02,1,235,0.730553865432739,boat,boat,0,0235_s5n_s02_0_boat_00_boat9-airplane2.png
subject-02,1,236,1.10061311721802,knife,airplane,0,0236_s5n_s02_0_airplane_00_airplane10-dog3.png
subject-02,1,237,0.907943964004517,bottle,elephant,0,0237_s5n_s02_0_elephant_00_elephant6-truck3.png
subject-02,1,238,0.877559900283813,keyboard,keyboard,0,0238_s5n_s02_0_keyboard_00_keyboard1-clock1.png
subject-02,1,239,1.48787403106689,keyboard,car,0,0239_s5n_s02_0_car_00_car4-bottle1.png
subject-02,1,240,1.04117608070374,airplane,bear,0,0240_s5n_s02_0_bear_00_bear6-clock1.png
subject-02,1,241,0.8956139087677,boat,boat,0,0241_s5n_s02_0_boat_00_boat3-chair3.png
subject-02,1,242,1.15197801589966,knife,knife,0,0242_s5n_s02_0_knife_00_knife1-bird2.png
subject-02,1,243,1.10483503341675,cat,cat,0,0243_s5n_s02_0_cat_00_cat4-airplane1.png
subject-02,1,244,1.13579082489014,bird,bird,0,0244_s5n_s02_0_bird_00_bird2-clock3.png
subject-02,1,245,0.944299936294556,elephant,elephant,0,0245_s5n_s02_0_elephant_00_elephant1-dog2.png
subject-02,1,246,0.975327968597412,truck,truck,0,0246_s5n_s02_0_truck_00_truck10-car3.png
subject-02,1,247,0.682575941085815,oven,oven,0,0247_s5n_s02_0_oven_00_oven2-bear3.png
subject-02,1,248,0.781553030014038,car,car,0,0248_s5n_s02_0_car_00_car6-truck3.png
subject-02,1,249,1.07328510284424,keyboard,keyboard,0,0249_s5n_s02_0_keyboard_00_keyboard6-knife2.png
subject-02,1,250,1.06724810600281,knife,airplane,0,0250_s5n_s02_0_airplane_00_airplane3-cat1.png
subject-02,1,251,0.914910078048706,car,car,0,0251_s5n_s02_0_car_00_car4-clock1.png
subject-02,1,252,0.906234979629517,bottle,bottle,0,0252_s5n_s02_0_bottle_00_bottle1-bear1.png
subject-02,1,253,1.04585003852844,bird,bird,0,0253_s5n_s02_0_bird_00_bird6-elephant2.png
subject-02,1,254,1.3542652130127,dog,dog,0,0254_s5n_s02_0_dog_00_dog4-bird1.png
subject-02,1,255,0.891206026077271,knife,knife,0,0255_s5n_s02_0_knife_00_knife6-oven3.png
subject-02,1,256,1.27677702903748,truck,truck,0,0256_s5n_s02_0_truck_00_truck5-airplane2.png
subject-02,1,257,0.881968021392822,truck,truck,0,0257_s5n_s02_0_truck_00_truck7-truck2.png
subject-02,1,258,1.15206503868103,dog,dog,0,0258_s5n_s02_0_dog_00_dog1-bird1.png
subject-02,1,259,1.05175685882568,knife,knife,0,0259_s5n_s02_0_knife_00_knife3-cat1.png
subject-02,1,260,0.75366997718811,clock,clock,0,0260_s5n_s02_0_clock_00_clock1-truck3.png
subject-02,1,261,0.754049777984619,cat,elephant,0,0261_s5n_s02_0_elephant_00_elephant10-keyboard1.png
subject-02,1,262,1.05622792243958,elephant,keyboard,0,0262_s5n_s02_0_keyboard_00_keyboard2-elephant1.png
subject-02,1,263,1.01824402809143,knife,cat,0,0263_s5n_s02_0_cat_00_cat10-bottle1.png
subject-02,1,264,0.804187059402466,keyboard,keyboard,0,0264_s5n_s02_0_keyboard_00_keyboard4-truck3.png
subject-02,1,265,0.96588397026062,elephant,elephant,0,0265_s5n_s02_0_elephant_00_elephant1-airplane2.png
subject-02,1,266,0.904037952423096,chair,chair,0,0266_s5n_s02_0_chair_00_chair9-bicycle3.png
subject-02,1,267,0.905807018280029,elephant,elephant,0,0267_s5n_s02_0_elephant_00_elephant6-bird1.png
subject-02,1,268,0.72202205657959,car,car,0,0268_s5n_s02_0_car_00_car5-airplane3.png
subject-02,1,269,0.859338045120239,bicycle,bicycle,0,0269_s5n_s02_0_bicycle_00_bicycle6-dog2.png
subject-02,1,270,0.961256980895996,airplane,keyboard,0,0270_s5n_s02_0_keyboard_00_keyboard7-truck2.png
subject-02,1,271,0.889607906341553,keyboard,oven,0,0271_s5n_s02_0_oven_00_oven8-cat3.png
subject-02,1,272,1.00600290298462,dog,dog,0,0272_s5n_s02_0_dog_00_dog9-bicycle3.png
subject-02,1,273,0.829843044281006,keyboard,keyboard,0,0273_s5n_s02_0_keyboard_00_keyboard2-bottle1.png
subject-02,1,274,0.70682692527771,clock,clock,0,0274_s5n_s02_0_clock_00_clock1-boat3.png
subject-02,1,275,0.984521150588989,bird,bird,0,0275_s5n_s02_0_bird_00_bird9-bottle3.png
subject-02,1,276,0.624872207641602,oven,oven,0,0276_s5n_s02_0_oven_00_oven10-airplane2.png
subject-02,1,277,0.754395961761475,keyboard,knife,0,0277_s5n_s02_0_knife_00_knife1-car3.png
subject-02,1,278,0.8544762134552,bird,boat,0,0278_s5n_s02_0_boat_00_boat6-bicycle2.png
subject-02,1,279,0.686702013015747,cat,cat,0,0279_s5n_s02_0_cat_00_cat2-knife3.png
subject-02,1,280,1.0642831325531,elephant,bottle,0,0280_s5n_s02_0_bottle_00_bottle9-elephant2.png
subject-02,1,281,0.779804944992065,car,car,0,0281_s5n_s02_0_car_00_car6-bottle1.png
subject-02,1,282,0.927397966384888,airplane,airplane,0,0282_s5n_s02_0_airplane_00_airplane9-clock1.png
subject-02,1,283,0.887175798416138,keyboard,keyboard,0,0283_s5n_s02_0_keyboard_00_keyboard2-clock1.png
subject-02,1,284,0.943397045135498,bird,bird,0,0284_s5n_s02_0_bird_00_bird8-chair1.png
subject-02,1,285,1.20443606376648,car,car,0,0285_s5n_s02_0_car_00_car4-cat3.png
subject-02,1,286,0.674204111099243,bottle,bottle,0,0286_s5n_s02_0_bottle_00_bottle4-bicycle1.png
subject-02,1,287,0.89554500579834,keyboard,keyboard,0,0287_s5n_s02_0_keyboard_00_keyboard1-car3.png
subject-02,1,288,0.790607929229736,bottle,bottle,0,0288_s5n_s02_0_bottle_00_bottle2-car2.png
subject-02,1,289,0.951622009277344,keyboard,airplane,0,0289_s5n_s02_0_airplane_00_airplane5-bear2.png
subject-02,1,290,0.836906909942627,bottle,bottle,0,0290_s5n_s02_0_bottle_00_bottle5-elephant1.png
subject-02,1,291,0.629212856292725,clock,clock,0,0291_s5n_s02_0_clock_00_clock7-bicycle1.png
subject-02,1,292,0.72270393371582,cat,knife,0,0292_s5n_s02_0_knife_00_knife1-dog1.png
subject-02,1,293,0.947559118270874,chair,chair,0,0293_s5n_s02_0_chair_00_chair5-keyboard2.png
subject-02,1,294,1.36790299415588,airplane,airplane,0,0294_s5n_s02_0_airplane_00_airplane9-airplane2.png
subject-02,1,295,1.49160003662109,chair,car,0,0295_s5n_s02_0_car_00_car1-chair3.png
subject-02,1,296,0.829445838928223,bottle,bottle,0,0296_s5n_s02_0_bottle_00_bottle5-knife1.png
subject-02,1,297,1.05399990081787,bear,bear,0,0297_s5n_s02_0_bear_00_bear9-boat2.png
subject-02,1,298,0.923906087875366,chair,knife,0,0298_s5n_s02_0_knife_00_knife6-knife1.png
subject-02,1,299,1.01025986671448,chair,chair,0,0299_s5n_s02_0_chair_00_chair1-elephant1.png
subject-02,1,300,0.955544948577881,car,car,0,0300_s5n_s02_0_car_00_car10-keyboard2.png
subject-02,1,301,1.33263397216797,knife,boat,0,0301_s5n_s02_0_boat_00_boat8-dog3.png
subject-02,1,302,0.835864067077637,keyboard,keyboard,0,0302_s5n_s02_0_keyboard_00_keyboard5-bear3.png
subject-02,1,303,0.621999025344849,oven,oven,0,0303_s5n_s02_0_oven_00_oven9-boat2.png
subject-02,1,304,0.959850072860718,bird,bird,0,0304_s5n_s02_0_bird_00_bird6-car3.png
subject-02,1,305,0.891654968261719,cat,cat,0,0305_s5n_s02_0_cat_00_cat10-clock1.png
subject-02,1,306,0.839478015899658,bicycle,bicycle,0,0306_s5n_s02_0_bicycle_00_bicycle7-cat1.png
subject-02,1,307,1.03930497169495,dog,dog,0,0307_s5n_s02_0_dog_00_dog10-oven2.png
subject-02,1,308,0.85518479347229,bird,airplane,0,0308_s5n_s02_0_airplane_00_airplane4-keyboard3.png
subject-02,1,309,0.941481828689575,bottle,bottle,0,0309_s5n_s02_0_bottle_00_bottle9-car3.png
subject-02,1,310,0.986578941345215,elephant,bird,0,0310_s5n_s02_0_bird_00_bird1-elephant2.png
subject-02,1,311,0.864166021347046,chair,chair,0,0311_s5n_s02_0_chair_00_chair8-clock3.png
subject-02,1,312,1.07249212265015,keyboard,keyboard,0,0312_s5n_s02_0_keyboard_00_keyboard1-bird2.png
subject-02,1,313,0.933439016342163,chair,chair,0,0313_s5n_s02_0_chair_00_chair8-elephant1.png
subject-02,1,314,1.05780982971191,bird,bird,0,0314_s5n_s02_0_bird_00_bird8-clock1.png
subject-02,1,315,1.11981701850891,truck,truck,0,0315_s5n_s02_0_truck_00_truck1-bicycle3.png
subject-02,1,316,0.802648067474365,elephant,elephant,0,0316_s5n_s02_0_elephant_00_elephant1-car3.png
subject-02,1,317,0.75755786895752,car,car,0,0317_s5n_s02_0_car_00_car6-knife1.png
subject-02,1,318,0.721748113632202,elephant,elephant,0,0318_s5n_s02_0_elephant_00_elephant3-keyboard2.png
subject-02,1,319,0.745143175125122,cat,cat,0,0319_s5n_s02_0_cat_00_cat2-cat1.png
subject-02,1,320,1.08333802223206,dog,cat,0,0320_s5n_s02_0_cat_00_cat3-elephant2.png
subject-02,1,321,1.03623008728027,knife,knife,0,0321_s5n_s02_0_knife_00_knife4-car2.png
subject-02,1,322,0.701476097106934,boat,boat,0,0322_s5n_s02_0_boat_00_boat9-cat3.png
subject-02,1,323,1.42496514320374,chair,oven,0,0323_s5n_s02_0_oven_00_oven7-car3.png
subject-02,1,324,1.05509495735168,dog,dog,0,0324_s5n_s02_0_dog_00_dog7-bird3.png
subject-02,1,325,0.781538009643555,airplane,airplane,0,0325_s5n_s02_0_airplane_00_airplane5-bicycle1.png
subject-02,1,326,0.940477848052979,elephant,elephant,0,0326_s5n_s02_0_elephant_00_elephant7-clock2.png
subject-02,1,327,1.26419687271118,dog,dog,0,0327_s5n_s02_0_dog_00_dog10-elephant1.png
subject-02,1,328,0.83341908454895,bird,bird,0,0328_s5n_s02_0_bird_00_bird6-oven1.png
subject-02,1,329,0.832966089248657,boat,airplane,0,0329_s5n_s02_0_airplane_00_airplane6-chair3.png
subject-02,1,330,0.878902912139893,car,car,0,0330_s5n_s02_0_car_00_car1-airplane1.png
subject-02,1,331,1.27849316596985,dog,cat,0,0331_s5n_s02_0_cat_00_cat6-chair3.png
subject-02,1,332,0.785868883132935,chair,keyboard,0,0332_s5n_s02_0_keyboard_00_keyboard8-truck3.png
subject-02,1,333,0.979576826095581,chair,keyboard,0,0333_s5n_s02_0_keyboard_00_keyboard4-oven2.png
subject-02,1,334,1.34184312820435,bicycle,dog,0,0334_s5n_s02_0_dog_00_dog7-oven2.png
subject-02,1,335,0.896343946456909,knife,knife,0,0335_s5n_s02_0_knife_00_knife6-bicycle1.png
subject-02,1,336,0.724013090133667,car,car,0,0336_s5n_s02_0_car_00_car4-bicycle3.png
subject-02,1,337,0.763918161392212,clock,clock,0,0337_s5n_s02_0_clock_00_clock4-knife1.png
subject-02,1,338,0.801545143127441,chair,chair,0,0338_s5n_s02_0_chair_00_chair7-airplane1.png
subject-02,1,339,0.750917196273804,bicycle,bicycle,0,0339_s5n_s02_0_bicycle_00_bicycle1-bottle3.png
subject-02,1,340,0.845616102218628,dog,dog,0,0340_s5n_s02_0_dog_00_dog8-bear3.png
subject-02,1,341,0.783957004547119,keyboard,keyboard,0,0341_s5n_s02_0_keyboard_00_keyboard7-clock3.png
subject-02,1,342,0.768605947494507,chair,chair,0,0342_s5n_s02_0_chair_00_chair10-dog1.png
subject-02,1,343,0.922879934310913,chair,bottle,0,0343_s5n_s02_0_bottle_00_bottle7-oven2.png
subject-02,1,344,1.09268808364868,cat,cat,0,0344_s5n_s02_0_cat_00_cat6-keyboard3.png
subject-02,1,345,1.01605701446533,keyboard,keyboard,0,0345_s5n_s02_0_keyboard_00_keyboard5-bird3.png
subject-02,1,346,1.22410607337952,knife,airplane,0,0346_s5n_s02_0_airplane_00_airplane4-car1.png
subject-02,1,347,1.46987700462341,bicycle,bicycle,0,0347_s5n_s02_0_bicycle_00_bicycle1-truck1.png
subject-02,1,348,1.00766086578369,bicycle,bicycle,0,0348_s5n_s02_0_bicycle_00_bicycle8-truck1.png
subject-02,1,349,0.938942909240723,clock,clock,0,0349_s5n_s02_0_clock_00_clock2-knife1.png
subject-02,1,350,0.817772150039673,oven,oven,0,0350_s5n_s02_0_oven_00_oven4-keyboard3.png
subject-02,1,351,0.849653005599976,bicycle,bicycle,0,0351_s5n_s02_0_bicycle_00_bicycle1-bear1.png
subject-02,1,352,1.1246030330658,elephant,elephant,0,0352_s5n_s02_0_elephant_00_elephant9-chair2.png
subject-02,1,353,1.19873785972595,clock,dog,0,0353_s5n_s02_0_dog_00_dog1-boat3.png
subject-02,1,354,1.03835391998291,keyboard,boat,0,0354_s5n_s02_0_boat_00_boat2-bottle2.png
subject-02,1,355,0.784383058547974,clock,oven,0,0355_s5n_s02_0_oven_00_oven3-bear2.png
subject-02,1,356,0.791660070419312,boat,boat,0,0356_s5n_s02_0_boat_00_boat1-chair3.png
subject-02,1,357,0.783782958984375,chair,cat,0,0357_s5n_s02_0_cat_00_cat4-truck3.png
subject-02,1,358,0.920944929122925,bicycle,bicycle,0,0358_s5n_s02_0_bicycle_00_bicycle9-car1.png
subject-02,1,359,0.974872827529907,elephant,elephant,0,0359_s5n_s02_0_elephant_00_elephant7-airplane3.png
subject-02,1,360,0.736605167388916,car,car,0,0360_s5n_s02_0_car_00_car8-clock2.png
subject-02,1,361,0.689772129058838,elephant,elephant,0,0361_s5n_s02_0_elephant_00_elephant2-clock1.png
subject-02,1,362,0.758761167526245,cat,boat,0,0362_s5n_s02_0_boat_00_boat7-bottle1.png
subject-02,1,363,0.711887836456299,bicycle,bicycle,0,0363_s5n_s02_0_bicycle_00_bicycle5-bottle3.png
subject-02,1,364,0.765085935592651,chair,chair,0,0364_s5n_s02_0_chair_00_chair9-dog2.png
subject-02,1,365,0.727602005004883,bird,bird,0,0365_s5n_s02_0_bird_00_bird2-bird2.png
subject-02,1,366,1.34850406646729,chair,chair,0,0366_s5n_s02_0_chair_00_chair9-elephant1.png
subject-02,1,367,1.02622008323669,elephant,cat,0,0367_s5n_s02_0_cat_00_cat10-elephant3.png
subject-02,1,368,0.819401979446411,bicycle,bicycle,0,0368_s5n_s02_0_bicycle_00_bicycle4-keyboard3.png
subject-02,1,369,1.18936085700989,keyboard,cat,0,0369_s5n_s02_0_cat_00_cat4-keyboard2.png
subject-02,1,370,0.900022983551025,oven,oven,0,0370_s5n_s02_0_oven_00_oven9-clock2.png
subject-02,1,371,0.886629104614258,elephant,bear,0,0371_s5n_s02_0_bear_00_bear9-knife2.png
subject-02,1,372,0.977883100509644,elephant,bear,0,0372_s5n_s02_0_bear_00_bear3-car2.png
subject-02,1,373,1.19951605796814,bear,chair,0,0373_s5n_s02_0_chair_00_chair6-elephant2.png
subject-02,1,374,0.647522926330566,boat,boat,0,0374_s5n_s02_0_boat_00_boat2-bird1.png
subject-02,1,375,0.814815998077393,elephant,bird,0,0375_s5n_s02_0_bird_00_bird3-bear3.png
subject-02,1,376,0.771591186523438,bird,bird,0,0376_s5n_s02_0_bird_00_bird8-car2.png
subject-02,1,377,1.10085797309875,dog,dog,0,0377_s5n_s02_0_dog_00_dog4-keyboard2.png
subject-02,1,378,0.786879777908325,chair,oven,0,0378_s5n_s02_0_oven_00_oven6-bear2.png
subject-02,1,379,0.917007923126221,bird,bird,0,0379_s5n_s02_0_bird_00_bird7-car2.png
subject-02,1,380,0.889642953872681,elephant,knife,0,0380_s5n_s02_0_knife_00_knife1-elephant1.png
subject-02,1,381,0.852819919586182,bird,boat,0,0381_s5n_s02_0_boat_00_boat6-bottle2.png
subject-02,1,382,0.782194137573242,chair,oven,0,0382_s5n_s02_0_oven_00_oven7-elephant1.png
subject-02,1,383,0.78407096862793,car,car,0,0383_s5n_s02_0_car_00_car8-dog1.png
subject-02,1,384,0.93838906288147,dog,dog,0,0384_s5n_s02_0_dog_00_dog2-cat1.png
subject-02,1,385,0.808494806289673,keyboard,keyboard,0,0385_s5n_s02_0_keyboard_00_keyboard9-truck3.png
subject-02,1,386,0.907732963562012,dog,bear,0,0386_s5n_s02_0_bear_00_bear3-truck3.png
subject-02,1,387,0.761955976486206,bear,bear,0,0387_s5n_s02_0_bear_00_bear2-keyboard2.png
subject-02,1,388,0.801449060440063,clock,clock,0,0388_s5n_s02_0_clock_00_clock2-bear2.png
subject-02,1,389,0.917590141296387,dog,bird,0,0389_s5n_s02_0_bird_00_bird1-truck1.png
subject-02,1,390,0.925977945327759,car,airplane,0,0390_s5n_s02_0_airplane_00_airplane4-bicycle2.png
subject-02,1,391,0.742137908935547,cat,cat,0,0391_s5n_s02_0_cat_00_cat1-dog1.png
subject-02,1,392,0.795644998550415,car,car,0,0392_s5n_s02_0_car_00_car1-clock2.png
subject-02,1,393,0.695413827896118,clock,clock,0,0393_s5n_s02_0_clock_00_clock2-bottle3.png
subject-02,1,394,0.818387985229492,keyboard,keyboard,0,0394_s5n_s02_0_keyboard_00_keyboard6-bear2.png
subject-02,1,395,0.993629932403564,elephant,elephant,0,0395_s5n_s02_0_elephant_00_elephant5-bear2.png
subject-02,1,396,0.750267028808594,bicycle,bicycle,0,0396_s5n_s02_0_bicycle_00_bicycle8-boat1.png
subject-02,1,397,0.833732128143311,clock,oven,0,0397_s5n_s02_0_oven_00_oven3-elephant3.png
subject-02,1,398,1.08732891082764,oven,boat,0,0398_s5n_s02_0_boat_00_boat10-cat1.png
subject-02,1,399,1.01897597312927,elephant,elephant,0,0399_s5n_s02_0_elephant_00_elephant7-keyboard3.png
subject-02,1,400,0.795004844665527,dog,dog,0,0400_s5n_s02_0_dog_00_dog4-bicycle1.png
subject-02,1,401,0.780539989471436,bicycle,bicycle,0,0401_s5n_s02_0_bicycle_00_bicycle5-oven3.png
subject-02,1,402,0.996701002120972,chair,truck,0,0402_s5n_s02_0_truck_00_truck6-truck2.png
subject-02,1,403,1.11799597740173,bear,bear,0,0403_s5n_s02_0_bear_00_bear8-truck3.png
subject-02,1,404,0.788611173629761,cat,cat,0,0404_s5n_s02_0_cat_00_cat7-knife2.png
subject-02,1,405,0.796081066131592,knife,knife,0,0405_s5n_s02_0_knife_00_knife4-knife2.png
subject-02,1,406,0.858469009399414,dog,dog,0,0406_s5n_s02_0_dog_00_dog5-car3.png
subject-02,1,407,0.697865009307861,cat,bird,0,0407_s5n_s02_0_bird_00_bird10-chair1.png
subject-02,1,408,0.757668972015381,bottle,bottle,0,0408_s5n_s02_0_bottle_00_bottle9-bottle1.png
subject-02,1,409,0.881525039672852,boat,boat,0,0409_s5n_s02_0_boat_00_boat7-boat2.png
subject-02,1,410,0.943439960479736,knife,knife,0,0410_s5n_s02_0_knife_00_knife3-keyboard3.png
subject-02,1,411,0.81358003616333,bottle,bottle,0,0411_s5n_s02_0_bottle_00_bottle3-bird1.png
subject-02,1,412,1.29599189758301,keyboard,bear,0,0412_s5n_s02_0_bear_00_bear6-chair1.png
subject-02,1,413,0.904320955276489,clock,clock,0,0413_s5n_s02_0_clock_00_clock5-clock2.png
subject-02,1,414,1.11180186271667,truck,truck,0,0414_s5n_s02_0_truck_00_truck3-clock3.png
subject-02,1,415,0.83565878868103,elephant,keyboard,0,0415_s5n_s02_0_keyboard_00_keyboard1-elephant3.png
subject-02,1,416,1.32163214683533,knife,boat,0,0416_s5n_s02_0_boat_00_boat4-bottle2.png
subject-02,1,417,1.096755027771,oven,oven,0,0417_s5n_s02_0_oven_00_oven2-bird2.png
subject-02,1,418,0.807192087173462,bicycle,bicycle,0,0418_s5n_s02_0_bicycle_00_bicycle8-clock3.png
subject-02,1,419,1.03161907196045,truck,truck,0,0419_s5n_s02_0_truck_00_truck10-airplane1.png
subject-02,1,420,0.831334114074707,chair,chair,0,0420_s5n_s02_0_chair_00_chair8-bicycle3.png
subject-02,1,421,0.877438068389893,knife,keyboard,0,0421_s5n_s02_0_keyboard_00_keyboard3-cat1.png
subject-02,1,422,0.676887989044189,cat,bird,0,0422_s5n_s02_0_bird_00_bird3-bottle2.png
subject-02,1,423,0.838417053222656,oven,oven,0,0423_s5n_s02_0_oven_00_oven9-chair1.png
subject-02,1,424,0.808892011642456,bicycle,bicycle,0,0424_s5n_s02_0_bicycle_00_bicycle4-truck3.png
subject-02,1,425,0.862564086914062,bear,bear,0,0425_s5n_s02_0_bear_00_bear10-bear2.png
subject-02,1,426,0.956229209899902,dog,dog,0,0426_s5n_s02_0_dog_00_dog3-dog1.png
subject-02,1,427,0.586552143096924,clock,clock,0,0427_s5n_s02_0_clock_00_clock9-bird2.png
subject-02,1,428,0.79419994354248,clock,clock,0,0428_s5n_s02_0_clock_00_clock6-chair3.png
subject-02,1,429,0.688966035842896,boat,bird,0,0429_s5n_s02_0_bird_00_bird3-boat3.png
subject-02,1,430,0.712155818939209,bottle,bottle,0,0430_s5n_s02_0_bottle_00_bottle6-bear2.png
subject-02,1,431,0.790167808532715,airplane,airplane,0,0431_s5n_s02_0_airplane_00_airplane6-bear3.png
subject-02,1,432,1.07495212554932,bird,bird,0,0432_s5n_s02_0_bird_00_bird1-bicycle2.png
subject-02,1,433,0.874902963638306,car,car,0,0433_s5n_s02_0_car_00_car5-cat1.png
subject-02,1,434,0.830626010894775,bird,bird,0,0434_s5n_s02_0_bird_00_bird7-boat1.png
subject-02,1,435,0.844449996948242,airplane,airplane,0,0435_s5n_s02_0_airplane_00_airplane5-chair3.png
subject-02,1,436,1.10646295547485,knife,keyboard,0,0436_s5n_s02_0_keyboard_00_keyboard2-knife1.png
subject-02,1,437,0.96889591217041,car,car,0,0437_s5n_s02_0_car_00_car1-keyboard2.png
subject-02,1,438,1.06757998466492,car,car,0,0438_s5n_s02_0_car_00_car4-car2.png
subject-02,1,439,0.837651014328003,keyboard,keyboard,0,0439_s5n_s02_0_keyboard_00_keyboard5-airplane3.png
subject-02,1,440,1.37476992607117,dog,airplane,0,0440_s5n_s02_0_airplane_00_airplane5-knife1.png
subject-02,1,441,1.06700682640076,bottle,bottle,0,0441_s5n_s02_0_bottle_00_bottle10-car1.png
subject-02,1,442,0.719230890274048,cat,cat,0,0442_s5n_s02_0_cat_00_cat2-bottle3.png
subject-02,1,443,1.00290608406067,knife,knife,0,0443_s5n_s02_0_knife_00_knife2-dog1.png
subject-02,1,444,0.872833967208862,clock,clock,0,0444_s5n_s02_0_clock_00_clock9-airplane1.png
subject-02,1,445,1.09663891792297,airplane,airplane,0,0445_s5n_s02_0_airplane_00_airplane9-car2.png
subject-02,1,446,0.797262191772461,bottle,bottle,0,0446_s5n_s02_0_bottle_00_bottle6-oven3.png
subject-02,1,447,0.850757122039795,keyboard,keyboard,0,0447_s5n_s02_0_keyboard_00_keyboard9-airplane3.png
subject-02,1,448,0.95344090461731,bicycle,bicycle,0,0448_s5n_s02_0_bicycle_00_bicycle10-dog3.png
subject-02,1,449,1.03239607810974,airplane,airplane,0,0449_s5n_s02_0_airplane_00_airplane9-oven2.png
subject-02,1,450,1.2155909538269,bear,bear,0,0450_s5n_s02_0_bear_00_bear7-bear2.png
subject-02,1,451,0.923263788223267,boat,boat,0,0451_s5n_s02_0_boat_00_boat8-bird2.png
subject-02,1,452,0.923326969146729,truck,truck,0,0452_s5n_s02_0_truck_00_truck8-bottle2.png
subject-02,1,453,0.838960886001587,dog,dog,0,0453_s5n_s02_0_dog_00_dog6-clock1.png
subject-02,1,454,0.792565107345581,bicycle,bicycle,0,0454_s5n_s02_0_bicycle_00_bicycle9-chair1.png
subject-02,1,455,0.946652173995972,truck,truck,0,0455_s5n_s02_0_truck_00_truck9-elephant1.png
subject-02,1,456,0.808007001876831,airplane,cat,0,0456_s5n_s02_0_cat_00_cat9-boat2.png
subject-02,1,457,0.845714092254639,clock,clock,0,0457_s5n_s02_0_clock_00_clock6-knife2.png
subject-02,1,458,NaN,na,cat,0,0458_s5n_s02_0_cat_00_cat3-oven2.png
subject-02,1,459,0.87820291519165,dog,dog,0,0459_s5n_s02_0_dog_00_dog1-airplane3.png
subject-02,1,460,1.199138879776,truck,truck,0,0460_s5n_s02_0_truck_00_truck9-truck3.png
subject-02,1,461,0.824098110198975,chair,chair,0,0461_s5n_s02_0_chair_00_chair6-bird2.png
subject-02,1,462,0.805773019790649,airplane,airplane,0,0462_s5n_s02_0_airplane_00_airplane7-bottle3.png
subject-02,1,463,1.33560419082642,chair,airplane,0,0463_s5n_s02_0_airplane_00_airplane10-knife3.png
subject-02,1,464,1.11315584182739,bird,airplane,0,0464_s5n_s02_0_airplane_00_airplane1-clock1.png
subject-02,1,465,0.871194124221802,bear,bear,0,0465_s5n_s02_0_bear_00_bear2-elephant1.png
subject-02,1,466,0.986889123916626,airplane,oven,0,0466_s5n_s02_0_oven_00_oven3-truck1.png
subject-02,1,467,1.34906792640686,airplane,airplane,0,0467_s5n_s02_0_airplane_00_airplane5-bottle3.png
subject-02,1,468,1.15665292739868,bird,airplane,0,0468_s5n_s02_0_airplane_00_airplane4-bottle1.png
subject-02,1,469,0.765213966369629,clock,clock,0,0469_s5n_s02_0_clock_00_clock8-truck2.png
subject-02,1,470,NaN,na,knife,0,0470_s5n_s02_0_knife_00_knife3-bear2.png
subject-02,1,471,0.685694217681885,oven,oven,0,0471_s5n_s02_0_oven_00_oven10-boat2.png
subject-02,1,472,1.06439614295959,bear,bear,0,0472_s5n_s02_0_bear_00_bear7-dog3.png
subject-02,1,473,0.777589082717896,chair,chair,0,0473_s5n_s02_0_chair_00_chair8-oven1.png
subject-02,1,474,0.917601108551025,elephant,elephant,0,0474_s5n_s02_0_elephant_00_elephant8-bird2.png
subject-02,1,475,0.892838954925537,car,car,0,0475_s5n_s02_0_car_00_car7-elephant3.png
subject-02,1,476,0.833180904388428,car,car,0,0476_s5n_s02_0_car_00_car4-boat1.png
subject-02,1,477,0.847043991088867,bicycle,bicycle,0,0477_s5n_s02_0_bicycle_00_bicycle7-clock3.png
subject-02,1,478,NaN,na,bird,0,0478_s5n_s02_0_bird_00_bird4-cat3.png
subject-02,1,479,0.863013982772827,dog,cat,0,0479_s5n_s02_0_cat_00_cat7-airplane2.png
subject-02,1,480,0.771211862564087,airplane,airplane,0,0480_s5n_s02_0_airplane_00_airplane4-bird3.png
subject-02,1,481,0.953838109970093,bird,knife,0,0481_s5n_s02_0_knife_00_knife7-bottle3.png
subject-02,1,482,0.695298910140991,clock,clock,0,0482_s5n_s02_0_clock_00_clock4-bird3.png
subject-02,1,483,1.04088616371155,elephant,elephant,0,0483_s5n_s02_0_elephant_00_elephant5-bottle2.png
subject-02,1,484,0.856668949127197,bottle,keyboard,0,0484_s5n_s02_0_keyboard_00_keyboard5-oven2.png
subject-02,1,485,0.880671977996826,chair,chair,0,0485_s5n_s02_0_chair_00_chair2-boat1.png
subject-02,1,486,0.909975051879883,bird,airplane,0,0486_s5n_s02_0_airplane_00_airplane3-clock1.png
subject-02,1,487,0.94270396232605,bicycle,bicycle,0,0487_s5n_s02_0_bicycle_00_bicycle6-boat2.png
subject-02,1,488,0.858343839645386,clock,clock,0,0488_s5n_s02_0_clock_00_clock8-chair2.png
subject-02,1,489,1.00405883789062,knife,bear,0,0489_s5n_s02_0_bear_00_bear10-keyboard3.png
subject-02,1,490,0.897743940353394,keyboard,boat,0,0490_s5n_s02_0_boat_00_boat4-car3.png
subject-02,1,491,0.796447038650513,truck,truck,0,0491_s5n_s02_0_truck_00_truck2-clock1.png
subject-02,1,492,1.15098595619202,dog,dog,0,0492_s5n_s02_0_dog_00_dog9-chair2.png
subject-02,1,493,0.966903924942017,car,car,0,0493_s5n_s02_0_car_00_car8-bicycle2.png
subject-02,1,494,0.937968015670776,airplane,airplane,0,0494_s5n_s02_0_airplane_00_airplane1-chair2.png
subject-02,1,495,1.08353185653687,bicycle,bicycle,0,0495_s5n_s02_0_bicycle_00_bicycle4-bottle1.png
subject-02,1,496,0.878026962280273,bottle,knife,0,0496_s5n_s02_0_knife_00_knife5-cat2.png
subject-02,1,497,0.790503025054932,car,car,0,0497_s5n_s02_0_car_00_car5-bear3.png
subject-02,1,498,0.822931051254272,bird,bird,0,0498_s5n_s02_0_bird_00_bird10-bird2.png
subject-02,1,499,0.823233127593994,boat,boat,0,0499_s5n_s02_0_boat_00_boat9-knife2.png
subject-02,1,500,1.40580296516418,elephant,elephant,0,0500_s5n_s02_0_elephant_00_elephant5-elephant1.png
subject-02,1,501,1.19835305213928,cat,cat,0,0501_s5n_s02_0_cat_00_cat2-car3.png
subject-02,1,502,0.829725980758667,bottle,bottle,0,0502_s5n_s02_0_bottle_00_bottle8-bicycle1.png
subject-02,1,503,0.929427146911621,elephant,elephant,0,0503_s5n_s02_0_elephant_00_elephant8-oven3.png
subject-02,1,504,0.691164016723633,boat,boat,0,0504_s5n_s02_0_boat_00_boat6-car1.png
subject-02,1,505,0.998751163482666,elephant,boat,0,0505_s5n_s02_0_boat_00_boat2-bear3.png
subject-02,1,506,0.681655168533325,boat,boat,0,0506_s5n_s02_0_boat_00_boat2-oven3.png
subject-02,1,507,1.06438779830933,knife,knife,0,0507_s5n_s02_0_knife_00_knife1-keyboard3.png
subject-02,1,508,1.17271494865417,elephant,keyboard,0,0508_s5n_s02_0_keyboard_00_keyboard9-elephant2.png
subject-02,1,509,1.39772915840149,chair,cat,0,0509_s5n_s02_0_cat_00_cat10-keyboard1.png
subject-02,1,510,1.34374904632568,oven,bottle,0,0510_s5n_s02_0_bottle_00_bottle7-cat2.png
subject-02,1,511,0.78863787651062,bicycle,bicycle,0,0511_s5n_s02_0_bicycle_00_bicycle6-car2.png
subject-02,1,512,1.00606203079224,bicycle,bicycle,0,0512_s5n_s02_0_bicycle_00_bicycle5-cat1.png
subject-02,1,513,1.14681601524353,dog,dog,0,0513_s5n_s02_0_dog_00_dog4-clock1.png
subject-02,1,514,0.617083072662354,bicycle,bicycle,0,0514_s5n_s02_0_bicycle_00_bicycle3-truck3.png
subject-02,1,515,0.64089298248291,clock,clock,0,0515_s5n_s02_0_clock_00_clock7-boat3.png
subject-02,1,516,0.680964946746826,bottle,bottle,0,0516_s5n_s02_0_bottle_00_bottle5-clock3.png
subject-02,1,517,0.889203071594238,elephant,elephant,0,0517_s5n_s02_0_elephant_00_elephant1-bear2.png
subject-02,1,518,1.04268407821655,elephant,boat,0,0518_s5n_s02_0_boat_00_boat8-elephant1.png
subject-02,1,519,0.729129076004028,bicycle,truck,0,0519_s5n_s02_0_truck_00_truck6-cat2.png
subject-02,1,520,0.674888849258423,cat,knife,0,0520_s5n_s02_0_knife_00_knife9-airplane2.png
subject-02,1,521,0.9285888671875,bottle,bottle,0,0521_s5n_s02_0_bottle_00_bottle1-cat3.png
subject-02,1,522,0.727581977844238,bicycle,bicycle,0,0522_s5n_s02_0_bicycle_00_bicycle5-dog2.png
subject-02,1,523,0.773131132125854,chair,dog,0,0523_s5n_s02_0_dog_00_dog6-truck2.png
subject-02,1,524,0.856683969497681,chair,knife,0,0524_s5n_s02_0_knife_00_knife10-chair1.png
subject-02,1,525,0.848077058792114,chair,chair,0,0525_s5n_s02_0_chair_00_chair1-bear1.png
subject-02,1,526,1.14146900177002,chair,chair,0,0526_s5n_s02_0_chair_00_chair10-cat1.png
subject-02,1,527,0.865139007568359,chair,dog,0,0527_s5n_s02_0_dog_00_dog1-chair1.png
subject-02,1,528,0.711934089660645,bird,bird,0,0528_s5n_s02_0_bird_00_bird1-knife3.png
subject-02,1,529,1.11120796203613,chair,elephant,0,0529_s5n_s02_0_elephant_00_elephant5-chair3.png
subject-02,1,530,1.20323300361633,knife,boat,0,0530_s5n_s02_0_boat_00_boat3-keyboard2.png
subject-02,1,531,0.75101900100708,clock,clock,0,0531_s5n_s02_0_clock_00_clock6-bottle1.png
subject-02,1,532,0.842309951782227,bear,bear,0,0532_s5n_s02_0_bear_00_bear8-elephant2.png
subject-02,1,533,0.904325008392334,keyboard,keyboard,0,0533_s5n_s02_0_keyboard_00_keyboard2-bicycle3.png
subject-02,1,534,1.4413800239563,bear,bear,0,0534_s5n_s02_0_bear_00_bear3-cat1.png
subject-02,1,535,0.859923839569092,keyboard,keyboard,0,0535_s5n_s02_0_keyboard_00_keyboard1-dog3.png
subject-02,1,536,1.00086092948914,bird,cat,0,0536_s5n_s02_0_cat_00_cat4-knife1.png
subject-02,1,537,0.587723016738892,clock,clock,0,0537_s5n_s02_0_clock_00_clock10-bottle1.png
subject-02,1,538,1.06372499465942,elephant,knife,0,0538_s5n_s02_0_knife_00_knife4-bear1.png
subject-02,1,539,0.836183071136475,bird,airplane,0,0539_s5n_s02_0_airplane_00_airplane4-cat3.png
subject-02,1,540,0.928440809249878,airplane,airplane,0,0540_s5n_s02_0_airplane_00_airplane9-knife3.png
subject-02,1,541,0.843076944351196,cat,bird,0,0541_s5n_s02_0_bird_00_bird8-boat3.png
subject-02,1,542,1.02684903144836,bird,elephant,0,0542_s5n_s02_0_elephant_00_elephant8-knife2.png
subject-02,1,543,0.896781921386719,boat,boat,0,0543_s5n_s02_0_boat_00_boat1-car2.png
subject-02,1,544,0.604892015457153,clock,clock,0,0544_s5n_s02_0_clock_00_clock10-boat2.png
subject-02,1,545,0.641748905181885,clock,clock,0,0545_s5n_s02_0_clock_00_clock3-bird1.png
subject-02,1,546,0.643809080123901,boat,boat,0,0546_s5n_s02_0_boat_00_boat9-dog2.png
subject-02,1,547,0.973506927490234,elephant,elephant,0,0547_s5n_s02_0_elephant_00_elephant4-oven1.png
subject-02,1,548,0.810402870178223,bicycle,bicycle,0,0548_s5n_s02_0_bicycle_00_bicycle2-bottle1.png
subject-02,1,549,0.735285997390747,oven,oven,0,0549_s5n_s02_0_oven_00_oven4-knife2.png
subject-02,1,550,0.666806936264038,boat,bear,0,0550_s5n_s02_0_bear_00_bear6-car2.png
subject-02,1,551,1.0805389881134,knife,boat,0,0551_s5n_s02_0_boat_00_boat6-truck3.png
subject-02,1,552,NaN,na,keyboard,0,0552_s5n_s02_0_keyboard_00_keyboard3-elephant2.png
subject-02,1,553,1.16535115242004,dog,dog,0,0553_s5n_s02_0_dog_00_dog5-bear3.png
subject-02,1,554,0.781692028045654,bear,bear,0,0554_s5n_s02_0_bear_00_bear5-airplane3.png
subject-02,1,555,0.719544172286987,chair,chair,0,0555_s5n_s02_0_chair_00_chair9-boat2.png
subject-02,1,556,1.02722883224487,knife,airplane,0,0556_s5n_s02_0_airplane_00_airplane10-bear3.png
subject-02,1,557,0.743188142776489,oven,oven,0,0557_s5n_s02_0_oven_00_oven3-knife1.png
subject-02,1,558,0.796658992767334,truck,truck,0,0558_s5n_s02_0_truck_00_truck2-elephant1.png
subject-02,1,559,0.863077163696289,bird,bird,0,0559_s5n_s02_0_bird_00_bird9-dog2.png
subject-02,1,560,0.984598875045776,airplane,cat,0,0560_s5n_s02_0_cat_00_cat9-bicycle1.png
subject-02,1,561,0.878600120544434,bird,bird,0,0561_s5n_s02_0_bird_00_bird3-bird2.png
subject-02,1,562,0.871548175811768,cat,cat,0,0562_s5n_s02_0_cat_00_cat7-elephant1.png
subject-02,1,563,0.756708860397339,chair,chair,0,0563_s5n_s02_0_chair_00_chair7-car2.png
subject-02,1,564,0.941018104553223,bird,bird,0,0564_s5n_s02_0_bird_00_bird3-dog1.png
subject-02,1,565,0.810802936553955,chair,chair,0,0565_s5n_s02_0_chair_00_chair8-car1.png
subject-02,1,566,0.694713830947876,car,car,0,0566_s5n_s02_0_car_00_car10-dog1.png
subject-02,1,567,0.84856104850769,truck,truck,0,0567_s5n_s02_0_truck_00_truck1-car3.png
subject-02,1,568,0.647396087646484,bottle,bottle,0,0568_s5n_s02_0_bottle_00_bottle2-bottle3.png
subject-02,1,569,0.677120923995972,oven,oven,0,0569_s5n_s02_0_oven_00_oven2-dog3.png
subject-02,1,570,1.1543140411377,dog,dog,0,0570_s5n_s02_0_dog_00_dog2-dog3.png
subject-02,1,571,0.984434127807617,truck,truck,0,0571_s5n_s02_0_truck_00_truck4-airplane3.png
subject-02,1,572,0.824231863021851,cat,cat,0,0572_s5n_s02_0_cat_00_cat7-clock3.png
subject-02,1,573,0.978606939315796,airplane,knife,0,0573_s5n_s02_0_knife_00_knife1-clock2.png
subject-02,1,574,0.869773864746094,elephant,elephant,0,0574_s5n_s02_0_elephant_00_elephant9-elephant3.png
subject-02,1,575,0.794110059738159,chair,knife,0,0575_s5n_s02_0_knife_00_knife9-chair1.png
subject-02,1,576,0.939924955368042,knife,airplane,0,0576_s5n_s02_0_airplane_00_airplane4-dog2.png
subject-02,1,577,0.701162815093994,clock,clock,0,0577_s5n_s02_0_clock_00_clock2-dog1.png
subject-02,1,578,0.952991962432861,chair,knife,0,0578_s5n_s02_0_knife_00_knife4-oven2.png
subject-02,1,579,0.862981081008911,clock,airplane,0,0579_s5n_s02_0_airplane_00_airplane4-truck2.png
subject-02,1,580,1.09364318847656,knife,knife,0,0580_s5n_s02_0_knife_00_knife1-oven1.png
subject-02,1,581,1.08744502067566,chair,chair,0,0581_s5n_s02_0_chair_00_chair8-boat1.png
subject-02,1,582,1.03310704231262,car,car,0,0582_s5n_s02_0_car_00_car3-truck1.png
subject-02,1,583,1.46167993545532,bicycle,bicycle,0,0583_s5n_s02_0_bicycle_00_bicycle4-airplane1.png
subject-02,1,584,1.07587599754333,dog,dog,0,0584_s5n_s02_0_dog_00_dog4-airplane3.png
subject-02,1,585,0.869071006774902,chair,chair,0,0585_s5n_s02_0_chair_00_chair7-elephant1.png
subject-02,1,586,0.790724039077759,chair,chair,0,0586_s5n_s02_0_chair_00_chair9-bottle3.png
subject-02,1,587,0.69321608543396,bottle,bottle,0,0587_s5n_s02_0_bottle_00_bottle8-elephant3.png
subject-02,1,588,0.627346038818359,clock,clock,0,0588_s5n_s02_0_clock_00_clock3-cat1.png
subject-02,1,589,0.766968011856079,cat,cat,0,0589_s5n_s02_0_cat_00_cat5-keyboard3.png
subject-02,1,590,0.791131019592285,bicycle,bicycle,0,0590_s5n_s02_0_bicycle_00_bicycle2-bird3.png
subject-02,1,591,0.867267847061157,bicycle,bicycle,0,0591_s5n_s02_0_bicycle_00_bicycle5-chair2.png
subject-02,1,592,0.844695091247559,car,car,0,0592_s5n_s02_0_car_00_car4-oven2.png
subject-02,1,593,0.828197002410889,car,car,0,0593_s5n_s02_0_car_00_car4-elephant3.png
subject-02,1,594,0.851953983306885,elephant,elephant,0,0594_s5n_s02_0_elephant_00_elephant8-bicycle3.png
subject-02,1,595,0.72776198387146,bear,bear,0,0595_s5n_s02_0_bear_00_bear8-bicycle3.png
subject-02,1,596,0.805552005767822,bird,bird,0,0596_s5n_s02_0_bird_00_bird9-chair1.png
subject-02,1,597,0.808685064315796,bottle,bottle,0,0597_s5n_s02_0_bottle_00_bottle5-cat1.png
subject-02,1,598,0.875976085662842,knife,knife,0,0598_s5n_s02_0_knife_00_knife6-bird1.png
subject-02,1,599,0.792237043380737,cat,cat,0,0599_s5n_s02_0_cat_00_cat5-airplane2.png
subject-02,1,600,0.76672101020813,airplane,airplane,0,0600_s5n_s02_0_airplane_00_airplane10-oven2.png
subject-02,1,601,0.891080856323242,truck,truck,0,0601_s5n_s02_0_truck_00_truck2-boat3.png
subject-02,1,602,0.961548089981079,bottle,airplane,0,0602_s5n_s02_0_airplane_00_airplane5-oven3.png
subject-02,1,603,1.16141605377197,elephant,elephant,0,0603_s5n_s02_0_elephant_00_elephant3-oven1.png
subject-02,1,604,0.678478956222534,car,car,0,0604_s5n_s02_0_car_00_car2-car3.png
subject-02,1,605,0.727694034576416,bicycle,bicycle,0,0605_s5n_s02_0_bicycle_00_bicycle4-bicycle3.png
subject-02,1,606,0.989158868789673,bicycle,bicycle,0,0606_s5n_s02_0_bicycle_00_bicycle1-clock3.png
subject-02,1,607,0.826905965805054,cat,cat,0,0607_s5n_s02_0_cat_00_cat7-truck2.png
subject-02,1,608,1.09699702262878,knife,knife,0,0608_s5n_s02_0_knife_00_knife3-knife1.png
subject-02,1,609,0.896610975265503,boat,dog,0,0609_s5n_s02_0_dog_00_dog2-knife3.png
subject-02,1,610,1.28843688964844,cat,bear,0,0610_s5n_s02_0_bear_00_bear5-bird1.png
subject-02,1,611,0.811899185180664,keyboard,keyboard,0,0611_s5n_s02_0_keyboard_00_keyboard8-oven1.png
subject-02,1,612,0.76308798789978,chair,chair,0,0612_s5n_s02_0_chair_00_chair9-chair3.png
subject-02,1,613,0.870221853256226,bottle,bottle,0,0613_s5n_s02_0_bottle_00_bottle6-chair2.png
subject-02,1,614,0.64494800567627,clock,clock,0,0614_s5n_s02_0_clock_00_clock6-truck3.png
subject-02,1,615,0.752928972244263,keyboard,keyboard,0,0615_s5n_s02_0_keyboard_00_keyboard6-boat2.png
subject-02,1,616,0.890614986419678,elephant,boat,0,0616_s5n_s02_0_boat_00_boat7-elephant3.png
subject-02,1,617,1.16802096366882,dog,dog,0,0617_s5n_s02_0_dog_00_dog10-bottle1.png
subject-02,1,618,1.12740802764893,truck,truck,0,0618_s5n_s02_0_truck_00_truck8-dog3.png
subject-02,1,619,0.77552604675293,elephant,elephant,0,0619_s5n_s02_0_elephant_00_elephant8-boat2.png
subject-02,1,620,0.85349702835083,boat,airplane,0,0620_s5n_s02_0_airplane_00_airplane7-car1.png
subject-02,1,621,0.762694120407104,elephant,airplane,0,0621_s5n_s02_0_airplane_00_airplane3-elephant1.png
subject-02,1,622,0.894712924957275,keyboard,keyboard,0,0622_s5n_s02_0_keyboard_00_keyboard1-airplane2.png
subject-02,1,623,0.694169044494629,oven,oven,0,0623_s5n_s02_0_oven_00_oven9-oven1.png
subject-02,1,624,1.07031416893005,chair,oven,0,0624_s5n_s02_0_oven_00_oven7-dog2.png
subject-02,1,625,0.939765930175781,bird,bird,0,0625_s5n_s02_0_bird_00_bird3-cat1.png
subject-02,1,626,1.30946111679077,cat,cat,0,0626_s5n_s02_0_cat_00_cat1-airplane1.png
subject-02,1,627,0.679427862167358,bottle,bottle,0,0627_s5n_s02_0_bottle_00_bottle5-oven2.png
subject-02,1,628,0.917495965957642,truck,truck,0,0628_s5n_s02_0_truck_00_truck10-truck3.png
subject-02,1,629,0.703662872314453,clock,clock,0,0629_s5n_s02_0_clock_00_clock7-keyboard2.png
subject-02,1,630,0.987542152404785,bottle,knife,0,0630_s5n_s02_0_knife_00_knife7-car2.png
subject-02,1,631,0.865216970443726,keyboard,keyboard,0,0631_s5n_s02_0_keyboard_00_keyboard7-bottle1.png
subject-02,1,632,0.88231086730957,bear,dog,0,0632_s5n_s02_0_dog_00_dog7-knife3.png
subject-02,1,633,NaN,na,bird,0,0633_s5n_s02_0_bird_00_bird2-dog2.png
subject-02,1,634,0.889060974121094,dog,dog,0,0634_s5n_s02_0_dog_00_dog6-bird1.png
subject-02,1,635,1.09800100326538,cat,cat,0,0635_s5n_s02_0_cat_00_cat2-truck3.png
subject-02,1,636,0.913372039794922,truck,truck,0,0636_s5n_s02_0_truck_00_truck6-dog2.png
subject-02,1,637,0.635049104690552,chair,knife,0,0637_s5n_s02_0_knife_00_knife6-chair3.png
subject-02,1,638,0.804563999176025,truck,truck,0,0638_s5n_s02_0_truck_00_truck4-bear1.png
subject-02,1,639,0.575240135192871,oven,oven,0,0639_s5n_s02_0_oven_00_oven2-bottle1.png
subject-02,1,640,0.774756908416748,bird,bird,0,0640_s5n_s02_0_bird_00_bird1-bear1.png
subject-02,1,641,1.16586399078369,dog,dog,0,0641_s5n_s02_0_dog_00_dog10-car3.png
subject-02,1,642,0.736164093017578,boat,boat,0,0642_s5n_s02_0_boat_00_boat2-airplane1.png
subject-02,1,643,0.789563894271851,bird,car,0,0643_s5n_s02_0_car_00_car9-bird1.png
subject-02,1,644,0.951061964035034,car,car,0,0644_s5n_s02_0_car_00_car6-elephant3.png
subject-02,1,645,1.12170696258545,truck,cat,0,0645_s5n_s02_0_cat_00_cat10-oven2.png
subject-02,1,646,0.875289916992188,elephant,boat,0,0646_s5n_s02_0_boat_00_boat1-elephant3.png
subject-02,1,647,0.813665151596069,car,car,0,0647_s5n_s02_0_car_00_car3-bird2.png
subject-02,1,648,0.905050992965698,bird,bird,0,0648_s5n_s02_0_bird_00_bird10-clock1.png
subject-02,1,649,0.953456878662109,bottle,bottle,0,0649_s5n_s02_0_bottle_00_bottle3-airplane2.png
subject-02,1,650,0.907435894012451,keyboard,keyboard,0,0650_s5n_s02_0_keyboard_00_keyboard6-bottle2.png
subject-02,1,651,0.882251024246216,bottle,bottle,0,0651_s5n_s02_0_bottle_00_bottle10-clock2.png
subject-02,1,652,0.893500089645386,car,car,0,0652_s5n_s02_0_car_00_car7-airplane2.png
subject-02,1,653,1.06089115142822,bird,bird,0,0653_s5n_s02_0_bird_00_bird3-oven1.png
subject-02,1,654,1.23041105270386,elephant,elephant,0,0654_s5n_s02_0_elephant_00_elephant7-car3.png
subject-02,1,655,0.766768932342529,bottle,bottle,0,0655_s5n_s02_0_bottle_00_bottle2-knife3.png
subject-02,1,656,0.766967058181763,car,car,0,0656_s5n_s02_0_car_00_car6-chair3.png
subject-02,1,657,1.22877192497253,elephant,elephant,0,0657_s5n_s02_0_elephant_00_elephant9-clock3.png
subject-02,1,658,0.944878816604614,chair,bear,0,0658_s5n_s02_0_bear_00_bear6-boat3.png
subject-02,1,659,1.50021982192993,keyboard,boat,0,0659_s5n_s02_0_boat_00_boat2-keyboard1.png
subject-02,1,660,0.820985078811646,keyboard,oven,0,0660_s5n_s02_0_oven_00_oven8-keyboard3.png
subject-02,1,661,0.990195035934448,knife,knife,0,0661_s5n_s02_0_knife_00_knife1-airplane1.png
subject-02,1,662,1.04154801368713,bird,boat,0,0662_s5n_s02_0_boat_00_boat10-bear3.png
subject-02,1,663,0.865927934646606,bird,bird,0,0663_s5n_s02_0_bird_00_bird10-cat1.png
subject-02,1,664,1.21112489700317,truck,truck,0,0664_s5n_s02_0_truck_00_truck2-car3.png
subject-02,1,665,0.756288051605225,bottle,bottle,0,0665_s5n_s02_0_bottle_00_bottle3-bottle3.png
subject-02,1,666,0.545882940292358,clock,clock,0,0666_s5n_s02_0_clock_00_clock6-clock2.png
subject-02,1,667,0.905583143234253,truck,truck,0,0667_s5n_s02_0_truck_00_truck8-cat2.png
subject-02,1,668,0.799926996231079,cat,cat,0,0668_s5n_s02_0_cat_00_cat3-cat1.png
subject-02,1,669,0.937689065933228,elephant,elephant,0,0669_s5n_s02_0_elephant_00_elephant9-airplane2.png
subject-02,1,670,1.23726391792297,elephant,car,0,0670_s5n_s02_0_car_00_car10-elephant2.png
subject-02,1,671,0.770303964614868,truck,truck,0,0671_s5n_s02_0_truck_00_truck5-car1.png
subject-02,1,672,1.12340879440308,clock,clock,0,0672_s5n_s02_0_clock_00_clock9-keyboard2.png
subject-02,1,673,0.792249917984009,car,dog,0,0673_s5n_s02_0_dog_00_dog5-truck2.png
subject-02,1,674,0.870312929153442,bottle,boat,0,0674_s5n_s02_0_boat_00_boat7-truck2.png
subject-02,1,675,1.08610200881958,keyboard,truck,0,0675_s5n_s02_0_truck_00_truck7-keyboard3.png
subject-02,1,676,0.731241941452026,bottle,bottle,0,0676_s5n_s02_0_bottle_00_bottle2-elephant1.png
subject-02,1,677,0.718167066574097,car,car,0,0677_s5n_s02_0_car_00_car9-clock2.png
subject-02,1,678,0.800307989120483,chair,chair,0,0678_s5n_s02_0_chair_00_chair8-keyboard3.png
subject-02,1,679,1.20067691802979,bicycle,dog,0,0679_s5n_s02_0_dog_00_dog7-chair2.png
subject-02,1,680,0.892760038375854,cat,cat,0,0680_s5n_s02_0_cat_00_cat4-oven1.png
subject-02,1,681,0.821528911590576,bird,bird,0,0681_s5n_s02_0_bird_00_bird4-airplane1.png
subject-02,1,682,1.01244401931763,truck,truck,0,0682_s5n_s02_0_truck_00_truck1-knife1.png
subject-02,1,683,0.829281806945801,bird,airplane,0,0683_s5n_s02_0_airplane_00_airplane7-cat3.png
subject-02,1,684,0.782712936401367,elephant,elephant,0,0684_s5n_s02_0_elephant_00_elephant8-airplane3.png
subject-02,1,685,0.936192989349365,chair,chair,0,0685_s5n_s02_0_chair_00_chair8-chair3.png
subject-02,1,686,0.882056951522827,elephant,keyboard,0,0686_s5n_s02_0_keyboard_00_keyboard6-elephant1.png
subject-02,1,687,1.39044690132141,bird,clock,0,0687_s5n_s02_0_clock_00_clock10-cat1.png
subject-02,1,688,0.752106189727783,keyboard,keyboard,0,0688_s5n_s02_0_keyboard_00_keyboard6-car2.png
subject-02,1,689,0.651486158370972,cat,cat,0,0689_s5n_s02_0_cat_00_cat9-knife2.png
subject-02,1,690,0.859546899795532,dog,dog,0,0690_s5n_s02_0_dog_00_dog1-dog2.png
subject-02,1,691,0.888917922973633,elephant,bear,0,0691_s5n_s02_0_bear_00_bear7-bicycle2.png
subject-02,1,692,0.804996967315674,bird,airplane,0,0692_s5n_s02_0_airplane_00_airplane5-boat3.png
subject-02,1,693,0.650830030441284,cat,cat,0,0693_s5n_s02_0_cat_00_cat6-clock3.png
subject-02,1,694,0.691215038299561,bird,bear,0,0694_s5n_s02_0_bear_00_bear1-bicycle3.png
subject-02,1,695,0.874574184417725,knife,knife,0,0695_s5n_s02_0_knife_00_knife8-car2.png
subject-02,1,696,0.706684112548828,cat,cat,0,0696_s5n_s02_0_cat_00_cat5-dog3.png
subject-02,1,697,1.05284810066223,bird,knife,0,0697_s5n_s02_0_knife_00_knife3-clock2.png
subject-02,1,698,0.923846006393433,boat,airplane,0,0698_s5n_s02_0_airplane_00_airplane3-airplane2.png
subject-02,1,699,0.739336967468262,boat,boat,0,0699_s5n_s02_0_boat_00_boat4-chair2.png
subject-02,1,700,0.887619972229004,car,boat,0,0700_s5n_s02_0_boat_00_boat4-knife2.png
subject-02,1,701,1.05024909973145,bear,bear,0,0701_s5n_s02_0_bear_00_bear3-chair2.png
subject-02,1,702,0.771660089492798,chair,oven,0,0702_s5n_s02_0_oven_00_oven7-clock2.png
subject-02,1,703,0.941914081573486,oven,oven,0,0703_s5n_s02_0_oven_00_oven9-keyboard1.png
subject-02,1,704,1.11136317253113,elephant,elephant,0,0704_s5n_s02_0_elephant_00_elephant6-cat2.png
subject-02,1,705,1.07126498222351,chair,bottle,0,0705_s5n_s02_0_bottle_00_bottle7-bear1.png
subject-02,1,706,0.687364816665649,bird,bird,0,0706_s5n_s02_0_bird_00_bird8-bottle1.png
subject-02,1,707,0.911050081253052,airplane,airplane,0,0707_s5n_s02_0_airplane_00_airplane7-boat2.png
subject-02,1,708,0.988566875457764,elephant,elephant,0,0708_s5n_s02_0_elephant_00_elephant7-knife2.png
subject-02,1,709,1.44925093650818,bird,bird,0,0709_s5n_s02_0_bird_00_bird7-keyboard3.png
subject-02,1,710,0.664535045623779,bottle,bottle,0,0710_s5n_s02_0_bottle_00_bottle10-bear2.png
subject-02,1,711,1.01872897148132,knife,knife,0,0711_s5n_s02_0_knife_00_knife6-truck1.png
subject-02,1,712,0.643347978591919,oven,oven,0,0712_s5n_s02_0_oven_00_oven3-clock3.png
subject-02,1,713,0.721212863922119,bird,bear,0,0713_s5n_s02_0_bear_00_bear10-knife2.png
subject-02,1,714,0.736975908279419,bicycle,bicycle,0,0714_s5n_s02_0_bicycle_00_bicycle4-oven3.png
subject-02,1,715,0.638041973114014,oven,oven,0,0715_s5n_s02_0_oven_00_oven2-truck3.png
subject-02,1,716,0.982806921005249,bottle,bottle,0,0716_s5n_s02_0_bottle_00_bottle1-chair2.png
subject-02,1,717,0.790390968322754,knife,knife,0,0717_s5n_s02_0_knife_00_knife7-boat3.png
subject-02,1,718,0.675690174102783,bird,bird,0,0718_s5n_s02_0_bird_00_bird8-keyboard2.png
subject-02,1,719,0.930031061172485,knife,airplane,0,0719_s5n_s02_0_airplane_00_airplane8-bird1.png
subject-02,1,720,0.653752088546753,bottle,bottle,0,0720_s5n_s02_0_bottle_00_bottle3-bicycle3.png
subject-02,1,721,1.10776495933533,dog,dog,0,0721_s5n_s02_0_dog_00_dog9-airplane3.png
subject-02,1,722,0.825200796127319,bottle,bottle,0,0722_s5n_s02_0_bottle_00_bottle10-truck3.png
subject-02,1,723,0.632312059402466,clock,clock,0,0723_s5n_s02_0_clock_00_clock4-boat3.png
subject-02,1,724,0.886240005493164,boat,boat,0,0724_s5n_s02_0_boat_00_boat5-car3.png
subject-02,1,725,0.806169033050537,bicycle,bicycle,0,0725_s5n_s02_0_bicycle_00_bicycle1-bird1.png
subject-02,1,726,0.89797306060791,boat,boat,0,0726_s5n_s02_0_boat_00_boat9-bear3.png
subject-02,1,727,0.68452000617981,clock,clock,0,0727_s5n_s02_0_clock_00_clock3-keyboard3.png
subject-02,1,728,1.22204995155334,chair,dog,0,0728_s5n_s02_0_dog_00_dog2-airplane2.png
subject-02,1,729,0.769883871078491,oven,oven,0,0729_s5n_s02_0_oven_00_oven10-oven3.png
subject-02,1,730,0.816840887069702,elephant,elephant,0,0730_s5n_s02_0_elephant_00_elephant7-dog1.png
subject-02,1,731,0.872994184494019,truck,truck,0,0731_s5n_s02_0_truck_00_truck7-boat1.png
subject-02,1,732,0.957552909851074,car,car,0,0732_s5n_s02_0_car_00_car8-cat1.png
subject-02,1,733,0.835320949554443,bird,cat,0,0733_s5n_s02_0_cat_00_cat4-car2.png
subject-02,1,734,0.956277847290039,dog,dog,0,0734_s5n_s02_0_dog_00_dog5-oven1.png
subject-02,1,735,0.996868848800659,cat,cat,0,0735_s5n_s02_0_cat_00_cat4-clock2.png
subject-02,1,736,0.858336925506592,elephant,elephant,0,0736_s5n_s02_0_elephant_00_elephant1-keyboard3.png
subject-02,1,737,1.10975193977356,knife,bottle,0,0737_s5n_s02_0_bottle_00_bottle1-keyboard3.png
subject-02,1,738,0.749404907226562,bottle,bottle,0,0738_s5n_s02_0_bottle_00_bottle2-chair3.png
subject-02,1,739,0.870648145675659,elephant,elephant,0,0739_s5n_s02_0_elephant_00_elephant6-dog2.png
subject-02,1,740,0.711176872253418,cat,cat,0,0740_s5n_s02_0_cat_00_cat7-boat3.png
subject-02,1,741,0.994720935821533,elephant,airplane,0,0741_s5n_s02_0_airplane_00_airplane10-elephant1.png
subject-02,1,742,0.797706127166748,cat,cat,0,0742_s5n_s02_0_cat_00_cat1-chair2.png
subject-02,1,743,0.935281991958618,bottle,bottle,0,0743_s5n_s02_0_bottle_00_bottle6-airplane1.png
subject-02,1,744,0.859400033950806,bird,bird,0,0744_s5n_s02_0_bird_00_bird4-dog3.png
subject-02,1,745,0.88130784034729,oven,oven,0,0745_s5n_s02_0_oven_00_oven3-boat3.png
subject-02,1,746,0.805284023284912,oven,oven,0,0746_s5n_s02_0_oven_00_oven1-boat3.png
subject-02,1,747,0.913465023040771,keyboard,knife,0,0747_s5n_s02_0_knife_00_knife2-cat3.png
subject-02,1,748,1.42151284217834,bear,elephant,0,0748_s5n_s02_0_elephant_00_elephant4-bird1.png
subject-02,1,749,NaN,na,knife,0,0749_s5n_s02_0_knife_00_knife9-bicycle1.png
subject-02,1,750,0.895420074462891,chair,chair,0,0750_s5n_s02_0_chair_00_chair10-bottle3.png
subject-02,1,751,1.06523489952087,airplane,airplane,0,0751_s5n_s02_0_airplane_00_airplane9-boat1.png
subject-02,1,752,0.857133865356445,chair,boat,0,0752_s5n_s02_0_boat_00_boat1-truck3.png
subject-02,1,753,1.10202288627625,bear,bear,0,0753_s5n_s02_0_bear_00_bear3-keyboard2.png
subject-02,1,754,1.01073384284973,bicycle,bicycle,0,0754_s5n_s02_0_bicycle_00_bicycle6-bicycle3.png
subject-02,1,755,0.904435873031616,truck,truck,0,0755_s5n_s02_0_truck_00_truck5-dog3.png
subject-02,1,756,1.01041293144226,keyboard,airplane,0,0756_s5n_s02_0_airplane_00_airplane8-chair1.png
subject-02,1,757,1.15745306015015,bear,bear,0,0757_s5n_s02_0_bear_00_bear7-clock1.png
subject-02,1,758,1.04997897148132,keyboard,keyboard,0,0758_s5n_s02_0_keyboard_00_keyboard3-boat1.png
subject-02,1,759,1.50028991699219,bicycle,bicycle,0,0759_s5n_s02_0_bicycle_00_bicycle9-airplane2.png
subject-02,1,760,0.657050132751465,cat,cat,0,0760_s5n_s02_0_cat_00_cat4-bird2.png
subject-02,1,761,0.886588096618652,truck,truck,0,0761_s5n_s02_0_truck_00_truck6-oven3.png
subject-02,1,762,0.934921026229858,bird,bird,0,0762_s5n_s02_0_bird_00_bird6-boat2.png
subject-02,1,763,0.989032030105591,airplane,airplane,0,0763_s5n_s02_0_airplane_00_airplane9-truck1.png
subject-02,1,764,0.958898067474365,car,car,0,0764_s5n_s02_0_car_00_car7-car1.png
subject-02,1,765,0.650138854980469,clock,clock,0,0765_s5n_s02_0_clock_00_clock7-dog2.png
subject-02,1,766,1.4715039730072,boat,boat,0,0766_s5n_s02_0_boat_00_boat3-clock3.png
subject-02,1,767,1.32605695724487,truck,truck,0,0767_s5n_s02_0_truck_00_truck1-dog1.png
subject-02,1,768,0.811464071273804,clock,clock,0,0768_s5n_s02_0_clock_00_clock9-cat1.png
subject-02,1,769,1.49999785423279,knife,knife,0,0769_s5n_s02_0_knife_00_knife9-bird1.png
subject-02,1,770,0.844795942306519,clock,clock,0,0770_s5n_s02_0_clock_00_clock4-car2.png
subject-02,1,771,0.807067155838013,oven,oven,0,0771_s5n_s02_0_oven_00_oven9-bird3.png
subject-02,1,772,0.907481908798218,elephant,elephant,0,0772_s5n_s02_0_elephant_00_elephant6-car3.png
subject-02,1,773,0.871754884719849,bottle,airplane,0,0773_s5n_s02_0_airplane_00_airplane6-bottle2.png
subject-02,1,774,1.17785096168518,keyboard,bird,0,0774_s5n_s02_0_bird_00_bird2-car3.png
subject-02,1,775,1.00855898857117,cat,cat,0,0775_s5n_s02_0_cat_00_cat9-dog2.png
subject-02,1,776,0.979511022567749,bear,bear,0,0776_s5n_s02_0_bear_00_bear5-boat2.png
subject-02,1,777,1.0308940410614,bicycle,dog,0,0777_s5n_s02_0_dog_00_dog7-car2.png
subject-02,1,778,0.800671815872192,clock,clock,0,0778_s5n_s02_0_clock_00_clock10-oven2.png
subject-02,1,779,0.863049030303955,bird,bird,0,0779_s5n_s02_0_bird_00_bird5-airplane3.png
subject-02,1,780,1.40847682952881,oven,oven,0,0780_s5n_s02_0_oven_00_oven5-dog3.png
subject-02,1,781,1.3085081577301,dog,bear,0,0781_s5n_s02_0_bear_00_bear10-car2.png
subject-02,1,782,NaN,na,bottle,0,0782_s5n_s02_0_bottle_00_bottle7-elephant2.png
subject-02,1,783,0.677819967269897,clock,clock,0,0783_s5n_s02_0_clock_00_clock5-elephant2.png
subject-02,1,784,0.83951210975647,keyboard,keyboard,0,0784_s5n_s02_0_keyboard_00_keyboard6-bicycle1.png
subject-02,1,785,0.755300998687744,oven,oven,0,0785_s5n_s02_0_oven_00_oven6-truck1.png
subject-02,1,786,0.768853902816772,truck,truck,0,0786_s5n_s02_0_truck_00_truck1-cat1.png
subject-02,1,787,0.86780309677124,car,car,0,0787_s5n_s02_0_car_00_car9-keyboard2.png
subject-02,1,788,0.637742042541504,chair,chair,0,0788_s5n_s02_0_chair_00_chair3-bicycle3.png
subject-02,1,789,0.853908777236938,bottle,bottle,0,0789_s5n_s02_0_bottle_00_bottle10-dog1.png
subject-02,1,790,0.880789995193481,bottle,keyboard,0,0790_s5n_s02_0_keyboard_00_keyboard4-bottle2.png
subject-02,1,791,0.960584878921509,knife,knife,0,0791_s5n_s02_0_knife_00_knife2-bear2.png
subject-02,1,792,0.738569021224976,chair,chair,0,0792_s5n_s02_0_chair_00_chair10-airplane2.png
subject-02,1,793,0.898248910903931,bear,bear,0,0793_s5n_s02_0_bear_00_bear2-airplane1.png
subject-02,1,794,0.905411005020142,keyboard,keyboard,0,0794_s5n_s02_0_keyboard_00_keyboard3-bird3.png
subject-02,1,795,0.714092016220093,clock,clock,0,0795_s5n_s02_0_clock_00_clock8-bear2.png
subject-02,1,796,1.23000907897949,elephant,elephant,0,0796_s5n_s02_0_elephant_00_elephant6-bottle2.png
subject-02,1,797,1.31313991546631,keyboard,keyboard,0,0797_s5n_s02_0_keyboard_00_keyboard10-car1.png
subject-02,1,798,1.01073503494263,car,car,0,0798_s5n_s02_0_car_00_car5-keyboard3.png
subject-02,1,799,0.727019071578979,elephant,knife,0,0799_s5n_s02_0_knife_00_knife7-elephant2.png
subject-02,1,800,1.10342717170715,dog,dog,0,0800_s5n_s02_0_dog_00_dog10-bicycle1.png
subject-02,1,801,1.04303503036499,keyboard,boat,0,0801_s5n_s02_0_boat_00_boat1-bird3.png
subject-02,1,802,0.756425142288208,bicycle,bicycle,0,0802_s5n_s02_0_bicycle_00_bicycle2-keyboard2.png
subject-02,1,803,0.818275928497314,bear,bear,0,0803_s5n_s02_0_bear_00_bear8-knife3.png
subject-02,1,804,1.22531819343567,bear,bear,0,0804_s5n_s02_0_bear_00_bear4-knife1.png
subject-02,1,805,1.23354601860046,elephant,knife,0,0805_s5n_s02_0_knife_00_knife9-elephant2.png
subject-02,1,806,0.773905038833618,chair,chair,0,0806_s5n_s02_0_chair_00_chair9-bear1.png
subject-02,1,807,0.665643215179443,cat,cat,0,0807_s5n_s02_0_cat_00_cat1-bird1.png
subject-02,1,808,0.927313089370728,car,car,0,0808_s5n_s02_0_car_00_car9-knife1.png
subject-02,1,809,0.688432931900024,bottle,bottle,0,0809_s5n_s02_0_bottle_00_bottle8-knife1.png
subject-02,1,810,0.934723854064941,bottle,bottle,0,0810_s5n_s02_0_bottle_00_bottle7-clock1.png
subject-02,1,811,1.12130284309387,bird,dog,0,0811_s5n_s02_0_dog_00_dog1-car2.png
subject-02,1,812,0.804380893707275,chair,chair,0,0812_s5n_s02_0_chair_00_chair7-bird1.png
subject-02,1,813,0.834115982055664,chair,chair,0,0813_s5n_s02_0_chair_00_chair4-bear2.png
subject-02,1,814,0.687634944915771,bottle,bottle,0,0814_s5n_s02_0_bottle_00_bottle4-oven2.png
subject-02,1,815,0.732744932174683,car,car,0,0815_s5n_s02_0_car_00_car5-truck3.png
subject-02,1,816,0.648152112960815,keyboard,keyboard,0,0816_s5n_s02_0_keyboard_00_keyboard7-knife1.png
subject-02,1,817,1.10949802398682,elephant,elephant,0,0817_s5n_s02_0_elephant_00_elephant1-boat2.png
subject-02,1,818,0.633125066757202,bicycle,bicycle,0,0818_s5n_s02_0_bicycle_00_bicycle4-clock3.png
subject-02,1,819,0.539025068283081,cat,cat,0,0819_s5n_s02_0_cat_00_cat7-dog3.png
subject-02,1,820,0.765841007232666,bear,bear,0,0820_s5n_s02_0_bear_00_bear4-cat3.png
subject-02,1,821,0.641026973724365,boat,boat,0,0821_s5n_s02_0_boat_00_boat8-knife1.png
subject-02,1,822,0.940712928771973,airplane,airplane,0,0822_s5n_s02_0_airplane_00_airplane1-elephant1.png
subject-02,1,823,0.740764141082764,oven,oven,0,0823_s5n_s02_0_oven_00_oven3-bottle3.png
subject-02,1,824,0.818112134933472,boat,boat,0,0824_s5n_s02_0_boat_00_boat5-boat3.png
subject-02,1,825,0.771696090698242,boat,boat,0,0825_s5n_s02_0_boat_00_boat5-bicycle3.png
subject-02,1,826,0.933758020401001,airplane,airplane,0,0826_s5n_s02_0_airplane_00_airplane6-knife1.png
subject-02,1,827,0.658190965652466,bottle,bottle,0,0827_s5n_s02_0_bottle_00_bottle10-boat3.png
subject-02,1,828,0.680010080337524,oven,oven,0,0828_s5n_s02_0_oven_00_oven8-knife2.png
subject-02,1,829,0.933701038360596,chair,dog,0,0829_s5n_s02_0_dog_00_dog8-keyboard3.png
subject-02,1,830,0.99556303024292,bicycle,bicycle,0,0830_s5n_s02_0_bicycle_00_bicycle8-bird2.png
subject-02,1,831,1.03357195854187,dog,dog,0,0831_s5n_s02_0_dog_00_dog1-bear1.png
subject-02,1,832,0.782264947891235,bottle,bottle,0,0832_s5n_s02_0_bottle_00_bottle2-clock1.png
subject-02,1,833,0.873497009277344,airplane,airplane,0,0833_s5n_s02_0_airplane_00_airplane7-keyboard1.png
subject-02,1,834,0.667593955993652,clock,clock,0,0834_s5n_s02_0_clock_00_clock10-clock3.png
subject-02,1,835,0.898185968399048,dog,dog,0,0835_s5n_s02_0_dog_00_dog2-bicycle2.png
subject-02,1,836,0.759984970092773,chair,chair,0,0836_s5n_s02_0_chair_00_chair7-chair1.png
subject-02,1,837,0.884428024291992,cat,bear,0,0837_s5n_s02_0_bear_00_bear10-cat2.png
subject-02,1,838,0.592355966567993,clock,clock,0,0838_s5n_s02_0_clock_00_clock4-oven1.png
subject-02,1,839,0.708361864089966,oven,oven,0,0839_s5n_s02_0_oven_00_oven1-dog3.png
subject-02,1,840,0.954402923583984,dog,dog,0,0840_s5n_s02_0_dog_00_dog8-clock2.png
subject-02,1,841,0.862566947937012,oven,oven,0,0841_s5n_s02_0_oven_00_oven9-airplane2.png
subject-02,1,842,0.734598875045776,oven,oven,0,0842_s5n_s02_0_oven_00_oven10-bear1.png
subject-02,1,843,0.84047794342041,cat,bear,0,0843_s5n_s02_0_bear_00_bear4-keyboard3.png
subject-02,1,844,1.00975608825684,keyboard,keyboard,0,0844_s5n_s02_0_keyboard_00_keyboard4-cat2.png
subject-02,1,845,0.771322965621948,clock,clock,0,0845_s5n_s02_0_clock_00_clock7-truck3.png
subject-02,1,846,0.9166259765625,chair,chair,0,0846_s5n_s02_0_chair_00_chair3-bottle3.png
subject-02,1,847,1.04045510292053,cat,bird,0,0847_s5n_s02_0_bird_00_bird5-bird1.png
subject-02,1,848,0.978314161300659,elephant,bear,0,0848_s5n_s02_0_bear_00_bear7-truck1.png
subject-02,1,849,1.11603498458862,knife,bird,0,0849_s5n_s02_0_bird_00_bird6-truck2.png
subject-02,1,850,0.915930032730103,elephant,elephant,0,0850_s5n_s02_0_elephant_00_elephant8-clock2.png
subject-02,1,851,0.685717821121216,clock,clock,0,0851_s5n_s02_0_clock_00_clock8-oven3.png
subject-02,1,852,1.00154089927673,bear,bear,0,0852_s5n_s02_0_bear_00_bear1-bear3.png
subject-02,1,853,0.847429990768433,airplane,airplane,0,0853_s5n_s02_0_airplane_00_airplane5-bird2.png
subject-02,1,854,1.09264612197876,dog,dog,0,0854_s5n_s02_0_dog_00_dog3-boat1.png
subject-02,1,855,0.732043981552124,knife,knife,0,0855_s5n_s02_0_knife_00_knife10-knife1.png
subject-02,1,856,0.839564085006714,chair,chair,0,0856_s5n_s02_0_chair_00_chair4-truck2.png
subject-02,1,857,0.89870285987854,knife,knife,0,0857_s5n_s02_0_knife_00_knife1-chair1.png
subject-02,1,858,0.992215871810913,bicycle,bicycle,0,0858_s5n_s02_0_bicycle_00_bicycle6-cat1.png
subject-02,1,859,0.791659832000732,chair,dog,0,0859_s5n_s02_0_dog_00_dog5-knife2.png
subject-02,1,860,1.1584939956665,chair,chair,0,0860_s5n_s02_0_chair_00_chair5-knife3.png
subject-02,1,861,0.950131893157959,truck,truck,0,0861_s5n_s02_0_truck_00_truck1-chair2.png
subject-02,1,862,0.970108985900879,bicycle,bicycle,0,0862_s5n_s02_0_bicycle_00_bicycle5-car3.png
subject-02,1,863,1.03171801567078,truck,truck,0,0863_s5n_s02_0_truck_00_truck6-boat2.png
subject-02,1,864,0.831163883209229,chair,chair,0,0864_s5n_s02_0_chair_00_chair4-oven2.png
subject-02,1,865,1.06931614875793,keyboard,cat,0,0865_s5n_s02_0_cat_00_cat3-truck3.png
subject-02,1,866,1.06913995742798,knife,knife,0,0866_s5n_s02_0_knife_00_knife8-bottle3.png
subject-02,1,867,1.34681701660156,airplane,airplane,0,0867_s5n_s02_0_airplane_00_airplane7-airplane3.png
subject-02,1,868,0.854564905166626,oven,oven,0,0868_s5n_s02_0_oven_00_oven4-clock2.png
subject-02,1,869,0.595024108886719,keyboard,keyboard,0,0869_s5n_s02_0_keyboard_00_keyboard5-dog3.png
subject-02,1,870,1.00868511199951,clock,clock,0,0870_s5n_s02_0_clock_00_clock2-bicycle1.png
subject-02,1,871,0.732628107070923,boat,boat,0,0871_s5n_s02_0_boat_00_boat10-truck1.png
subject-02,1,872,1.12425899505615,car,car,0,0872_s5n_s02_0_car_00_car7-bird3.png
subject-02,1,873,0.869255781173706,bicycle,bicycle,0,0873_s5n_s02_0_bicycle_00_bicycle3-elephant2.png
subject-02,1,874,0.771931886672974,car,car,0,0874_s5n_s02_0_car_00_car3-boat1.png
subject-02,1,875,0.942886829376221,keyboard,keyboard,0,0875_s5n_s02_0_keyboard_00_keyboard7-bear2.png
subject-02,1,876,0.920917987823486,bird,bear,0,0876_s5n_s02_0_bear_00_bear6-bird2.png
subject-02,1,877,1.42108392715454,car,keyboard,0,0877_s5n_s02_0_keyboard_00_keyboard9-keyboard2.png
subject-02,1,878,0.852723121643066,bear,bear,0,0878_s5n_s02_0_bear_00_bear5-bicycle3.png
subject-02,1,879,1.05789995193481,truck,truck,0,0879_s5n_s02_0_truck_00_truck6-clock2.png
subject-02,1,880,0.952543973922729,keyboard,keyboard,0,0880_s5n_s02_0_keyboard_00_keyboard1-bear2.png
subject-02,1,881,0.881531000137329,bear,bear,0,0881_s5n_s02_0_bear_00_bear4-truck3.png
subject-02,1,882,1.00653696060181,bicycle,bicycle,0,0882_s5n_s02_0_bicycle_00_bicycle7-bicycle2.png
subject-02,1,883,1.03016805648804,knife,knife,0,0883_s5n_s02_0_knife_00_knife4-keyboard1.png
subject-02,1,884,0.976222991943359,bird,bird,0,0884_s5n_s02_0_bird_00_bird5-oven3.png
subject-02,1,885,1.50024485588074,airplane,knife,0,0885_s5n_s02_0_knife_00_knife2-bicycle3.png
subject-02,1,886,1.00014710426331,chair,chair,0,0886_s5n_s02_0_chair_00_chair7-truck3.png
subject-02,1,887,0.802676200866699,truck,truck,0,0887_s5n_s02_0_truck_00_truck7-bear2.png
subject-02,1,888,0.770272970199585,bicycle,bicycle,0,0888_s5n_s02_0_bicycle_00_bicycle4-chair2.png
subject-02,1,889,1.29398918151855,knife,knife,0,0889_s5n_s02_0_knife_00_knife8-cat2.png
subject-02,1,890,0.831841230392456,cat,cat,0,0890_s5n_s02_0_cat_00_cat10-bird2.png
subject-02,1,891,0.885233879089355,chair,keyboard,0,0891_s5n_s02_0_keyboard_00_keyboard7-chair3.png
subject-02,1,892,0.950102806091309,truck,truck,0,0892_s5n_s02_0_truck_00_truck5-bird2.png
subject-02,1,893,0.925388813018799,knife,knife,0,0893_s5n_s02_0_knife_00_knife5-knife3.png
subject-02,1,894,1.10262894630432,truck,truck,0,0894_s5n_s02_0_truck_00_truck10-elephant3.png
subject-02,1,895,0.856076955795288,oven,oven,0,0895_s5n_s02_0_oven_00_oven3-car2.png
subject-02,1,896,0.940009117126465,keyboard,keyboard,0,0896_s5n_s02_0_keyboard_00_keyboard9-bicycle2.png
subject-02,1,897,0.955918073654175,elephant,elephant,0,0897_s5n_s02_0_elephant_00_elephant5-car1.png
subject-02,1,898,1.22603797912598,keyboard,keyboard,0,0898_s5n_s02_0_keyboard_00_keyboard7-car3.png
subject-02,1,899,0.743094921112061,clock,clock,0,0899_s5n_s02_0_clock_00_clock6-oven1.png
subject-02,1,900,0.990748167037964,truck,truck,0,0900_s5n_s02_0_truck_00_truck3-bicycle1.png
subject-02,1,901,0.807069063186646,clock,clock,0,0901_s5n_s02_0_clock_00_clock6-bicycle1.png
subject-02,1,902,0.891103982925415,bicycle,bicycle,0,0902_s5n_s02_0_bicycle_00_bicycle5-elephant1.png
subject-02,1,903,1.50018405914307,knife,boat,0,0903_s5n_s02_0_boat_00_boat1-keyboard3.png
subject-02,1,904,0.946336030960083,keyboard,keyboard,0,0904_s5n_s02_0_keyboard_00_keyboard6-chair1.png
subject-02,1,905,1.50008201599121,chair,keyboard,0,0905_s5n_s02_0_keyboard_00_keyboard10-keyboard1.png
subject-02,1,906,0.900917053222656,elephant,elephant,0,0906_s5n_s02_0_elephant_00_elephant2-airplane3.png
subject-02,1,907,0.884918928146362,chair,oven,0,0907_s5n_s02_0_oven_00_oven7-bottle1.png
subject-02,1,908,0.900727987289429,elephant,bear,0,0908_s5n_s02_0_bear_00_bear7-oven3.png
subject-02,1,909,1.21637606620789,car,car,0,0909_s5n_s02_0_car_00_car2-cat3.png
subject-02,1,910,0.711595058441162,boat,boat,0,0910_s5n_s02_0_boat_00_boat9-keyboard2.png
subject-02,1,911,0.84410285949707,elephant,elephant,0,0911_s5n_s02_0_elephant_00_elephant3-cat2.png
subject-02,1,912,1.111328125,chair,chair,0,0912_s5n_s02_0_chair_00_chair10-oven1.png
subject-02,1,913,0.497122049331665,clock,clock,0,0913_s5n_s02_0_clock_00_clock2-clock3.png
subject-02,1,914,1.18839192390442,boat,boat,0,0914_s5n_s02_0_boat_00_boat4-elephant2.png
subject-02,1,915,1.02039790153503,car,car,0,0915_s5n_s02_0_car_00_car9-bicycle2.png
subject-02,1,916,1.2992479801178,elephant,elephant,0,0916_s5n_s02_0_elephant_00_elephant6-oven1.png
subject-02,1,917,0.806792020797729,chair,oven,0,0917_s5n_s02_0_oven_00_oven5-keyboard2.png
subject-02,1,918,0.852775812149048,car,car,0,0918_s5n_s02_0_car_00_car8-truck3.png
subject-02,1,919,0.805434942245483,bird,bird,0,0919_s5n_s02_0_bird_00_bird8-knife2.png
subject-02,1,920,0.813632965087891,bird,bird,0,0920_s5n_s02_0_bird_00_bird5-keyboard2.png
subject-02,1,921,1.05859398841858,truck,truck,0,0921_s5n_s02_0_truck_00_truck6-bear2.png
subject-02,1,922,0.858158111572266,bottle,bottle,0,0922_s5n_s02_0_bottle_00_bottle9-keyboard1.png
subject-02,1,923,0.696312189102173,clock,clock,0,0923_s5n_s02_0_clock_00_clock5-keyboard1.png
subject-02,1,924,0.774193048477173,bird,bird,0,0924_s5n_s02_0_bird_00_bird5-car2.png
subject-02,1,925,0.914562940597534,chair,chair,0,0925_s5n_s02_0_chair_00_chair10-car2.png
subject-02,1,926,0.981971979141235,truck,truck,0,0926_s5n_s02_0_truck_00_truck7-oven2.png
subject-02,1,927,0.697319030761719,chair,chair,0,0927_s5n_s02_0_chair_00_chair5-oven2.png
subject-02,1,928,0.964861869812012,clock,clock,0,0928_s5n_s02_0_clock_00_clock4-bottle3.png
subject-02,1,929,1.22849297523499,dog,dog,0,0929_s5n_s02_0_dog_00_dog3-clock1.png
subject-02,1,930,0.65338397026062,oven,oven,0,0930_s5n_s02_0_oven_00_oven10-truck2.png
subject-02,1,931,0.894311904907227,cat,cat,0,0931_s5n_s02_0_cat_00_cat9-cat3.png
subject-02,1,932,0.802351951599121,clock,oven,0,0932_s5n_s02_0_oven_00_oven3-cat2.png
subject-02,1,933,0.771726131439209,car,car,0,0933_s5n_s02_0_car_00_car8-boat3.png
subject-02,1,934,0.656013011932373,chair,oven,0,0934_s5n_s02_0_oven_00_oven7-oven1.png
subject-02,1,935,0.679670095443726,bear,bear,0,0935_s5n_s02_0_bear_00_bear8-bear1.png
subject-02,1,936,0.682833909988403,chair,chair,0,0936_s5n_s02_0_chair_00_chair5-car1.png
subject-02,1,937,NaN,na,elephant,0,0937_s5n_s02_0_elephant_00_elephant5-bicycle3.png
subject-02,1,938,0.761295080184937,dog,dog,0,0938_s5n_s02_0_dog_00_dog1-cat3.png
subject-02,1,939,0.776739120483398,truck,truck,0,0939_s5n_s02_0_truck_00_truck7-chair2.png
subject-02,1,940,1.20622396469116,dog,dog,0,0940_s5n_s02_0_dog_00_dog8-boat3.png
subject-02,1,941,1.15430784225464,knife,knife,0,0941_s5n_s02_0_knife_00_knife4-boat1.png
subject-02,1,942,0.822268962860107,clock,clock,0,0942_s5n_s02_0_clock_00_clock8-boat1.png
subject-02,1,943,0.938393115997314,cat,dog,0,0943_s5n_s02_0_dog_00_dog4-truck2.png
subject-02,1,944,1.02867579460144,chair,truck,0,0944_s5n_s02_0_truck_00_truck3-bear3.png
subject-02,1,945,0.960935115814209,truck,knife,0,0945_s5n_s02_0_knife_00_knife8-truck3.png
subject-02,1,946,1.2928249835968,bicycle,bicycle,0,0946_s5n_s02_0_bicycle_00_bicycle1-elephant2.png
subject-02,1,947,1.00184297561646,car,car,0,0947_s5n_s02_0_car_00_car10-bottle3.png
subject-02,1,948,0.796283006668091,bottle,bottle,0,0948_s5n_s02_0_bottle_00_bottle4-truck1.png
subject-02,1,949,0.717504978179932,bicycle,bicycle,0,0949_s5n_s02_0_bicycle_00_bicycle7-knife2.png
subject-02,1,950,1.04973888397217,car,car,0,0950_s5n_s02_0_car_00_car7-keyboard3.png
subject-02,1,951,0.749736070632935,clock,clock,0,0951_s5n_s02_0_clock_00_clock10-knife3.png
subject-02,1,952,0.974370002746582,airplane,airplane,0,0952_s5n_s02_0_airplane_00_airplane4-boat3.png
subject-02,1,953,0.922399044036865,truck,truck,0,0953_s5n_s02_0_truck_00_truck2-chair1.png
subject-02,1,954,1.30667805671692,knife,bottle,0,0954_s5n_s02_0_bottle_00_bottle7-keyboard2.png
subject-02,1,955,0.860437154769897,cat,cat,0,0955_s5n_s02_0_cat_00_cat5-boat1.png
subject-02,1,956,1.35206413269043,bear,dog,0,0956_s5n_s02_0_dog_00_dog3-elephant2.png
subject-02,1,957,1.32990908622742,bottle,bottle,0,0957_s5n_s02_0_bottle_00_bottle1-clock1.png
subject-02,1,958,0.821461915969849,bottle,bottle,0,0958_s5n_s02_0_bottle_00_bottle7-airplane3.png
subject-02,1,959,0.545437097549438,clock,clock,0,0959_s5n_s02_0_clock_00_clock4-airplane1.png
subject-02,1,960,0.9774169921875,keyboard,keyboard,0,0960_s5n_s02_0_keyboard_00_keyboard10-oven3.png
subject-02,1,961,0.831264972686768,chair,chair,0,0961_s5n_s02_0_chair_00_chair5-bicycle1.png
subject-02,1,962,0.592774152755737,boat,boat,0,0962_s5n_s02_0_boat_00_boat9-bird1.png
subject-02,1,963,0.96840500831604,bear,bear,0,0963_s5n_s02_0_bear_00_bear2-bird3.png
subject-02,1,964,0.830060958862305,elephant,elephant,0,0964_s5n_s02_0_elephant_00_elephant7-bear3.png
subject-02,1,965,0.808729887008667,car,car,0,0965_s5n_s02_0_car_00_car8-chair1.png
subject-02,1,966,1.0791609287262,car,car,0,0966_s5n_s02_0_car_00_car8-airplane3.png
subject-02,1,967,0.915961980819702,boat,airplane,0,0967_s5n_s02_0_airplane_00_airplane10-boat3.png
subject-02,1,968,0.693386077880859,car,car,0,0968_s5n_s02_0_car_00_car7-oven2.png
subject-02,1,969,1.01747798919678,oven,keyboard,0,0969_s5n_s02_0_keyboard_00_keyboard10-truck1.png
subject-02,1,970,0.632789134979248,clock,clock,0,0970_s5n_s02_0_clock_00_clock3-bicycle2.png
subject-02,1,971,0.624427795410156,cat,cat,0,0971_s5n_s02_0_cat_00_cat9-chair2.png
subject-02,1,972,0.85418701171875,car,car,0,0972_s5n_s02_0_car_00_car5-bottle1.png
subject-02,1,973,0.829946041107178,chair,chair,0,0973_s5n_s02_0_chair_00_chair5-boat3.png
subject-02,1,974,0.670133829116821,truck,truck,0,0974_s5n_s02_0_truck_00_truck1-clock3.png
subject-02,1,975,0.640685081481934,cat,cat,0,0975_s5n_s02_0_cat_00_cat1-boat1.png
subject-02,1,976,0.872267961502075,dog,dog,0,0976_s5n_s02_0_dog_00_dog8-oven3.png
subject-02,1,977,0.810030937194824,chair,oven,0,0977_s5n_s02_0_oven_00_oven6-airplane3.png
subject-02,1,978,0.717904090881348,bottle,bottle,0,0978_s5n_s02_0_bottle_00_bottle6-knife3.png
subject-02,1,979,1.33417510986328,bear,bear,0,0979_s5n_s02_0_bear_00_bear1-bird2.png
subject-02,1,980,0.771447896957397,elephant,airplane,0,0980_s5n_s02_0_airplane_00_airplane2-bear1.png
subject-02,1,981,1.05750608444214,airplane,boat,0,0981_s5n_s02_0_boat_00_boat1-oven1.png
subject-02,1,982,0.765745162963867,bottle,bottle,0,0982_s5n_s02_0_bottle_00_bottle8-dog2.png
subject-02,1,983,0.564846992492676,clock,clock,0,0983_s5n_s02_0_clock_00_clock3-car2.png
subject-02,1,984,0.949096202850342,truck,oven,0,0984_s5n_s02_0_oven_00_oven7-keyboard1.png
subject-02,1,985,0.618070125579834,clock,clock,0,0985_s5n_s02_0_clock_00_clock3-elephant3.png
subject-02,1,986,0.734078168869019,chair,oven,0,0986_s5n_s02_0_oven_00_oven7-cat1.png
subject-02,1,987,1.1171510219574,airplane,airplane,0,0987_s5n_s02_0_airplane_00_airplane2-dog1.png
subject-02,1,988,0.903525829315186,bicycle,bicycle,0,0988_s5n_s02_0_bicycle_00_bicycle8-bear2.png
subject-02,1,989,0.687461853027344,keyboard,keyboard,0,0989_s5n_s02_0_keyboard_00_keyboard9-boat2.png
subject-02,1,990,0.836108207702637,dog,bottle,0,0990_s5n_s02_0_bottle_00_bottle9-truck1.png
subject-02,1,991,0.960776090621948,keyboard,airplane,0,0991_s5n_s02_0_airplane_00_airplane4-knife1.png
subject-02,1,992,1.05221199989319,elephant,bird,0,0992_s5n_s02_0_bird_00_bird10-elephant2.png
subject-02,1,993,0.713887929916382,bird,bird,0,0993_s5n_s02_0_bird_00_bird2-knife1.png
subject-02,1,994,0.629163980484009,oven,oven,0,0994_s5n_s02_0_oven_00_oven5-bottle3.png
subject-02,1,995,0.634414911270142,bicycle,bicycle,0,0995_s5n_s02_0_bicycle_00_bicycle9-bottle1.png
subject-02,1,996,1.35810995101929,truck,truck,0,0996_s5n_s02_0_truck_00_truck4-oven2.png
subject-02,1,997,1.11732506752014,bear,bear,0,0997_s5n_s02_0_bear_00_bear8-boat2.png
subject-02,1,998,0.857908010482788,keyboard,keyboard,0,0998_s5n_s02_0_keyboard_00_keyboard6-dog2.png
subject-02,1,999,0.651392936706543,bird,bird,0,0999_s5n_s02_0_bird_00_bird10-bicycle1.png
subject-02,1,1000,1.3699779510498,knife,knife,0,1000_s5n_s02_0_knife_00_knife5-clock1.png
subject-02,1,1001,0.893273830413818,truck,truck,0,1001_s5n_s02_0_truck_00_truck5-truck1.png
subject-02,1,1002,0.863702058792114,bicycle,bicycle,0,1002_s5n_s02_0_bicycle_00_bicycle3-bird1.png
subject-02,1,1003,1.12541103363037,elephant,elephant,0,1003_s5n_s02_0_elephant_00_elephant1-oven2.png
subject-02,1,1004,0.87181282043457,dog,dog,0,1004_s5n_s02_0_dog_00_dog10-clock1.png
subject-02,1,1005,1.11694121360779,truck,truck,0,1005_s5n_s02_0_truck_00_truck3-car3.png
subject-02,1,1006,0.948645830154419,chair,elephant,0,1006_s5n_s02_0_elephant_00_elephant3-chair1.png
subject-02,1,1007,0.741018056869507,bicycle,bicycle,0,1007_s5n_s02_0_bicycle_00_bicycle2-dog1.png
subject-02,1,1008,0.918407917022705,chair,chair,0,1008_s5n_s02_0_chair_00_chair2-knife1.png
subject-02,1,1009,1.01769304275513,dog,dog,0,1009_s5n_s02_0_dog_00_dog5-boat3.png
subject-02,1,1010,0.787243127822876,bicycle,bicycle,0,1010_s5n_s02_0_bicycle_00_bicycle9-knife3.png
subject-02,1,1011,0.757124900817871,chair,oven,0,1011_s5n_s02_0_oven_00_oven4-dog1.png
subject-02,1,1012,0.687708139419556,bird,bird,0,1012_s5n_s02_0_bird_00_bird5-bicycle1.png
subject-02,1,1013,0.819395065307617,bird,bird,0,1013_s5n_s02_0_bird_00_bird1-oven1.png
subject-02,1,1014,0.873212099075317,bear,bear,0,1014_s5n_s02_0_bear_00_bear8-bottle1.png
subject-02,1,1015,0.889202833175659,bicycle,bicycle,0,1015_s5n_s02_0_bicycle_00_bicycle1-chair1.png
subject-02,1,1016,0.634785175323486,cat,cat,0,1016_s5n_s02_0_cat_00_cat8-bird2.png
subject-02,1,1017,0.689442873001099,cat,cat,0,1017_s5n_s02_0_cat_00_cat5-elephant2.png
subject-02,1,1018,0.582811832427979,cat,bear,0,1018_s5n_s02_0_bear_00_bear6-bear1.png
subject-02,1,1019,0.62868595123291,chair,chair,0,1019_s5n_s02_0_chair_00_chair1-oven3.png
subject-02,1,1020,0.727828025817871,elephant,elephant,0,1020_s5n_s02_0_elephant_00_elephant9-bicycle2.png
subject-02,1,1021,0.790453910827637,knife,knife,0,1021_s5n_s02_0_knife_00_knife8-bicycle1.png
subject-02,1,1022,0.582749128341675,cat,cat,0,1022_s5n_s02_0_cat_00_cat1-car2.png
subject-02,1,1023,0.776761054992676,bird,bird,0,1023_s5n_s02_0_bird_00_bird5-bear3.png
subject-02,1,1024,0.638986110687256,bicycle,bicycle,0,1024_s5n_s02_0_bicycle_00_bicycle10-elephant2.png
subject-02,1,1025,0.743113040924072,bird,bird,0,1025_s5n_s02_0_bird_00_bird7-knife2.png
subject-02,1,1026,0.666296005249023,airplane,airplane,0,1026_s5n_s02_0_airplane_00_airplane10-airplane1.png
subject-02,1,1027,0.629057884216309,bottle,bottle,0,1027_s5n_s02_0_bottle_00_bottle5-boat1.png
subject-02,1,1028,0.991244077682495,car,car,0,1028_s5n_s02_0_car_00_car7-dog3.png
subject-02,1,1029,0.860507011413574,dog,dog,0,1029_s5n_s02_0_dog_00_dog8-bottle2.png
subject-02,1,1030,0.590272903442383,oven,oven,0,1030_s5n_s02_0_oven_00_oven10-bicycle1.png
subject-02,1,1031,0.605684995651245,cat,cat,0,1031_s5n_s02_0_cat_00_cat6-oven1.png
subject-02,1,1032,0.800225973129272,keyboard,keyboard,0,1032_s5n_s02_0_keyboard_00_keyboard5-cat1.png
subject-02,1,1033,0.854335069656372,truck,truck,0,1033_s5n_s02_0_truck_00_truck4-bottle2.png
subject-02,1,1034,0.840077877044678,airplane,airplane,0,1034_s5n_s02_0_airplane_00_airplane3-oven1.png
subject-02,1,1035,0.831622123718262,clock,clock,0,1035_s5n_s02_0_clock_00_clock4-elephant2.png
subject-02,1,1036,1.23131585121155,dog,dog,0,1036_s5n_s02_0_dog_00_dog5-elephant1.png
subject-02,1,1037,0.74722695350647,cat,airplane,0,1037_s5n_s02_0_airplane_00_airplane4-bear3.png
subject-02,1,1038,0.709841012954712,clock,clock,0,1038_s5n_s02_0_clock_00_clock8-keyboard1.png
subject-02,1,1039,0.82551097869873,airplane,airplane,0,1039_s5n_s02_0_airplane_00_airplane2-bicycle1.png
subject-02,1,1040,0.71094799041748,bottle,bottle,0,1040_s5n_s02_0_bottle_00_bottle4-airplane1.png
subject-02,1,1041,0.907605171203613,cat,oven,0,1041_s5n_s02_0_oven_00_oven9-knife3.png
subject-02,1,1042,0.623494148254395,cat,cat,0,1042_s5n_s02_0_cat_00_cat5-bicycle3.png
subject-02,1,1043,0.698344945907593,bicycle,bicycle,0,1043_s5n_s02_0_bicycle_00_bicycle1-bicycle3.png
subject-02,1,1044,0.815078973770142,knife,knife,0,1044_s5n_s02_0_knife_00_knife9-bear3.png
subject-02,1,1045,1.2342529296875,keyboard,boat,0,1045_s5n_s02_0_boat_00_boat1-bicycle2.png
subject-02,1,1046,1.01712322235107,dog,dog,0,1046_s5n_s02_0_dog_00_dog6-elephant2.png
subject-02,1,1047,0.963844060897827,chair,oven,0,1047_s5n_s02_0_oven_00_oven8-chair1.png
subject-02,1,1048,0.879323959350586,dog,dog,0,1048_s5n_s02_0_dog_00_dog10-dog1.png
subject-02,1,1049,0.879219055175781,truck,truck,0,1049_s5n_s02_0_truck_00_truck8-elephant1.png
subject-02,1,1050,0.580944061279297,clock,clock,0,1050_s5n_s02_0_clock_00_clock8-knife1.png
subject-02,1,1051,0.93996000289917,cat,airplane,0,1051_s5n_s02_0_airplane_00_airplane4-airplane1.png
subject-02,1,1052,0.864737987518311,bear,bear,0,1052_s5n_s02_0_bear_00_bear1-airplane3.png
subject-02,1,1053,0.618101835250854,oven,oven,0,1053_s5n_s02_0_oven_00_oven2-car1.png
subject-02,1,1054,0.734452962875366,clock,clock,0,1054_s5n_s02_0_clock_00_clock6-bird3.png
subject-02,1,1055,0.865339040756226,keyboard,keyboard,0,1055_s5n_s02_0_keyboard_00_keyboard5-keyboard1.png
subject-02,1,1056,0.906679153442383,knife,knife,0,1056_s5n_s02_0_knife_00_knife4-cat2.png
subject-02,1,1057,0.776582002639771,boat,boat,0,1057_s5n_s02_0_boat_00_boat3-cat3.png
subject-02,1,1058,0.706665992736816,oven,oven,0,1058_s5n_s02_0_oven_00_oven6-elephant2.png
subject-02,1,1059,0.876877069473267,cat,dog,0,1059_s5n_s02_0_dog_00_dog4-chair1.png
subject-02,1,1060,0.676416873931885,elephant,elephant,0,1060_s5n_s02_0_elephant_00_elephant2-elephant3.png
subject-02,1,1061,1.22436213493347,elephant,elephant,0,1061_s5n_s02_0_elephant_00_elephant1-chair1.png
subject-02,1,1062,0.824358940124512,car,car,0,1062_s5n_s02_0_car_00_car4-bear3.png
subject-02,1,1063,1.00745415687561,bear,bear,0,1063_s5n_s02_0_bear_00_bear4-elephant2.png
subject-02,1,1064,1.03112483024597,elephant,bear,0,1064_s5n_s02_0_bear_00_bear10-clock1.png
subject-02,1,1065,0.68646502494812,car,car,0,1065_s5n_s02_0_car_00_car7-boat3.png
subject-02,1,1066,0.584410190582275,oven,oven,0,1066_s5n_s02_0_oven_00_oven6-oven3.png
subject-02,1,1067,1.13088297843933,knife,keyboard,0,1067_s5n_s02_0_keyboard_00_keyboard7-oven2.png
subject-02,1,1068,0.794905185699463,keyboard,knife,0,1068_s5n_s02_0_knife_00_knife6-dog2.png
subject-02,1,1069,1.03726506233215,elephant,elephant,0,1069_s5n_s02_0_elephant_00_elephant7-cat1.png
subject-02,1,1070,0.793869972229004,bird,bird,0,1070_s5n_s02_0_bird_00_bird1-airplane2.png
subject-02,1,1071,0.560817956924438,clock,clock,0,1071_s5n_s02_0_clock_00_clock7-cat2.png
subject-02,1,1072,0.708747148513794,chair,chair,0,1072_s5n_s02_0_chair_00_chair1-clock2.png
subject-02,1,1073,1.22996497154236,elephant,elephant,0,1073_s5n_s02_0_elephant_00_elephant3-truck1.png
subject-02,1,1074,1.5001699924469,bird,cat,0,1074_s5n_s02_0_cat_00_cat9-truck1.png
subject-02,1,1075,0.799520015716553,cat,elephant,0,1075_s5n_s02_0_elephant_00_elephant2-keyboard3.png
subject-02,1,1076,0.831110000610352,truck,truck,0,1076_s5n_s02_0_truck_00_truck3-oven2.png
subject-02,1,1077,0.993278026580811,knife,knife,0,1077_s5n_s02_0_knife_00_knife8-boat1.png
subject-02,1,1078,1.03100204467773,chair,chair,0,1078_s5n_s02_0_chair_00_chair5-truck3.png
subject-02,1,1079,0.785075902938843,bottle,bottle,0,1079_s5n_s02_0_bottle_00_bottle6-bicycle3.png
subject-02,1,1080,0.762458086013794,bear,bear,0,1080_s5n_s02_0_bear_00_bear5-chair1.png
subject-02,1,1081,1.0480170249939,knife,keyboard,0,1081_s5n_s02_0_keyboard_00_keyboard3-clock3.png
subject-02,1,1082,0.840335130691528,cat,cat,0,1082_s5n_s02_0_cat_00_cat1-cat3.png
subject-02,1,1083,0.947168827056885,car,car,0,1083_s5n_s02_0_car_00_car9-cat1.png
subject-02,1,1084,0.855509996414185,bear,bear,0,1084_s5n_s02_0_bear_00_bear9-bottle2.png
subject-02,1,1085,0.932948112487793,dog,dog,0,1085_s5n_s02_0_dog_00_dog3-keyboard1.png
subject-02,1,1086,0.878941059112549,knife,knife,0,1086_s5n_s02_0_knife_00_knife10-dog1.png
subject-02,1,1087,0.862091064453125,bear,bear,0,1087_s5n_s02_0_bear_00_bear5-bottle1.png
subject-02,1,1088,1.47213315963745,keyboard,airplane,0,1088_s5n_s02_0_airplane_00_airplane3-car1.png
subject-02,1,1089,0.718697786331177,bottle,bottle,0,1089_s5n_s02_0_bottle_00_bottle3-chair3.png
subject-02,1,1090,0.650896787643433,bear,bear,0,1090_s5n_s02_0_bear_00_bear2-oven1.png
subject-02,1,1091,0.850513219833374,clock,clock,0,1091_s5n_s02_0_clock_00_clock1-bear1.png
subject-02,1,1092,0.93435001373291,bicycle,bicycle,0,1092_s5n_s02_0_bicycle_00_bicycle2-knife2.png
subject-02,1,1093,0.974333047866821,truck,truck,0,1093_s5n_s02_0_truck_00_truck2-keyboard1.png
subject-02,1,1094,0.897849082946777,knife,knife,0,1094_s5n_s02_0_knife_00_knife5-dog1.png
