subj,session,trial,rt,object_response,category,condition,imagename
subject-01,1,1,1.13377118110657,bird,bird,0,0001_s5n_s01_0_bird_00_bird3-bird2.png
subject-01,1,2,0.868025064468384,bird,bird,0,0002_s5n_s01_0_bird_00_bird2-clock3.png
subject-01,1,3,0.930462837219238,dog,dog,0,0003_s5n_s01_0_dog_00_dog10-bicycle1.png
subject-01,1,4,0.971063852310181,truck,truck,0,0004_s5n_s01_0_truck_00_truck6-boat2.png
subject-01,1,5,1.50009393692017,bear,bear,0,0005_s5n_s01_0_bear_00_bear2-car2.png
subject-01,1,6,0.906111001968384,elephant,elephant,0,0006_s5n_s01_0_elephant_00_elephant8-bird2.png
subject-01,1,7,0.692492008209229,bicycle,bicycle,0,0007_s5n_s01_0_bicycle_00_bicycle8-truck1.png
subject-01,1,8,1.45508980751038,elephant,knife,0,0008_s5n_s01_0_knife_00_knife10-elephant3.png
subject-01,1,9,0.865622997283936,airplane,airplane,0,0009_s5n_s01_0_airplane_00_airplane1-clock1.png
subject-01,1,10,0.690077066421509,bear,bear,0,0010_s5n_s01_0_bear_00_bear1-chair2.png
subject-01,1,11,0.892450094223022,bear,bear,0,0011_s5n_s01_0_bear_00_bear4-boat2.png
subject-01,1,12,1.47679805755615,bicycle,chair,0,0012_s5n_s01_0_chair_00_chair3-knife1.png
subject-01,1,13,0.855170965194702,cat,dog,0,0013_s5n_s01_0_dog_00_dog4-bicycle1.png
subject-01,1,14,0.795859098434448,keyboard,truck,0,0014_s5n_s01_0_truck_00_truck7-keyboard3.png
subject-01,1,15,0.760445117950439,chair,chair,0,0015_s5n_s01_0_chair_00_chair5-clock2.png
subject-01,1,16,1.02264380455017,bear,boat,0,0016_s5n_s01_0_boat_00_boat3-dog3.png
subject-01,1,17,0.703196048736572,cat,cat,0,0017_s5n_s01_0_cat_00_cat1-bird1.png
subject-01,1,18,1.2655508518219,airplane,airplane,0,0018_s5n_s01_0_airplane_00_airplane5-bicycle1.png
subject-01,1,19,0.968167066574097,airplane,knife,0,0019_s5n_s01_0_knife_00_knife4-airplane3.png
subject-01,1,20,1.10066294670105,airplane,airplane,0,0020_s5n_s01_0_airplane_00_airplane5-oven3.png
subject-01,1,21,1.44121408462524,bicycle,cat,0,0021_s5n_s01_0_cat_00_cat3-truck3.png
subject-01,1,22,1.1116771697998,boat,boat,0,0022_s5n_s01_0_boat_00_boat6-bear1.png
subject-01,1,23,0.836051940917969,chair,chair,0,0023_s5n_s01_0_chair_00_chair8-elephant1.png
subject-01,1,24,0.946773052215576,chair,chair,0,0024_s5n_s01_0_chair_00_chair7-cat1.png
subject-01,1,25,1.14740109443665,clock,clock,0,0025_s5n_s01_0_clock_00_clock10-knife3.png
subject-01,1,26,0.979617118835449,clock,clock,0,0026_s5n_s01_0_clock_00_clock8-boat1.png
subject-01,1,27,0.790172815322876,keyboard,keyboard,0,0027_s5n_s01_0_keyboard_00_keyboard9-bird1.png
subject-01,1,28,1.10642790794373,bear,bear,0,0028_s5n_s01_0_bear_00_bear3-bird3.png
subject-01,1,29,0.962863922119141,knife,knife,0,0029_s5n_s01_0_knife_00_knife10-dog1.png
subject-01,1,30,0.995290040969849,knife,boat,0,0030_s5n_s01_0_boat_00_boat1-bird3.png
subject-01,1,31,1.50020599365234,clock,clock,0,0031_s5n_s01_0_clock_00_clock8-keyboard1.png
subject-01,1,32,1.27641797065735,bicycle,bicycle,0,0032_s5n_s01_0_bicycle_00_bicycle7-elephant2.png
subject-01,1,33,0.92277193069458,bicycle,airplane,0,0033_s5n_s01_0_airplane_00_airplane2-dog1.png
subject-01,1,34,0.795485019683838,chair,chair,0,0034_s5n_s01_0_chair_00_chair5-keyboard2.png
subject-01,1,35,0.911772012710571,bear,bird,0,0035_s5n_s01_0_bird_00_bird10-elephant2.png
subject-01,1,36,1.0224289894104,elephant,elephant,0,0036_s5n_s01_0_elephant_00_elephant1-car3.png
subject-01,1,37,1.36289215087891,bicycle,boat,0,0037_s5n_s01_0_boat_00_boat10-boat3.png
subject-01,1,38,0.771328926086426,dog,dog,0,0038_s5n_s01_0_dog_00_dog8-dog3.png
subject-01,1,39,1.46598792076111,bird,bird,0,0039_s5n_s01_0_bird_00_bird3-knife3.png
subject-01,1,40,0.984498023986816,clock,clock,0,0040_s5n_s01_0_clock_00_clock2-knife1.png
subject-01,1,41,0.970862150192261,bicycle,elephant,0,0041_s5n_s01_0_elephant_00_elephant2-keyboard3.png
subject-01,1,42,0.773180961608887,bottle,bottle,0,0042_s5n_s01_0_bottle_00_bottle3-cat3.png
subject-01,1,43,0.851714849472046,knife,airplane,0,0043_s5n_s01_0_airplane_00_airplane7-bird3.png
subject-01,1,44,0.784297943115234,keyboard,oven,0,0044_s5n_s01_0_oven_00_oven9-car2.png
subject-01,1,45,1.22442698478699,clock,clock,0,0045_s5n_s01_0_clock_00_clock1-clock2.png
subject-01,1,46,1.32497811317444,airplane,knife,0,0046_s5n_s01_0_knife_00_knife5-keyboard3.png
subject-01,1,47,1.25764393806458,truck,truck,0,0047_s5n_s01_0_truck_00_truck1-car3.png
subject-01,1,48,0.889822006225586,dog,dog,0,0048_s5n_s01_0_dog_00_dog2-airplane2.png
subject-01,1,49,0.900552034378052,bear,bear,0,0049_s5n_s01_0_bear_00_bear3-truck3.png
subject-01,1,50,0.887104034423828,bear,elephant,0,0050_s5n_s01_0_elephant_00_elephant6-bird1.png
subject-01,1,51,0.727447032928467,bottle,bottle,0,0051_s5n_s01_0_bottle_00_bottle5-keyboard2.png
subject-01,1,52,0.951908826828003,keyboard,keyboard,0,0052_s5n_s01_0_keyboard_00_keyboard5-cat1.png
subject-01,1,53,NaN,na,oven,0,0053_s5n_s01_0_oven_00_oven10-oven3.png
subject-01,1,54,1.02434611320496,airplane,airplane,0,0054_s5n_s01_0_airplane_00_airplane7-airplane3.png
subject-01,1,55,0.740628957748413,chair,chair,0,0055_s5n_s01_0_chair_00_chair9-bottle3.png
subject-01,1,56,0.873569965362549,chair,chair,0,0056_s5n_s01_0_chair_00_chair2-bear2.png
subject-01,1,57,0.790030002593994,bottle,bottle,0,0057_s5n_s01_0_bottle_00_bottle9-car3.png
subject-01,1,58,1.34632301330566,clock,clock,0,0058_s5n_s01_0_clock_00_clock1-boat3.png
subject-01,1,59,0.817102193832397,truck,truck,0,0059_s5n_s01_0_truck_00_truck7-bear2.png
subject-01,1,60,1.02737593650818,keyboard,truck,0,0060_s5n_s01_0_truck_00_truck4-oven2.png
subject-01,1,61,1.46786904335022,car,car,0,0061_s5n_s01_0_car_00_car10-car1.png
subject-01,1,62,1.29236817359924,bicycle,knife,0,0062_s5n_s01_0_knife_00_knife7-airplane3.png
subject-01,1,63,1.34074401855469,knife,knife,0,0063_s5n_s01_0_knife_00_knife6-oven3.png
subject-01,1,64,1.24130606651306,bottle,bottle,0,0064_s5n_s01_0_bottle_00_bottle2-elephant1.png
subject-01,1,65,1.15987014770508,cat,bird,0,0065_s5n_s01_0_bird_00_bird3-dog1.png
subject-01,1,66,1.0978569984436,oven,chair,0,0066_s5n_s01_0_chair_00_chair1-truck3.png
subject-01,1,67,1.03852701187134,bicycle,bicycle,0,0067_s5n_s01_0_bicycle_00_bicycle10-boat3.png
subject-01,1,68,1.30305194854736,truck,truck,0,0068_s5n_s01_0_truck_00_truck8-cat2.png
subject-01,1,69,1.07313990592957,bicycle,bicycle,0,0069_s5n_s01_0_bicycle_00_bicycle5-bear1.png
subject-01,1,70,1.03541684150696,elephant,elephant,0,0070_s5n_s01_0_elephant_00_elephant1-dog2.png
subject-01,1,71,0.976116895675659,bottle,bottle,0,0071_s5n_s01_0_bottle_00_bottle7-airplane3.png
subject-01,1,72,0.794600963592529,bicycle,oven,0,0072_s5n_s01_0_oven_00_oven6-chair3.png
subject-01,1,73,0.656982898712158,cat,bird,0,0073_s5n_s01_0_bird_00_bird7-truck2.png
subject-01,1,74,1.47281193733215,elephant,bird,0,0074_s5n_s01_0_bird_00_bird10-chair1.png
subject-01,1,75,1.30559396743774,cat,elephant,0,0075_s5n_s01_0_elephant_00_elephant9-airplane2.png
subject-01,1,76,0.938148021697998,bird,bird,0,0076_s5n_s01_0_bird_00_bird10-bird2.png
subject-01,1,77,1.22436618804932,clock,clock,0,0077_s5n_s01_0_clock_00_clock5-chair3.png
subject-01,1,78,0.896789073944092,bottle,bottle,0,0078_s5n_s01_0_bottle_00_bottle6-airplane1.png
subject-01,1,79,0.837477922439575,truck,truck,0,0079_s5n_s01_0_truck_00_truck4-bear1.png
subject-01,1,80,0.999768972396851,keyboard,oven,0,0080_s5n_s01_0_oven_00_oven2-boat3.png
subject-01,1,81,0.924432992935181,cat,cat,0,0081_s5n_s01_0_cat_00_cat7-dog3.png
subject-01,1,82,0.756976842880249,bicycle,bicycle,0,0082_s5n_s01_0_bicycle_00_bicycle1-knife3.png
subject-01,1,83,0.65156102180481,oven,oven,0,0083_s5n_s01_0_oven_00_oven5-bird1.png
subject-01,1,84,0.8541100025177,bottle,bottle,0,0084_s5n_s01_0_bottle_00_bottle4-car3.png
subject-01,1,85,1.24036407470703,bottle,elephant,0,0085_s5n_s01_0_elephant_00_elephant8-truck3.png
subject-01,1,86,1.16506195068359,cat,cat,0,0086_s5n_s01_0_cat_00_cat6-oven1.png
subject-01,1,87,1.0133421421051,bottle,bottle,0,0087_s5n_s01_0_bottle_00_bottle2-clock1.png
subject-01,1,88,1.20781111717224,dog,dog,0,0088_s5n_s01_0_dog_00_dog10-elephant1.png
subject-01,1,89,0.840318202972412,clock,clock,0,0089_s5n_s01_0_clock_00_clock6-truck3.png
subject-01,1,90,1.50035715103149,dog,bear,0,0090_s5n_s01_0_bear_00_bear1-elephant1.png
subject-01,1,91,1.01863503456116,boat,oven,0,0091_s5n_s01_0_oven_00_oven3-cat2.png
subject-01,1,92,0.820837020874023,oven,knife,0,0092_s5n_s01_0_knife_00_knife6-clock2.png
subject-01,1,93,0.853183031082153,cat,knife,0,0093_s5n_s01_0_knife_00_knife7-elephant2.png
subject-01,1,94,0.847447872161865,truck,truck,0,0094_s5n_s01_0_truck_00_truck1-cat1.png
subject-01,1,95,1.13371419906616,oven,oven,0,0095_s5n_s01_0_oven_00_oven2-bear3.png
subject-01,1,96,0.958096981048584,oven,boat,0,0096_s5n_s01_0_boat_00_boat7-oven3.png
subject-01,1,97,0.798462867736816,cat,cat,0,0097_s5n_s01_0_cat_00_cat6-clock3.png
subject-01,1,98,0.690378189086914,boat,knife,0,0098_s5n_s01_0_knife_00_knife2-bird1.png
subject-01,1,99,0.931145906448364,airplane,airplane,0,0099_s5n_s01_0_airplane_00_airplane7-boat2.png
subject-01,1,100,0.987632036209106,car,car,0,0100_s5n_s01_0_car_00_car3-truck1.png
subject-01,1,101,1.42799782752991,car,car,0,0101_s5n_s01_0_car_00_car7-boat3.png
subject-01,1,102,0.73055100440979,oven,oven,0,0102_s5n_s01_0_oven_00_oven4-truck3.png
subject-01,1,103,1.10127711296082,car,car,0,0103_s5n_s01_0_car_00_car8-chair1.png
subject-01,1,104,1.0713529586792,bear,bear,0,0104_s5n_s01_0_bear_00_bear8-bear1.png
subject-01,1,105,1.12823700904846,bear,airplane,0,0105_s5n_s01_0_airplane_00_airplane2-bottle1.png
subject-01,1,106,1.32252097129822,clock,oven,0,0106_s5n_s01_0_oven_00_oven6-knife3.png
subject-01,1,107,NaN,na,chair,0,0107_s5n_s01_0_chair_00_chair5-cat3.png
subject-01,1,108,0.663002014160156,boat,boat,0,0108_s5n_s01_0_boat_00_boat3-bicycle2.png
subject-01,1,109,0.957204818725586,bear,bear,0,0109_s5n_s01_0_bear_00_bear10-clock1.png
subject-01,1,110,1.20366597175598,boat,boat,0,0110_s5n_s01_0_boat_00_boat4-elephant2.png
subject-01,1,111,0.906244993209839,oven,oven,0,0111_s5n_s01_0_oven_00_oven9-airplane2.png
subject-01,1,112,0.847109079360962,chair,chair,0,0112_s5n_s01_0_chair_00_chair10-dog1.png
subject-01,1,113,0.795376062393188,clock,clock,0,0113_s5n_s01_0_clock_00_clock6-knife2.png
subject-01,1,114,1.32579183578491,bicycle,bicycle,0,0114_s5n_s01_0_bicycle_00_bicycle1-elephant2.png
subject-01,1,115,0.820280075073242,cat,cat,0,0115_s5n_s01_0_cat_00_cat1-cat3.png
subject-01,1,116,0.722680807113647,boat,keyboard,0,0116_s5n_s01_0_keyboard_00_keyboard7-bear2.png
subject-01,1,117,0.825536966323853,dog,dog,0,0117_s5n_s01_0_dog_00_dog10-truck2.png
subject-01,1,118,1.24184489250183,keyboard,keyboard,0,0118_s5n_s01_0_keyboard_00_keyboard6-bicycle1.png
subject-01,1,119,1.21218085289001,bicycle,bicycle,0,0119_s5n_s01_0_bicycle_00_bicycle4-car2.png
subject-01,1,120,0.812327861785889,clock,oven,0,0120_s5n_s01_0_oven_00_oven3-boat3.png
subject-01,1,121,1.02280616760254,bottle,bottle,0,0121_s5n_s01_0_bottle_00_bottle10-truck3.png
subject-01,1,122,0.68525505065918,boat,bear,0,0122_s5n_s01_0_bear_00_bear4-keyboard3.png
subject-01,1,123,1.5001060962677,clock,knife,0,0123_s5n_s01_0_knife_00_knife3-bear2.png
subject-01,1,124,0.774527072906494,car,car,0,0124_s5n_s01_0_car_00_car4-bicycle3.png
subject-01,1,125,1.33690810203552,truck,car,0,0125_s5n_s01_0_car_00_car5-bottle1.png
subject-01,1,126,1.10734105110168,cat,bear,0,0126_s5n_s01_0_bear_00_bear6-cat3.png
subject-01,1,127,1.22613501548767,bird,bird,0,0127_s5n_s01_0_bird_00_bird6-elephant2.png
subject-01,1,128,1.15043711662292,cat,cat,0,0128_s5n_s01_0_cat_00_cat9-bird3.png
subject-01,1,129,1.19103503227234,knife,knife,0,0129_s5n_s01_0_knife_00_knife9-airplane2.png
subject-01,1,130,1.27763295173645,oven,oven,0,0130_s5n_s01_0_oven_00_oven8-knife2.png
subject-01,1,131,0.877855062484741,keyboard,keyboard,0,0131_s5n_s01_0_keyboard_00_keyboard8-chair2.png
subject-01,1,132,1.19643998146057,oven,oven,0,0132_s5n_s01_0_oven_00_oven4-elephant3.png
subject-01,1,133,1.48282289505005,boat,boat,0,0133_s5n_s01_0_boat_00_boat1-bear1.png
subject-01,1,134,0.669487953186035,oven,oven,0,0134_s5n_s01_0_oven_00_oven2-oven3.png
subject-01,1,135,1.00199484825134,cat,cat,0,0135_s5n_s01_0_cat_00_cat4-airplane1.png
subject-01,1,136,1.19389820098877,dog,dog,0,0136_s5n_s01_0_dog_00_dog9-boat1.png
subject-01,1,137,1.0806839466095,car,car,0,0137_s5n_s01_0_car_00_car10-bicycle2.png
subject-01,1,138,0.767231941223145,oven,oven,0,0138_s5n_s01_0_oven_00_oven4-knife2.png
subject-01,1,139,0.845552921295166,oven,boat,0,0139_s5n_s01_0_boat_00_boat3-keyboard2.png
subject-01,1,140,1.34011006355286,bird,bird,0,0140_s5n_s01_0_bird_00_bird6-truck2.png
subject-01,1,141,NaN,na,truck,0,0141_s5n_s01_0_truck_00_truck4-knife1.png
subject-01,1,142,0.912798166275024,keyboard,keyboard,0,0142_s5n_s01_0_keyboard_00_keyboard7-oven2.png
subject-01,1,143,0.775250911712646,keyboard,cat,0,0143_s5n_s01_0_cat_00_cat5-knife2.png
subject-01,1,144,NaN,na,airplane,0,0144_s5n_s01_0_airplane_00_airplane5-knife1.png
subject-01,1,145,1.1698100566864,bird,bird,0,0145_s5n_s01_0_bird_00_bird5-bird1.png
subject-01,1,146,0.688139915466309,bottle,bottle,0,0146_s5n_s01_0_bottle_00_bottle3-knife3.png
subject-01,1,147,1.05049610137939,elephant,elephant,0,0147_s5n_s01_0_elephant_00_elephant3-cat2.png
subject-01,1,148,0.691325902938843,bird,bird,0,0148_s5n_s01_0_bird_00_bird8-elephant1.png
subject-01,1,149,0.615525007247925,oven,oven,0,0149_s5n_s01_0_oven_00_oven2-chair1.png
subject-01,1,150,1.16992092132568,bicycle,bicycle,0,0150_s5n_s01_0_bicycle_00_bicycle5-oven3.png
subject-01,1,151,0.572674036026001,bottle,bottle,0,0151_s5n_s01_0_bottle_00_bottle5-elephant1.png
subject-01,1,152,0.683112144470215,bicycle,bicycle,0,0152_s5n_s01_0_bicycle_00_bicycle1-bicycle3.png
subject-01,1,153,1.07548999786377,truck,truck,0,0153_s5n_s01_0_truck_00_truck2-boat3.png
subject-01,1,154,0.693998098373413,cat,knife,0,0154_s5n_s01_0_knife_00_knife8-bicycle1.png
subject-01,1,155,0.88644814491272,elephant,elephant,0,0155_s5n_s01_0_elephant_00_elephant1-airplane2.png
subject-01,1,156,1.03499102592468,boat,boat,0,0156_s5n_s01_0_boat_00_boat8-oven1.png
subject-01,1,157,0.829328060150146,chair,bicycle,0,0157_s5n_s01_0_bicycle_00_bicycle10-clock2.png
subject-01,1,158,0.729525804519653,bird,dog,0,0158_s5n_s01_0_dog_00_dog3-bear3.png
subject-01,1,159,0.616312980651855,clock,clock,0,0159_s5n_s01_0_clock_00_clock8-chair2.png
subject-01,1,160,0.97078013420105,elephant,elephant,0,0160_s5n_s01_0_elephant_00_elephant4-car3.png
subject-01,1,161,0.997402191162109,bird,bird,0,0161_s5n_s01_0_bird_00_bird6-bottle3.png
subject-01,1,162,0.805500030517578,elephant,elephant,0,0162_s5n_s01_0_elephant_00_elephant7-airplane3.png
subject-01,1,163,0.77029013633728,boat,boat,0,0163_s5n_s01_0_boat_00_boat2-airplane1.png
subject-01,1,164,0.716552972793579,oven,cat,0,0164_s5n_s01_0_cat_00_cat7-knife2.png
subject-01,1,165,1.27877998352051,oven,chair,0,0165_s5n_s01_0_chair_00_chair7-knife2.png
subject-01,1,166,0.873010158538818,dog,dog,0,0166_s5n_s01_0_dog_00_dog1-boat3.png
subject-01,1,167,0.8734450340271,boat,knife,0,0167_s5n_s01_0_knife_00_knife1-car3.png
subject-01,1,168,0.952201128005981,cat,cat,0,0168_s5n_s01_0_cat_00_cat9-chair2.png
subject-01,1,169,0.776697874069214,oven,oven,0,0169_s5n_s01_0_oven_00_oven10-boat2.png
subject-01,1,170,1.50021886825562,keyboard,keyboard,0,0170_s5n_s01_0_keyboard_00_keyboard10-truck1.png
subject-01,1,171,0.911517143249512,dog,dog,0,0171_s5n_s01_0_dog_00_dog9-bear3.png
subject-01,1,172,1.0421781539917,car,car,0,0172_s5n_s01_0_car_00_car6-bear1.png
subject-01,1,173,1.2984139919281,truck,car,0,0173_s5n_s01_0_car_00_car5-cat1.png
subject-01,1,174,1.07697081565857,cat,cat,0,0174_s5n_s01_0_cat_00_cat7-clock3.png
subject-01,1,175,1.47765588760376,dog,dog,0,0175_s5n_s01_0_dog_00_dog1-knife3.png
subject-01,1,176,0.679985046386719,clock,clock,0,0176_s5n_s01_0_clock_00_clock2-bear2.png
subject-01,1,177,0.77421498298645,car,car,0,0177_s5n_s01_0_car_00_car3-bottle3.png
subject-01,1,178,0.974666833877563,oven,boat,0,0178_s5n_s01_0_boat_00_boat2-bear3.png
subject-01,1,179,0.728763103485107,boat,knife,0,0179_s5n_s01_0_knife_00_knife9-bear3.png
subject-01,1,180,0.831378936767578,keyboard,keyboard,0,0180_s5n_s01_0_keyboard_00_keyboard4-keyboard2.png
subject-01,1,181,0.793835878372192,clock,clock,0,0181_s5n_s01_0_clock_00_clock2-dog1.png
subject-01,1,182,0.680378198623657,cat,knife,0,0182_s5n_s01_0_knife_00_knife6-knife1.png
subject-01,1,183,0.796916007995605,boat,airplane,0,0183_s5n_s01_0_airplane_00_airplane8-bicycle3.png
subject-01,1,184,0.775248050689697,boat,knife,0,0184_s5n_s01_0_knife_00_knife7-car2.png
subject-01,1,185,1.12381792068481,elephant,elephant,0,0185_s5n_s01_0_elephant_00_elephant9-elephant3.png
subject-01,1,186,0.840204954147339,bear,bear,0,0186_s5n_s01_0_bear_00_bear5-bottle1.png
subject-01,1,187,0.910130977630615,truck,car,0,0187_s5n_s01_0_car_00_car5-oven2.png
subject-01,1,188,1.39680600166321,boat,chair,0,0188_s5n_s01_0_chair_00_chair3-car3.png
subject-01,1,189,0.929017066955566,cat,cat,0,0189_s5n_s01_0_cat_00_cat9-bottle2.png
subject-01,1,190,1.09955906867981,oven,airplane,0,0190_s5n_s01_0_airplane_00_airplane10-elephant1.png
subject-01,1,191,NaN,na,oven,0,0191_s5n_s01_0_oven_00_oven3-airplane1.png
subject-01,1,192,0.886007070541382,truck,boat,0,0192_s5n_s01_0_boat_00_boat8-truck2.png
subject-01,1,193,1.19677805900574,car,car,0,0193_s5n_s01_0_car_00_car8-truck3.png
subject-01,1,194,1.05907487869263,truck,truck,0,0194_s5n_s01_0_truck_00_truck9-truck3.png
subject-01,1,195,1.23756384849548,cat,bear,0,0195_s5n_s01_0_bear_00_bear7-bicycle2.png
subject-01,1,196,0.56406307220459,boat,keyboard,0,0196_s5n_s01_0_keyboard_00_keyboard2-elephant1.png
subject-01,1,197,1.08042502403259,keyboard,keyboard,0,0197_s5n_s01_0_keyboard_00_keyboard9-bear2.png
subject-01,1,198,1.31295108795166,chair,chair,0,0198_s5n_s01_0_chair_00_chair9-bicycle3.png
subject-01,1,199,0.867295026779175,elephant,bear,0,0199_s5n_s01_0_bear_00_bear7-truck1.png
subject-01,1,200,0.661836862564087,truck,truck,0,0200_s5n_s01_0_truck_00_truck6-bicycle1.png
subject-01,1,201,0.94069504737854,dog,dog,0,0201_s5n_s01_0_dog_00_dog10-oven2.png
subject-01,1,202,0.748897790908813,boat,bear,0,0202_s5n_s01_0_bear_00_bear10-elephant1.png
subject-01,1,203,0.881479024887085,elephant,elephant,0,0203_s5n_s01_0_elephant_00_elephant7-bird1.png
subject-01,1,204,0.675989866256714,truck,truck,0,0204_s5n_s01_0_truck_00_truck2-airplane3.png
subject-01,1,205,0.776566982269287,oven,elephant,0,0205_s5n_s01_0_elephant_00_elephant2-bottle3.png
subject-01,1,206,1.0010449886322,bicycle,bicycle,0,0206_s5n_s01_0_bicycle_00_bicycle8-clock3.png
subject-01,1,207,0.763227939605713,bird,bird,0,0207_s5n_s01_0_bird_00_bird1-boat1.png
subject-01,1,208,1.05003905296326,knife,knife,0,0208_s5n_s01_0_knife_00_knife2-bicycle3.png
subject-01,1,209,1.09020400047302,bicycle,bicycle,0,0209_s5n_s01_0_bicycle_00_bicycle1-airplane2.png
subject-01,1,210,0.806602001190186,bottle,bottle,0,0210_s5n_s01_0_bottle_00_bottle6-boat3.png
subject-01,1,211,0.823071956634521,knife,knife,0,0211_s5n_s01_0_knife_00_knife9-boat1.png
subject-01,1,212,0.933434963226318,clock,knife,0,0212_s5n_s01_0_knife_00_knife1-chair1.png
subject-01,1,213,1.35086703300476,cat,chair,0,0213_s5n_s01_0_chair_00_chair5-boat3.png
subject-01,1,214,0.820409059524536,chair,chair,0,0214_s5n_s01_0_chair_00_chair5-knife3.png
subject-01,1,215,1.04518604278564,bicycle,bicycle,0,0215_s5n_s01_0_bicycle_00_bicycle4-boat1.png
subject-01,1,216,0.791596174240112,bottle,bottle,0,0216_s5n_s01_0_bottle_00_bottle4-bicycle1.png
subject-01,1,217,0.90999698638916,dog,dog,0,0217_s5n_s01_0_dog_00_dog9-cat1.png
subject-01,1,218,1.26447582244873,elephant,elephant,0,0218_s5n_s01_0_elephant_00_elephant8-boat2.png
subject-01,1,219,0.572993040084839,boat,clock,0,0219_s5n_s01_0_clock_00_clock9-keyboard2.png
subject-01,1,220,0.913758993148804,car,car,0,0220_s5n_s01_0_car_00_car2-bird3.png
subject-01,1,221,0.738199949264526,chair,chair,0,0221_s5n_s01_0_chair_00_chair7-truck3.png
subject-01,1,222,0.746706962585449,boat,bird,0,0222_s5n_s01_0_bird_00_bird3-oven1.png
subject-01,1,223,1.463054895401,dog,dog,0,0223_s5n_s01_0_dog_00_dog2-dog3.png
subject-01,1,224,0.687732934951782,boat,boat,0,0224_s5n_s01_0_boat_00_boat4-bottle2.png
subject-01,1,225,0.903834104537964,chair,chair,0,0225_s5n_s01_0_chair_00_chair5-bicycle1.png
subject-01,1,226,0.73624587059021,cat,boat,0,0226_s5n_s01_0_boat_00_boat9-keyboard2.png
subject-01,1,227,0.760711908340454,clock,clock,0,0227_s5n_s01_0_clock_00_clock10-boat2.png
subject-01,1,228,0.925108909606934,clock,knife,0,0228_s5n_s01_0_knife_00_knife6-bicycle1.png
subject-01,1,229,0.887587070465088,oven,oven,0,0229_s5n_s01_0_oven_00_oven2-truck3.png
subject-01,1,230,0.928088903427124,boat,knife,0,0230_s5n_s01_0_knife_00_knife1-oven1.png
subject-01,1,231,1.13707113265991,bird,bird,0,0231_s5n_s01_0_bird_00_bird6-car3.png
subject-01,1,232,0.961381912231445,car,car,0,0232_s5n_s01_0_car_00_car4-oven2.png
subject-01,1,233,0.939214944839478,cat,airplane,0,0233_s5n_s01_0_airplane_00_airplane10-cat2.png
subject-01,1,234,0.56406307220459,clock,clock,0,0234_s5n_s01_0_clock_00_clock9-airplane1.png
subject-01,1,235,1.010174036026,elephant,elephant,0,0235_s5n_s01_0_elephant_00_elephant8-airplane3.png
subject-01,1,236,1.50038385391235,boat,bottle,0,0236_s5n_s01_0_bottle_00_bottle10-dog1.png
subject-01,1,237,1.36502003669739,knife,knife,0,0237_s5n_s01_0_knife_00_knife5-dog1.png
subject-01,1,238,0.651393175125122,bird,bird,0,0238_s5n_s01_0_bird_00_bird1-bicycle2.png
subject-01,1,239,1.50029993057251,truck,truck,0,0239_s5n_s01_0_truck_00_truck1-dog1.png
subject-01,1,240,0.662482023239136,oven,oven,0,0240_s5n_s01_0_oven_00_oven9-knife3.png
subject-01,1,241,0.870942831039429,bird,airplane,0,0241_s5n_s01_0_airplane_00_airplane3-elephant1.png
subject-01,1,242,1.19562196731567,boat,knife,0,0242_s5n_s01_0_knife_00_knife6-bottle3.png
subject-01,1,243,0.936085939407349,cat,keyboard,0,0243_s5n_s01_0_keyboard_00_keyboard3-elephant2.png
subject-01,1,244,0.828516960144043,boat,keyboard,0,0244_s5n_s01_0_keyboard_00_keyboard4-knife2.png
subject-01,1,245,1.25286483764648,bicycle,bicycle,0,0245_s5n_s01_0_bicycle_00_bicycle4-truck3.png
subject-01,1,246,0.893404960632324,keyboard,keyboard,0,0246_s5n_s01_0_keyboard_00_keyboard4-bottle2.png
subject-01,1,247,0.863599061965942,bottle,bottle,0,0247_s5n_s01_0_bottle_00_bottle1-chair2.png
subject-01,1,248,1.27226305007935,elephant,elephant,0,0248_s5n_s01_0_elephant_00_elephant8-elephant1.png
subject-01,1,249,1.18062210083008,chair,chair,0,0249_s5n_s01_0_chair_00_chair10-oven1.png
subject-01,1,250,0.780890941619873,bear,bear,0,0250_s5n_s01_0_bear_00_bear2-bird3.png
subject-01,1,251,1.15930008888245,bear,bear,0,0251_s5n_s01_0_bear_00_bear3-cat1.png
subject-01,1,252,1.27591395378113,clock,truck,0,0252_s5n_s01_0_truck_00_truck3-dog3.png
subject-01,1,253,1.48425889015198,knife,knife,0,0253_s5n_s01_0_knife_00_knife8-cat2.png
subject-01,1,254,1.0407600402832,bicycle,dog,0,0254_s5n_s01_0_dog_00_dog7-car2.png
subject-01,1,255,0.711519956588745,bird,bird,0,0255_s5n_s01_0_bird_00_bird1-oven1.png
subject-01,1,256,0.849703073501587,oven,cat,0,0256_s5n_s01_0_cat_00_cat10-oven2.png
subject-01,1,257,0.975076913833618,boat,bottle,0,0257_s5n_s01_0_bottle_00_bottle3-bird1.png
subject-01,1,258,1.06953096389771,airplane,airplane,0,0258_s5n_s01_0_airplane_00_airplane1-elephant1.png
subject-01,1,259,1.2317750453949,dog,bear,0,0259_s5n_s01_0_bear_00_bear10-keyboard3.png
subject-01,1,260,0.764376878738403,keyboard,keyboard,0,0260_s5n_s01_0_keyboard_00_keyboard8-truck3.png
subject-01,1,261,1.04283285140991,dog,dog,0,0261_s5n_s01_0_dog_00_dog9-bicycle3.png
subject-01,1,262,0.543406009674072,boat,clock,0,0262_s5n_s01_0_clock_00_clock1-dog2.png
subject-01,1,263,0.868149995803833,truck,truck,0,0263_s5n_s01_0_truck_00_truck3-oven2.png
subject-01,1,264,0.708545207977295,bottle,bottle,0,0264_s5n_s01_0_bottle_00_bottle7-clock1.png
subject-01,1,265,0.692774057388306,truck,airplane,0,0265_s5n_s01_0_airplane_00_airplane4-truck2.png
subject-01,1,266,0.971009016036987,car,car,0,0266_s5n_s01_0_car_00_car7-keyboard3.png
subject-01,1,267,0.878788948059082,dog,dog,0,0267_s5n_s01_0_dog_00_dog8-oven3.png
subject-01,1,268,1.03324604034424,truck,truck,0,0268_s5n_s01_0_truck_00_truck8-elephant1.png
subject-01,1,269,1.15810394287109,bicycle,bicycle,0,0269_s5n_s01_0_bicycle_00_bicycle3-truck3.png
subject-01,1,270,0.728240013122559,oven,bottle,0,0270_s5n_s01_0_bottle_00_bottle7-oven2.png
subject-01,1,271,0.790462017059326,cat,boat,0,0271_s5n_s01_0_boat_00_boat9-bear3.png
subject-01,1,272,0.790803909301758,clock,clock,0,0272_s5n_s01_0_clock_00_clock10-bird3.png
subject-01,1,273,0.715352058410645,bird,bird,0,0273_s5n_s01_0_bird_00_bird7-boat1.png
subject-01,1,274,0.739845037460327,boat,airplane,0,0274_s5n_s01_0_airplane_00_airplane8-truck3.png
subject-01,1,275,0.664226055145264,clock,clock,0,0275_s5n_s01_0_clock_00_clock4-elephant2.png
subject-01,1,276,0.96464204788208,cat,elephant,0,0276_s5n_s01_0_elephant_00_elephant10-keyboard1.png
subject-01,1,277,0.789389848709106,bottle,bottle,0,0277_s5n_s01_0_bottle_00_bottle2-bottle3.png
subject-01,1,278,0.543646097183228,clock,clock,0,0278_s5n_s01_0_clock_00_clock8-truck2.png
subject-01,1,279,NaN,na,truck,0,0279_s5n_s01_0_truck_00_truck2-keyboard1.png
subject-01,1,280,0.984588146209717,dog,dog,0,0280_s5n_s01_0_dog_00_dog4-clock1.png
subject-01,1,281,1.00910592079163,cat,bird,0,0281_s5n_s01_0_bird_00_bird2-airplane3.png
subject-01,1,282,0.555199861526489,clock,airplane,0,0282_s5n_s01_0_airplane_00_airplane8-bird1.png
subject-01,1,283,0.987640857696533,keyboard,keyboard,0,0283_s5n_s01_0_keyboard_00_keyboard10-boat2.png
subject-01,1,284,0.76615309715271,boat,airplane,0,0284_s5n_s01_0_airplane_00_airplane2-bear1.png
subject-01,1,285,0.734490156173706,car,knife,0,0285_s5n_s01_0_knife_00_knife2-truck2.png
subject-01,1,286,0.729042053222656,bird,bird,0,0286_s5n_s01_0_bird_00_bird5-bicycle1.png
subject-01,1,287,1.02940201759338,bird,bird,0,0287_s5n_s01_0_bird_00_bird3-boat3.png
subject-01,1,288,0.991499185562134,dog,dog,0,0288_s5n_s01_0_dog_00_dog4-oven1.png
subject-01,1,289,0.700119972229004,clock,clock,0,0289_s5n_s01_0_clock_00_clock4-boat3.png
subject-01,1,290,0.754725933074951,bird,bird,0,0290_s5n_s01_0_bird_00_bird6-airplane2.png
subject-01,1,291,0.862920999526978,elephant,elephant,0,0291_s5n_s01_0_elephant_00_elephant8-bicycle3.png
subject-01,1,292,0.895391941070557,bicycle,bicycle,0,0292_s5n_s01_0_bicycle_00_bicycle6-bicycle3.png
subject-01,1,293,0.904071092605591,bottle,bottle,0,0293_s5n_s01_0_bottle_00_bottle3-chair3.png
subject-01,1,294,NaN,na,airplane,0,0294_s5n_s01_0_airplane_00_airplane9-airplane2.png
subject-01,1,295,0.744140863418579,oven,bird,0,0295_s5n_s01_0_bird_00_bird1-elephant2.png
subject-01,1,296,0.936564922332764,boat,boat,0,0296_s5n_s01_0_boat_00_boat6-clock2.png
subject-01,1,297,1.34701180458069,bird,bird,0,0297_s5n_s01_0_bird_00_bird5-airplane3.png
subject-01,1,298,0.97984504699707,clock,clock,0,0298_s5n_s01_0_clock_00_clock7-bicycle1.png
subject-01,1,299,1.05606389045715,clock,clock,0,0299_s5n_s01_0_clock_00_clock10-airplane1.png
subject-01,1,300,0.950804948806763,chair,chair,0,0300_s5n_s01_0_chair_00_chair9-boat2.png
subject-01,1,301,0.797046899795532,elephant,elephant,0,0301_s5n_s01_0_elephant_00_elephant1-oven2.png
subject-01,1,302,0.983612060546875,bird,airplane,0,0302_s5n_s01_0_airplane_00_airplane4-keyboard3.png
subject-01,1,303,1.08398008346558,keyboard,keyboard,0,0303_s5n_s01_0_keyboard_00_keyboard7-truck2.png
subject-01,1,304,0.77859091758728,bird,airplane,0,0304_s5n_s01_0_airplane_00_airplane10-bear3.png
subject-01,1,305,1.27063298225403,knife,knife,0,0305_s5n_s01_0_knife_00_knife10-knife1.png
subject-01,1,306,1.20313405990601,bear,bear,0,0306_s5n_s01_0_bear_00_bear7-bear2.png
subject-01,1,307,0.727491140365601,keyboard,keyboard,0,0307_s5n_s01_0_keyboard_00_keyboard1-airplane2.png
subject-01,1,308,0.812058925628662,bicycle,bicycle,0,0308_s5n_s01_0_bicycle_00_bicycle4-oven3.png
subject-01,1,309,0.820275068283081,bicycle,bicycle,0,0309_s5n_s01_0_bicycle_00_bicycle4-airplane1.png
subject-01,1,310,0.84482216835022,elephant,elephant,0,0310_s5n_s01_0_elephant_00_elephant3-truck1.png
subject-01,1,311,0.931339025497437,elephant,elephant,0,0311_s5n_s01_0_elephant_00_elephant3-knife1.png
subject-01,1,312,1.50018715858459,cat,bear,0,0312_s5n_s01_0_bear_00_bear8-knife3.png
subject-01,1,313,0.826599836349487,elephant,elephant,0,0313_s5n_s01_0_elephant_00_elephant10-knife3.png
subject-01,1,314,0.780877828598022,oven,oven,0,0314_s5n_s01_0_oven_00_oven5-bicycle1.png
subject-01,1,315,0.927299022674561,bottle,bottle,0,0315_s5n_s01_0_bottle_00_bottle1-clock1.png
subject-01,1,316,0.8681960105896,boat,chair,0,0316_s5n_s01_0_chair_00_chair1-cat3.png
subject-01,1,317,0.80663800239563,truck,truck,0,0317_s5n_s01_0_truck_00_truck7-boat1.png
subject-01,1,318,0.96108603477478,bicycle,bicycle,0,0318_s5n_s01_0_bicycle_00_bicycle2-car2.png
subject-01,1,319,1.41562700271606,cat,bear,0,0319_s5n_s01_0_bear_00_bear9-bottle2.png
subject-01,1,320,0.709597826004028,boat,keyboard,0,0320_s5n_s01_0_keyboard_00_keyboard9-elephant2.png
subject-01,1,321,0.657050132751465,truck,truck,0,0321_s5n_s01_0_truck_00_truck6-cat2.png
subject-01,1,322,0.650668144226074,boat,cat,0,0322_s5n_s01_0_cat_00_cat9-cat3.png
subject-01,1,323,0.83514404296875,bear,cat,0,0323_s5n_s01_0_cat_00_cat5-chair3.png
subject-01,1,324,1.02940607070923,truck,truck,0,0324_s5n_s01_0_truck_00_truck1-bicycle3.png
subject-01,1,325,1.06019902229309,knife,knife,0,0325_s5n_s01_0_knife_00_knife8-boat1.png
subject-01,1,326,0.83088493347168,dog,dog,0,0326_s5n_s01_0_dog_00_dog5-oven1.png
subject-01,1,327,0.871262073516846,bottle,bottle,0,0327_s5n_s01_0_bottle_00_bottle9-bicycle1.png
subject-01,1,328,0.863530158996582,bear,bear,0,0328_s5n_s01_0_bear_00_bear5-boat2.png
subject-01,1,329,0.77192497253418,clock,oven,0,0329_s5n_s01_0_oven_00_oven3-truck1.png
subject-01,1,330,1.06463694572449,elephant,elephant,0,0330_s5n_s01_0_elephant_00_elephant6-dog2.png
subject-01,1,331,0.659154891967773,boat,bottle,0,0331_s5n_s01_0_bottle_00_bottle7-cat2.png
subject-01,1,332,0.867773056030273,cat,dog,0,0332_s5n_s01_0_dog_00_dog8-chair3.png
subject-01,1,333,NaN,na,keyboard,0,0333_s5n_s01_0_keyboard_00_keyboard9-keyboard2.png
subject-01,1,334,0.768402099609375,car,car,0,0334_s5n_s01_0_car_00_car10-chair1.png
subject-01,1,335,0.938721179962158,bird,bird,0,0335_s5n_s01_0_bird_00_bird7-oven3.png
subject-01,1,336,0.908963918685913,cat,cat,0,0336_s5n_s01_0_cat_00_cat2-truck3.png
subject-01,1,337,1.43349003791809,dog,dog,0,0337_s5n_s01_0_dog_00_dog6-bird1.png
subject-01,1,338,0.896032094955444,knife,knife,0,0338_s5n_s01_0_knife_00_knife7-bottle3.png
subject-01,1,339,1.44231605529785,bicycle,bicycle,0,0339_s5n_s01_0_bicycle_00_bicycle2-dog1.png
subject-01,1,340,1.02883005142212,elephant,elephant,0,0340_s5n_s01_0_elephant_00_elephant9-boat3.png
subject-01,1,341,0.875280141830444,car,car,0,0341_s5n_s01_0_car_00_car10-dog1.png
subject-01,1,342,0.738057136535645,clock,clock,0,0342_s5n_s01_0_clock_00_clock5-bicycle1.png
subject-01,1,343,1.08431506156921,elephant,elephant,0,0343_s5n_s01_0_elephant_00_elephant5-chair3.png
subject-01,1,344,NaN,na,airplane,0,0344_s5n_s01_0_airplane_00_airplane6-knife1.png
subject-01,1,345,1.34664702415466,keyboard,keyboard,0,0345_s5n_s01_0_keyboard_00_keyboard10-oven3.png
subject-01,1,346,0.671245098114014,car,car,0,0346_s5n_s01_0_car_00_car7-clock1.png
subject-01,1,347,1.19590592384338,cat,cat,0,0347_s5n_s01_0_cat_00_cat3-bicycle1.png
subject-01,1,348,0.681991100311279,boat,knife,0,0348_s5n_s01_0_knife_00_knife5-cat2.png
subject-01,1,349,0.944858074188232,bicycle,bicycle,0,0349_s5n_s01_0_bicycle_00_bicycle1-bear1.png
subject-01,1,350,1.11509919166565,truck,car,0,0350_s5n_s01_0_car_00_car5-knife2.png
subject-01,1,351,0.870060920715332,bicycle,bicycle,0,0351_s5n_s01_0_bicycle_00_bicycle5-elephant1.png
subject-01,1,352,NaN,na,keyboard,0,0352_s5n_s01_0_keyboard_00_keyboard2-bottle1.png
subject-01,1,353,1.18620705604553,keyboard,oven,0,0353_s5n_s01_0_oven_00_oven3-car2.png
subject-01,1,354,1.11056303977966,bicycle,bicycle,0,0354_s5n_s01_0_bicycle_00_bicycle9-car1.png
subject-01,1,355,0.881042957305908,cat,elephant,0,0355_s5n_s01_0_elephant_00_elephant1-keyboard3.png
subject-01,1,356,0.819282054901123,boat,airplane,0,0356_s5n_s01_0_airplane_00_airplane9-car2.png
subject-01,1,357,0.912207126617432,bottle,bottle,0,0357_s5n_s01_0_bottle_00_bottle5-airplane1.png
subject-01,1,358,0.736606121063232,bird,bird,0,0358_s5n_s01_0_bird_00_bird9-chair1.png
subject-01,1,359,1.03664994239807,truck,car,0,0359_s5n_s01_0_car_00_car5-truck3.png
subject-01,1,360,0.744712829589844,clock,clock,0,0360_s5n_s01_0_clock_00_clock7-keyboard2.png
subject-01,1,361,0.915428876876831,car,car,0,0361_s5n_s01_0_car_00_car8-knife2.png
subject-01,1,362,1.02370810508728,bird,bird,0,0362_s5n_s01_0_bird_00_bird5-dog2.png
subject-01,1,363,0.970256090164185,car,car,0,0363_s5n_s01_0_car_00_car7-car1.png
subject-01,1,364,0.756761789321899,boat,elephant,0,0364_s5n_s01_0_elephant_00_elephant7-keyboard3.png
subject-01,1,365,1.09726405143738,airplane,airplane,0,0365_s5n_s01_0_airplane_00_airplane6-bottle2.png
subject-01,1,366,1.05966901779175,keyboard,oven,0,0366_s5n_s01_0_oven_00_oven8-keyboard3.png
subject-01,1,367,0.660284042358398,car,boat,0,0367_s5n_s01_0_boat_00_boat1-car2.png
subject-01,1,368,0.660894155502319,oven,oven,0,0368_s5n_s01_0_oven_00_oven5-keyboard2.png
subject-01,1,369,0.977475166320801,elephant,elephant,0,0369_s5n_s01_0_elephant_00_elephant7-car3.png
subject-01,1,370,0.769670963287354,cat,airplane,0,0370_s5n_s01_0_airplane_00_airplane10-airplane1.png
subject-01,1,371,0.794238090515137,boat,knife,0,0371_s5n_s01_0_knife_00_knife1-dog1.png
subject-01,1,372,1.07842803001404,bicycle,bicycle,0,0372_s5n_s01_0_bicycle_00_bicycle9-bottle1.png
subject-01,1,373,0.910603046417236,clock,clock,0,0373_s5n_s01_0_clock_00_clock6-clock2.png
subject-01,1,374,0.595402956008911,oven,oven,0,0374_s5n_s01_0_oven_00_oven3-bear2.png
subject-01,1,375,1.12776899337769,boat,airplane,0,0375_s5n_s01_0_airplane_00_airplane7-keyboard1.png
subject-01,1,376,1.19801807403564,dog,dog,0,0376_s5n_s01_0_dog_00_dog7-chair2.png
subject-01,1,377,1.45862889289856,bear,bear,0,0377_s5n_s01_0_bear_00_bear8-boat2.png
subject-01,1,378,0.891158103942871,cat,boat,0,0378_s5n_s01_0_boat_00_boat6-dog1.png
subject-01,1,379,0.891540050506592,boat,boat,0,0379_s5n_s01_0_boat_00_boat4-car3.png
subject-01,1,380,0.61611008644104,boat,airplane,0,0380_s5n_s01_0_airplane_00_airplane4-elephant1.png
subject-01,1,381,0.732676029205322,boat,knife,0,0381_s5n_s01_0_knife_00_knife6-chair3.png
subject-01,1,382,0.900866031646729,bear,bear,0,0382_s5n_s01_0_bear_00_bear2-oven1.png
subject-01,1,383,0.80109977722168,cat,car,0,0383_s5n_s01_0_car_00_car4-bear3.png
subject-01,1,384,0.941301822662354,elephant,elephant,0,0384_s5n_s01_0_elephant_00_elephant4-boat3.png
subject-01,1,385,NaN,na,dog,0,0385_s5n_s01_0_dog_00_dog6-bicycle1.png
subject-01,1,386,0.634073972702026,bottle,bottle,0,0386_s5n_s01_0_bottle_00_bottle2-chair3.png
subject-01,1,387,0.69632887840271,clock,clock,0,0387_s5n_s01_0_clock_00_clock4-car2.png
subject-01,1,388,1.50005388259888,boat,boat,0,0388_s5n_s01_0_boat_00_boat5-clock3.png
subject-01,1,389,0.773138999938965,boat,cat,0,0389_s5n_s01_0_cat_00_cat9-boat2.png
subject-01,1,390,0.767680883407593,bicycle,bicycle,0,0390_s5n_s01_0_bicycle_00_bicycle5-cat1.png
subject-01,1,391,0.752163171768188,oven,oven,0,0391_s5n_s01_0_oven_00_oven10-cat2.png
subject-01,1,392,0.992666006088257,car,cat,0,0392_s5n_s01_0_cat_00_cat4-car2.png
subject-01,1,393,0.73139214515686,cat,bear,0,0393_s5n_s01_0_bear_00_bear6-clock1.png
subject-01,1,394,0.655776977539062,boat,elephant,0,0394_s5n_s01_0_elephant_00_elephant5-truck1.png
subject-01,1,395,0.764214038848877,chair,chair,0,0395_s5n_s01_0_chair_00_chair1-elephant1.png
subject-01,1,396,1.18686890602112,chair,chair,0,0396_s5n_s01_0_chair_00_chair3-airplane2.png
subject-01,1,397,0.895348072052002,bottle,bottle,0,0397_s5n_s01_0_bottle_00_bottle5-cat1.png
subject-01,1,398,0.903657913208008,cat,knife,0,0398_s5n_s01_0_knife_00_knife5-truck3.png
subject-01,1,399,0.728147029876709,boat,airplane,0,0399_s5n_s01_0_airplane_00_airplane7-truck1.png
subject-01,1,400,0.74492621421814,oven,cat,0,0400_s5n_s01_0_cat_00_cat6-keyboard3.png
subject-01,1,401,0.701304912567139,clock,clock,0,0401_s5n_s01_0_clock_00_clock5-clock2.png
subject-01,1,402,0.548281908035278,boat,cat,0,0402_s5n_s01_0_cat_00_cat10-airplane3.png
subject-01,1,403,0.640005111694336,boat,boat,0,0403_s5n_s01_0_boat_00_boat2-keyboard1.png
subject-01,1,404,0.864629030227661,bear,bear,0,0404_s5n_s01_0_bear_00_bear2-airplane1.png
subject-01,1,405,0.926779985427856,clock,clock,0,0405_s5n_s01_0_clock_00_clock3-bear3.png
subject-01,1,406,0.943423986434937,cat,boat,0,0406_s5n_s01_0_boat_00_boat10-oven1.png
subject-01,1,407,1.11400008201599,bear,bear,0,0407_s5n_s01_0_bear_00_bear2-cat2.png
subject-01,1,408,1.38251519203186,boat,oven,0,0408_s5n_s01_0_oven_00_oven3-knife1.png
subject-01,1,409,0.930320978164673,bicycle,airplane,0,0409_s5n_s01_0_airplane_00_airplane9-keyboard2.png
subject-01,1,410,NaN,na,knife,0,0410_s5n_s01_0_knife_00_knife4-keyboard1.png
subject-01,1,411,0.952796936035156,keyboard,keyboard,0,0411_s5n_s01_0_keyboard_00_keyboard5-dog3.png
subject-01,1,412,0.83922004699707,elephant,elephant,0,0412_s5n_s01_0_elephant_00_elephant6-bottle2.png
subject-01,1,413,0.972026109695435,bicycle,bicycle,0,0413_s5n_s01_0_bicycle_00_bicycle1-truck1.png
subject-01,1,414,0.964494943618774,bicycle,bicycle,0,0414_s5n_s01_0_bicycle_00_bicycle1-boat3.png
subject-01,1,415,0.802633047103882,bicycle,bicycle,0,0415_s5n_s01_0_bicycle_00_bicycle10-airplane2.png
subject-01,1,416,0.911186933517456,cat,cat,0,0416_s5n_s01_0_cat_00_cat1-keyboard3.png
subject-01,1,417,1.14397120475769,cat,bear,0,0417_s5n_s01_0_bear_00_bear10-bear2.png
subject-01,1,418,0.71435284614563,boat,knife,0,0418_s5n_s01_0_knife_00_knife10-keyboard3.png
subject-01,1,419,1.12268710136414,boat,boat,0,0419_s5n_s01_0_boat_00_boat5-boat3.png
subject-01,1,420,0.723001003265381,keyboard,oven,0,0420_s5n_s01_0_oven_00_oven8-chair1.png
subject-01,1,421,0.861390113830566,elephant,elephant,0,0421_s5n_s01_0_elephant_00_elephant9-clock3.png
subject-01,1,422,0.809759140014648,clock,clock,0,0422_s5n_s01_0_clock_00_clock7-bear2.png
subject-01,1,423,0.594705104827881,car,car,0,0423_s5n_s01_0_car_00_car2-car3.png
subject-01,1,424,0.972784042358398,bottle,bottle,0,0424_s5n_s01_0_bottle_00_bottle10-bear2.png
subject-01,1,425,0.79765510559082,keyboard,oven,0,0425_s5n_s01_0_oven_00_oven4-clock2.png
subject-01,1,426,0.873754978179932,truck,bear,0,0426_s5n_s01_0_bear_00_bear10-car2.png
subject-01,1,427,1.16053104400635,bear,bear,0,0427_s5n_s01_0_bear_00_bear8-bicycle3.png
subject-01,1,428,NaN,na,chair,0,0428_s5n_s01_0_chair_00_chair6-truck2.png
subject-01,1,429,0.722771167755127,bottle,bottle,0,0429_s5n_s01_0_bottle_00_bottle8-keyboard3.png
subject-01,1,430,1.3754620552063,dog,dog,0,0430_s5n_s01_0_dog_00_dog4-cat3.png
subject-01,1,431,0.655786991119385,boat,airplane,0,0431_s5n_s01_0_airplane_00_airplane8-chair1.png
subject-01,1,432,0.940265893936157,truck,truck,0,0432_s5n_s01_0_truck_00_truck10-clock1.png
subject-01,1,433,0.956865787506104,boat,oven,0,0433_s5n_s01_0_oven_00_oven6-truck1.png
subject-01,1,434,0.849348068237305,car,airplane,0,0434_s5n_s01_0_airplane_00_airplane3-keyboard2.png
subject-01,1,435,1.50001215934753,keyboard,keyboard,0,0435_s5n_s01_0_keyboard_00_keyboard2-bicycle3.png
subject-01,1,436,0.9423508644104,keyboard,knife,0,0436_s5n_s01_0_knife_00_knife2-bottle2.png
subject-01,1,437,0.920990943908691,bear,bear,0,0437_s5n_s01_0_bear_00_bear9-keyboard3.png
subject-01,1,438,0.7451331615448,oven,boat,0,0438_s5n_s01_0_boat_00_boat7-chair1.png
subject-01,1,439,0.831929922103882,boat,boat,0,0439_s5n_s01_0_boat_00_boat4-knife2.png
subject-01,1,440,1.27009892463684,boat,car,0,0440_s5n_s01_0_car_00_car8-clock2.png
subject-01,1,441,0.792866945266724,bicycle,bicycle,0,0441_s5n_s01_0_bicycle_00_bicycle1-chair1.png
subject-01,1,442,0.625396013259888,cat,knife,0,0442_s5n_s01_0_knife_00_knife2-elephant2.png
subject-01,1,443,0.879876136779785,knife,knife,0,0443_s5n_s01_0_knife_00_knife4-cat2.png
subject-01,1,444,0.650134086608887,bird,bird,0,0444_s5n_s01_0_bird_00_bird5-cat2.png
subject-01,1,445,0.71274995803833,clock,clock,0,0445_s5n_s01_0_clock_00_clock7-bottle2.png
subject-01,1,446,0.781113147735596,boat,airplane,0,0446_s5n_s01_0_airplane_00_airplane4-boat3.png
subject-01,1,447,0.827616930007935,truck,oven,0,0447_s5n_s01_0_oven_00_oven9-keyboard1.png
subject-01,1,448,0.935833930969238,cat,bottle,0,0448_s5n_s01_0_bottle_00_bottle6-knife3.png
subject-01,1,449,0.644335031509399,clock,clock,0,0449_s5n_s01_0_clock_00_clock3-bird1.png
subject-01,1,450,0.622879981994629,cat,cat,0,0450_s5n_s01_0_cat_00_cat6-chair3.png
subject-01,1,451,1.10730791091919,chair,chair,0,0451_s5n_s01_0_chair_00_chair7-boat3.png
subject-01,1,452,1.42392587661743,truck,knife,0,0452_s5n_s01_0_knife_00_knife8-truck3.png
subject-01,1,453,0.846406936645508,clock,clock,0,0453_s5n_s01_0_clock_00_clock2-bottle3.png
subject-01,1,454,1.41715598106384,bottle,bottle,0,0454_s5n_s01_0_bottle_00_bottle2-knife3.png
subject-01,1,455,1.39535093307495,bottle,bottle,0,0455_s5n_s01_0_bottle_00_bottle4-oven2.png
subject-01,1,456,0.971904039382935,bicycle,bicycle,0,0456_s5n_s01_0_bicycle_00_bicycle7-bear2.png
subject-01,1,457,1.066251039505,dog,dog,0,0457_s5n_s01_0_dog_00_dog5-car3.png
subject-01,1,458,1.46688795089722,chair,chair,0,0458_s5n_s01_0_chair_00_chair8-clock3.png
subject-01,1,459,0.967561006546021,knife,knife,0,0459_s5n_s01_0_knife_00_knife2-dog1.png
subject-01,1,460,1.04574608802795,car,car,0,0460_s5n_s01_0_car_00_car1-car2.png
subject-01,1,461,1.18473315238953,chair,chair,0,0461_s5n_s01_0_chair_00_chair3-dog2.png
subject-01,1,462,1.43074798583984,boat,clock,0,0462_s5n_s01_0_clock_00_clock1-truck3.png
subject-01,1,463,0.993427991867065,truck,truck,0,0463_s5n_s01_0_truck_00_truck5-bird2.png
subject-01,1,464,0.625342130661011,boat,knife,0,0464_s5n_s01_0_knife_00_knife1-bird2.png
subject-01,1,465,0.988365173339844,chair,chair,0,0465_s5n_s01_0_chair_00_chair5-oven2.png
subject-01,1,466,0.856311082839966,bottle,bottle,0,0466_s5n_s01_0_bottle_00_bottle6-bottle3.png
subject-01,1,467,1.15138387680054,bottle,bottle,0,0467_s5n_s01_0_bottle_00_bottle8-dog2.png
subject-01,1,468,0.767571926116943,boat,elephant,0,0468_s5n_s01_0_elephant_00_elephant2-airplane3.png
subject-01,1,469,0.844168901443481,bear,airplane,0,0469_s5n_s01_0_airplane_00_airplane4-bear3.png
subject-01,1,470,0.914796113967896,bird,dog,0,0470_s5n_s01_0_dog_00_dog5-truck2.png
subject-01,1,471,1.10683989524841,elephant,elephant,0,0471_s5n_s01_0_elephant_00_elephant6-oven1.png
subject-01,1,472,0.777627944946289,clock,oven,0,0472_s5n_s01_0_oven_00_oven3-elephant3.png
subject-01,1,473,0.931992053985596,airplane,airplane,0,0473_s5n_s01_0_airplane_00_airplane7-bottle3.png
subject-01,1,474,0.856538057327271,boat,boat,0,0474_s5n_s01_0_boat_00_boat1-keyboard3.png
subject-01,1,475,0.811170816421509,truck,truck,0,0475_s5n_s01_0_truck_00_truck4-boat3.png
subject-01,1,476,0.851555824279785,truck,car,0,0476_s5n_s01_0_car_00_car7-oven2.png
subject-01,1,477,0.867823123931885,keyboard,keyboard,0,0477_s5n_s01_0_keyboard_00_keyboard7-bottle1.png
subject-01,1,478,NaN,na,chair,0,0478_s5n_s01_0_chair_00_chair10-car2.png
subject-01,1,479,0.706418991088867,bear,bear,0,0479_s5n_s01_0_bear_00_bear8-truck3.png
subject-01,1,480,0.753105163574219,dog,dog,0,0480_s5n_s01_0_dog_00_dog8-bear3.png
subject-01,1,481,0.769253015518188,dog,dog,0,0481_s5n_s01_0_dog_00_dog5-boat3.png
subject-01,1,482,1.00000214576721,cat,bird,0,0482_s5n_s01_0_bird_00_bird1-chair2.png
subject-01,1,483,0.808177947998047,dog,chair,0,0483_s5n_s01_0_chair_00_chair9-dog2.png
subject-01,1,484,1.0409688949585,airplane,airplane,0,0484_s5n_s01_0_airplane_00_airplane10-dog3.png
subject-01,1,485,0.711398124694824,boat,cat,0,0485_s5n_s01_0_cat_00_cat4-chair2.png
subject-01,1,486,0.889801979064941,cat,bottle,0,0486_s5n_s01_0_bottle_00_bottle1-cat3.png
subject-01,1,487,1.19839692115784,elephant,elephant,0,0487_s5n_s01_0_elephant_00_elephant5-bottle2.png
subject-01,1,488,1.50026202201843,boat,chair,0,0488_s5n_s01_0_chair_00_chair9-bird3.png
subject-01,1,489,0.961265087127686,clock,clock,0,0489_s5n_s01_0_clock_00_clock1-car1.png
subject-01,1,490,0.961325883865356,boat,chair,0,0490_s5n_s01_0_chair_00_chair4-chair3.png
subject-01,1,491,0.92425799369812,oven,oven,0,0491_s5n_s01_0_oven_00_oven9-bird3.png
subject-01,1,492,NaN,na,oven,0,0492_s5n_s01_0_oven_00_oven6-elephant2.png
subject-01,1,493,0.586642026901245,boat,boat,0,0493_s5n_s01_0_boat_00_boat6-knife2.png
subject-01,1,494,0.973263025283813,dog,dog,0,0494_s5n_s01_0_dog_00_dog1-airplane3.png
subject-01,1,495,0.905603885650635,clock,bottle,0,0495_s5n_s01_0_bottle_00_bottle3-boat3.png
subject-01,1,496,0.674276113510132,boat,airplane,0,0496_s5n_s01_0_airplane_00_airplane10-knife3.png
subject-01,1,497,1.1445951461792,cat,cat,0,0497_s5n_s01_0_cat_00_cat5-bottle1.png
subject-01,1,498,0.815036058425903,cat,cat,0,0498_s5n_s01_0_cat_00_cat1-dog1.png
subject-01,1,499,0.877448081970215,dog,dog,0,0499_s5n_s01_0_dog_00_dog5-elephant1.png
subject-01,1,500,0.531856060028076,boat,boat,0,0500_s5n_s01_0_boat_00_boat6-elephant2.png
subject-01,1,501,0.940205097198486,bicycle,bicycle,0,0501_s5n_s01_0_bicycle_00_bicycle6-boat2.png
subject-01,1,502,0.894347906112671,cat,car,0,0502_s5n_s01_0_car_00_car2-cat3.png
subject-01,1,503,0.732489109039307,bottle,chair,0,0503_s5n_s01_0_chair_00_chair10-bird3.png
subject-01,1,504,0.873017072677612,boat,car,0,0504_s5n_s01_0_car_00_car1-dog2.png
subject-01,1,505,0.689364910125732,cat,cat,0,0505_s5n_s01_0_cat_00_cat8-bear1.png
subject-01,1,506,NaN,na,bottle,0,0506_s5n_s01_0_bottle_00_bottle5-clock3.png
subject-01,1,507,0.957842111587524,knife,knife,0,0507_s5n_s01_0_knife_00_knife5-knife3.png
subject-01,1,508,0.798228025436401,bicycle,bicycle,0,0508_s5n_s01_0_bicycle_00_bicycle10-elephant2.png
subject-01,1,509,0.806586027145386,bottle,bottle,0,0509_s5n_s01_0_bottle_00_bottle3-bicycle3.png
subject-01,1,510,NaN,na,boat,0,0510_s5n_s01_0_boat_00_boat6-bicycle2.png
subject-01,1,511,0.853210926055908,truck,truck,0,0511_s5n_s01_0_truck_00_truck1-bear1.png
subject-01,1,512,0.701869964599609,keyboard,keyboard,0,0512_s5n_s01_0_keyboard_00_keyboard7-boat2.png
subject-01,1,513,1.46953821182251,oven,oven,0,0513_s5n_s01_0_oven_00_oven7-clock2.png
subject-01,1,514,0.601727962493896,bird,bird,0,0514_s5n_s01_0_bird_00_bird1-knife3.png
subject-01,1,515,0.902143955230713,bird,bird,0,0515_s5n_s01_0_bird_00_bird5-oven3.png
subject-01,1,516,0.488866090774536,clock,clock,0,0516_s5n_s01_0_clock_00_clock8-bear2.png
subject-01,1,517,1.12713098526001,cat,dog,0,0517_s5n_s01_0_dog_00_dog4-keyboard2.png
subject-01,1,518,0.506130933761597,clock,clock,0,0518_s5n_s01_0_clock_00_clock8-knife1.png
subject-01,1,519,0.614262104034424,oven,oven,0,0519_s5n_s01_0_oven_00_oven7-elephant1.png
subject-01,1,520,0.668873071670532,clock,clock,0,0520_s5n_s01_0_clock_00_clock3-keyboard3.png
subject-01,1,521,0.531145811080933,clock,clock,0,0521_s5n_s01_0_clock_00_clock4-airplane1.png
subject-01,1,522,0.661885976791382,car,car,0,0522_s5n_s01_0_car_00_car7-airplane2.png
subject-01,1,523,0.848045110702515,bear,bear,0,0523_s5n_s01_0_bear_00_bear8-elephant2.png
subject-01,1,524,0.640623092651367,oven,oven,0,0524_s5n_s01_0_oven_00_oven5-airplane1.png
subject-01,1,525,1.00340509414673,car,car,0,0525_s5n_s01_0_car_00_car3-dog2.png
subject-01,1,526,0.673516988754272,elephant,elephant,0,0526_s5n_s01_0_elephant_00_elephant7-bear3.png
subject-01,1,527,0.752245187759399,chair,chair,0,0527_s5n_s01_0_chair_00_chair9-chair3.png
subject-01,1,528,0.690547943115234,bottle,bottle,0,0528_s5n_s01_0_bottle_00_bottle9-bottle1.png
subject-01,1,529,0.852900981903076,elephant,elephant,0,0529_s5n_s01_0_elephant_00_elephant8-cat1.png
subject-01,1,530,0.685451030731201,truck,truck,0,0530_s5n_s01_0_truck_00_truck10-bicycle1.png
subject-01,1,531,0.69389796257019,bird,bird,0,0531_s5n_s01_0_bird_00_bird3-cat1.png
subject-01,1,532,0.70831298828125,chair,chair,0,0532_s5n_s01_0_chair_00_chair5-truck3.png
subject-01,1,533,0.710922956466675,car,car,0,0533_s5n_s01_0_car_00_car7-bear1.png
subject-01,1,534,0.58741307258606,boat,boat,0,0534_s5n_s01_0_boat_00_boat6-cat1.png
subject-01,1,535,0.495866060256958,clock,clock,0,0535_s5n_s01_0_clock_00_clock8-oven3.png
subject-01,1,536,0.636477947235107,truck,truck,0,0536_s5n_s01_0_truck_00_truck4-bottle2.png
subject-01,1,537,0.590934038162231,chair,chair,0,0537_s5n_s01_0_chair_00_chair4-truck2.png
subject-01,1,538,0.645241975784302,airplane,elephant,0,0538_s5n_s01_0_elephant_00_elephant2-cat1.png
subject-01,1,539,0.723721027374268,car,car,0,0539_s5n_s01_0_car_00_car4-elephant3.png
subject-01,1,540,NaN,na,keyboard,0,0540_s5n_s01_0_keyboard_00_keyboard3-bicycle2.png
subject-01,1,541,0.494374990463257,cat,truck,0,0541_s5n_s01_0_truck_00_truck3-clock3.png
subject-01,1,542,0.732792854309082,elephant,elephant,0,0542_s5n_s01_0_elephant_00_elephant7-bottle3.png
subject-01,1,543,0.563192129135132,truck,truck,0,0543_s5n_s01_0_truck_00_truck1-clock3.png
subject-01,1,544,0.971685886383057,elephant,bear,0,0544_s5n_s01_0_bear_00_bear4-oven2.png
subject-01,1,545,1.38013100624084,chair,chair,0,0545_s5n_s01_0_chair_00_chair2-boat1.png
subject-01,1,546,0.805023193359375,oven,oven,0,0546_s5n_s01_0_oven_00_oven1-cat1.png
subject-01,1,547,0.729331016540527,chair,chair,0,0547_s5n_s01_0_chair_00_chair7-bottle1.png
subject-01,1,548,0.57557201385498,truck,truck,0,0548_s5n_s01_0_truck_00_truck9-airplane2.png
subject-01,1,549,1.38162302970886,bicycle,bicycle,0,0549_s5n_s01_0_bicycle_00_bicycle1-bottle3.png
subject-01,1,550,0.61377477645874,keyboard,keyboard,0,0550_s5n_s01_0_keyboard_00_keyboard4-cat2.png
subject-01,1,551,1.34423208236694,bear,bicycle,0,0551_s5n_s01_0_bicycle_00_bicycle1-clock3.png
subject-01,1,552,0.815212965011597,car,car,0,0552_s5n_s01_0_car_00_car9-truck3.png
subject-01,1,553,0.685587882995605,airplane,airplane,0,0553_s5n_s01_0_airplane_00_airplane4-airplane1.png
subject-01,1,554,1.2243390083313,bicycle,bicycle,0,0554_s5n_s01_0_bicycle_00_bicycle8-bear2.png
subject-01,1,555,0.618628025054932,bird,bird,0,0555_s5n_s01_0_bird_00_bird5-keyboard2.png
subject-01,1,556,0.594813108444214,keyboard,keyboard,0,0556_s5n_s01_0_keyboard_00_keyboard8-oven1.png
subject-01,1,557,0.619261980056763,cat,boat,0,0557_s5n_s01_0_boat_00_boat9-bird1.png
subject-01,1,558,0.581943035125732,boat,car,0,0558_s5n_s01_0_car_00_car9-bird1.png
subject-01,1,559,0.72260308265686,bird,bird,0,0559_s5n_s01_0_bird_00_bird10-bicycle1.png
subject-01,1,560,0.74507999420166,keyboard,keyboard,0,0560_s5n_s01_0_keyboard_00_keyboard5-oven2.png
subject-01,1,561,0.653614044189453,car,car,0,0561_s5n_s01_0_car_00_car9-cat1.png
subject-01,1,562,0.886072874069214,keyboard,keyboard,0,0562_s5n_s01_0_keyboard_00_keyboard5-bicycle1.png
subject-01,1,563,1.1086208820343,bottle,bottle,0,0563_s5n_s01_0_bottle_00_bottle6-chair2.png
subject-01,1,564,0.649054050445557,airplane,airplane,0,0564_s5n_s01_0_airplane_00_airplane7-clock3.png
subject-01,1,565,1.19526481628418,airplane,airplane,0,0565_s5n_s01_0_airplane_00_airplane10-car3.png
subject-01,1,566,0.782149076461792,car,truck,0,0566_s5n_s01_0_truck_00_truck3-keyboard3.png
subject-01,1,567,0.957895994186401,chair,chair,0,0567_s5n_s01_0_chair_00_chair1-bear1.png
subject-01,1,568,1.1044659614563,bottle,bottle,0,0568_s5n_s01_0_bottle_00_bottle5-truck1.png
subject-01,1,569,0.821005821228027,keyboard,keyboard,0,0569_s5n_s01_0_keyboard_00_keyboard6-knife2.png
subject-01,1,570,0.967734098434448,keyboard,keyboard,0,0570_s5n_s01_0_keyboard_00_keyboard4-clock2.png
subject-01,1,571,1.36794900894165,cat,cat,0,0571_s5n_s01_0_cat_00_cat9-truck1.png
subject-01,1,572,0.500452041625977,oven,knife,0,0572_s5n_s01_0_knife_00_knife1-truck2.png
subject-01,1,573,0.671144962310791,clock,clock,0,0573_s5n_s01_0_clock_00_clock1-bear1.png
subject-01,1,574,0.608958959579468,boat,airplane,0,0574_s5n_s01_0_airplane_00_airplane2-cat1.png
subject-01,1,575,0.801211833953857,bird,bird,0,0575_s5n_s01_0_bird_00_bird9-bicycle3.png
subject-01,1,576,1.50003218650818,car,car,0,0576_s5n_s01_0_car_00_car8-bear1.png
subject-01,1,577,1.09406995773315,bottle,bottle,0,0577_s5n_s01_0_bottle_00_bottle2-car2.png
subject-01,1,578,0.956505060195923,car,car,0,0578_s5n_s01_0_car_00_car8-airplane3.png
subject-01,1,579,0.819236993789673,boat,knife,0,0579_s5n_s01_0_knife_00_knife6-airplane1.png
subject-01,1,580,0.767631053924561,cat,boat,0,0580_s5n_s01_0_boat_00_boat6-bottle2.png
subject-01,1,581,0.898153066635132,oven,bear,0,0581_s5n_s01_0_bear_00_bear6-bear1.png
subject-01,1,582,0.80682897567749,keyboard,keyboard,0,0582_s5n_s01_0_keyboard_00_keyboard5-bear3.png
subject-01,1,583,0.799031019210815,boat,elephant,0,0583_s5n_s01_0_elephant_00_elephant4-bird1.png
subject-01,1,584,0.769760131835938,cat,cat,0,0584_s5n_s01_0_cat_00_cat5-bicycle3.png
subject-01,1,585,1.50020694732666,truck,truck,0,0585_s5n_s01_0_truck_00_truck3-knife2.png
subject-01,1,586,1.04825305938721,bottle,bottle,0,0586_s5n_s01_0_bottle_00_bottle9-truck1.png
subject-01,1,587,0.886704921722412,elephant,elephant,0,0587_s5n_s01_0_elephant_00_elephant7-cat1.png
subject-01,1,588,0.741486072540283,boat,knife,0,0588_s5n_s01_0_knife_00_knife2-cat3.png
subject-01,1,589,0.941705942153931,truck,truck,0,0589_s5n_s01_0_truck_00_truck6-bottle3.png
subject-01,1,590,1.18239307403564,airplane,airplane,0,0590_s5n_s01_0_airplane_00_airplane1-chair2.png
subject-01,1,591,1.06673789024353,car,truck,0,0591_s5n_s01_0_truck_00_truck5-car1.png
subject-01,1,592,0.953029155731201,knife,knife,0,0592_s5n_s01_0_knife_00_knife5-clock1.png
subject-01,1,593,0.791568994522095,keyboard,keyboard,0,0593_s5n_s01_0_keyboard_00_keyboard5-bird3.png
subject-01,1,594,0.638356924057007,cat,clock,0,0594_s5n_s01_0_clock_00_clock3-dog2.png
subject-01,1,595,0.984684944152832,bicycle,bicycle,0,0595_s5n_s01_0_bicycle_00_bicycle7-bicycle2.png
subject-01,1,596,0.693324089050293,boat,truck,0,0596_s5n_s01_0_truck_00_truck5-truck1.png
subject-01,1,597,0.579698085784912,oven,keyboard,0,0597_s5n_s01_0_keyboard_00_keyboard4-bird1.png
subject-01,1,598,0.664255857467651,boat,oven,0,0598_s5n_s01_0_oven_00_oven8-cat3.png
subject-01,1,599,0.610322952270508,clock,elephant,0,0599_s5n_s01_0_elephant_00_elephant10-elephant1.png
subject-01,1,600,0.756588935852051,chair,chair,0,0600_s5n_s01_0_chair_00_chair8-chair3.png
subject-01,1,601,0.842833042144775,bicycle,bicycle,0,0601_s5n_s01_0_bicycle_00_bicycle4-keyboard3.png
subject-01,1,602,0.713610172271729,bird,bird,0,0602_s5n_s01_0_bird_00_bird5-chair1.png
subject-01,1,603,0.589759111404419,chair,chair,0,0603_s5n_s01_0_chair_00_chair8-oven1.png
subject-01,1,604,0.622642040252686,boat,boat,0,0604_s5n_s01_0_boat_00_boat9-knife2.png
subject-01,1,605,0.77691388130188,knife,knife,0,0605_s5n_s01_0_knife_00_knife5-bicycle2.png
subject-01,1,606,0.607569932937622,cat,cat,0,0606_s5n_s01_0_cat_00_cat1-boat1.png
subject-01,1,607,0.648137092590332,cat,cat,0,0607_s5n_s01_0_cat_00_cat10-bear1.png
subject-01,1,608,0.79427695274353,bird,knife,0,0608_s5n_s01_0_knife_00_knife4-bear1.png
subject-01,1,609,0.502840995788574,clock,clock,0,0609_s5n_s01_0_clock_00_clock4-bottle3.png
subject-01,1,610,0.641125917434692,cat,oven,0,0610_s5n_s01_0_oven_00_oven9-bear2.png
subject-01,1,611,0.595674991607666,bird,bird,0,0611_s5n_s01_0_bird_00_bird10-cat1.png
subject-01,1,612,0.842201948165894,boat,boat,0,0612_s5n_s01_0_boat_00_boat8-dog3.png
subject-01,1,613,0.71271800994873,airplane,airplane,0,0613_s5n_s01_0_airplane_00_airplane5-bird2.png
subject-01,1,614,1.09124684333801,airplane,airplane,0,0614_s5n_s01_0_airplane_00_airplane4-bird3.png
subject-01,1,615,1.24541807174683,clock,clock,0,0615_s5n_s01_0_clock_00_clock3-car2.png
subject-01,1,616,0.762296915054321,oven,keyboard,0,0616_s5n_s01_0_keyboard_00_keyboard7-dog1.png
subject-01,1,617,0.862739086151123,dog,dog,0,0617_s5n_s01_0_dog_00_dog7-bird3.png
subject-01,1,618,0.739060163497925,airplane,airplane,0,0618_s5n_s01_0_airplane_00_airplane10-boat3.png
subject-01,1,619,0.717504978179932,boat,knife,0,0619_s5n_s01_0_knife_00_knife3-cat1.png
subject-01,1,620,0.663761138916016,keyboard,keyboard,0,0620_s5n_s01_0_keyboard_00_keyboard5-bottle1.png
subject-01,1,621,0.810415983200073,bicycle,bicycle,0,0621_s5n_s01_0_bicycle_00_bicycle9-knife3.png
subject-01,1,622,1.2883141040802,truck,knife,0,0622_s5n_s01_0_knife_00_knife4-oven2.png
subject-01,1,623,0.910968065261841,knife,boat,0,0623_s5n_s01_0_boat_00_boat1-oven1.png
subject-01,1,624,0.597299098968506,clock,clock,0,0624_s5n_s01_0_clock_00_clock7-dog2.png
subject-01,1,625,0.697918891906738,chair,chair,0,0625_s5n_s01_0_chair_00_chair7-bird1.png
subject-01,1,626,0.844374895095825,boat,bear,0,0626_s5n_s01_0_bear_00_bear10-bottle1.png
subject-01,1,627,0.646855115890503,cat,oven,0,0627_s5n_s01_0_oven_00_oven2-dog3.png
subject-01,1,628,0.755249977111816,bottle,bottle,0,0628_s5n_s01_0_bottle_00_bottle5-bird3.png
subject-01,1,629,0.763994932174683,boat,boat,0,0629_s5n_s01_0_boat_00_boat8-bird2.png
subject-01,1,630,1.17041516304016,bicycle,bicycle,0,0630_s5n_s01_0_bicycle_00_bicycle2-bicycle1.png
subject-01,1,631,0.673144102096558,cat,bottle,0,0631_s5n_s01_0_bottle_00_bottle7-truck2.png
subject-01,1,632,0.619287967681885,clock,clock,0,0632_s5n_s01_0_clock_00_clock9-chair3.png
subject-01,1,633,0.997786998748779,bird,bird,0,0633_s5n_s01_0_bird_00_bird3-bear3.png
subject-01,1,634,0.944130897521973,truck,truck,0,0634_s5n_s01_0_truck_00_truck3-bird2.png
subject-01,1,635,0.798535823822021,bottle,bottle,0,0635_s5n_s01_0_bottle_00_bottle1-bear1.png
subject-01,1,636,1.47512483596802,bird,airplane,0,0636_s5n_s01_0_airplane_00_airplane7-cat3.png
subject-01,1,637,0.931423902511597,dog,dog,0,0637_s5n_s01_0_dog_00_dog10-bottle1.png
subject-01,1,638,1.44586610794067,elephant,elephant,0,0638_s5n_s01_0_elephant_00_elephant4-clock3.png
subject-01,1,639,0.66257905960083,chair,chair,0,0639_s5n_s01_0_chair_00_chair7-elephant1.png
subject-01,1,640,1.31722617149353,airplane,airplane,0,0640_s5n_s01_0_airplane_00_airplane10-truck1.png
subject-01,1,641,0.879772186279297,dog,bear,0,0641_s5n_s01_0_bear_00_bear8-airplane1.png
subject-01,1,642,0.718038082122803,bicycle,bicycle,0,0642_s5n_s01_0_bicycle_00_bicycle6-car2.png
subject-01,1,643,0.966753005981445,bicycle,bicycle,0,0643_s5n_s01_0_bicycle_00_bicycle1-bird1.png
subject-01,1,644,0.667218923568726,truck,truck,0,0644_s5n_s01_0_truck_00_truck2-elephant1.png
subject-01,1,645,1.06766891479492,airplane,airplane,0,0645_s5n_s01_0_airplane_00_airplane10-oven2.png
subject-01,1,646,0.706116914749146,bird,bird,0,0646_s5n_s01_0_bird_00_bird4-dog3.png
subject-01,1,647,1.21452307701111,cat,cat,0,0647_s5n_s01_0_cat_00_cat10-bicycle1.png
subject-01,1,648,0.98511791229248,truck,truck,0,0648_s5n_s01_0_truck_00_truck10-airplane1.png
subject-01,1,649,1.25335502624512,bottle,chair,0,0649_s5n_s01_0_chair_00_chair6-elephant2.png
subject-01,1,650,0.915551900863647,boat,airplane,0,0650_s5n_s01_0_airplane_00_airplane2-bird3.png
subject-01,1,651,0.816115140914917,keyboard,keyboard,0,0651_s5n_s01_0_keyboard_00_keyboard10-car1.png
subject-01,1,652,0.978225946426392,boat,cat,0,0652_s5n_s01_0_cat_00_cat10-elephant3.png
subject-01,1,653,1.06510710716248,cat,cat,0,0653_s5n_s01_0_cat_00_cat5-dog3.png
subject-01,1,654,1.0493791103363,dog,dog,0,0654_s5n_s01_0_dog_00_dog7-knife3.png
subject-01,1,655,0.950001955032349,car,car,0,0655_s5n_s01_0_car_00_car9-bicycle2.png
subject-01,1,656,0.650269985198975,boat,airplane,0,0656_s5n_s01_0_airplane_00_airplane4-bicycle2.png
subject-01,1,657,0.820961952209473,truck,truck,0,0657_s5n_s01_0_truck_00_truck2-bird2.png
subject-01,1,658,0.952981948852539,airplane,airplane,0,0658_s5n_s01_0_airplane_00_airplane8-clock2.png
subject-01,1,659,1.07535099983215,dog,dog,0,0659_s5n_s01_0_dog_00_dog4-elephant2.png
subject-01,1,660,0.861816883087158,truck,truck,0,0660_s5n_s01_0_truck_00_truck5-dog3.png
subject-01,1,661,0.892286062240601,dog,dog,0,0661_s5n_s01_0_dog_00_dog4-truck2.png
subject-01,1,662,1.02458214759827,bicycle,bicycle,0,0662_s5n_s01_0_bicycle_00_bicycle6-dog2.png
subject-01,1,663,0.733083009719849,bottle,bottle,0,0663_s5n_s01_0_bottle_00_bottle7-boat3.png
subject-01,1,664,0.709789037704468,bird,bird,0,0664_s5n_s01_0_bird_00_bird7-bottle1.png
subject-01,1,665,0.742300033569336,chair,chair,0,0665_s5n_s01_0_chair_00_chair5-car1.png
subject-01,1,666,0.880620002746582,bird,bird,0,0666_s5n_s01_0_bird_00_bird8-boat3.png
subject-01,1,667,0.635315179824829,bear,bear,0,0667_s5n_s01_0_bear_00_bear2-knife2.png
subject-01,1,668,0.667503118515015,car,car,0,0668_s5n_s01_0_car_00_car6-knife1.png
subject-01,1,669,0.746094942092896,elephant,elephant,0,0669_s5n_s01_0_elephant_00_elephant5-bear2.png
subject-01,1,670,1.15273404121399,cat,bird,0,0670_s5n_s01_0_bird_00_bird6-boat2.png
subject-01,1,671,0.723228931427002,clock,clock,0,0671_s5n_s01_0_clock_00_clock8-airplane2.png
subject-01,1,672,0.647150993347168,oven,bird,0,0672_s5n_s01_0_bird_00_bird8-bottle1.png
subject-01,1,673,1.0478720664978,cat,bear,0,0673_s5n_s01_0_bear_00_bear4-cat3.png
subject-01,1,674,0.864181995391846,car,car,0,0674_s5n_s01_0_car_00_car10-keyboard2.png
subject-01,1,675,1.10290193557739,bear,bear,0,0675_s5n_s01_0_bear_00_bear4-knife1.png
subject-01,1,676,NaN,na,truck,0,0676_s5n_s01_0_truck_00_truck5-keyboard1.png
subject-01,1,677,0.873612880706787,bicycle,bicycle,0,0677_s5n_s01_0_bicycle_00_bicycle2-knife2.png
subject-01,1,678,0.652096033096313,boat,bear,0,0678_s5n_s01_0_bear_00_bear6-bottle3.png
subject-01,1,679,0.868561983108521,cat,bottle,0,0679_s5n_s01_0_bottle_00_bottle8-bird1.png
subject-01,1,680,0.714962959289551,chair,chair,0,0680_s5n_s01_0_chair_00_chair8-boat1.png
subject-01,1,681,1.07740187644958,bear,elephant,0,0681_s5n_s01_0_elephant_00_elephant1-chair1.png
subject-01,1,682,0.815701007843018,knife,keyboard,0,0682_s5n_s01_0_keyboard_00_keyboard3-cat1.png
subject-01,1,683,1.13204097747803,elephant,bear,0,0683_s5n_s01_0_bear_00_bear4-car3.png
subject-01,1,684,0.864449024200439,keyboard,keyboard,0,0684_s5n_s01_0_keyboard_00_keyboard8-dog3.png
subject-01,1,685,0.949020862579346,bottle,bottle,0,0685_s5n_s01_0_bottle_00_bottle9-keyboard1.png
subject-01,1,686,1.01967787742615,car,car,0,0686_s5n_s01_0_car_00_car7-elephant3.png
subject-01,1,687,1.12817001342773,bicycle,bicycle,0,0687_s5n_s01_0_bicycle_00_bicycle9-airplane2.png
subject-01,1,688,0.820742845535278,keyboard,keyboard,0,0688_s5n_s01_0_keyboard_00_keyboard9-chair2.png
subject-01,1,689,0.837023973464966,boat,airplane,0,0689_s5n_s01_0_airplane_00_airplane3-dog1.png
subject-01,1,690,0.805863857269287,bottle,bottle,0,0690_s5n_s01_0_bottle_00_bottle9-oven2.png
subject-01,1,691,1.00811982154846,bottle,bottle,0,0691_s5n_s01_0_bottle_00_bottle3-airplane2.png
subject-01,1,692,1.07060599327087,bird,bird,0,0692_s5n_s01_0_bird_00_bird2-car3.png
subject-01,1,693,0.922900915145874,dog,dog,0,0693_s5n_s01_0_dog_00_dog9-bottle1.png
subject-01,1,694,0.855080842971802,bear,bear,0,0694_s5n_s01_0_bear_00_bear8-dog1.png
subject-01,1,695,0.779849052429199,chair,chair,0,0695_s5n_s01_0_chair_00_chair1-dog1.png
subject-01,1,696,1.03980803489685,cat,cat,0,0696_s5n_s01_0_cat_00_cat7-elephant1.png
subject-01,1,697,0.689095973968506,cat,cat,0,0697_s5n_s01_0_cat_00_cat1-oven1.png
subject-01,1,698,1.50007605552673,elephant,elephant,0,0698_s5n_s01_0_elephant_00_elephant3-keyboard2.png
subject-01,1,699,1.28944492340088,airplane,knife,0,0699_s5n_s01_0_knife_00_knife1-keyboard3.png
subject-01,1,700,0.873861074447632,cat,chair,0,0700_s5n_s01_0_chair_00_chair2-keyboard2.png
subject-01,1,701,0.828431129455566,cat,cat,0,0701_s5n_s01_0_cat_00_cat3-bear2.png
subject-01,1,702,0.860740900039673,airplane,airplane,0,0702_s5n_s01_0_airplane_00_airplane5-bear2.png
subject-01,1,703,1.00776195526123,bear,bear,0,0703_s5n_s01_0_bear_00_bear10-chair2.png
subject-01,1,704,0.953835010528564,elephant,elephant,0,0704_s5n_s01_0_elephant_00_elephant1-boat2.png
subject-01,1,705,0.894408941268921,bottle,bottle,0,0705_s5n_s01_0_bottle_00_bottle6-bird1.png
subject-01,1,706,0.726715087890625,bicycle,bicycle,0,0706_s5n_s01_0_bicycle_00_bicycle7-clock3.png
subject-01,1,707,1.10339713096619,elephant,elephant,0,0707_s5n_s01_0_elephant_00_elephant2-boat1.png
subject-01,1,708,1.03599405288696,car,car,0,0708_s5n_s01_0_car_00_car4-boat1.png
subject-01,1,709,1.05023384094238,bird,bird,0,0709_s5n_s01_0_bird_00_bird7-bird2.png
subject-01,1,710,0.928401947021484,car,car,0,0710_s5n_s01_0_car_00_car10-bottle3.png
subject-01,1,711,1.2288761138916,dog,dog,0,0711_s5n_s01_0_dog_00_dog2-bicycle2.png
subject-01,1,712,0.799547910690308,airplane,knife,0,0712_s5n_s01_0_knife_00_knife4-boat1.png
subject-01,1,713,1.25423288345337,clock,bottle,0,0713_s5n_s01_0_bottle_00_bottle7-keyboard2.png
subject-01,1,714,0.894546031951904,elephant,elephant,0,0714_s5n_s01_0_elephant_00_elephant8-dog1.png
subject-01,1,715,0.640872001647949,boat,boat,0,0715_s5n_s01_0_boat_00_boat9-boat3.png
subject-01,1,716,0.911512851715088,keyboard,keyboard,0,0716_s5n_s01_0_keyboard_00_keyboard6-boat2.png
subject-01,1,717,0.928011178970337,cat,bear,0,0717_s5n_s01_0_bear_00_bear1-bear3.png
subject-01,1,718,0.806576013565063,bear,bear,0,0718_s5n_s01_0_bear_00_bear1-clock2.png
subject-01,1,719,0.79092001914978,car,cat,0,0719_s5n_s01_0_cat_00_cat4-bird2.png
subject-01,1,720,0.645591020584106,clock,clock,0,0720_s5n_s01_0_clock_00_clock4-chair1.png
subject-01,1,721,0.569268941879272,bear,bear,0,0721_s5n_s01_0_bear_00_bear5-bicycle3.png
subject-01,1,722,0.801795959472656,oven,oven,0,0722_s5n_s01_0_oven_00_oven6-airplane3.png
subject-01,1,723,0.756415843963623,bear,elephant,0,0723_s5n_s01_0_elephant_00_elephant6-cat2.png
subject-01,1,724,1.01895785331726,airplane,airplane,0,0724_s5n_s01_0_airplane_00_airplane5-boat3.png
subject-01,1,725,1.2035059928894,bicycle,bicycle,0,0725_s5n_s01_0_bicycle_00_bicycle3-keyboard1.png
subject-01,1,726,1.50005221366882,boat,keyboard,0,0726_s5n_s01_0_keyboard_00_keyboard4-truck3.png
subject-01,1,727,0.944545030593872,dog,dog,0,0727_s5n_s01_0_dog_00_dog8-clock2.png
subject-01,1,728,1.02926778793335,bottle,bottle,0,0728_s5n_s01_0_bottle_00_bottle9-cat2.png
subject-01,1,729,0.669348955154419,clock,knife,0,0729_s5n_s01_0_knife_00_knife1-clock2.png
subject-01,1,730,0.824027061462402,bicycle,bicycle,0,0730_s5n_s01_0_bicycle_00_bicycle7-truck3.png
subject-01,1,731,0.978366851806641,clock,clock,0,0731_s5n_s01_0_clock_00_clock10-cat1.png
subject-01,1,732,1.27286005020142,chair,chair,0,0732_s5n_s01_0_chair_00_chair2-knife1.png
subject-01,1,733,0.765244007110596,oven,oven,0,0733_s5n_s01_0_oven_00_oven1-boat3.png
subject-01,1,734,0.697649002075195,clock,clock,0,0734_s5n_s01_0_clock_00_clock6-bicycle1.png
subject-01,1,735,0.997984886169434,chair,chair,0,0735_s5n_s01_0_chair_00_chair8-car1.png
subject-01,1,736,0.800465106964111,bear,bear,0,0736_s5n_s01_0_bear_00_bear3-car2.png
subject-01,1,737,0.830911874771118,dog,dog,0,0737_s5n_s01_0_dog_00_dog1-bird1.png
subject-01,1,738,0.825415134429932,truck,truck,0,0738_s5n_s01_0_truck_00_truck10-car3.png
subject-01,1,739,0.894218921661377,bottle,bottle,0,0739_s5n_s01_0_bottle_00_bottle5-knife1.png
subject-01,1,740,0.834328889846802,knife,knife,0,0740_s5n_s01_0_knife_00_knife8-bottle3.png
subject-01,1,741,1.32679891586304,truck,truck,0,0741_s5n_s01_0_truck_00_truck2-bicycle2.png
subject-01,1,742,1.17354297637939,truck,truck,0,0742_s5n_s01_0_truck_00_truck6-dog2.png
subject-01,1,743,0.744109153747559,bottle,bottle,0,0743_s5n_s01_0_bottle_00_bottle8-bicycle1.png
subject-01,1,744,0.660567998886108,boat,airplane,0,0744_s5n_s01_0_airplane_00_airplane4-cat3.png
subject-01,1,745,1.16880393028259,airplane,airplane,0,0745_s5n_s01_0_airplane_00_airplane5-dog3.png
subject-01,1,746,1.30167198181152,boat,dog,0,0746_s5n_s01_0_dog_00_dog1-chair1.png
subject-01,1,747,1.348060131073,bear,bird,0,0747_s5n_s01_0_bird_00_bird8-keyboard2.png
subject-01,1,748,0.764300107955933,oven,oven,0,0748_s5n_s01_0_oven_00_oven4-keyboard3.png
subject-01,1,749,0.796956062316895,boat,car,0,0749_s5n_s01_0_car_00_car9-keyboard2.png
subject-01,1,750,1.09730696678162,bottle,bottle,0,0750_s5n_s01_0_bottle_00_bottle5-oven2.png
subject-01,1,751,0.959801912307739,elephant,elephant,0,0751_s5n_s01_0_elephant_00_elephant1-bear2.png
subject-01,1,752,0.82232403755188,cat,bear,0,0752_s5n_s01_0_bear_00_bear6-bird2.png
subject-01,1,753,0.55473804473877,clock,airplane,0,0753_s5n_s01_0_airplane_00_airplane8-oven2.png
subject-01,1,754,0.762973785400391,clock,clock,0,0754_s5n_s01_0_clock_00_clock6-car2.png
subject-01,1,755,0.871630907058716,keyboard,keyboard,0,0755_s5n_s01_0_keyboard_00_keyboard1-elephant3.png
subject-01,1,756,0.802006006240845,cat,bear,0,0756_s5n_s01_0_bear_00_bear1-bicycle3.png
subject-01,1,757,0.972519159317017,oven,car,0,0757_s5n_s01_0_car_00_car1-keyboard2.png
subject-01,1,758,1.2348301410675,bicycle,boat,0,0758_s5n_s01_0_boat_00_boat7-clock3.png
subject-01,1,759,0.743245124816895,clock,truck,0,0759_s5n_s01_0_truck_00_truck3-bear3.png
subject-01,1,760,1.50010180473328,boat,bicycle,0,0760_s5n_s01_0_bicycle_00_bicycle2-keyboard2.png
subject-01,1,761,1.03808689117432,bicycle,bicycle,0,0761_s5n_s01_0_bicycle_00_bicycle7-knife2.png
subject-01,1,762,0.930301904678345,bicycle,bicycle,0,0762_s5n_s01_0_bicycle_00_bicycle4-clock3.png
subject-01,1,763,0.924896001815796,chair,keyboard,0,0763_s5n_s01_0_keyboard_00_keyboard7-chair3.png
subject-01,1,764,0.84154200553894,cat,dog,0,0764_s5n_s01_0_dog_00_dog3-elephant2.png
subject-01,1,765,0.871891021728516,cat,cat,0,0765_s5n_s01_0_cat_00_cat2-car3.png
subject-01,1,766,0.612605094909668,boat,keyboard,0,0766_s5n_s01_0_keyboard_00_keyboard2-clock1.png
subject-01,1,767,0.744946002960205,keyboard,keyboard,0,0767_s5n_s01_0_keyboard_00_keyboard3-boat1.png
subject-01,1,768,1.0754599571228,knife,knife,0,0768_s5n_s01_0_knife_00_knife6-dog2.png
subject-01,1,769,0.707751989364624,cat,cat,0,0769_s5n_s01_0_cat_00_cat5-bear2.png
subject-01,1,770,1.0837140083313,boat,boat,0,0770_s5n_s01_0_boat_00_boat6-airplane2.png
subject-01,1,771,0.862230062484741,keyboard,oven,0,0771_s5n_s01_0_oven_00_oven4-bicycle2.png
subject-01,1,772,0.748739957809448,truck,truck,0,0772_s5n_s01_0_truck_00_truck8-dog3.png
subject-01,1,773,0.835310935974121,knife,knife,0,0773_s5n_s01_0_knife_00_knife4-car2.png
subject-01,1,774,0.743748903274536,elephant,elephant,0,0774_s5n_s01_0_elephant_00_elephant7-clock2.png
subject-01,1,775,0.706081867218018,bicycle,bicycle,0,0775_s5n_s01_0_bicycle_00_bicycle4-bicycle3.png
subject-01,1,776,0.839067935943604,bear,bear,0,0776_s5n_s01_0_bear_00_bear8-bottle1.png
subject-01,1,777,0.8472900390625,bicycle,bicycle,0,0777_s5n_s01_0_bicycle_00_bicycle9-bird3.png
subject-01,1,778,1.05570197105408,clock,clock,0,0778_s5n_s01_0_clock_00_clock10-clock3.png
subject-01,1,779,1.14821910858154,chair,chair,0,0779_s5n_s01_0_chair_00_chair1-chair1.png
subject-01,1,780,0.926900148391724,cat,bear,0,0780_s5n_s01_0_bear_00_bear3-dog3.png
subject-01,1,781,0.689419984817505,boat,bird,0,0781_s5n_s01_0_bird_00_bird7-keyboard3.png
subject-01,1,782,0.897705078125,boat,boat,0,0782_s5n_s01_0_boat_00_boat5-knife2.png
subject-01,1,783,0.654194116592407,bicycle,bicycle,0,0783_s5n_s01_0_bicycle_00_bicycle9-bear1.png
subject-01,1,784,0.754526138305664,clock,clock,0,0784_s5n_s01_0_clock_00_clock7-boat3.png
subject-01,1,785,0.82547402381897,dog,dog,0,0785_s5n_s01_0_dog_00_dog1-dog2.png
subject-01,1,786,0.887644052505493,oven,chair,0,0786_s5n_s01_0_chair_00_chair6-bird2.png
subject-01,1,787,0.825978994369507,knife,knife,0,0787_s5n_s01_0_knife_00_knife1-elephant1.png
subject-01,1,788,0.858287811279297,boat,boat,0,0788_s5n_s01_0_boat_00_boat6-car1.png
subject-01,1,789,0.704562187194824,elephant,elephant,0,0789_s5n_s01_0_elephant_00_elephant7-dog1.png
subject-01,1,790,0.537137031555176,boat,bottle,0,0790_s5n_s01_0_bottle_00_bottle7-bear1.png
subject-01,1,791,0.815402984619141,bird,bird,0,0791_s5n_s01_0_bird_00_bird9-bottle3.png
subject-01,1,792,1.01620006561279,truck,truck,0,0792_s5n_s01_0_truck_00_truck3-car3.png
subject-01,1,793,1.4626522064209,car,car,0,0793_s5n_s01_0_car_00_car4-cat3.png
subject-01,1,794,0.564806938171387,oven,oven,0,0794_s5n_s01_0_oven_00_oven5-elephant1.png
subject-01,1,795,0.749150991439819,bird,bird,0,0795_s5n_s01_0_bird_00_bird4-airplane1.png
subject-01,1,796,0.749171018600464,elephant,elephant,0,0796_s5n_s01_0_elephant_00_elephant5-car1.png
subject-01,1,797,0.74402904510498,boat,boat,0,0797_s5n_s01_0_boat_00_boat5-airplane1.png
subject-01,1,798,0.94419002532959,bicycle,bicycle,0,0798_s5n_s01_0_bicycle_00_bicycle4-knife3.png
subject-01,1,799,0.938721895217896,bird,bear,0,0799_s5n_s01_0_bear_00_bear6-car2.png
subject-01,1,800,1.00134587287903,elephant,bear,0,0800_s5n_s01_0_bear_00_bear3-keyboard2.png
subject-01,1,801,1.4938268661499,elephant,elephant,0,0801_s5n_s01_0_elephant_00_elephant8-oven3.png
subject-01,1,802,0.86446213722229,car,car,0,0802_s5n_s01_0_car_00_car4-bottle1.png
subject-01,1,803,0.664788961410522,keyboard,keyboard,0,0803_s5n_s01_0_keyboard_00_keyboard5-airplane3.png
subject-01,1,804,0.575459957122803,boat,boat,0,0804_s5n_s01_0_boat_00_boat8-elephant1.png
subject-01,1,805,1.14370203018188,cat,truck,0,0805_s5n_s01_0_truck_00_truck3-cat1.png
subject-01,1,806,0.884012937545776,dog,dog,0,0806_s5n_s01_0_dog_00_dog4-bird1.png
subject-01,1,807,1.50005602836609,elephant,elephant,0,0807_s5n_s01_0_elephant_00_elephant2-elephant3.png
subject-01,1,808,0.717044115066528,clock,clock,0,0808_s5n_s01_0_clock_00_clock5-elephant2.png
subject-01,1,809,NaN,na,dog,0,0809_s5n_s01_0_dog_00_dog3-keyboard1.png
subject-01,1,810,0.617588043212891,oven,oven,0,0810_s5n_s01_0_oven_00_oven9-chair1.png
subject-01,1,811,1.07169699668884,bottle,bottle,0,0811_s5n_s01_0_bottle_00_bottle10-boat3.png
subject-01,1,812,0.674206972122192,car,car,0,0812_s5n_s01_0_car_00_car2-knife3.png
subject-01,1,813,0.628496885299683,chair,chair,0,0813_s5n_s01_0_chair_00_chair1-oven3.png
subject-01,1,814,0.698894023895264,truck,truck,0,0814_s5n_s01_0_truck_00_truck9-chair3.png
subject-01,1,815,0.715476036071777,oven,oven,0,0815_s5n_s01_0_oven_00_oven2-car1.png
subject-01,1,816,1.07576513290405,elephant,bear,0,0816_s5n_s01_0_bear_00_bear4-truck3.png
subject-01,1,817,0.68647289276123,truck,truck,0,0817_s5n_s01_0_truck_00_truck3-bicycle1.png
subject-01,1,818,0.916765928268433,elephant,elephant,0,0818_s5n_s01_0_elephant_00_elephant9-chair2.png
subject-01,1,819,0.787405967712402,boat,bird,0,0819_s5n_s01_0_bird_00_bird3-bottle2.png
subject-01,1,820,0.934000968933105,truck,bear,0,0820_s5n_s01_0_bear_00_bear5-airplane3.png
subject-01,1,821,1.03639698028564,truck,truck,0,0821_s5n_s01_0_truck_00_truck6-clock2.png
subject-01,1,822,0.950675010681152,cat,cat,0,0822_s5n_s01_0_cat_00_cat4-dog3.png
subject-01,1,823,0.936525821685791,boat,knife,0,0823_s5n_s01_0_knife_00_knife7-bird3.png
subject-01,1,824,0.975198984146118,elephant,elephant,0,0824_s5n_s01_0_elephant_00_elephant2-bear3.png
subject-01,1,825,0.869620084762573,knife,knife,0,0825_s5n_s01_0_knife_00_knife6-bird1.png
subject-01,1,826,0.808358192443848,keyboard,keyboard,0,0826_s5n_s01_0_keyboard_00_keyboard1-clock1.png
subject-01,1,827,0.832925081253052,chair,chair,0,0827_s5n_s01_0_chair_00_chair3-bottle3.png
subject-01,1,828,0.61932110786438,boat,airplane,0,0828_s5n_s01_0_airplane_00_airplane4-car1.png
subject-01,1,829,0.71964693069458,oven,oven,0,0829_s5n_s01_0_oven_00_oven4-bottle2.png
subject-01,1,830,0.906298160552979,bear,bear,0,0830_s5n_s01_0_bear_00_bear1-airplane3.png
subject-01,1,831,0.644353866577148,clock,clock,0,0831_s5n_s01_0_clock_00_clock9-bird2.png
subject-01,1,832,0.652761936187744,chair,chair,0,0832_s5n_s01_0_chair_00_chair10-bicycle1.png
subject-01,1,833,0.693526029586792,boat,boat,0,0833_s5n_s01_0_boat_00_boat8-bottle1.png
subject-01,1,834,0.847888946533203,clock,clock,0,0834_s5n_s01_0_clock_00_clock4-knife1.png
subject-01,1,835,0.826195001602173,cat,cat,0,0835_s5n_s01_0_cat_00_cat9-clock2.png
subject-01,1,836,0.864877939224243,cat,cat,0,0836_s5n_s01_0_cat_00_cat5-airplane2.png
subject-01,1,837,0.921252965927124,boat,boat,0,0837_s5n_s01_0_boat_00_boat9-cat3.png
subject-01,1,838,0.937687158584595,dog,dog,0,0838_s5n_s01_0_dog_00_dog4-chair1.png
subject-01,1,839,1.03061103820801,truck,truck,0,0839_s5n_s01_0_truck_00_truck9-elephant1.png
subject-01,1,840,0.970743179321289,knife,keyboard,0,0840_s5n_s01_0_keyboard_00_keyboard3-clock3.png
subject-01,1,841,1.02531504631042,dog,bear,0,0841_s5n_s01_0_bear_00_bear7-oven3.png
subject-01,1,842,1.43396210670471,airplane,airplane,0,0842_s5n_s01_0_airplane_00_airplane9-clock1.png
subject-01,1,843,0.97238302230835,car,car,0,0843_s5n_s01_0_car_00_car7-bird3.png
subject-01,1,844,1.31264591217041,truck,truck,0,0844_s5n_s01_0_truck_00_truck9-boat3.png
subject-01,1,845,1.0431489944458,oven,bear,0,0845_s5n_s01_0_bear_00_bear3-bicycle2.png
subject-01,1,846,1.49182605743408,cat,elephant,0,0846_s5n_s01_0_elephant_00_elephant6-car3.png
subject-01,1,847,0.984196186065674,truck,truck,0,0847_s5n_s01_0_truck_00_truck5-airplane2.png
subject-01,1,848,0.540796041488647,clock,clock,0,0848_s5n_s01_0_clock_00_clock2-clock3.png
subject-01,1,849,0.611253023147583,cat,cat,0,0849_s5n_s01_0_cat_00_cat8-bicycle3.png
subject-01,1,850,1.05803203582764,bear,bear,0,0850_s5n_s01_0_bear_00_bear10-cat2.png
subject-01,1,851,0.804247140884399,oven,oven,0,0851_s5n_s01_0_oven_00_oven4-dog1.png
subject-01,1,852,0.958630084991455,cat,cat,0,0852_s5n_s01_0_cat_00_cat1-airplane1.png
subject-01,1,853,0.636982917785645,boat,boat,0,0853_s5n_s01_0_boat_00_boat5-bicycle3.png
subject-01,1,854,0.715394973754883,boat,boat,0,0854_s5n_s01_0_boat_00_boat7-cat3.png
subject-01,1,855,0.709896802902222,truck,truck,0,0855_s5n_s01_0_truck_00_truck2-clock1.png
subject-01,1,856,1.47861480712891,bird,bird,0,0856_s5n_s01_0_bird_00_bird1-airplane2.png
subject-01,1,857,0.788802862167358,truck,truck,0,0857_s5n_s01_0_truck_00_truck9-bottle2.png
subject-01,1,858,0.6595458984375,oven,oven,0,0858_s5n_s01_0_oven_00_oven1-dog3.png
subject-01,1,859,1.20596694946289,truck,car,0,0859_s5n_s01_0_car_00_car9-knife1.png
subject-01,1,860,1.48224091529846,cat,cat,0,0860_s5n_s01_0_cat_00_cat5-elephant2.png
subject-01,1,861,0.73022198677063,cat,cat,0,0861_s5n_s01_0_cat_00_cat4-cat3.png
subject-01,1,862,0.692739963531494,car,chair,0,0862_s5n_s01_0_chair_00_chair9-keyboard2.png
subject-01,1,863,0.847380876541138,bear,bear,0,0863_s5n_s01_0_bear_00_bear9-boat2.png
subject-01,1,864,1.09582996368408,knife,knife,0,0864_s5n_s01_0_knife_00_knife8-car2.png
subject-01,1,865,0.788660049438477,dog,dog,0,0865_s5n_s01_0_dog_00_dog10-car3.png
subject-01,1,866,0.836612939834595,clock,clock,0,0866_s5n_s01_0_clock_00_clock4-bird3.png
subject-01,1,867,0.707098960876465,keyboard,keyboard,0,0867_s5n_s01_0_keyboard_00_keyboard8-keyboard2.png
subject-01,1,868,0.856026172637939,car,car,0,0868_s5n_s01_0_car_00_car6-truck3.png
subject-01,1,869,1.08642411231995,elephant,elephant,0,0869_s5n_s01_0_elephant_00_elephant2-truck2.png
subject-01,1,870,1.04868698120117,bird,bird,0,0870_s5n_s01_0_bird_00_bird5-truck2.png
subject-01,1,871,1.26553797721863,oven,oven,0,0871_s5n_s01_0_oven_00_oven9-boat2.png
subject-01,1,872,0.592018127441406,boat,boat,0,0872_s5n_s01_0_boat_00_boat2-bottle2.png
subject-01,1,873,1.00016307830811,dog,dog,0,0873_s5n_s01_0_dog_00_dog3-truck2.png
subject-01,1,874,1.08458399772644,bicycle,bicycle,0,0874_s5n_s01_0_bicycle_00_bicycle3-oven3.png
subject-01,1,875,0.855332136154175,oven,car,0,0875_s5n_s01_0_car_00_car10-elephant2.png
subject-01,1,876,0.949424982070923,boat,oven,0,0876_s5n_s01_0_oven_00_oven7-keyboard1.png
subject-01,1,877,0.650066137313843,bicycle,bicycle,0,0877_s5n_s01_0_bicycle_00_bicycle9-keyboard3.png
subject-01,1,878,0.750298023223877,cat,cat,0,0878_s5n_s01_0_cat_00_cat3-cat1.png
subject-01,1,879,0.775137901306152,bicycle,bicycle,0,0879_s5n_s01_0_bicycle_00_bicycle6-airplane2.png
subject-01,1,880,1.24554514884949,dog,dog,0,0880_s5n_s01_0_dog_00_dog10-airplane1.png
subject-01,1,881,1.11597800254822,car,car,0,0881_s5n_s01_0_car_00_car5-keyboard3.png
subject-01,1,882,0.70237398147583,boat,boat,0,0882_s5n_s01_0_boat_00_boat1-elephant3.png
subject-01,1,883,1.0891010761261,cat,bear,0,0883_s5n_s01_0_bear_00_bear3-chair2.png
subject-01,1,884,1.50005102157593,dog,dog,0,0884_s5n_s01_0_dog_00_dog5-bear3.png
subject-01,1,885,0.897660970687866,bicycle,knife,0,0885_s5n_s01_0_knife_00_knife7-boat3.png
subject-01,1,886,1.50012612342834,bottle,bottle,0,0886_s5n_s01_0_bottle_00_bottle1-dog2.png
subject-01,1,887,0.776222944259644,boat,keyboard,0,0887_s5n_s01_0_keyboard_00_keyboard1-bear2.png
subject-01,1,888,0.638899087905884,cat,cat,0,0888_s5n_s01_0_cat_00_cat4-clock2.png
subject-01,1,889,0.841161966323853,elephant,elephant,0,0889_s5n_s01_0_elephant_00_elephant4-oven1.png
subject-01,1,890,0.811564922332764,truck,truck,0,0890_s5n_s01_0_truck_00_truck10-truck3.png
subject-01,1,891,1.12009692192078,cat,cat,0,0891_s5n_s01_0_cat_00_cat2-bottle3.png
subject-01,1,892,1.09672594070435,airplane,airplane,0,0892_s5n_s01_0_airplane_00_airplane6-bear3.png
subject-01,1,893,1.01302099227905,elephant,elephant,0,0893_s5n_s01_0_elephant_00_elephant9-dog3.png
subject-01,1,894,1.13770198822021,elephant,elephant,0,0894_s5n_s01_0_elephant_00_elephant3-chair1.png
subject-01,1,895,1.07839488983154,cat,cat,0,0895_s5n_s01_0_cat_00_cat7-boat3.png
subject-01,1,896,0.816816091537476,clock,clock,0,0896_s5n_s01_0_clock_00_clock6-bottle1.png
subject-01,1,897,0.727243900299072,bird,bird,0,0897_s5n_s01_0_bird_00_bird9-bear3.png
subject-01,1,898,1.48768210411072,bear,dog,0,0898_s5n_s01_0_dog_00_dog9-airplane3.png
subject-01,1,899,0.874027013778687,bicycle,bicycle,0,0899_s5n_s01_0_bicycle_00_bicycle5-chair2.png
subject-01,1,900,0.760822057723999,boat,knife,0,0900_s5n_s01_0_knife_00_knife3-clock2.png
subject-01,1,901,0.87739109992981,bird,bird,0,0901_s5n_s01_0_bird_00_bird5-bear3.png
subject-01,1,902,1.17733979225159,cat,bottle,0,0902_s5n_s01_0_bottle_00_bottle5-chair1.png
subject-01,1,903,0.755884885787964,clock,clock,0,0903_s5n_s01_0_clock_00_clock8-cat1.png
subject-01,1,904,1.20221400260925,bird,bird,0,0904_s5n_s01_0_bird_00_bird1-bear1.png
subject-01,1,905,1.09471797943115,elephant,elephant,0,0905_s5n_s01_0_elephant_00_elephant4-chair3.png
subject-01,1,906,0.713418006896973,oven,oven,0,0906_s5n_s01_0_oven_00_oven10-airplane2.png
subject-01,1,907,0.567730188369751,cat,airplane,0,0907_s5n_s01_0_airplane_00_airplane4-bottle1.png
subject-01,1,908,0.822436094284058,chair,chair,0,0908_s5n_s01_0_chair_00_chair10-cat1.png
subject-01,1,909,0.808649063110352,boat,cat,0,0909_s5n_s01_0_cat_00_cat4-knife1.png
subject-01,1,910,1.13952398300171,elephant,elephant,0,0910_s5n_s01_0_elephant_00_elephant7-knife2.png
subject-01,1,911,0.971642971038818,keyboard,keyboard,0,0911_s5n_s01_0_keyboard_00_keyboard6-chair1.png
subject-01,1,912,0.680406808853149,car,car,0,0912_s5n_s01_0_car_00_car6-bottle1.png
subject-01,1,913,0.680995941162109,boat,cat,0,0913_s5n_s01_0_cat_00_cat5-keyboard3.png
subject-01,1,914,0.721446990966797,cat,cat,0,0914_s5n_s01_0_cat_00_cat7-bottle1.png
subject-01,1,915,0.683732032775879,oven,oven,0,0915_s5n_s01_0_oven_00_oven1-bird3.png
subject-01,1,916,1.46847319602966,truck,chair,0,0916_s5n_s01_0_chair_00_chair7-chair1.png
subject-01,1,917,1.34704399108887,cat,cat,0,0917_s5n_s01_0_cat_00_cat9-knife2.png
subject-01,1,918,0.863337993621826,keyboard,keyboard,0,0918_s5n_s01_0_keyboard_00_keyboard9-cat1.png
subject-01,1,919,0.771837949752808,keyboard,boat,0,0919_s5n_s01_0_boat_00_boat3-car3.png
subject-01,1,920,0.719907999038696,cat,boat,0,0920_s5n_s01_0_boat_00_boat1-bicycle2.png
subject-01,1,921,0.65041708946228,bird,bird,0,0921_s5n_s01_0_bird_00_bird7-cat3.png
subject-01,1,922,0.820849895477295,keyboard,cat,0,0922_s5n_s01_0_cat_00_cat10-keyboard1.png
subject-01,1,923,1.21348404884338,chair,chair,0,0923_s5n_s01_0_chair_00_chair9-elephant1.png
subject-01,1,924,0.607887029647827,boat,airplane,0,0924_s5n_s01_0_airplane_00_airplane3-airplane2.png
subject-01,1,925,0.82433819770813,oven,chair,0,0925_s5n_s01_0_chair_00_chair8-keyboard3.png
subject-01,1,926,1.14114308357239,dog,dog,0,0926_s5n_s01_0_dog_00_dog10-clock1.png
subject-01,1,927,0.711277008056641,oven,oven,0,0927_s5n_s01_0_oven_00_oven5-bottle3.png
subject-01,1,928,0.887319087982178,dog,dog,0,0928_s5n_s01_0_dog_00_dog8-bottle2.png
subject-01,1,929,0.827986001968384,bird,bird,0,0929_s5n_s01_0_bird_00_bird4-clock1.png
subject-01,1,930,0.666441917419434,boat,cat,0,0930_s5n_s01_0_cat_00_cat10-clock1.png
subject-01,1,931,0.89035701751709,car,car,0,0931_s5n_s01_0_car_00_car4-bird1.png
subject-01,1,932,0.615164995193481,boat,boat,0,0932_s5n_s01_0_boat_00_boat7-elephant3.png
subject-01,1,933,0.623278856277466,clock,clock,0,0933_s5n_s01_0_clock_00_clock6-bird3.png
subject-01,1,934,0.710127830505371,bird,bird,0,0934_s5n_s01_0_bird_00_bird8-clock1.png
subject-01,1,935,1.50016212463379,boat,cat,0,0935_s5n_s01_0_cat_00_cat9-bicycle1.png
subject-01,1,936,0.84304404258728,bottle,bottle,0,0936_s5n_s01_0_bottle_00_bottle4-dog2.png
subject-01,1,937,0.773540019989014,keyboard,boat,0,0937_s5n_s01_0_boat_00_boat3-clock3.png
subject-01,1,938,1.25155997276306,airplane,airplane,0,0938_s5n_s01_0_airplane_00_airplane5-bottle3.png
subject-01,1,939,1.15996479988098,bicycle,knife,0,0939_s5n_s01_0_knife_00_knife9-elephant2.png
subject-01,1,940,0.822395801544189,chair,chair,0,0940_s5n_s01_0_chair_00_chair5-bottle3.png
subject-01,1,941,0.915102958679199,bicycle,bicycle,0,0941_s5n_s01_0_bicycle_00_bicycle9-cat3.png
subject-01,1,942,0.755470037460327,cat,boat,0,0942_s5n_s01_0_boat_00_boat3-cat3.png
subject-01,1,943,0.655946016311646,keyboard,keyboard,0,0943_s5n_s01_0_keyboard_00_keyboard9-bicycle2.png
subject-01,1,944,0.964447975158691,keyboard,airplane,0,0944_s5n_s01_0_airplane_00_airplane7-car1.png
subject-01,1,945,0.713248014450073,cat,cat,0,0945_s5n_s01_0_cat_00_cat6-bear1.png
subject-01,1,946,0.729732036590576,boat,dog,0,0946_s5n_s01_0_dog_00_dog9-chair2.png
subject-01,1,947,0.698141098022461,oven,oven,0,0947_s5n_s01_0_oven_00_oven3-clock3.png
subject-01,1,948,1.00861597061157,oven,oven,0,0948_s5n_s01_0_oven_00_oven2-bicycle1.png
subject-01,1,949,0.916908979415894,bird,bird,0,0949_s5n_s01_0_bird_00_bird8-chair1.png
subject-01,1,950,1.14950513839722,bird,bird,0,0950_s5n_s01_0_bird_00_bird2-dog2.png
subject-01,1,951,1.17188119888306,cat,cat,0,0951_s5n_s01_0_cat_00_cat7-truck2.png
subject-01,1,952,0.866609811782837,bird,bird,0,0952_s5n_s01_0_bird_00_bird2-bird2.png
subject-01,1,953,0.699241161346436,boat,knife,0,0953_s5n_s01_0_knife_00_knife9-bottle2.png
subject-01,1,954,0.845656156539917,oven,oven,0,0954_s5n_s01_0_oven_00_oven4-car1.png
subject-01,1,955,0.823975086212158,dog,dog,0,0955_s5n_s01_0_dog_00_dog7-keyboard3.png
subject-01,1,956,0.78409218788147,oven,oven,0,0956_s5n_s01_0_oven_00_oven6-oven3.png
subject-01,1,957,0.662853956222534,clock,bear,0,0957_s5n_s01_0_bear_00_bear6-chair1.png
subject-01,1,958,0.871231079101562,boat,cat,0,0958_s5n_s01_0_cat_00_cat4-keyboard2.png
subject-01,1,959,0.641796827316284,clock,clock,0,0959_s5n_s01_0_clock_00_clock7-car1.png
subject-01,1,960,1.15836310386658,bear,bear,0,0960_s5n_s01_0_bear_00_bear4-elephant2.png
subject-01,1,961,1.3288140296936,boat,boat,0,0961_s5n_s01_0_boat_00_boat10-truck1.png
subject-01,1,962,1.22120308876038,elephant,elephant,0,0962_s5n_s01_0_elephant_00_elephant8-knife2.png
subject-01,1,963,0.969932079315186,truck,truck,0,0963_s5n_s01_0_truck_00_truck3-chair2.png
subject-01,1,964,1.0323920249939,bird,bird,0,0964_s5n_s01_0_bird_00_bird10-clock1.png
subject-01,1,965,1.07091903686523,boat,cat,0,0965_s5n_s01_0_cat_00_cat4-truck3.png
subject-01,1,966,0.679009914398193,cat,boat,0,0966_s5n_s01_0_boat_00_boat7-keyboard3.png
subject-01,1,967,0.849717140197754,knife,knife,0,0967_s5n_s01_0_knife_00_knife1-airplane1.png
subject-01,1,968,0.958264112472534,keyboard,keyboard,0,0968_s5n_s01_0_keyboard_00_keyboard7-car3.png
subject-01,1,969,0.858828067779541,car,car,0,0969_s5n_s01_0_car_00_car5-bear3.png
subject-01,1,970,0.991096019744873,keyboard,keyboard,0,0970_s5n_s01_0_keyboard_00_keyboard9-truck3.png
subject-01,1,971,0.85375189781189,car,car,0,0971_s5n_s01_0_car_00_car4-car2.png
subject-01,1,972,0.884068012237549,chair,chair,0,0972_s5n_s01_0_chair_00_chair5-bird1.png
subject-01,1,973,1.27822184562683,elephant,elephant,0,0973_s5n_s01_0_elephant_00_elephant6-bicycle1.png
subject-01,1,974,0.932816028594971,keyboard,airplane,0,0974_s5n_s01_0_airplane_00_airplane3-clock1.png
subject-01,1,975,1.42543411254883,bicycle,chair,0,0975_s5n_s01_0_chair_00_chair4-bear2.png
subject-01,1,976,0.941909074783325,oven,oven,0,0976_s5n_s01_0_oven_00_oven2-bottle1.png
subject-01,1,977,0.950719118118286,cat,cat,0,0977_s5n_s01_0_cat_00_cat8-car2.png
subject-01,1,978,0.850934982299805,boat,boat,0,0978_s5n_s01_0_boat_00_boat4-chair2.png
subject-01,1,979,0.699300050735474,dog,dog,0,0979_s5n_s01_0_dog_00_dog3-dog1.png
subject-01,1,980,1.500079870224,clock,cat,0,0980_s5n_s01_0_cat_00_cat5-boat1.png
subject-01,1,981,0.686305999755859,boat,boat,0,0981_s5n_s01_0_boat_00_boat7-truck2.png
subject-01,1,982,0.648885011672974,cat,truck,0,0982_s5n_s01_0_truck_00_truck7-elephant2.png
subject-01,1,983,0.611153125762939,boat,cat,0,0983_s5n_s01_0_cat_00_cat1-car2.png
subject-01,1,984,0.706067085266113,cat,keyboard,0,0984_s5n_s01_0_keyboard_00_keyboard1-dog3.png
subject-01,1,985,1.28190898895264,truck,truck,0,0985_s5n_s01_0_truck_00_truck5-cat3.png
subject-01,1,986,0.868706941604614,cat,bear,0,0986_s5n_s01_0_bear_00_bear9-dog1.png
subject-01,1,987,1.09884095191956,clock,clock,0,0987_s5n_s01_0_clock_00_clock3-bicycle2.png
subject-01,1,988,0.955188989639282,boat,knife,0,0988_s5n_s01_0_knife_00_knife10-chair1.png
subject-01,1,989,0.963845014572144,truck,bear,0,0989_s5n_s01_0_bear_00_bear10-truck1.png
subject-01,1,990,0.93995189666748,clock,clock,0,0990_s5n_s01_0_clock_00_clock5-airplane1.png
subject-01,1,991,0.688014984130859,keyboard,keyboard,0,0991_s5n_s01_0_keyboard_00_keyboard3-car2.png
subject-01,1,992,0.950462102890015,elephant,elephant,0,0992_s5n_s01_0_elephant_00_elephant3-oven1.png
subject-01,1,993,1.39679408073425,bicycle,bicycle,0,0993_s5n_s01_0_bicycle_00_bicycle5-dog2.png
subject-01,1,994,0.897311925888062,elephant,elephant,0,0994_s5n_s01_0_elephant_00_elephant2-clock1.png
subject-01,1,995,1.06776094436646,elephant,bear,0,0995_s5n_s01_0_bear_00_bear2-keyboard2.png
subject-01,1,996,1.19258403778076,truck,truck,0,0996_s5n_s01_0_truck_00_truck1-knife1.png
subject-01,1,997,1.47087407112122,bear,bear,0,0997_s5n_s01_0_bear_00_bear10-knife2.png
subject-01,1,998,0.687725067138672,cat,bicycle,0,0998_s5n_s01_0_bicycle_00_bicycle3-bird1.png
subject-01,1,999,0.796158075332642,dog,dog,0,0999_s5n_s01_0_dog_00_dog8-boat3.png
subject-01,1,1000,0.874243974685669,car,car,0,1000_s5n_s01_0_car_00_car8-dog1.png
subject-01,1,1001,0.844860076904297,boat,bottle,0,1001_s5n_s01_0_bottle_00_bottle7-elephant2.png
subject-01,1,1002,1.03760385513306,bicycle,bicycle,0,1002_s5n_s01_0_bicycle_00_bicycle5-bottle3.png
subject-01,1,1003,1.0079460144043,bicycle,bicycle,0,1003_s5n_s01_0_bicycle_00_bicycle4-cat1.png
subject-01,1,1004,1.09445595741272,clock,keyboard,0,1004_s5n_s01_0_keyboard_00_keyboard6-elephant1.png
subject-01,1,1005,0.926870107650757,car,truck,0,1005_s5n_s01_0_truck_00_truck8-keyboard2.png
subject-01,1,1006,1.06563901901245,bird,bird,0,1006_s5n_s01_0_bird_00_bird5-car2.png
subject-01,1,1007,1.46597003936768,truck,truck,0,1007_s5n_s01_0_truck_00_truck7-truck2.png
subject-01,1,1008,1.17427492141724,chair,chair,0,1008_s5n_s01_0_chair_00_chair6-dog1.png
subject-01,1,1009,0.90670919418335,cat,cat,0,1009_s5n_s01_0_cat_00_cat9-dog2.png
subject-01,1,1010,0.755179882049561,bird,bird,0,1010_s5n_s01_0_bird_00_bird2-knife1.png
subject-01,1,1011,0.869681119918823,keyboard,keyboard,0,1011_s5n_s01_0_keyboard_00_keyboard5-keyboard1.png
subject-01,1,1012,1.07195591926575,oven,oven,0,1012_s5n_s01_0_oven_00_oven7-car3.png
subject-01,1,1013,0.9186110496521,bird,bird,0,1013_s5n_s01_0_bird_00_bird1-truck1.png
subject-01,1,1014,0.919148921966553,chair,chair,0,1014_s5n_s01_0_chair_00_chair8-bear1.png
subject-01,1,1015,0.805459976196289,keyboard,keyboard,0,1015_s5n_s01_0_keyboard_00_keyboard9-boat2.png
subject-01,1,1016,1.0978410243988,keyboard,keyboard,0,1016_s5n_s01_0_keyboard_00_keyboard7-knife1.png
subject-01,1,1017,0.852706909179688,bear,bear,0,1017_s5n_s01_0_bear_00_bear1-bird2.png
subject-01,1,1018,0.876939058303833,car,car,0,1018_s5n_s01_0_car_00_car2-chair1.png
subject-01,1,1019,0.717491865158081,keyboard,keyboard,0,1019_s5n_s01_0_keyboard_00_keyboard6-car2.png
subject-01,1,1020,1.18603515625,knife,knife,0,1020_s5n_s01_0_knife_00_knife10-bear3.png
subject-01,1,1021,0.772259950637817,truck,truck,0,1021_s5n_s01_0_truck_00_truck1-bird1.png
subject-01,1,1022,0.856518030166626,oven,cat,0,1022_s5n_s01_0_cat_00_cat5-car2.png
subject-01,1,1023,0.92699408531189,car,car,0,1023_s5n_s01_0_car_00_car6-elephant3.png
subject-01,1,1024,1.17334914207458,bicycle,bicycle,0,1024_s5n_s01_0_bicycle_00_bicycle3-elephant2.png
subject-01,1,1025,0.921160936355591,keyboard,keyboard,0,1025_s5n_s01_0_keyboard_00_keyboard7-clock3.png
subject-01,1,1026,0.72117805480957,oven,dog,0,1026_s5n_s01_0_dog_00_dog9-car1.png
subject-01,1,1027,0.661662101745605,oven,keyboard,0,1027_s5n_s01_0_keyboard_00_keyboard6-bottle2.png
subject-01,1,1028,0.678044080734253,bird,bird,0,1028_s5n_s01_0_bird_00_bird8-car2.png
subject-01,1,1029,0.800637006759644,bicycle,dog,0,1029_s5n_s01_0_dog_00_dog2-knife3.png
subject-01,1,1030,0.971155166625977,dog,dog,0,1030_s5n_s01_0_dog_00_dog3-knife3.png
subject-01,1,1031,0.749615907669067,chair,chair,0,1031_s5n_s01_0_chair_00_chair10-clock1.png
subject-01,1,1032,0.649785041809082,oven,boat,0,1032_s5n_s01_0_boat_00_boat3-airplane2.png
subject-01,1,1033,0.51218581199646,clock,clock,0,1033_s5n_s01_0_clock_00_clock10-dog3.png
subject-01,1,1034,0.590814113616943,chair,chair,0,1034_s5n_s01_0_chair_00_chair8-bicycle3.png
subject-01,1,1035,0.715208053588867,keyboard,keyboard,0,1035_s5n_s01_0_keyboard_00_keyboard3-bird3.png
subject-01,1,1036,0.561851978302002,oven,airplane,0,1036_s5n_s01_0_airplane_00_airplane3-cat1.png
subject-01,1,1037,0.61625599861145,bicycle,bicycle,0,1037_s5n_s01_0_bicycle_00_bicycle7-oven1.png
subject-01,1,1038,0.616826772689819,clock,boat,0,1038_s5n_s01_0_boat_00_boat6-truck3.png
subject-01,1,1039,0.941082000732422,dog,dog,0,1039_s5n_s01_0_dog_00_dog6-elephant2.png
subject-01,1,1040,1.14975500106812,bear,bear,0,1040_s5n_s01_0_bear_00_bear2-elephant1.png
subject-01,1,1041,0.928206920623779,car,car,0,1041_s5n_s01_0_car_00_car1-oven3.png
subject-01,1,1042,1.03664112091064,airplane,airplane,0,1042_s5n_s01_0_airplane_00_airplane1-bicycle2.png
subject-01,1,1043,0.837581872940063,car,car,0,1043_s5n_s01_0_car_00_car3-bird2.png
subject-01,1,1044,1.30770397186279,clock,clock,0,1044_s5n_s01_0_clock_00_clock5-keyboard1.png
subject-01,1,1045,0.954444169998169,truck,truck,0,1045_s5n_s01_0_truck_00_truck10-elephant3.png
subject-01,1,1046,0.878742933273315,bottle,bottle,0,1046_s5n_s01_0_bottle_00_bottle6-oven3.png
subject-01,1,1047,0.687196969985962,oven,oven,0,1047_s5n_s01_0_oven_00_oven5-dog3.png
subject-01,1,1048,0.588028907775879,boat,knife,0,1048_s5n_s01_0_knife_00_knife3-knife1.png
subject-01,1,1049,0.544319152832031,clock,boat,0,1049_s5n_s01_0_boat_00_boat4-dog2.png
subject-01,1,1050,0.674753904342651,car,car,0,1050_s5n_s01_0_car_00_car3-airplane3.png
subject-01,1,1051,1.11545085906982,elephant,bear,0,1051_s5n_s01_0_bear_00_bear3-airplane1.png
subject-01,1,1052,0.691800117492676,cat,cat,0,1052_s5n_s01_0_cat_00_cat2-knife3.png
subject-01,1,1053,0.545747995376587,boat,boat,0,1053_s5n_s01_0_boat_00_boat4-bird1.png
subject-01,1,1054,0.746588945388794,chair,chair,0,1054_s5n_s01_0_chair_00_chair8-airplane1.png
subject-01,1,1055,0.902983903884888,truck,truck,0,1055_s5n_s01_0_truck_00_truck2-oven3.png
subject-01,1,1056,0.66563606262207,keyboard,keyboard,0,1056_s5n_s01_0_keyboard_00_keyboard8-airplane2.png
subject-01,1,1057,1.00383186340332,cat,dog,0,1057_s5n_s01_0_dog_00_dog2-cat1.png
subject-01,1,1058,0.858758211135864,dog,dog,0,1058_s5n_s01_0_dog_00_dog3-boat1.png
subject-01,1,1059,0.77491283416748,boat,knife,0,1059_s5n_s01_0_knife_00_knife2-car3.png
subject-01,1,1060,0.767461061477661,car,car,0,1060_s5n_s01_0_car_00_car7-dog3.png
subject-01,1,1061,1.02372288703918,bottle,bottle,0,1061_s5n_s01_0_bottle_00_bottle4-airplane1.png
subject-01,1,1062,0.730570077896118,bear,cat,0,1062_s5n_s01_0_cat_00_cat10-bird2.png
subject-01,1,1063,0.709036827087402,boat,knife,0,1063_s5n_s01_0_knife_00_knife3-keyboard3.png
subject-01,1,1064,0.571495056152344,car,car,0,1064_s5n_s01_0_car_00_car1-airplane1.png
subject-01,1,1065,0.787992000579834,bottle,bottle,0,1065_s5n_s01_0_bottle_00_bottle3-bottle3.png
subject-01,1,1066,0.996545791625977,truck,truck,0,1066_s5n_s01_0_truck_00_truck6-knife2.png
subject-01,1,1067,0.643066883087158,clock,clock,0,1067_s5n_s01_0_clock_00_clock4-oven1.png
subject-01,1,1068,0.935529947280884,bird,bear,0,1068_s5n_s01_0_bear_00_bear2-dog1.png
subject-01,1,1069,0.637806177139282,bottle,bottle,0,1069_s5n_s01_0_bottle_00_bottle5-boat1.png
subject-01,1,1070,0.760290861129761,boat,oven,0,1070_s5n_s01_0_oven_00_oven6-bicycle1.png
subject-01,1,1071,0.814795017242432,cat,cat,0,1071_s5n_s01_0_cat_00_cat4-oven1.png
subject-01,1,1072,0.799309015274048,boat,truck,0,1072_s5n_s01_0_truck_00_truck7-oven2.png
subject-01,1,1073,0.955887079238892,boat,boat,0,1073_s5n_s01_0_boat_00_boat8-knife1.png
subject-01,1,1074,1.27801108360291,bicycle,bicycle,0,1074_s5n_s01_0_bicycle_00_bicycle8-boat1.png
subject-01,1,1075,0.532582998275757,oven,oven,0,1075_s5n_s01_0_oven_00_oven2-bird2.png
subject-01,1,1076,0.602927923202515,cat,bear,0,1076_s5n_s01_0_bear_00_bear4-clock3.png
subject-01,1,1077,0.541189908981323,clock,clock,0,1077_s5n_s01_0_clock_00_clock7-truck3.png
subject-01,1,1078,0.519742965698242,boat,boat,0,1078_s5n_s01_0_boat_00_boat10-cat1.png
subject-01,1,1079,0.795819997787476,bicycle,bicycle,0,1079_s5n_s01_0_bicycle_00_bicycle8-chair2.png
subject-01,1,1080,1.25826597213745,knife,airplane,0,1080_s5n_s01_0_airplane_00_airplane9-truck1.png
subject-01,1,1081,0.837101936340332,bird,elephant,0,1081_s5n_s01_0_elephant_00_elephant8-clock2.png
subject-01,1,1082,0.583249092102051,clock,boat,0,1082_s5n_s01_0_boat_00_boat4-boat3.png
subject-01,1,1083,0.737639904022217,chair,chair,0,1083_s5n_s01_0_chair_00_chair4-oven2.png
subject-01,1,1084,0.708441972732544,boat,elephant,0,1084_s5n_s01_0_elephant_00_elephant2-bird1.png
subject-01,1,1085,0.624948024749756,chair,chair,0,1085_s5n_s01_0_chair_00_chair1-clock2.png
subject-01,1,1086,0.687588930130005,clock,oven,0,1086_s5n_s01_0_oven_00_oven4-chair1.png
subject-01,1,1087,0.595928192138672,oven,airplane,0,1087_s5n_s01_0_airplane_00_airplane3-chair3.png
subject-01,1,1088,0.580338001251221,boat,bird,0,1088_s5n_s01_0_bird_00_bird3-truck3.png
subject-01,1,1089,0.621088981628418,cat,cat,0,1089_s5n_s01_0_cat_00_cat2-elephant1.png
subject-01,1,1090,0.621454954147339,cat,cat,0,1090_s5n_s01_0_cat_00_cat7-airplane2.png
subject-01,1,1091,0.775970935821533,bottle,bottle,0,1091_s5n_s01_0_bottle_00_bottle8-bottle3.png
subject-01,1,1092,0.892446994781494,truck,truck,0,1092_s5n_s01_0_truck_00_truck2-car3.png
subject-01,1,1093,0.730901002883911,bicycle,bicycle,0,1093_s5n_s01_0_bicycle_00_bicycle4-bottle1.png
subject-01,1,1094,0.779187917709351,clock,oven,0,1094_s5n_s01_0_oven_00_oven3-bottle3.png
subject-01,1,1095,0.793868064880371,bear,bear,0,1095_s5n_s01_0_bear_00_bear10-oven1.png
subject-01,1,1096,0.880353927612305,oven,keyboard,0,1096_s5n_s01_0_keyboard_00_keyboard6-dog2.png
subject-01,1,1097,0.518980979919434,clock,clock,0,1097_s5n_s01_0_clock_00_clock7-cat2.png
subject-01,1,1098,0.873202085494995,dog,dog,0,1098_s5n_s01_0_dog_00_dog1-cat3.png
subject-01,1,1099,0.643716096878052,boat,boat,0,1099_s5n_s01_0_boat_00_boat7-bottle1.png
subject-01,1,1100,0.738122940063477,dog,dog,0,1100_s5n_s01_0_dog_00_dog10-keyboard2.png
