subj,session,trial,rt,object_response,category,condition,imagename
subject-03,1,1,0.68296217918396,clock,clock,0,0001_s5n_s03_0_clock_00_clock7-bicycle1.png
subject-03,1,2,1.20712089538574,clock,oven,0,0002_s5n_s03_0_oven_00_oven1-cat1.png
subject-03,1,3,1.25473189353943,clock,dog,0,0003_s5n_s03_0_dog_00_dog8-boat3.png
subject-03,1,4,1.14817118644714,chair,bear,0,0004_s5n_s03_0_bear_00_bear3-car2.png
subject-03,1,5,0.809815168380737,dog,dog,0,0005_s5n_s03_0_dog_00_dog5-car3.png
subject-03,1,6,0.442352056503296,clock,clock,0,0006_s5n_s03_0_clock_00_clock3-bear3.png
subject-03,1,7,0.813659906387329,cat,cat,0,0007_s5n_s03_0_cat_00_cat9-clock2.png
subject-03,1,8,0.813699007034302,clock,clock,0,0008_s5n_s03_0_clock_00_clock6-truck3.png
subject-03,1,9,1.2614312171936,cat,elephant,0,0009_s5n_s03_0_elephant_00_elephant6-bottle2.png
subject-03,1,10,0.638647079467773,truck,truck,0,0010_s5n_s03_0_truck_00_truck9-airplane2.png
subject-03,1,11,0.849394083023071,car,car,0,0011_s5n_s03_0_car_00_car8-truck3.png
subject-03,1,12,0.802748918533325,chair,car,0,0012_s5n_s03_0_car_00_car1-chair3.png
subject-03,1,13,1.03387498855591,oven,airplane,0,0013_s5n_s03_0_airplane_00_airplane8-bicycle3.png
subject-03,1,14,1.04085779190063,knife,knife,0,0014_s5n_s03_0_knife_00_knife2-bear2.png
subject-03,1,15,0.842488050460815,airplane,airplane,0,0015_s5n_s03_0_airplane_00_airplane10-car3.png
subject-03,1,16,0.467149972915649,cat,cat,0,0016_s5n_s03_0_cat_00_cat1-boat1.png
subject-03,1,17,0.653677940368652,chair,chair,0,0017_s5n_s03_0_chair_00_chair7-bird1.png
subject-03,1,18,0.85157299041748,chair,chair,0,0018_s5n_s03_0_chair_00_chair8-keyboard3.png
subject-03,1,19,0.883239030838013,bicycle,bicycle,0,0019_s5n_s03_0_bicycle_00_bicycle1-boat3.png
subject-03,1,20,0.585069894790649,bottle,bottle,0,0020_s5n_s03_0_bottle_00_bottle5-keyboard2.png
subject-03,1,21,0.787622928619385,knife,knife,0,0021_s5n_s03_0_knife_00_knife3-knife1.png
subject-03,1,22,0.932889938354492,truck,truck,0,0022_s5n_s03_0_truck_00_truck2-elephant1.png
subject-03,1,23,0.964476108551025,knife,airplane,0,0023_s5n_s03_0_airplane_00_airplane5-knife1.png
subject-03,1,24,0.817924976348877,bear,bear,0,0024_s5n_s03_0_bear_00_bear2-knife2.png
subject-03,1,25,0.782574892044067,knife,knife,0,0025_s5n_s03_0_knife_00_knife5-knife3.png
subject-03,1,26,0.743588924407959,clock,airplane,0,0026_s5n_s03_0_airplane_00_airplane3-clock1.png
subject-03,1,27,0.791882038116455,oven,oven,0,0027_s5n_s03_0_oven_00_oven3-bottle3.png
subject-03,1,28,0.832315921783447,bird,bird,0,0028_s5n_s03_0_bird_00_bird6-boat2.png
subject-03,1,29,0.963849067687988,bear,elephant,0,0029_s5n_s03_0_elephant_00_elephant6-dog2.png
subject-03,1,30,1.07892203330994,truck,truck,0,0030_s5n_s03_0_truck_00_truck6-knife2.png
subject-03,1,31,0.649291038513184,clock,clock,0,0031_s5n_s03_0_clock_00_clock4-bird3.png
subject-03,1,32,0.812543869018555,oven,oven,0,0032_s5n_s03_0_oven_00_oven9-bear2.png
subject-03,1,33,0.758143901824951,elephant,elephant,0,0033_s5n_s03_0_elephant_00_elephant8-bicycle3.png
subject-03,1,34,1.03865885734558,car,car,0,0034_s5n_s03_0_car_00_car6-bicycle3.png
subject-03,1,35,0.709049940109253,truck,truck,0,0035_s5n_s03_0_truck_00_truck7-chair2.png
subject-03,1,36,0.989337921142578,bird,bird,0,0036_s5n_s03_0_bird_00_bird2-car3.png
subject-03,1,37,0.913248062133789,oven,oven,0,0037_s5n_s03_0_oven_00_oven1-bird3.png
subject-03,1,38,0.621629953384399,bottle,bottle,0,0038_s5n_s03_0_bottle_00_bottle8-keyboard3.png
subject-03,1,39,0.882955074310303,chair,bottle,0,0039_s5n_s03_0_bottle_00_bottle7-keyboard2.png
subject-03,1,40,0.931597948074341,chair,cat,0,0040_s5n_s03_0_cat_00_cat5-keyboard3.png
subject-03,1,41,0.933303117752075,bear,bear,0,0041_s5n_s03_0_bear_00_bear3-truck3.png
subject-03,1,42,0.61881685256958,cat,cat,0,0042_s5n_s03_0_cat_00_cat10-elephant3.png
subject-03,1,43,0.666515827178955,clock,keyboard,0,0043_s5n_s03_0_keyboard_00_keyboard2-clock1.png
subject-03,1,44,0.620253086090088,bottle,keyboard,0,0044_s5n_s03_0_keyboard_00_keyboard4-bottle2.png
subject-03,1,45,0.684538841247559,knife,keyboard,0,0045_s5n_s03_0_keyboard_00_keyboard3-clock3.png
subject-03,1,46,1.19194984436035,chair,chair,0,0046_s5n_s03_0_chair_00_chair9-bicycle3.png
subject-03,1,47,0.848047018051147,bottle,bottle,0,0047_s5n_s03_0_bottle_00_bottle5-knife1.png
subject-03,1,48,0.987723112106323,cat,dog,0,0048_s5n_s03_0_dog_00_dog7-chair2.png
subject-03,1,49,0.524569988250732,clock,clock,0,0049_s5n_s03_0_clock_00_clock10-knife3.png
subject-03,1,50,0.936223030090332,knife,keyboard,0,0050_s5n_s03_0_keyboard_00_keyboard4-keyboard2.png
subject-03,1,51,0.630451917648315,dog,dog,0,0051_s5n_s03_0_dog_00_dog10-oven2.png
subject-03,1,52,0.900068044662476,bird,airplane,0,0052_s5n_s03_0_airplane_00_airplane3-oven1.png
subject-03,1,53,0.501636028289795,bicycle,bicycle,0,0053_s5n_s03_0_bicycle_00_bicycle7-clock3.png
subject-03,1,54,1.10915780067444,knife,knife,0,0054_s5n_s03_0_knife_00_knife9-chair1.png
subject-03,1,55,0.702357053756714,chair,chair,0,0055_s5n_s03_0_chair_00_chair9-bottle3.png
subject-03,1,56,0.809757947921753,knife,knife,0,0056_s5n_s03_0_knife_00_knife7-bottle3.png
subject-03,1,57,0.595893859863281,bottle,bottle,0,0057_s5n_s03_0_bottle_00_bottle5-clock3.png
subject-03,1,58,0.906530857086182,bottle,bottle,0,0058_s5n_s03_0_bottle_00_bottle3-airplane2.png
subject-03,1,59,0.976387023925781,elephant,elephant,0,0059_s5n_s03_0_elephant_00_elephant8-dog1.png
subject-03,1,60,0.817080974578857,car,car,0,0060_s5n_s03_0_car_00_car4-bird1.png
subject-03,1,61,0.893923997879028,chair,boat,0,0061_s5n_s03_0_boat_00_boat7-clock3.png
subject-03,1,62,0.787468910217285,oven,boat,0,0062_s5n_s03_0_boat_00_boat8-oven1.png
subject-03,1,63,0.5522620677948,cat,cat,0,0063_s5n_s03_0_cat_00_cat4-oven1.png
subject-03,1,64,0.754961967468262,keyboard,oven,0,0064_s5n_s03_0_oven_00_oven8-chair1.png
subject-03,1,65,0.665241003036499,bear,bear,0,0065_s5n_s03_0_bear_00_bear4-truck3.png
subject-03,1,66,0.542711019515991,cat,cat,0,0066_s5n_s03_0_cat_00_cat7-bottle1.png
subject-03,1,67,0.834048986434937,bird,airplane,0,0067_s5n_s03_0_airplane_00_airplane4-dog2.png
subject-03,1,68,1.08211207389832,elephant,elephant,0,0068_s5n_s03_0_elephant_00_elephant5-bicycle3.png
subject-03,1,69,0.681302070617676,bicycle,bicycle,0,0069_s5n_s03_0_bicycle_00_bicycle4-chair2.png
subject-03,1,70,0.583181142807007,dog,dog,0,0070_s5n_s03_0_dog_00_dog1-bear1.png
subject-03,1,71,0.685195922851562,car,car,0,0071_s5n_s03_0_car_00_car4-cat3.png
subject-03,1,72,0.66296911239624,bicycle,bicycle,0,0072_s5n_s03_0_bicycle_00_bicycle4-boat1.png
subject-03,1,73,0.86438512802124,bear,bear,0,0073_s5n_s03_0_bear_00_bear8-knife3.png
subject-03,1,74,0.696043014526367,airplane,airplane,0,0074_s5n_s03_0_airplane_00_airplane4-boat3.png
subject-03,1,75,0.673707008361816,oven,oven,0,0075_s5n_s03_0_oven_00_oven2-boat3.png
subject-03,1,76,1.06775093078613,boat,boat,0,0076_s5n_s03_0_boat_00_boat10-oven1.png
subject-03,1,77,0.721549987792969,boat,boat,0,0077_s5n_s03_0_boat_00_boat2-airplane1.png
subject-03,1,78,0.701637983322144,oven,oven,0,0078_s5n_s03_0_oven_00_oven6-knife3.png
subject-03,1,79,0.631308078765869,bottle,bottle,0,0079_s5n_s03_0_bottle_00_bottle6-bird1.png
subject-03,1,80,0.816590070724487,knife,airplane,0,0080_s5n_s03_0_airplane_00_airplane10-knife3.png
subject-03,1,81,0.624006986618042,bottle,bottle,0,0081_s5n_s03_0_bottle_00_bottle7-oven2.png
subject-03,1,82,1.48935294151306,knife,knife,0,0082_s5n_s03_0_knife_00_knife9-bottle2.png
subject-03,1,83,1.07479310035706,bicycle,bicycle,0,0083_s5n_s03_0_bicycle_00_bicycle7-cat1.png
subject-03,1,84,0.660423040390015,elephant,elephant,0,0084_s5n_s03_0_elephant_00_elephant8-bird2.png
subject-03,1,85,0.700201034545898,bird,bird,0,0085_s5n_s03_0_bird_00_bird5-dog2.png
subject-03,1,86,0.74800705909729,bottle,bottle,0,0086_s5n_s03_0_bottle_00_bottle7-elephant2.png
subject-03,1,87,0.768393993377686,knife,knife,0,0087_s5n_s03_0_knife_00_knife3-cat1.png
subject-03,1,88,0.900449991226196,clock,clock,0,0088_s5n_s03_0_clock_00_clock7-truck3.png
subject-03,1,89,0.723512172698975,airplane,airplane,0,0089_s5n_s03_0_airplane_00_airplane7-bottle3.png
subject-03,1,90,0.69376802444458,bottle,bottle,0,0090_s5n_s03_0_bottle_00_bottle6-knife3.png
subject-03,1,91,0.794447183609009,airplane,airplane,0,0091_s5n_s03_0_airplane_00_airplane8-truck3.png
subject-03,1,92,1.01810717582703,knife,knife,0,0092_s5n_s03_0_knife_00_knife7-bird3.png
subject-03,1,93,0.626144886016846,car,car,0,0093_s5n_s03_0_car_00_car9-clock2.png
subject-03,1,94,0.782047033309937,oven,chair,0,0094_s5n_s03_0_chair_00_chair6-truck2.png
subject-03,1,95,0.893014907836914,bird,airplane,0,0095_s5n_s03_0_airplane_00_airplane3-dog1.png
subject-03,1,96,0.770473003387451,truck,truck,0,0096_s5n_s03_0_truck_00_truck9-boat3.png
subject-03,1,97,1.08662486076355,dog,dog,0,0097_s5n_s03_0_dog_00_dog10-bicycle1.png
subject-03,1,98,0.940659999847412,dog,dog,0,0098_s5n_s03_0_dog_00_dog5-oven1.png
subject-03,1,99,1.32609081268311,bird,bird,0,0099_s5n_s03_0_bird_00_bird1-boat1.png
subject-03,1,100,0.95720911026001,bottle,bottle,0,0100_s5n_s03_0_bottle_00_bottle1-chair2.png
subject-03,1,101,0.742845058441162,keyboard,keyboard,0,0101_s5n_s03_0_keyboard_00_keyboard8-dog3.png
subject-03,1,102,0.735113143920898,dog,dog,0,0102_s5n_s03_0_dog_00_dog9-bottle1.png
subject-03,1,103,0.666588068008423,bicycle,bicycle,0,0103_s5n_s03_0_bicycle_00_bicycle5-dog2.png
subject-03,1,104,0.801151037216187,truck,truck,0,0104_s5n_s03_0_truck_00_truck4-boat3.png
subject-03,1,105,0.54913592338562,clock,clock,0,0105_s5n_s03_0_clock_00_clock8-bear2.png
subject-03,1,106,0.748933076858521,chair,chair,0,0106_s5n_s03_0_chair_00_chair5-bicycle1.png
subject-03,1,107,0.818475008010864,bear,bear,0,0107_s5n_s03_0_bear_00_bear9-dog1.png
subject-03,1,108,0.759150981903076,bird,bird,0,0108_s5n_s03_0_bird_00_bird5-bird1.png
subject-03,1,109,0.936359882354736,knife,knife,0,0109_s5n_s03_0_knife_00_knife5-oven2.png
subject-03,1,110,0.905611038208008,bicycle,bicycle,0,0110_s5n_s03_0_bicycle_00_bicycle2-car2.png
subject-03,1,111,1.03800106048584,bicycle,bicycle,0,0111_s5n_s03_0_bicycle_00_bicycle5-chair2.png
subject-03,1,112,0.753415107727051,chair,oven,0,0112_s5n_s03_0_oven_00_oven6-chair3.png
subject-03,1,113,0.599010944366455,bear,bear,0,0113_s5n_s03_0_bear_00_bear3-bird3.png
subject-03,1,114,0.716938018798828,clock,clock,0,0114_s5n_s03_0_clock_00_clock10-airplane1.png
subject-03,1,115,0.59968900680542,boat,boat,0,0115_s5n_s03_0_boat_00_boat3-bicycle2.png
subject-03,1,116,0.698564052581787,airplane,airplane,0,0116_s5n_s03_0_airplane_00_airplane10-elephant1.png
subject-03,1,117,0.792563915252686,keyboard,keyboard,0,0117_s5n_s03_0_keyboard_00_keyboard9-bird1.png
subject-03,1,118,0.667985916137695,clock,bear,0,0118_s5n_s03_0_bear_00_bear6-clock1.png
subject-03,1,119,0.839205980300903,chair,chair,0,0119_s5n_s03_0_chair_00_chair7-elephant1.png
subject-03,1,120,0.863546848297119,bottle,bottle,0,0120_s5n_s03_0_bottle_00_bottle9-cat2.png
subject-03,1,121,0.75490403175354,knife,boat,0,0121_s5n_s03_0_boat_00_boat4-bird1.png
subject-03,1,122,0.76512885093689,bird,dog,0,0122_s5n_s03_0_dog_00_dog2-bicycle2.png
subject-03,1,123,0.585597038269043,clock,clock,0,0123_s5n_s03_0_clock_00_clock3-bird1.png
subject-03,1,124,0.971524953842163,elephant,elephant,0,0124_s5n_s03_0_elephant_00_elephant2-elephant3.png
subject-03,1,125,0.703333139419556,cat,cat,0,0125_s5n_s03_0_cat_00_cat5-knife2.png
subject-03,1,126,0.711143970489502,bicycle,bicycle,0,0126_s5n_s03_0_bicycle_00_bicycle7-oven1.png
subject-03,1,127,0.921247959136963,bicycle,bicycle,0,0127_s5n_s03_0_bicycle_00_bicycle7-bear2.png
subject-03,1,128,0.745496034622192,bear,bear,0,0128_s5n_s03_0_bear_00_bear3-airplane1.png
subject-03,1,129,0.947453022003174,bird,bird,0,0129_s5n_s03_0_bird_00_bird10-chair1.png
subject-03,1,130,1.16363787651062,bottle,bottle,0,0130_s5n_s03_0_bottle_00_bottle3-chair3.png
subject-03,1,131,0.911858081817627,knife,clock,0,0131_s5n_s03_0_clock_00_clock1-car1.png
subject-03,1,132,0.836108922958374,airplane,airplane,0,0132_s5n_s03_0_airplane_00_airplane4-bear3.png
subject-03,1,133,1.01382994651794,bird,bear,0,0133_s5n_s03_0_bear_00_bear6-chair1.png
subject-03,1,134,0.677577972412109,bear,bear,0,0134_s5n_s03_0_bear_00_bear5-bottle1.png
subject-03,1,135,0.677240133285522,keyboard,keyboard,0,0135_s5n_s03_0_keyboard_00_keyboard8-truck3.png
subject-03,1,136,1.18492197990417,dog,cat,0,0136_s5n_s03_0_cat_00_cat7-airplane2.png
subject-03,1,137,0.986829042434692,cat,cat,0,0137_s5n_s03_0_cat_00_cat8-bicycle3.png
subject-03,1,138,0.585896968841553,oven,oven,0,0138_s5n_s03_0_oven_00_oven4-truck3.png
subject-03,1,139,0.496376037597656,cat,cat,0,0139_s5n_s03_0_cat_00_cat2-bottle3.png
subject-03,1,140,0.890161037445068,elephant,elephant,0,0140_s5n_s03_0_elephant_00_elephant1-car3.png
subject-03,1,141,0.681474924087524,clock,clock,0,0141_s5n_s03_0_clock_00_clock8-airplane2.png
subject-03,1,142,0.746028184890747,truck,truck,0,0142_s5n_s03_0_truck_00_truck3-bicycle1.png
subject-03,1,143,0.629328966140747,clock,clock,0,0143_s5n_s03_0_clock_00_clock10-dog3.png
subject-03,1,144,0.945033073425293,chair,dog,0,0144_s5n_s03_0_dog_00_dog2-knife3.png
subject-03,1,145,0.624690055847168,oven,oven,0,0145_s5n_s03_0_oven_00_oven4-car1.png
subject-03,1,146,0.561520099639893,cat,cat,0,0146_s5n_s03_0_cat_00_cat6-clock3.png
subject-03,1,147,0.609227895736694,oven,oven,0,0147_s5n_s03_0_oven_00_oven5-elephant1.png
subject-03,1,148,0.949663877487183,knife,knife,0,0148_s5n_s03_0_knife_00_knife3-bear2.png
subject-03,1,149,0.7568039894104,chair,chair,0,0149_s5n_s03_0_chair_00_chair1-airplane2.png
subject-03,1,150,0.726951837539673,car,car,0,0150_s5n_s03_0_car_00_car2-cat3.png
subject-03,1,151,0.820318937301636,airplane,airplane,0,0151_s5n_s03_0_airplane_00_airplane10-boat3.png
subject-03,1,152,0.814962148666382,chair,dog,0,0152_s5n_s03_0_dog_00_dog5-truck2.png
subject-03,1,153,0.768739938735962,keyboard,keyboard,0,0153_s5n_s03_0_keyboard_00_keyboard6-bottle2.png
subject-03,1,154,0.979556798934937,bear,elephant,0,0154_s5n_s03_0_elephant_00_elephant7-keyboard3.png
subject-03,1,155,0.610890865325928,cat,cat,0,0155_s5n_s03_0_cat_00_cat1-car2.png
subject-03,1,156,0.790464878082275,elephant,elephant,0,0156_s5n_s03_0_elephant_00_elephant8-boat2.png
subject-03,1,157,0.804976940155029,car,car,0,0157_s5n_s03_0_car_00_car7-oven2.png
subject-03,1,158,0.660715103149414,chair,chair,0,0158_s5n_s03_0_chair_00_chair1-cat3.png
subject-03,1,159,0.631227016448975,clock,clock,0,0159_s5n_s03_0_clock_00_clock4-car2.png
subject-03,1,160,0.876771926879883,knife,knife,0,0160_s5n_s03_0_knife_00_knife7-boat3.png
subject-03,1,161,0.682598829269409,keyboard,keyboard,0,0161_s5n_s03_0_keyboard_00_keyboard7-car3.png
subject-03,1,162,0.951849937438965,chair,chair,0,0162_s5n_s03_0_chair_00_chair7-knife2.png
subject-03,1,163,0.638272047042847,bird,bird,0,0163_s5n_s03_0_bird_00_bird8-car2.png
subject-03,1,164,0.820758104324341,bird,boat,0,0164_s5n_s03_0_boat_00_boat6-knife2.png
subject-03,1,165,0.501425981521606,oven,oven,0,0165_s5n_s03_0_oven_00_oven9-car2.png
subject-03,1,166,0.730268001556396,keyboard,keyboard,0,0166_s5n_s03_0_keyboard_00_keyboard5-oven2.png
subject-03,1,167,0.753780841827393,oven,oven,0,0167_s5n_s03_0_oven_00_oven1-clock3.png
subject-03,1,168,0.647397994995117,oven,oven,0,0168_s5n_s03_0_oven_00_oven2-oven3.png
subject-03,1,169,1.06393122673035,cat,cat,0,0169_s5n_s03_0_cat_00_cat4-car2.png
subject-03,1,170,1.20953989028931,cat,cat,0,0170_s5n_s03_0_cat_00_cat5-dog3.png
subject-03,1,171,1.05755400657654,bottle,bottle,0,0171_s5n_s03_0_bottle_00_bottle9-car3.png
subject-03,1,172,0.497328996658325,clock,clock,0,0172_s5n_s03_0_clock_00_clock5-elephant2.png
subject-03,1,173,0.905303955078125,knife,airplane,0,0173_s5n_s03_0_airplane_00_airplane3-keyboard2.png
subject-03,1,174,0.713361978530884,car,car,0,0174_s5n_s03_0_car_00_car9-cat1.png
subject-03,1,175,0.784295082092285,truck,truck,0,0175_s5n_s03_0_truck_00_truck6-oven3.png
subject-03,1,176,0.876240968704224,bicycle,bicycle,0,0176_s5n_s03_0_bicycle_00_bicycle1-knife3.png
subject-03,1,177,0.739778995513916,car,car,0,0177_s5n_s03_0_car_00_car2-bird3.png
subject-03,1,178,0.672378063201904,chair,chair,0,0178_s5n_s03_0_chair_00_chair8-boat1.png
subject-03,1,179,0.764259099960327,knife,knife,0,0179_s5n_s03_0_knife_00_knife4-bear1.png
subject-03,1,180,0.950165987014771,knife,boat,0,0180_s5n_s03_0_boat_00_boat8-bottle1.png
subject-03,1,181,0.636307001113892,boat,boat,0,0181_s5n_s03_0_boat_00_boat10-boat3.png
subject-03,1,182,0.691810131072998,truck,truck,0,0182_s5n_s03_0_truck_00_truck4-airplane3.png
subject-03,1,183,0.593745946884155,oven,oven,0,0183_s5n_s03_0_oven_00_oven9-knife3.png
subject-03,1,184,0.832093954086304,knife,knife,0,0184_s5n_s03_0_knife_00_knife6-dog2.png
subject-03,1,185,0.842517852783203,bottle,bottle,0,0185_s5n_s03_0_bottle_00_bottle5-truck1.png
subject-03,1,186,0.752619981765747,bird,bird,0,0186_s5n_s03_0_bird_00_bird10-bird2.png
subject-03,1,187,0.780706167221069,car,car,0,0187_s5n_s03_0_car_00_car3-truck1.png
subject-03,1,188,0.657800912857056,bicycle,bicycle,0,0188_s5n_s03_0_bicycle_00_bicycle4-bicycle3.png
subject-03,1,189,0.804187774658203,truck,truck,0,0189_s5n_s03_0_truck_00_truck2-bicycle2.png
subject-03,1,190,0.78245210647583,boat,boat,0,0190_s5n_s03_0_boat_00_boat8-dog3.png
subject-03,1,191,0.922394990921021,bird,bird,0,0191_s5n_s03_0_bird_00_bird6-elephant2.png
subject-03,1,192,0.765598058700562,bicycle,bicycle,0,0192_s5n_s03_0_bicycle_00_bicycle1-bottle3.png
subject-03,1,193,0.864737033843994,truck,truck,0,0193_s5n_s03_0_truck_00_truck5-airplane2.png
subject-03,1,194,1.01209497451782,truck,car,0,0194_s5n_s03_0_car_00_car5-oven2.png
subject-03,1,195,0.603945970535278,boat,boat,0,0195_s5n_s03_0_boat_00_boat6-bear1.png
subject-03,1,196,0.573067903518677,clock,clock,0,0196_s5n_s03_0_clock_00_clock2-bicycle1.png
subject-03,1,197,0.704209804534912,boat,boat,0,0197_s5n_s03_0_boat_00_boat4-elephant2.png
subject-03,1,198,0.743540048599243,bear,bear,0,0198_s5n_s03_0_bear_00_bear7-bicycle2.png
subject-03,1,199,1.47602891921997,cat,cat,0,0199_s5n_s03_0_cat_00_cat9-bird3.png
subject-03,1,200,1.2847318649292,bird,bird,0,0200_s5n_s03_0_bird_00_bird6-bottle3.png
subject-03,1,201,0.846021175384521,knife,knife,0,0201_s5n_s03_0_knife_00_knife4-cat2.png
subject-03,1,202,0.693660020828247,bird,bird,0,0202_s5n_s03_0_bird_00_bird1-bear1.png
subject-03,1,203,0.84168004989624,knife,knife,0,0203_s5n_s03_0_knife_00_knife4-boat1.png
subject-03,1,204,0.87281608581543,bear,bear,0,0204_s5n_s03_0_bear_00_bear8-bicycle3.png
subject-03,1,205,0.681120872497559,car,car,0,0205_s5n_s03_0_car_00_car8-cat1.png
subject-03,1,206,NaN,na,dog,0,0206_s5n_s03_0_dog_00_dog3-clock1.png
subject-03,1,207,0.819999933242798,chair,keyboard,0,0207_s5n_s03_0_keyboard_00_keyboard7-chair3.png
subject-03,1,208,0.597429990768433,bicycle,bicycle,0,0208_s5n_s03_0_bicycle_00_bicycle8-truck1.png
subject-03,1,209,0.93690299987793,bird,bird,0,0209_s5n_s03_0_bird_00_bird1-keyboard3.png
subject-03,1,210,0.660383939743042,cat,truck,0,0210_s5n_s03_0_truck_00_truck3-bear3.png
subject-03,1,211,0.607080936431885,elephant,elephant,0,0211_s5n_s03_0_elephant_00_elephant9-bicycle2.png
subject-03,1,212,0.863237857818604,chair,chair,0,0212_s5n_s03_0_chair_00_chair7-chair1.png
subject-03,1,213,0.732419967651367,knife,knife,0,0213_s5n_s03_0_knife_00_knife7-airplane3.png
subject-03,1,214,0.980386018753052,bear,bear,0,0214_s5n_s03_0_bear_00_bear5-boat2.png
subject-03,1,215,0.833853006362915,clock,clock,0,0215_s5n_s03_0_clock_00_clock8-boat1.png
subject-03,1,216,0.727624893188477,boat,boat,0,0216_s5n_s03_0_boat_00_boat10-truck1.png
subject-03,1,217,0.890258073806763,bird,airplane,0,0217_s5n_s03_0_airplane_00_airplane3-elephant1.png
subject-03,1,218,0.540217161178589,bicycle,bicycle,0,0218_s5n_s03_0_bicycle_00_bicycle4-airplane1.png
subject-03,1,219,1.50017380714417,keyboard,keyboard,0,0219_s5n_s03_0_keyboard_00_keyboard1-clock1.png
subject-03,1,220,0.756014108657837,truck,truck,0,0220_s5n_s03_0_truck_00_truck7-boat1.png
subject-03,1,221,0.849761962890625,truck,truck,0,0221_s5n_s03_0_truck_00_truck4-bear1.png
subject-03,1,222,0.758294820785522,truck,truck,0,0222_s5n_s03_0_truck_00_truck10-bicycle1.png
subject-03,1,223,0.643111944198608,truck,truck,0,0223_s5n_s03_0_truck_00_truck2-airplane3.png
subject-03,1,224,0.720350980758667,boat,boat,0,0224_s5n_s03_0_boat_00_boat3-car3.png
subject-03,1,225,0.898643016815186,bird,bird,0,0225_s5n_s03_0_bird_00_bird3-dog1.png
subject-03,1,226,0.683753967285156,keyboard,keyboard,0,0226_s5n_s03_0_keyboard_00_keyboard2-bottle1.png
subject-03,1,227,0.723273992538452,clock,oven,0,0227_s5n_s03_0_oven_00_oven3-cat2.png
subject-03,1,228,0.697483777999878,cat,cat,0,0228_s5n_s03_0_cat_00_cat7-elephant1.png
subject-03,1,229,0.737027168273926,knife,knife,0,0229_s5n_s03_0_knife_00_knife6-knife1.png
subject-03,1,230,0.848925113677979,boat,boat,0,0230_s5n_s03_0_boat_00_boat9-knife2.png
subject-03,1,231,0.772525072097778,knife,knife,0,0231_s5n_s03_0_knife_00_knife4-oven2.png
subject-03,1,232,0.650491952896118,cat,dog,0,0232_s5n_s03_0_dog_00_dog5-boat3.png
subject-03,1,233,0.906206846237183,chair,chair,0,0233_s5n_s03_0_chair_00_chair2-bear2.png
subject-03,1,234,0.655009031295776,clock,clock,0,0234_s5n_s03_0_clock_00_clock1-clock2.png
subject-03,1,235,0.648635864257812,car,car,0,0235_s5n_s03_0_car_00_car5-cat1.png
subject-03,1,236,0.641003131866455,chair,chair,0,0236_s5n_s03_0_chair_00_chair5-boat3.png
subject-03,1,237,0.771847009658813,bottle,bottle,0,0237_s5n_s03_0_bottle_00_bottle5-chair1.png
subject-03,1,238,1.02887296676636,airplane,airplane,0,0238_s5n_s03_0_airplane_00_airplane6-bear3.png
subject-03,1,239,1.28227615356445,oven,oven,0,0239_s5n_s03_0_oven_00_oven3-bear2.png
subject-03,1,240,0.646350145339966,chair,chair,0,0240_s5n_s03_0_chair_00_chair2-boat1.png
subject-03,1,241,1.06241703033447,bird,bear,0,0241_s5n_s03_0_bear_00_bear10-keyboard3.png
subject-03,1,242,0.955739974975586,bear,dog,0,0242_s5n_s03_0_dog_00_dog7-car2.png
subject-03,1,243,0.80174708366394,knife,knife,0,0243_s5n_s03_0_knife_00_knife10-bear3.png
subject-03,1,244,0.749898910522461,elephant,elephant,0,0244_s5n_s03_0_elephant_00_elephant2-bird1.png
subject-03,1,245,0.911512136459351,knife,keyboard,0,0245_s5n_s03_0_keyboard_00_keyboard7-truck2.png
subject-03,1,246,0.518855094909668,bottle,bottle,0,0246_s5n_s03_0_bottle_00_bottle8-dog2.png
subject-03,1,247,0.995973110198975,dog,cat,0,0247_s5n_s03_0_cat_00_cat10-clock1.png
subject-03,1,248,0.836410045623779,elephant,elephant,0,0248_s5n_s03_0_elephant_00_elephant5-bear2.png
subject-03,1,249,0.690070867538452,airplane,airplane,0,0249_s5n_s03_0_airplane_00_airplane4-airplane1.png
subject-03,1,250,1.09834289550781,car,car,0,0250_s5n_s03_0_car_00_car4-bear3.png
subject-03,1,251,1.07683610916138,clock,clock,0,0251_s5n_s03_0_clock_00_clock9-bird2.png
subject-03,1,252,0.692400932312012,truck,truck,0,0252_s5n_s03_0_truck_00_truck5-knife3.png
subject-03,1,253,0.75621509552002,chair,chair,0,0253_s5n_s03_0_chair_00_chair8-bear1.png
subject-03,1,254,0.794548034667969,bottle,bottle,0,0254_s5n_s03_0_bottle_00_bottle4-car3.png
subject-03,1,255,0.934617042541504,oven,oven,0,0255_s5n_s03_0_oven_00_oven2-bicycle1.png
subject-03,1,256,1.29669284820557,bicycle,bicycle,0,0256_s5n_s03_0_bicycle_00_bicycle3-keyboard1.png
subject-03,1,257,0.806771993637085,cat,cat,0,0257_s5n_s03_0_cat_00_cat2-cat1.png
subject-03,1,258,0.652265071868896,car,car,0,0258_s5n_s03_0_car_00_car8-dog1.png
subject-03,1,259,0.700406074523926,truck,truck,0,0259_s5n_s03_0_truck_00_truck8-dog3.png
subject-03,1,260,0.769761085510254,bottle,bottle,0,0260_s5n_s03_0_bottle_00_bottle9-keyboard1.png
subject-03,1,261,0.593132019042969,clock,clock,0,0261_s5n_s03_0_clock_00_clock8-truck2.png
subject-03,1,262,0.633656978607178,clock,clock,0,0262_s5n_s03_0_clock_00_clock6-chair3.png
subject-03,1,263,0.727649927139282,bird,bird,0,0263_s5n_s03_0_bird_00_bird2-bird2.png
subject-03,1,264,1.13510298728943,bottle,bottle,0,0264_s5n_s03_0_bottle_00_bottle7-clock1.png
subject-03,1,265,1.10512280464172,cat,bear,0,0265_s5n_s03_0_bear_00_bear3-dog3.png
subject-03,1,266,0.712800025939941,bottle,bottle,0,0266_s5n_s03_0_bottle_00_bottle7-airplane3.png
subject-03,1,267,0.768774032592773,bottle,bottle,0,0267_s5n_s03_0_bottle_00_bottle1-cat3.png
subject-03,1,268,0.788732051849365,boat,boat,0,0268_s5n_s03_0_boat_00_boat8-knife1.png
subject-03,1,269,0.651127099990845,bird,bird,0,0269_s5n_s03_0_bird_00_bird4-dog3.png
subject-03,1,270,0.695795059204102,chair,chair,0,0270_s5n_s03_0_chair_00_chair4-chair3.png
subject-03,1,271,0.898535966873169,keyboard,keyboard,0,0271_s5n_s03_0_keyboard_00_keyboard4-oven2.png
subject-03,1,272,0.693273067474365,oven,oven,0,0272_s5n_s03_0_oven_00_oven6-airplane3.png
subject-03,1,273,0.763318061828613,oven,oven,0,0273_s5n_s03_0_oven_00_oven7-dog2.png
subject-03,1,274,0.595048904418945,bird,bird,0,0274_s5n_s03_0_bird_00_bird1-oven1.png
subject-03,1,275,0.741045951843262,oven,keyboard,0,0275_s5n_s03_0_keyboard_00_keyboard4-bird1.png
subject-03,1,276,0.788018941879272,knife,airplane,0,0276_s5n_s03_0_airplane_00_airplane10-cat2.png
subject-03,1,277,1.00388407707214,knife,boat,0,0277_s5n_s03_0_boat_00_boat7-truck2.png
subject-03,1,278,0.818573951721191,keyboard,keyboard,0,0278_s5n_s03_0_keyboard_00_keyboard2-bicycle3.png
subject-03,1,279,0.573260068893433,truck,truck,0,0279_s5n_s03_0_truck_00_truck9-truck3.png
subject-03,1,280,0.742717981338501,bear,bear,0,0280_s5n_s03_0_bear_00_bear3-keyboard2.png
subject-03,1,281,0.645575046539307,airplane,airplane,0,0281_s5n_s03_0_airplane_00_airplane10-airplane1.png
subject-03,1,282,0.999143838882446,truck,car,0,0282_s5n_s03_0_car_00_car5-knife2.png
subject-03,1,283,0.847209930419922,oven,oven,0,0283_s5n_s03_0_oven_00_oven1-boat3.png
subject-03,1,284,0.524239063262939,truck,truck,0,0284_s5n_s03_0_truck_00_truck1-bear1.png
subject-03,1,285,0.769261121749878,knife,knife,0,0285_s5n_s03_0_knife_00_knife1-bird2.png
subject-03,1,286,1.05490708351135,dog,dog,0,0286_s5n_s03_0_dog_00_dog4-bottle2.png
subject-03,1,287,0.591652870178223,oven,oven,0,0287_s5n_s03_0_oven_00_oven4-knife2.png
subject-03,1,288,0.763024091720581,bottle,boat,0,0288_s5n_s03_0_boat_00_boat4-bottle2.png
subject-03,1,289,0.710978984832764,bird,bird,0,0289_s5n_s03_0_bird_00_bird4-airplane1.png
subject-03,1,290,0.710896968841553,keyboard,keyboard,0,0290_s5n_s03_0_keyboard_00_keyboard5-dog3.png
subject-03,1,291,0.755091905593872,dog,dog,0,0291_s5n_s03_0_dog_00_dog10-bottle1.png
subject-03,1,292,0.962579011917114,bird,airplane,0,0292_s5n_s03_0_airplane_00_airplane7-truck1.png
subject-03,1,293,0.678904056549072,bear,bear,0,0293_s5n_s03_0_bear_00_bear2-car2.png
subject-03,1,294,0.726830959320068,dog,dog,0,0294_s5n_s03_0_dog_00_dog4-cat3.png
subject-03,1,295,0.781085014343262,truck,truck,0,0295_s5n_s03_0_truck_00_truck5-dog3.png
subject-03,1,296,1.18273401260376,dog,dog,0,0296_s5n_s03_0_dog_00_dog4-bird1.png
subject-03,1,297,0.637279033660889,keyboard,keyboard,0,0297_s5n_s03_0_keyboard_00_keyboard6-chair1.png
subject-03,1,298,0.809014081954956,bicycle,bicycle,0,0298_s5n_s03_0_bicycle_00_bicycle9-bird3.png
subject-03,1,299,0.637856006622314,dog,dog,0,0299_s5n_s03_0_dog_00_dog10-truck2.png
subject-03,1,300,0.767127990722656,truck,truck,0,0300_s5n_s03_0_truck_00_truck1-dog1.png
subject-03,1,301,0.661338090896606,car,car,0,0301_s5n_s03_0_car_00_car3-airplane3.png
subject-03,1,302,0.522819995880127,car,car,0,0302_s5n_s03_0_car_00_car8-knife2.png
subject-03,1,303,0.886446952819824,bottle,bottle,0,0303_s5n_s03_0_bottle_00_bottle2-bottle3.png
subject-03,1,304,0.948663949966431,dog,dog,0,0304_s5n_s03_0_dog_00_dog5-knife2.png
subject-03,1,305,0.631432056427002,boat,boat,0,0305_s5n_s03_0_boat_00_boat9-cat3.png
subject-03,1,306,0.82237696647644,chair,chair,0,0306_s5n_s03_0_chair_00_chair8-elephant1.png
subject-03,1,307,0.702954053878784,keyboard,keyboard,0,0307_s5n_s03_0_keyboard_00_keyboard5-bird3.png
subject-03,1,308,0.670210838317871,oven,oven,0,0308_s5n_s03_0_oven_00_oven9-keyboard1.png
subject-03,1,309,0.748655796051025,dog,dog,0,0309_s5n_s03_0_dog_00_dog3-knife3.png
subject-03,1,310,0.871641874313354,bird,bird,0,0310_s5n_s03_0_bird_00_bird10-bicycle1.png
subject-03,1,311,0.871371984481812,truck,truck,0,0311_s5n_s03_0_truck_00_truck3-car3.png
subject-03,1,312,0.710491895675659,cat,airplane,0,0312_s5n_s03_0_airplane_00_airplane3-cat1.png
subject-03,1,313,1.01087999343872,truck,truck,0,0313_s5n_s03_0_truck_00_truck5-truck1.png
subject-03,1,314,0.980667114257812,oven,dog,0,0314_s5n_s03_0_dog_00_dog9-car1.png
subject-03,1,315,0.674130916595459,bicycle,bicycle,0,0315_s5n_s03_0_bicycle_00_bicycle3-bird1.png
subject-03,1,316,0.614323139190674,keyboard,keyboard,0,0316_s5n_s03_0_keyboard_00_keyboard9-chair2.png
subject-03,1,317,0.72163987159729,boat,boat,0,0317_s5n_s03_0_boat_00_boat1-elephant3.png
subject-03,1,318,0.529201030731201,bottle,bottle,0,0318_s5n_s03_0_bottle_00_bottle3-cat3.png
subject-03,1,319,0.789582014083862,car,car,0,0319_s5n_s03_0_car_00_car9-truck3.png
subject-03,1,320,0.872929096221924,truck,truck,0,0320_s5n_s03_0_truck_00_truck3-cat1.png
subject-03,1,321,0.939806938171387,knife,keyboard,0,0321_s5n_s03_0_keyboard_00_keyboard9-elephant2.png
subject-03,1,322,0.641237020492554,cat,cat,0,0322_s5n_s03_0_cat_00_cat5-bicycle3.png
subject-03,1,323,0.778781890869141,bird,airplane,0,0323_s5n_s03_0_airplane_00_airplane3-airplane2.png
subject-03,1,324,0.719464063644409,chair,chair,0,0324_s5n_s03_0_chair_00_chair1-oven3.png
subject-03,1,325,0.872539043426514,car,car,0,0325_s5n_s03_0_car_00_car5-bottle1.png
subject-03,1,326,0.949949979782104,cat,knife,0,0326_s5n_s03_0_knife_00_knife1-truck2.png
subject-03,1,327,0.825001001358032,knife,knife,0,0327_s5n_s03_0_knife_00_knife1-car3.png
subject-03,1,328,0.926369905471802,car,car,0,0328_s5n_s03_0_car_00_car7-elephant3.png
subject-03,1,329,0.67999792098999,cat,cat,0,0329_s5n_s03_0_cat_00_cat4-bird2.png
subject-03,1,330,0.849582195281982,car,car,0,0330_s5n_s03_0_car_00_car4-bottle1.png
subject-03,1,331,0.778800010681152,bear,bear,0,0331_s5n_s03_0_bear_00_bear8-bottle1.png
subject-03,1,332,0.926079988479614,cat,cat,0,0332_s5n_s03_0_cat_00_cat4-keyboard2.png
subject-03,1,333,0.787946939468384,chair,chair,0,0333_s5n_s03_0_chair_00_chair5-truck3.png
subject-03,1,334,0.795448064804077,bottle,bottle,0,0334_s5n_s03_0_bottle_00_bottle7-truck2.png
subject-03,1,335,0.895027160644531,dog,dog,0,0335_s5n_s03_0_dog_00_dog1-knife3.png
subject-03,1,336,1.01079201698303,dog,dog,0,0336_s5n_s03_0_dog_00_dog4-bicycle1.png
subject-03,1,337,0.812437057495117,bird,boat,0,0337_s5n_s03_0_boat_00_boat4-bicycle3.png
subject-03,1,338,0.857653856277466,bear,bear,0,0338_s5n_s03_0_bear_00_bear8-dog1.png
subject-03,1,339,0.627207040786743,cat,cat,0,0339_s5n_s03_0_cat_00_cat2-boat2.png
subject-03,1,340,0.689117908477783,cat,cat,0,0340_s5n_s03_0_cat_00_cat3-bicycle1.png
subject-03,1,341,0.682801008224487,dog,dog,0,0341_s5n_s03_0_dog_00_dog2-cat1.png
subject-03,1,342,0.904193162918091,elephant,elephant,0,0342_s5n_s03_0_elephant_00_elephant6-car3.png
subject-03,1,343,0.618998050689697,bird,bird,0,0343_s5n_s03_0_bird_00_bird4-bicycle2.png
subject-03,1,344,0.621958017349243,chair,chair,0,0344_s5n_s03_0_chair_00_chair3-knife1.png
subject-03,1,345,0.754594087600708,boat,boat,0,0345_s5n_s03_0_boat_00_boat6-bicycle2.png
subject-03,1,346,0.554531812667847,oven,oven,0,0346_s5n_s03_0_oven_00_oven10-cat2.png
subject-03,1,347,0.578217029571533,bird,bird,0,0347_s5n_s03_0_bird_00_bird5-bicycle1.png
subject-03,1,348,0.632000923156738,bird,bird,0,0348_s5n_s03_0_bird_00_bird9-dog2.png
subject-03,1,349,0.747781038284302,chair,chair,0,0349_s5n_s03_0_chair_00_chair9-chair3.png
subject-03,1,350,0.648313999176025,cat,cat,0,0350_s5n_s03_0_cat_00_cat6-keyboard3.png
subject-03,1,351,1.23729705810547,keyboard,keyboard,0,0351_s5n_s03_0_keyboard_00_keyboard8-airplane2.png
subject-03,1,352,0.976903915405273,airplane,airplane,0,0352_s5n_s03_0_airplane_00_airplane2-bottle1.png
subject-03,1,353,0.792062044143677,dog,dog,0,0353_s5n_s03_0_dog_00_dog9-cat1.png
subject-03,1,354,1.15939593315125,bird,bird,0,0354_s5n_s03_0_bird_00_bird7-cat3.png
subject-03,1,355,0.683275938034058,bottle,elephant,0,0355_s5n_s03_0_elephant_00_elephant8-truck3.png
subject-03,1,356,0.736990928649902,dog,bear,0,0356_s5n_s03_0_bear_00_bear1-elephant1.png
subject-03,1,357,0.754662036895752,bear,bear,0,0357_s5n_s03_0_bear_00_bear9-boat2.png
subject-03,1,358,0.883633136749268,bear,bear,0,0358_s5n_s03_0_bear_00_bear3-bicycle2.png
subject-03,1,359,0.608259916305542,bird,bird,0,0359_s5n_s03_0_bird_00_bird8-knife2.png
subject-03,1,360,0.739855051040649,dog,dog,0,0360_s5n_s03_0_dog_00_dog7-knife3.png
subject-03,1,361,0.94730019569397,dog,elephant,0,0361_s5n_s03_0_elephant_00_elephant2-truck2.png
subject-03,1,362,0.784389972686768,bottle,bottle,0,0362_s5n_s03_0_bottle_00_bottle10-boat3.png
subject-03,1,363,0.845602035522461,knife,knife,0,0363_s5n_s03_0_knife_00_knife8-boat1.png
subject-03,1,364,0.715974092483521,bird,bird,0,0364_s5n_s03_0_bird_00_bird7-bottle1.png
subject-03,1,365,0.915798902511597,bear,bear,0,0365_s5n_s03_0_bear_00_bear10-elephant1.png
subject-03,1,366,0.985266923904419,truck,truck,0,0366_s5n_s03_0_truck_00_truck1-car3.png
subject-03,1,367,0.933016061782837,cat,cat,0,0367_s5n_s03_0_cat_00_cat2-elephant1.png
subject-03,1,368,1.12739706039429,knife,elephant,0,0368_s5n_s03_0_elephant_00_elephant3-keyboard2.png
subject-03,1,369,0.711412906646729,bottle,bottle,0,0369_s5n_s03_0_bottle_00_bottle3-knife3.png
subject-03,1,370,0.972810983657837,bottle,boat,0,0370_s5n_s03_0_boat_00_boat7-chair1.png
subject-03,1,371,0.703929901123047,clock,clock,0,0371_s5n_s03_0_clock_00_clock2-clock3.png
subject-03,1,372,0.727737188339233,truck,truck,0,0372_s5n_s03_0_truck_00_truck6-bicycle1.png
subject-03,1,373,0.697671175003052,bird,bird,0,0373_s5n_s03_0_bird_00_bird1-clock3.png
subject-03,1,374,0.781800031661987,chair,chair,0,0374_s5n_s03_0_chair_00_chair1-elephant1.png
subject-03,1,375,0.796653985977173,knife,keyboard,0,0375_s5n_s03_0_keyboard_00_keyboard3-car2.png
subject-03,1,376,1.05075001716614,elephant,elephant,0,0376_s5n_s03_0_elephant_00_elephant5-bottle2.png
subject-03,1,377,0.94975209236145,car,car,0,0377_s5n_s03_0_car_00_car4-car2.png
subject-03,1,378,0.798142910003662,bear,bear,0,0378_s5n_s03_0_bear_00_bear5-bicycle3.png
subject-03,1,379,0.934849977493286,bicycle,bicycle,0,0379_s5n_s03_0_bicycle_00_bicycle2-keyboard2.png
subject-03,1,380,0.782648086547852,keyboard,keyboard,0,0380_s5n_s03_0_keyboard_00_keyboard9-truck3.png
subject-03,1,381,0.728234052658081,bottle,bottle,0,0381_s5n_s03_0_bottle_00_bottle3-bird1.png
subject-03,1,382,0.681949138641357,cat,cat,0,0382_s5n_s03_0_cat_00_cat2-truck3.png
subject-03,1,383,0.810818910598755,knife,knife,0,0383_s5n_s03_0_knife_00_knife6-truck1.png
subject-03,1,384,0.658064126968384,bottle,elephant,0,0384_s5n_s03_0_elephant_00_elephant10-keyboard1.png
subject-03,1,385,0.787796020507812,bear,elephant,0,0385_s5n_s03_0_elephant_00_elephant4-chair3.png
subject-03,1,386,0.665693998336792,bear,bear,0,0386_s5n_s03_0_bear_00_bear10-clock1.png
subject-03,1,387,0.98169207572937,bear,bear,0,0387_s5n_s03_0_bear_00_bear8-boat2.png
subject-03,1,388,0.864778995513916,bear,elephant,0,0388_s5n_s03_0_elephant_00_elephant8-clock2.png
subject-03,1,389,0.850648880004883,truck,truck,0,0389_s5n_s03_0_truck_00_truck2-bottle3.png
subject-03,1,390,0.849397897720337,cat,cat,0,0390_s5n_s03_0_cat_00_cat1-keyboard3.png
subject-03,1,391,0.773504018783569,oven,bird,0,0391_s5n_s03_0_bird_00_bird3-boat3.png
subject-03,1,392,0.703052043914795,airplane,airplane,0,0392_s5n_s03_0_airplane_00_airplane10-truck1.png
subject-03,1,393,0.78827691078186,oven,oven,0,0393_s5n_s03_0_oven_00_oven1-dog3.png
subject-03,1,394,0.704439878463745,keyboard,keyboard,0,0394_s5n_s03_0_keyboard_00_keyboard10-car1.png
subject-03,1,395,0.641412973403931,truck,truck,0,0395_s5n_s03_0_truck_00_truck1-clock3.png
subject-03,1,396,1.03637409210205,cat,cat,0,0396_s5n_s03_0_cat_00_cat7-truck2.png
subject-03,1,397,0.621265172958374,oven,oven,0,0397_s5n_s03_0_oven_00_oven9-boat2.png
subject-03,1,398,0.726608991622925,car,car,0,0398_s5n_s03_0_car_00_car7-car1.png
subject-03,1,399,1.16401290893555,bicycle,bicycle,0,0399_s5n_s03_0_bicycle_00_bicycle10-boat3.png
subject-03,1,400,0.657173871994019,oven,oven,0,0400_s5n_s03_0_oven_00_oven6-truck1.png
subject-03,1,401,0.986876010894775,bicycle,bicycle,0,0401_s5n_s03_0_bicycle_00_bicycle4-knife3.png
subject-03,1,402,0.748446941375732,cat,truck,0,0402_s5n_s03_0_truck_00_truck7-keyboard3.png
subject-03,1,403,0.634835958480835,oven,oven,0,0403_s5n_s03_0_oven_00_oven2-bottle1.png
subject-03,1,404,0.671422004699707,bear,bear,0,0404_s5n_s03_0_bear_00_bear10-bottle1.png
subject-03,1,405,0.804410934448242,elephant,elephant,0,0405_s5n_s03_0_elephant_00_elephant7-dog1.png
subject-03,1,406,1.13410782814026,chair,chair,0,0406_s5n_s03_0_chair_00_chair9-bear1.png
subject-03,1,407,0.874969959259033,chair,chair,0,0407_s5n_s03_0_chair_00_chair5-clock2.png
subject-03,1,408,0.914412021636963,clock,clock,0,0408_s5n_s03_0_clock_00_clock6-bicycle1.png
subject-03,1,409,1.0604829788208,bird,bird,0,0409_s5n_s03_0_bird_00_bird8-bottle1.png
subject-03,1,410,0.706048965454102,bear,bear,0,0410_s5n_s03_0_bear_00_bear10-chair2.png
subject-03,1,411,0.737909078598022,clock,clock,0,0411_s5n_s03_0_clock_00_clock6-bottle1.png
subject-03,1,412,0.548090934753418,cat,cat,0,0412_s5n_s03_0_cat_00_cat4-knife1.png
subject-03,1,413,0.606910943984985,dog,dog,0,0413_s5n_s03_0_dog_00_dog8-oven3.png
subject-03,1,414,0.761054992675781,bird,chair,0,0414_s5n_s03_0_chair_00_chair5-cat3.png
subject-03,1,415,0.600564956665039,cat,cat,0,0415_s5n_s03_0_cat_00_cat7-clock3.png
subject-03,1,416,0.662558078765869,bird,bird,0,0416_s5n_s03_0_bird_00_bird9-keyboard1.png
subject-03,1,417,0.990792036056519,chair,elephant,0,0417_s5n_s03_0_elephant_00_elephant5-chair3.png
subject-03,1,418,0.85353684425354,cat,clock,0,0418_s5n_s03_0_clock_00_clock10-truck2.png
subject-03,1,419,0.568696022033691,bicycle,bicycle,0,0419_s5n_s03_0_bicycle_00_bicycle10-dog3.png
subject-03,1,420,0.793460130691528,oven,boat,0,0420_s5n_s03_0_boat_00_boat7-oven3.png
subject-03,1,421,1.11782097816467,bird,bird,0,0421_s5n_s03_0_bird_00_bird10-cat1.png
subject-03,1,422,0.8034348487854,chair,chair,0,0422_s5n_s03_0_chair_00_chair1-truck3.png
subject-03,1,423,1.00245499610901,elephant,elephant,0,0423_s5n_s03_0_elephant_00_elephant2-airplane3.png
subject-03,1,424,0.677826881408691,chair,chair,0,0424_s5n_s03_0_chair_00_chair7-truck3.png
subject-03,1,425,0.939637899398804,bottle,bottle,0,0425_s5n_s03_0_bottle_00_bottle3-bicycle3.png
subject-03,1,426,1.37726616859436,clock,cat,0,0426_s5n_s03_0_cat_00_cat8-car2.png
subject-03,1,427,1.02578401565552,clock,clock,0,0427_s5n_s03_0_clock_00_clock7-car1.png
subject-03,1,428,1.0708429813385,elephant,knife,0,0428_s5n_s03_0_knife_00_knife10-elephant3.png
subject-03,1,429,0.602779865264893,clock,clock,0,0429_s5n_s03_0_clock_00_clock2-elephant2.png
subject-03,1,430,0.694662094116211,clock,clock,0,0430_s5n_s03_0_clock_00_clock10-clock3.png
subject-03,1,431,0.539515018463135,bottle,bottle,0,0431_s5n_s03_0_bottle_00_bottle6-oven3.png
subject-03,1,432,0.738264083862305,truck,truck,0,0432_s5n_s03_0_truck_00_truck8-elephant1.png
subject-03,1,433,0.678864002227783,cat,bear,0,0433_s5n_s03_0_bear_00_bear6-boat3.png
subject-03,1,434,0.800293922424316,bicycle,bicycle,0,0434_s5n_s03_0_bicycle_00_bicycle1-elephant2.png
subject-03,1,435,0.923330068588257,chair,chair,0,0435_s5n_s03_0_chair_00_chair4-truck2.png
subject-03,1,436,0.693625926971436,bottle,elephant,0,0436_s5n_s03_0_elephant_00_elephant3-chair1.png
subject-03,1,437,0.826177835464478,bird,bird,0,0437_s5n_s03_0_bird_00_bird9-bottle3.png
subject-03,1,438,0.924659013748169,knife,keyboard,0,0438_s5n_s03_0_keyboard_00_keyboard10-keyboard1.png
subject-03,1,439,0.709085941314697,dog,dog,0,0439_s5n_s03_0_dog_00_dog8-bear3.png
subject-03,1,440,0.853771924972534,cat,cat,0,0440_s5n_s03_0_cat_00_cat5-bottle1.png
subject-03,1,441,0.516072988510132,clock,clock,0,0441_s5n_s03_0_clock_00_clock5-clock2.png
subject-03,1,442,0.581048965454102,oven,oven,0,0442_s5n_s03_0_oven_00_oven5-bottle3.png
subject-03,1,443,0.626437902450562,bicycle,bicycle,0,0443_s5n_s03_0_bicycle_00_bicycle10-airplane2.png
subject-03,1,444,0.617361068725586,bottle,bottle,0,0444_s5n_s03_0_bottle_00_bottle5-oven2.png
subject-03,1,445,1.04152989387512,dog,dog,0,0445_s5n_s03_0_dog_00_dog10-keyboard2.png
subject-03,1,446,1.13334798812866,knife,airplane,0,0446_s5n_s03_0_airplane_00_airplane4-truck2.png
subject-03,1,447,0.607270002365112,cat,cat,0,0447_s5n_s03_0_cat_00_cat1-oven1.png
subject-03,1,448,1.14899015426636,oven,oven,0,0448_s5n_s03_0_oven_00_oven4-elephant3.png
subject-03,1,449,0.727284908294678,chair,boat,0,0449_s5n_s03_0_boat_00_boat1-chair3.png
subject-03,1,450,0.894829988479614,chair,dog,0,0450_s5n_s03_0_dog_00_dog1-car2.png
subject-03,1,451,0.848211050033569,keyboard,keyboard,0,0451_s5n_s03_0_keyboard_00_keyboard6-knife2.png
subject-03,1,452,0.763750076293945,bottle,bottle,0,0452_s5n_s03_0_bottle_00_bottle3-bear2.png
subject-03,1,453,0.855926990509033,airplane,airplane,0,0453_s5n_s03_0_airplane_00_airplane10-oven2.png
subject-03,1,454,1.13709020614624,airplane,knife,0,0454_s5n_s03_0_knife_00_knife6-clock2.png
subject-03,1,455,0.607429027557373,bottle,bottle,0,0455_s5n_s03_0_bottle_00_bottle8-bottle3.png
subject-03,1,456,0.953459978103638,truck,truck,0,0456_s5n_s03_0_truck_00_truck7-oven2.png
subject-03,1,457,0.675071001052856,bottle,bottle,0,0457_s5n_s03_0_bottle_00_bottle6-boat3.png
subject-03,1,458,1.1670069694519,car,car,0,0458_s5n_s03_0_car_00_car8-airplane3.png
subject-03,1,459,0.907428979873657,bear,bear,0,0459_s5n_s03_0_bear_00_bear4-keyboard3.png
subject-03,1,460,1.10614204406738,knife,knife,0,0460_s5n_s03_0_knife_00_knife2-elephant2.png
subject-03,1,461,1.22791194915771,boat,boat,0,0461_s5n_s03_0_boat_00_boat5-boat3.png
subject-03,1,462,0.87615180015564,clock,clock,0,0462_s5n_s03_0_clock_00_clock4-elephant2.png
subject-03,1,463,0.914279937744141,boat,boat,0,0463_s5n_s03_0_boat_00_boat8-elephant1.png
subject-03,1,464,0.667564153671265,bicycle,bicycle,0,0464_s5n_s03_0_bicycle_00_bicycle1-chair1.png
subject-03,1,465,0.722018003463745,chair,chair,0,0465_s5n_s03_0_chair_00_chair8-clock3.png
subject-03,1,466,0.686730861663818,bicycle,bicycle,0,0466_s5n_s03_0_bicycle_00_bicycle6-boat2.png
subject-03,1,467,0.85683012008667,chair,chair,0,0467_s5n_s03_0_chair_00_chair9-elephant1.png
subject-03,1,468,0.640420913696289,bicycle,bicycle,0,0468_s5n_s03_0_bicycle_00_bicycle4-bottle1.png
subject-03,1,469,1.44923210144043,bottle,elephant,0,0469_s5n_s03_0_elephant_00_elephant8-knife2.png
subject-03,1,470,0.681067943572998,bicycle,bicycle,0,0470_s5n_s03_0_bicycle_00_bicycle7-elephant2.png
subject-03,1,471,0.911240816116333,keyboard,keyboard,0,0471_s5n_s03_0_keyboard_00_keyboard6-bear2.png
subject-03,1,472,1.36772489547729,keyboard,cat,0,0472_s5n_s03_0_cat_00_cat1-cat3.png
subject-03,1,473,0.904700040817261,dog,dog,0,0473_s5n_s03_0_dog_00_dog6-bicycle1.png
subject-03,1,474,0.757916927337646,boat,boat,0,0474_s5n_s03_0_boat_00_boat5-clock3.png
subject-03,1,475,0.703596115112305,bird,bird,0,0475_s5n_s03_0_bird_00_bird1-airplane2.png
subject-03,1,476,1.14911103248596,elephant,elephant,0,0476_s5n_s03_0_elephant_00_elephant1-oven2.png
subject-03,1,477,1.1115140914917,chair,chair,0,0477_s5n_s03_0_chair_00_chair5-bird1.png
subject-03,1,478,0.835010051727295,cat,truck,0,0478_s5n_s03_0_truck_00_truck6-truck2.png
subject-03,1,479,0.53570294380188,boat,boat,0,0479_s5n_s03_0_boat_00_boat9-boat3.png
subject-03,1,480,0.781146049499512,cat,bird,0,0480_s5n_s03_0_bird_00_bird7-knife2.png
subject-03,1,481,0.758594989776611,oven,oven,0,0481_s5n_s03_0_oven_00_oven9-airplane2.png
subject-03,1,482,0.70498514175415,clock,clock,0,0482_s5n_s03_0_clock_00_clock4-oven1.png
subject-03,1,483,1.04258394241333,cat,elephant,0,0483_s5n_s03_0_elephant_00_elephant6-cat2.png
subject-03,1,484,0.620873928070068,bird,bird,0,0484_s5n_s03_0_bird_00_bird3-truck3.png
subject-03,1,485,0.94532585144043,cat,boat,0,0485_s5n_s03_0_boat_00_boat4-chair2.png
subject-03,1,486,0.976999998092651,bicycle,bicycle,0,0486_s5n_s03_0_bicycle_00_bicycle2-bottle1.png
subject-03,1,487,NaN,na,bicycle,0,0487_s5n_s03_0_bicycle_00_bicycle3-truck3.png
subject-03,1,488,0.585190057754517,cat,chair,0,0488_s5n_s03_0_chair_00_chair10-car2.png
subject-03,1,489,0.655755996704102,airplane,airplane,0,0489_s5n_s03_0_airplane_00_airplane4-car1.png
subject-03,1,490,0.82514500617981,car,car,0,0490_s5n_s03_0_car_00_car7-keyboard3.png
subject-03,1,491,0.831971883773804,bear,bear,0,0491_s5n_s03_0_bear_00_bear9-keyboard3.png
subject-03,1,492,0.786166906356812,truck,truck,0,0492_s5n_s03_0_truck_00_truck2-boat3.png
subject-03,1,493,0.662122011184692,bird,bird,0,0493_s5n_s03_0_bird_00_bird6-airplane2.png
subject-03,1,494,0.547080993652344,bicycle,bicycle,0,0494_s5n_s03_0_bicycle_00_bicycle8-chair2.png
subject-03,1,495,0.608936071395874,clock,clock,0,0495_s5n_s03_0_clock_00_clock3-dog2.png
subject-03,1,496,0.816906929016113,keyboard,keyboard,0,0496_s5n_s03_0_keyboard_00_keyboard7-knife1.png
subject-03,1,497,0.616819858551025,dog,dog,0,0497_s5n_s03_0_dog_00_dog10-dog1.png
subject-03,1,498,0.716555118560791,cat,airplane,0,0498_s5n_s03_0_airplane_00_airplane5-dog3.png
subject-03,1,499,0.5313720703125,oven,oven,0,0499_s5n_s03_0_oven_00_oven9-chair1.png
subject-03,1,500,0.677752017974854,airplane,airplane,0,0500_s5n_s03_0_airplane_00_airplane6-bottle2.png
subject-03,1,501,0.752838134765625,truck,truck,0,0501_s5n_s03_0_truck_00_truck7-elephant2.png
subject-03,1,502,0.692228078842163,bird,bird,0,0502_s5n_s03_0_bird_00_bird7-bird2.png
subject-03,1,503,0.697071075439453,bear,bear,0,0503_s5n_s03_0_bear_00_bear10-oven1.png
subject-03,1,504,0.583373069763184,bird,bird,0,0504_s5n_s03_0_bird_00_bird8-keyboard2.png
subject-03,1,505,0.575551986694336,cat,cat,0,0505_s5n_s03_0_cat_00_cat8-bird2.png
subject-03,1,506,0.569438934326172,bottle,bottle,0,0506_s5n_s03_0_bottle_00_bottle9-bottle1.png
subject-03,1,507,0.801992893218994,keyboard,knife,0,0507_s5n_s03_0_knife_00_knife10-chair1.png
subject-03,1,508,0.98539400100708,truck,truck,0,0508_s5n_s03_0_truck_00_truck7-bear2.png
subject-03,1,509,0.971715927124023,bear,bear,0,0509_s5n_s03_0_bear_00_bear5-airplane3.png
subject-03,1,510,0.863373994827271,clock,clock,0,0510_s5n_s03_0_clock_00_clock5-keyboard1.png
subject-03,1,511,0.546850919723511,bottle,bottle,0,0511_s5n_s03_0_bottle_00_bottle10-dog1.png
subject-03,1,512,1.07879209518433,clock,clock,0,0512_s5n_s03_0_clock_00_clock6-knife2.png
subject-03,1,513,0.64508318901062,oven,elephant,0,0513_s5n_s03_0_elephant_00_elephant3-knife1.png
subject-03,1,514,0.598101854324341,truck,truck,0,0514_s5n_s03_0_truck_00_truck9-bottle2.png
subject-03,1,515,0.668391227722168,boat,boat,0,0515_s5n_s03_0_boat_00_boat10-bear3.png
subject-03,1,516,0.600225925445557,bottle,bottle,0,0516_s5n_s03_0_bottle_00_bottle8-bicycle1.png
subject-03,1,517,0.629081010818481,cat,cat,0,0517_s5n_s03_0_cat_00_cat6-oven1.png
subject-03,1,518,0.561270952224731,car,car,0,0518_s5n_s03_0_car_00_car10-keyboard2.png
subject-03,1,519,0.653446912765503,chair,chair,0,0519_s5n_s03_0_chair_00_chair3-dog2.png
subject-03,1,520,0.660815954208374,clock,clock,0,0520_s5n_s03_0_clock_00_clock2-knife1.png
subject-03,1,521,0.630254983901978,car,car,0,0521_s5n_s03_0_car_00_car8-chair1.png
subject-03,1,522,1.12231707572937,oven,bird,0,0522_s5n_s03_0_bird_00_bird3-oven1.png
subject-03,1,523,0.476248025894165,car,car,0,0523_s5n_s03_0_car_00_car9-bicycle2.png
subject-03,1,524,0.899840116500854,knife,knife,0,0524_s5n_s03_0_knife_00_knife9-bird1.png
subject-03,1,525,0.975971937179565,airplane,airplane,0,0525_s5n_s03_0_airplane_00_airplane9-keyboard2.png
subject-03,1,526,0.599743843078613,car,car,0,0526_s5n_s03_0_car_00_car9-keyboard2.png
subject-03,1,527,0.732131958007812,chair,chair,0,0527_s5n_s03_0_chair_00_chair5-bottle3.png
subject-03,1,528,0.631415128707886,bicycle,bicycle,0,0528_s5n_s03_0_bicycle_00_bicycle1-truck1.png
subject-03,1,529,0.852756977081299,elephant,elephant,0,0529_s5n_s03_0_elephant_00_elephant7-knife2.png
subject-03,1,530,0.660483121871948,oven,bird,0,0530_s5n_s03_0_bird_00_bird3-knife3.png
subject-03,1,531,0.546524047851562,bear,bear,0,0531_s5n_s03_0_bear_00_bear2-dog1.png
subject-03,1,532,0.747200012207031,elephant,elephant,0,0532_s5n_s03_0_elephant_00_elephant4-car3.png
subject-03,1,533,0.839133024215698,airplane,airplane,0,0533_s5n_s03_0_airplane_00_airplane4-bottle1.png
subject-03,1,534,0.69501805305481,chair,chair,0,0534_s5n_s03_0_chair_00_chair7-cat1.png
subject-03,1,535,0.916507959365845,elephant,elephant,0,0535_s5n_s03_0_elephant_00_elephant6-knife2.png
subject-03,1,536,0.727020978927612,cat,oven,0,0536_s5n_s03_0_oven_00_oven5-bird1.png
subject-03,1,537,0.91070294380188,oven,oven,0,0537_s5n_s03_0_oven_00_oven7-car3.png
subject-03,1,538,0.502425909042358,clock,clock,0,0538_s5n_s03_0_clock_00_clock2-bottle3.png
subject-03,1,539,0.864248991012573,elephant,elephant,0,0539_s5n_s03_0_elephant_00_elephant10-bear1.png
subject-03,1,540,0.704954147338867,bear,bear,0,0540_s5n_s03_0_bear_00_bear5-bird1.png
subject-03,1,541,0.533969879150391,oven,oven,0,0541_s5n_s03_0_oven_00_oven4-chair1.png
subject-03,1,542,0.720621824264526,car,car,0,0542_s5n_s03_0_car_00_car5-bear3.png
subject-03,1,543,0.782219886779785,bear,bear,0,0543_s5n_s03_0_bear_00_bear8-elephant2.png
subject-03,1,544,0.662652015686035,bicycle,bicycle,0,0544_s5n_s03_0_bicycle_00_bicycle1-oven1.png
subject-03,1,545,1.05625581741333,airplane,airplane,0,0545_s5n_s03_0_airplane_00_airplane5-chair3.png
subject-03,1,546,0.726498126983643,elephant,elephant,0,0546_s5n_s03_0_elephant_00_elephant8-elephant1.png
subject-03,1,547,0.718405961990356,truck,truck,0,0547_s5n_s03_0_truck_00_truck6-clock2.png
subject-03,1,548,0.664070129394531,knife,knife,0,0548_s5n_s03_0_knife_00_knife10-knife1.png
subject-03,1,549,0.547952890396118,bottle,bottle,0,0549_s5n_s03_0_bottle_00_bottle6-bicycle3.png
subject-03,1,550,0.641448974609375,clock,clock,0,0550_s5n_s03_0_clock_00_clock3-car2.png
subject-03,1,551,0.695084095001221,car,car,0,0551_s5n_s03_0_car_00_car1-clock2.png
subject-03,1,552,NaN,na,bottle,0,0552_s5n_s03_0_bottle_00_bottle1-keyboard3.png
subject-03,1,553,0.55701208114624,chair,chair,0,0553_s5n_s03_0_chair_00_chair3-airplane2.png
subject-03,1,554,0.57001805305481,car,car,0,0554_s5n_s03_0_car_00_car3-bird2.png
subject-03,1,555,0.694829940795898,oven,oven,0,0555_s5n_s03_0_oven_00_oven4-bicycle2.png
subject-03,1,556,0.594608068466187,keyboard,keyboard,0,0556_s5n_s03_0_keyboard_00_keyboard1-chair2.png
subject-03,1,557,0.726794004440308,bird,bird,0,0557_s5n_s03_0_bird_00_bird1-elephant2.png
subject-03,1,558,1.08628487586975,truck,car,0,0558_s5n_s03_0_car_00_car5-truck3.png
subject-03,1,559,0.772696018218994,knife,knife,0,0559_s5n_s03_0_knife_00_knife6-bird1.png
subject-03,1,560,0.758388042449951,airplane,airplane,0,0560_s5n_s03_0_airplane_00_airplane3-car1.png
subject-03,1,561,0.887701034545898,knife,knife,0,0561_s5n_s03_0_knife_00_knife8-bicycle1.png
subject-03,1,562,0.642773151397705,bottle,bottle,0,0562_s5n_s03_0_bottle_00_bottle5-airplane1.png
subject-03,1,563,0.658456087112427,bird,bird,0,0563_s5n_s03_0_bird_00_bird8-elephant1.png
subject-03,1,564,0.674702882766724,cat,boat,0,0564_s5n_s03_0_boat_00_boat7-elephant3.png
subject-03,1,565,0.602774858474731,bear,bear,0,0565_s5n_s03_0_bear_00_bear4-cat3.png
subject-03,1,566,0.623955965042114,bicycle,bicycle,0,0566_s5n_s03_0_bicycle_00_bicycle8-bear2.png
subject-03,1,567,0.834022045135498,bicycle,bicycle,0,0567_s5n_s03_0_bicycle_00_bicycle9-keyboard3.png
subject-03,1,568,0.541990995407104,oven,oven,0,0568_s5n_s03_0_oven_00_oven6-bicycle1.png
subject-03,1,569,0.6129469871521,car,car,0,0569_s5n_s03_0_car_00_car5-airplane3.png
subject-03,1,570,0.782160043716431,keyboard,keyboard,0,0570_s5n_s03_0_keyboard_00_keyboard1-elephant3.png
subject-03,1,571,0.74427604675293,oven,oven,0,0571_s5n_s03_0_oven_00_oven5-keyboard2.png
subject-03,1,572,0.603750944137573,car,car,0,0572_s5n_s03_0_car_00_car10-bicycle2.png
subject-03,1,573,0.644354104995728,bear,bear,0,0573_s5n_s03_0_bear_00_bear7-clock1.png
subject-03,1,574,0.759127855300903,bird,bird,0,0574_s5n_s03_0_bird_00_bird1-bicycle2.png
subject-03,1,575,0.818739891052246,truck,truck,0,0575_s5n_s03_0_truck_00_truck5-bird2.png
subject-03,1,576,0.82063102722168,oven,oven,0,0576_s5n_s03_0_oven_00_oven2-bird2.png
subject-03,1,577,0.704925060272217,clock,clock,0,0577_s5n_s03_0_clock_00_clock1-bear1.png
subject-03,1,578,0.783053159713745,bird,bird,0,0578_s5n_s03_0_bird_00_bird9-elephant2.png
subject-03,1,579,0.637686967849731,airplane,airplane,0,0579_s5n_s03_0_airplane_00_airplane7-airplane3.png
subject-03,1,580,0.777621984481812,airplane,airplane,0,0580_s5n_s03_0_airplane_00_airplane6-chair3.png
subject-03,1,581,0.730831146240234,truck,truck,0,0581_s5n_s03_0_truck_00_truck1-knife1.png
subject-03,1,582,0.638237953186035,cat,cat,0,0582_s5n_s03_0_cat_00_cat9-bottle2.png
subject-03,1,583,0.768776893615723,cat,dog,0,0583_s5n_s03_0_dog_00_dog9-boat1.png
subject-03,1,584,0.638556957244873,chair,chair,0,0584_s5n_s03_0_chair_00_chair1-dog1.png
subject-03,1,585,0.641016006469727,dog,dog,0,0585_s5n_s03_0_dog_00_dog10-airplane1.png
subject-03,1,586,0.778915882110596,bear,bear,0,0586_s5n_s03_0_bear_00_bear1-chair2.png
subject-03,1,587,0.740276098251343,bird,boat,0,0587_s5n_s03_0_boat_00_boat6-airplane2.png
subject-03,1,588,0.486524105072021,oven,oven,0,0588_s5n_s03_0_oven_00_oven10-boat2.png
subject-03,1,589,0.625946998596191,bear,bear,0,0589_s5n_s03_0_bear_00_bear5-oven3.png
subject-03,1,590,0.588236093521118,boat,boat,0,0590_s5n_s03_0_boat_00_boat5-car3.png
subject-03,1,591,1.08807492256165,bird,boat,0,0591_s5n_s03_0_boat_00_boat6-dog1.png
subject-03,1,592,0.542165040969849,chair,chair,0,0592_s5n_s03_0_chair_00_chair3-car3.png
subject-03,1,593,0.728152990341187,bird,bird,0,0593_s5n_s03_0_bird_00_bird7-car2.png
subject-03,1,594,0.795425891876221,bottle,bottle,0,0594_s5n_s03_0_bottle_00_bottle8-bird1.png
subject-03,1,595,0.553889989852905,car,car,0,0595_s5n_s03_0_car_00_car6-bottle1.png
subject-03,1,596,1.00739002227783,oven,oven,0,0596_s5n_s03_0_oven_00_oven6-oven3.png
subject-03,1,597,0.559972047805786,cat,cat,0,0597_s5n_s03_0_cat_00_cat9-knife2.png
subject-03,1,598,0.653923988342285,chair,chair,0,0598_s5n_s03_0_chair_00_chair10-bird3.png
subject-03,1,599,0.61625599861145,clock,clock,0,0599_s5n_s03_0_clock_00_clock8-oven3.png
subject-03,1,600,0.69185209274292,bicycle,bicycle,0,0600_s5n_s03_0_bicycle_00_bicycle1-bicycle3.png
subject-03,1,601,0.830995082855225,dog,dog,0,0601_s5n_s03_0_dog_00_dog10-elephant1.png
subject-03,1,602,0.693249940872192,bear,bear,0,0602_s5n_s03_0_bear_00_bear2-cat2.png
subject-03,1,603,0.563462972640991,oven,oven,0,0603_s5n_s03_0_oven_00_oven3-boat3.png
subject-03,1,604,0.693078994750977,keyboard,keyboard,0,0604_s5n_s03_0_keyboard_00_keyboard3-bird3.png
subject-03,1,605,0.846935033798218,cat,dog,0,0605_s5n_s03_0_dog_00_dog3-dog1.png
subject-03,1,606,0.594843864440918,bear,bear,0,0606_s5n_s03_0_bear_00_bear1-bicycle3.png
subject-03,1,607,0.856935977935791,knife,knife,0,0607_s5n_s03_0_knife_00_knife4-clock3.png
subject-03,1,608,0.848566055297852,keyboard,keyboard,0,0608_s5n_s03_0_keyboard_00_keyboard1-bird2.png
subject-03,1,609,0.564771175384521,bottle,bottle,0,0609_s5n_s03_0_bottle_00_bottle4-bicycle1.png
subject-03,1,610,0.758496046066284,elephant,elephant,0,0610_s5n_s03_0_elephant_00_elephant9-boat3.png
subject-03,1,611,0.588243007659912,clock,clock,0,0611_s5n_s03_0_clock_00_clock4-bottle3.png
subject-03,1,612,0.765805959701538,knife,knife,0,0612_s5n_s03_0_knife_00_knife9-elephant2.png
subject-03,1,613,1.29455399513245,knife,boat,0,0613_s5n_s03_0_boat_00_boat4-dog2.png
subject-03,1,614,0.751497030258179,oven,oven,0,0614_s5n_s03_0_oven_00_oven2-truck3.png
subject-03,1,615,0.605436086654663,oven,oven,0,0615_s5n_s03_0_oven_00_oven2-chair1.png
subject-03,1,616,0.745565891265869,oven,cat,0,0616_s5n_s03_0_cat_00_cat5-chair3.png
subject-03,1,617,0.462183952331543,cat,cat,0,0617_s5n_s03_0_cat_00_cat8-bear1.png
subject-03,1,618,0.791486024856567,cat,airplane,0,0618_s5n_s03_0_airplane_00_airplane2-bear1.png
subject-03,1,619,0.636850833892822,keyboard,keyboard,0,0619_s5n_s03_0_keyboard_00_keyboard7-clock3.png
subject-03,1,620,0.823240041732788,bird,airplane,0,0620_s5n_s03_0_airplane_00_airplane7-cat3.png
subject-03,1,621,0.640144824981689,keyboard,keyboard,0,0621_s5n_s03_0_keyboard_00_keyboard6-dog2.png
subject-03,1,622,0.74692702293396,bear,bear,0,0622_s5n_s03_0_bear_00_bear10-truck1.png
subject-03,1,623,0.717514991760254,cat,dog,0,0623_s5n_s03_0_dog_00_dog8-keyboard3.png
subject-03,1,624,0.694796085357666,bottle,bottle,0,0624_s5n_s03_0_bottle_00_bottle2-chair3.png
subject-03,1,625,0.524521112442017,bird,bird,0,0625_s5n_s03_0_bird_00_bird7-oven3.png
subject-03,1,626,0.732327938079834,chair,chair,0,0626_s5n_s03_0_chair_00_chair7-car2.png
subject-03,1,627,0.901819944381714,bird,bird,0,0627_s5n_s03_0_bird_00_bird5-chair1.png
subject-03,1,628,1.36833786964417,car,car,0,0628_s5n_s03_0_car_00_car10-bottle3.png
subject-03,1,629,0.576417922973633,boat,boat,0,0629_s5n_s03_0_boat_00_boat5-airplane1.png
subject-03,1,630,0.646772861480713,knife,knife,0,0630_s5n_s03_0_knife_00_knife9-bear3.png
subject-03,1,631,1.07873392105103,knife,knife,0,0631_s5n_s03_0_knife_00_knife4-airplane3.png
subject-03,1,632,0.633606910705566,bird,cat,0,0632_s5n_s03_0_cat_00_cat4-truck3.png
subject-03,1,633,0.679111003875732,truck,truck,0,0633_s5n_s03_0_truck_00_truck3-dog3.png
subject-03,1,634,0.781108140945435,dog,dog,0,0634_s5n_s03_0_dog_00_dog6-bird1.png
subject-03,1,635,0.626942873001099,truck,truck,0,0635_s5n_s03_0_truck_00_truck3-oven2.png
subject-03,1,636,0.77344012260437,bird,bird,0,0636_s5n_s03_0_bird_00_bird10-elephant2.png
subject-03,1,637,0.580590009689331,keyboard,keyboard,0,0637_s5n_s03_0_keyboard_00_keyboard5-cat1.png
subject-03,1,638,0.682958126068115,clock,clock,0,0638_s5n_s03_0_clock_00_clock7-cat2.png
subject-03,1,639,0.983664035797119,truck,truck,0,0639_s5n_s03_0_truck_00_truck5-car1.png
subject-03,1,640,0.561503887176514,keyboard,keyboard,0,0640_s5n_s03_0_keyboard_00_keyboard9-airplane3.png
subject-03,1,641,0.777193784713745,elephant,elephant,0,0641_s5n_s03_0_elephant_00_elephant8-airplane3.png
subject-03,1,642,1.10949397087097,bird,oven,0,0642_s5n_s03_0_oven_00_oven4-keyboard3.png
subject-03,1,643,0.77128791809082,keyboard,keyboard,0,0643_s5n_s03_0_keyboard_00_keyboard7-dog1.png
subject-03,1,644,0.600641012191772,bicycle,bicycle,0,0644_s5n_s03_0_bicycle_00_bicycle2-bicycle1.png
subject-03,1,645,0.648797035217285,clock,clock,0,0645_s5n_s03_0_clock_00_clock4-boat3.png
subject-03,1,646,0.557260990142822,dog,dog,0,0646_s5n_s03_0_dog_00_dog1-cat3.png
subject-03,1,647,0.743223190307617,keyboard,keyboard,0,0647_s5n_s03_0_keyboard_00_keyboard6-car2.png
subject-03,1,648,0.727311134338379,cat,bird,0,0648_s5n_s03_0_bird_00_bird2-knife1.png
subject-03,1,649,0.826658010482788,bear,bear,0,0649_s5n_s03_0_bear_00_bear6-bear1.png
subject-03,1,650,0.704596996307373,bottle,bottle,0,0650_s5n_s03_0_bottle_00_bottle9-bicycle1.png
subject-03,1,651,0.69587516784668,airplane,airplane,0,0651_s5n_s03_0_airplane_00_airplane5-bird2.png
subject-03,1,652,0.682646989822388,elephant,elephant,0,0652_s5n_s03_0_elephant_00_elephant2-clock1.png
subject-03,1,653,1.19910788536072,bottle,bottle,0,0653_s5n_s03_0_bottle_00_bottle3-bottle3.png
subject-03,1,654,0.631654024124146,elephant,elephant,0,0654_s5n_s03_0_elephant_00_elephant9-elephant3.png
subject-03,1,655,0.630362987518311,boat,boat,0,0655_s5n_s03_0_boat_00_boat5-bicycle3.png
subject-03,1,656,0.94654393196106,cat,bear,0,0656_s5n_s03_0_bear_00_bear6-bird2.png
subject-03,1,657,0.591538906097412,bear,bear,0,0657_s5n_s03_0_bear_00_bear8-airplane1.png
subject-03,1,658,0.653726100921631,chair,chair,0,0658_s5n_s03_0_chair_00_chair2-keyboard2.png
subject-03,1,659,0.931680917739868,bottle,bottle,0,0659_s5n_s03_0_bottle_00_bottle5-boat1.png
subject-03,1,660,0.524244070053101,bicycle,bicycle,0,0660_s5n_s03_0_bicycle_00_bicycle4-cat1.png
subject-03,1,661,0.855815172195435,elephant,airplane,0,0661_s5n_s03_0_airplane_00_airplane5-bear2.png
subject-03,1,662,0.861103057861328,keyboard,boat,0,0662_s5n_s03_0_boat_00_boat1-bear1.png
subject-03,1,663,0.784720897674561,car,car,0,0663_s5n_s03_0_car_00_car1-car2.png
subject-03,1,664,0.77143406867981,keyboard,keyboard,0,0664_s5n_s03_0_keyboard_00_keyboard5-bicycle1.png
subject-03,1,665,0.738584995269775,bottle,bottle,0,0665_s5n_s03_0_bottle_00_bottle7-boat3.png
subject-03,1,666,0.641433000564575,oven,oven,0,0666_s5n_s03_0_oven_00_oven4-bottle2.png
subject-03,1,667,0.719834089279175,truck,truck,0,0667_s5n_s03_0_truck_00_truck8-keyboard2.png
subject-03,1,668,0.689332962036133,bird,bird,0,0668_s5n_s03_0_bird_00_bird3-bear3.png
subject-03,1,669,0.56446099281311,bicycle,bicycle,0,0669_s5n_s03_0_bicycle_00_bicycle2-bird3.png
subject-03,1,670,0.821366786956787,truck,truck,0,0670_s5n_s03_0_truck_00_truck2-keyboard1.png
subject-03,1,671,0.674184799194336,oven,boat,0,0671_s5n_s03_0_boat_00_boat3-clock3.png
subject-03,1,672,0.750443935394287,airplane,airplane,0,0672_s5n_s03_0_airplane_00_airplane9-truck1.png
subject-03,1,673,0.490125179290771,cat,cat,0,0673_s5n_s03_0_cat_00_cat9-dog2.png
subject-03,1,674,0.711975812911987,elephant,elephant,0,0674_s5n_s03_0_elephant_00_elephant10-elephant1.png
subject-03,1,675,0.697767019271851,dog,dog,0,0675_s5n_s03_0_dog_00_dog4-clock1.png
subject-03,1,676,0.640498876571655,boat,boat,0,0676_s5n_s03_0_boat_00_boat4-knife2.png
subject-03,1,677,0.517132997512817,oven,oven,0,0677_s5n_s03_0_oven_00_oven6-bear2.png
subject-03,1,678,0.647853851318359,truck,truck,0,0678_s5n_s03_0_truck_00_truck3-knife2.png
subject-03,1,679,0.99564003944397,truck,truck,0,0679_s5n_s03_0_truck_00_truck1-cat1.png
subject-03,1,680,0.741794109344482,dog,dog,0,0680_s5n_s03_0_dog_00_dog10-car3.png
subject-03,1,681,0.64934515953064,keyboard,keyboard,0,0681_s5n_s03_0_keyboard_00_keyboard9-bicycle2.png
subject-03,1,682,0.543158054351807,boat,boat,0,0682_s5n_s03_0_boat_00_boat2-bottle2.png
subject-03,1,683,0.618912220001221,bicycle,bicycle,0,0683_s5n_s03_0_bicycle_00_bicycle9-airplane2.png
subject-03,1,684,0.889796018600464,car,car,0,0684_s5n_s03_0_car_00_car7-clock1.png
subject-03,1,685,1.23518395423889,bear,bear,0,0685_s5n_s03_0_bear_00_bear1-clock2.png
subject-03,1,686,0.752670049667358,bear,bear,0,0686_s5n_s03_0_bear_00_bear1-bird2.png
subject-03,1,687,0.844864130020142,truck,truck,0,0687_s5n_s03_0_truck_00_truck2-car3.png
subject-03,1,688,0.876952886581421,knife,knife,0,0688_s5n_s03_0_knife_00_knife6-boat3.png
subject-03,1,689,0.615238904953003,car,car,0,0689_s5n_s03_0_car_00_car8-bicycle2.png
subject-03,1,690,0.547057867050171,chair,chair,0,0690_s5n_s03_0_chair_00_chair5-oven2.png
subject-03,1,691,0.599504947662354,dog,dog,0,0691_s5n_s03_0_dog_00_dog4-oven1.png
subject-03,1,692,0.561814069747925,clock,clock,0,0692_s5n_s03_0_clock_00_clock5-bicycle1.png
subject-03,1,693,0.72308611869812,dog,dog,0,0693_s5n_s03_0_dog_00_dog1-dog2.png
subject-03,1,694,0.715211153030396,car,car,0,0694_s5n_s03_0_car_00_car7-dog3.png
subject-03,1,695,0.898802042007446,cat,bird,0,0695_s5n_s03_0_bird_00_bird2-airplane3.png
subject-03,1,696,1.07684087753296,bear,elephant,0,0696_s5n_s03_0_elephant_00_elephant4-bird1.png
subject-03,1,697,0.771080017089844,bird,knife,0,0697_s5n_s03_0_knife_00_knife1-keyboard3.png
subject-03,1,698,0.684338092803955,boat,boat,0,0698_s5n_s03_0_boat_00_boat3-cat3.png
subject-03,1,699,0.586158037185669,boat,boat,0,0699_s5n_s03_0_boat_00_boat7-boat2.png
subject-03,1,700,0.572843790054321,clock,clock,0,0700_s5n_s03_0_clock_00_clock8-keyboard1.png
subject-03,1,701,0.680665016174316,bird,airplane,0,0701_s5n_s03_0_airplane_00_airplane7-clock3.png
subject-03,1,702,0.992648124694824,knife,keyboard,0,0702_s5n_s03_0_keyboard_00_keyboard3-cat1.png
subject-03,1,703,0.730186939239502,airplane,airplane,0,0703_s5n_s03_0_airplane_00_airplane1-clock1.png
subject-03,1,704,1.04097008705139,knife,knife,0,0704_s5n_s03_0_knife_00_knife8-truck3.png
subject-03,1,705,0.941048860549927,knife,knife,0,0705_s5n_s03_0_knife_00_knife6-chair3.png
subject-03,1,706,0.694820165634155,chair,chair,0,0706_s5n_s03_0_chair_00_chair10-dog1.png
subject-03,1,707,0.618877172470093,clock,clock,0,0707_s5n_s03_0_clock_00_clock3-keyboard3.png
subject-03,1,708,0.637695074081421,bicycle,bicycle,0,0708_s5n_s03_0_bicycle_00_bicycle10-elephant2.png
subject-03,1,709,0.753843069076538,clock,clock,0,0709_s5n_s03_0_clock_00_clock8-chair2.png
subject-03,1,710,0.653493881225586,keyboard,keyboard,0,0710_s5n_s03_0_keyboard_00_keyboard6-bicycle1.png
subject-03,1,711,0.891479969024658,bear,dog,0,0711_s5n_s03_0_dog_00_dog3-elephant2.png
subject-03,1,712,0.806371927261353,truck,truck,0,0712_s5n_s03_0_truck_00_truck1-bird1.png
subject-03,1,713,0.906584024429321,car,cat,0,0713_s5n_s03_0_cat_00_cat9-boat2.png
subject-03,1,714,0.638719081878662,bird,bird,0,0714_s5n_s03_0_bird_00_bird5-airplane3.png
subject-03,1,715,0.723891019821167,oven,oven,0,0715_s5n_s03_0_oven_00_oven4-clock2.png
subject-03,1,716,0.9461510181427,dog,dog,0,0716_s5n_s03_0_dog_00_dog8-chair3.png
subject-03,1,717,0.882004976272583,dog,dog,0,0717_s5n_s03_0_dog_00_dog10-clock1.png
subject-03,1,718,0.774906873703003,keyboard,keyboard,0,0718_s5n_s03_0_keyboard_00_keyboard8-oven1.png
subject-03,1,719,0.674309968948364,bear,bear,0,0719_s5n_s03_0_bear_00_bear7-bear2.png
subject-03,1,720,0.86834192276001,knife,bottle,0,0720_s5n_s03_0_bottle_00_bottle9-elephant2.png
subject-03,1,721,0.717040061950684,keyboard,car,0,0721_s5n_s03_0_car_00_car1-keyboard2.png
subject-03,1,722,0.770153999328613,bird,airplane,0,0722_s5n_s03_0_airplane_00_airplane4-keyboard3.png
subject-03,1,723,0.553546905517578,bicycle,bicycle,0,0723_s5n_s03_0_bicycle_00_bicycle6-dog2.png
subject-03,1,724,0.707557916641235,cat,bird,0,0724_s5n_s03_0_bird_00_bird9-bear3.png
subject-03,1,725,0.469399929046631,clock,clock,0,0725_s5n_s03_0_clock_00_clock8-cat1.png
subject-03,1,726,0.677226781845093,bottle,bottle,0,0726_s5n_s03_0_bottle_00_bottle1-bear1.png
subject-03,1,727,0.784027099609375,cat,cat,0,0727_s5n_s03_0_cat_00_cat6-bear1.png
subject-03,1,728,0.630560874938965,bear,bear,0,0728_s5n_s03_0_bear_00_bear2-oven1.png
subject-03,1,729,0.537838935852051,oven,oven,0,0729_s5n_s03_0_oven_00_oven9-bird3.png
subject-03,1,730,0.730189085006714,chair,chair,0,0730_s5n_s03_0_chair_00_chair10-airplane2.png
subject-03,1,731,0.900130033493042,elephant,elephant,0,0731_s5n_s03_0_elephant_00_elephant10-knife3.png
subject-03,1,732,0.778656005859375,keyboard,keyboard,0,0732_s5n_s03_0_keyboard_00_keyboard7-oven2.png
subject-03,1,733,0.97060489654541,elephant,elephant,0,0733_s5n_s03_0_elephant_00_elephant9-airplane2.png
subject-03,1,734,0.724102973937988,clock,clock,0,0734_s5n_s03_0_clock_00_clock3-bicycle2.png
subject-03,1,735,0.532074928283691,cat,cat,0,0735_s5n_s03_0_cat_00_cat7-knife2.png
subject-03,1,736,0.564094066619873,cat,cat,0,0736_s5n_s03_0_cat_00_cat5-bear2.png
subject-03,1,737,0.872094869613647,elephant,bottle,0,0737_s5n_s03_0_bottle_00_bottle7-bear1.png
subject-03,1,738,0.67969799041748,cat,cat,0,0738_s5n_s03_0_cat_00_cat4-chair2.png
subject-03,1,739,0.647379875183105,elephant,elephant,0,0739_s5n_s03_0_elephant_00_elephant7-cat1.png
subject-03,1,740,0.525119781494141,boat,boat,0,0740_s5n_s03_0_boat_00_boat2-bird1.png
subject-03,1,741,0.564810991287231,dog,dog,0,0741_s5n_s03_0_dog_00_dog5-bear3.png
subject-03,1,742,0.711411952972412,bottle,bottle,0,0742_s5n_s03_0_bottle_00_bottle10-bear2.png
subject-03,1,743,0.751470804214478,knife,knife,0,0743_s5n_s03_0_knife_00_knife1-chair1.png
subject-03,1,744,0.506018877029419,cat,cat,0,0744_s5n_s03_0_cat_00_cat4-dog3.png
subject-03,1,745,0.613100051879883,chair,chair,0,0745_s5n_s03_0_chair_00_chair1-clock2.png
subject-03,1,746,0.526396989822388,cat,cat,0,0746_s5n_s03_0_cat_00_cat7-dog3.png
subject-03,1,747,0.734281063079834,truck,truck,0,0747_s5n_s03_0_truck_00_truck10-car3.png
subject-03,1,748,0.719949960708618,bottle,bottle,0,0748_s5n_s03_0_bottle_00_bottle3-boat3.png
subject-03,1,749,0.836277961730957,bird,airplane,0,0749_s5n_s03_0_airplane_00_airplane7-boat2.png
subject-03,1,750,0.958020925521851,airplane,airplane,0,0750_s5n_s03_0_airplane_00_airplane9-airplane2.png
subject-03,1,751,0.635618925094604,keyboard,keyboard,0,0751_s5n_s03_0_keyboard_00_keyboard5-bear3.png
subject-03,1,752,0.751375198364258,bird,bird,0,0752_s5n_s03_0_bird_00_bird5-truck2.png
subject-03,1,753,0.712631940841675,car,car,0,0753_s5n_s03_0_car_00_car10-elephant2.png
subject-03,1,754,0.574326038360596,oven,oven,0,0754_s5n_s03_0_oven_00_oven7-clock2.png
subject-03,1,755,0.650758981704712,boat,boat,0,0755_s5n_s03_0_boat_00_boat9-dog2.png
subject-03,1,756,0.699542045593262,chair,chair,0,0756_s5n_s03_0_chair_00_chair10-cat1.png
subject-03,1,757,0.616266965866089,chair,chair,0,0757_s5n_s03_0_chair_00_chair2-knife1.png
subject-03,1,758,0.532671928405762,bear,bear,0,0758_s5n_s03_0_bear_00_bear7-dog3.png
subject-03,1,759,0.777930974960327,bird,bird,0,0759_s5n_s03_0_bird_00_bird6-truck2.png
subject-03,1,760,0.610114812850952,bicycle,bicycle,0,0760_s5n_s03_0_bicycle_00_bicycle4-keyboard3.png
subject-03,1,761,0.826267957687378,bird,airplane,0,0761_s5n_s03_0_airplane_00_airplane8-elephant3.png
subject-03,1,762,0.733552932739258,bird,bird,0,0762_s5n_s03_0_bird_00_bird9-chair1.png
subject-03,1,763,0.579680204391479,knife,knife,0,0763_s5n_s03_0_knife_00_knife8-car2.png
subject-03,1,764,0.812253952026367,bicycle,bicycle,0,0764_s5n_s03_0_bicycle_00_bicycle3-elephant2.png
subject-03,1,765,0.720103025436401,knife,oven,0,0765_s5n_s03_0_oven_00_oven8-keyboard3.png
subject-03,1,766,0.71215295791626,oven,chair,0,0766_s5n_s03_0_chair_00_chair4-keyboard2.png
subject-03,1,767,0.582304000854492,bottle,bottle,0,0767_s5n_s03_0_bottle_00_bottle2-elephant1.png
subject-03,1,768,0.659778833389282,oven,oven,0,0768_s5n_s03_0_oven_00_oven6-bird1.png
subject-03,1,769,0.815049886703491,chair,chair,0,0769_s5n_s03_0_chair_00_chair8-knife2.png
subject-03,1,770,0.506716012954712,bicycle,bicycle,0,0770_s5n_s03_0_bicycle_00_bicycle6-airplane2.png
subject-03,1,771,0.846583127975464,cat,boat,0,0771_s5n_s03_0_boat_00_boat6-clock2.png
subject-03,1,772,0.484899044036865,clock,clock,0,0772_s5n_s03_0_clock_00_clock9-cat1.png
subject-03,1,773,1.17858099937439,boat,boat,0,0773_s5n_s03_0_boat_00_boat9-airplane2.png
subject-03,1,774,0.648239135742188,clock,boat,0,0774_s5n_s03_0_boat_00_boat3-dog3.png
subject-03,1,775,0.823990106582642,bicycle,bicycle,0,0775_s5n_s03_0_bicycle_00_bicycle1-bird1.png
subject-03,1,776,0.711239814758301,dog,dog,0,0776_s5n_s03_0_dog_00_dog6-truck2.png
subject-03,1,777,0.675899982452393,bird,cat,0,0777_s5n_s03_0_cat_00_cat10-keyboard1.png
subject-03,1,778,0.630519151687622,bear,bear,0,0778_s5n_s03_0_bear_00_bear3-chair2.png
subject-03,1,779,0.552067995071411,oven,oven,0,0779_s5n_s03_0_oven_00_oven7-keyboard1.png
subject-03,1,780,0.536979913711548,bottle,bottle,0,0780_s5n_s03_0_bottle_00_bottle10-clock2.png
subject-03,1,781,0.713261842727661,truck,truck,0,0781_s5n_s03_0_truck_00_truck6-cat2.png
subject-03,1,782,0.653424978256226,bear,bear,0,0782_s5n_s03_0_bear_00_bear2-keyboard2.png
subject-03,1,783,0.637027025222778,bird,bird,0,0783_s5n_s03_0_bird_00_bird1-chair2.png
subject-03,1,784,0.567957162857056,boat,boat,0,0784_s5n_s03_0_boat_00_boat9-keyboard2.png
subject-03,1,785,0.852161884307861,bicycle,dog,0,0785_s5n_s03_0_dog_00_dog7-oven2.png
subject-03,1,786,0.660244941711426,cat,boat,0,0786_s5n_s03_0_boat_00_boat7-keyboard3.png
subject-03,1,787,0.454200983047485,clock,clock,0,0787_s5n_s03_0_clock_00_clock8-knife1.png
subject-03,1,788,0.483821868896484,oven,oven,0,0788_s5n_s03_0_oven_00_oven10-airplane2.png
subject-03,1,789,0.715766906738281,truck,truck,0,0789_s5n_s03_0_truck_00_truck2-chair1.png
subject-03,1,790,0.608259916305542,elephant,elephant,0,0790_s5n_s03_0_elephant_00_elephant8-cat1.png
subject-03,1,791,0.693942070007324,oven,car,0,0791_s5n_s03_0_car_00_car1-oven3.png
subject-03,1,792,0.72392201423645,knife,knife,0,0792_s5n_s03_0_knife_00_knife10-keyboard3.png
subject-03,1,793,0.907027006149292,oven,oven,0,0793_s5n_s03_0_oven_00_oven3-clock3.png
subject-03,1,794,0.415210962295532,cat,cat,0,0794_s5n_s03_0_cat_00_cat9-truck1.png
subject-03,1,795,0.638417959213257,car,car,0,0795_s5n_s03_0_car_00_car8-bear1.png
subject-03,1,796,0.601123094558716,chair,chair,0,0796_s5n_s03_0_chair_00_chair8-oven1.png
subject-03,1,797,0.630928039550781,boat,boat,0,0797_s5n_s03_0_boat_00_boat5-knife2.png
subject-03,1,798,0.511466979980469,chair,chair,0,0798_s5n_s03_0_chair_00_chair3-bottle3.png
subject-03,1,799,0.565880060195923,bicycle,bicycle,0,0799_s5n_s03_0_bicycle_00_bicycle7-truck3.png
subject-03,1,800,0.790289163589478,airplane,airplane,0,0800_s5n_s03_0_airplane_00_airplane10-bear3.png
subject-03,1,801,0.604335784912109,bird,boat,0,0801_s5n_s03_0_boat_00_boat6-cat1.png
subject-03,1,802,0.66562294960022,bottle,bottle,0,0802_s5n_s03_0_bottle_00_bottle6-chair2.png
subject-03,1,803,0.559338092803955,cat,cat,0,0803_s5n_s03_0_cat_00_cat5-airplane2.png
subject-03,1,804,0.843462944030762,elephant,elephant,0,0804_s5n_s03_0_elephant_00_elephant9-dog3.png
subject-03,1,805,0.55259108543396,car,car,0,0805_s5n_s03_0_car_00_car6-boat1.png
subject-03,1,806,0.721763134002686,knife,knife,0,0806_s5n_s03_0_knife_00_knife9-boat1.png
subject-03,1,807,0.584002017974854,truck,truck,0,0807_s5n_s03_0_truck_00_truck1-chair2.png
subject-03,1,808,0.621459007263184,bicycle,bicycle,0,0808_s5n_s03_0_bicycle_00_bicycle4-car2.png
subject-03,1,809,0.754012107849121,bicycle,bicycle,0,0809_s5n_s03_0_bicycle_00_bicycle5-bottle3.png
subject-03,1,810,0.586254835128784,oven,oven,0,0810_s5n_s03_0_oven_00_oven10-oven3.png
subject-03,1,811,0.586053133010864,keyboard,keyboard,0,0811_s5n_s03_0_keyboard_00_keyboard10-truck1.png
subject-03,1,812,0.69378399848938,cat,cat,0,0812_s5n_s03_0_cat_00_cat1-dog1.png
subject-03,1,813,0.664188861846924,elephant,elephant,0,0813_s5n_s03_0_elephant_00_elephant7-bottle3.png
subject-03,1,814,0.63990592956543,truck,truck,0,0814_s5n_s03_0_truck_00_truck4-oven2.png
subject-03,1,815,0.725759983062744,bear,bear,0,0815_s5n_s03_0_bear_00_bear8-truck3.png
subject-03,1,816,0.617553949356079,bottle,bottle,0,0816_s5n_s03_0_bottle_00_bottle6-dog3.png
subject-03,1,817,0.701941967010498,elephant,elephant,0,0817_s5n_s03_0_elephant_00_elephant1-dog2.png
subject-03,1,818,0.607673168182373,bicycle,bicycle,0,0818_s5n_s03_0_bicycle_00_bicycle5-elephant1.png
subject-03,1,819,1.49134111404419,bird,bird,0,0819_s5n_s03_0_bird_00_bird3-bird2.png
subject-03,1,820,0.515861988067627,bird,bird,0,0820_s5n_s03_0_bird_00_bird3-cat1.png
subject-03,1,821,0.631616830825806,dog,dog,0,0821_s5n_s03_0_dog_00_dog8-bottle2.png
subject-03,1,822,0.723542928695679,elephant,elephant,0,0822_s5n_s03_0_elephant_00_elephant1-boat2.png
subject-03,1,823,0.515069007873535,cat,cat,0,0823_s5n_s03_0_cat_00_cat4-cat3.png
subject-03,1,824,0.468871116638184,clock,clock,0,0824_s5n_s03_0_clock_00_clock5-oven1.png
subject-03,1,825,0.470304012298584,cat,cat,0,0825_s5n_s03_0_cat_00_cat10-bear1.png
subject-03,1,826,0.609344959259033,elephant,elephant,0,0826_s5n_s03_0_elephant_00_elephant9-clock3.png
subject-03,1,827,0.786303043365479,dog,elephant,0,0827_s5n_s03_0_elephant_00_elephant2-keyboard3.png
subject-03,1,828,0.753722906112671,bear,bear,0,0828_s5n_s03_0_bear_00_bear5-chair1.png
subject-03,1,829,0.964838027954102,bicycle,bicycle,0,0829_s5n_s03_0_bicycle_00_bicycle2-knife2.png
subject-03,1,830,0.580746173858643,keyboard,keyboard,0,0830_s5n_s03_0_keyboard_00_keyboard9-bear2.png
subject-03,1,831,0.888083934783936,keyboard,keyboard,0,0831_s5n_s03_0_keyboard_00_keyboard1-airplane2.png
subject-03,1,832,0.646770000457764,truck,truck,0,0832_s5n_s03_0_truck_00_truck4-bottle2.png
subject-03,1,833,0.608428001403809,oven,oven,0,0833_s5n_s03_0_oven_00_oven3-knife1.png
subject-03,1,834,0.562382221221924,boat,boat,0,0834_s5n_s03_0_boat_00_boat9-chair2.png
subject-03,1,835,0.661386966705322,bird,bird,0,0835_s5n_s03_0_bird_00_bird5-bear3.png
subject-03,1,836,0.545488834381104,cat,cat,0,0836_s5n_s03_0_cat_00_cat3-cat1.png
subject-03,1,837,0.493341207504272,oven,oven,0,0837_s5n_s03_0_oven_00_oven2-car1.png
subject-03,1,838,0.752899885177612,chair,chair,0,0838_s5n_s03_0_chair_00_chair7-clock3.png
subject-03,1,839,0.57662296295166,boat,boat,0,0839_s5n_s03_0_boat_00_boat6-car1.png
subject-03,1,840,0.654288053512573,clock,clock,0,0840_s5n_s03_0_clock_00_clock1-boat3.png
subject-03,1,841,0.646790981292725,car,car,0,0841_s5n_s03_0_car_00_car9-knife1.png
subject-03,1,842,0.725246906280518,airplane,airplane,0,0842_s5n_s03_0_airplane_00_airplane5-bicycle1.png
subject-03,1,843,0.586261987686157,cat,bird,0,0843_s5n_s03_0_bird_00_bird1-truck1.png
subject-03,1,844,0.992188930511475,knife,keyboard,0,0844_s5n_s03_0_keyboard_00_keyboard2-elephant1.png
subject-03,1,845,0.640184879302979,clock,clock,0,0845_s5n_s03_0_clock_00_clock9-airplane1.png
subject-03,1,846,0.556565999984741,truck,truck,0,0846_s5n_s03_0_truck_00_truck2-oven3.png
subject-03,1,847,0.756041049957275,truck,truck,0,0847_s5n_s03_0_truck_00_truck8-bottle2.png
subject-03,1,848,0.734647989273071,bird,bird,0,0848_s5n_s03_0_bird_00_bird5-cat2.png
subject-03,1,849,0.656893968582153,keyboard,keyboard,0,0849_s5n_s03_0_keyboard_00_keyboard8-cat3.png
subject-03,1,850,0.580649137496948,clock,clock,0,0850_s5n_s03_0_clock_00_clock1-truck3.png
subject-03,1,851,0.496050834655762,oven,oven,0,0851_s5n_s03_0_oven_00_oven2-dog3.png
subject-03,1,852,0.650585889816284,elephant,elephant,0,0852_s5n_s03_0_elephant_00_elephant3-truck1.png
subject-03,1,853,0.750687837600708,bottle,bottle,0,0853_s5n_s03_0_bottle_00_bottle4-oven2.png
subject-03,1,854,0.752526044845581,bottle,bottle,0,0854_s5n_s03_0_bottle_00_bottle1-bird3.png
subject-03,1,855,0.973489999771118,elephant,elephant,0,0855_s5n_s03_0_elephant_00_elephant2-bear3.png
subject-03,1,856,0.722330808639526,chair,chair,0,0856_s5n_s03_0_chair_00_chair9-dog2.png
subject-03,1,857,0.773972034454346,elephant,elephant,0,0857_s5n_s03_0_elephant_00_elephant7-bird1.png
subject-03,1,858,0.573698043823242,clock,clock,0,0858_s5n_s03_0_clock_00_clock10-oven2.png
subject-03,1,859,0.514053106307983,bird,bird,0,0859_s5n_s03_0_bird_00_bird8-chair1.png
subject-03,1,860,0.637139081954956,cat,cat,0,0860_s5n_s03_0_cat_00_cat10-bird2.png
subject-03,1,861,0.582901000976562,bicycle,bicycle,0,0861_s5n_s03_0_bicycle_00_bicycle8-boat1.png
subject-03,1,862,0.719960927963257,car,car,0,0862_s5n_s03_0_car_00_car3-elephant3.png
subject-03,1,863,0.674151182174683,clock,clock,0,0863_s5n_s03_0_clock_00_clock5-chair3.png
subject-03,1,864,0.644447088241577,bear,bear,0,0864_s5n_s03_0_bear_00_bear4-oven2.png
subject-03,1,865,0.619976043701172,cat,cat,0,0865_s5n_s03_0_cat_00_cat1-bird1.png
subject-03,1,866,0.743674039840698,knife,knife,0,0866_s5n_s03_0_knife_00_knife6-oven3.png
subject-03,1,867,0.542979955673218,bottle,bottle,0,0867_s5n_s03_0_bottle_00_bottle4-dog2.png
subject-03,1,868,0.651458024978638,knife,knife,0,0868_s5n_s03_0_knife_00_knife1-elephant1.png
subject-03,1,869,0.580910921096802,keyboard,keyboard,0,0869_s5n_s03_0_keyboard_00_keyboard7-bottle1.png
subject-03,1,870,0.478403091430664,cat,cat,0,0870_s5n_s03_0_cat_00_cat1-chair2.png
subject-03,1,871,0.6873459815979,truck,truck,0,0871_s5n_s03_0_truck_00_truck5-keyboard1.png
subject-03,1,872,0.570605993270874,bottle,bottle,0,0872_s5n_s03_0_bottle_00_bottle5-cat1.png
subject-03,1,873,0.635397911071777,bear,bear,0,0873_s5n_s03_0_bear_00_bear2-elephant1.png
subject-03,1,874,0.635273933410645,airplane,airplane,0,0874_s5n_s03_0_airplane_00_airplane8-clock2.png
subject-03,1,875,0.781929969787598,clock,clock,0,0875_s5n_s03_0_clock_00_clock4-knife1.png
subject-03,1,876,0.805699110031128,knife,knife,0,0876_s5n_s03_0_knife_00_knife2-cat3.png
subject-03,1,877,1.12702393531799,bicycle,bicycle,0,0877_s5n_s03_0_bicycle_00_bicycle4-oven3.png
subject-03,1,878,0.505200147628784,cat,cat,0,0878_s5n_s03_0_cat_00_cat3-truck3.png
subject-03,1,879,0.629127025604248,chair,chair,0,0879_s5n_s03_0_chair_00_chair6-dog1.png
subject-03,1,880,0.659241914749146,truck,truck,0,0880_s5n_s03_0_truck_00_truck7-bird2.png
subject-03,1,881,0.928229093551636,bird,bird,0,0881_s5n_s03_0_bird_00_bird8-clock1.png
subject-03,1,882,0.566731929779053,bicycle,bicycle,0,0882_s5n_s03_0_bicycle_00_bicycle8-clock3.png
subject-03,1,883,0.666545867919922,truck,truck,0,0883_s5n_s03_0_truck_00_truck3-bird2.png
subject-03,1,884,0.596312046051025,bird,bird,0,0884_s5n_s03_0_bird_00_bird8-boat3.png
subject-03,1,885,0.70380711555481,oven,knife,0,0885_s5n_s03_0_knife_00_knife3-keyboard3.png
subject-03,1,886,0.728455781936646,airplane,airplane,0,0886_s5n_s03_0_airplane_00_airplane2-bird3.png
subject-03,1,887,0.589891910552979,truck,truck,0,0887_s5n_s03_0_truck_00_truck6-bear2.png
subject-03,1,888,0.814014196395874,car,car,0,0888_s5n_s03_0_car_00_car2-car3.png
subject-03,1,889,0.546151161193848,dog,dog,0,0889_s5n_s03_0_dog_00_dog6-clock1.png
subject-03,1,890,0.614480972290039,bottle,bottle,0,0890_s5n_s03_0_bottle_00_bottle8-elephant3.png
subject-03,1,891,0.654766082763672,bottle,bottle,0,0891_s5n_s03_0_bottle_00_bottle5-elephant1.png
subject-03,1,892,0.754277944564819,elephant,elephant,0,0892_s5n_s03_0_elephant_00_elephant4-oven1.png
subject-03,1,893,0.954319953918457,oven,oven,0,0893_s5n_s03_0_oven_00_oven2-bear3.png
subject-03,1,894,0.653219938278198,bottle,bottle,0,0894_s5n_s03_0_bottle_00_bottle6-airplane1.png
subject-03,1,895,0.644830942153931,airplane,airplane,0,0895_s5n_s03_0_airplane_00_airplane5-bottle3.png
subject-03,1,896,1.0235550403595,bird,bird,0,0896_s5n_s03_0_bird_00_bird5-oven3.png
subject-03,1,897,0.585119009017944,bottle,bottle,0,0897_s5n_s03_0_bottle_00_bottle6-bear2.png
subject-03,1,898,0.617053985595703,bear,bear,0,0898_s5n_s03_0_bear_00_bear1-airplane3.png
subject-03,1,899,0.704533100128174,dog,dog,0,0899_s5n_s03_0_dog_00_dog2-airplane2.png
subject-03,1,900,0.61214804649353,cat,bear,0,0900_s5n_s03_0_bear_00_bear6-bottle3.png
subject-03,1,901,0.958714962005615,keyboard,keyboard,0,0901_s5n_s03_0_keyboard_00_keyboard1-bear2.png
subject-03,1,902,0.987792015075684,elephant,car,0,0902_s5n_s03_0_car_00_car1-dog2.png
subject-03,1,903,0.549192905426025,bicycle,bicycle,0,0903_s5n_s03_0_bicycle_00_bicycle10-clock2.png
subject-03,1,904,0.627639055252075,elephant,elephant,0,0904_s5n_s03_0_elephant_00_elephant3-cat2.png
subject-03,1,905,0.705790042877197,keyboard,boat,0,0905_s5n_s03_0_boat_00_boat1-bicycle2.png
subject-03,1,906,0.743364095687866,keyboard,keyboard,0,0906_s5n_s03_0_keyboard_00_keyboard1-car3.png
subject-03,1,907,0.927730083465576,knife,boat,0,0907_s5n_s03_0_boat_00_boat4-boat3.png
subject-03,1,908,0.697444915771484,boat,boat,0,0908_s5n_s03_0_boat_00_boat10-cat1.png
subject-03,1,909,0.789039134979248,chair,chair,0,0909_s5n_s03_0_chair_00_chair9-keyboard2.png
subject-03,1,910,0.637604951858521,truck,truck,0,0910_s5n_s03_0_truck_00_truck3-chair2.png
subject-03,1,911,0.636858940124512,cat,cat,0,0911_s5n_s03_0_cat_00_cat5-car2.png
subject-03,1,912,0.568596839904785,cat,cat,0,0912_s5n_s03_0_cat_00_cat10-bicycle1.png
subject-03,1,913,0.819634914398193,knife,boat,0,0913_s5n_s03_0_boat_00_boat2-bear3.png
subject-03,1,914,0.589439868927002,chair,chair,0,0914_s5n_s03_0_chair_00_chair8-bicycle3.png
subject-03,1,915,0.659197092056274,bicycle,bicycle,0,0915_s5n_s03_0_bicycle_00_bicycle9-cat3.png
subject-03,1,916,0.537506103515625,bird,bird,0,0916_s5n_s03_0_bird_00_bird5-car2.png
subject-03,1,917,0.583549022674561,bicycle,bicycle,0,0917_s5n_s03_0_bicycle_00_bicycle6-bicycle3.png
subject-03,1,918,0.799134969711304,bird,bear,0,0918_s5n_s03_0_bear_00_bear6-car2.png
subject-03,1,919,0.790914058685303,airplane,airplane,0,0919_s5n_s03_0_airplane_00_airplane1-elephant1.png
subject-03,1,920,0.682887077331543,elephant,elephant,0,0920_s5n_s03_0_elephant_00_elephant2-boat1.png
subject-03,1,921,0.590525150299072,bottle,bottle,0,0921_s5n_s03_0_bottle_00_bottle4-truck1.png
subject-03,1,922,0.852789878845215,bear,bear,0,0922_s5n_s03_0_bear_00_bear10-cat2.png
subject-03,1,923,0.681654930114746,car,car,0,0923_s5n_s03_0_car_00_car4-boat1.png
subject-03,1,924,0.598044872283936,bird,bird,0,0924_s5n_s03_0_bird_00_bird5-keyboard2.png
subject-03,1,925,0.571158885955811,bear,bear,0,0925_s5n_s03_0_bear_00_bear1-bear3.png
subject-03,1,926,0.679495811462402,elephant,elephant,0,0926_s5n_s03_0_elephant_00_elephant1-airplane2.png
subject-03,1,927,0.570842981338501,clock,clock,0,0927_s5n_s03_0_clock_00_clock7-bear2.png
subject-03,1,928,0.507802963256836,oven,oven,0,0928_s5n_s03_0_oven_00_oven3-truck1.png
subject-03,1,929,0.707305908203125,bear,elephant,0,0929_s5n_s03_0_elephant_00_elephant4-boat3.png
subject-03,1,930,0.798727035522461,airplane,airplane,0,0930_s5n_s03_0_airplane_00_airplane6-knife1.png
subject-03,1,931,1.03835201263428,knife,keyboard,0,0931_s5n_s03_0_keyboard_00_keyboard3-elephant2.png
subject-03,1,932,0.998625993728638,airplane,airplane,0,0932_s5n_s03_0_airplane_00_airplane7-car1.png
subject-03,1,933,0.830302000045776,bird,boat,0,0933_s5n_s03_0_boat_00_boat8-bird2.png
subject-03,1,934,0.614265918731689,bottle,dog,0,0934_s5n_s03_0_dog_00_dog2-bottle2.png
subject-03,1,935,1.02179193496704,knife,knife,0,0935_s5n_s03_0_knife_00_knife7-elephant2.png
subject-03,1,936,0.64522385597229,cat,elephant,0,0936_s5n_s03_0_elephant_00_elephant2-cat1.png
subject-03,1,937,0.728649854660034,bird,bird,0,0937_s5n_s03_0_bird_00_bird4-clock1.png
subject-03,1,938,0.60691499710083,cat,cat,0,0938_s5n_s03_0_cat_00_cat10-bottle1.png
subject-03,1,939,0.484847068786621,clock,clock,0,0939_s5n_s03_0_clock_00_clock5-airplane1.png
subject-03,1,940,0.553042888641357,bottle,bottle,0,0940_s5n_s03_0_bottle_00_bottle6-bottle3.png
subject-03,1,941,0.82243800163269,chair,chair,0,0941_s5n_s03_0_chair_00_chair10-bicycle1.png
subject-03,1,942,0.676990032196045,car,truck,0,0942_s5n_s03_0_truck_00_truck6-dog2.png
subject-03,1,943,0.717298030853271,knife,knife,0,0943_s5n_s03_0_knife_00_knife4-knife2.png
subject-03,1,944,0.808799028396606,elephant,elephant,0,0944_s5n_s03_0_elephant_00_elephant5-car1.png
subject-03,1,945,0.584101915359497,bear,bear,0,0945_s5n_s03_0_bear_00_bear9-knife2.png
subject-03,1,946,0.8626868724823,airplane,airplane,0,0946_s5n_s03_0_airplane_00_airplane7-bird3.png
subject-03,1,947,0.770282030105591,knife,knife,0,0947_s5n_s03_0_knife_00_knife7-chair2.png
subject-03,1,948,0.685483932495117,car,car,0,0948_s5n_s03_0_car_00_car4-oven2.png
subject-03,1,949,0.624317169189453,boat,boat,0,0949_s5n_s03_0_boat_00_boat9-bear3.png
subject-03,1,950,0.68599009513855,elephant,elephant,0,0950_s5n_s03_0_elephant_00_elephant1-bottle1.png
subject-03,1,951,0.594113826751709,bear,bear,0,0951_s5n_s03_0_bear_00_bear8-bear1.png
subject-03,1,952,1.17961382865906,oven,oven,0,0952_s5n_s03_0_oven_00_oven7-cat1.png
subject-03,1,953,0.501756906509399,bicycle,bicycle,0,0953_s5n_s03_0_bicycle_00_bicycle1-airplane2.png
subject-03,1,954,1.02533578872681,knife,knife,0,0954_s5n_s03_0_knife_00_knife4-keyboard1.png
subject-03,1,955,0.570979118347168,clock,clock,0,0955_s5n_s03_0_clock_00_clock6-clock2.png
subject-03,1,956,0.516041040420532,oven,oven,0,0956_s5n_s03_0_oven_00_oven5-dog3.png
subject-03,1,957,0.607842922210693,boat,boat,0,0957_s5n_s03_0_boat_00_boat2-oven3.png
subject-03,1,958,0.878675937652588,bear,bear,0,0958_s5n_s03_0_bear_00_bear4-elephant2.png
subject-03,1,959,0.678743124008179,truck,truck,0,0959_s5n_s03_0_truck_00_truck10-airplane1.png
subject-03,1,960,0.572043180465698,cat,cat,0,0960_s5n_s03_0_cat_00_cat5-boat1.png
subject-03,1,961,0.680879831314087,cat,dog,0,0961_s5n_s03_0_dog_00_dog4-keyboard2.png
subject-03,1,962,0.504629850387573,oven,oven,0,0962_s5n_s03_0_oven_00_oven5-bicycle1.png
subject-03,1,963,0.618322134017944,keyboard,keyboard,0,0963_s5n_s03_0_keyboard_00_keyboard6-boat2.png
subject-03,1,964,0.579962968826294,bottle,bottle,0,0964_s5n_s03_0_bottle_00_bottle8-knife1.png
subject-03,1,965,0.703933000564575,bottle,bottle,0,0965_s5n_s03_0_bottle_00_bottle1-clock1.png
subject-03,1,966,0.771232843399048,bird,bird,0,0966_s5n_s03_0_bird_00_bird9-bicycle3.png
subject-03,1,967,0.579653978347778,bottle,bottle,0,0967_s5n_s03_0_bottle_00_bottle2-clock1.png
subject-03,1,968,0.73232102394104,boat,knife,0,0968_s5n_s03_0_knife_00_knife2-truck2.png
subject-03,1,969,0.556178092956543,boat,boat,0,0969_s5n_s03_0_boat_00_boat4-car3.png
subject-03,1,970,0.710198879241943,bear,bear,0,0970_s5n_s03_0_bear_00_bear7-truck1.png
subject-03,1,971,0.665555953979492,dog,dog,0,0971_s5n_s03_0_dog_00_dog6-elephant2.png
subject-03,1,972,0.611475944519043,boat,boat,0,0972_s5n_s03_0_boat_00_boat1-bird3.png
subject-03,1,973,0.550981998443604,cat,boat,0,0973_s5n_s03_0_boat_00_boat7-cat3.png
subject-03,1,974,0.858837127685547,knife,knife,0,0974_s5n_s03_0_knife_00_knife2-car3.png
subject-03,1,975,0.997383117675781,bicycle,bicycle,0,0975_s5n_s03_0_bicycle_00_bicycle8-bird2.png
subject-03,1,976,0.928925037384033,knife,knife,0,0976_s5n_s03_0_knife_00_knife10-oven3.png
subject-03,1,977,0.590670108795166,car,car,0,0977_s5n_s03_0_car_00_car6-bear1.png
subject-03,1,978,0.590289831161499,truck,truck,0,0978_s5n_s03_0_truck_00_truck2-bird2.png
subject-03,1,979,1.00400400161743,truck,truck,0,0979_s5n_s03_0_truck_00_truck9-elephant1.png
subject-03,1,980,0.660127878189087,elephant,elephant,0,0980_s5n_s03_0_elephant_00_elephant8-oven3.png
subject-03,1,981,0.598133087158203,bottle,bottle,0,0981_s5n_s03_0_bottle_00_bottle9-truck1.png
subject-03,1,982,0.851976871490479,bird,bird,0,0982_s5n_s03_0_bird_00_bird2-clock3.png
subject-03,1,983,0.797829151153564,bear,elephant,0,0983_s5n_s03_0_elephant_00_elephant6-bird1.png
subject-03,1,984,0.597764015197754,clock,clock,0,0984_s5n_s03_0_clock_00_clock10-bottle1.png
subject-03,1,985,0.65081000328064,truck,truck,0,0985_s5n_s03_0_truck_00_truck2-clock1.png
subject-03,1,986,0.751137018203735,car,dog,0,0986_s5n_s03_0_dog_00_dog4-truck2.png
subject-03,1,987,0.704561948776245,oven,oven,0,0987_s5n_s03_0_oven_00_oven8-cat3.png
subject-03,1,988,0.533874034881592,car,car,0,0988_s5n_s03_0_car_00_car10-car1.png
subject-03,1,989,0.819992065429688,knife,knife,0,0989_s5n_s03_0_knife_00_knife5-cat2.png
subject-03,1,990,0.642236948013306,clock,clock,0,0990_s5n_s03_0_clock_00_clock9-chair3.png
subject-03,1,991,0.603229999542236,airplane,airplane,0,0991_s5n_s03_0_airplane_00_airplane1-bicycle2.png
subject-03,1,992,0.519117832183838,bird,bird,0,0992_s5n_s03_0_bird_00_bird4-cat3.png
subject-03,1,993,0.460964918136597,clock,clock,0,0993_s5n_s03_0_clock_00_clock6-oven1.png
subject-03,1,994,0.676354885101318,truck,truck,0,0994_s5n_s03_0_truck_00_truck9-chair3.png
subject-03,1,995,0.868268013000488,bird,dog,0,0995_s5n_s03_0_dog_00_dog9-bicycle3.png
subject-03,1,996,0.498543977737427,bicycle,bicycle,0,0996_s5n_s03_0_bicycle_00_bicycle5-cat1.png
subject-03,1,997,0.660317182540894,clock,clock,0,0997_s5n_s03_0_clock_00_clock1-elephant2.png
subject-03,1,998,0.543462038040161,bird,airplane,0,0998_s5n_s03_0_airplane_00_airplane4-cat3.png
subject-03,1,999,0.543432950973511,keyboard,keyboard,0,0999_s5n_s03_0_keyboard_00_keyboard10-boat2.png
subject-03,1,1000,0.589440822601318,truck,cat,0,1000_s5n_s03_0_cat_00_cat3-oven2.png
subject-03,1,1001,0.745177984237671,bear,bear,0,1001_s5n_s03_0_bear_00_bear10-bear2.png
subject-03,1,1002,0.899250984191895,knife,knife,0,1002_s5n_s03_0_knife_00_knife6-bicycle1.png
subject-03,1,1003,0.478039979934692,cat,cat,0,1003_s5n_s03_0_cat_00_cat4-clock2.png
subject-03,1,1004,0.554636001586914,bottle,bottle,0,1004_s5n_s03_0_bottle_00_bottle2-knife3.png
subject-03,1,1005,0.549046993255615,boat,boat,0,1005_s5n_s03_0_boat_00_boat1-truck3.png
subject-03,1,1006,0.487048149108887,bicycle,bicycle,0,1006_s5n_s03_0_bicycle_00_bicycle9-car1.png
subject-03,1,1007,0.803108930587769,knife,knife,0,1007_s5n_s03_0_knife_00_knife5-keyboard3.png
subject-03,1,1008,0.649118185043335,oven,oven,0,1008_s5n_s03_0_oven_00_oven7-elephant1.png
subject-03,1,1009,0.556896924972534,chair,chair,0,1009_s5n_s03_0_chair_00_chair9-boat2.png
subject-03,1,1010,0.497044801712036,bicycle,bicycle,0,1010_s5n_s03_0_bicycle_00_bicycle3-oven3.png
subject-03,1,1011,0.580754995346069,chair,chair,0,1011_s5n_s03_0_chair_00_chair10-clock1.png
subject-03,1,1012,0.550723075866699,bottle,bottle,0,1012_s5n_s03_0_bottle_00_bottle2-car2.png
subject-03,1,1013,0.549991130828857,dog,dog,0,1013_s5n_s03_0_dog_00_dog1-airplane3.png
subject-03,1,1014,0.557692050933838,car,car,0,1014_s5n_s03_0_car_00_car3-oven3.png
subject-03,1,1015,0.787533044815063,keyboard,keyboard,0,1015_s5n_s03_0_keyboard_00_keyboard3-bicycle2.png
subject-03,1,1016,0.633935928344727,cat,cat,0,1016_s5n_s03_0_cat_00_cat9-cat3.png
subject-03,1,1017,0.84198784828186,elephant,elephant,0,1017_s5n_s03_0_elephant_00_elephant1-bear2.png
subject-03,1,1018,1.00671100616455,bicycle,bicycle,0,1018_s5n_s03_0_bicycle_00_bicycle7-knife2.png
subject-03,1,1019,0.598504066467285,clock,clock,0,1019_s5n_s03_0_clock_00_clock7-boat3.png
subject-03,1,1020,0.41444206237793,cat,cat,0,1020_s5n_s03_0_cat_00_cat2-knife3.png
subject-03,1,1021,0.63919997215271,truck,truck,0,1021_s5n_s03_0_truck_00_truck6-bottle3.png
subject-03,1,1022,0.730669021606445,knife,knife,0,1022_s5n_s03_0_knife_00_knife4-car2.png
subject-03,1,1023,0.568191051483154,car,car,0,1023_s5n_s03_0_car_00_car4-bicycle3.png
subject-03,1,1024,0.643956184387207,car,car,0,1024_s5n_s03_0_car_00_car5-keyboard3.png
subject-03,1,1025,0.626118898391724,oven,oven,0,1025_s5n_s03_0_oven_00_oven9-clock2.png
subject-03,1,1026,0.680147886276245,bird,bird,0,1026_s5n_s03_0_bird_00_bird7-boat1.png
subject-03,1,1027,0.717483997344971,keyboard,keyboard,0,1027_s5n_s03_0_keyboard_00_keyboard7-boat2.png
subject-03,1,1028,0.563215017318726,bear,bear,0,1028_s5n_s03_0_bear_00_bear2-bird3.png
subject-03,1,1029,0.486960887908936,bicycle,bicycle,0,1029_s5n_s03_0_bicycle_00_bicycle9-chair1.png
subject-03,1,1030,0.650219917297363,bird,boat,0,1030_s5n_s03_0_boat_00_boat6-elephant2.png
subject-03,1,1031,0.557422161102295,chair,chair,0,1031_s5n_s03_0_chair_00_chair7-bottle1.png
subject-03,1,1032,0.565582990646362,bottle,bottle,0,1032_s5n_s03_0_bottle_00_bottle1-car1.png
subject-03,1,1033,0.622639894485474,chair,chair,0,1033_s5n_s03_0_chair_00_chair7-airplane1.png
subject-03,1,1034,0.699055194854736,truck,truck,0,1034_s5n_s03_0_truck_00_truck5-cat3.png
subject-03,1,1035,0.685091018676758,keyboard,keyboard,0,1035_s5n_s03_0_keyboard_00_keyboard9-boat2.png
subject-03,1,1036,0.71727991104126,bird,bird,0,1036_s5n_s03_0_bird_00_bird7-truck2.png
subject-03,1,1037,0.709015846252441,bird,bird,0,1037_s5n_s03_0_bird_00_bird6-car3.png
subject-03,1,1038,0.622887134552002,bird,airplane,0,1038_s5n_s03_0_airplane_00_airplane8-bird1.png
subject-03,1,1039,0.646600961685181,elephant,elephant,0,1039_s5n_s03_0_elephant_00_elephant4-bicycle2.png
subject-03,1,1040,0.663900136947632,dog,dog,0,1040_s5n_s03_0_dog_00_dog9-bear3.png
subject-03,1,1041,1.16364812850952,car,car,0,1041_s5n_s03_0_car_00_car3-dog2.png
subject-03,1,1042,0.641048908233643,elephant,elephant,0,1042_s5n_s03_0_elephant_00_elephant7-clock2.png
subject-03,1,1043,0.708410024642944,cat,bottle,0,1043_s5n_s03_0_bottle_00_bottle7-cat2.png
subject-03,1,1044,0.824510097503662,bear,bear,0,1044_s5n_s03_0_bear_00_bear4-car3.png
subject-03,1,1045,0.62440299987793,cat,cat,0,1045_s5n_s03_0_cat_00_cat6-chair3.png
subject-03,1,1046,0.661872863769531,dog,dog,0,1046_s5n_s03_0_dog_00_dog1-chair1.png
subject-03,1,1047,0.470157861709595,oven,oven,0,1047_s5n_s03_0_oven_00_oven6-elephant2.png
subject-03,1,1048,0.832036972045898,cat,boat,0,1048_s5n_s03_0_boat_00_boat1-keyboard3.png
subject-03,1,1049,0.606838941574097,keyboard,keyboard,0,1049_s5n_s03_0_keyboard_00_keyboard4-truck3.png
subject-03,1,1050,0.776815891265869,knife,truck,0,1050_s5n_s03_0_truck_00_truck3-keyboard3.png
subject-03,1,1051,0.488179922103882,cat,cat,0,1051_s5n_s03_0_cat_00_cat3-bear2.png
subject-03,1,1052,0.525518894195557,oven,oven,0,1052_s5n_s03_0_oven_00_oven3-elephant3.png
subject-03,1,1053,1.26393294334412,bicycle,bicycle,0,1053_s5n_s03_0_bicycle_00_bicycle9-knife3.png
subject-03,1,1054,0.801562070846558,bear,elephant,0,1054_s5n_s03_0_elephant_00_elephant1-keyboard3.png
subject-03,1,1055,0.487746000289917,clock,clock,0,1055_s5n_s03_0_clock_00_clock10-cat1.png
subject-03,1,1056,0.52852988243103,bottle,bottle,0,1056_s5n_s03_0_bottle_00_bottle1-dog2.png
subject-03,1,1057,0.604413986206055,clock,clock,0,1057_s5n_s03_0_clock_00_clock2-dog1.png
subject-03,1,1058,0.56703782081604,keyboard,keyboard,0,1058_s5n_s03_0_keyboard_00_keyboard5-keyboard1.png
subject-03,1,1059,0.87446117401123,knife,knife,0,1059_s5n_s03_0_knife_00_knife5-clock1.png
subject-03,1,1060,0.666246175765991,knife,knife,0,1060_s5n_s03_0_knife_00_knife6-bottle3.png
subject-03,1,1061,0.849195003509521,keyboard,keyboard,0,1061_s5n_s03_0_keyboard_00_keyboard5-bottle1.png
subject-03,1,1062,0.687154054641724,knife,knife,0,1062_s5n_s03_0_knife_00_knife8-bottle3.png
subject-03,1,1063,0.864682912826538,truck,truck,0,1063_s5n_s03_0_truck_00_truck7-truck2.png
subject-03,1,1064,0.61876392364502,chair,chair,0,1064_s5n_s03_0_chair_00_chair5-keyboard2.png
subject-03,1,1065,0.556624889373779,truck,truck,0,1065_s5n_s03_0_truck_00_truck10-clock1.png
subject-03,1,1066,0.809369087219238,dog,dog,0,1066_s5n_s03_0_dog_00_dog3-truck2.png
subject-03,1,1067,0.902292013168335,bird,airplane,0,1067_s5n_s03_0_airplane_00_airplane7-keyboard1.png
subject-03,1,1068,0.463438987731934,bicycle,bicycle,0,1068_s5n_s03_0_bicycle_00_bicycle1-dog3.png
subject-03,1,1069,0.587093830108643,bird,boat,0,1069_s5n_s03_0_boat_00_boat6-truck3.png
subject-03,1,1070,0.709805965423584,bottle,bottle,0,1070_s5n_s03_0_bottle_00_bottle5-bird3.png
subject-03,1,1071,0.525300979614258,clock,clock,0,1071_s5n_s03_0_clock_00_clock4-chair1.png
subject-03,1,1072,0.586811065673828,car,car,0,1072_s5n_s03_0_car_00_car1-airplane1.png
subject-03,1,1073,0.773200035095215,truck,cat,0,1073_s5n_s03_0_cat_00_cat10-oven2.png
subject-03,1,1074,0.811184883117676,bird,bear,0,1074_s5n_s03_0_bear_00_bear10-knife2.png
subject-03,1,1075,0.526673078536987,bottle,bottle,0,1075_s5n_s03_0_bottle_00_bottle10-car1.png
subject-03,1,1076,1.18686199188232,bird,airplane,0,1076_s5n_s03_0_airplane_00_airplane2-cat1.png
subject-03,1,1077,0.680975198745728,bird,knife,0,1077_s5n_s03_0_knife_00_knife2-bicycle3.png
subject-03,1,1078,0.488687038421631,car,car,0,1078_s5n_s03_0_car_00_car2-chair1.png
subject-03,1,1079,0.572689771652222,chair,chair,0,1079_s5n_s03_0_chair_00_chair5-car1.png
subject-03,1,1080,0.734722852706909,elephant,elephant,0,1080_s5n_s03_0_elephant_00_elephant5-elephant1.png
subject-03,1,1081,0.464495897293091,car,car,0,1081_s5n_s03_0_car_00_car10-chair1.png
subject-03,1,1082,0.827056884765625,knife,knife,0,1082_s5n_s03_0_knife_00_knife5-dog1.png
subject-03,1,1083,0.572287797927856,bird,airplane,0,1083_s5n_s03_0_airplane_00_airplane4-elephant1.png
subject-03,1,1084,0.603253841400146,truck,truck,0,1084_s5n_s03_0_truck_00_truck6-boat2.png
subject-03,1,1085,0.640876054763794,bird,airplane,0,1085_s5n_s03_0_airplane_00_airplane4-bicycle2.png
subject-03,1,1086,0.641047954559326,car,car,0,1086_s5n_s03_0_car_00_car6-knife1.png
subject-03,1,1087,0.610361099243164,boat,boat,0,1087_s5n_s03_0_boat_00_boat3-airplane2.png
subject-03,1,1088,0.740972995758057,airplane,airplane,0,1088_s5n_s03_0_airplane_00_airplane5-oven3.png
subject-03,1,1089,0.786774158477783,airplane,airplane,0,1089_s5n_s03_0_airplane_00_airplane9-clock1.png
subject-03,1,1090,0.740035057067871,cat,cat,0,1090_s5n_s03_0_cat_00_cat7-boat3.png
subject-03,1,1091,0.85686206817627,bear,elephant,0,1091_s5n_s03_0_elephant_00_elephant4-clock3.png
subject-03,1,1092,0.594691038131714,elephant,elephant,0,1092_s5n_s03_0_elephant_00_elephant6-bicycle1.png
subject-03,1,1093,0.880199909210205,oven,boat,0,1093_s5n_s03_0_boat_00_boat1-oven1.png
subject-03,1,1094,0.443012952804565,boat,boat,0,1094_s5n_s03_0_boat_00_boat9-clock1.png
