subj,session,trial,rt,object_response,category,condition,imagename
subject-08,1,1,1.29922008514404,bottle,truck,0,0001_s5n_s08_0_truck_00_truck6-oven3.png
subject-08,1,2,0.712590932846069,airplane,airplane,0,0002_s5n_s08_0_airplane_00_airplane1-elephant1.png
subject-08,1,3,0.6284019947052,chair,clock,0,0003_s5n_s08_0_clock_00_clock10-knife3.png
subject-08,1,4,0.657814025878906,bottle,bottle,0,0004_s5n_s08_0_bottle_00_bottle5-chair1.png
subject-08,1,5,0.979038000106812,bicycle,bicycle,0,0005_s5n_s08_0_bicycle_00_bicycle2-bird3.png
subject-08,1,6,0.608796834945679,bottle,keyboard,0,0006_s5n_s08_0_keyboard_00_keyboard7-knife1.png
subject-08,1,7,0.56337308883667,airplane,airplane,0,0007_s5n_s08_0_airplane_00_airplane5-bear2.png
subject-08,1,8,0.900402784347534,elephant,elephant,0,0008_s5n_s08_0_elephant_00_elephant1-chair1.png
subject-08,1,9,0.684627056121826,bottle,bottle,0,0009_s5n_s08_0_bottle_00_bottle3-cat3.png
subject-08,1,10,1.13849496841431,boat,knife,0,0010_s5n_s08_0_knife_00_knife2-truck2.png
subject-08,1,11,0.914375066757202,bicycle,bicycle,0,0011_s5n_s08_0_bicycle_00_bicycle7-truck3.png
subject-08,1,12,0.898438930511475,keyboard,keyboard,0,0012_s5n_s08_0_keyboard_00_keyboard9-bicycle2.png
subject-08,1,13,0.559747219085693,cat,clock,0,0013_s5n_s08_0_clock_00_clock1-dog2.png
subject-08,1,14,0.57877516746521,cat,cat,0,0014_s5n_s08_0_cat_00_cat2-bottle3.png
subject-08,1,15,0.670504093170166,oven,dog,0,0015_s5n_s08_0_dog_00_dog2-knife3.png
subject-08,1,16,0.608129024505615,bear,bear,0,0016_s5n_s08_0_bear_00_bear10-bottle1.png
subject-08,1,17,1.01576685905457,truck,truck,0,0017_s5n_s08_0_truck_00_truck1-bicycle3.png
subject-08,1,18,1.27093696594238,bear,dog,0,0018_s5n_s08_0_dog_00_dog4-bottle2.png
subject-08,1,19,0.602360010147095,clock,clock,0,0019_s5n_s08_0_clock_00_clock7-keyboard2.png
subject-08,1,20,0.701452970504761,bear,dog,0,0020_s5n_s08_0_dog_00_dog1-knife3.png
subject-08,1,21,0.844574928283691,dog,boat,0,0021_s5n_s08_0_boat_00_boat6-knife2.png
subject-08,1,22,0.782613039016724,chair,chair,0,0022_s5n_s08_0_chair_00_chair5-keyboard2.png
subject-08,1,23,0.674156904220581,boat,knife,0,0023_s5n_s08_0_knife_00_knife1-clock2.png
subject-08,1,24,0.811895132064819,clock,clock,0,0024_s5n_s08_0_clock_00_clock5-airplane1.png
subject-08,1,25,0.711619138717651,oven,oven,0,0025_s5n_s08_0_oven_00_oven4-clock2.png
subject-08,1,26,0.665644884109497,bottle,bottle,0,0026_s5n_s08_0_bottle_00_bottle4-airplane1.png
subject-08,1,27,0.786907911300659,car,car,0,0027_s5n_s08_0_car_00_car10-elephant2.png
subject-08,1,28,1.24645781517029,bird,dog,0,0028_s5n_s08_0_dog_00_dog2-bottle2.png
subject-08,1,29,0.975942134857178,truck,truck,0,0029_s5n_s08_0_truck_00_truck2-bottle3.png
subject-08,1,30,1.50019598007202,elephant,elephant,0,0030_s5n_s08_0_elephant_00_elephant7-bottle3.png
subject-08,1,31,0.967285871505737,bottle,bottle,0,0031_s5n_s08_0_bottle_00_bottle3-bird1.png
subject-08,1,32,0.731421947479248,cat,bird,0,0032_s5n_s08_0_bird_00_bird1-elephant2.png
subject-08,1,33,0.593595027923584,clock,clock,0,0033_s5n_s08_0_clock_00_clock7-truck3.png
subject-08,1,34,0.959654092788696,cat,cat,0,0034_s5n_s08_0_cat_00_cat8-bicycle3.png
subject-08,1,35,0.51911997795105,bottle,bottle,0,0035_s5n_s08_0_bottle_00_bottle2-bottle3.png
subject-08,1,36,0.727459907531738,keyboard,keyboard,0,0036_s5n_s08_0_keyboard_00_keyboard9-truck3.png
subject-08,1,37,0.757107973098755,bicycle,bicycle,0,0037_s5n_s08_0_bicycle_00_bicycle6-boat2.png
subject-08,1,38,1.33273315429688,dog,bear,0,0038_s5n_s08_0_bear_00_bear10-keyboard3.png
subject-08,1,39,0.971399068832397,cat,cat,0,0039_s5n_s08_0_cat_00_cat9-bottle2.png
subject-08,1,40,0.713449954986572,elephant,elephant,0,0040_s5n_s08_0_elephant_00_elephant9-dog3.png
subject-08,1,41,0.858767032623291,elephant,elephant,0,0041_s5n_s08_0_elephant_00_elephant2-boat1.png
subject-08,1,42,0.743026971817017,knife,knife,0,0042_s5n_s08_0_knife_00_knife8-car2.png
subject-08,1,43,0.663661003112793,bird,boat,0,0043_s5n_s08_0_boat_00_boat3-car3.png
subject-08,1,44,0.815232992172241,oven,car,0,0044_s5n_s08_0_car_00_car4-cat3.png
subject-08,1,45,1.16143822669983,boat,boat,0,0045_s5n_s08_0_boat_00_boat1-chair3.png
subject-08,1,46,0.914469003677368,keyboard,keyboard,0,0046_s5n_s08_0_keyboard_00_keyboard2-bicycle3.png
subject-08,1,47,1.32705616950989,cat,boat,0,0047_s5n_s08_0_boat_00_boat6-bottle2.png
subject-08,1,48,0.865504026412964,keyboard,boat,0,0048_s5n_s08_0_boat_00_boat4-dog2.png
subject-08,1,49,0.749480962753296,bird,bird,0,0049_s5n_s08_0_bird_00_bird1-boat1.png
subject-08,1,50,0.986276865005493,bicycle,bicycle,0,0050_s5n_s08_0_bicycle_00_bicycle7-oven1.png
subject-08,1,51,0.747870922088623,cat,cat,0,0051_s5n_s08_0_cat_00_cat8-bird2.png
subject-08,1,52,1.41586494445801,airplane,airplane,0,0052_s5n_s08_0_airplane_00_airplane3-dog1.png
subject-08,1,53,1.05464100837708,truck,truck,0,0053_s5n_s08_0_truck_00_truck4-boat3.png
subject-08,1,54,0.816022157669067,keyboard,keyboard,0,0054_s5n_s08_0_keyboard_00_keyboard6-boat2.png
subject-08,1,55,0.908048152923584,dog,dog,0,0055_s5n_s08_0_dog_00_dog8-dog3.png
subject-08,1,56,1.0375452041626,bird,boat,0,0056_s5n_s08_0_boat_00_boat6-dog1.png
subject-08,1,57,0.676093101501465,elephant,elephant,0,0057_s5n_s08_0_elephant_00_elephant2-bear3.png
subject-08,1,58,0.66782283782959,car,car,0,0058_s5n_s08_0_car_00_car7-bird3.png
subject-08,1,59,1.00530910491943,car,car,0,0059_s5n_s08_0_car_00_car10-chair1.png
subject-08,1,60,0.789194107055664,boat,cat,0,0060_s5n_s08_0_cat_00_cat5-chair3.png
subject-08,1,61,0.688833951950073,boat,boat,0,0061_s5n_s08_0_boat_00_boat2-airplane1.png
subject-08,1,62,1.25674986839294,boat,boat,0,0062_s5n_s08_0_boat_00_boat10-cat1.png
subject-08,1,63,0.709958076477051,clock,clock,0,0063_s5n_s08_0_clock_00_clock5-bicycle1.png
subject-08,1,64,0.630520105361938,chair,chair,0,0064_s5n_s08_0_chair_00_chair10-cat1.png
subject-08,1,65,0.797942876815796,airplane,airplane,0,0065_s5n_s08_0_airplane_00_airplane10-dog3.png
subject-08,1,66,0.673327922821045,elephant,elephant,0,0066_s5n_s08_0_elephant_00_elephant1-dog2.png
subject-08,1,67,0.727153062820435,bird,bird,0,0067_s5n_s08_0_bird_00_bird9-keyboard1.png
subject-08,1,68,0.664506912231445,bear,bear,0,0068_s5n_s08_0_bear_00_bear9-dog1.png
subject-08,1,69,0.737848997116089,chair,chair,0,0069_s5n_s08_0_chair_00_chair10-dog1.png
subject-08,1,70,1.10737586021423,clock,clock,0,0070_s5n_s08_0_clock_00_clock2-knife1.png
subject-08,1,71,0.858973026275635,cat,cat,0,0071_s5n_s08_0_cat_00_cat3-cat1.png
subject-08,1,72,0.867345809936523,elephant,elephant,0,0072_s5n_s08_0_elephant_00_elephant3-chair1.png
subject-08,1,73,0.696559906005859,keyboard,keyboard,0,0073_s5n_s08_0_keyboard_00_keyboard3-cat1.png
subject-08,1,74,0.674739837646484,bottle,bottle,0,0074_s5n_s08_0_bottle_00_bottle10-dog1.png
subject-08,1,75,0.842794895172119,car,car,0,0075_s5n_s08_0_car_00_car3-bottle3.png
subject-08,1,76,0.734113931655884,bicycle,bicycle,0,0076_s5n_s08_0_bicycle_00_bicycle1-bear1.png
subject-08,1,77,0.894423007965088,airplane,knife,0,0077_s5n_s08_0_knife_00_knife10-elephant3.png
subject-08,1,78,0.848697900772095,bear,bear,0,0078_s5n_s08_0_bear_00_bear7-oven3.png
subject-08,1,79,0.81093692779541,chair,chair,0,0079_s5n_s08_0_chair_00_chair9-bear1.png
subject-08,1,80,0.940284013748169,airplane,airplane,0,0080_s5n_s08_0_airplane_00_airplane2-cat1.png
subject-08,1,81,0.837906122207642,keyboard,keyboard,0,0081_s5n_s08_0_keyboard_00_keyboard9-chair2.png
subject-08,1,82,1.27064108848572,dog,dog,0,0082_s5n_s08_0_dog_00_dog1-cat3.png
subject-08,1,83,0.513742923736572,bicycle,bicycle,0,0083_s5n_s08_0_bicycle_00_bicycle9-bottle1.png
subject-08,1,84,0.789535045623779,bicycle,bicycle,0,0084_s5n_s08_0_bicycle_00_bicycle2-dog1.png
subject-08,1,85,1.02738380432129,cat,cat,0,0085_s5n_s08_0_cat_00_cat6-keyboard3.png
subject-08,1,86,1.28674006462097,keyboard,keyboard,0,0086_s5n_s08_0_keyboard_00_keyboard7-oven2.png
subject-08,1,87,0.615906000137329,bottle,bottle,0,0087_s5n_s08_0_bottle_00_bottle8-keyboard3.png
subject-08,1,88,0.707959890365601,cat,bear,0,0088_s5n_s08_0_bear_00_bear6-cat3.png
subject-08,1,89,0.724055051803589,oven,bird,0,0089_s5n_s08_0_bird_00_bird10-elephant2.png
subject-08,1,90,0.870231151580811,oven,oven,0,0090_s5n_s08_0_oven_00_oven3-bottle3.png
subject-08,1,91,0.561996936798096,clock,clock,0,0091_s5n_s08_0_clock_00_clock10-boat2.png
subject-08,1,92,0.825409889221191,oven,oven,0,0092_s5n_s08_0_oven_00_oven2-chair1.png
subject-08,1,93,0.938812017440796,knife,keyboard,0,0093_s5n_s08_0_keyboard_00_keyboard4-bird1.png
subject-08,1,94,1.13070201873779,clock,clock,0,0094_s5n_s08_0_clock_00_clock5-oven1.png
subject-08,1,95,0.652257919311523,bear,bear,0,0095_s5n_s08_0_bear_00_bear8-airplane1.png
subject-08,1,96,1.14968991279602,truck,truck,0,0096_s5n_s08_0_truck_00_truck7-bear2.png
subject-08,1,97,0.957665920257568,oven,oven,0,0097_s5n_s08_0_oven_00_oven9-clock2.png
subject-08,1,98,0.649255990982056,bear,bear,0,0098_s5n_s08_0_bear_00_bear8-boat2.png
subject-08,1,99,0.608856916427612,chair,chair,0,0099_s5n_s08_0_chair_00_chair8-boat1.png
subject-08,1,100,0.747133016586304,chair,chair,0,0100_s5n_s08_0_chair_00_chair10-car2.png
subject-08,1,101,0.775660991668701,oven,oven,0,0101_s5n_s08_0_oven_00_oven9-airplane2.png
subject-08,1,102,0.827316999435425,dog,dog,0,0102_s5n_s08_0_dog_00_dog10-bottle1.png
subject-08,1,103,0.694703102111816,oven,oven,0,0103_s5n_s08_0_oven_00_oven2-dog3.png
subject-08,1,104,0.770024061203003,knife,knife,0,0104_s5n_s08_0_knife_00_knife7-airplane3.png
subject-08,1,105,0.861775875091553,bird,airplane,0,0105_s5n_s08_0_airplane_00_airplane10-bear3.png
subject-08,1,106,0.959414958953857,bird,bird,0,0106_s5n_s08_0_bird_00_bird5-bicycle1.png
subject-08,1,107,0.659085988998413,clock,clock,0,0107_s5n_s08_0_clock_00_clock4-boat3.png
subject-08,1,108,0.71875786781311,keyboard,keyboard,0,0108_s5n_s08_0_keyboard_00_keyboard9-boat2.png
subject-08,1,109,1.35301494598389,car,car,0,0109_s5n_s08_0_car_00_car8-cat1.png
subject-08,1,110,0.682427883148193,car,car,0,0110_s5n_s08_0_car_00_car8-knife2.png
subject-08,1,111,0.621170043945312,oven,oven,0,0111_s5n_s08_0_oven_00_oven6-truck1.png
subject-08,1,112,0.853648900985718,oven,oven,0,0112_s5n_s08_0_oven_00_oven1-clock3.png
subject-08,1,113,0.637381076812744,clock,clock,0,0113_s5n_s08_0_clock_00_clock10-dog3.png
subject-08,1,114,0.851140975952148,bicycle,bicycle,0,0114_s5n_s08_0_bicycle_00_bicycle3-keyboard1.png
subject-08,1,115,0.710993051528931,airplane,airplane,0,0115_s5n_s08_0_airplane_00_airplane7-cat3.png
subject-08,1,116,0.723850011825562,bird,bird,0,0116_s5n_s08_0_bird_00_bird2-bird2.png
subject-08,1,117,0.693919897079468,keyboard,keyboard,0,0117_s5n_s08_0_keyboard_00_keyboard9-airplane3.png
subject-08,1,118,1.09193706512451,bird,airplane,0,0118_s5n_s08_0_airplane_00_airplane4-bear3.png
subject-08,1,119,1.32978081703186,elephant,bird,0,0119_s5n_s08_0_bird_00_bird10-bear2.png
subject-08,1,120,0.905212879180908,dog,dog,0,0120_s5n_s08_0_dog_00_dog4-oven1.png
subject-08,1,121,0.881300210952759,bird,bear,0,0121_s5n_s08_0_bear_00_bear10-car2.png
subject-08,1,122,0.63488507270813,chair,oven,0,0122_s5n_s08_0_oven_00_oven4-dog1.png
subject-08,1,123,1.2252950668335,dog,dog,0,0123_s5n_s08_0_dog_00_dog7-bird3.png
subject-08,1,124,0.87048077583313,bottle,bottle,0,0124_s5n_s08_0_bottle_00_bottle7-keyboard2.png
subject-08,1,125,0.738070011138916,boat,boat,0,0125_s5n_s08_0_boat_00_boat4-car3.png
subject-08,1,126,0.860934019088745,car,truck,0,0126_s5n_s08_0_truck_00_truck3-bicycle1.png
subject-08,1,127,0.935766935348511,dog,dog,0,0127_s5n_s08_0_dog_00_dog4-clock1.png
subject-08,1,128,0.54326605796814,knife,knife,0,0128_s5n_s08_0_knife_00_knife5-bicycle2.png
subject-08,1,129,0.69544792175293,bottle,bottle,0,0129_s5n_s08_0_bottle_00_bottle4-car3.png
subject-08,1,130,0.632255077362061,airplane,airplane,0,0130_s5n_s08_0_airplane_00_airplane4-airplane1.png
subject-08,1,131,0.792092084884644,oven,oven,0,0131_s5n_s08_0_oven_00_oven6-oven3.png
subject-08,1,132,0.57611608505249,car,car,0,0132_s5n_s08_0_car_00_car4-boat1.png
subject-08,1,133,0.726347923278809,knife,boat,0,0133_s5n_s08_0_boat_00_boat4-bird1.png
subject-08,1,134,0.593970060348511,knife,knife,0,0134_s5n_s08_0_knife_00_knife6-bird1.png
subject-08,1,135,0.798970937728882,knife,knife,0,0135_s5n_s08_0_knife_00_knife10-dog1.png
subject-08,1,136,0.712312936782837,cat,cat,0,0136_s5n_s08_0_cat_00_cat1-oven1.png
subject-08,1,137,0.834827899932861,chair,chair,0,0137_s5n_s08_0_chair_00_chair8-oven1.png
subject-08,1,138,NaN,na,keyboard,0,0138_s5n_s08_0_keyboard_00_keyboard1-elephant3.png
subject-08,1,139,0.769045829772949,bottle,bottle,0,0139_s5n_s08_0_bottle_00_bottle3-bottle3.png
subject-08,1,140,1.36644601821899,bear,bear,0,0140_s5n_s08_0_bear_00_bear5-bicycle3.png
subject-08,1,141,0.595715045928955,bear,bear,0,0141_s5n_s08_0_bear_00_bear2-car2.png
subject-08,1,142,0.679196119308472,cat,cat,0,0142_s5n_s08_0_cat_00_cat9-bicycle1.png
subject-08,1,143,0.73051905632019,cat,cat,0,0143_s5n_s08_0_cat_00_cat10-bear1.png
subject-08,1,144,0.852231025695801,dog,bird,0,0144_s5n_s08_0_bird_00_bird1-keyboard3.png
subject-08,1,145,0.635666131973267,bicycle,bicycle,0,0145_s5n_s08_0_bicycle_00_bicycle2-bicycle1.png
subject-08,1,146,0.495063781738281,bicycle,bicycle,0,0146_s5n_s08_0_bicycle_00_bicycle1-bird1.png
subject-08,1,147,0.888530969619751,car,airplane,0,0147_s5n_s08_0_airplane_00_airplane9-truck1.png
subject-08,1,148,0.703821897506714,oven,oven,0,0148_s5n_s08_0_oven_00_oven3-bear2.png
subject-08,1,149,0.741189002990723,clock,clock,0,0149_s5n_s08_0_clock_00_clock5-keyboard1.png
subject-08,1,150,0.906422138214111,truck,truck,0,0150_s5n_s08_0_truck_00_truck3-car3.png
subject-08,1,151,0.852228879928589,bottle,bottle,0,0151_s5n_s08_0_bottle_00_bottle6-airplane1.png
subject-08,1,152,1.24173903465271,knife,boat,0,0152_s5n_s08_0_boat_00_boat4-knife2.png
subject-08,1,153,0.825337886810303,chair,oven,0,0153_s5n_s08_0_oven_00_oven7-elephant1.png
subject-08,1,154,0.72508716583252,oven,oven,0,0154_s5n_s08_0_oven_00_oven2-car1.png
subject-08,1,155,1.41461992263794,elephant,elephant,0,0155_s5n_s08_0_elephant_00_elephant4-clock3.png
subject-08,1,156,1.25185990333557,elephant,cat,0,0156_s5n_s08_0_cat_00_cat10-keyboard1.png
subject-08,1,157,0.673658847808838,chair,chair,0,0157_s5n_s08_0_chair_00_chair9-boat2.png
subject-08,1,158,1.14923286437988,dog,elephant,0,0158_s5n_s08_0_elephant_00_elephant4-bird1.png
subject-08,1,159,0.546617031097412,bottle,bottle,0,0159_s5n_s08_0_bottle_00_bottle8-bottle3.png
subject-08,1,160,0.943991184234619,truck,truck,0,0160_s5n_s08_0_truck_00_truck2-airplane3.png
subject-08,1,161,0.777307987213135,boat,boat,0,0161_s5n_s08_0_boat_00_boat9-airplane2.png
subject-08,1,162,0.999262809753418,dog,dog,0,0162_s5n_s08_0_dog_00_dog3-dog1.png
subject-08,1,163,1.42070889472961,airplane,airplane,0,0163_s5n_s08_0_airplane_00_airplane6-bear3.png
subject-08,1,164,1.00393009185791,knife,knife,0,0164_s5n_s08_0_knife_00_knife6-knife1.png
subject-08,1,165,0.742099046707153,bottle,bottle,0,0165_s5n_s08_0_bottle_00_bottle8-dog2.png
subject-08,1,166,0.877649068832397,knife,knife,0,0166_s5n_s08_0_knife_00_knife5-truck3.png
subject-08,1,167,NaN,na,boat,0,0167_s5n_s08_0_boat_00_boat3-clock3.png
subject-08,1,168,0.552334785461426,bottle,bottle,0,0168_s5n_s08_0_bottle_00_bottle5-truck1.png
subject-08,1,169,0.750113964080811,car,car,0,0169_s5n_s08_0_car_00_car2-cat3.png
subject-08,1,170,1.23393607139587,bear,bear,0,0170_s5n_s08_0_bear_00_bear4-clock3.png
subject-08,1,171,0.801571846008301,boat,boat,0,0171_s5n_s08_0_boat_00_boat9-clock1.png
subject-08,1,172,0.660261154174805,chair,chair,0,0172_s5n_s08_0_chair_00_chair7-boat3.png
subject-08,1,173,0.64946985244751,clock,clock,0,0173_s5n_s08_0_clock_00_clock8-keyboard1.png
subject-08,1,174,0.61952805519104,bottle,bottle,0,0174_s5n_s08_0_bottle_00_bottle2-elephant1.png
subject-08,1,175,0.905907154083252,elephant,elephant,0,0175_s5n_s08_0_elephant_00_elephant2-bottle3.png
subject-08,1,176,0.704846858978271,elephant,elephant,0,0176_s5n_s08_0_elephant_00_elephant7-dog1.png
subject-08,1,177,0.799700975418091,chair,oven,0,0177_s5n_s08_0_oven_00_oven7-clock2.png
subject-08,1,178,1.26779508590698,oven,chair,0,0178_s5n_s08_0_chair_00_chair7-bottle1.png
subject-08,1,179,0.951355934143066,knife,knife,0,0179_s5n_s08_0_knife_00_knife8-cat2.png
subject-08,1,180,0.750841856002808,bicycle,bicycle,0,0180_s5n_s08_0_bicycle_00_bicycle1-airplane2.png
subject-08,1,181,0.810522079467773,chair,knife,0,0181_s5n_s08_0_knife_00_knife10-chair1.png
subject-08,1,182,0.678992033004761,oven,keyboard,0,0182_s5n_s08_0_keyboard_00_keyboard5-oven2.png
subject-08,1,183,0.954105138778687,knife,keyboard,0,0183_s5n_s08_0_keyboard_00_keyboard7-dog1.png
subject-08,1,184,0.837445020675659,cat,cat,0,0184_s5n_s08_0_cat_00_cat9-dog2.png
subject-08,1,185,0.813666105270386,chair,chair,0,0185_s5n_s08_0_chair_00_chair10-clock1.png
subject-08,1,186,0.802955865859985,bear,bear,0,0186_s5n_s08_0_bear_00_bear2-oven1.png
subject-08,1,187,0.669560194015503,airplane,airplane,0,0187_s5n_s08_0_airplane_00_airplane7-truck1.png
subject-08,1,188,0.783143997192383,oven,oven,0,0188_s5n_s08_0_oven_00_oven1-dog3.png
subject-08,1,189,0.942011833190918,airplane,airplane,0,0189_s5n_s08_0_airplane_00_airplane6-chair3.png
subject-08,1,190,0.963576078414917,airplane,airplane,0,0190_s5n_s08_0_airplane_00_airplane6-knife1.png
subject-08,1,191,0.890640020370483,keyboard,keyboard,0,0191_s5n_s08_0_keyboard_00_keyboard1-chair2.png
subject-08,1,192,1.15279388427734,truck,truck,0,0192_s5n_s08_0_truck_00_truck2-bird2.png
subject-08,1,193,1.08049011230469,airplane,airplane,0,0193_s5n_s08_0_airplane_00_airplane5-bird2.png
subject-08,1,194,0.809414863586426,chair,keyboard,0,0194_s5n_s08_0_keyboard_00_keyboard8-truck3.png
subject-08,1,195,0.777627229690552,oven,airplane,0,0195_s5n_s08_0_airplane_00_airplane8-bird1.png
subject-08,1,196,1.1454598903656,bicycle,bicycle,0,0196_s5n_s08_0_bicycle_00_bicycle4-cat1.png
subject-08,1,197,0.953267097473145,elephant,elephant,0,0197_s5n_s08_0_elephant_00_elephant1-bear2.png
subject-08,1,198,0.600010871887207,boat,boat,0,0198_s5n_s08_0_boat_00_boat8-knife1.png
subject-08,1,199,0.72774600982666,boat,boat,0,0199_s5n_s08_0_boat_00_boat3-chair3.png
subject-08,1,200,0.672674894332886,boat,boat,0,0200_s5n_s08_0_boat_00_boat8-bottle1.png
subject-08,1,201,0.771063089370728,elephant,cat,0,0201_s5n_s08_0_cat_00_cat3-bear2.png
subject-08,1,202,0.792409896850586,oven,keyboard,0,0202_s5n_s08_0_keyboard_00_keyboard4-keyboard2.png
subject-08,1,203,0.818099975585938,oven,chair,0,0203_s5n_s08_0_chair_00_chair4-keyboard2.png
subject-08,1,204,0.718508958816528,elephant,elephant,0,0204_s5n_s08_0_elephant_00_elephant6-oven1.png
subject-08,1,205,0.99178409576416,knife,knife,0,0205_s5n_s08_0_knife_00_knife1-airplane1.png
subject-08,1,206,1.05141997337341,bear,bear,0,0206_s5n_s08_0_bear_00_bear3-keyboard2.png
subject-08,1,207,0.681655883789062,elephant,bear,0,0207_s5n_s08_0_bear_00_bear7-truck1.png
subject-08,1,208,0.780710935592651,bird,bird,0,0208_s5n_s08_0_bird_00_bird7-bottle1.png
subject-08,1,209,0.908843994140625,chair,chair,0,0209_s5n_s08_0_chair_00_chair4-truck2.png
subject-08,1,210,0.692409038543701,bicycle,bicycle,0,0210_s5n_s08_0_bicycle_00_bicycle3-elephant2.png
subject-08,1,211,0.790317058563232,bird,airplane,0,0211_s5n_s08_0_airplane_00_airplane4-knife1.png
subject-08,1,212,1.22887706756592,chair,chair,0,0212_s5n_s08_0_chair_00_chair5-oven2.png
subject-08,1,213,0.988642930984497,knife,keyboard,0,0213_s5n_s08_0_keyboard_00_keyboard9-elephant2.png
subject-08,1,214,1.18093085289001,chair,chair,0,0214_s5n_s08_0_chair_00_chair3-knife1.png
subject-08,1,215,0.811300992965698,bear,bear,0,0215_s5n_s08_0_bear_00_bear6-bird2.png
subject-08,1,216,0.841392993927002,boat,boat,0,0216_s5n_s08_0_boat_00_boat9-knife2.png
subject-08,1,217,0.633260011672974,airplane,airplane,0,0217_s5n_s08_0_airplane_00_airplane5-boat3.png
subject-08,1,218,0.647002935409546,bird,boat,0,0218_s5n_s08_0_boat_00_boat6-truck3.png
subject-08,1,219,1.18208408355713,bottle,bottle,0,0219_s5n_s08_0_bottle_00_bottle4-truck1.png
subject-08,1,220,0.927968978881836,dog,dog,0,0220_s5n_s08_0_dog_00_dog3-knife3.png
subject-08,1,221,0.801315069198608,knife,boat,0,0221_s5n_s08_0_boat_00_boat4-elephant2.png
subject-08,1,222,0.597178936004639,cat,cat,0,0222_s5n_s08_0_cat_00_cat1-dog1.png
subject-08,1,223,0.751545906066895,car,car,0,0223_s5n_s08_0_car_00_car5-bottle1.png
subject-08,1,224,1.17089200019836,bird,airplane,0,0224_s5n_s08_0_airplane_00_airplane3-airplane2.png
subject-08,1,225,0.704571962356567,car,car,0,0225_s5n_s08_0_car_00_car1-oven3.png
subject-08,1,226,0.81784987449646,chair,boat,0,0226_s5n_s08_0_boat_00_boat2-oven3.png
subject-08,1,227,0.853626012802124,car,car,0,0227_s5n_s08_0_car_00_car4-oven2.png
subject-08,1,228,0.869865894317627,boat,boat,0,0228_s5n_s08_0_boat_00_boat1-elephant3.png
subject-08,1,229,0.705019950866699,elephant,elephant,0,0229_s5n_s08_0_elephant_00_elephant2-airplane3.png
subject-08,1,230,0.933588981628418,elephant,dog,0,0230_s5n_s08_0_dog_00_dog8-chair3.png
subject-08,1,231,0.928094148635864,truck,truck,0,0231_s5n_s08_0_truck_00_truck9-elephant1.png
subject-08,1,232,0.773290872573853,bicycle,bicycle,0,0232_s5n_s08_0_bicycle_00_bicycle2-bottle1.png
subject-08,1,233,1.17861890792847,dog,cat,0,0233_s5n_s08_0_cat_00_cat3-truck3.png
subject-08,1,234,0.663009166717529,clock,boat,0,0234_s5n_s08_0_boat_00_boat3-keyboard2.png
subject-08,1,235,0.568680047988892,clock,clock,0,0235_s5n_s08_0_clock_00_clock6-knife2.png
subject-08,1,236,0.823261976242065,boat,boat,0,0236_s5n_s08_0_boat_00_boat10-truck1.png
subject-08,1,237,1.0909059047699,knife,boat,0,0237_s5n_s08_0_boat_00_boat7-bottle1.png
subject-08,1,238,1.20457696914673,car,car,0,0238_s5n_s08_0_car_00_car3-bird2.png
subject-08,1,239,0.780539989471436,bird,airplane,0,0239_s5n_s08_0_airplane_00_airplane3-cat1.png
subject-08,1,240,0.94041895866394,car,car,0,0240_s5n_s08_0_car_00_car4-bottle1.png
subject-08,1,241,0.870131969451904,clock,clock,0,0241_s5n_s08_0_clock_00_clock1-car1.png
subject-08,1,242,0.845387935638428,airplane,airplane,0,0242_s5n_s08_0_airplane_00_airplane3-oven1.png
subject-08,1,243,0.883507013320923,clock,clock,0,0243_s5n_s08_0_clock_00_clock2-dog1.png
subject-08,1,244,0.802686929702759,keyboard,keyboard,0,0244_s5n_s08_0_keyboard_00_keyboard8-chair2.png
subject-08,1,245,0.864541053771973,airplane,cat,0,0245_s5n_s08_0_cat_00_cat1-keyboard3.png
subject-08,1,246,0.838104963302612,bird,bird,0,0246_s5n_s08_0_bird_00_bird9-bear3.png
subject-08,1,247,1.32981991767883,airplane,cat,0,0247_s5n_s08_0_cat_00_cat8-car2.png
subject-08,1,248,1.0818030834198,bird,bird,0,0248_s5n_s08_0_bird_00_bird4-bicycle2.png
subject-08,1,249,1.05766701698303,chair,chair,0,0249_s5n_s08_0_chair_00_chair10-bicycle1.png
subject-08,1,250,1.2093780040741,dog,dog,0,0250_s5n_s08_0_dog_00_dog6-bicycle1.png
subject-08,1,251,0.793365001678467,cat,bear,0,0251_s5n_s08_0_bear_00_bear5-bird1.png
subject-08,1,252,1.16873693466187,bird,boat,0,0252_s5n_s08_0_boat_00_boat5-car3.png
subject-08,1,253,0.574728965759277,car,car,0,0253_s5n_s08_0_car_00_car4-car2.png
subject-08,1,254,0.882440805435181,car,car,0,0254_s5n_s08_0_car_00_car8-bear1.png
subject-08,1,255,0.956145048141479,car,truck,0,0255_s5n_s08_0_truck_00_truck3-bear3.png
subject-08,1,256,1.02349185943604,truck,truck,0,0256_s5n_s08_0_truck_00_truck9-bottle2.png
subject-08,1,257,1.32937383651733,oven,knife,0,0257_s5n_s08_0_knife_00_knife6-clock2.png
subject-08,1,258,1.14226293563843,bicycle,bicycle,0,0258_s5n_s08_0_bicycle_00_bicycle7-elephant2.png
subject-08,1,259,1.04022789001465,elephant,bottle,0,0259_s5n_s08_0_bottle_00_bottle7-bear1.png
subject-08,1,260,0.721544981002808,dog,dog,0,0260_s5n_s08_0_dog_00_dog9-cat1.png
subject-08,1,261,0.512981176376343,clock,clock,0,0261_s5n_s08_0_clock_00_clock1-bear1.png
subject-08,1,262,0.711063146591187,chair,oven,0,0262_s5n_s08_0_oven_00_oven7-dog2.png
subject-08,1,263,1.00259208679199,keyboard,knife,0,0263_s5n_s08_0_knife_00_knife2-bottle2.png
subject-08,1,264,0.762168884277344,knife,knife,0,0264_s5n_s08_0_knife_00_knife4-cat2.png
subject-08,1,265,1.27562403678894,bird,dog,0,0265_s5n_s08_0_dog_00_dog9-bicycle3.png
subject-08,1,266,0.843157052993774,keyboard,keyboard,0,0266_s5n_s08_0_keyboard_00_keyboard5-cat1.png
subject-08,1,267,0.810693025588989,bird,bird,0,0267_s5n_s08_0_bird_00_bird3-cat1.png
subject-08,1,268,0.671494007110596,bear,elephant,0,0268_s5n_s08_0_elephant_00_elephant6-cat2.png
subject-08,1,269,0.917013883590698,bear,bear,0,0269_s5n_s08_0_bear_00_bear10-chair2.png
subject-08,1,270,0.760390043258667,bicycle,bicycle,0,0270_s5n_s08_0_bicycle_00_bicycle7-bear2.png
subject-08,1,271,0.8662269115448,keyboard,keyboard,0,0271_s5n_s08_0_keyboard_00_keyboard5-bear3.png
subject-08,1,272,0.833353042602539,keyboard,boat,0,0272_s5n_s08_0_boat_00_boat1-bear1.png
subject-08,1,273,0.808627128601074,cat,cat,0,0273_s5n_s08_0_cat_00_cat7-clock3.png
subject-08,1,274,0.705787897109985,oven,oven,0,0274_s5n_s08_0_oven_00_oven7-oven1.png
subject-08,1,275,0.881752014160156,knife,knife,0,0275_s5n_s08_0_knife_00_knife6-boat3.png
subject-08,1,276,1.11769199371338,dog,bear,0,0276_s5n_s08_0_bear_00_bear1-elephant1.png
subject-08,1,277,1.06963205337524,cat,cat,0,0277_s5n_s08_0_cat_00_cat6-oven1.png
subject-08,1,278,0.623131036758423,cat,cat,0,0278_s5n_s08_0_cat_00_cat9-clock2.png
subject-08,1,279,0.620731830596924,knife,knife,0,0279_s5n_s08_0_knife_00_knife5-cat2.png
subject-08,1,280,0.810158014297485,keyboard,keyboard,0,0280_s5n_s08_0_keyboard_00_keyboard3-bicycle2.png
subject-08,1,281,0.563896894454956,cat,bird,0,0281_s5n_s08_0_bird_00_bird3-bear3.png
subject-08,1,282,0.743993997573853,elephant,elephant,0,0282_s5n_s08_0_elephant_00_elephant7-knife2.png
subject-08,1,283,0.703845977783203,bottle,bottle,0,0283_s5n_s08_0_bottle_00_bottle6-bird1.png
subject-08,1,284,0.763145923614502,bird,bird,0,0284_s5n_s08_0_bird_00_bird1-oven1.png
subject-08,1,285,0.969451904296875,bear,bear,0,0285_s5n_s08_0_bear_00_bear2-knife2.png
subject-08,1,286,0.798908948898315,bicycle,bicycle,0,0286_s5n_s08_0_bicycle_00_bicycle1-truck1.png
subject-08,1,287,0.755101919174194,car,car,0,0287_s5n_s08_0_car_00_car6-bear1.png
subject-08,1,288,0.784466028213501,bottle,bottle,0,0288_s5n_s08_0_bottle_00_bottle7-cat2.png
subject-08,1,289,0.873700857162476,airplane,airplane,0,0289_s5n_s08_0_airplane_00_airplane8-bicycle3.png
subject-08,1,290,1.10883712768555,keyboard,keyboard,0,0290_s5n_s08_0_keyboard_00_keyboard5-keyboard1.png
subject-08,1,291,0.638650894165039,bicycle,bicycle,0,0291_s5n_s08_0_bicycle_00_bicycle9-car1.png
subject-08,1,292,0.644788980484009,bird,bird,0,0292_s5n_s08_0_bird_00_bird1-knife3.png
subject-08,1,293,0.8420569896698,bear,bear,0,0293_s5n_s08_0_bear_00_bear3-airplane1.png
subject-08,1,294,0.571913003921509,bird,bird,0,0294_s5n_s08_0_bird_00_bird10-bicycle1.png
subject-08,1,295,0.816028118133545,dog,dog,0,0295_s5n_s08_0_dog_00_dog7-knife3.png
subject-08,1,296,1.0994279384613,truck,truck,0,0296_s5n_s08_0_truck_00_truck6-bicycle1.png
subject-08,1,297,0.721275091171265,cat,cat,0,0297_s5n_s08_0_cat_00_cat4-clock2.png
subject-08,1,298,1.16469883918762,truck,truck,0,0298_s5n_s08_0_truck_00_truck8-dog3.png
subject-08,1,299,0.857160091400146,dog,dog,0,0299_s5n_s08_0_dog_00_dog5-bear3.png
subject-08,1,300,0.802871942520142,truck,truck,0,0300_s5n_s08_0_truck_00_truck10-truck3.png
subject-08,1,301,0.546761989593506,bicycle,bicycle,0,0301_s5n_s08_0_bicycle_00_bicycle4-airplane1.png
subject-08,1,302,1.07348799705505,elephant,elephant,0,0302_s5n_s08_0_elephant_00_elephant1-boat2.png
subject-08,1,303,0.532725095748901,bottle,bottle,0,0303_s5n_s08_0_bottle_00_bottle3-knife3.png
subject-08,1,304,0.624644994735718,cat,cat,0,0304_s5n_s08_0_cat_00_cat2-car3.png
subject-08,1,305,0.642510890960693,bicycle,bicycle,0,0305_s5n_s08_0_bicycle_00_bicycle4-chair2.png
subject-08,1,306,1.35399603843689,car,bear,0,0306_s5n_s08_0_bear_00_bear6-car2.png
subject-08,1,307,0.537457942962646,bird,bird,0,0307_s5n_s08_0_bird_00_bird5-chair1.png
subject-08,1,308,0.859158992767334,dog,dog,0,0308_s5n_s08_0_dog_00_dog10-keyboard2.png
subject-08,1,309,0.870033979415894,bird,bird,0,0309_s5n_s08_0_bird_00_bird9-bottle3.png
subject-08,1,310,0.70048999786377,car,car,0,0310_s5n_s08_0_car_00_car1-airplane1.png
subject-08,1,311,0.621230125427246,bear,bear,0,0311_s5n_s08_0_bear_00_bear5-airplane3.png
subject-08,1,312,0.804664850234985,car,car,0,0312_s5n_s08_0_car_00_car10-car1.png
subject-08,1,313,0.848366022109985,car,car,0,0313_s5n_s08_0_car_00_car6-boat1.png
subject-08,1,314,0.815562009811401,bicycle,bicycle,0,0314_s5n_s08_0_bicycle_00_bicycle5-elephant1.png
subject-08,1,315,0.682507038116455,airplane,airplane,0,0315_s5n_s08_0_airplane_00_airplane3-chair3.png
subject-08,1,316,0.796417951583862,bird,oven,0,0316_s5n_s08_0_oven_00_oven6-bird1.png
subject-08,1,317,0.918607950210571,knife,knife,0,0317_s5n_s08_0_knife_00_knife6-dog2.png
subject-08,1,318,0.6701340675354,bear,elephant,0,0318_s5n_s08_0_elephant_00_elephant2-clock1.png
subject-08,1,319,NaN,na,bear,0,0319_s5n_s08_0_bear_00_bear6-bear1.png
subject-08,1,320,0.89711594581604,knife,airplane,0,0320_s5n_s08_0_airplane_00_airplane8-oven2.png
subject-08,1,321,0.765320062637329,knife,knife,0,0321_s5n_s08_0_knife_00_knife3-bear2.png
subject-08,1,322,1.04127192497253,dog,dog,0,0322_s5n_s08_0_dog_00_dog9-boat1.png
subject-08,1,323,0.800832986831665,knife,knife,0,0323_s5n_s08_0_knife_00_knife4-boat1.png
subject-08,1,324,0.606162071228027,chair,chair,0,0324_s5n_s08_0_chair_00_chair4-chair3.png
subject-08,1,325,0.657733917236328,boat,boat,0,0325_s5n_s08_0_boat_00_boat9-bird1.png
subject-08,1,326,0.854912996292114,knife,knife,0,0326_s5n_s08_0_knife_00_knife2-bird1.png
subject-08,1,327,1.21447420120239,bear,bear,0,0327_s5n_s08_0_bear_00_bear8-truck3.png
subject-08,1,328,1.14057111740112,keyboard,knife,0,0328_s5n_s08_0_knife_00_knife2-car3.png
subject-08,1,329,0.962128162384033,bicycle,bicycle,0,0329_s5n_s08_0_bicycle_00_bicycle1-knife3.png
subject-08,1,330,NaN,na,elephant,0,0330_s5n_s08_0_elephant_00_elephant5-car1.png
subject-08,1,331,0.772210836410522,bird,dog,0,0331_s5n_s08_0_dog_00_dog2-airplane2.png
subject-08,1,332,0.578226804733276,clock,clock,0,0332_s5n_s08_0_clock_00_clock7-cat2.png
subject-08,1,333,0.661793947219849,bicycle,bicycle,0,0333_s5n_s08_0_bicycle_00_bicycle5-cat1.png
subject-08,1,334,0.773441076278687,car,car,0,0334_s5n_s08_0_car_00_car10-bottle3.png
subject-08,1,335,0.787013053894043,car,car,0,0335_s5n_s08_0_car_00_car3-dog2.png
subject-08,1,336,0.823906898498535,airplane,boat,0,0336_s5n_s08_0_boat_00_boat6-bear1.png
subject-08,1,337,1.10582208633423,oven,oven,0,0337_s5n_s08_0_oven_00_oven4-chair1.png
subject-08,1,338,1.07339596748352,knife,cat,0,0338_s5n_s08_0_cat_00_cat4-keyboard2.png
subject-08,1,339,1.14964008331299,bear,bear,0,0339_s5n_s08_0_bear_00_bear4-cat3.png
subject-08,1,340,0.687275171279907,truck,truck,0,0340_s5n_s08_0_truck_00_truck5-dog3.png
subject-08,1,341,0.77666187286377,oven,airplane,0,0341_s5n_s08_0_airplane_00_airplane9-knife3.png
subject-08,1,342,1.12455296516418,keyboard,oven,0,0342_s5n_s08_0_oven_00_oven3-boat3.png
subject-08,1,343,1.09238505363464,dog,elephant,0,0343_s5n_s08_0_elephant_00_elephant2-bird1.png
subject-08,1,344,0.897187948226929,elephant,elephant,0,0344_s5n_s08_0_elephant_00_elephant9-elephant3.png
subject-08,1,345,0.824554204940796,elephant,elephant,0,0345_s5n_s08_0_elephant_00_elephant1-car3.png
subject-08,1,346,0.732358932495117,bear,bear,0,0346_s5n_s08_0_bear_00_bear9-keyboard3.png
subject-08,1,347,0.791976928710938,bird,bird,0,0347_s5n_s08_0_bird_00_bird3-boat3.png
subject-08,1,348,1.06533288955688,elephant,airplane,0,0348_s5n_s08_0_airplane_00_airplane2-bear1.png
subject-08,1,349,0.648754119873047,bicycle,bicycle,0,0349_s5n_s08_0_bicycle_00_bicycle8-chair2.png
subject-08,1,350,0.854928970336914,car,car,0,0350_s5n_s08_0_car_00_car6-chair3.png
subject-08,1,351,0.792564153671265,dog,dog,0,0351_s5n_s08_0_dog_00_dog10-clock1.png
subject-08,1,352,0.876772880554199,dog,dog,0,0352_s5n_s08_0_dog_00_dog8-boat3.png
subject-08,1,353,0.690690994262695,car,car,0,0353_s5n_s08_0_car_00_car5-knife2.png
subject-08,1,354,0.650124073028564,clock,clock,0,0354_s5n_s08_0_clock_00_clock2-bottle3.png
subject-08,1,355,0.631541013717651,dog,dog,0,0355_s5n_s08_0_dog_00_dog10-oven2.png
subject-08,1,356,0.998538017272949,car,car,0,0356_s5n_s08_0_car_00_car5-truck3.png
subject-08,1,357,1.09670305252075,elephant,elephant,0,0357_s5n_s08_0_elephant_00_elephant10-bear1.png
subject-08,1,358,0.710425138473511,elephant,elephant,0,0358_s5n_s08_0_elephant_00_elephant5-truck1.png
subject-08,1,359,0.848356962203979,chair,airplane,0,0359_s5n_s08_0_airplane_00_airplane8-truck3.png
subject-08,1,360,0.570557117462158,bird,bird,0,0360_s5n_s08_0_bird_00_bird8-chair1.png
subject-08,1,361,0.768050909042358,car,car,0,0361_s5n_s08_0_car_00_car5-airplane3.png
subject-08,1,362,0.673752784729004,bear,bear,0,0362_s5n_s08_0_bear_00_bear8-bottle1.png
subject-08,1,363,0.671537160873413,bear,bear,0,0363_s5n_s08_0_bear_00_bear5-oven3.png
subject-08,1,364,1.18534398078918,bird,bird,0,0364_s5n_s08_0_bird_00_bird10-chair1.png
subject-08,1,365,0.623204946517944,keyboard,keyboard,0,0365_s5n_s08_0_keyboard_00_keyboard7-bottle1.png
subject-08,1,366,1.35962009429932,bicycle,bicycle,0,0366_s5n_s08_0_bicycle_00_bicycle5-chair2.png
subject-08,1,367,0.797121047973633,bird,bird,0,0367_s5n_s08_0_bird_00_bird9-bicycle3.png
subject-08,1,368,0.680782079696655,elephant,elephant,0,0368_s5n_s08_0_elephant_00_elephant4-car3.png
subject-08,1,369,0.927438974380493,car,car,0,0369_s5n_s08_0_car_00_car4-bear3.png
subject-08,1,370,0.754670858383179,cat,knife,0,0370_s5n_s08_0_knife_00_knife7-bottle3.png
subject-08,1,371,0.608565807342529,truck,truck,0,0371_s5n_s08_0_truck_00_truck6-clock2.png
subject-08,1,372,0.543694972991943,bottle,bottle,0,0372_s5n_s08_0_bottle_00_bottle2-chair3.png
subject-08,1,373,0.978868961334229,dog,cat,0,0373_s5n_s08_0_cat_00_cat10-bicycle1.png
subject-08,1,374,0.952363014221191,truck,truck,0,0374_s5n_s08_0_truck_00_truck9-boat3.png
subject-08,1,375,0.598234891891479,car,car,0,0375_s5n_s08_0_car_00_car9-clock2.png
subject-08,1,376,0.619622945785522,bear,bear,0,0376_s5n_s08_0_bear_00_bear7-dog3.png
subject-08,1,377,0.779428958892822,bottle,bottle,0,0377_s5n_s08_0_bottle_00_bottle6-bicycle3.png
subject-08,1,378,1.04704689979553,bird,bird,0,0378_s5n_s08_0_bird_00_bird1-bear1.png
subject-08,1,379,0.576541900634766,elephant,elephant,0,0379_s5n_s08_0_elephant_00_elephant4-bicycle2.png
subject-08,1,380,0.719899892807007,oven,oven,0,0380_s5n_s08_0_oven_00_oven1-bird3.png
subject-08,1,381,0.509618997573853,clock,clock,0,0381_s5n_s08_0_clock_00_clock3-dog2.png
subject-08,1,382,0.793022871017456,oven,oven,0,0382_s5n_s08_0_oven_00_oven2-bird2.png
subject-08,1,383,0.620645999908447,bottle,bottle,0,0383_s5n_s08_0_bottle_00_bottle7-boat3.png
subject-08,1,384,0.612571001052856,bottle,bottle,0,0384_s5n_s08_0_bottle_00_bottle4-bicycle1.png
subject-08,1,385,0.512051105499268,oven,oven,0,0385_s5n_s08_0_oven_00_oven4-car1.png
subject-08,1,386,0.685773134231567,bottle,bottle,0,0386_s5n_s08_0_bottle_00_bottle5-clock3.png
subject-08,1,387,0.761113882064819,bird,bird,0,0387_s5n_s08_0_bird_00_bird6-car3.png
subject-08,1,388,0.800716876983643,chair,chair,0,0388_s5n_s08_0_chair_00_chair3-bicycle3.png
subject-08,1,389,0.730793952941895,bicycle,bicycle,0,0389_s5n_s08_0_bicycle_00_bicycle7-cat1.png
subject-08,1,390,0.851994037628174,cat,cat,0,0390_s5n_s08_0_cat_00_cat1-chair2.png
subject-08,1,391,0.740762948989868,oven,oven,0,0391_s5n_s08_0_oven_00_oven4-truck3.png
subject-08,1,392,1.18514800071716,car,boat,0,0392_s5n_s08_0_boat_00_boat10-oven1.png
subject-08,1,393,0.669301986694336,car,car,0,0393_s5n_s08_0_car_00_car8-boat3.png
subject-08,1,394,0.766301870346069,airplane,airplane,0,0394_s5n_s08_0_airplane_00_airplane7-clock3.png
subject-08,1,395,0.918413162231445,truck,truck,0,0395_s5n_s08_0_truck_00_truck6-truck2.png
subject-08,1,396,0.710231065750122,chair,chair,0,0396_s5n_s08_0_chair_00_chair2-bear2.png
subject-08,1,397,0.90755295753479,elephant,bottle,0,0397_s5n_s08_0_bottle_00_bottle7-elephant2.png
subject-08,1,398,NaN,na,keyboard,0,0398_s5n_s08_0_keyboard_00_keyboard3-bird3.png
subject-08,1,399,0.786432027816772,oven,oven,0,0399_s5n_s08_0_oven_00_oven5-elephant1.png
subject-08,1,400,0.73848819732666,bird,cat,0,0400_s5n_s08_0_cat_00_cat4-knife1.png
subject-08,1,401,0.589435815811157,clock,clock,0,0401_s5n_s08_0_clock_00_clock2-clock3.png
subject-08,1,402,0.769554138183594,oven,airplane,0,0402_s5n_s08_0_airplane_00_airplane9-oven2.png
subject-08,1,403,0.537142038345337,chair,chair,0,0403_s5n_s08_0_chair_00_chair9-bottle3.png
subject-08,1,404,0.772356986999512,car,car,0,0404_s5n_s08_0_car_00_car5-oven2.png
subject-08,1,405,0.923818111419678,car,car,0,0405_s5n_s08_0_car_00_car8-dog1.png
subject-08,1,406,1.50022101402283,airplane,knife,0,0406_s5n_s08_0_knife_00_knife4-bear1.png
subject-08,1,407,1.22920298576355,elephant,elephant,0,0407_s5n_s08_0_elephant_00_elephant7-car3.png
subject-08,1,408,0.629581928253174,cat,cat,0,0408_s5n_s08_0_cat_00_cat9-cat3.png
subject-08,1,409,0.965156078338623,bear,bear,0,0409_s5n_s08_0_bear_00_bear3-bird3.png
subject-08,1,410,0.778630018234253,truck,truck,0,0410_s5n_s08_0_truck_00_truck1-clock3.png
subject-08,1,411,0.962814092636108,oven,truck,0,0411_s5n_s08_0_truck_00_truck4-knife1.png
subject-08,1,412,1.00636386871338,airplane,airplane,0,0412_s5n_s08_0_airplane_00_airplane2-dog1.png
subject-08,1,413,0.789589166641235,bottle,boat,0,0413_s5n_s08_0_boat_00_boat4-bottle2.png
subject-08,1,414,1.49296092987061,car,car,0,0414_s5n_s08_0_car_00_car2-chair1.png
subject-08,1,415,0.633607864379883,bottle,bottle,0,0415_s5n_s08_0_bottle_00_bottle1-cat3.png
subject-08,1,416,0.693196058273315,airplane,airplane,0,0416_s5n_s08_0_airplane_00_airplane6-keyboard3.png
subject-08,1,417,0.623250961303711,oven,oven,0,0417_s5n_s08_0_oven_00_oven10-boat2.png
subject-08,1,418,0.934640884399414,car,truck,0,0418_s5n_s08_0_truck_00_truck3-oven2.png
subject-08,1,419,1.17260503768921,bird,bird,0,0419_s5n_s08_0_bird_00_bird6-boat2.png
subject-08,1,420,0.933107137680054,bicycle,bicycle,0,0420_s5n_s08_0_bicycle_00_bicycle8-truck1.png
subject-08,1,421,1.50024795532227,airplane,airplane,0,0421_s5n_s08_0_airplane_00_airplane9-boat1.png
subject-08,1,422,1.1100070476532,airplane,airplane,0,0422_s5n_s08_0_airplane_00_airplane5-bottle3.png
subject-08,1,423,0.761656045913696,chair,knife,0,0423_s5n_s08_0_knife_00_knife3-knife1.png
subject-08,1,424,0.836893081665039,car,dog,0,0424_s5n_s08_0_dog_00_dog1-car2.png
subject-08,1,425,0.9426109790802,cat,cat,0,0425_s5n_s08_0_cat_00_cat6-clock3.png
subject-08,1,426,0.66449499130249,bottle,bottle,0,0426_s5n_s08_0_bottle_00_bottle1-clock1.png
subject-08,1,427,0.8297278881073,bear,bear,0,0427_s5n_s08_0_bear_00_bear3-cat1.png
subject-08,1,428,1.11902809143066,elephant,bear,0,0428_s5n_s08_0_bear_00_bear3-truck3.png
subject-08,1,429,0.979168176651001,keyboard,knife,0,0429_s5n_s08_0_knife_00_knife10-oven3.png
subject-08,1,430,0.782872915267944,keyboard,keyboard,0,0430_s5n_s08_0_keyboard_00_keyboard5-bottle1.png
subject-08,1,431,0.813194036483765,bird,bird,0,0431_s5n_s08_0_bird_00_bird5-cat2.png
subject-08,1,432,0.940884828567505,bear,bear,0,0432_s5n_s08_0_bear_00_bear10-truck1.png
subject-08,1,433,0.692252159118652,airplane,airplane,0,0433_s5n_s08_0_airplane_00_airplane8-elephant3.png
subject-08,1,434,0.867836952209473,cat,knife,0,0434_s5n_s08_0_knife_00_knife9-airplane2.png
subject-08,1,435,0.481167078018188,chair,chair,0,0435_s5n_s08_0_chair_00_chair10-bird3.png
subject-08,1,436,0.632160902023315,car,car,0,0436_s5n_s08_0_car_00_car4-elephant3.png
subject-08,1,437,0.743635177612305,keyboard,knife,0,0437_s5n_s08_0_knife_00_knife1-chair1.png
subject-08,1,438,0.727761030197144,airplane,airplane,0,0438_s5n_s08_0_airplane_00_airplane4-keyboard3.png
subject-08,1,439,0.820310115814209,oven,oven,0,0439_s5n_s08_0_oven_00_oven8-chair1.png
subject-08,1,440,0.942174911499023,bicycle,bicycle,0,0440_s5n_s08_0_bicycle_00_bicycle6-cat1.png
subject-08,1,441,0.947313070297241,keyboard,oven,0,0441_s5n_s08_0_oven_00_oven3-cat2.png
subject-08,1,442,0.836026906967163,airplane,airplane,0,0442_s5n_s08_0_airplane_00_airplane10-airplane1.png
subject-08,1,443,0.947545051574707,elephant,elephant,0,0443_s5n_s08_0_elephant_00_elephant3-cat2.png
subject-08,1,444,0.78540301322937,clock,clock,0,0444_s5n_s08_0_clock_00_clock3-keyboard3.png
subject-08,1,445,1.09121298789978,dog,dog,0,0445_s5n_s08_0_dog_00_dog7-keyboard3.png
subject-08,1,446,1.12980604171753,dog,dog,0,0446_s5n_s08_0_dog_00_dog9-bear3.png
subject-08,1,447,0.480407953262329,clock,clock,0,0447_s5n_s08_0_clock_00_clock6-bottle1.png
subject-08,1,448,0.603878021240234,dog,dog,0,0448_s5n_s08_0_dog_00_dog6-clock1.png
subject-08,1,449,0.741734027862549,bicycle,bicycle,0,0449_s5n_s08_0_bicycle_00_bicycle4-truck3.png
subject-08,1,450,0.777331113815308,clock,clock,0,0450_s5n_s08_0_clock_00_clock7-car1.png
subject-08,1,451,0.576658010482788,boat,boat,0,0451_s5n_s08_0_boat_00_boat4-chair2.png
subject-08,1,452,0.782692909240723,truck,truck,0,0452_s5n_s08_0_truck_00_truck10-bicycle1.png
subject-08,1,453,0.800956010818481,bottle,keyboard,0,0453_s5n_s08_0_keyboard_00_keyboard6-bottle2.png
subject-08,1,454,0.936616897583008,chair,chair,0,0454_s5n_s08_0_chair_00_chair1-dog1.png
subject-08,1,455,0.944705963134766,oven,bird,0,0455_s5n_s08_0_bird_00_bird2-knife1.png
subject-08,1,456,0.734262943267822,bird,bird,0,0456_s5n_s08_0_bird_00_bird10-bird2.png
subject-08,1,457,0.710391998291016,bicycle,bicycle,0,0457_s5n_s08_0_bicycle_00_bicycle4-bottle1.png
subject-08,1,458,0.832161903381348,truck,truck,0,0458_s5n_s08_0_truck_00_truck5-knife3.png
subject-08,1,459,0.837460041046143,car,airplane,0,0459_s5n_s08_0_airplane_00_airplane4-bicycle2.png
subject-08,1,460,0.98890209197998,chair,keyboard,0,0460_s5n_s08_0_keyboard_00_keyboard4-oven2.png
subject-08,1,461,0.708801984786987,bicycle,elephant,0,0461_s5n_s08_0_elephant_00_elephant2-truck2.png
subject-08,1,462,1.17505097389221,oven,keyboard,0,0462_s5n_s08_0_keyboard_00_keyboard10-truck1.png
subject-08,1,463,0.642818927764893,oven,dog,0,0463_s5n_s08_0_dog_00_dog6-truck2.png
subject-08,1,464,0.861260890960693,elephant,elephant,0,0464_s5n_s08_0_elephant_00_elephant3-oven1.png
subject-08,1,465,0.712796926498413,truck,truck,0,0465_s5n_s08_0_truck_00_truck4-airplane3.png
subject-08,1,466,0.749464988708496,bird,dog,0,0466_s5n_s08_0_dog_00_dog3-boat1.png
subject-08,1,467,0.983951091766357,bicycle,bicycle,0,0467_s5n_s08_0_bicycle_00_bicycle9-bear1.png
subject-08,1,468,1.01856207847595,elephant,elephant,0,0468_s5n_s08_0_elephant_00_elephant1-airplane2.png
subject-08,1,469,0.680775165557861,oven,oven,0,0469_s5n_s08_0_oven_00_oven2-bottle1.png
subject-08,1,470,0.670072793960571,car,dog,0,0470_s5n_s08_0_dog_00_dog1-boat3.png
subject-08,1,471,0.767558097839355,chair,elephant,0,0471_s5n_s08_0_elephant_00_elephant8-truck3.png
subject-08,1,472,0.840986013412476,dog,dog,0,0472_s5n_s08_0_dog_00_dog1-dog2.png
subject-08,1,473,0.900853157043457,car,car,0,0473_s5n_s08_0_car_00_car4-clock1.png
subject-08,1,474,0.951416969299316,boat,boat,0,0474_s5n_s08_0_boat_00_boat10-boat3.png
subject-08,1,475,1.42522287368774,cat,cat,0,0475_s5n_s08_0_cat_00_cat2-elephant1.png
subject-08,1,476,0.607853174209595,oven,oven,0,0476_s5n_s08_0_oven_00_oven10-oven3.png
subject-08,1,477,0.673405885696411,chair,chair,0,0477_s5n_s08_0_chair_00_chair8-car1.png
subject-08,1,478,0.64875316619873,chair,chair,0,0478_s5n_s08_0_chair_00_chair7-airplane1.png
subject-08,1,479,0.670242071151733,oven,oven,0,0479_s5n_s08_0_oven_00_oven2-truck3.png
subject-08,1,480,0.613760948181152,oven,oven,0,0480_s5n_s08_0_oven_00_oven4-bicycle2.png
subject-08,1,481,1.20348501205444,boat,knife,0,0481_s5n_s08_0_knife_00_knife4-airplane3.png
subject-08,1,482,0.754729032516479,truck,truck,0,0482_s5n_s08_0_truck_00_truck10-clock1.png
subject-08,1,483,0.744781970977783,cat,cat,0,0483_s5n_s08_0_cat_00_cat4-oven1.png
subject-08,1,484,1.09617495536804,airplane,airplane,0,0484_s5n_s08_0_airplane_00_airplane9-airplane2.png
subject-08,1,485,0.756325006484985,airplane,airplane,0,0485_s5n_s08_0_airplane_00_airplane7-car1.png
subject-08,1,486,0.91590690612793,car,cat,0,0486_s5n_s08_0_cat_00_cat9-truck1.png
subject-08,1,487,0.74223780632019,airplane,keyboard,0,0487_s5n_s08_0_keyboard_00_keyboard9-bird1.png
subject-08,1,488,1.34552717208862,bear,bear,0,0488_s5n_s08_0_bear_00_bear1-bird2.png
subject-08,1,489,0.677765130996704,bicycle,bicycle,0,0489_s5n_s08_0_bicycle_00_bicycle5-dog2.png
subject-08,1,490,1.03763103485107,knife,boat,0,0490_s5n_s08_0_boat_00_boat1-oven1.png
subject-08,1,491,0.949639081954956,oven,boat,0,0491_s5n_s08_0_boat_00_boat1-truck3.png
subject-08,1,492,0.779212951660156,oven,oven,0,0492_s5n_s08_0_oven_00_oven5-keyboard2.png
subject-08,1,493,0.939095973968506,car,car,0,0493_s5n_s08_0_car_00_car6-bottle1.png
subject-08,1,494,0.760951995849609,car,car,0,0494_s5n_s08_0_car_00_car3-elephant3.png
subject-08,1,495,1.07249999046326,boat,keyboard,0,0495_s5n_s08_0_keyboard_00_keyboard7-boat2.png
subject-08,1,496,1.50028514862061,clock,clock,0,0496_s5n_s08_0_clock_00_clock9-cat1.png
subject-08,1,497,0.591361999511719,truck,truck,0,0497_s5n_s08_0_truck_00_truck5-bird2.png
subject-08,1,498,0.63358211517334,cat,cat,0,0498_s5n_s08_0_cat_00_cat2-knife3.png
subject-08,1,499,0.728385925292969,airplane,airplane,0,0499_s5n_s08_0_airplane_00_airplane7-boat2.png
subject-08,1,500,0.588237047195435,clock,clock,0,0500_s5n_s08_0_clock_00_clock8-boat1.png
subject-08,1,501,0.650639057159424,dog,dog,0,0501_s5n_s08_0_dog_00_dog4-cat3.png
subject-08,1,502,0.815539121627808,airplane,airplane,0,0502_s5n_s08_0_airplane_00_airplane1-bicycle2.png
subject-08,1,503,1.17580604553223,oven,boat,0,0503_s5n_s08_0_boat_00_boat7-oven3.png
subject-08,1,504,0.739087104797363,chair,chair,0,0504_s5n_s08_0_chair_00_chair4-bear2.png
subject-08,1,505,0.596553087234497,oven,oven,0,0505_s5n_s08_0_oven_00_oven2-boat3.png
subject-08,1,506,0.739922046661377,knife,knife,0,0506_s5n_s08_0_knife_00_knife9-bicycle1.png
subject-08,1,507,0.591277837753296,oven,chair,0,0507_s5n_s08_0_chair_00_chair6-truck2.png
subject-08,1,508,0.650750160217285,bottle,bottle,0,0508_s5n_s08_0_bottle_00_bottle2-knife3.png
subject-08,1,509,0.553946018218994,car,car,0,0509_s5n_s08_0_car_00_car3-boat1.png
subject-08,1,510,0.621831893920898,clock,clock,0,0510_s5n_s08_0_clock_00_clock4-car2.png
subject-08,1,511,0.894834041595459,elephant,elephant,0,0511_s5n_s08_0_elephant_00_elephant9-boat3.png
subject-08,1,512,1.03872585296631,keyboard,keyboard,0,0512_s5n_s08_0_keyboard_00_keyboard7-car3.png
subject-08,1,513,0.765694141387939,clock,keyboard,0,0513_s5n_s08_0_keyboard_00_keyboard2-elephant1.png
subject-08,1,514,0.77371883392334,knife,keyboard,0,0514_s5n_s08_0_keyboard_00_keyboard3-car2.png
subject-08,1,515,0.759330987930298,keyboard,keyboard,0,0515_s5n_s08_0_keyboard_00_keyboard6-elephant1.png
subject-08,1,516,0.648746013641357,bird,bird,0,0516_s5n_s08_0_bird_00_bird2-car3.png
subject-08,1,517,0.762968778610229,chair,chair,0,0517_s5n_s08_0_chair_00_chair1-oven3.png
subject-08,1,518,0.764893054962158,keyboard,airplane,0,0518_s5n_s08_0_airplane_00_airplane9-keyboard2.png
subject-08,1,519,0.840734004974365,bird,bird,0,0519_s5n_s08_0_bird_00_bird10-cat1.png
subject-08,1,520,0.53792405128479,oven,oven,0,0520_s5n_s08_0_oven_00_oven9-bear2.png
subject-08,1,521,0.887702941894531,bicycle,bicycle,0,0521_s5n_s08_0_bicycle_00_bicycle4-car2.png
subject-08,1,522,0.871618032455444,clock,clock,0,0522_s5n_s08_0_clock_00_clock2-bear2.png
subject-08,1,523,1.11482214927673,bear,bear,0,0523_s5n_s08_0_bear_00_bear4-elephant2.png
subject-08,1,524,0.804574012756348,bear,bear,0,0524_s5n_s08_0_bear_00_bear8-elephant2.png
subject-08,1,525,0.734834909439087,truck,truck,0,0525_s5n_s08_0_truck_00_truck8-bottle2.png
subject-08,1,526,1.23236513137817,chair,chair,0,0526_s5n_s08_0_chair_00_chair1-cat3.png
subject-08,1,527,0.830379962921143,bear,bear,0,0527_s5n_s08_0_bear_00_bear2-elephant1.png
subject-08,1,528,1.50029516220093,car,airplane,0,0528_s5n_s08_0_airplane_00_airplane10-car3.png
subject-08,1,529,1.33400702476501,airplane,airplane,0,0529_s5n_s08_0_airplane_00_airplane4-car1.png
subject-08,1,530,1.07286691665649,knife,knife,0,0530_s5n_s08_0_knife_00_knife1-dog1.png
subject-08,1,531,1.146479845047,keyboard,truck,0,0531_s5n_s08_0_truck_00_truck7-elephant2.png
subject-08,1,532,0.776103973388672,truck,truck,0,0532_s5n_s08_0_truck_00_truck6-bottle3.png
subject-08,1,533,0.965548038482666,dog,dog,0,0533_s5n_s08_0_dog_00_dog2-cat1.png
subject-08,1,534,0.770664930343628,bicycle,bicycle,0,0534_s5n_s08_0_bicycle_00_bicycle8-bear2.png
subject-08,1,535,0.84451699256897,chair,chair,0,0535_s5n_s08_0_chair_00_chair7-chair1.png
subject-08,1,536,1.47393202781677,keyboard,elephant,0,0536_s5n_s08_0_elephant_00_elephant10-knife3.png
subject-08,1,537,0.847552061080933,car,dog,0,0537_s5n_s08_0_dog_00_dog5-truck2.png
subject-08,1,538,0.993357181549072,truck,elephant,0,0538_s5n_s08_0_elephant_00_elephant4-chair3.png
subject-08,1,539,0.654108047485352,car,car,0,0539_s5n_s08_0_car_00_car1-clock2.png
subject-08,1,540,0.697973966598511,car,car,0,0540_s5n_s08_0_car_00_car8-truck3.png
subject-08,1,541,0.895347118377686,car,car,0,0541_s5n_s08_0_car_00_car10-dog1.png
subject-08,1,542,1.07112884521484,car,bear,0,0542_s5n_s08_0_bear_00_bear4-truck3.png
subject-08,1,543,1.08220982551575,car,car,0,0543_s5n_s08_0_car_00_car5-bear3.png
subject-08,1,544,0.766633987426758,bottle,bottle,0,0544_s5n_s08_0_bottle_00_bottle10-bear2.png
subject-08,1,545,0.680445909500122,oven,oven,0,0545_s5n_s08_0_oven_00_oven4-keyboard3.png
subject-08,1,546,1.28575396537781,boat,boat,0,0546_s5n_s08_0_boat_00_boat7-boat2.png
subject-08,1,547,0.999917030334473,truck,truck,0,0547_s5n_s08_0_truck_00_truck8-elephant1.png
subject-08,1,548,1.2981960773468,truck,truck,0,0548_s5n_s08_0_truck_00_truck2-elephant1.png
subject-08,1,549,0.650064945220947,car,car,0,0549_s5n_s08_0_car_00_car5-cat1.png
subject-08,1,550,0.871861934661865,truck,truck,0,0550_s5n_s08_0_truck_00_truck3-bird2.png
subject-08,1,551,0.839730024337769,dog,dog,0,0551_s5n_s08_0_dog_00_dog2-dog3.png
subject-08,1,552,0.942814826965332,bottle,bottle,0,0552_s5n_s08_0_bottle_00_bottle5-cat1.png
subject-08,1,553,0.848848104476929,airplane,airplane,0,0553_s5n_s08_0_airplane_00_airplane1-clock1.png
subject-08,1,554,1.50011897087097,clock,bird,0,0554_s5n_s08_0_bird_00_bird3-oven1.png
subject-08,1,555,0.792159080505371,elephant,elephant,0,0555_s5n_s08_0_elephant_00_elephant1-oven2.png
subject-08,1,556,0.76568603515625,bicycle,bicycle,0,0556_s5n_s08_0_bicycle_00_bicycle2-knife2.png
subject-08,1,557,1.07392907142639,elephant,elephant,0,0557_s5n_s08_0_elephant_00_elephant9-airplane2.png
subject-08,1,558,0.579687118530273,clock,clock,0,0558_s5n_s08_0_clock_00_clock8-chair2.png
subject-08,1,559,0.986250162124634,airplane,knife,0,0559_s5n_s08_0_knife_00_knife3-keyboard3.png
subject-08,1,560,0.821418046951294,chair,chair,0,0560_s5n_s08_0_chair_00_chair1-clock2.png
subject-08,1,561,0.743532180786133,truck,truck,0,0561_s5n_s08_0_truck_00_truck5-airplane2.png
subject-08,1,562,0.549593925476074,bottle,bottle,0,0562_s5n_s08_0_bottle_00_bottle3-bicycle3.png
subject-08,1,563,0.808181047439575,boat,boat,0,0563_s5n_s08_0_boat_00_boat9-cat3.png
subject-08,1,564,1.50003600120544,bear,bear,0,0564_s5n_s08_0_bear_00_bear3-bicycle2.png
subject-08,1,565,0.603789091110229,oven,oven,0,0565_s5n_s08_0_oven_00_oven10-bicycle1.png
subject-08,1,566,0.747884035110474,bird,bird,0,0566_s5n_s08_0_bird_00_bird3-truck3.png
subject-08,1,567,0.637012004852295,bird,bird,0,0567_s5n_s08_0_bird_00_bird5-airplane3.png
subject-08,1,568,0.726486206054688,bird,bird,0,0568_s5n_s08_0_bird_00_bird5-oven3.png
subject-08,1,569,1.11567401885986,bottle,bottle,0,0569_s5n_s08_0_bottle_00_bottle3-boat3.png
subject-08,1,570,0.808020114898682,airplane,boat,0,0570_s5n_s08_0_boat_00_boat2-bear3.png
subject-08,1,571,1.50009393692017,bicycle,bicycle,0,0571_s5n_s08_0_bicycle_00_bicycle9-airplane2.png
subject-08,1,572,1.24548697471619,bear,bear,0,0572_s5n_s08_0_bear_00_bear5-boat2.png
subject-08,1,573,1.01319217681885,oven,chair,0,0573_s5n_s08_0_chair_00_chair6-bird2.png
subject-08,1,574,1.04289793968201,bear,bear,0,0574_s5n_s08_0_bear_00_bear8-bicycle3.png
subject-08,1,575,0.565122127532959,clock,clock,0,0575_s5n_s08_0_clock_00_clock4-airplane1.png
subject-08,1,576,0.516772985458374,bird,bird,0,0576_s5n_s08_0_bird_00_bird8-bottle1.png
subject-08,1,577,0.860743999481201,cat,cat,0,0577_s5n_s08_0_cat_00_cat4-bird2.png
subject-08,1,578,1.49075698852539,bicycle,bicycle,0,0578_s5n_s08_0_bicycle_00_bicycle4-oven3.png
subject-08,1,579,0.912178039550781,knife,keyboard,0,0579_s5n_s08_0_keyboard_00_keyboard10-keyboard1.png
subject-08,1,580,0.602160215377808,oven,oven,0,0580_s5n_s08_0_oven_00_oven3-airplane1.png
subject-08,1,581,0.545440912246704,boat,boat,0,0581_s5n_s08_0_boat_00_boat9-boat3.png
subject-08,1,582,0.659444808959961,bottle,bottle,0,0582_s5n_s08_0_bottle_00_bottle3-chair3.png
subject-08,1,583,0.761964082717896,elephant,elephant,0,0583_s5n_s08_0_elephant_00_elephant5-bicycle3.png
subject-08,1,584,1.23832106590271,car,car,0,0584_s5n_s08_0_car_00_car1-car2.png
subject-08,1,585,0.675307035446167,car,boat,0,0585_s5n_s08_0_boat_00_boat1-car2.png
subject-08,1,586,0.681883096694946,chair,chair,0,0586_s5n_s08_0_chair_00_chair2-boat1.png
subject-08,1,587,1.03312683105469,bear,bear,0,0587_s5n_s08_0_bear_00_bear9-bottle2.png
subject-08,1,588,0.761140823364258,truck,truck,0,0588_s5n_s08_0_truck_00_truck2-keyboard1.png
subject-08,1,589,0.6825110912323,truck,truck,0,0589_s5n_s08_0_truck_00_truck6-bear2.png
subject-08,1,590,0.804553031921387,truck,cat,0,0590_s5n_s08_0_cat_00_cat3-oven2.png
subject-08,1,591,0.702593088150024,chair,chair,0,0591_s5n_s08_0_chair_00_chair5-bottle3.png
subject-08,1,592,0.848886013031006,bird,bird,0,0592_s5n_s08_0_bird_00_bird5-bear3.png
subject-08,1,593,0.722744941711426,car,car,0,0593_s5n_s08_0_car_00_car9-truck3.png
subject-08,1,594,0.898490905761719,chair,chair,0,0594_s5n_s08_0_chair_00_chair8-bicycle3.png
subject-08,1,595,0.734477043151855,bottle,bottle,0,0595_s5n_s08_0_bottle_00_bottle4-oven2.png
subject-08,1,596,0.626765966415405,bottle,airplane,0,0596_s5n_s08_0_airplane_00_airplane5-knife1.png
subject-08,1,597,0.602845907211304,cat,cat,0,0597_s5n_s08_0_cat_00_cat5-airplane2.png
subject-08,1,598,1.21438193321228,bird,bird,0,0598_s5n_s08_0_bird_00_bird6-bottle3.png
subject-08,1,599,1.15799689292908,bird,bird,0,0599_s5n_s08_0_bird_00_bird2-clock3.png
subject-08,1,600,0.650119066238403,oven,oven,0,0600_s5n_s08_0_oven_00_oven2-bear3.png
subject-08,1,601,0.809529066085815,bird,dog,0,0601_s5n_s08_0_dog_00_dog4-bicycle1.png
subject-08,1,602,0.661200046539307,cat,cat,0,0602_s5n_s08_0_cat_00_cat5-bear2.png
subject-08,1,603,0.653311967849731,cat,bird,0,0603_s5n_s08_0_bird_00_bird3-bird2.png
subject-08,1,604,1.08970499038696,dog,dog,0,0604_s5n_s08_0_dog_00_dog5-boat3.png
subject-08,1,605,0.695333003997803,bear,bear,0,0605_s5n_s08_0_bear_00_bear2-bird3.png
subject-08,1,606,0.978609800338745,dog,dog,0,0606_s5n_s08_0_dog_00_dog2-bicycle2.png
subject-08,1,607,0.753060102462769,cat,cat,0,0607_s5n_s08_0_cat_00_cat6-bear1.png
subject-08,1,608,0.774577140808105,oven,bicycle,0,0608_s5n_s08_0_bicycle_00_bicycle9-keyboard3.png
subject-08,1,609,0.950528860092163,keyboard,keyboard,0,0609_s5n_s08_0_keyboard_00_keyboard8-cat3.png
subject-08,1,610,0.748726844787598,clock,clock,0,0610_s5n_s08_0_clock_00_clock8-airplane2.png
subject-08,1,611,1.24626493453979,knife,elephant,0,0611_s5n_s08_0_elephant_00_elephant2-keyboard3.png
subject-08,1,612,1.05214905738831,bird,boat,0,0612_s5n_s08_0_boat_00_boat10-bear3.png
subject-08,1,613,0.728971004486084,chair,chair,0,0613_s5n_s08_0_chair_00_chair8-elephant1.png
subject-08,1,614,1.16498112678528,chair,boat,0,0614_s5n_s08_0_boat_00_boat7-chair1.png
subject-08,1,615,0.948229074478149,knife,knife,0,0615_s5n_s08_0_knife_00_knife1-elephant1.png
subject-08,1,616,0.854197025299072,chair,chair,0,0616_s5n_s08_0_chair_00_chair1-airplane2.png
subject-08,1,617,1.0278651714325,keyboard,keyboard,0,0617_s5n_s08_0_keyboard_00_keyboard2-bottle1.png
subject-08,1,618,0.749256134033203,bear,bear,0,0618_s5n_s08_0_bear_00_bear9-knife2.png
subject-08,1,619,0.717216968536377,bird,cat,0,0619_s5n_s08_0_cat_00_cat10-bird2.png
subject-08,1,620,0.538674116134644,clock,clock,0,0620_s5n_s08_0_clock_00_clock7-bear2.png
subject-08,1,621,0.953171968460083,bird,chair,0,0621_s5n_s08_0_chair_00_chair5-cat3.png
subject-08,1,622,0.926450967788696,dog,dog,0,0622_s5n_s08_0_dog_00_dog5-car3.png
subject-08,1,623,1.2156138420105,chair,chair,0,0623_s5n_s08_0_chair_00_chair8-clock3.png
subject-08,1,624,0.62916088104248,keyboard,keyboard,0,0624_s5n_s08_0_keyboard_00_keyboard8-oven1.png
subject-08,1,625,0.896382093429565,keyboard,oven,0,0625_s5n_s08_0_oven_00_oven8-keyboard3.png
subject-08,1,626,0.732553005218506,car,knife,0,0626_s5n_s08_0_knife_00_knife7-bird3.png
subject-08,1,627,1.09209203720093,cat,oven,0,0627_s5n_s08_0_oven_00_oven9-knife3.png
subject-08,1,628,0.805444002151489,dog,dog,0,0628_s5n_s08_0_dog_00_dog4-bird1.png
subject-08,1,629,0.605682134628296,chair,chair,0,0629_s5n_s08_0_chair_00_chair8-knife2.png
subject-08,1,630,0.855055093765259,airplane,clock,0,0630_s5n_s08_0_clock_00_clock9-keyboard2.png
subject-08,1,631,1.23863911628723,keyboard,keyboard,0,0631_s5n_s08_0_keyboard_00_keyboard5-airplane3.png
subject-08,1,632,NaN,na,cat,0,0632_s5n_s08_0_cat_00_cat7-truck2.png
subject-08,1,633,0.700831890106201,bottle,bottle,0,0633_s5n_s08_0_bottle_00_bottle1-chair2.png
subject-08,1,634,0.776288032531738,airplane,airplane,0,0634_s5n_s08_0_airplane_00_airplane7-bottle3.png
subject-08,1,635,0.74991512298584,clock,clock,0,0635_s5n_s08_0_clock_00_clock9-airplane1.png
subject-08,1,636,0.71727991104126,airplane,knife,0,0636_s5n_s08_0_knife_00_knife10-bear3.png
subject-08,1,637,0.698778867721558,boat,boat,0,0637_s5n_s08_0_boat_00_boat9-chair2.png
subject-08,1,638,0.665973901748657,clock,clock,0,0638_s5n_s08_0_clock_00_clock6-oven1.png
subject-08,1,639,0.771697998046875,chair,chair,0,0639_s5n_s08_0_chair_00_chair7-cat1.png
subject-08,1,640,0.647769927978516,oven,oven,0,0640_s5n_s08_0_oven_00_oven5-bottle3.png
subject-08,1,641,1.19215893745422,car,car,0,0641_s5n_s08_0_car_00_car7-bear1.png
subject-08,1,642,0.859065771102905,bottle,bottle,0,0642_s5n_s08_0_bottle_00_bottle5-keyboard2.png
subject-08,1,643,1.12529110908508,chair,chair,0,0643_s5n_s08_0_chair_00_chair1-bear1.png
subject-08,1,644,1.20057892799377,boat,truck,0,0644_s5n_s08_0_truck_00_truck10-airplane1.png
subject-08,1,645,0.667788028717041,bicycle,bicycle,0,0645_s5n_s08_0_bicycle_00_bicycle1-bottle3.png
subject-08,1,646,0.879536151885986,dog,dog,0,0646_s5n_s08_0_dog_00_dog4-airplane3.png
subject-08,1,647,0.87105393409729,car,bear,0,0647_s5n_s08_0_bear_00_bear4-boat2.png
subject-08,1,648,0.693938970565796,bottle,bottle,0,0648_s5n_s08_0_bottle_00_bottle9-cat2.png
subject-08,1,649,0.728960990905762,knife,knife,0,0649_s5n_s08_0_knife_00_knife2-bicycle3.png
subject-08,1,650,0.864315986633301,bicycle,bicycle,0,0650_s5n_s08_0_bicycle_00_bicycle2-keyboard2.png
subject-08,1,651,0.729238033294678,bear,bear,0,0651_s5n_s08_0_bear_00_bear3-chair2.png
subject-08,1,652,0.680616140365601,cat,knife,0,0652_s5n_s08_0_knife_00_knife6-oven3.png
subject-08,1,653,0.840420007705688,clock,clock,0,0653_s5n_s08_0_clock_00_clock3-car2.png
subject-08,1,654,0.770270824432373,oven,oven,0,0654_s5n_s08_0_oven_00_oven3-elephant3.png
subject-08,1,655,0.559547185897827,clock,clock,0,0655_s5n_s08_0_clock_00_clock4-elephant2.png
subject-08,1,656,0.719078063964844,car,car,0,0656_s5n_s08_0_car_00_car6-bicycle3.png
subject-08,1,657,0.816630840301514,boat,bicycle,0,0657_s5n_s08_0_bicycle_00_bicycle10-clock2.png
subject-08,1,658,1.26865005493164,keyboard,keyboard,0,0658_s5n_s08_0_keyboard_00_keyboard1-bird2.png
subject-08,1,659,0.740495920181274,dog,dog,0,0659_s5n_s08_0_dog_00_dog1-bear1.png
subject-08,1,660,0.697350025177002,bottle,keyboard,0,0660_s5n_s08_0_keyboard_00_keyboard10-oven3.png
subject-08,1,661,0.856512069702148,knife,knife,0,0661_s5n_s08_0_knife_00_knife9-bear3.png
subject-08,1,662,1.19224500656128,keyboard,dog,0,0662_s5n_s08_0_dog_00_dog9-car1.png
subject-08,1,663,1.17407417297363,bicycle,bicycle,0,0663_s5n_s08_0_bicycle_00_bicycle1-bicycle3.png
subject-08,1,664,0.67930006980896,bear,bear,0,0664_s5n_s08_0_bear_00_bear2-cat2.png
subject-08,1,665,1.02234601974487,bird,bird,0,0665_s5n_s08_0_bird_00_bird3-dog1.png
subject-08,1,666,0.614601135253906,bear,bear,0,0666_s5n_s08_0_bear_00_bear8-knife3.png
subject-08,1,667,1.36388611793518,airplane,dog,0,0667_s5n_s08_0_dog_00_dog7-oven2.png
subject-08,1,668,0.86358380317688,truck,truck,0,0668_s5n_s08_0_truck_00_truck5-truck1.png
subject-08,1,669,NaN,na,knife,0,0669_s5n_s08_0_knife_00_knife4-keyboard1.png
subject-08,1,670,0.942706823348999,clock,clock,0,0670_s5n_s08_0_clock_00_clock3-bear3.png
subject-08,1,671,0.826231002807617,bear,bear,0,0671_s5n_s08_0_bear_00_bear8-dog1.png
subject-08,1,672,0.96799111366272,chair,chair,0,0672_s5n_s08_0_chair_00_chair9-elephant1.png
subject-08,1,673,0.550310134887695,chair,chair,0,0673_s5n_s08_0_chair_00_chair3-airplane2.png
subject-08,1,674,0.791741132736206,bicycle,bicycle,0,0674_s5n_s08_0_bicycle_00_bicycle1-dog3.png
subject-08,1,675,1.24378895759583,bird,elephant,0,0675_s5n_s08_0_elephant_00_elephant7-bird1.png
subject-08,1,676,1.1188280582428,knife,knife,0,0676_s5n_s08_0_knife_00_knife8-bottle3.png
subject-08,1,677,0.824444055557251,boat,boat,0,0677_s5n_s08_0_boat_00_boat9-bear3.png
subject-08,1,678,0.754258155822754,clock,clock,0,0678_s5n_s08_0_clock_00_clock9-bird2.png
subject-08,1,679,0.574004173278809,oven,oven,0,0679_s5n_s08_0_oven_00_oven9-chair1.png
subject-08,1,680,1.01821517944336,bicycle,boat,0,0680_s5n_s08_0_boat_00_boat7-clock3.png
subject-08,1,681,0.826060771942139,chair,chair,0,0681_s5n_s08_0_chair_00_chair8-bear1.png
subject-08,1,682,0.583431005477905,bicycle,bicycle,0,0682_s5n_s08_0_bicycle_00_bicycle4-clock3.png
subject-08,1,683,0.681355953216553,oven,bottle,0,0683_s5n_s08_0_bottle_00_bottle6-dog3.png
subject-08,1,684,0.861121892929077,clock,elephant,0,0684_s5n_s08_0_elephant_00_elephant6-truck3.png
subject-08,1,685,0.881221055984497,dog,dog,0,0685_s5n_s08_0_dog_00_dog10-dog1.png
subject-08,1,686,0.810577869415283,bird,bird,0,0686_s5n_s08_0_bird_00_bird4-cat3.png
subject-08,1,687,0.866612911224365,dog,dog,0,0687_s5n_s08_0_dog_00_dog3-clock1.png
subject-08,1,688,0.743247032165527,chair,chair,0,0688_s5n_s08_0_chair_00_chair8-keyboard3.png
subject-08,1,689,0.602223873138428,clock,clock,0,0689_s5n_s08_0_clock_00_clock2-elephant2.png
subject-08,1,690,1.18401408195496,truck,truck,0,0690_s5n_s08_0_truck_00_truck6-cat2.png
subject-08,1,691,0.727524042129517,oven,car,0,0691_s5n_s08_0_car_00_car9-bird1.png
subject-08,1,692,0.70560097694397,truck,truck,0,0692_s5n_s08_0_truck_00_truck1-cat1.png
subject-08,1,693,0.511394023895264,truck,truck,0,0693_s5n_s08_0_truck_00_truck7-chair2.png
subject-08,1,694,0.532932996749878,bird,bird,0,0694_s5n_s08_0_bird_00_bird5-bird1.png
subject-08,1,695,0.597285032272339,chair,chair,0,0695_s5n_s08_0_chair_00_chair9-chair3.png
subject-08,1,696,0.732733964920044,bear,elephant,0,0696_s5n_s08_0_elephant_00_elephant1-keyboard3.png
subject-08,1,697,0.70088005065918,airplane,airplane,0,0697_s5n_s08_0_airplane_00_airplane4-bird3.png
subject-08,1,698,0.660243988037109,elephant,elephant,0,0698_s5n_s08_0_elephant_00_elephant10-elephant1.png
subject-08,1,699,0.687707901000977,oven,oven,0,0699_s5n_s08_0_oven_00_oven10-bear1.png
subject-08,1,700,0.609986066818237,oven,oven,0,0700_s5n_s08_0_oven_00_oven5-dog3.png
subject-08,1,701,1.01991081237793,elephant,elephant,0,0701_s5n_s08_0_elephant_00_elephant8-elephant1.png
subject-08,1,702,0.942853927612305,dog,dog,0,0702_s5n_s08_0_dog_00_dog8-bottle2.png
subject-08,1,703,0.732086896896362,bicycle,bicycle,0,0703_s5n_s08_0_bicycle_00_bicycle7-knife2.png
subject-08,1,704,0.597200155258179,clock,clock,0,0704_s5n_s08_0_clock_00_clock8-cat1.png
subject-08,1,705,0.627017974853516,car,knife,0,0705_s5n_s08_0_knife_00_knife4-car2.png
subject-08,1,706,0.570327043533325,truck,truck,0,0706_s5n_s08_0_truck_00_truck9-truck3.png
subject-08,1,707,1.01523089408875,airplane,knife,0,0707_s5n_s08_0_knife_00_knife4-oven2.png
subject-08,1,708,1.17502903938293,cat,dog,0,0708_s5n_s08_0_dog_00_dog3-elephant2.png
subject-08,1,709,1.17675399780273,keyboard,keyboard,0,0709_s5n_s08_0_keyboard_00_keyboard6-knife2.png
subject-08,1,710,1.45281791687012,elephant,elephant,0,0710_s5n_s08_0_elephant_00_elephant4-boat3.png
subject-08,1,711,0.650343894958496,car,car,0,0711_s5n_s08_0_car_00_car7-airplane2.png
subject-08,1,712,0.739496946334839,elephant,elephant,0,0712_s5n_s08_0_elephant_00_elephant6-knife2.png
subject-08,1,713,0.628973007202148,airplane,airplane,0,0713_s5n_s08_0_airplane_00_airplane2-bottle1.png
subject-08,1,714,1.33521604537964,elephant,elephant,0,0714_s5n_s08_0_elephant_00_elephant4-oven1.png
subject-08,1,715,0.760921955108643,truck,truck,0,0715_s5n_s08_0_truck_00_truck1-bird1.png
subject-08,1,716,0.605084896087646,chair,chair,0,0716_s5n_s08_0_chair_00_chair8-airplane1.png
subject-08,1,717,1.03266215324402,bottle,bottle,0,0717_s5n_s08_0_bottle_00_bottle7-clock1.png
subject-08,1,718,0.746011972427368,car,car,0,0718_s5n_s08_0_car_00_car7-oven2.png
subject-08,1,719,0.813547849655151,cat,cat,0,0719_s5n_s08_0_cat_00_cat4-dog3.png
subject-08,1,720,1.08753395080566,keyboard,boat,0,0720_s5n_s08_0_boat_00_boat4-boat3.png
subject-08,1,721,1.36336994171143,airplane,airplane,0,0721_s5n_s08_0_airplane_00_airplane3-car1.png
subject-08,1,722,1.12302112579346,dog,dog,0,0722_s5n_s08_0_dog_00_dog3-keyboard1.png
subject-08,1,723,0.950329065322876,oven,oven,0,0723_s5n_s08_0_oven_00_oven4-knife2.png
subject-08,1,724,1.00985097885132,keyboard,clock,0,0724_s5n_s08_0_clock_00_clock10-truck2.png
subject-08,1,725,1.02398586273193,car,bird,0,0725_s5n_s08_0_bird_00_bird3-knife3.png
subject-08,1,726,1.07522296905518,oven,chair,0,0726_s5n_s08_0_chair_00_chair9-keyboard2.png
subject-08,1,727,0.675127029418945,bicycle,bicycle,0,0727_s5n_s08_0_bicycle_00_bicycle3-truck3.png
subject-08,1,728,0.702847957611084,chair,chair,0,0728_s5n_s08_0_chair_00_chair5-bicycle1.png
subject-08,1,729,0.553920030593872,clock,clock,0,0729_s5n_s08_0_clock_00_clock4-chair1.png
subject-08,1,730,0.627423048019409,bottle,bottle,0,0730_s5n_s08_0_bottle_00_bottle2-clock1.png
subject-08,1,731,0.740238904953003,keyboard,keyboard,0,0731_s5n_s08_0_keyboard_00_keyboard8-dog3.png
subject-08,1,732,0.862767934799194,chair,car,0,0732_s5n_s08_0_car_00_car1-chair3.png
subject-08,1,733,1.43563985824585,car,car,0,0733_s5n_s08_0_car_00_car9-bicycle2.png
subject-08,1,734,0.717412948608398,bottle,bottle,0,0734_s5n_s08_0_bottle_00_bottle1-car1.png
subject-08,1,735,0.806401014328003,dog,dog,0,0735_s5n_s08_0_dog_00_dog9-bottle1.png
subject-08,1,736,0.704286098480225,bear,bear,0,0736_s5n_s08_0_bear_00_bear4-oven2.png
subject-08,1,737,0.687554836273193,bottle,bottle,0,0737_s5n_s08_0_bottle_00_bottle1-bear1.png
subject-08,1,738,1.11433100700378,car,oven,0,0738_s5n_s08_0_oven_00_oven5-bird1.png
subject-08,1,739,0.688422203063965,truck,truck,0,0739_s5n_s08_0_truck_00_truck3-clock3.png
subject-08,1,740,0.77231502532959,truck,truck,0,0740_s5n_s08_0_truck_00_truck3-dog3.png
subject-08,1,741,1.36162900924683,chair,oven,0,0741_s5n_s08_0_oven_00_oven7-bottle1.png
subject-08,1,742,1.31387400627136,oven,cat,0,0742_s5n_s08_0_cat_00_cat10-oven2.png
subject-08,1,743,0.679105043411255,truck,truck,0,0743_s5n_s08_0_truck_00_truck10-car3.png
subject-08,1,744,0.555358171463013,chair,chair,0,0744_s5n_s08_0_chair_00_chair6-dog1.png
subject-08,1,745,0.523242950439453,bear,bear,0,0745_s5n_s08_0_bear_00_bear7-clock1.png
subject-08,1,746,0.658921003341675,boat,boat,0,0746_s5n_s08_0_boat_00_boat1-bird3.png
subject-08,1,747,0.596194982528687,chair,chair,0,0747_s5n_s08_0_chair_00_chair4-cat2.png
subject-08,1,748,0.562464952468872,bicycle,bicycle,0,0748_s5n_s08_0_bicycle_00_bicycle1-oven1.png
subject-08,1,749,0.707750082015991,oven,oven,0,0749_s5n_s08_0_oven_00_oven3-truck1.png
subject-08,1,750,0.697035074234009,knife,knife,0,0750_s5n_s08_0_knife_00_knife1-bird2.png
subject-08,1,751,1.37112998962402,knife,knife,0,0751_s5n_s08_0_knife_00_knife6-truck1.png
subject-08,1,752,0.630642175674438,oven,bear,0,0752_s5n_s08_0_bear_00_bear6-boat3.png
subject-08,1,753,0.873937845230103,dog,dog,0,0753_s5n_s08_0_dog_00_dog10-bicycle1.png
subject-08,1,754,0.979276895523071,bear,bear,0,0754_s5n_s08_0_bear_00_bear10-knife2.png
subject-08,1,755,0.730826854705811,bicycle,bicycle,0,0755_s5n_s08_0_bicycle_00_bicycle6-car2.png
subject-08,1,756,0.936645984649658,keyboard,keyboard,0,0756_s5n_s08_0_keyboard_00_keyboard9-bear2.png
subject-08,1,757,0.734483957290649,oven,oven,0,0757_s5n_s08_0_oven_00_oven3-knife1.png
subject-08,1,758,0.908024072647095,bottle,bottle,0,0758_s5n_s08_0_bottle_00_bottle6-bear2.png
subject-08,1,759,0.745607137680054,oven,oven,0,0759_s5n_s08_0_oven_00_oven10-airplane2.png
subject-08,1,760,0.534708976745605,bottle,bottle,0,0760_s5n_s08_0_bottle_00_bottle9-keyboard1.png
subject-08,1,761,0.883435010910034,airplane,airplane,0,0761_s5n_s08_0_airplane_00_airplane10-elephant1.png
subject-08,1,762,0.805675029754639,bottle,bottle,0,0762_s5n_s08_0_bottle_00_bottle9-oven2.png
subject-08,1,763,0.873260974884033,chair,chair,0,0763_s5n_s08_0_chair_00_chair5-car1.png
subject-08,1,764,0.603044033050537,bear,cat,0,0764_s5n_s08_0_cat_00_cat9-knife2.png
subject-08,1,765,1.26125907897949,bird,bird,0,0765_s5n_s08_0_bird_00_bird4-clock1.png
subject-08,1,766,1.03698205947876,dog,dog,0,0766_s5n_s08_0_dog_00_dog4-keyboard2.png
subject-08,1,767,1.13434410095215,car,keyboard,0,0767_s5n_s08_0_keyboard_00_keyboard10-car1.png
subject-08,1,768,0.610180854797363,chair,chair,0,0768_s5n_s08_0_chair_00_chair10-bottle3.png
subject-08,1,769,0.822664976119995,bear,bear,0,0769_s5n_s08_0_bear_00_bear1-chair2.png
subject-08,1,770,0.720162868499756,bird,cat,0,0770_s5n_s08_0_cat_00_cat4-car2.png
subject-08,1,771,1.07169079780579,keyboard,keyboard,0,0771_s5n_s08_0_keyboard_00_keyboard6-car2.png
subject-08,1,772,0.663511991500854,bicycle,bicycle,0,0772_s5n_s08_0_bicycle_00_bicycle9-knife3.png
subject-08,1,773,0.475270986557007,cat,cat,0,0773_s5n_s08_0_cat_00_cat5-boat1.png
subject-08,1,774,0.566654920578003,chair,chair,0,0774_s5n_s08_0_chair_00_chair5-clock2.png
subject-08,1,775,0.570027828216553,chair,chair,0,0775_s5n_s08_0_chair_00_chair9-bicycle3.png
subject-08,1,776,0.77042293548584,keyboard,bird,0,0776_s5n_s08_0_bird_00_bird6-truck2.png
subject-08,1,777,1.22819495201111,bear,bear,0,0777_s5n_s08_0_bear_00_bear7-bear2.png
subject-08,1,778,0.549696922302246,chair,chair,0,0778_s5n_s08_0_chair_00_chair9-dog2.png
subject-08,1,779,0.655277967453003,bicycle,bicycle,0,0779_s5n_s08_0_bicycle_00_bicycle5-oven3.png
subject-08,1,780,0.97714900970459,elephant,elephant,0,0780_s5n_s08_0_elephant_00_elephant6-bottle2.png
subject-08,1,781,0.507621049880981,bird,bird,0,0781_s5n_s08_0_bird_00_bird2-dog2.png
subject-08,1,782,0.629303932189941,chair,chair,0,0782_s5n_s08_0_chair_00_chair3-dog2.png
subject-08,1,783,1.08660888671875,bottle,bottle,0,0783_s5n_s08_0_bottle_00_bottle1-bird3.png
subject-08,1,784,NaN,na,car,0,0784_s5n_s08_0_car_00_car2-bird3.png
subject-08,1,785,0.735543012619019,bear,bear,0,0785_s5n_s08_0_bear_00_bear4-knife1.png
subject-08,1,786,0.855058908462524,truck,oven,0,0786_s5n_s08_0_oven_00_oven7-keyboard1.png
subject-08,1,787,0.714600086212158,oven,keyboard,0,0787_s5n_s08_0_keyboard_00_keyboard10-airplane3.png
subject-08,1,788,1.1608681678772,airplane,airplane,0,0788_s5n_s08_0_airplane_00_airplane5-dog3.png
subject-08,1,789,0.625931024551392,truck,truck,0,0789_s5n_s08_0_truck_00_truck6-boat2.png
subject-08,1,790,0.61760401725769,bottle,bottle,0,0790_s5n_s08_0_bottle_00_bottle10-truck3.png
subject-08,1,791,0.507806062698364,oven,oven,0,0791_s5n_s08_0_oven_00_oven9-car2.png
subject-08,1,792,0.666439056396484,airplane,airplane,0,0792_s5n_s08_0_airplane_00_airplane9-clock1.png
subject-08,1,793,0.886045932769775,dog,dog,0,0793_s5n_s08_0_dog_00_dog4-chair1.png
subject-08,1,794,0.607372999191284,cat,cat,0,0794_s5n_s08_0_cat_00_cat8-bear1.png
subject-08,1,795,0.818763971328735,chair,chair,0,0795_s5n_s08_0_chair_00_chair3-bottle3.png
subject-08,1,796,1.01639890670776,oven,airplane,0,0796_s5n_s08_0_airplane_00_airplane4-truck2.png
subject-08,1,797,0.861776828765869,airplane,knife,0,0797_s5n_s08_0_knife_00_knife5-clock1.png
subject-08,1,798,1.48203682899475,truck,truck,0,0798_s5n_s08_0_truck_00_truck2-boat3.png
subject-08,1,799,0.949187994003296,clock,clock,0,0799_s5n_s08_0_clock_00_clock6-bicycle1.png
subject-08,1,800,1.30139684677124,bicycle,bicycle,0,0800_s5n_s08_0_bicycle_00_bicycle1-clock3.png
subject-08,1,801,0.936740159988403,cat,boat,0,0801_s5n_s08_0_boat_00_boat1-keyboard3.png
subject-08,1,802,0.606942176818848,chair,chair,0,0802_s5n_s08_0_chair_00_chair7-knife2.png
subject-08,1,803,1.00476884841919,dog,dog,0,0803_s5n_s08_0_dog_00_dog5-elephant1.png
subject-08,1,804,1.27040314674377,bicycle,bicycle,0,0804_s5n_s08_0_bicycle_00_bicycle5-bear1.png
subject-08,1,805,0.769975900650024,boat,boat,0,0805_s5n_s08_0_boat_00_boat9-dog2.png
subject-08,1,806,0.520910024642944,boat,boat,0,0806_s5n_s08_0_boat_00_boat8-bird2.png
subject-08,1,807,0.760571956634521,car,car,0,0807_s5n_s08_0_car_00_car7-boat3.png
subject-08,1,808,1.35845708847046,bird,bird,0,0808_s5n_s08_0_bird_00_bird7-oven3.png
subject-08,1,809,0.83392596244812,bird,bird,0,0809_s5n_s08_0_bird_00_bird6-airplane2.png
subject-08,1,810,0.793735027313232,car,car,0,0810_s5n_s08_0_car_00_car4-bird1.png
subject-08,1,811,0.822894811630249,knife,knife,0,0811_s5n_s08_0_knife_00_knife3-cat1.png
subject-08,1,812,0.761388063430786,car,car,0,0812_s5n_s08_0_car_00_car2-car3.png
subject-08,1,813,0.881837129592896,truck,truck,0,0813_s5n_s08_0_truck_00_truck5-keyboard1.png
subject-08,1,814,1.06199407577515,knife,bird,0,0814_s5n_s08_0_bird_00_bird3-bottle2.png
subject-08,1,815,0.838415145874023,bicycle,bicycle,0,0815_s5n_s08_0_bicycle_00_bicycle1-boat3.png
subject-08,1,816,0.960105895996094,keyboard,keyboard,0,0816_s5n_s08_0_keyboard_00_keyboard5-bird3.png
subject-08,1,817,0.657649040222168,bicycle,bicycle,0,0817_s5n_s08_0_bicycle_00_bicycle7-bicycle2.png
subject-08,1,818,0.445856094360352,clock,clock,0,0818_s5n_s08_0_clock_00_clock7-bicycle1.png
subject-08,1,819,0.973026037216187,knife,knife,0,0819_s5n_s08_0_knife_00_knife5-keyboard3.png
subject-08,1,820,0.686857938766479,car,knife,0,0820_s5n_s08_0_knife_00_knife1-truck2.png
subject-08,1,821,NaN,na,dog,0,0821_s5n_s08_0_dog_00_dog1-airplane3.png
subject-08,1,822,0.789108991622925,bicycle,bicycle,0,0822_s5n_s08_0_bicycle_00_bicycle4-knife3.png
subject-08,1,823,0.535351991653442,boat,boat,0,0823_s5n_s08_0_boat_00_boat7-elephant3.png
subject-08,1,824,1.35487008094788,knife,elephant,0,0824_s5n_s08_0_elephant_00_elephant7-keyboard3.png
subject-08,1,825,0.946250915527344,truck,truck,0,0825_s5n_s08_0_truck_00_truck7-truck2.png
subject-08,1,826,0.843656063079834,bear,bear,0,0826_s5n_s08_0_bear_00_bear10-elephant1.png
subject-08,1,827,0.722232103347778,bear,elephant,0,0827_s5n_s08_0_elephant_00_elephant5-chair3.png
subject-08,1,828,0.579529047012329,oven,oven,0,0828_s5n_s08_0_oven_00_oven2-bicycle1.png
subject-08,1,829,0.763372898101807,bear,bear,0,0829_s5n_s08_0_bear_00_bear10-clock1.png
subject-08,1,830,0.663431882858276,cat,cat,0,0830_s5n_s08_0_cat_00_cat2-boat2.png
subject-08,1,831,0.723094940185547,knife,knife,0,0831_s5n_s08_0_knife_00_knife9-bird1.png
subject-08,1,832,0.79948902130127,knife,knife,0,0832_s5n_s08_0_knife_00_knife6-airplane1.png
subject-08,1,833,0.59639310836792,truck,truck,0,0833_s5n_s08_0_truck_00_truck2-car3.png
subject-08,1,834,0.894392013549805,truck,truck,0,0834_s5n_s08_0_truck_00_truck4-bear1.png
subject-08,1,835,0.640645027160645,clock,clock,0,0835_s5n_s08_0_clock_00_clock10-airplane1.png
subject-08,1,836,0.616479158401489,bear,bear,0,0836_s5n_s08_0_bear_00_bear3-dog3.png
subject-08,1,837,0.43867301940918,clock,clock,0,0837_s5n_s08_0_clock_00_clock6-bird3.png
subject-08,1,838,0.822600841522217,keyboard,keyboard,0,0838_s5n_s08_0_keyboard_00_keyboard8-keyboard2.png
subject-08,1,839,0.774606943130493,oven,oven,0,0839_s5n_s08_0_oven_00_oven5-airplane1.png
subject-08,1,840,0.620734930038452,oven,oven,0,0840_s5n_s08_0_oven_00_oven6-bear2.png
subject-08,1,841,0.474934101104736,clock,clock,0,0841_s5n_s08_0_clock_00_clock5-elephant2.png
subject-08,1,842,0.648181200027466,boat,boat,0,0842_s5n_s08_0_boat_00_boat1-bicycle2.png
subject-08,1,843,1.1232590675354,car,cat,0,0843_s5n_s08_0_cat_00_cat9-boat2.png
subject-08,1,844,0.561305999755859,bicycle,bicycle,0,0844_s5n_s08_0_bicycle_00_bicycle5-bottle3.png
subject-08,1,845,0.576208829879761,chair,chair,0,0845_s5n_s08_0_chair_00_chair7-bird1.png
subject-08,1,846,0.911900043487549,bird,bird,0,0846_s5n_s08_0_bird_00_bird6-oven1.png
subject-08,1,847,0.866384029388428,truck,truck,0,0847_s5n_s08_0_truck_00_truck3-knife2.png
subject-08,1,848,0.764248132705688,elephant,elephant,0,0848_s5n_s08_0_elephant_00_elephant3-knife1.png
subject-08,1,849,1.01597309112549,bird,airplane,0,0849_s5n_s08_0_airplane_00_airplane3-clock1.png
subject-08,1,850,1.00761914253235,bottle,bottle,0,0850_s5n_s08_0_bottle_00_bottle3-airplane2.png
subject-08,1,851,0.645576000213623,clock,clock,0,0851_s5n_s08_0_clock_00_clock6-clock2.png
subject-08,1,852,0.867147922515869,truck,truck,0,0852_s5n_s08_0_truck_00_truck6-dog2.png
subject-08,1,853,0.510453939437866,car,car,0,0853_s5n_s08_0_car_00_car8-bicycle2.png
subject-08,1,854,1.06988906860352,cat,cat,0,0854_s5n_s08_0_cat_00_cat5-bottle1.png
subject-08,1,855,0.661684989929199,bottle,bottle,0,0855_s5n_s08_0_bottle_00_bottle5-boat1.png
subject-08,1,856,0.635422945022583,bear,bear,0,0856_s5n_s08_0_bear_00_bear10-cat2.png
subject-08,1,857,1.46463894844055,cat,cat,0,0857_s5n_s08_0_cat_00_cat7-airplane2.png
subject-08,1,858,0.694342136383057,chair,chair,0,0858_s5n_s08_0_chair_00_chair10-airplane2.png
subject-08,1,859,1.05980491638184,bird,bird,0,0859_s5n_s08_0_bird_00_bird9-chair1.png
subject-08,1,860,1.07397198677063,dog,dog,0,0860_s5n_s08_0_dog_00_dog8-clock2.png
subject-08,1,861,0.781390905380249,chair,chair,0,0861_s5n_s08_0_chair_00_chair6-elephant2.png
subject-08,1,862,NaN,na,boat,0,0862_s5n_s08_0_boat_00_boat3-dog3.png
subject-08,1,863,0.647158861160278,oven,oven,0,0863_s5n_s08_0_oven_00_oven4-elephant3.png
subject-08,1,864,0.669386148452759,chair,airplane,0,0864_s5n_s08_0_airplane_00_airplane8-chair1.png
subject-08,1,865,0.485068798065186,cat,cat,0,0865_s5n_s08_0_cat_00_cat9-bird3.png
subject-08,1,866,0.787749052047729,keyboard,keyboard,0,0866_s5n_s08_0_keyboard_00_keyboard1-clock1.png
subject-08,1,867,0.77937912940979,chair,chair,0,0867_s5n_s08_0_chair_00_chair5-bird1.png
subject-08,1,868,0.500785112380981,clock,clock,0,0868_s5n_s08_0_clock_00_clock4-oven1.png
subject-08,1,869,0.699454069137573,chair,bird,0,0869_s5n_s08_0_bird_00_bird8-keyboard2.png
subject-08,1,870,1.04500699043274,bird,airplane,0,0870_s5n_s08_0_airplane_00_airplane4-cat3.png
subject-08,1,871,0.75021505355835,car,cat,0,0871_s5n_s08_0_cat_00_cat10-elephant3.png
subject-08,1,872,1.30203914642334,bird,bird,0,0872_s5n_s08_0_bird_00_bird9-dog2.png
subject-08,1,873,0.807754039764404,bottle,bottle,0,0873_s5n_s08_0_bottle_00_bottle6-bottle3.png
subject-08,1,874,NaN,na,dog,0,0874_s5n_s08_0_dog_00_dog5-oven1.png
subject-08,1,875,0.551203012466431,bottle,bottle,0,0875_s5n_s08_0_bottle_00_bottle8-elephant3.png
subject-08,1,876,0.935098171234131,car,car,0,0876_s5n_s08_0_car_00_car1-keyboard2.png
subject-08,1,877,0.956126928329468,elephant,elephant,0,0877_s5n_s08_0_elephant_00_elephant5-bear2.png
subject-08,1,878,0.829962015151978,knife,bottle,0,0878_s5n_s08_0_bottle_00_bottle1-keyboard3.png
subject-08,1,879,1.4978129863739,bottle,bottle,0,0879_s5n_s08_0_bottle_00_bottle7-oven2.png
subject-08,1,880,0.697974920272827,cat,bird,0,0880_s5n_s08_0_bird_00_bird7-boat1.png
subject-08,1,881,0.865554094314575,car,car,0,0881_s5n_s08_0_car_00_car10-keyboard2.png
subject-08,1,882,0.570649862289429,bird,bird,0,0882_s5n_s08_0_bird_00_bird1-airplane2.png
subject-08,1,883,0.592465877532959,bird,bear,0,0883_s5n_s08_0_bear_00_bear6-clock1.png
subject-08,1,884,0.57600998878479,bottle,bottle,0,0884_s5n_s08_0_bottle_00_bottle9-bicycle1.png
subject-08,1,885,1.01202487945557,car,car,0,0885_s5n_s08_0_car_00_car7-keyboard3.png
subject-08,1,886,0.695925951004028,car,car,0,0886_s5n_s08_0_car_00_car8-clock2.png
subject-08,1,887,0.625540018081665,cat,airplane,0,0887_s5n_s08_0_airplane_00_airplane3-keyboard2.png
subject-08,1,888,0.693367958068848,truck,truck,0,0888_s5n_s08_0_truck_00_truck10-elephant3.png
subject-08,1,889,0.882841110229492,knife,boat,0,0889_s5n_s08_0_boat_00_boat7-keyboard3.png
subject-08,1,890,0.828571081161499,elephant,elephant,0,0890_s5n_s08_0_elephant_00_elephant8-oven3.png
subject-08,1,891,0.926765918731689,bicycle,bicycle,0,0891_s5n_s08_0_bicycle_00_bicycle1-chair1.png
subject-08,1,892,0.656016111373901,cat,cat,0,0892_s5n_s08_0_cat_00_cat4-airplane1.png
subject-08,1,893,0.699030876159668,cat,cat,0,0893_s5n_s08_0_cat_00_cat7-bottle1.png
subject-08,1,894,1.08054804801941,keyboard,keyboard,0,0894_s5n_s08_0_keyboard_00_keyboard6-dog2.png
subject-08,1,895,1.3101761341095,cat,dog,0,0895_s5n_s08_0_dog_00_dog6-elephant2.png
subject-08,1,896,0.753935098648071,bird,boat,0,0896_s5n_s08_0_boat_00_boat6-bicycle2.png
subject-08,1,897,0.699963092803955,keyboard,keyboard,0,0897_s5n_s08_0_keyboard_00_keyboard3-elephant2.png
subject-08,1,898,0.613084077835083,keyboard,keyboard,0,0898_s5n_s08_0_keyboard_00_keyboard6-bicycle1.png
subject-08,1,899,0.818495988845825,dog,dog,0,0899_s5n_s08_0_dog_00_dog6-bird1.png
subject-08,1,900,0.478532075881958,clock,clock,0,0900_s5n_s08_0_clock_00_clock10-clock3.png
subject-08,1,901,0.632077932357788,dog,dog,0,0901_s5n_s08_0_dog_00_dog6-cat1.png
subject-08,1,902,0.843803882598877,chair,chair,0,0902_s5n_s08_0_chair_00_chair5-knife3.png
subject-08,1,903,0.735329866409302,truck,truck,0,0903_s5n_s08_0_truck_00_truck1-chair2.png
subject-08,1,904,0.862771987915039,keyboard,keyboard,0,0904_s5n_s08_0_keyboard_00_keyboard7-clock3.png
subject-08,1,905,0.584228992462158,boat,boat,0,0905_s5n_s08_0_boat_00_boat5-boat3.png
subject-08,1,906,0.567667961120605,car,car,0,0906_s5n_s08_0_car_00_car7-clock1.png
subject-08,1,907,0.864990949630737,truck,truck,0,0907_s5n_s08_0_truck_00_truck8-keyboard2.png
subject-08,1,908,0.508142948150635,bird,bird,0,0908_s5n_s08_0_bird_00_bird8-knife2.png
subject-08,1,909,0.962334156036377,elephant,elephant,0,0909_s5n_s08_0_elephant_00_elephant8-bird2.png
subject-08,1,910,0.746108055114746,keyboard,boat,0,0910_s5n_s08_0_boat_00_boat8-oven1.png
subject-08,1,911,0.958035945892334,airplane,airplane,0,0911_s5n_s08_0_airplane_00_airplane2-bird3.png
subject-08,1,912,0.725367069244385,elephant,elephant,0,0912_s5n_s08_0_elephant_00_elephant8-cat1.png
subject-08,1,913,1.32488393783569,truck,truck,0,0913_s5n_s08_0_truck_00_truck4-oven2.png
subject-08,1,914,0.638684034347534,cat,cat,0,0914_s5n_s08_0_cat_00_cat4-chair2.png
subject-08,1,915,0.782597064971924,bird,dog,0,0915_s5n_s08_0_dog_00_dog1-bird1.png
subject-08,1,916,0.796320915222168,oven,oven,0,0916_s5n_s08_0_oven_00_oven9-boat2.png
subject-08,1,917,1.07165193557739,keyboard,truck,0,0917_s5n_s08_0_truck_00_truck7-keyboard3.png
subject-08,1,918,0.823574066162109,bicycle,bicycle,0,0918_s5n_s08_0_bicycle_00_bicycle6-airplane2.png
subject-08,1,919,1.23241686820984,boat,keyboard,0,0919_s5n_s08_0_keyboard_00_keyboard9-cat1.png
subject-08,1,920,0.548552989959717,chair,chair,0,0920_s5n_s08_0_chair_00_chair5-boat3.png
subject-08,1,921,0.646834135055542,bicycle,dog,0,0921_s5n_s08_0_dog_00_dog7-chair2.png
subject-08,1,922,0.613898038864136,oven,oven,0,0922_s5n_s08_0_oven_00_oven5-bicycle1.png
subject-08,1,923,0.848887920379639,car,car,0,0923_s5n_s08_0_car_00_car5-keyboard3.png
subject-08,1,924,0.816863059997559,oven,airplane,0,0924_s5n_s08_0_airplane_00_airplane10-oven2.png
subject-08,1,925,0.746102094650269,boat,knife,0,0925_s5n_s08_0_knife_00_knife7-boat3.png
subject-08,1,926,0.513681888580322,clock,clock,0,0926_s5n_s08_0_clock_00_clock10-cat1.png
subject-08,1,927,0.919372081756592,oven,oven,0,0927_s5n_s08_0_oven_00_oven10-truck2.png
subject-08,1,928,0.678794145584106,chair,airplane,0,0928_s5n_s08_0_airplane_00_airplane5-oven3.png
subject-08,1,929,0.624224901199341,bottle,bottle,0,0929_s5n_s08_0_bottle_00_bottle6-oven3.png
subject-08,1,930,0.605204820632935,airplane,airplane,0,0930_s5n_s08_0_airplane_00_airplane2-bicycle1.png
subject-08,1,931,0.588798046112061,bicycle,bicycle,0,0931_s5n_s08_0_bicycle_00_bicycle10-dog3.png
subject-08,1,932,0.831924915313721,keyboard,keyboard,0,0932_s5n_s08_0_keyboard_00_keyboard2-clock1.png
subject-08,1,933,0.745368957519531,car,car,0,0933_s5n_s08_0_car_00_car3-airplane3.png
subject-08,1,934,0.781603097915649,bird,bird,0,0934_s5n_s08_0_bird_00_bird1-bicycle2.png
subject-08,1,935,0.751736879348755,cat,cat,0,0935_s5n_s08_0_cat_00_cat4-cat3.png
subject-08,1,936,1.2037889957428,car,car,0,0936_s5n_s08_0_car_00_car9-knife1.png
subject-08,1,937,0.571120023727417,oven,oven,0,0937_s5n_s08_0_oven_00_oven3-clock3.png
subject-08,1,938,0.800853967666626,keyboard,oven,0,0938_s5n_s08_0_oven_00_oven8-cat3.png
subject-08,1,939,0.89793586730957,elephant,elephant,0,0939_s5n_s08_0_elephant_00_elephant7-clock2.png
subject-08,1,940,0.698315143585205,truck,truck,0,0940_s5n_s08_0_truck_00_truck3-chair2.png
subject-08,1,941,0.67983603477478,cat,cat,0,0941_s5n_s08_0_cat_00_cat2-truck3.png
subject-08,1,942,0.630943059921265,bottle,bottle,0,0942_s5n_s08_0_bottle_00_bottle10-car1.png
subject-08,1,943,0.577330112457275,clock,clock,0,0943_s5n_s08_0_clock_00_clock6-chair3.png
subject-08,1,944,0.757575988769531,bird,bird,0,0944_s5n_s08_0_bird_00_bird8-car2.png
subject-08,1,945,0.963174104690552,bear,bear,0,0945_s5n_s08_0_bear_00_bear2-keyboard2.png
subject-08,1,946,1.10059213638306,truck,truck,0,0946_s5n_s08_0_truck_00_truck8-cat2.png
subject-08,1,947,0.797202110290527,knife,knife,0,0947_s5n_s08_0_knife_00_knife4-knife2.png
subject-08,1,948,0.802543163299561,airplane,airplane,0,0948_s5n_s08_0_airplane_00_airplane3-elephant1.png
subject-08,1,949,0.524692058563232,oven,oven,0,0949_s5n_s08_0_oven_00_oven6-knife3.png
subject-08,1,950,0.822329998016357,knife,knife,0,0950_s5n_s08_0_knife_00_knife9-chair1.png
subject-08,1,951,0.644593954086304,airplane,airplane,0,0951_s5n_s08_0_airplane_00_airplane5-chair3.png
subject-08,1,952,1.32870078086853,elephant,elephant,0,0952_s5n_s08_0_elephant_00_elephant6-bird1.png
subject-08,1,953,0.588326930999756,bear,bear,0,0953_s5n_s08_0_bear_00_bear5-bottle1.png
subject-08,1,954,NaN,na,clock,0,0954_s5n_s08_0_clock_00_clock10-bird3.png
subject-08,1,955,0.476852893829346,cat,cat,0,0955_s5n_s08_0_cat_00_cat1-boat1.png
subject-08,1,956,0.736171007156372,bird,bird,0,0956_s5n_s08_0_bird_00_bird7-cat3.png
subject-08,1,957,0.58193302154541,bottle,bottle,0,0957_s5n_s08_0_bottle_00_bottle9-bottle1.png
subject-08,1,958,0.654275894165039,bicycle,bicycle,0,0958_s5n_s08_0_bicycle_00_bicycle5-keyboard3.png
subject-08,1,959,0.805524826049805,keyboard,boat,0,0959_s5n_s08_0_boat_00_boat4-bicycle3.png
subject-08,1,960,0.649523973464966,keyboard,keyboard,0,0960_s5n_s08_0_keyboard_00_keyboard4-clock2.png
subject-08,1,961,0.68705415725708,oven,oven,0,0961_s5n_s08_0_oven_00_oven9-bird3.png
subject-08,1,962,0.725040912628174,keyboard,keyboard,0,0962_s5n_s08_0_keyboard_00_keyboard4-cat2.png
subject-08,1,963,0.560638189315796,keyboard,keyboard,0,0963_s5n_s08_0_keyboard_00_keyboard5-knife2.png
subject-08,1,964,0.622308015823364,keyboard,keyboard,0,0964_s5n_s08_0_keyboard_00_keyboard10-boat2.png
subject-08,1,965,0.549970865249634,oven,oven,0,0965_s5n_s08_0_oven_00_oven9-keyboard1.png
subject-08,1,966,0.611547946929932,clock,clock,0,0966_s5n_s08_0_clock_00_clock4-knife1.png
subject-08,1,967,0.647275924682617,keyboard,keyboard,0,0967_s5n_s08_0_keyboard_00_keyboard9-keyboard2.png
subject-08,1,968,0.768764972686768,cat,car,0,0968_s5n_s08_0_car_00_car1-dog2.png
subject-08,1,969,0.549866914749146,bicycle,bicycle,0,0969_s5n_s08_0_bicycle_00_bicycle8-boat1.png
subject-08,1,970,0.908913135528564,bear,bear,0,0970_s5n_s08_0_bear_00_bear2-airplane1.png
subject-08,1,971,0.492012977600098,clock,clock,0,0971_s5n_s08_0_clock_00_clock4-bird3.png
subject-08,1,972,0.964694976806641,bottle,bottle,0,0972_s5n_s08_0_bottle_00_bottle8-bird1.png
subject-08,1,973,0.70299220085144,oven,car,0,0973_s5n_s08_0_car_00_car4-bicycle3.png
subject-08,1,974,0.708884954452515,truck,truck,0,0974_s5n_s08_0_truck_00_truck1-bear1.png
subject-08,1,975,1.50027418136597,truck,truck,0,0975_s5n_s08_0_truck_00_truck2-oven3.png
subject-08,1,976,0.913997888565063,bear,elephant,0,0976_s5n_s08_0_elephant_00_elephant7-bear3.png
subject-08,1,977,1.04410004615784,bird,bottle,0,0977_s5n_s08_0_bottle_00_bottle9-truck1.png
subject-08,1,978,0.605883121490479,keyboard,keyboard,0,0978_s5n_s08_0_keyboard_00_keyboard5-dog3.png
subject-08,1,979,0.7500319480896,truck,truck,0,0979_s5n_s08_0_truck_00_truck1-car3.png
subject-08,1,980,0.811953067779541,car,bear,0,0980_s5n_s08_0_bear_00_bear4-car3.png
subject-08,1,981,0.910269975662231,boat,boat,0,0981_s5n_s08_0_boat_00_boat3-airplane2.png
subject-08,1,982,0.440070867538452,clock,clock,0,0982_s5n_s08_0_clock_00_clock5-clock2.png
subject-08,1,983,0.609843015670776,chair,chair,0,0983_s5n_s08_0_chair_00_chair9-bird3.png
subject-08,1,984,0.594316005706787,bird,bird,0,0984_s5n_s08_0_bird_00_bird4-dog3.png
subject-08,1,985,0.813498973846436,airplane,airplane,0,0985_s5n_s08_0_airplane_00_airplane4-boat3.png
subject-08,1,986,0.820969820022583,bear,dog,0,0986_s5n_s08_0_dog_00_dog3-bear3.png
subject-08,1,987,0.551736116409302,bicycle,bicycle,0,0987_s5n_s08_0_bicycle_00_bicycle3-oven3.png
subject-08,1,988,0.551357984542847,bottle,bottle,0,0988_s5n_s08_0_bottle_00_bottle5-knife1.png
subject-08,1,989,0.970853090286255,truck,truck,0,0989_s5n_s08_0_truck_00_truck7-bird2.png
subject-08,1,990,0.753926038742065,bicycle,bicycle,0,0990_s5n_s08_0_bicycle_00_bicycle2-car2.png
subject-08,1,991,0.722821950912476,truck,truck,0,0991_s5n_s08_0_truck_00_truck2-chair1.png
subject-08,1,992,0.698198795318604,truck,truck,0,0992_s5n_s08_0_truck_00_truck7-boat1.png
subject-08,1,993,NaN,na,airplane,0,0993_s5n_s08_0_airplane_00_airplane7-bird3.png
subject-08,1,994,0.56318187713623,car,car,0,0994_s5n_s08_0_car_00_car8-chair1.png
subject-08,1,995,0.776827812194824,keyboard,keyboard,0,0995_s5n_s08_0_keyboard_00_keyboard3-boat1.png
subject-08,1,996,0.722238779067993,bicycle,bicycle,0,0996_s5n_s08_0_bicycle_00_bicycle4-keyboard3.png
subject-08,1,997,0.597810029983521,truck,truck,0,0997_s5n_s08_0_truck_00_truck2-bicycle2.png
subject-08,1,998,1.29311895370483,chair,bottle,0,0998_s5n_s08_0_bottle_00_bottle7-truck2.png
subject-08,1,999,0.968032836914062,car,car,0,0999_s5n_s08_0_car_00_car7-dog3.png
subject-08,1,1000,0.759702205657959,truck,truck,0,1000_s5n_s08_0_truck_00_truck9-chair3.png
subject-08,1,1001,0.627648830413818,car,car,0,1001_s5n_s08_0_car_00_car3-truck1.png
subject-08,1,1002,0.681490898132324,bottle,bottle,0,1002_s5n_s08_0_bottle_00_bottle9-elephant2.png
subject-08,1,1003,0.786965131759644,knife,keyboard,0,1003_s5n_s08_0_keyboard_00_keyboard7-bear2.png
subject-08,1,1004,0.663505077362061,bear,bear,0,1004_s5n_s08_0_bear_00_bear5-chair1.png
subject-08,1,1005,0.76272988319397,knife,knife,0,1005_s5n_s08_0_knife_00_knife2-cat3.png
subject-08,1,1006,0.806670904159546,bear,bear,0,1006_s5n_s08_0_bear_00_bear7-bicycle2.png
subject-08,1,1007,0.638987064361572,chair,chair,0,1007_s5n_s08_0_chair_00_chair7-car2.png
subject-08,1,1008,0.712332963943481,oven,oven,0,1008_s5n_s08_0_oven_00_oven3-car2.png
subject-08,1,1009,0.579399824142456,truck,truck,0,1009_s5n_s08_0_truck_00_truck7-oven2.png
subject-08,1,1010,0.739301919937134,bottle,bottle,0,1010_s5n_s08_0_bottle_00_bottle6-knife3.png
subject-08,1,1011,1.35625600814819,car,car,0,1011_s5n_s08_0_car_00_car9-keyboard2.png
subject-08,1,1012,0.739799022674561,bottle,bottle,0,1012_s5n_s08_0_bottle_00_bottle10-boat3.png
subject-08,1,1013,1.02895593643188,chair,chair,0,1013_s5n_s08_0_chair_00_chair10-oven1.png
subject-08,1,1014,0.716677904129028,chair,chair,0,1014_s5n_s08_0_chair_00_chair8-chair3.png
subject-08,1,1015,0.783759117126465,knife,knife,0,1015_s5n_s08_0_knife_00_knife3-clock2.png
subject-08,1,1016,0.551133871078491,bottle,knife,0,1016_s5n_s08_0_knife_00_knife5-oven2.png
subject-08,1,1017,0.672131061553955,chair,oven,0,1017_s5n_s08_0_oven_00_oven7-cat1.png
subject-08,1,1018,0.769680023193359,dog,dog,0,1018_s5n_s08_0_dog_00_dog9-chair2.png
subject-08,1,1019,0.848472118377686,oven,oven,0,1019_s5n_s08_0_oven_00_oven1-boat3.png
subject-08,1,1020,0.88630199432373,airplane,airplane,0,1020_s5n_s08_0_airplane_00_airplane9-car2.png
subject-08,1,1021,1.13839888572693,keyboard,elephant,0,1021_s5n_s08_0_elephant_00_elephant10-keyboard1.png
subject-08,1,1022,0.454872131347656,boat,boat,0,1022_s5n_s08_0_boat_00_boat9-keyboard2.png
subject-08,1,1023,0.898297071456909,oven,oven,0,1023_s5n_s08_0_oven_00_oven8-knife2.png
subject-08,1,1024,0.614078998565674,oven,oven,0,1024_s5n_s08_0_oven_00_oven6-bicycle1.png
subject-08,1,1025,0.725500106811523,oven,keyboard,0,1025_s5n_s08_0_keyboard_00_keyboard2-knife1.png
subject-08,1,1026,1.06075477600098,knife,knife,0,1026_s5n_s08_0_knife_00_knife9-boat1.png
subject-08,1,1027,0.460909843444824,clock,clock,0,1027_s5n_s08_0_clock_00_clock6-car2.png
subject-08,1,1028,0.598458051681519,chair,chair,0,1028_s5n_s08_0_chair_00_chair1-elephant1.png
subject-08,1,1029,0.650332927703857,bird,bird,0,1029_s5n_s08_0_bird_00_bird8-clock1.png
subject-08,1,1030,0.717890977859497,bird,bird,0,1030_s5n_s08_0_bird_00_bird5-keyboard2.png
subject-08,1,1031,0.855018138885498,car,car,0,1031_s5n_s08_0_car_00_car6-truck3.png
subject-08,1,1032,0.630764961242676,oven,oven,0,1032_s5n_s08_0_oven_00_oven10-cat2.png
subject-08,1,1033,0.622689962387085,bird,bird,0,1033_s5n_s08_0_bird_00_bird7-bird2.png
subject-08,1,1034,0.514147043228149,clock,clock,0,1034_s5n_s08_0_clock_00_clock10-oven2.png
subject-08,1,1035,0.49011492729187,cat,bear,0,1035_s5n_s08_0_bear_00_bear6-bottle3.png
subject-08,1,1036,0.819689989089966,elephant,elephant,0,1036_s5n_s08_0_elephant_00_elephant8-bicycle3.png
subject-08,1,1037,0.617175102233887,clock,clock,0,1037_s5n_s08_0_clock_00_clock3-bicycle2.png
subject-08,1,1038,1.12582182884216,knife,truck,0,1038_s5n_s08_0_truck_00_truck3-keyboard3.png
subject-08,1,1039,0.909417152404785,boat,boat,0,1039_s5n_s08_0_boat_00_boat8-truck2.png
subject-08,1,1040,0.622815132141113,boat,dog,0,1040_s5n_s08_0_dog_00_dog1-chair1.png
subject-08,1,1041,0.553521871566772,bicycle,bicycle,0,1041_s5n_s08_0_bicycle_00_bicycle4-boat1.png
subject-08,1,1042,0.644867181777954,elephant,elephant,0,1042_s5n_s08_0_elephant_00_elephant1-bottle1.png
subject-08,1,1043,0.774600982666016,airplane,airplane,0,1043_s5n_s08_0_airplane_00_airplane4-elephant1.png
subject-08,1,1044,0.709671974182129,chair,chair,0,1044_s5n_s08_0_chair_00_chair1-chair1.png
subject-08,1,1045,0.577402114868164,chair,knife,0,1045_s5n_s08_0_knife_00_knife7-chair2.png
subject-08,1,1046,0.644312143325806,car,bear,0,1046_s5n_s08_0_bear_00_bear10-oven1.png
subject-08,1,1047,0.879671812057495,knife,knife,0,1047_s5n_s08_0_knife_00_knife5-knife3.png
subject-08,1,1048,1.11753106117249,knife,knife,0,1048_s5n_s08_0_knife_00_knife6-bottle3.png
subject-08,1,1049,1.27801394462585,chair,chair,0,1049_s5n_s08_0_chair_00_chair3-car3.png
subject-08,1,1050,0.585268974304199,clock,clock,0,1050_s5n_s08_0_clock_00_clock7-boat3.png
subject-08,1,1051,0.937511920928955,chair,knife,0,1051_s5n_s08_0_knife_00_knife6-chair3.png
subject-08,1,1052,1.19103693962097,knife,knife,0,1052_s5n_s08_0_knife_00_knife8-truck3.png
subject-08,1,1053,0.771658897399902,clock,clock,0,1053_s5n_s08_0_clock_00_clock8-bear2.png
subject-08,1,1054,1.02322816848755,dog,cat,0,1054_s5n_s08_0_cat_00_cat10-bottle1.png
subject-08,1,1055,0.676631927490234,clock,clock,0,1055_s5n_s08_0_clock_00_clock7-dog2.png
subject-08,1,1056,0.874431133270264,bear,bear,0,1056_s5n_s08_0_bear_00_bear1-airplane3.png
subject-08,1,1057,0.660422086715698,clock,clock,0,1057_s5n_s08_0_clock_00_clock8-knife1.png
subject-08,1,1058,NaN,na,bicycle,0,1058_s5n_s08_0_bicycle_00_bicycle10-boat3.png
subject-08,1,1059,0.854875087738037,dog,dog,0,1059_s5n_s08_0_dog_00_dog10-car3.png
subject-08,1,1060,0.746426105499268,truck,truck,0,1060_s5n_s08_0_truck_00_truck1-dog1.png
subject-08,1,1061,0.751606941223145,car,car,0,1061_s5n_s08_0_car_00_car7-elephant3.png
subject-08,1,1062,0.957384824752808,bicycle,bicycle,0,1062_s5n_s08_0_bicycle_00_bicycle6-dog2.png
subject-08,1,1063,1.28679394721985,chair,chair,0,1063_s5n_s08_0_chair_00_chair1-truck3.png
subject-08,1,1064,0.662262201309204,cat,cat,0,1064_s5n_s08_0_cat_00_cat5-dog3.png
subject-08,1,1065,0.592015027999878,chair,keyboard,0,1065_s5n_s08_0_keyboard_00_keyboard7-chair3.png
subject-08,1,1066,0.943367958068848,chair,boat,0,1066_s5n_s08_0_boat_00_boat7-truck2.png
subject-08,1,1067,0.772911071777344,cat,cat,0,1067_s5n_s08_0_cat_00_cat1-car2.png
subject-08,1,1068,0.88640308380127,knife,knife,0,1068_s5n_s08_0_knife_00_knife5-dog1.png
subject-08,1,1069,0.755855083465576,bird,bird,0,1069_s5n_s08_0_bird_00_bird1-clock3.png
subject-08,1,1070,0.683099985122681,elephant,elephant,0,1070_s5n_s08_0_elephant_00_elephant9-chair2.png
subject-08,1,1071,1.13672113418579,car,car,0,1071_s5n_s08_0_car_00_car10-bicycle2.png
subject-08,1,1072,0.874745845794678,cat,boat,0,1072_s5n_s08_0_boat_00_boat3-bicycle2.png
subject-08,1,1073,0.795778036117554,dog,dog,0,1073_s5n_s08_0_dog_00_dog9-airplane3.png
subject-08,1,1074,0.925839900970459,clock,clock,0,1074_s5n_s08_0_clock_00_clock3-elephant3.png
subject-08,1,1075,0.625169038772583,cat,boat,0,1075_s5n_s08_0_boat_00_boat8-elephant1.png
subject-08,1,1076,0.868703126907349,knife,knife,0,1076_s5n_s08_0_knife_00_knife2-dog1.png
subject-08,1,1077,1.23022699356079,bottle,bottle,0,1077_s5n_s08_0_bottle_00_bottle4-dog2.png
subject-08,1,1078,0.860353946685791,elephant,elephant,0,1078_s5n_s08_0_elephant_00_elephant3-truck1.png
subject-08,1,1079,0.958153009414673,car,truck,0,1079_s5n_s08_0_truck_00_truck1-knife1.png
subject-08,1,1080,0.766090869903564,chair,chair,0,1080_s5n_s08_0_chair_00_chair7-elephant1.png
subject-08,1,1081,0.633641004562378,cat,cat,0,1081_s5n_s08_0_cat_00_cat3-bicycle1.png
subject-08,1,1082,0.855368852615356,oven,dog,0,1082_s5n_s08_0_dog_00_dog4-truck2.png
subject-08,1,1083,0.654381990432739,car,car,0,1083_s5n_s08_0_car_00_car9-cat1.png
subject-08,1,1084,0.883486032485962,knife,knife,0,1084_s5n_s08_0_knife_00_knife7-elephant2.png
subject-08,1,1085,0.551448106765747,bicycle,bicycle,0,1085_s5n_s08_0_bicycle_00_bicycle1-elephant2.png
subject-08,1,1086,0.781201124191284,elephant,elephant,0,1086_s5n_s08_0_elephant_00_elephant5-elephant1.png
subject-08,1,1087,0.680495023727417,bear,bear,0,1087_s5n_s08_0_bear_00_bear8-bear1.png
subject-08,1,1088,0.610360145568848,boat,boat,0,1088_s5n_s08_0_boat_00_boat5-knife2.png
subject-08,1,1089,0.602242946624756,bird,bird,0,1089_s5n_s08_0_bird_00_bird1-chair2.png
subject-08,1,1090,0.674870014190674,chair,oven,0,1090_s5n_s08_0_oven_00_oven6-chair3.png
subject-08,1,1091,0.843333959579468,chair,chair,0,1091_s5n_s08_0_chair_00_chair4-oven2.png
subject-08,1,1092,0.629363059997559,bird,bird,0,1092_s5n_s08_0_bird_00_bird7-knife2.png
subject-08,1,1093,0.821331024169922,bear,bear,0,1093_s5n_s08_0_bear_00_bear9-boat2.png
subject-08,1,1094,0.480832099914551,bicycle,bicycle,0,1094_s5n_s08_0_bicycle_00_bicycle8-bird2.png
subject-08,1,1095,0.778040885925293,elephant,elephant,0,1095_s5n_s08_0_elephant_00_elephant6-dog2.png
subject-08,1,1096,0.793967008590698,bird,bird,0,1096_s5n_s08_0_bird_00_bird8-elephant1.png
subject-08,1,1097,1.15910506248474,bear,bear,0,1097_s5n_s08_0_bear_00_bear1-clock2.png
