subj,session,trial,rt,object_response,category,condition,imagename
subject-05,1,1,1.17140913009644,bear,bear,0,0001_s5n_s05_0_bear_00_bear5-bird1.png
subject-05,1,2,1.07968497276306,boat,dog,0,0002_s5n_s05_0_dog_00_dog8-boat3.png
subject-05,1,3,0.697608947753906,keyboard,keyboard,0,0003_s5n_s05_0_keyboard_00_keyboard9-airplane3.png
subject-05,1,4,0.897624969482422,cat,dog,0,0004_s5n_s05_0_dog_00_dog1-knife3.png
subject-05,1,5,0.796513080596924,chair,chair,0,0005_s5n_s05_0_chair_00_chair10-oven1.png
subject-05,1,6,0.712096929550171,clock,clock,0,0006_s5n_s05_0_clock_00_clock10-cat1.png
subject-05,1,7,0.767766952514648,keyboard,airplane,0,0007_s5n_s05_0_airplane_00_airplane9-clock1.png
subject-05,1,8,1.02957391738892,knife,airplane,0,0008_s5n_s05_0_airplane_00_airplane2-cat1.png
subject-05,1,9,0.690725088119507,car,car,0,0009_s5n_s05_0_car_00_car4-boat1.png
subject-05,1,10,1.15239191055298,chair,elephant,0,0010_s5n_s05_0_elephant_00_elephant10-knife3.png
subject-05,1,11,0.969505071640015,oven,oven,0,0011_s5n_s05_0_oven_00_oven3-car2.png
subject-05,1,12,0.641149997711182,clock,clock,0,0012_s5n_s05_0_clock_00_clock6-oven1.png
subject-05,1,13,0.908888101577759,dog,dog,0,0013_s5n_s05_0_dog_00_dog10-bottle1.png
subject-05,1,14,0.724064826965332,knife,knife,0,0014_s5n_s05_0_knife_00_knife6-dog2.png
subject-05,1,15,0.709120035171509,cat,cat,0,0015_s5n_s05_0_cat_00_cat6-keyboard3.png
subject-05,1,16,0.85427188873291,truck,truck,0,0016_s5n_s05_0_truck_00_truck10-bicycle1.png
subject-05,1,17,0.995604991912842,chair,dog,0,0017_s5n_s05_0_dog_00_dog8-chair3.png
subject-05,1,18,0.997251987457275,car,car,0,0018_s5n_s05_0_car_00_car4-bear3.png
subject-05,1,19,0.829432010650635,keyboard,keyboard,0,0019_s5n_s05_0_keyboard_00_keyboard8-dog3.png
subject-05,1,20,0.694151878356934,clock,clock,0,0020_s5n_s05_0_clock_00_clock1-dog2.png
subject-05,1,21,0.744221925735474,airplane,airplane,0,0021_s5n_s05_0_airplane_00_airplane5-bicycle1.png
subject-05,1,22,0.913428068161011,knife,knife,0,0022_s5n_s05_0_knife_00_knife8-boat1.png
subject-05,1,23,1.04707503318787,airplane,airplane,0,0023_s5n_s05_0_airplane_00_airplane7-airplane3.png
subject-05,1,24,0.856956005096436,truck,truck,0,0024_s5n_s05_0_truck_00_truck2-bird2.png
subject-05,1,25,1.21997904777527,elephant,elephant,0,0025_s5n_s05_0_elephant_00_elephant8-bicycle3.png
subject-05,1,26,0.929419040679932,chair,chair,0,0026_s5n_s05_0_chair_00_chair8-chair3.png
subject-05,1,27,1.02919983863831,oven,oven,0,0027_s5n_s05_0_oven_00_oven4-chair1.png
subject-05,1,28,0.640292167663574,bottle,bottle,0,0028_s5n_s05_0_bottle_00_bottle10-truck3.png
subject-05,1,29,1.30984091758728,clock,bear,0,0029_s5n_s05_0_bear_00_bear7-bicycle2.png
subject-05,1,30,0.980493783950806,elephant,elephant,0,0030_s5n_s05_0_elephant_00_elephant6-bottle2.png
subject-05,1,31,1.03709888458252,bird,airplane,0,0031_s5n_s05_0_airplane_00_airplane3-car1.png
subject-05,1,32,1.21482992172241,bicycle,cat,0,0032_s5n_s05_0_cat_00_cat10-bicycle1.png
subject-05,1,33,0.884289979934692,knife,boat,0,0033_s5n_s05_0_boat_00_boat1-bird3.png
subject-05,1,34,0.861931800842285,knife,knife,0,0034_s5n_s05_0_knife_00_knife10-chair1.png
subject-05,1,35,1.28284978866577,bird,bird,0,0035_s5n_s05_0_bird_00_bird2-car3.png
subject-05,1,36,0.822549819946289,bicycle,bicycle,0,0036_s5n_s05_0_bicycle_00_bicycle1-chair1.png
subject-05,1,37,0.821209907531738,keyboard,keyboard,0,0037_s5n_s05_0_keyboard_00_keyboard8-truck3.png
subject-05,1,38,0.851253032684326,oven,oven,0,0038_s5n_s05_0_oven_00_oven9-knife3.png
subject-05,1,39,0.807326793670654,keyboard,keyboard,0,0039_s5n_s05_0_keyboard_00_keyboard9-truck3.png
subject-05,1,40,1.09439778327942,cat,cat,0,0040_s5n_s05_0_cat_00_cat9-chair2.png
subject-05,1,41,0.993427991867065,bear,bear,0,0041_s5n_s05_0_bear_00_bear8-boat2.png
subject-05,1,42,0.870734930038452,oven,oven,0,0042_s5n_s05_0_oven_00_oven3-boat3.png
subject-05,1,43,NaN,na,keyboard,0,0043_s5n_s05_0_keyboard_00_keyboard6-bicycle1.png
subject-05,1,44,1.48034691810608,oven,dog,0,0044_s5n_s05_0_dog_00_dog4-oven1.png
subject-05,1,45,0.80423378944397,truck,truck,0,0045_s5n_s05_0_truck_00_truck2-elephant1.png
subject-05,1,46,0.765027046203613,knife,knife,0,0046_s5n_s05_0_knife_00_knife3-clock2.png
subject-05,1,47,0.795084953308105,bear,bear,0,0047_s5n_s05_0_bear_00_bear9-dog1.png
subject-05,1,48,0.743721961975098,bottle,bottle,0,0048_s5n_s05_0_bottle_00_bottle5-bird3.png
subject-05,1,49,0.767108201980591,truck,truck,0,0049_s5n_s05_0_truck_00_truck8-bottle2.png
subject-05,1,50,0.869077920913696,elephant,elephant,0,0050_s5n_s05_0_elephant_00_elephant9-airplane2.png
subject-05,1,51,1.0475058555603,bird,bird,0,0051_s5n_s05_0_bird_00_bird3-truck3.png
subject-05,1,52,0.993670225143433,bird,bird,0,0052_s5n_s05_0_bird_00_bird8-elephant1.png
subject-05,1,53,1.06360197067261,airplane,airplane,0,0053_s5n_s05_0_airplane_00_airplane4-elephant1.png
subject-05,1,54,0.994988918304443,elephant,elephant,0,0054_s5n_s05_0_elephant_00_elephant4-bicycle2.png
subject-05,1,55,0.889859914779663,knife,knife,0,0055_s5n_s05_0_knife_00_knife10-elephant3.png
subject-05,1,56,0.74364185333252,dog,dog,0,0056_s5n_s05_0_dog_00_dog10-keyboard2.png
subject-05,1,57,0.828387022018433,bicycle,bicycle,0,0057_s5n_s05_0_bicycle_00_bicycle4-bicycle3.png
subject-05,1,58,0.882652044296265,bear,bear,0,0058_s5n_s05_0_bear_00_bear1-bear3.png
subject-05,1,59,0.81989598274231,boat,dog,0,0059_s5n_s05_0_dog_00_dog1-boat3.png
subject-05,1,60,0.97593092918396,bicycle,bottle,0,0060_s5n_s05_0_bottle_00_bottle1-keyboard3.png
subject-05,1,61,NaN,na,bird,0,0061_s5n_s05_0_bird_00_bird10-bird2.png
subject-05,1,62,0.804279088973999,bottle,bottle,0,0062_s5n_s05_0_bottle_00_bottle2-clock1.png
subject-05,1,63,0.720044136047363,chair,chair,0,0063_s5n_s05_0_chair_00_chair10-dog1.png
subject-05,1,64,0.906369924545288,bicycle,bicycle,0,0064_s5n_s05_0_bicycle_00_bicycle8-clock3.png
subject-05,1,65,0.851946115493774,car,car,0,0065_s5n_s05_0_car_00_car1-airplane1.png
subject-05,1,66,0.976108074188232,truck,truck,0,0066_s5n_s05_0_truck_00_truck10-clock1.png
subject-05,1,67,0.807612895965576,airplane,airplane,0,0067_s5n_s05_0_airplane_00_airplane5-bird2.png
subject-05,1,68,0.839691877365112,elephant,elephant,0,0068_s5n_s05_0_elephant_00_elephant5-bottle2.png
subject-05,1,69,0.76319694519043,bicycle,bicycle,0,0069_s5n_s05_0_bicycle_00_bicycle9-cat3.png
subject-05,1,70,0.73927903175354,clock,clock,0,0070_s5n_s05_0_clock_00_clock4-chair1.png
subject-05,1,71,0.917632818222046,chair,chair,0,0071_s5n_s05_0_chair_00_chair8-bicycle3.png
subject-05,1,72,0.834786891937256,clock,knife,0,0072_s5n_s05_0_knife_00_knife5-truck3.png
subject-05,1,73,0.726577997207642,airplane,airplane,0,0073_s5n_s05_0_airplane_00_airplane7-boat2.png
subject-05,1,74,0.755012989044189,bottle,bottle,0,0074_s5n_s05_0_bottle_00_bottle5-elephant1.png
subject-05,1,75,0.838690996170044,bear,bear,0,0075_s5n_s05_0_bear_00_bear1-airplane3.png
subject-05,1,76,0.748453140258789,bird,bird,0,0076_s5n_s05_0_bird_00_bird5-oven3.png
subject-05,1,77,0.711321115493774,bottle,bottle,0,0077_s5n_s05_0_bottle_00_bottle8-elephant3.png
subject-05,1,78,0.880130052566528,bottle,bottle,0,0078_s5n_s05_0_bottle_00_bottle3-boat3.png
subject-05,1,79,0.859143972396851,oven,oven,0,0079_s5n_s05_0_oven_00_oven6-chair3.png
subject-05,1,80,1.03647089004517,truck,car,0,0080_s5n_s05_0_car_00_car5-knife2.png
subject-05,1,81,0.982115030288696,bird,bird,0,0081_s5n_s05_0_bird_00_bird5-bear3.png
subject-05,1,82,0.782289028167725,car,car,0,0082_s5n_s05_0_car_00_car4-car2.png
subject-05,1,83,0.792058944702148,keyboard,keyboard,0,0083_s5n_s05_0_keyboard_00_keyboard9-bear2.png
subject-05,1,84,0.900104999542236,truck,truck,0,0084_s5n_s05_0_truck_00_truck6-bottle3.png
subject-05,1,85,0.9077308177948,keyboard,keyboard,0,0085_s5n_s05_0_keyboard_00_keyboard4-bird1.png
subject-05,1,86,0.684992074966431,bottle,bottle,0,0086_s5n_s05_0_bottle_00_bottle1-bird3.png
subject-05,1,87,0.80178689956665,chair,chair,0,0087_s5n_s05_0_chair_00_chair4-bear2.png
subject-05,1,88,1.28178191184998,dog,dog,0,0088_s5n_s05_0_dog_00_dog4-bottle2.png
subject-05,1,89,0.921660900115967,dog,dog,0,0089_s5n_s05_0_dog_00_dog1-airplane3.png
subject-05,1,90,0.798633098602295,keyboard,keyboard,0,0090_s5n_s05_0_keyboard_00_keyboard3-bicycle2.png
subject-05,1,91,0.777225971221924,oven,oven,0,0091_s5n_s05_0_oven_00_oven3-clock3.png
subject-05,1,92,0.852663040161133,chair,chair,0,0092_s5n_s05_0_chair_00_chair7-truck3.png
subject-05,1,93,0.883797168731689,keyboard,keyboard,0,0093_s5n_s05_0_keyboard_00_keyboard5-bear3.png
subject-05,1,94,0.97484278678894,bear,bird,0,0094_s5n_s05_0_bird_00_bird2-knife1.png
subject-05,1,95,1.16665101051331,bicycle,bicycle,0,0095_s5n_s05_0_bicycle_00_bicycle6-cat1.png
subject-05,1,96,0.715223073959351,elephant,elephant,0,0096_s5n_s05_0_elephant_00_elephant8-boat2.png
subject-05,1,97,0.7448410987854,cat,cat,0,0097_s5n_s05_0_cat_00_cat2-bottle3.png
subject-05,1,98,0.902062892913818,dog,dog,0,0098_s5n_s05_0_dog_00_dog10-truck2.png
subject-05,1,99,0.723068952560425,cat,cat,0,0099_s5n_s05_0_cat_00_cat4-clock2.png
subject-05,1,100,0.846467018127441,knife,boat,0,0100_s5n_s05_0_boat_00_boat6-bear1.png
subject-05,1,101,0.886496067047119,oven,oven,0,0101_s5n_s05_0_oven_00_oven5-elephant1.png
subject-05,1,102,0.710927963256836,truck,truck,0,0102_s5n_s05_0_truck_00_truck5-bird2.png
subject-05,1,103,0.926643133163452,bear,bear,0,0103_s5n_s05_0_bear_00_bear2-bird3.png
subject-05,1,104,0.771411895751953,bottle,bottle,0,0104_s5n_s05_0_bottle_00_bottle2-car2.png
subject-05,1,105,0.7723069190979,bottle,bottle,0,0105_s5n_s05_0_bottle_00_bottle7-oven2.png
subject-05,1,106,1.24915599822998,bicycle,boat,0,0106_s5n_s05_0_boat_00_boat7-clock3.png
subject-05,1,107,0.910792827606201,truck,truck,0,0107_s5n_s05_0_truck_00_truck7-boat1.png
subject-05,1,108,0.832199096679688,car,car,0,0108_s5n_s05_0_car_00_car4-cat3.png
subject-05,1,109,1.01847696304321,keyboard,keyboard,0,0109_s5n_s05_0_keyboard_00_keyboard3-elephant2.png
subject-05,1,110,1.25131297111511,boat,boat,0,0110_s5n_s05_0_boat_00_boat7-cat3.png
subject-05,1,111,0.752665996551514,airplane,airplane,0,0111_s5n_s05_0_airplane_00_airplane4-boat3.png
subject-05,1,112,0.706676959991455,truck,truck,0,0112_s5n_s05_0_truck_00_truck4-boat3.png
subject-05,1,113,1.50005698204041,knife,airplane,0,0113_s5n_s05_0_airplane_00_airplane8-oven2.png
subject-05,1,114,0.681252002716064,airplane,airplane,0,0114_s5n_s05_0_airplane_00_airplane4-bicycle2.png
subject-05,1,115,0.728330135345459,oven,boat,0,0115_s5n_s05_0_boat_00_boat6-cat1.png
subject-05,1,116,0.804326057434082,truck,truck,0,0116_s5n_s05_0_truck_00_truck1-bird1.png
subject-05,1,117,0.906195163726807,car,car,0,0117_s5n_s05_0_car_00_car5-bear3.png
subject-05,1,118,0.981029987335205,cat,cat,0,0118_s5n_s05_0_cat_00_cat7-knife2.png
subject-05,1,119,NaN,na,bird,0,0119_s5n_s05_0_bird_00_bird8-clock1.png
subject-05,1,120,1.15408802032471,bear,cat,0,0120_s5n_s05_0_cat_00_cat10-bottle1.png
subject-05,1,121,0.939966917037964,clock,bear,0,0121_s5n_s05_0_bear_00_bear6-boat3.png
subject-05,1,122,0.893408060073853,car,car,0,0122_s5n_s05_0_car_00_car7-dog3.png
subject-05,1,123,0.655357122421265,clock,clock,0,0123_s5n_s05_0_clock_00_clock2-elephant2.png
subject-05,1,124,0.770219802856445,car,cat,0,0124_s5n_s05_0_cat_00_cat10-airplane3.png
subject-05,1,125,0.778589010238647,truck,bird,0,0125_s5n_s05_0_bird_00_bird1-chair2.png
subject-05,1,126,0.794898986816406,car,car,0,0126_s5n_s05_0_car_00_car6-boat1.png
subject-05,1,127,0.978485822677612,car,car,0,0127_s5n_s05_0_car_00_car8-boat3.png
subject-05,1,128,0.656138896942139,bicycle,bicycle,0,0128_s5n_s05_0_bicycle_00_bicycle6-bicycle3.png
subject-05,1,129,0.664274930953979,bottle,bottle,0,0129_s5n_s05_0_bottle_00_bottle5-truck1.png
subject-05,1,130,0.888030052185059,truck,truck,0,0130_s5n_s05_0_truck_00_truck3-chair2.png
subject-05,1,131,0.84225606918335,bicycle,bicycle,0,0131_s5n_s05_0_bicycle_00_bicycle1-oven1.png
subject-05,1,132,0.920336961746216,bird,bird,0,0132_s5n_s05_0_bird_00_bird7-bird2.png
subject-05,1,133,0.943759202957153,car,car,0,0133_s5n_s05_0_car_00_car6-truck3.png
subject-05,1,134,0.876605987548828,oven,oven,0,0134_s5n_s05_0_oven_00_oven7-car3.png
subject-05,1,135,1.27568602561951,bird,elephant,0,0135_s5n_s05_0_elephant_00_elephant2-bird1.png
subject-05,1,136,0.586475849151611,oven,oven,0,0136_s5n_s05_0_oven_00_oven1-clock3.png
subject-05,1,137,0.694288969039917,knife,knife,0,0137_s5n_s05_0_knife_00_knife1-airplane1.png
subject-05,1,138,0.639095067977905,boat,boat,0,0138_s5n_s05_0_boat_00_boat9-bird1.png
subject-05,1,139,1.09778308868408,bird,bird,0,0139_s5n_s05_0_bird_00_bird6-airplane2.png
subject-05,1,140,0.897370100021362,cat,cat,0,0140_s5n_s05_0_cat_00_cat6-clock3.png
subject-05,1,141,0.899454832077026,dog,dog,0,0141_s5n_s05_0_dog_00_dog10-airplane1.png
subject-05,1,142,0.861300945281982,boat,boat,0,0142_s5n_s05_0_boat_00_boat2-keyboard1.png
subject-05,1,143,1.21456789970398,knife,knife,0,0143_s5n_s05_0_knife_00_knife7-elephant2.png
subject-05,1,144,1.40948700904846,elephant,elephant,0,0144_s5n_s05_0_elephant_00_elephant6-knife2.png
subject-05,1,145,0.633476972579956,cat,bottle,0,0145_s5n_s05_0_bottle_00_bottle7-keyboard2.png
subject-05,1,146,0.841814041137695,dog,dog,0,0146_s5n_s05_0_dog_00_dog9-airplane3.png
subject-05,1,147,0.87464714050293,bottle,bottle,0,0147_s5n_s05_0_bottle_00_bottle6-boat3.png
subject-05,1,148,0.760112047195435,knife,knife,0,0148_s5n_s05_0_knife_00_knife6-airplane1.png
subject-05,1,149,0.735344886779785,bottle,bottle,0,0149_s5n_s05_0_bottle_00_bottle8-bicycle1.png
subject-05,1,150,0.905318021774292,truck,bird,0,0150_s5n_s05_0_bird_00_bird1-truck1.png
subject-05,1,151,0.929225921630859,chair,chair,0,0151_s5n_s05_0_chair_00_chair5-clock2.png
subject-05,1,152,0.854030132293701,dog,dog,0,0152_s5n_s05_0_dog_00_dog6-elephant2.png
subject-05,1,153,0.769466161727905,oven,oven,0,0153_s5n_s05_0_oven_00_oven3-truck1.png
subject-05,1,154,0.785176992416382,bird,bird,0,0154_s5n_s05_0_bird_00_bird3-bird2.png
subject-05,1,155,0.654839038848877,car,car,0,0155_s5n_s05_0_car_00_car2-knife3.png
subject-05,1,156,0.824333190917969,dog,dog,0,0156_s5n_s05_0_dog_00_dog8-clock2.png
subject-05,1,157,0.837314128875732,bear,bear,0,0157_s5n_s05_0_bear_00_bear2-knife2.png
subject-05,1,158,0.831280946731567,oven,airplane,0,0158_s5n_s05_0_airplane_00_airplane10-bear3.png
subject-05,1,159,0.785209178924561,car,car,0,0159_s5n_s05_0_car_00_car10-car1.png
subject-05,1,160,0.868505954742432,elephant,elephant,0,0160_s5n_s05_0_elephant_00_elephant1-chair1.png
subject-05,1,161,0.825060844421387,bottle,keyboard,0,0161_s5n_s05_0_keyboard_00_keyboard10-oven3.png
subject-05,1,162,0.949244976043701,dog,dog,0,0162_s5n_s05_0_dog_00_dog10-oven2.png
subject-05,1,163,0.902379989624023,bottle,bottle,0,0163_s5n_s05_0_bottle_00_bottle4-dog2.png
subject-05,1,164,1.37821197509766,dog,cat,0,0164_s5n_s05_0_cat_00_cat1-keyboard3.png
subject-05,1,165,0.664732933044434,bicycle,bicycle,0,0165_s5n_s05_0_bicycle_00_bicycle4-knife3.png
subject-05,1,166,0.834843158721924,truck,truck,0,0166_s5n_s05_0_truck_00_truck6-oven3.png
subject-05,1,167,0.842558860778809,cat,cat,0,0167_s5n_s05_0_cat_00_cat5-dog3.png
subject-05,1,168,0.874015092849731,airplane,airplane,0,0168_s5n_s05_0_airplane_00_airplane4-bird3.png
subject-05,1,169,0.67448902130127,clock,clock,0,0169_s5n_s05_0_clock_00_clock7-cat2.png
subject-05,1,170,0.773887872695923,airplane,airplane,0,0170_s5n_s05_0_airplane_00_airplane5-boat3.png
subject-05,1,171,1.31411290168762,truck,truck,0,0171_s5n_s05_0_truck_00_truck2-chair1.png
subject-05,1,172,0.704831838607788,airplane,airplane,0,0172_s5n_s05_0_airplane_00_airplane6-chair3.png
subject-05,1,173,0.707437992095947,bear,bear,0,0173_s5n_s05_0_bear_00_bear2-dog1.png
subject-05,1,174,0.73758602142334,clock,clock,0,0174_s5n_s05_0_clock_00_clock8-airplane2.png
subject-05,1,175,0.623547077178955,chair,chair,0,0175_s5n_s05_0_chair_00_chair1-chair1.png
subject-05,1,176,1.32300090789795,bird,bird,0,0176_s5n_s05_0_bird_00_bird5-airplane3.png
subject-05,1,177,0.655844211578369,oven,oven,0,0177_s5n_s05_0_oven_00_oven9-bird3.png
subject-05,1,178,0.687542915344238,bottle,bottle,0,0178_s5n_s05_0_bottle_00_bottle6-chair2.png
subject-05,1,179,1.0414400100708,dog,dog,0,0179_s5n_s05_0_dog_00_dog1-bear1.png
subject-05,1,180,0.794924974441528,boat,boat,0,0180_s5n_s05_0_boat_00_boat1-car2.png
subject-05,1,181,0.740635871887207,chair,chair,0,0181_s5n_s05_0_chair_00_chair10-car2.png
subject-05,1,182,0.956073999404907,car,car,0,0182_s5n_s05_0_car_00_car8-dog1.png
subject-05,1,183,0.884078025817871,keyboard,keyboard,0,0183_s5n_s05_0_keyboard_00_keyboard10-airplane3.png
subject-05,1,184,0.8039870262146,bicycle,bicycle,0,0184_s5n_s05_0_bicycle_00_bicycle6-boat2.png
subject-05,1,185,1.02754592895508,elephant,elephant,0,0185_s5n_s05_0_elephant_00_elephant1-airplane2.png
subject-05,1,186,0.895379066467285,oven,oven,0,0186_s5n_s05_0_oven_00_oven10-airplane2.png
subject-05,1,187,0.826835870742798,chair,chair,0,0187_s5n_s05_0_chair_00_chair5-bicycle1.png
subject-05,1,188,0.947023153305054,oven,oven,0,0188_s5n_s05_0_oven_00_oven7-bottle1.png
subject-05,1,189,1.02598595619202,bicycle,bicycle,0,0189_s5n_s05_0_bicycle_00_bicycle3-bird1.png
subject-05,1,190,0.949292898178101,chair,chair,0,0190_s5n_s05_0_chair_00_chair8-oven1.png
subject-05,1,191,0.794629096984863,bird,bird,0,0191_s5n_s05_0_bird_00_bird9-keyboard1.png
subject-05,1,192,0.940446853637695,car,boat,0,0192_s5n_s05_0_boat_00_boat10-oven1.png
subject-05,1,193,0.931755065917969,car,car,0,0193_s5n_s05_0_car_00_car1-clock2.png
subject-05,1,194,0.702105045318604,keyboard,keyboard,0,0194_s5n_s05_0_keyboard_00_keyboard5-knife2.png
subject-05,1,195,0.850533008575439,bottle,bottle,0,0195_s5n_s05_0_bottle_00_bottle7-elephant2.png
subject-05,1,196,0.712034940719604,car,car,0,0196_s5n_s05_0_car_00_car9-truck3.png
subject-05,1,197,0.936022043228149,dog,dog,0,0197_s5n_s05_0_dog_00_dog6-cat1.png
subject-05,1,198,0.803605079650879,bottle,cat,0,0198_s5n_s05_0_cat_00_cat9-bottle2.png
subject-05,1,199,1.26536011695862,dog,dog,0,0199_s5n_s05_0_dog_00_dog8-keyboard3.png
subject-05,1,200,0.697246074676514,bicycle,bicycle,0,0200_s5n_s05_0_bicycle_00_bicycle10-clock2.png
subject-05,1,201,0.859158039093018,keyboard,keyboard,0,0201_s5n_s05_0_keyboard_00_keyboard4-clock2.png
subject-05,1,202,0.907744884490967,clock,clock,0,0202_s5n_s05_0_clock_00_clock9-keyboard2.png
subject-05,1,203,0.753286838531494,bicycle,bicycle,0,0203_s5n_s05_0_bicycle_00_bicycle4-clock3.png
subject-05,1,204,0.836477041244507,keyboard,keyboard,0,0204_s5n_s05_0_keyboard_00_keyboard6-car2.png
subject-05,1,205,0.722770214080811,bear,bear,0,0205_s5n_s05_0_bear_00_bear8-truck3.png
subject-05,1,206,0.863829135894775,dog,dog,0,0206_s5n_s05_0_dog_00_dog9-bear3.png
subject-05,1,207,0.872293949127197,bird,bird,0,0207_s5n_s05_0_bird_00_bird10-bicycle1.png
subject-05,1,208,0.725609064102173,oven,oven,0,0208_s5n_s05_0_oven_00_oven2-chair1.png
subject-05,1,209,0.833169221878052,keyboard,keyboard,0,0209_s5n_s05_0_keyboard_00_keyboard3-car2.png
subject-05,1,210,1.32609701156616,chair,oven,0,0210_s5n_s05_0_oven_00_oven7-keyboard1.png
subject-05,1,211,0.900830984115601,truck,truck,0,0211_s5n_s05_0_truck_00_truck1-chair2.png
subject-05,1,212,0.749049186706543,bird,bird,0,0212_s5n_s05_0_bird_00_bird4-clock1.png
subject-05,1,213,0.924690961837769,bicycle,bicycle,0,0213_s5n_s05_0_bicycle_00_bicycle9-keyboard3.png
subject-05,1,214,0.878165006637573,cat,dog,0,0214_s5n_s05_0_dog_00_dog4-truck2.png
subject-05,1,215,0.732324123382568,oven,oven,0,0215_s5n_s05_0_oven_00_oven2-bear3.png
subject-05,1,216,1.07034802436829,bird,boat,0,0216_s5n_s05_0_boat_00_boat6-knife2.png
subject-05,1,217,0.810338020324707,airplane,airplane,0,0217_s5n_s05_0_airplane_00_airplane5-bottle3.png
subject-05,1,218,1.09380102157593,dog,cat,0,0218_s5n_s05_0_cat_00_cat3-elephant2.png
subject-05,1,219,0.666360855102539,clock,clock,0,0219_s5n_s05_0_clock_00_clock8-oven3.png
subject-05,1,220,0.825942039489746,bear,elephant,0,0220_s5n_s05_0_elephant_00_elephant4-car3.png
subject-05,1,221,0.757105112075806,chair,chair,0,0221_s5n_s05_0_chair_00_chair3-car3.png
subject-05,1,222,0.973553895950317,cat,cat,0,0222_s5n_s05_0_cat_00_cat10-clock1.png
subject-05,1,223,0.781289100646973,bottle,bottle,0,0223_s5n_s05_0_bottle_00_bottle8-bird1.png
subject-05,1,224,1.29458498954773,keyboard,keyboard,0,0224_s5n_s05_0_keyboard_00_keyboard6-chair1.png
subject-05,1,225,1.1326150894165,knife,boat,0,0225_s5n_s05_0_boat_00_boat4-bird1.png
subject-05,1,226,0.709973812103271,keyboard,keyboard,0,0226_s5n_s05_0_keyboard_00_keyboard8-cat3.png
subject-05,1,227,0.834226131439209,keyboard,airplane,0,0227_s5n_s05_0_airplane_00_airplane9-keyboard2.png
subject-05,1,228,0.779813051223755,car,car,0,0228_s5n_s05_0_car_00_car4-clock1.png
subject-05,1,229,0.979339838027954,bicycle,bicycle,0,0229_s5n_s05_0_bicycle_00_bicycle9-chair1.png
subject-05,1,230,0.971863985061646,chair,chair,0,0230_s5n_s05_0_chair_00_chair1-bear1.png
subject-05,1,231,0.933284997940063,bottle,elephant,0,0231_s5n_s05_0_elephant_00_elephant3-keyboard2.png
subject-05,1,232,0.764854907989502,bicycle,bicycle,0,0232_s5n_s05_0_bicycle_00_bicycle9-airplane2.png
subject-05,1,233,0.773529052734375,keyboard,keyboard,0,0233_s5n_s05_0_keyboard_00_keyboard7-truck2.png
subject-05,1,234,0.789072036743164,truck,truck,0,0234_s5n_s05_0_truck_00_truck9-chair3.png
subject-05,1,235,0.912044048309326,truck,truck,0,0235_s5n_s05_0_truck_00_truck1-bicycle3.png
subject-05,1,236,0.597847938537598,clock,clock,0,0236_s5n_s05_0_clock_00_clock3-bear3.png
subject-05,1,237,1.10548901557922,bottle,elephant,0,0237_s5n_s05_0_elephant_00_elephant3-oven1.png
subject-05,1,238,0.787884950637817,clock,clock,0,0238_s5n_s05_0_clock_00_clock9-chair3.png
subject-05,1,239,1.41732716560364,knife,boat,0,0239_s5n_s05_0_boat_00_boat6-bottle2.png
subject-05,1,240,1.13435292243958,truck,truck,0,0240_s5n_s05_0_truck_00_truck7-bear2.png
subject-05,1,241,0.820831060409546,knife,knife,0,0241_s5n_s05_0_knife_00_knife2-bird1.png
subject-05,1,242,0.890426874160767,dog,dog,0,0242_s5n_s05_0_dog_00_dog2-cat1.png
subject-05,1,243,0.949728012084961,knife,airplane,0,0243_s5n_s05_0_airplane_00_airplane4-cat3.png
subject-05,1,244,0.827980041503906,chair,chair,0,0244_s5n_s05_0_chair_00_chair9-bear1.png
subject-05,1,245,0.749360084533691,car,car,0,0245_s5n_s05_0_car_00_car8-knife2.png
subject-05,1,246,0.697352886199951,boat,boat,0,0246_s5n_s05_0_boat_00_boat5-airplane1.png
subject-05,1,247,0.743326902389526,chair,chair,0,0247_s5n_s05_0_chair_00_chair5-bottle3.png
subject-05,1,248,1.06759905815125,car,elephant,0,0248_s5n_s05_0_elephant_00_elephant7-knife2.png
subject-05,1,249,0.828728199005127,car,car,0,0249_s5n_s05_0_car_00_car10-dog1.png
subject-05,1,250,0.960762023925781,truck,airplane,0,0250_s5n_s05_0_airplane_00_airplane4-truck2.png
subject-05,1,251,0.737334012985229,bear,bear,0,0251_s5n_s05_0_bear_00_bear2-cat2.png
subject-05,1,252,0.923218011856079,bear,bear,0,0252_s5n_s05_0_bear_00_bear4-elephant2.png
subject-05,1,253,0.698570013046265,bicycle,bicycle,0,0253_s5n_s05_0_bicycle_00_bicycle6-airplane2.png
subject-05,1,254,0.922420024871826,bicycle,keyboard,0,0254_s5n_s05_0_keyboard_00_keyboard7-chair3.png
subject-05,1,255,0.730711936950684,bottle,bottle,0,0255_s5n_s05_0_bottle_00_bottle3-knife3.png
subject-05,1,256,0.784569978713989,knife,knife,0,0256_s5n_s05_0_knife_00_knife10-bear3.png
subject-05,1,257,0.817071914672852,keyboard,keyboard,0,0257_s5n_s05_0_keyboard_00_keyboard1-chair2.png
subject-05,1,258,0.808795928955078,knife,knife,0,0258_s5n_s05_0_knife_00_knife6-knife1.png
subject-05,1,259,1.06272912025452,knife,boat,0,0259_s5n_s05_0_boat_00_boat2-bear3.png
subject-05,1,260,0.537990093231201,boat,boat,0,0260_s5n_s05_0_boat_00_boat9-airplane2.png
subject-05,1,261,0.732756853103638,knife,truck,0,0261_s5n_s05_0_truck_00_truck7-keyboard3.png
subject-05,1,262,1.19999003410339,keyboard,oven,0,0262_s5n_s05_0_oven_00_oven6-knife3.png
subject-05,1,263,0.753417015075684,clock,clock,0,0263_s5n_s05_0_clock_00_clock7-bottle2.png
subject-05,1,264,0.670547962188721,clock,clock,0,0264_s5n_s05_0_clock_00_clock4-elephant2.png
subject-05,1,265,1.27804613113403,boat,bear,0,0265_s5n_s05_0_bear_00_bear7-oven3.png
subject-05,1,266,0.609869003295898,oven,oven,0,0266_s5n_s05_0_oven_00_oven10-truck2.png
subject-05,1,267,0.818201065063477,airplane,airplane,0,0267_s5n_s05_0_airplane_00_airplane4-car1.png
subject-05,1,268,1.03404903411865,bicycle,bicycle,0,0268_s5n_s05_0_bicycle_00_bicycle8-chair2.png
subject-05,1,269,1.10875701904297,truck,truck,0,0269_s5n_s05_0_truck_00_truck3-knife2.png
subject-05,1,270,0.686835050582886,clock,clock,0,0270_s5n_s05_0_clock_00_clock4-boat3.png
subject-05,1,271,0.595653772354126,boat,boat,0,0271_s5n_s05_0_boat_00_boat9-clock1.png
subject-05,1,272,1.15510702133179,truck,truck,0,0272_s5n_s05_0_truck_00_truck7-chair2.png
subject-05,1,273,0.854333162307739,knife,knife,0,0273_s5n_s05_0_knife_00_knife7-chair2.png
subject-05,1,274,0.701869010925293,clock,clock,0,0274_s5n_s05_0_clock_00_clock10-airplane1.png
subject-05,1,275,0.648305177688599,boat,boat,0,0275_s5n_s05_0_boat_00_boat7-bottle1.png
subject-05,1,276,0.948111057281494,knife,knife,0,0276_s5n_s05_0_knife_00_knife7-airplane3.png
subject-05,1,277,0.693071842193604,truck,truck,0,0277_s5n_s05_0_truck_00_truck5-keyboard1.png
subject-05,1,278,0.63963508605957,clock,clock,0,0278_s5n_s05_0_clock_00_clock9-cat1.png
subject-05,1,279,0.938187122344971,clock,oven,0,0279_s5n_s05_0_oven_00_oven5-bird1.png
subject-05,1,280,0.91353702545166,knife,knife,0,0280_s5n_s05_0_knife_00_knife1-clock2.png
subject-05,1,281,0.667269945144653,boat,boat,0,0281_s5n_s05_0_boat_00_boat7-elephant3.png
subject-05,1,282,0.713203191757202,car,car,0,0282_s5n_s05_0_car_00_car7-clock1.png
subject-05,1,283,0.836797952651978,bottle,bottle,0,0283_s5n_s05_0_bottle_00_bottle6-bird1.png
subject-05,1,284,0.991395950317383,chair,chair,0,0284_s5n_s05_0_chair_00_chair3-airplane2.png
subject-05,1,285,0.81980299949646,chair,chair,0,0285_s5n_s05_0_chair_00_chair8-airplane1.png
subject-05,1,286,0.727978944778442,airplane,airplane,0,0286_s5n_s05_0_airplane_00_airplane10-truck1.png
subject-05,1,287,0.998198986053467,airplane,bear,0,0287_s5n_s05_0_bear_00_bear6-cat3.png
subject-05,1,288,0.667212963104248,cat,cat,0,0288_s5n_s05_0_cat_00_cat10-bear1.png
subject-05,1,289,1.35889291763306,dog,dog,0,0289_s5n_s05_0_dog_00_dog7-car2.png
subject-05,1,290,0.751071929931641,keyboard,keyboard,0,0290_s5n_s05_0_keyboard_00_keyboard7-clock3.png
subject-05,1,291,0.750754833221436,bottle,bottle,0,0291_s5n_s05_0_bottle_00_bottle1-chair2.png
subject-05,1,292,0.853449106216431,elephant,elephant,0,0292_s5n_s05_0_elephant_00_elephant8-clock2.png
subject-05,1,293,0.945451021194458,keyboard,keyboard,0,0293_s5n_s05_0_keyboard_00_keyboard10-keyboard1.png
subject-05,1,294,0.875682830810547,knife,knife,0,0294_s5n_s05_0_knife_00_knife6-bird1.png
subject-05,1,295,0.861800909042358,cat,cat,0,0295_s5n_s05_0_cat_00_cat9-truck1.png
subject-05,1,296,1.21331596374512,boat,cat,0,0296_s5n_s05_0_cat_00_cat5-chair3.png
subject-05,1,297,0.844581842422485,bird,bird,0,0297_s5n_s05_0_bird_00_bird1-oven1.png
subject-05,1,298,1.11244297027588,cat,dog,0,0298_s5n_s05_0_dog_00_dog3-clock1.png
subject-05,1,299,0.820209980010986,knife,knife,0,0299_s5n_s05_0_knife_00_knife4-boat1.png
subject-05,1,300,0.589755058288574,boat,boat,0,0300_s5n_s05_0_boat_00_boat9-chair2.png
subject-05,1,301,1.01962780952454,bird,bird,0,0301_s5n_s05_0_bird_00_bird8-car2.png
subject-05,1,302,0.964578866958618,bear,bear,0,0302_s5n_s05_0_bear_00_bear10-truck1.png
subject-05,1,303,0.956547021865845,bear,bear,0,0303_s5n_s05_0_bear_00_bear4-oven2.png
subject-05,1,304,0.809936046600342,bottle,bottle,0,0304_s5n_s05_0_bottle_00_bottle6-oven3.png
subject-05,1,305,0.855847120285034,bear,bear,0,0305_s5n_s05_0_bear_00_bear10-bottle1.png
subject-05,1,306,0.80134105682373,elephant,elephant,0,0306_s5n_s05_0_elephant_00_elephant7-bottle3.png
subject-05,1,307,0.646833896636963,boat,boat,0,0307_s5n_s05_0_boat_00_boat1-bicycle2.png
subject-05,1,308,0.716696977615356,keyboard,oven,0,0308_s5n_s05_0_oven_00_oven8-cat3.png
subject-05,1,309,1.06294894218445,bear,bear,0,0309_s5n_s05_0_bear_00_bear3-car2.png
subject-05,1,310,0.754485130310059,elephant,elephant,0,0310_s5n_s05_0_elephant_00_elephant3-truck1.png
subject-05,1,311,1.01578998565674,chair,chair,0,0311_s5n_s05_0_chair_00_chair9-bicycle3.png
subject-05,1,312,0.924491882324219,keyboard,keyboard,0,0312_s5n_s05_0_keyboard_00_keyboard10-truck1.png
subject-05,1,313,1.14658284187317,keyboard,keyboard,0,0313_s5n_s05_0_keyboard_00_keyboard1-bear2.png
subject-05,1,314,0.594440937042236,bicycle,bicycle,0,0314_s5n_s05_0_bicycle_00_bicycle4-airplane1.png
subject-05,1,315,0.799953937530518,airplane,airplane,0,0315_s5n_s05_0_airplane_00_airplane4-airplane1.png
subject-05,1,316,0.924219846725464,airplane,airplane,0,0316_s5n_s05_0_airplane_00_airplane3-airplane2.png
subject-05,1,317,1.0937340259552,bear,cat,0,0317_s5n_s05_0_cat_00_cat9-knife2.png
subject-05,1,318,0.647448062896729,cat,cat,0,0318_s5n_s05_0_cat_00_cat5-bottle1.png
subject-05,1,319,0.934992074966431,chair,chair,0,0319_s5n_s05_0_chair_00_chair6-dog1.png
subject-05,1,320,1.0398850440979,dog,dog,0,0320_s5n_s05_0_dog_00_dog1-dog2.png
subject-05,1,321,0.693935871124268,oven,oven,0,0321_s5n_s05_0_oven_00_oven4-car1.png
subject-05,1,322,0.673075914382935,truck,truck,0,0322_s5n_s05_0_truck_00_truck8-dog3.png
subject-05,1,323,0.718761920928955,boat,boat,0,0323_s5n_s05_0_boat_00_boat4-bicycle3.png
subject-05,1,324,0.734186887741089,truck,truck,0,0324_s5n_s05_0_truck_00_truck2-keyboard1.png
subject-05,1,325,0.872153997421265,bicycle,bicycle,0,0325_s5n_s05_0_bicycle_00_bicycle2-dog1.png
subject-05,1,326,0.610065937042236,oven,oven,0,0326_s5n_s05_0_oven_00_oven5-airplane1.png
subject-05,1,327,0.809279918670654,knife,knife,0,0327_s5n_s05_0_knife_00_knife2-bicycle3.png
subject-05,1,328,0.794543981552124,elephant,elephant,0,0328_s5n_s05_0_elephant_00_elephant1-dog2.png
subject-05,1,329,0.863046169281006,boat,boat,0,0329_s5n_s05_0_boat_00_boat2-bird1.png
subject-05,1,330,0.694931983947754,truck,truck,0,0330_s5n_s05_0_truck_00_truck2-oven3.png
subject-05,1,331,0.748870134353638,bottle,bottle,0,0331_s5n_s05_0_bottle_00_bottle6-knife3.png
subject-05,1,332,0.827752828598022,car,car,0,0332_s5n_s05_0_car_00_car2-car3.png
subject-05,1,333,0.710859060287476,oven,oven,0,0333_s5n_s05_0_oven_00_oven4-dog1.png
subject-05,1,334,0.757422924041748,keyboard,keyboard,0,0334_s5n_s05_0_keyboard_00_keyboard8-keyboard2.png
subject-05,1,335,0.986875057220459,bird,bird,0,0335_s5n_s05_0_bird_00_bird9-chair1.png
subject-05,1,336,0.740467071533203,oven,oven,0,0336_s5n_s05_0_oven_00_oven4-bottle2.png
subject-05,1,337,0.617416143417358,car,car,0,0337_s5n_s05_0_car_00_car5-keyboard3.png
subject-05,1,338,0.979601144790649,bicycle,bicycle,0,0338_s5n_s05_0_bicycle_00_bicycle10-boat3.png
subject-05,1,339,0.90178394317627,elephant,elephant,0,0339_s5n_s05_0_elephant_00_elephant9-elephant3.png
subject-05,1,340,0.725905179977417,bear,bear,0,0340_s5n_s05_0_bear_00_bear5-oven3.png
subject-05,1,341,0.701000928878784,clock,clock,0,0341_s5n_s05_0_clock_00_clock6-clock2.png
subject-05,1,342,0.754729032516479,clock,clock,0,0342_s5n_s05_0_clock_00_clock1-boat3.png
subject-05,1,343,0.922290802001953,truck,truck,0,0343_s5n_s05_0_truck_00_truck10-car3.png
subject-05,1,344,0.669942140579224,clock,clock,0,0344_s5n_s05_0_clock_00_clock4-knife1.png
subject-05,1,345,0.878799915313721,bird,bird,0,0345_s5n_s05_0_bird_00_bird6-car3.png
subject-05,1,346,0.647036075592041,oven,oven,0,0346_s5n_s05_0_oven_00_oven2-oven3.png
subject-05,1,347,0.708197832107544,airplane,airplane,0,0347_s5n_s05_0_airplane_00_airplane7-keyboard1.png
subject-05,1,348,1.12383890151978,bicycle,bicycle,0,0348_s5n_s05_0_bicycle_00_bicycle4-bottle1.png
subject-05,1,349,0.870230913162231,knife,knife,0,0349_s5n_s05_0_knife_00_knife10-oven3.png
subject-05,1,350,1.03289318084717,bear,bear,0,0350_s5n_s05_0_bear_00_bear1-elephant1.png
subject-05,1,351,1.07904314994812,bird,cat,0,0351_s5n_s05_0_cat_00_cat4-cat3.png
subject-05,1,352,1.21701192855835,dog,dog,0,0352_s5n_s05_0_dog_00_dog3-keyboard1.png
subject-05,1,353,0.786407947540283,elephant,elephant,0,0353_s5n_s05_0_elephant_00_elephant1-oven2.png
subject-05,1,354,0.819262981414795,bicycle,bicycle,0,0354_s5n_s05_0_bicycle_00_bicycle5-elephant1.png
subject-05,1,355,0.740388154983521,keyboard,keyboard,0,0355_s5n_s05_0_keyboard_00_keyboard7-bottle1.png
subject-05,1,356,1.04819703102112,car,car,0,0356_s5n_s05_0_car_00_car8-airplane3.png
subject-05,1,357,0.702433109283447,bicycle,bicycle,0,0357_s5n_s05_0_bicycle_00_bicycle9-bear1.png
subject-05,1,358,0.826859951019287,elephant,elephant,0,0358_s5n_s05_0_elephant_00_elephant2-airplane3.png
subject-05,1,359,0.663592100143433,bicycle,bicycle,0,0359_s5n_s05_0_bicycle_00_bicycle10-airplane2.png
subject-05,1,360,0.793843030929565,car,car,0,0360_s5n_s05_0_car_00_car4-bird1.png
subject-05,1,361,1.29308199882507,knife,knife,0,0361_s5n_s05_0_knife_00_knife2-elephant2.png
subject-05,1,362,0.887672185897827,knife,airplane,0,0362_s5n_s05_0_airplane_00_airplane9-truck1.png
subject-05,1,363,0.984318017959595,airplane,airplane,0,0363_s5n_s05_0_airplane_00_airplane9-car2.png
subject-05,1,364,0.59169602394104,chair,chair,0,0364_s5n_s05_0_chair_00_chair10-bird3.png
subject-05,1,365,0.683517932891846,oven,oven,0,0365_s5n_s05_0_oven_00_oven9-bear2.png
subject-05,1,366,0.751646995544434,bird,bird,0,0366_s5n_s05_0_bird_00_bird4-cat3.png
subject-05,1,367,1.4296178817749,clock,boat,0,0367_s5n_s05_0_boat_00_boat1-oven1.png
subject-05,1,368,1.08312892913818,bicycle,bicycle,0,0368_s5n_s05_0_bicycle_00_bicycle1-airplane2.png
subject-05,1,369,0.690713167190552,boat,boat,0,0369_s5n_s05_0_boat_00_boat2-airplane1.png
subject-05,1,370,0.736632108688354,boat,boat,0,0370_s5n_s05_0_boat_00_boat5-boat3.png
subject-05,1,371,0.690898180007935,keyboard,keyboard,0,0371_s5n_s05_0_keyboard_00_keyboard7-bear2.png
subject-05,1,372,0.757228851318359,bottle,keyboard,0,0372_s5n_s05_0_keyboard_00_keyboard4-bottle2.png
subject-05,1,373,1.01192998886108,bottle,airplane,0,0373_s5n_s05_0_airplane_00_airplane6-bottle2.png
subject-05,1,374,0.856446027755737,bird,airplane,0,0374_s5n_s05_0_airplane_00_airplane3-dog1.png
subject-05,1,375,0.657091856002808,oven,oven,0,0375_s5n_s05_0_oven_00_oven4-elephant3.png
subject-05,1,376,1.08647894859314,elephant,elephant,0,0376_s5n_s05_0_elephant_00_elephant2-clock1.png
subject-05,1,377,0.872465133666992,airplane,airplane,0,0377_s5n_s05_0_airplane_00_airplane1-chair2.png
subject-05,1,378,0.722738027572632,cat,dog,0,0378_s5n_s05_0_dog_00_dog3-dog1.png
subject-05,1,379,0.61408519744873,bottle,bottle,0,0379_s5n_s05_0_bottle_00_bottle10-clock2.png
subject-05,1,380,0.646000146865845,airplane,airplane,0,0380_s5n_s05_0_airplane_00_airplane7-bird3.png
subject-05,1,381,0.814670085906982,elephant,elephant,0,0381_s5n_s05_0_elephant_00_elephant6-car3.png
subject-05,1,382,0.684873819351196,car,car,0,0382_s5n_s05_0_car_00_car6-elephant3.png
subject-05,1,383,0.916478872299194,truck,truck,0,0383_s5n_s05_0_truck_00_truck2-airplane3.png
subject-05,1,384,1.15438103675842,knife,knife,0,0384_s5n_s05_0_knife_00_knife1-chair1.png
subject-05,1,385,0.678507089614868,oven,oven,0,0385_s5n_s05_0_oven_00_oven2-bicycle1.png
subject-05,1,386,1.06991100311279,clock,clock,0,0386_s5n_s05_0_clock_00_clock1-elephant2.png
subject-05,1,387,0.908025979995728,car,car,0,0387_s5n_s05_0_car_00_car4-bottle1.png
subject-05,1,388,1.32448196411133,car,bear,0,0388_s5n_s05_0_bear_00_bear10-clock1.png
subject-05,1,389,0.547945022583008,clock,clock,0,0389_s5n_s05_0_clock_00_clock6-truck3.png
subject-05,1,390,0.940680980682373,keyboard,keyboard,0,0390_s5n_s05_0_keyboard_00_keyboard6-boat2.png
subject-05,1,391,1.08631205558777,elephant,bird,0,0391_s5n_s05_0_bird_00_bird7-oven3.png
subject-05,1,392,0.76432204246521,chair,chair,0,0392_s5n_s05_0_chair_00_chair8-knife2.png
subject-05,1,393,1.10140609741211,cat,dog,0,0393_s5n_s05_0_dog_00_dog7-oven2.png
subject-05,1,394,0.830798864364624,knife,knife,0,0394_s5n_s05_0_knife_00_knife10-keyboard3.png
subject-05,1,395,1.27648711204529,knife,knife,0,0395_s5n_s05_0_knife_00_knife2-dog1.png
subject-05,1,396,1.18387985229492,bicycle,keyboard,0,0396_s5n_s05_0_keyboard_00_keyboard2-knife1.png
subject-05,1,397,1.10764193534851,dog,dog,0,0397_s5n_s05_0_dog_00_dog4-airplane3.png
subject-05,1,398,1.35288095474243,bicycle,knife,0,0398_s5n_s05_0_knife_00_knife5-knife3.png
subject-05,1,399,0.707195997238159,oven,oven,0,0399_s5n_s05_0_oven_00_oven9-chair1.png
subject-05,1,400,0.698799133300781,keyboard,keyboard,0,0400_s5n_s05_0_keyboard_00_keyboard9-chair2.png
subject-05,1,401,0.644507884979248,cat,cat,0,0401_s5n_s05_0_cat_00_cat7-dog3.png
subject-05,1,402,0.730520963668823,bear,bear,0,0402_s5n_s05_0_bear_00_bear1-bicycle3.png
subject-05,1,403,0.889533042907715,car,car,0,0403_s5n_s05_0_car_00_car3-truck1.png
subject-05,1,404,1.04385709762573,bird,bird,0,0404_s5n_s05_0_bird_00_bird8-boat3.png
subject-05,1,405,1.03519201278687,bear,bear,0,0405_s5n_s05_0_bear_00_bear10-elephant1.png
subject-05,1,406,0.867584943771362,truck,truck,0,0406_s5n_s05_0_truck_00_truck2-bottle3.png
subject-05,1,407,1.02112293243408,bicycle,bicycle,0,0407_s5n_s05_0_bicycle_00_bicycle5-bottle3.png
subject-05,1,408,0.950949907302856,chair,chair,0,0408_s5n_s05_0_chair_00_chair7-bottle1.png
subject-05,1,409,0.680001974105835,bear,bear,0,0409_s5n_s05_0_bear_00_bear5-bicycle3.png
subject-05,1,410,0.795777797698975,bicycle,bicycle,0,0410_s5n_s05_0_bicycle_00_bicycle6-dog2.png
subject-05,1,411,0.871771812438965,oven,oven,0,0411_s5n_s05_0_oven_00_oven3-cat2.png
subject-05,1,412,0.718015909194946,keyboard,keyboard,0,0412_s5n_s05_0_keyboard_00_keyboard6-bear2.png
subject-05,1,413,0.95434308052063,car,boat,0,0413_s5n_s05_0_boat_00_boat10-cat1.png
subject-05,1,414,0.757130146026611,oven,oven,0,0414_s5n_s05_0_oven_00_oven3-bear2.png
subject-05,1,415,1.0952479839325,clock,elephant,0,0415_s5n_s05_0_elephant_00_elephant10-keyboard1.png
subject-05,1,416,1.06257390975952,car,car,0,0416_s5n_s05_0_car_00_car7-boat3.png
subject-05,1,417,0.732261896133423,chair,chair,0,0417_s5n_s05_0_chair_00_chair1-cat3.png
subject-05,1,418,0.818595886230469,bottle,bottle,0,0418_s5n_s05_0_bottle_00_bottle5-oven2.png
subject-05,1,419,0.909884929656982,elephant,elephant,0,0419_s5n_s05_0_elephant_00_elephant8-dog1.png
subject-05,1,420,0.839628934860229,bear,bear,0,0420_s5n_s05_0_bear_00_bear5-boat2.png
subject-05,1,421,0.780229091644287,clock,clock,0,0421_s5n_s05_0_clock_00_clock5-clock2.png
subject-05,1,422,0.764111995697021,airplane,airplane,0,0422_s5n_s05_0_airplane_00_airplane10-elephant1.png
subject-05,1,423,1.0340690612793,truck,truck,0,0423_s5n_s05_0_truck_00_truck7-oven2.png
subject-05,1,424,1.26379990577698,chair,chair,0,0424_s5n_s05_0_chair_00_chair5-boat3.png
subject-05,1,425,1.01743197441101,elephant,elephant,0,0425_s5n_s05_0_elephant_00_elephant5-truck1.png
subject-05,1,426,0.895490884780884,knife,knife,0,0426_s5n_s05_0_knife_00_knife2-bear2.png
subject-05,1,427,0.871388912200928,dog,cat,0,0427_s5n_s05_0_cat_00_cat7-bottle1.png
subject-05,1,428,0.794736862182617,elephant,elephant,0,0428_s5n_s05_0_elephant_00_elephant9-dog3.png
subject-05,1,429,0.933144807815552,knife,knife,0,0429_s5n_s05_0_knife_00_knife6-truck1.png
subject-05,1,430,1.28121089935303,knife,truck,0,0430_s5n_s05_0_truck_00_truck3-keyboard3.png
subject-05,1,431,0.597622871398926,boat,boat,0,0431_s5n_s05_0_boat_00_boat9-cat3.png
subject-05,1,432,0.681936025619507,clock,clock,0,0432_s5n_s05_0_clock_00_clock8-keyboard1.png
subject-05,1,433,0.852822780609131,car,car,0,0433_s5n_s05_0_car_00_car1-keyboard2.png
subject-05,1,434,0.901042938232422,oven,airplane,0,0434_s5n_s05_0_airplane_00_airplane4-dog2.png
subject-05,1,435,0.90692400932312,chair,chair,0,0435_s5n_s05_0_chair_00_chair2-bear2.png
subject-05,1,436,1.11364912986755,elephant,elephant,0,0436_s5n_s05_0_elephant_00_elephant1-boat2.png
subject-05,1,437,0.791821002960205,oven,oven,0,0437_s5n_s05_0_oven_00_oven10-oven3.png
subject-05,1,438,1.09149289131165,airplane,airplane,0,0438_s5n_s05_0_airplane_00_airplane8-truck3.png
subject-05,1,439,1.02068614959717,clock,oven,0,0439_s5n_s05_0_oven_00_oven6-bird1.png
subject-05,1,440,0.769006013870239,bicycle,bicycle,0,0440_s5n_s05_0_bicycle_00_bicycle8-boat1.png
subject-05,1,441,0.883460998535156,bear,bear,0,0441_s5n_s05_0_bear_00_bear10-cat2.png
subject-05,1,442,0.669414043426514,car,car,0,0442_s5n_s05_0_car_00_car2-bird3.png
subject-05,1,443,0.699087858200073,dog,dog,0,0443_s5n_s05_0_dog_00_dog6-bicycle1.png
subject-05,1,444,0.814764976501465,chair,chair,0,0444_s5n_s05_0_chair_00_chair6-elephant2.png
subject-05,1,445,0.753101110458374,oven,oven,0,0445_s5n_s05_0_oven_00_oven6-bicycle1.png
subject-05,1,446,0.906830072402954,truck,truck,0,0446_s5n_s05_0_truck_00_truck4-airplane3.png
subject-05,1,447,0.708932876586914,bicycle,bicycle,0,0447_s5n_s05_0_bicycle_00_bicycle5-keyboard3.png
subject-05,1,448,0.762524127960205,boat,boat,0,0448_s5n_s05_0_boat_00_boat2-oven3.png
subject-05,1,449,1.47635889053345,knife,keyboard,0,0449_s5n_s05_0_keyboard_00_keyboard1-elephant3.png
subject-05,1,450,0.753942966461182,car,car,0,0450_s5n_s05_0_car_00_car4-elephant3.png
subject-05,1,451,1.01550102233887,knife,knife,0,0451_s5n_s05_0_knife_00_knife4-cat2.png
subject-05,1,452,0.65353798866272,cat,cat,0,0452_s5n_s05_0_cat_00_cat4-dog3.png
subject-05,1,453,1.22310900688171,chair,chair,0,0453_s5n_s05_0_chair_00_chair7-clock3.png
subject-05,1,454,0.913916110992432,chair,chair,0,0454_s5n_s05_0_chair_00_chair7-elephant1.png
subject-05,1,455,0.805479049682617,bird,bird,0,0455_s5n_s05_0_bird_00_bird2-airplane3.png
subject-05,1,456,0.751529932022095,chair,chair,0,0456_s5n_s05_0_chair_00_chair5-bird1.png
subject-05,1,457,1.21288204193115,elephant,elephant,0,0457_s5n_s05_0_elephant_00_elephant7-dog1.png
subject-05,1,458,0.642884016036987,car,car,0,0458_s5n_s05_0_car_00_car9-knife1.png
subject-05,1,459,0.812615871429443,boat,boat,0,0459_s5n_s05_0_boat_00_boat5-bicycle3.png
subject-05,1,460,1.18811798095703,truck,truck,0,0460_s5n_s05_0_truck_00_truck4-bottle2.png
subject-05,1,461,0.918343067169189,bicycle,bicycle,0,0461_s5n_s05_0_bicycle_00_bicycle8-truck1.png
subject-05,1,462,0.95132303237915,bicycle,bicycle,0,0462_s5n_s05_0_bicycle_00_bicycle7-bear2.png
subject-05,1,463,0.842509984970093,dog,dog,0,0463_s5n_s05_0_dog_00_dog9-bottle1.png
subject-05,1,464,0.887616157531738,cat,cat,0,0464_s5n_s05_0_cat_00_cat8-bear1.png
subject-05,1,465,0.894793033599854,elephant,elephant,0,0465_s5n_s05_0_elephant_00_elephant9-clock3.png
subject-05,1,466,0.795070886611938,clock,keyboard,0,0466_s5n_s05_0_keyboard_00_keyboard2-clock1.png
subject-05,1,467,0.908963918685913,car,car,0,0467_s5n_s05_0_car_00_car6-bear1.png
subject-05,1,468,0.98639988899231,chair,chair,0,0468_s5n_s05_0_chair_00_chair3-dog2.png
subject-05,1,469,0.961840152740479,bottle,bottle,0,0469_s5n_s05_0_bottle_00_bottle10-boat3.png
subject-05,1,470,0.539704084396362,chair,chair,0,0470_s5n_s05_0_chair_00_chair2-keyboard2.png
subject-05,1,471,0.693518877029419,cat,cat,0,0471_s5n_s05_0_cat_00_cat3-cat1.png
subject-05,1,472,1.17731213569641,keyboard,keyboard,0,0472_s5n_s05_0_keyboard_00_keyboard5-keyboard1.png
subject-05,1,473,0.739231109619141,bird,bird,0,0473_s5n_s05_0_bird_00_bird4-dog3.png
subject-05,1,474,1.00062489509583,airplane,knife,0,0474_s5n_s05_0_knife_00_knife1-car3.png
subject-05,1,475,0.754684209823608,oven,oven,0,0475_s5n_s05_0_oven_00_oven9-boat2.png
subject-05,1,476,0.824462175369263,boat,boat,0,0476_s5n_s05_0_boat_00_boat2-bottle2.png
subject-05,1,477,0.679589986801147,oven,oven,0,0477_s5n_s05_0_oven_00_oven5-bicycle1.png
subject-05,1,478,0.724646091461182,keyboard,keyboard,0,0478_s5n_s05_0_keyboard_00_keyboard5-dog3.png
subject-05,1,479,0.90312385559082,keyboard,keyboard,0,0479_s5n_s05_0_keyboard_00_keyboard3-clock3.png
subject-05,1,480,0.76968789100647,truck,truck,0,0480_s5n_s05_0_truck_00_truck6-clock2.png
subject-05,1,481,1.14828705787659,keyboard,boat,0,0481_s5n_s05_0_boat_00_boat7-oven3.png
subject-05,1,482,0.811141967773438,airplane,airplane,0,0482_s5n_s05_0_airplane_00_airplane2-bicycle1.png
subject-05,1,483,1.19510889053345,elephant,elephant,0,0483_s5n_s05_0_elephant_00_elephant2-bottle3.png
subject-05,1,484,0.872886180877686,bicycle,bicycle,0,0484_s5n_s05_0_bicycle_00_bicycle10-elephant2.png
subject-05,1,485,0.848352909088135,truck,truck,0,0485_s5n_s05_0_truck_00_truck6-knife2.png
subject-05,1,486,1.06384110450745,keyboard,airplane,0,0486_s5n_s05_0_airplane_00_airplane3-keyboard2.png
subject-05,1,487,0.801007032394409,knife,knife,0,0487_s5n_s05_0_knife_00_knife4-keyboard1.png
subject-05,1,488,0.70468282699585,oven,oven,0,0488_s5n_s05_0_oven_00_oven2-bottle1.png
subject-05,1,489,0.766236066818237,keyboard,keyboard,0,0489_s5n_s05_0_keyboard_00_keyboard9-bird1.png
subject-05,1,490,0.98845100402832,clock,dog,0,0490_s5n_s05_0_dog_00_dog1-chair1.png
subject-05,1,491,0.812080860137939,oven,oven,0,0491_s5n_s05_0_oven_00_oven6-truck1.png
subject-05,1,492,0.87934684753418,airplane,boat,0,0492_s5n_s05_0_boat_00_boat1-keyboard3.png
subject-05,1,493,0.735695838928223,bear,bear,0,0493_s5n_s05_0_bear_00_bear5-bottle1.png
subject-05,1,494,0.781769990921021,clock,clock,0,0494_s5n_s05_0_clock_00_clock6-chair3.png
subject-05,1,495,0.849239110946655,bicycle,bicycle,0,0495_s5n_s05_0_bicycle_00_bicycle4-cat1.png
subject-05,1,496,0.832355976104736,bicycle,bicycle,0,0496_s5n_s05_0_bicycle_00_bicycle10-dog3.png
subject-05,1,497,0.702266216278076,cat,cat,0,0497_s5n_s05_0_cat_00_cat2-cat1.png
subject-05,1,498,0.71045184135437,keyboard,keyboard,0,0498_s5n_s05_0_keyboard_00_keyboard1-airplane2.png
subject-05,1,499,1.14885997772217,keyboard,boat,0,0499_s5n_s05_0_boat_00_boat3-keyboard2.png
subject-05,1,500,0.827428102493286,dog,dog,0,0500_s5n_s05_0_dog_00_dog5-bear3.png
subject-05,1,501,0.696815013885498,clock,clock,0,0501_s5n_s05_0_clock_00_clock1-truck3.png
subject-05,1,502,0.664925098419189,boat,boat,0,0502_s5n_s05_0_boat_00_boat3-car3.png
subject-05,1,503,1.2295880317688,airplane,airplane,0,0503_s5n_s05_0_airplane_00_airplane10-knife3.png
subject-05,1,504,0.767278909683228,airplane,airplane,0,0504_s5n_s05_0_airplane_00_airplane7-bottle3.png
subject-05,1,505,1.50033712387085,clock,boat,0,0505_s5n_s05_0_boat_00_boat6-airplane2.png
subject-05,1,506,0.553357839584351,clock,clock,0,0506_s5n_s05_0_clock_00_clock8-knife1.png
subject-05,1,507,0.698848962783813,keyboard,keyboard,0,0507_s5n_s05_0_keyboard_00_keyboard6-bottle2.png
subject-05,1,508,0.861094951629639,bird,bird,0,0508_s5n_s05_0_bird_00_bird6-elephant2.png
subject-05,1,509,0.966220140457153,bird,chair,0,0509_s5n_s05_0_chair_00_chair8-keyboard3.png
subject-05,1,510,0.615219831466675,oven,oven,0,0510_s5n_s05_0_oven_00_oven1-dog3.png
subject-05,1,511,0.714946031570435,chair,chair,0,0511_s5n_s05_0_chair_00_chair8-car1.png
subject-05,1,512,0.868927955627441,chair,chair,0,0512_s5n_s05_0_chair_00_chair9-boat2.png
subject-05,1,513,1.26121401786804,bear,elephant,0,0513_s5n_s05_0_elephant_00_elephant6-bird1.png
subject-05,1,514,0.599194049835205,cat,cat,0,0514_s5n_s05_0_cat_00_cat4-oven1.png
subject-05,1,515,0.481865167617798,oven,oven,0,0515_s5n_s05_0_oven_00_oven3-bottle3.png
subject-05,1,516,0.868746995925903,bear,bear,0,0516_s5n_s05_0_bear_00_bear6-bear1.png
subject-05,1,517,0.884554862976074,chair,chair,0,0517_s5n_s05_0_chair_00_chair5-knife3.png
subject-05,1,518,0.792519092559814,car,car,0,0518_s5n_s05_0_car_00_car7-bird3.png
subject-05,1,519,0.843971014022827,bear,elephant,0,0519_s5n_s05_0_elephant_00_elephant6-bicycle1.png
subject-05,1,520,0.730141162872314,airplane,airplane,0,0520_s5n_s05_0_airplane_00_airplane3-elephant1.png
subject-05,1,521,0.713928937911987,bottle,bottle,0,0521_s5n_s05_0_bottle_00_bottle5-airplane1.png
subject-05,1,522,0.751473903656006,chair,chair,0,0522_s5n_s05_0_chair_00_chair1-elephant1.png
subject-05,1,523,1.01308703422546,chair,chair,0,0523_s5n_s05_0_chair_00_chair4-cat2.png
subject-05,1,524,0.852607011795044,knife,knife,0,0524_s5n_s05_0_knife_00_knife1-bird2.png
subject-05,1,525,0.950448989868164,elephant,elephant,0,0525_s5n_s05_0_elephant_00_elephant9-chair2.png
subject-05,1,526,0.91223406791687,truck,car,0,0526_s5n_s05_0_car_00_car5-oven2.png
subject-05,1,527,0.789723873138428,bird,bird,0,0527_s5n_s05_0_bird_00_bird5-cat2.png
subject-05,1,528,0.973219871520996,bicycle,bicycle,0,0528_s5n_s05_0_bicycle_00_bicycle7-cat1.png
subject-05,1,529,0.748245000839233,bicycle,bicycle,0,0529_s5n_s05_0_bicycle_00_bicycle2-knife2.png
subject-05,1,530,0.689106941223145,oven,oven,0,0530_s5n_s05_0_oven_00_oven3-airplane1.png
subject-05,1,531,0.84257984161377,dog,dog,0,0531_s5n_s05_0_dog_00_dog1-bird1.png
subject-05,1,532,0.913319110870361,truck,truck,0,0532_s5n_s05_0_truck_00_truck9-airplane2.png
subject-05,1,533,0.850663900375366,car,car,0,0533_s5n_s05_0_car_00_car5-bottle1.png
subject-05,1,534,0.636962890625,bicycle,bicycle,0,0534_s5n_s05_0_bicycle_00_bicycle1-clock3.png
subject-05,1,535,0.712460041046143,truck,knife,0,0535_s5n_s05_0_knife_00_knife2-truck2.png
subject-05,1,536,0.699352979660034,bottle,bottle,0,0536_s5n_s05_0_bottle_00_bottle3-bicycle3.png
subject-05,1,537,0.804468870162964,truck,truck,0,0537_s5n_s05_0_truck_00_truck5-truck1.png
subject-05,1,538,0.812726974487305,car,car,0,0538_s5n_s05_0_car_00_car7-elephant3.png
subject-05,1,539,0.828027009963989,boat,boat,0,0539_s5n_s05_0_boat_00_boat10-truck1.png
subject-05,1,540,1.01261711120605,clock,bird,0,0540_s5n_s05_0_bird_00_bird3-knife3.png
subject-05,1,541,0.673969984054565,chair,chair,0,0541_s5n_s05_0_chair_00_chair5-oven2.png
subject-05,1,542,0.713910102844238,clock,clock,0,0542_s5n_s05_0_clock_00_clock2-bear2.png
subject-05,1,543,1.07291507720947,chair,oven,0,0543_s5n_s05_0_oven_00_oven7-cat1.png
subject-05,1,544,0.77352499961853,keyboard,keyboard,0,0544_s5n_s05_0_keyboard_00_keyboard9-bicycle2.png
subject-05,1,545,0.735440015792847,bottle,bottle,0,0545_s5n_s05_0_bottle_00_bottle5-chair1.png
subject-05,1,546,0.996345043182373,truck,truck,0,0546_s5n_s05_0_truck_00_truck7-bird2.png
subject-05,1,547,0.672410011291504,knife,knife,0,0547_s5n_s05_0_knife_00_knife9-bicycle1.png
subject-05,1,548,0.896072149276733,oven,airplane,0,0548_s5n_s05_0_airplane_00_airplane9-oven2.png
subject-05,1,549,1.01984882354736,dog,dog,0,0549_s5n_s05_0_dog_00_dog3-bear3.png
subject-05,1,550,0.648834943771362,keyboard,keyboard,0,0550_s5n_s05_0_keyboard_00_keyboard4-oven2.png
subject-05,1,551,0.664829969406128,bicycle,bicycle,0,0551_s5n_s05_0_bicycle_00_bicycle1-bottle3.png
subject-05,1,552,0.777889013290405,bicycle,bicycle,0,0552_s5n_s05_0_bicycle_00_bicycle1-bird1.png
subject-05,1,553,1.00246500968933,dog,dog,0,0553_s5n_s05_0_dog_00_dog6-bird1.png
subject-05,1,554,0.70121693611145,chair,chair,0,0554_s5n_s05_0_chair_00_chair9-chair3.png
subject-05,1,555,0.639884948730469,cat,cat,0,0555_s5n_s05_0_cat_00_cat7-clock3.png
subject-05,1,556,0.877259016036987,chair,knife,0,0556_s5n_s05_0_knife_00_knife6-chair3.png
subject-05,1,557,0.709074974060059,airplane,airplane,0,0557_s5n_s05_0_airplane_00_airplane5-bear2.png
subject-05,1,558,0.734222888946533,keyboard,boat,0,0558_s5n_s05_0_boat_00_boat1-chair3.png
subject-05,1,559,0.78700590133667,bicycle,bicycle,0,0559_s5n_s05_0_bicycle_00_bicycle3-keyboard1.png
subject-05,1,560,0.825264930725098,clock,clock,0,0560_s5n_s05_0_clock_00_clock7-car1.png
subject-05,1,561,0.743939161300659,bicycle,bicycle,0,0561_s5n_s05_0_bicycle_00_bicycle5-bear1.png
subject-05,1,562,0.611758947372437,cat,cat,0,0562_s5n_s05_0_cat_00_cat2-knife3.png
subject-05,1,563,0.61378812789917,oven,oven,0,0563_s5n_s05_0_oven_00_oven9-keyboard1.png
subject-05,1,564,0.981406211853027,clock,dog,0,0564_s5n_s05_0_dog_00_dog4-keyboard2.png
subject-05,1,565,0.613491058349609,bottle,bottle,0,0565_s5n_s05_0_bottle_00_bottle6-dog3.png
subject-05,1,566,0.897379875183105,keyboard,keyboard,0,0566_s5n_s05_0_keyboard_00_keyboard9-boat2.png
subject-05,1,567,0.735386848449707,keyboard,keyboard,0,0567_s5n_s05_0_keyboard_00_keyboard1-dog3.png
subject-05,1,568,0.667117834091187,clock,clock,0,0568_s5n_s05_0_clock_00_clock10-boat2.png
subject-05,1,569,0.667051076889038,knife,knife,0,0569_s5n_s05_0_knife_00_knife9-bird1.png
subject-05,1,570,0.774689912796021,oven,cat,0,0570_s5n_s05_0_cat_00_cat10-oven2.png
subject-05,1,571,0.695598125457764,cat,cat,0,0571_s5n_s05_0_cat_00_cat9-clock2.png
subject-05,1,572,0.8786940574646,oven,chair,0,0572_s5n_s05_0_chair_00_chair6-bird2.png
subject-05,1,573,0.910773038864136,keyboard,boat,0,0573_s5n_s05_0_boat_00_boat3-airplane2.png
subject-05,1,574,0.848678112030029,bird,bird,0,0574_s5n_s05_0_bird_00_bird6-boat2.png
subject-05,1,575,0.7324059009552,bicycle,bicycle,0,0575_s5n_s05_0_bicycle_00_bicycle4-truck3.png
subject-05,1,576,1.11750984191895,bird,elephant,0,0576_s5n_s05_0_elephant_00_elephant7-bird1.png
subject-05,1,577,0.814799070358276,bottle,bottle,0,0577_s5n_s05_0_bottle_00_bottle9-truck1.png
subject-05,1,578,0.984599113464355,bird,bird,0,0578_s5n_s05_0_bird_00_bird8-bottle1.png
subject-05,1,579,0.701596975326538,chair,chair,0,0579_s5n_s05_0_chair_00_chair7-car2.png
subject-05,1,580,0.985015153884888,truck,truck,0,0580_s5n_s05_0_truck_00_truck1-cat1.png
subject-05,1,581,0.725315093994141,cat,cat,0,0581_s5n_s05_0_cat_00_cat8-bicycle3.png
subject-05,1,582,0.725371122360229,car,car,0,0582_s5n_s05_0_car_00_car3-dog2.png
subject-05,1,583,0.633432865142822,elephant,elephant,0,0583_s5n_s05_0_elephant_00_elephant3-cat2.png
subject-05,1,584,0.92571496963501,bottle,bottle,0,0584_s5n_s05_0_bottle_00_bottle4-airplane1.png
subject-05,1,585,0.711366891860962,elephant,elephant,0,0585_s5n_s05_0_elephant_00_elephant8-cat1.png
subject-05,1,586,0.994365930557251,elephant,elephant,0,0586_s5n_s05_0_elephant_00_elephant1-bear2.png
subject-05,1,587,0.602711915969849,oven,oven,0,0587_s5n_s05_0_oven_00_oven10-cat2.png
subject-05,1,588,0.902750015258789,car,car,0,0588_s5n_s05_0_car_00_car7-keyboard3.png
subject-05,1,589,0.978718042373657,dog,dog,0,0589_s5n_s05_0_dog_00_dog1-cat3.png
subject-05,1,590,0.96418309211731,knife,knife,0,0590_s5n_s05_0_knife_00_knife3-keyboard3.png
subject-05,1,591,0.802925109863281,bird,bird,0,0591_s5n_s05_0_bird_00_bird9-dog2.png
subject-05,1,592,0.777804136276245,dog,dog,0,0592_s5n_s05_0_dog_00_dog3-knife3.png
subject-05,1,593,0.679653882980347,knife,knife,0,0593_s5n_s05_0_knife_00_knife8-bottle3.png
subject-05,1,594,0.672322034835815,clock,clock,0,0594_s5n_s05_0_clock_00_clock4-oven1.png
subject-05,1,595,1.07241702079773,clock,airplane,0,0595_s5n_s05_0_airplane_00_airplane9-knife3.png
subject-05,1,596,0.742148876190186,truck,truck,0,0596_s5n_s05_0_truck_00_truck2-boat3.png
subject-05,1,597,0.657583951950073,bottle,knife,0,0597_s5n_s05_0_knife_00_knife2-bottle2.png
subject-05,1,598,0.911998987197876,chair,chair,0,0598_s5n_s05_0_chair_00_chair9-dog2.png
subject-05,1,599,0.654438972473145,clock,clock,0,0599_s5n_s05_0_clock_00_clock3-dog2.png
subject-05,1,600,1.01663899421692,bird,bird,0,0600_s5n_s05_0_bird_00_bird7-truck2.png
subject-05,1,601,0.749154090881348,car,car,0,0601_s5n_s05_0_car_00_car9-bird1.png
subject-05,1,602,0.578922033309937,bottle,bottle,0,0602_s5n_s05_0_bottle_00_bottle10-car1.png
subject-05,1,603,0.910598039627075,knife,knife,0,0603_s5n_s05_0_knife_00_knife5-cat2.png
subject-05,1,604,0.819338083267212,knife,knife,0,0604_s5n_s05_0_knife_00_knife7-boat3.png
subject-05,1,605,0.789023160934448,cat,cat,0,0605_s5n_s05_0_cat_00_cat5-keyboard3.png
subject-05,1,606,0.718158960342407,oven,oven,0,0606_s5n_s05_0_oven_00_oven6-bear2.png
subject-05,1,607,0.912555932998657,car,cat,0,0607_s5n_s05_0_cat_00_cat3-truck3.png
subject-05,1,608,0.841469049453735,truck,truck,0,0608_s5n_s05_0_truck_00_truck5-airplane2.png
subject-05,1,609,1.08752298355103,clock,keyboard,0,0609_s5n_s05_0_keyboard_00_keyboard2-elephant1.png
subject-05,1,610,0.632616996765137,keyboard,keyboard,0,0610_s5n_s05_0_keyboard_00_keyboard1-car3.png
subject-05,1,611,0.987549066543579,keyboard,keyboard,0,0611_s5n_s05_0_keyboard_00_keyboard4-knife2.png
subject-05,1,612,0.773066997528076,car,knife,0,0612_s5n_s05_0_knife_00_knife7-car2.png
subject-05,1,613,0.857030868530273,elephant,bear,0,0613_s5n_s05_0_bear_00_bear7-truck1.png
subject-05,1,614,0.788822174072266,oven,oven,0,0614_s5n_s05_0_oven_00_oven5-dog3.png
subject-05,1,615,0.726541996002197,truck,truck,0,0615_s5n_s05_0_truck_00_truck1-clock3.png
subject-05,1,616,0.788316965103149,bear,bear,0,0616_s5n_s05_0_bear_00_bear5-airplane3.png
subject-05,1,617,1.01806306838989,dog,dog,0,0617_s5n_s05_0_dog_00_dog4-cat3.png
subject-05,1,618,0.771711826324463,bicycle,bicycle,0,0618_s5n_s05_0_bicycle_00_bicycle1-bear1.png
subject-05,1,619,0.749337911605835,cat,cat,0,0619_s5n_s05_0_cat_00_cat4-chair2.png
subject-05,1,620,0.68712592124939,bottle,bottle,0,0620_s5n_s05_0_bottle_00_bottle5-keyboard2.png
subject-05,1,621,0.964164972305298,knife,knife,0,0621_s5n_s05_0_knife_00_knife7-bird3.png
subject-05,1,622,0.778481960296631,bird,bird,0,0622_s5n_s05_0_bird_00_bird7-cat3.png
subject-05,1,623,0.654865980148315,oven,oven,0,0623_s5n_s05_0_oven_00_oven10-bicycle1.png
subject-05,1,624,0.769545793533325,bear,elephant,0,0624_s5n_s05_0_elephant_00_elephant2-bear3.png
subject-05,1,625,0.684062957763672,oven,oven,0,0625_s5n_s05_0_oven_00_oven1-boat3.png
subject-05,1,626,0.730093002319336,car,car,0,0626_s5n_s05_0_car_00_car1-car2.png
subject-05,1,627,1.02881693840027,dog,dog,0,0627_s5n_s05_0_dog_00_dog5-truck2.png
subject-05,1,628,0.599730968475342,bicycle,bicycle,0,0628_s5n_s05_0_bicycle_00_bicycle1-boat3.png
subject-05,1,629,0.732787847518921,bird,bird,0,0629_s5n_s05_0_bird_00_bird10-bear2.png
subject-05,1,630,0.870155096054077,airplane,airplane,0,0630_s5n_s05_0_airplane_00_airplane10-car3.png
subject-05,1,631,0.64037299156189,boat,boat,0,0631_s5n_s05_0_boat_00_boat10-boat3.png
subject-05,1,632,0.886252880096436,keyboard,keyboard,0,0632_s5n_s05_0_keyboard_00_keyboard1-bird2.png
subject-05,1,633,0.691958904266357,chair,chair,0,0633_s5n_s05_0_chair_00_chair7-knife2.png
subject-05,1,634,0.715133905410767,clock,clock,0,0634_s5n_s05_0_clock_00_clock10-truck2.png
subject-05,1,635,0.59102201461792,bottle,dog,0,0635_s5n_s05_0_dog_00_dog2-bottle2.png
subject-05,1,636,0.644259929656982,clock,clock,0,0636_s5n_s05_0_clock_00_clock3-car2.png
subject-05,1,637,0.652657032012939,truck,truck,0,0637_s5n_s05_0_truck_00_truck3-clock3.png
subject-05,1,638,0.697808027267456,chair,chair,0,0638_s5n_s05_0_chair_00_chair4-keyboard2.png
subject-05,1,639,1.02259397506714,oven,boat,0,0639_s5n_s05_0_boat_00_boat7-keyboard3.png
subject-05,1,640,0.735365152359009,keyboard,keyboard,0,0640_s5n_s05_0_keyboard_00_keyboard5-bird3.png
subject-05,1,641,0.659564018249512,cat,cat,0,0641_s5n_s05_0_cat_00_cat1-dog1.png
subject-05,1,642,0.646433115005493,bear,bear,0,0642_s5n_s05_0_bear_00_bear7-dog3.png
subject-05,1,643,1.15980315208435,dog,dog,0,0643_s5n_s05_0_dog_00_dog9-cat1.png
subject-05,1,644,0.696847915649414,airplane,airplane,0,0644_s5n_s05_0_airplane_00_airplane10-airplane1.png
subject-05,1,645,0.854017972946167,bird,bird,0,0645_s5n_s05_0_bird_00_bird3-dog1.png
subject-05,1,646,0.728804111480713,oven,oven,0,0646_s5n_s05_0_oven_00_oven7-clock2.png
subject-05,1,647,0.874338150024414,bird,bird,0,0647_s5n_s05_0_bird_00_bird10-chair1.png
subject-05,1,648,0.896417140960693,truck,truck,0,0648_s5n_s05_0_truck_00_truck5-car1.png
subject-05,1,649,0.619577884674072,boat,boat,0,0649_s5n_s05_0_boat_00_boat8-knife1.png
subject-05,1,650,1.14853692054749,knife,dog,0,0650_s5n_s05_0_dog_00_dog2-knife3.png
subject-05,1,651,0.557307004928589,cat,cat,0,0651_s5n_s05_0_cat_00_cat3-bear2.png
subject-05,1,652,0.673258066177368,airplane,airplane,0,0652_s5n_s05_0_airplane_00_airplane10-dog3.png
subject-05,1,653,1.01846885681152,keyboard,bear,0,0653_s5n_s05_0_bear_00_bear2-keyboard2.png
subject-05,1,654,0.742164134979248,chair,chair,0,0654_s5n_s05_0_chair_00_chair1-dog1.png
subject-05,1,655,0.875344038009644,clock,clock,0,0655_s5n_s05_0_clock_00_clock3-bird1.png
subject-05,1,656,0.637403964996338,bottle,bottle,0,0656_s5n_s05_0_bottle_00_bottle8-dog2.png
subject-05,1,657,0.791632175445557,airplane,airplane,0,0657_s5n_s05_0_airplane_00_airplane4-knife1.png
subject-05,1,658,0.645480871200562,chair,chair,0,0658_s5n_s05_0_chair_00_chair9-keyboard2.png
subject-05,1,659,0.674735069274902,elephant,elephant,0,0659_s5n_s05_0_elephant_00_elephant7-airplane3.png
subject-05,1,660,0.652387857437134,bottle,bottle,0,0660_s5n_s05_0_bottle_00_bottle10-bear2.png
subject-05,1,661,0.722821950912476,chair,chair,0,0661_s5n_s05_0_chair_00_chair4-truck2.png
subject-05,1,662,0.65235710144043,bottle,bottle,0,0662_s5n_s05_0_bottle_00_bottle3-cat3.png
subject-05,1,663,0.598773956298828,bicycle,bicycle,0,0663_s5n_s05_0_bicycle_00_bicycle3-truck3.png
subject-05,1,664,0.55150318145752,oven,oven,0,0664_s5n_s05_0_oven_00_oven10-bear1.png
subject-05,1,665,0.597876071929932,airplane,bird,0,0665_s5n_s05_0_bird_00_bird4-bicycle2.png
subject-05,1,666,0.583990812301636,bird,bird,0,0666_s5n_s05_0_bird_00_bird1-airplane2.png
subject-05,1,667,0.645226001739502,bear,bear,0,0667_s5n_s05_0_bear_00_bear1-chair2.png
subject-05,1,668,0.751070022583008,bottle,bottle,0,0668_s5n_s05_0_bottle_00_bottle9-cat2.png
subject-05,1,669,0.56656813621521,clock,clock,0,0669_s5n_s05_0_clock_00_clock8-boat1.png
subject-05,1,670,0.696796894073486,bear,elephant,0,0670_s5n_s05_0_elephant_00_elephant4-boat3.png
subject-05,1,671,0.682121992111206,airplane,airplane,0,0671_s5n_s05_0_airplane_00_airplane2-bear1.png
subject-05,1,672,0.681784868240356,car,car,0,0672_s5n_s05_0_car_00_car8-cat1.png
subject-05,1,673,0.778125047683716,bird,bird,0,0673_s5n_s05_0_bird_00_bird8-knife2.png
subject-05,1,674,0.923802852630615,cat,bird,0,0674_s5n_s05_0_bird_00_bird6-truck2.png
subject-05,1,675,0.685086965560913,keyboard,keyboard,0,0675_s5n_s05_0_keyboard_00_keyboard7-boat2.png
subject-05,1,676,0.969327926635742,airplane,knife,0,0676_s5n_s05_0_knife_00_knife9-airplane2.png
subject-05,1,677,0.815324068069458,chair,chair,0,0677_s5n_s05_0_chair_00_chair5-keyboard2.png
subject-05,1,678,0.752546072006226,knife,knife,0,0678_s5n_s05_0_knife_00_knife1-elephant1.png
subject-05,1,679,0.613293170928955,boat,boat,0,0679_s5n_s05_0_boat_00_boat9-boat3.png
subject-05,1,680,0.627715110778809,bottle,bottle,0,0680_s5n_s05_0_bottle_00_bottle2-knife3.png
subject-05,1,681,0.997334957122803,elephant,elephant,0,0681_s5n_s05_0_elephant_00_elephant5-bicycle3.png
subject-05,1,682,0.813091993331909,boat,boat,0,0682_s5n_s05_0_boat_00_boat4-dog2.png
subject-05,1,683,0.467244863510132,clock,clock,0,0683_s5n_s05_0_clock_00_clock5-airplane1.png
subject-05,1,684,0.730859994888306,bear,bear,0,0684_s5n_s05_0_bear_00_bear3-chair2.png
subject-05,1,685,0.622299909591675,bottle,knife,0,0685_s5n_s05_0_knife_00_knife9-bottle2.png
subject-05,1,686,0.722671031951904,truck,truck,0,0686_s5n_s05_0_truck_00_truck10-airplane1.png
subject-05,1,687,0.816729068756104,elephant,elephant,0,0687_s5n_s05_0_elephant_00_elephant8-knife2.png
subject-05,1,688,0.699805974960327,bird,bird,0,0688_s5n_s05_0_bird_00_bird2-dog2.png
subject-05,1,689,0.577501058578491,bicycle,bicycle,0,0689_s5n_s05_0_bicycle_00_bicycle5-oven3.png
subject-05,1,690,0.715780019760132,bottle,bottle,0,0690_s5n_s05_0_bottle_00_bottle9-keyboard1.png
subject-05,1,691,0.824395895004272,car,car,0,0691_s5n_s05_0_car_00_car8-bicycle2.png
subject-05,1,692,0.785579919815063,knife,knife,0,0692_s5n_s05_0_knife_00_knife8-car2.png
subject-05,1,693,0.886126041412354,bicycle,bicycle,0,0693_s5n_s05_0_bicycle_00_bicycle9-bird3.png
subject-05,1,694,0.677422046661377,oven,oven,0,0694_s5n_s05_0_oven_00_oven9-oven1.png
subject-05,1,695,0.646935224533081,clock,clock,0,0695_s5n_s05_0_clock_00_clock6-bird3.png
subject-05,1,696,0.625473022460938,boat,boat,0,0696_s5n_s05_0_boat_00_boat9-knife2.png
subject-05,1,697,0.884618997573853,boat,dog,0,0697_s5n_s05_0_dog_00_dog2-airplane2.png
subject-05,1,698,0.830826044082642,elephant,elephant,0,0698_s5n_s05_0_elephant_00_elephant10-bear1.png
subject-05,1,699,0.762298822402954,chair,chair,0,0699_s5n_s05_0_chair_00_chair5-cat3.png
subject-05,1,700,0.640933036804199,truck,truck,0,0700_s5n_s05_0_truck_00_truck5-cat3.png
subject-05,1,701,0.791633129119873,bird,bird,0,0701_s5n_s05_0_bird_00_bird7-boat1.png
subject-05,1,702,0.629148960113525,cat,cat,0,0702_s5n_s05_0_cat_00_cat9-bird3.png
subject-05,1,703,0.807080030441284,chair,chair,0,0703_s5n_s05_0_chair_00_chair10-bottle3.png
subject-05,1,704,0.730822086334229,bottle,bottle,0,0704_s5n_s05_0_bottle_00_bottle6-airplane1.png
subject-05,1,705,0.598546028137207,bicycle,bicycle,0,0705_s5n_s05_0_bicycle_00_bicycle2-bottle1.png
subject-05,1,706,1.13010501861572,knife,boat,0,0706_s5n_s05_0_boat_00_boat4-elephant2.png
subject-05,1,707,0.829965114593506,knife,knife,0,0707_s5n_s05_0_knife_00_knife1-oven1.png
subject-05,1,708,0.613662958145142,bottle,bottle,0,0708_s5n_s05_0_bottle_00_bottle3-airplane2.png
subject-05,1,709,0.800387144088745,knife,knife,0,0709_s5n_s05_0_knife_00_knife6-bottle3.png
subject-05,1,710,0.830438137054443,chair,chair,0,0710_s5n_s05_0_chair_00_chair2-knife1.png
subject-05,1,711,0.72385311126709,bird,bird,0,0711_s5n_s05_0_bird_00_bird5-chair1.png
subject-05,1,712,0.891263008117676,boat,boat,0,0712_s5n_s05_0_boat_00_boat3-cat3.png
subject-05,1,713,1.17722201347351,clock,boat,0,0713_s5n_s05_0_boat_00_boat8-elephant1.png
subject-05,1,714,0.836766958236694,bear,bear,0,0714_s5n_s05_0_bear_00_bear3-bicycle2.png
subject-05,1,715,0.630168914794922,clock,clock,0,0715_s5n_s05_0_clock_00_clock4-car2.png
subject-05,1,716,1.29809617996216,bird,cat,0,0716_s5n_s05_0_cat_00_cat4-car2.png
subject-05,1,717,0.842599868774414,bird,bird,0,0717_s5n_s05_0_bird_00_bird9-bear3.png
subject-05,1,718,0.733394145965576,airplane,airplane,0,0718_s5n_s05_0_airplane_00_airplane4-bottle1.png
subject-05,1,719,0.725665807723999,bottle,bottle,0,0719_s5n_s05_0_bottle_00_bottle1-clock1.png
subject-05,1,720,0.917171955108643,cat,dog,0,0720_s5n_s05_0_dog_00_dog7-keyboard3.png
subject-05,1,721,0.69494891166687,bicycle,bicycle,0,0721_s5n_s05_0_bicycle_00_bicycle7-truck3.png
subject-05,1,722,0.833472967147827,car,car,0,0722_s5n_s05_0_car_00_car1-oven3.png
subject-05,1,723,0.64095401763916,airplane,airplane,0,0723_s5n_s05_0_airplane_00_airplane2-bottle1.png
subject-05,1,724,0.84107494354248,boat,boat,0,0724_s5n_s05_0_boat_00_boat8-bottle1.png
subject-05,1,725,0.698055982589722,bear,bear,0,0725_s5n_s05_0_bear_00_bear8-bottle1.png
subject-05,1,726,0.689456939697266,car,car,0,0726_s5n_s05_0_car_00_car10-elephant2.png
subject-05,1,727,0.788826942443848,bird,bird,0,0727_s5n_s05_0_bird_00_bird1-clock3.png
subject-05,1,728,0.86483097076416,bottle,bottle,0,0728_s5n_s05_0_bottle_00_bottle4-oven2.png
subject-05,1,729,0.804342031478882,knife,knife,0,0729_s5n_s05_0_knife_00_knife5-oven2.png
subject-05,1,730,0.634052991867065,boat,boat,0,0730_s5n_s05_0_boat_00_boat7-boat2.png
subject-05,1,731,0.634411096572876,cat,cat,0,0731_s5n_s05_0_cat_00_cat1-bird1.png
subject-05,1,732,0.8492431640625,bear,bear,0,0732_s5n_s05_0_bear_00_bear3-cat1.png
subject-05,1,733,0.61703896522522,bear,bear,0,0733_s5n_s05_0_bear_00_bear2-airplane1.png
subject-05,1,734,0.824638843536377,bird,bird,0,0734_s5n_s05_0_bird_00_bird7-bottle1.png
subject-05,1,735,0.786811113357544,boat,truck,0,0735_s5n_s05_0_truck_00_truck7-elephant2.png
subject-05,1,736,0.840523958206177,cat,dog,0,0736_s5n_s05_0_dog_00_dog5-oven1.png
subject-05,1,737,0.845557928085327,bear,bear,0,0737_s5n_s05_0_bear_00_bear8-dog1.png
subject-05,1,738,0.593461036682129,clock,clock,0,0738_s5n_s05_0_clock_00_clock8-truck2.png
subject-05,1,739,0.78558611869812,clock,clock,0,0739_s5n_s05_0_clock_00_clock9-airplane1.png
subject-05,1,740,1.0315580368042,airplane,boat,0,0740_s5n_s05_0_boat_00_boat6-car1.png
subject-05,1,741,0.785927057266235,bottle,bottle,0,0741_s5n_s05_0_bottle_00_bottle4-bicycle1.png
subject-05,1,742,0.685731887817383,car,car,0,0742_s5n_s05_0_car_00_car8-truck3.png
subject-05,1,743,0.763156890869141,boat,airplane,0,0743_s5n_s05_0_airplane_00_airplane3-chair3.png
subject-05,1,744,1.0936861038208,car,car,0,0744_s5n_s05_0_car_00_car8-bear1.png
subject-05,1,745,0.960906028747559,bottle,bottle,0,0745_s5n_s05_0_bottle_00_bottle6-bicycle3.png
subject-05,1,746,0.70081901550293,oven,oven,0,0746_s5n_s05_0_oven_00_oven8-chair1.png
subject-05,1,747,0.654877901077271,bear,elephant,0,0747_s5n_s05_0_elephant_00_elephant1-keyboard3.png
subject-05,1,748,0.693205118179321,clock,clock,0,0748_s5n_s05_0_clock_00_clock2-bottle3.png
subject-05,1,749,0.730341911315918,bear,bear,0,0749_s5n_s05_0_bear_00_bear2-elephant1.png
subject-05,1,750,0.783969879150391,airplane,airplane,0,0750_s5n_s05_0_airplane_00_airplane10-boat3.png
subject-05,1,751,0.500257015228271,cat,cat,0,0751_s5n_s05_0_cat_00_cat1-airplane1.png
subject-05,1,752,0.639726161956787,boat,boat,0,0752_s5n_s05_0_boat_00_boat9-bear3.png
subject-05,1,753,0.764366865158081,knife,knife,0,0753_s5n_s05_0_knife_00_knife9-elephant2.png
subject-05,1,754,0.694196939468384,dog,dog,0,0754_s5n_s05_0_dog_00_dog5-boat3.png
subject-05,1,755,0.947595119476318,cat,bear,0,0755_s5n_s05_0_bear_00_bear10-keyboard3.png
subject-05,1,756,0.511034965515137,clock,clock,0,0756_s5n_s05_0_clock_00_clock3-bicycle2.png
subject-05,1,757,0.643210887908936,keyboard,keyboard,0,0757_s5n_s05_0_keyboard_00_keyboard9-cat1.png
subject-05,1,758,0.650238990783691,chair,chair,0,0758_s5n_s05_0_chair_00_chair10-clock1.png
subject-05,1,759,0.634763956069946,clock,clock,0,0759_s5n_s05_0_clock_00_clock8-bear2.png
subject-05,1,760,0.880660057067871,car,car,0,0760_s5n_s05_0_car_00_car10-bicycle2.png
subject-05,1,761,0.882977962493896,bear,bear,0,0761_s5n_s05_0_bear_00_bear1-bird2.png
subject-05,1,762,0.837262153625488,car,boat,0,0762_s5n_s05_0_boat_00_boat3-dog3.png
subject-05,1,763,0.783056020736694,keyboard,keyboard,0,0763_s5n_s05_0_keyboard_00_keyboard7-car3.png
subject-05,1,764,0.682464838027954,bird,bird,0,0764_s5n_s05_0_bird_00_bird6-bottle3.png
subject-05,1,765,0.798898935317993,car,car,0,0765_s5n_s05_0_car_00_car3-boat1.png
subject-05,1,766,1.0394389629364,bear,bear,0,0766_s5n_s05_0_bear_00_bear10-knife2.png
subject-05,1,767,0.83905291557312,bear,bear,0,0767_s5n_s05_0_bear_00_bear4-boat2.png
subject-05,1,768,0.706016063690186,oven,oven,0,0768_s5n_s05_0_oven_00_oven4-clock2.png
subject-05,1,769,0.946139097213745,bicycle,bicycle,0,0769_s5n_s05_0_bicycle_00_bicycle5-chair2.png
subject-05,1,770,1.14567399024963,knife,airplane,0,0770_s5n_s05_0_airplane_00_airplane8-chair1.png
subject-05,1,771,0.794104099273682,bicycle,bicycle,0,0771_s5n_s05_0_bicycle_00_bicycle2-car2.png
subject-05,1,772,0.577341794967651,cat,cat,0,0772_s5n_s05_0_cat_00_cat1-cat3.png
subject-05,1,773,0.717806816101074,keyboard,keyboard,0,0773_s5n_s05_0_keyboard_00_keyboard3-cat1.png
subject-05,1,774,0.809073925018311,dog,dog,0,0774_s5n_s05_0_dog_00_dog7-knife3.png
subject-05,1,775,0.64603590965271,cat,bottle,0,0775_s5n_s05_0_bottle_00_bottle7-truck2.png
subject-05,1,776,0.516271114349365,boat,boat,0,0776_s5n_s05_0_boat_00_boat8-truck2.png
subject-05,1,777,0.762185096740723,knife,knife,0,0777_s5n_s05_0_knife_00_knife4-oven2.png
subject-05,1,778,0.66938304901123,chair,chair,0,0778_s5n_s05_0_chair_00_chair8-boat1.png
subject-05,1,779,1.13942003250122,bird,boat,0,0779_s5n_s05_0_boat_00_boat6-dog1.png
subject-05,1,780,0.747833013534546,knife,knife,0,0780_s5n_s05_0_knife_00_knife1-dog1.png
subject-05,1,781,0.644827127456665,chair,chair,0,0781_s5n_s05_0_chair_00_chair10-cat1.png
subject-05,1,782,1.23108410835266,bicycle,boat,0,0782_s5n_s05_0_boat_00_boat7-truck2.png
subject-05,1,783,0.687781095504761,oven,oven,0,0783_s5n_s05_0_oven_00_oven6-elephant2.png
subject-05,1,784,0.671990156173706,bear,bear,0,0784_s5n_s05_0_bear_00_bear1-clock2.png
subject-05,1,785,0.734263181686401,car,car,0,0785_s5n_s05_0_car_00_car2-cat3.png
subject-05,1,786,0.619813919067383,bottle,bottle,0,0786_s5n_s05_0_bottle_00_bottle2-bottle3.png
subject-05,1,787,0.641541004180908,bird,bird,0,0787_s5n_s05_0_bird_00_bird1-bear1.png
subject-05,1,788,0.932058811187744,car,cat,0,0788_s5n_s05_0_cat_00_cat3-oven2.png
subject-05,1,789,0.87016487121582,truck,truck,0,0789_s5n_s05_0_truck_00_truck3-car3.png
subject-05,1,790,0.602129936218262,keyboard,keyboard,0,0790_s5n_s05_0_keyboard_00_keyboard8-chair2.png
subject-05,1,791,0.589089870452881,truck,truck,0,0791_s5n_s05_0_truck_00_truck10-elephant3.png
subject-05,1,792,0.726489067077637,dog,dog,0,0792_s5n_s05_0_dog_00_dog5-car3.png
subject-05,1,793,0.712260961532593,knife,knife,0,0793_s5n_s05_0_knife_00_knife2-car3.png
subject-05,1,794,1.0343611240387,knife,knife,0,0794_s5n_s05_0_knife_00_knife8-cat2.png
subject-05,1,795,0.580238103866577,clock,clock,0,0795_s5n_s05_0_clock_00_clock10-bird3.png
subject-05,1,796,0.95763897895813,knife,knife,0,0796_s5n_s05_0_knife_00_knife1-keyboard3.png
subject-05,1,797,0.736231088638306,oven,oven,0,0797_s5n_s05_0_oven_00_oven8-knife2.png
subject-05,1,798,1.33599400520325,elephant,elephant,0,0798_s5n_s05_0_elephant_00_elephant2-boat1.png
subject-05,1,799,0.811482906341553,chair,chair,0,0799_s5n_s05_0_chair_00_chair9-bird3.png
subject-05,1,800,0.956929922103882,truck,truck,0,0800_s5n_s05_0_truck_00_truck3-cat1.png
subject-05,1,801,0.902729034423828,dog,dog,0,0801_s5n_s05_0_dog_00_dog2-dog3.png
subject-05,1,802,1.06516194343567,elephant,elephant,0,0802_s5n_s05_0_elephant_00_elephant4-clock3.png
subject-05,1,803,0.664079904556274,cat,cat,0,0803_s5n_s05_0_cat_00_cat2-boat2.png
subject-05,1,804,0.596675872802734,cat,cat,0,0804_s5n_s05_0_cat_00_cat2-elephant1.png
subject-05,1,805,0.721548080444336,car,car,0,0805_s5n_s05_0_car_00_car3-elephant3.png
subject-05,1,806,0.788270950317383,bear,bear,0,0806_s5n_s05_0_bear_00_bear10-chair2.png
subject-05,1,807,0.75813102722168,knife,knife,0,0807_s5n_s05_0_knife_00_knife4-car2.png
subject-05,1,808,0.966693878173828,bird,boat,0,0808_s5n_s05_0_boat_00_boat6-elephant2.png
subject-05,1,809,0.565920114517212,cat,cat,0,0809_s5n_s05_0_cat_00_cat7-airplane2.png
subject-05,1,810,0.690267086029053,dog,dog,0,0810_s5n_s05_0_dog_00_dog3-bird2.png
subject-05,1,811,1.04396891593933,keyboard,keyboard,0,0811_s5n_s05_0_keyboard_00_keyboard5-cat1.png
subject-05,1,812,0.64302396774292,bicycle,bicycle,0,0812_s5n_s05_0_bicycle_00_bicycle4-oven3.png
subject-05,1,813,0.6112220287323,truck,truck,0,0813_s5n_s05_0_truck_00_truck1-knife1.png
subject-05,1,814,0.697638034820557,boat,dog,0,0814_s5n_s05_0_dog_00_dog9-car1.png
subject-05,1,815,0.635287046432495,airplane,airplane,0,0815_s5n_s05_0_airplane_00_airplane2-bird3.png
subject-05,1,816,0.975529909133911,car,cat,0,0816_s5n_s05_0_cat_00_cat10-keyboard1.png
subject-05,1,817,0.61327600479126,oven,oven,0,0817_s5n_s05_0_oven_00_oven6-airplane3.png
subject-05,1,818,0.820614099502563,elephant,elephant,0,0818_s5n_s05_0_elephant_00_elephant4-oven1.png
subject-05,1,819,0.658776998519897,oven,oven,0,0819_s5n_s05_0_oven_00_oven9-car2.png
subject-05,1,820,0.79110312461853,bird,bird,0,0820_s5n_s05_0_bird_00_bird1-boat1.png
subject-05,1,821,1.03676295280457,truck,truck,0,0821_s5n_s05_0_truck_00_truck3-bird2.png
subject-05,1,822,0.844164133071899,dog,dog,0,0822_s5n_s05_0_dog_00_dog4-elephant2.png
subject-05,1,823,0.460533142089844,clock,clock,0,0823_s5n_s05_0_clock_00_clock7-bear2.png
subject-05,1,824,0.943625926971436,bird,bird,0,0824_s5n_s05_0_bird_00_bird5-truck2.png
subject-05,1,825,0.650968074798584,bottle,bottle,0,0825_s5n_s05_0_bottle_00_bottle1-cat3.png
subject-05,1,826,1.15138006210327,bird,bird,0,0826_s5n_s05_0_bird_00_bird8-chair1.png
subject-05,1,827,0.458970785140991,clock,clock,0,0827_s5n_s05_0_clock_00_clock6-car2.png
subject-05,1,828,0.598492860794067,oven,oven,0,0828_s5n_s05_0_oven_00_oven3-knife1.png
subject-05,1,829,0.835862159729004,elephant,elephant,0,0829_s5n_s05_0_elephant_00_elephant4-chair3.png
subject-05,1,830,0.882781028747559,elephant,elephant,0,0830_s5n_s05_0_elephant_00_elephant7-keyboard3.png
subject-05,1,831,0.643923997879028,chair,chair,0,0831_s5n_s05_0_chair_00_chair3-bottle3.png
subject-05,1,832,0.960369110107422,bear,bear,0,0832_s5n_s05_0_bear_00_bear3-keyboard2.png
subject-05,1,833,0.614137887954712,cat,cat,0,0833_s5n_s05_0_cat_00_cat5-airplane2.png
subject-05,1,834,0.84415602684021,truck,truck,0,0834_s5n_s05_0_truck_00_truck6-bear2.png
subject-05,1,835,0.721662998199463,bicycle,bicycle,0,0835_s5n_s05_0_bicycle_00_bicycle5-dog2.png
subject-05,1,836,0.805697917938232,truck,truck,0,0836_s5n_s05_0_truck_00_truck8-cat2.png
subject-05,1,837,0.592550039291382,keyboard,keyboard,0,0837_s5n_s05_0_keyboard_00_keyboard10-boat2.png
subject-05,1,838,0.854335069656372,elephant,elephant,0,0838_s5n_s05_0_elephant_00_elephant1-car3.png
subject-05,1,839,0.883594989776611,bottle,bottle,0,0839_s5n_s05_0_bottle_00_bottle7-airplane3.png
subject-05,1,840,0.791971921920776,bottle,bottle,0,0840_s5n_s05_0_bottle_00_bottle8-keyboard3.png
subject-05,1,841,0.861168146133423,bear,bear,0,0841_s5n_s05_0_bear_00_bear3-bird3.png
subject-05,1,842,0.945038080215454,knife,knife,0,0842_s5n_s05_0_knife_00_knife10-knife1.png
subject-05,1,843,0.79883885383606,oven,oven,0,0843_s5n_s05_0_oven_00_oven7-oven1.png
subject-05,1,844,0.722344160079956,cat,cat,0,0844_s5n_s05_0_cat_00_cat10-bird2.png
subject-05,1,845,0.689782857894897,bottle,bottle,0,0845_s5n_s05_0_bottle_00_bottle5-cat1.png
subject-05,1,846,0.621327877044678,bear,bear,0,0846_s5n_s05_0_bear_00_bear8-bicycle3.png
subject-05,1,847,0.805190801620483,knife,knife,0,0847_s5n_s05_0_knife_00_knife4-airplane3.png
subject-05,1,848,0.905881881713867,airplane,airplane,0,0848_s5n_s05_0_airplane_00_airplane1-bicycle2.png
subject-05,1,849,0.859675168991089,knife,knife,0,0849_s5n_s05_0_knife_00_knife3-knife1.png
subject-05,1,850,0.867337942123413,chair,chair,0,0850_s5n_s05_0_chair_00_chair7-airplane1.png
subject-05,1,851,0.645094156265259,bear,bear,0,0851_s5n_s05_0_bear_00_bear4-car3.png
subject-05,1,852,0.582762956619263,chair,chair,0,0852_s5n_s05_0_chair_00_chair3-knife1.png
subject-05,1,853,0.844985961914062,cat,airplane,0,0853_s5n_s05_0_airplane_00_airplane5-oven3.png
subject-05,1,854,0.874163866043091,boat,boat,0,0854_s5n_s05_0_boat_00_boat1-truck3.png
subject-05,1,855,0.998284101486206,elephant,elephant,0,0855_s5n_s05_0_elephant_00_elephant3-knife1.png
subject-05,1,856,0.711729049682617,keyboard,keyboard,0,0856_s5n_s05_0_keyboard_00_keyboard7-knife1.png
subject-05,1,857,0.689482927322388,chair,chair,0,0857_s5n_s05_0_chair_00_chair7-cat1.png
subject-05,1,858,0.619048118591309,truck,truck,0,0858_s5n_s05_0_truck_00_truck7-truck2.png
subject-05,1,859,0.480822086334229,oven,oven,0,0859_s5n_s05_0_oven_00_oven6-oven3.png
subject-05,1,860,0.980994939804077,bottle,bottle,0,0860_s5n_s05_0_bottle_00_bottle6-bear2.png
subject-05,1,861,0.567456960678101,bicycle,bicycle,0,0861_s5n_s05_0_bicycle_00_bicycle9-knife3.png
subject-05,1,862,0.721276998519897,truck,truck,0,0862_s5n_s05_0_truck_00_truck6-bicycle1.png
subject-05,1,863,0.920140981674194,knife,knife,0,0863_s5n_s05_0_knife_00_knife6-bicycle1.png
subject-05,1,864,0.674717903137207,chair,chair,0,0864_s5n_s05_0_chair_00_chair7-chair1.png
subject-05,1,865,0.774945020675659,car,car,0,0865_s5n_s05_0_car_00_car8-chair1.png
subject-05,1,866,0.735761165618896,bottle,bottle,0,0866_s5n_s05_0_bottle_00_bottle3-bird1.png
subject-05,1,867,0.705759048461914,chair,chair,0,0867_s5n_s05_0_chair_00_chair3-bicycle3.png
subject-05,1,868,0.75212287902832,truck,truck,0,0868_s5n_s05_0_truck_00_truck9-boat3.png
subject-05,1,869,0.589481115341187,clock,clock,0,0869_s5n_s05_0_clock_00_clock3-elephant3.png
subject-05,1,870,0.582658052444458,truck,truck,0,0870_s5n_s05_0_truck_00_truck1-car3.png
subject-05,1,871,0.952497005462646,elephant,elephant,0,0871_s5n_s05_0_elephant_00_elephant5-elephant1.png
subject-05,1,872,1.01234102249146,car,car,0,0872_s5n_s05_0_car_00_car2-chair1.png
subject-05,1,873,0.705841064453125,boat,boat,0,0873_s5n_s05_0_boat_00_boat5-car3.png
subject-05,1,874,0.5812828540802,clock,clock,0,0874_s5n_s05_0_clock_00_clock3-keyboard3.png
subject-05,1,875,0.727483987808228,truck,truck,0,0875_s5n_s05_0_truck_00_truck2-clock1.png
subject-05,1,876,0.712966918945312,boat,boat,0,0876_s5n_s05_0_boat_00_boat3-bicycle2.png
subject-05,1,877,0.567475080490112,clock,clock,0,0877_s5n_s05_0_clock_00_clock2-clock3.png
subject-05,1,878,0.775173902511597,dog,dog,0,0878_s5n_s05_0_dog_00_dog8-bottle2.png
subject-05,1,879,0.788666009902954,truck,truck,0,0879_s5n_s05_0_truck_00_truck6-boat2.png
subject-05,1,880,0.75096583366394,bear,bear,0,0880_s5n_s05_0_bear_00_bear3-truck3.png
subject-05,1,881,0.650616884231567,airplane,airplane,0,0881_s5n_s05_0_airplane_00_airplane5-dog3.png
subject-05,1,882,0.687659978866577,bicycle,bicycle,0,0882_s5n_s05_0_bicycle_00_bicycle7-clock3.png
subject-05,1,883,0.771605014801025,chair,chair,0,0883_s5n_s05_0_chair_00_chair9-elephant1.png
subject-05,1,884,0.949015140533447,bear,cat,0,0884_s5n_s05_0_cat_00_cat9-dog2.png
subject-05,1,885,0.811088085174561,chair,chair,0,0885_s5n_s05_0_chair_00_chair10-airplane2.png
subject-05,1,886,0.610728025436401,chair,chair,0,0886_s5n_s05_0_chair_00_chair5-truck3.png
subject-05,1,887,0.632714986801147,boat,boat,0,0887_s5n_s05_0_boat_00_boat9-keyboard2.png
subject-05,1,888,0.910257816314697,keyboard,keyboard,0,0888_s5n_s05_0_keyboard_00_keyboard9-elephant2.png
subject-05,1,889,0.609846830368042,truck,truck,0,0889_s5n_s05_0_truck_00_truck9-truck3.png
subject-05,1,890,0.655584096908569,clock,clock,0,0890_s5n_s05_0_clock_00_clock7-boat3.png
subject-05,1,891,1.05485105514526,oven,knife,0,0891_s5n_s05_0_knife_00_knife6-oven3.png
subject-05,1,892,0.662926197052002,clock,clock,0,0892_s5n_s05_0_clock_00_clock8-cat1.png
subject-05,1,893,0.648635149002075,airplane,airplane,0,0893_s5n_s05_0_airplane_00_airplane6-knife1.png
subject-05,1,894,0.708270072937012,truck,truck,0,0894_s5n_s05_0_truck_00_truck3-bicycle1.png
subject-05,1,895,1.00822997093201,dog,dog,0,0895_s5n_s05_0_dog_00_dog6-clock1.png
subject-05,1,896,0.723407030105591,chair,chair,0,0896_s5n_s05_0_chair_00_chair6-truck2.png
subject-05,1,897,0.652884006500244,cat,cat,0,0897_s5n_s05_0_cat_00_cat5-bicycle3.png
subject-05,1,898,0.585063934326172,cat,cat,0,0898_s5n_s05_0_cat_00_cat5-bear2.png
subject-05,1,899,0.847194910049438,dog,dog,0,0899_s5n_s05_0_dog_00_dog8-oven3.png
subject-05,1,900,0.898520946502686,knife,knife,0,0900_s5n_s05_0_knife_00_knife5-bicycle2.png
subject-05,1,901,0.553816080093384,clock,clock,0,0901_s5n_s05_0_clock_00_clock6-knife2.png
subject-05,1,902,0.814085006713867,bear,bear,0,0902_s5n_s05_0_bear_00_bear5-chair1.png
subject-05,1,903,0.554523944854736,bottle,bottle,0,0903_s5n_s05_0_bottle_00_bottle5-clock3.png
subject-05,1,904,0.816412925720215,bottle,bottle,0,0904_s5n_s05_0_bottle_00_bottle2-chair3.png
subject-05,1,905,0.832252979278564,elephant,elephant,0,0905_s5n_s05_0_elephant_00_elephant9-boat3.png
subject-05,1,906,0.724605083465576,bird,bird,0,0906_s5n_s05_0_bird_00_bird10-cat1.png
subject-05,1,907,0.661708831787109,bottle,bottle,0,0907_s5n_s05_0_bottle_00_bottle1-car1.png
subject-05,1,908,1.00256204605103,bicycle,bicycle,0,0908_s5n_s05_0_bicycle_00_bicycle2-bicycle1.png
subject-05,1,909,1.21027207374573,dog,dog,0,0909_s5n_s05_0_dog_00_dog3-elephant2.png
subject-05,1,910,0.793826103210449,chair,chair,0,0910_s5n_s05_0_chair_00_chair4-chair3.png
subject-05,1,911,0.96306586265564,bird,boat,0,0911_s5n_s05_0_boat_00_boat6-clock2.png
subject-05,1,912,0.830896854400635,elephant,elephant,0,0912_s5n_s05_0_elephant_00_elephant8-airplane3.png
subject-05,1,913,0.632312059402466,car,car,0,0913_s5n_s05_0_car_00_car6-knife1.png
subject-05,1,914,0.808316946029663,elephant,elephant,0,0914_s5n_s05_0_elephant_00_elephant6-truck3.png
subject-05,1,915,0.885753870010376,bear,bear,0,0915_s5n_s05_0_bear_00_bear9-boat2.png
subject-05,1,916,1.27732992172241,boat,boat,0,0916_s5n_s05_0_boat_00_boat4-knife2.png
subject-05,1,917,0.578107833862305,boat,boat,0,0917_s5n_s05_0_boat_00_boat8-dog3.png
subject-05,1,918,0.686064958572388,airplane,airplane,0,0918_s5n_s05_0_airplane_00_airplane5-knife1.png
subject-05,1,919,0.733978033065796,airplane,airplane,0,0919_s5n_s05_0_airplane_00_airplane8-bicycle3.png
subject-05,1,920,0.859023809432983,car,bird,0,0920_s5n_s05_0_bird_00_bird7-knife2.png
subject-05,1,921,0.688637018203735,airplane,airplane,0,0921_s5n_s05_0_airplane_00_airplane4-bear3.png
subject-05,1,922,1.08061099052429,bird,bird,0,0922_s5n_s05_0_bird_00_bird3-boat3.png
subject-05,1,923,0.658183097839355,airplane,airplane,0,0923_s5n_s05_0_airplane_00_airplane10-oven2.png
subject-05,1,924,0.543958902359009,cat,cat,0,0924_s5n_s05_0_cat_00_cat8-bird2.png
subject-05,1,925,0.733163118362427,bottle,bottle,0,0925_s5n_s05_0_bottle_00_bottle6-bottle3.png
subject-05,1,926,0.635304927825928,bottle,bottle,0,0926_s5n_s05_0_bottle_00_bottle3-bear2.png
subject-05,1,927,0.672561883926392,car,car,0,0927_s5n_s05_0_car_00_car4-bicycle3.png
subject-05,1,928,0.871744155883789,chair,chair,0,0928_s5n_s05_0_chair_00_chair8-elephant1.png
subject-05,1,929,0.980437040328979,car,keyboard,0,0929_s5n_s05_0_keyboard_00_keyboard4-keyboard2.png
subject-05,1,930,0.51990795135498,oven,oven,0,0930_s5n_s05_0_oven_00_oven10-boat2.png
subject-05,1,931,1.17259001731873,chair,boat,0,0931_s5n_s05_0_boat_00_boat7-chair1.png
subject-05,1,932,0.850021839141846,chair,chair,0,0932_s5n_s05_0_chair_00_chair9-bottle3.png
subject-05,1,933,0.903856039047241,airplane,bear,0,0933_s5n_s05_0_bear_00_bear6-bottle3.png
subject-05,1,934,0.727904796600342,elephant,elephant,0,0934_s5n_s05_0_elephant_00_elephant2-truck2.png
subject-05,1,935,0.65130090713501,oven,oven,0,0935_s5n_s05_0_oven_00_oven3-elephant3.png
subject-05,1,936,0.617853879928589,bear,bear,0,0936_s5n_s05_0_bear_00_bear3-airplane1.png
subject-05,1,937,0.803936004638672,dog,dog,0,0937_s5n_s05_0_dog_00_dog3-truck2.png
subject-05,1,938,0.757818937301636,bird,bird,0,0938_s5n_s05_0_bird_00_bird1-knife3.png
subject-05,1,939,0.818161010742188,elephant,elephant,0,0939_s5n_s05_0_elephant_00_elephant7-clock2.png
subject-05,1,940,0.825702905654907,chair,chair,0,0940_s5n_s05_0_chair_00_chair1-clock2.png
subject-05,1,941,0.717136144638062,bottle,bottle,0,0941_s5n_s05_0_bottle_00_bottle4-car3.png
subject-05,1,942,0.765009164810181,elephant,elephant,0,0942_s5n_s05_0_elephant_00_elephant6-cat2.png
subject-05,1,943,0.678082942962646,chair,chair,0,0943_s5n_s05_0_chair_00_chair2-boat1.png
subject-05,1,944,0.817988157272339,airplane,airplane,0,0944_s5n_s05_0_airplane_00_airplane9-airplane2.png
subject-05,1,945,0.756192922592163,truck,truck,0,0945_s5n_s05_0_truck_00_truck1-dog1.png
subject-05,1,946,1.1440601348877,bear,bear,0,0946_s5n_s05_0_bear_00_bear10-car2.png
subject-05,1,947,0.626667022705078,bicycle,bicycle,0,0947_s5n_s05_0_bicycle_00_bicycle1-elephant2.png
subject-05,1,948,0.997938871383667,clock,clock,0,0948_s5n_s05_0_clock_00_clock10-bottle1.png
subject-05,1,949,0.709001064300537,bottle,bottle,0,0949_s5n_s05_0_bottle_00_bottle2-elephant1.png
subject-05,1,950,0.816922187805176,bear,bear,0,0950_s5n_s05_0_bear_00_bear4-cat3.png
subject-05,1,951,0.616368055343628,clock,clock,0,0951_s5n_s05_0_clock_00_clock1-bear1.png
subject-05,1,952,0.808270931243896,airplane,airplane,0,0952_s5n_s05_0_airplane_00_airplane7-cat3.png
subject-05,1,953,0.90718412399292,keyboard,keyboard,0,0953_s5n_s05_0_keyboard_00_keyboard6-dog2.png
subject-05,1,954,0.601483106613159,clock,clock,0,0954_s5n_s05_0_clock_00_clock4-bottle3.png
subject-05,1,955,0.831768035888672,boat,cat,0,0955_s5n_s05_0_cat_00_cat4-keyboard2.png
subject-05,1,956,0.676707983016968,car,car,0,0956_s5n_s05_0_car_00_car9-clock2.png
subject-05,1,957,0.830327987670898,bicycle,bicycle,0,0957_s5n_s05_0_bicycle_00_bicycle6-car2.png
subject-05,1,958,1.09192800521851,bicycle,bicycle,0,0958_s5n_s05_0_bicycle_00_bicycle7-bicycle2.png
subject-05,1,959,0.937471866607666,boat,bear,0,0959_s5n_s05_0_bear_00_bear10-oven1.png
subject-05,1,960,0.774798154830933,keyboard,keyboard,0,0960_s5n_s05_0_keyboard_00_keyboard5-oven2.png
subject-05,1,961,0.875015020370483,knife,knife,0,0961_s5n_s05_0_knife_00_knife7-bottle3.png
subject-05,1,962,0.875200033187866,bottle,elephant,0,0962_s5n_s05_0_elephant_00_elephant3-chair1.png
subject-05,1,963,0.861397981643677,bird,bird,0,0963_s5n_s05_0_bird_00_bird10-clock1.png
subject-05,1,964,0.837591886520386,cat,cat,0,0964_s5n_s05_0_cat_00_cat9-cat3.png
subject-05,1,965,0.769512891769409,cat,cat,0,0965_s5n_s05_0_cat_00_cat9-bicycle1.png
subject-05,1,966,0.798851013183594,bird,bird,0,0966_s5n_s05_0_bird_00_bird5-bird1.png
subject-05,1,967,1.30209302902222,truck,truck,0,0967_s5n_s05_0_truck_00_truck9-elephant1.png
subject-05,1,968,0.81832480430603,knife,knife,0,0968_s5n_s05_0_knife_00_knife8-truck3.png
subject-05,1,969,0.773514986038208,bear,bear,0,0969_s5n_s05_0_bear_00_bear4-truck3.png
subject-05,1,970,0.881020784378052,elephant,elephant,0,0970_s5n_s05_0_elephant_00_elephant8-elephant1.png
subject-05,1,971,1.29700613021851,bird,bird,0,0971_s5n_s05_0_bird_00_bird7-keyboard3.png
subject-05,1,972,0.875699996948242,dog,dog,0,0972_s5n_s05_0_dog_00_dog4-bird1.png
subject-05,1,973,0.880811929702759,bird,bird,0,0973_s5n_s05_0_bird_00_bird10-elephant2.png
subject-05,1,974,1.03501892089844,elephant,elephant,0,0974_s5n_s05_0_elephant_00_elephant6-oven1.png
subject-05,1,975,0.964330196380615,boat,boat,0,0975_s5n_s05_0_boat_00_boat8-oven1.png
subject-05,1,976,0.88882303237915,truck,truck,0,0976_s5n_s05_0_truck_00_truck4-knife1.png
subject-05,1,977,0.5970618724823,oven,oven,0,0977_s5n_s05_0_oven_00_oven4-bicycle2.png
subject-05,1,978,0.558587789535522,oven,oven,0,0978_s5n_s05_0_oven_00_oven2-dog3.png
subject-05,1,979,0.650562047958374,bird,bird,0,0979_s5n_s05_0_bird_00_bird5-bicycle1.png
subject-05,1,980,0.903746843338013,airplane,airplane,0,0980_s5n_s05_0_airplane_00_airplane3-oven1.png
subject-05,1,981,0.868555068969727,boat,cat,0,0981_s5n_s05_0_cat_00_cat8-car2.png
subject-05,1,982,0.868410110473633,car,car,0,0982_s5n_s05_0_car_00_car9-cat1.png
subject-05,1,983,0.968127012252808,cat,dog,0,0983_s5n_s05_0_dog_00_dog3-boat1.png
subject-05,1,984,0.744266033172607,boat,boat,0,0984_s5n_s05_0_boat_00_boat4-chair2.png
subject-05,1,985,0.644477128982544,bottle,bottle,0,0985_s5n_s05_0_bottle_00_bottle5-knife1.png
subject-05,1,986,0.70633602142334,bear,bear,0,0986_s5n_s05_0_bear_00_bear2-car2.png
subject-05,1,987,0.651462078094482,bottle,bottle,0,0987_s5n_s05_0_bottle_00_bottle1-dog2.png
subject-05,1,988,0.759580135345459,car,car,0,0988_s5n_s05_0_car_00_car5-cat1.png
subject-05,1,989,0.551740884780884,oven,oven,0,0989_s5n_s05_0_oven_00_oven2-bird2.png
subject-05,1,990,0.78914999961853,bicycle,bicycle,0,0990_s5n_s05_0_bicycle_00_bicycle5-car3.png
subject-05,1,991,0.902678966522217,knife,knife,0,0991_s5n_s05_0_knife_00_knife2-cat3.png
subject-05,1,992,0.596535921096802,oven,oven,0,0992_s5n_s05_0_oven_00_oven1-cat1.png
subject-05,1,993,0.818530082702637,dog,dog,0,0993_s5n_s05_0_dog_00_dog8-dog3.png
subject-05,1,994,1.21016621589661,dog,bear,0,0994_s5n_s05_0_bear_00_bear4-keyboard3.png
subject-05,1,995,0.750408172607422,truck,truck,0,0995_s5n_s05_0_truck_00_truck3-oven2.png
subject-05,1,996,0.749517917633057,bear,bear,0,0996_s5n_s05_0_bear_00_bear8-airplane1.png
subject-05,1,997,0.763895034790039,oven,oven,0,0997_s5n_s05_0_oven_00_oven4-keyboard3.png
subject-05,1,998,1.00933790206909,car,car,0,0998_s5n_s05_0_car_00_car4-oven2.png
subject-05,1,999,0.701092004776001,bird,bird,0,0999_s5n_s05_0_bird_00_bird5-dog2.png
subject-05,1,1000,0.808513879776001,truck,truck,0,1000_s5n_s05_0_truck_00_truck4-oven2.png
subject-05,1,1001,0.907734870910645,truck,truck,0,1001_s5n_s05_0_truck_00_truck6-cat2.png
subject-05,1,1002,0.569949865341187,cat,cat,0,1002_s5n_s05_0_cat_00_cat1-car2.png
subject-05,1,1003,0.891861200332642,knife,knife,0,1003_s5n_s05_0_knife_00_knife6-boat3.png
subject-05,1,1004,0.810486078262329,boat,boat,0,1004_s5n_s05_0_boat_00_boat8-bird2.png
subject-05,1,1005,0.786597967147827,knife,knife,0,1005_s5n_s05_0_knife_00_knife4-clock3.png
subject-05,1,1006,1.5002019405365,dog,elephant,0,1006_s5n_s05_0_elephant_00_elephant2-cat1.png
subject-05,1,1007,0.907597064971924,bottle,bottle,0,1007_s5n_s05_0_bottle_00_bottle9-bottle1.png
subject-05,1,1008,0.631270170211792,clock,clock,0,1008_s5n_s05_0_clock_00_clock4-airplane1.png
subject-05,1,1009,0.915240049362183,knife,knife,0,1009_s5n_s05_0_knife_00_knife9-boat1.png
subject-05,1,1010,0.830961942672729,dog,dog,0,1010_s5n_s05_0_dog_00_dog10-car3.png
subject-05,1,1011,0.761083841323853,bird,bird,0,1011_s5n_s05_0_bird_00_bird5-keyboard2.png
subject-05,1,1012,0.905832052230835,cat,bear,0,1012_s5n_s05_0_bear_00_bear6-bird2.png
subject-05,1,1013,0.744187116622925,cat,cat,0,1013_s5n_s05_0_cat_00_cat1-oven1.png
subject-05,1,1014,1.01377511024475,bird,boat,0,1014_s5n_s05_0_boat_00_boat6-truck3.png
subject-05,1,1015,0.865450143814087,boat,boat,0,1015_s5n_s05_0_boat_00_boat4-car3.png
subject-05,1,1016,0.609924077987671,clock,clock,0,1016_s5n_s05_0_clock_00_clock5-bicycle1.png
subject-05,1,1017,0.663789987564087,keyboard,keyboard,0,1017_s5n_s05_0_keyboard_00_keyboard1-clock1.png
subject-05,1,1018,0.842864036560059,knife,knife,0,1018_s5n_s05_0_knife_00_knife4-knife2.png
subject-05,1,1019,0.741663217544556,chair,chair,0,1019_s5n_s05_0_chair_00_chair5-car1.png
subject-05,1,1020,0.98905611038208,knife,knife,0,1020_s5n_s05_0_knife_00_knife3-bear2.png
subject-05,1,1021,0.604741096496582,bottle,bottle,0,1021_s5n_s05_0_bottle_00_bottle7-boat3.png
subject-05,1,1022,0.742783069610596,knife,knife,0,1022_s5n_s05_0_knife_00_knife9-chair1.png
subject-05,1,1023,0.858535051345825,cat,dog,0,1023_s5n_s05_0_dog_00_dog9-bicycle3.png
subject-05,1,1024,0.466673135757446,clock,clock,0,1024_s5n_s05_0_clock_00_clock7-truck3.png
subject-05,1,1025,0.640187978744507,bicycle,bicycle,0,1025_s5n_s05_0_bicycle_00_bicycle1-bicycle3.png
subject-05,1,1026,0.771896123886108,bear,bear,0,1026_s5n_s05_0_bear_00_bear9-knife2.png
subject-05,1,1027,0.601361036300659,car,car,0,1027_s5n_s05_0_car_00_car7-airplane2.png
subject-05,1,1028,1.2521858215332,cat,cat,0,1028_s5n_s05_0_cat_00_cat5-knife2.png
subject-05,1,1029,0.500056028366089,clock,clock,0,1029_s5n_s05_0_clock_00_clock1-clock2.png
subject-05,1,1030,0.678790092468262,bicycle,bicycle,0,1030_s5n_s05_0_bicycle_00_bicycle3-oven3.png
subject-05,1,1031,0.586357116699219,cat,bear,0,1031_s5n_s05_0_bear_00_bear10-bear2.png
subject-05,1,1032,0.686191082000732,keyboard,keyboard,0,1032_s5n_s05_0_keyboard_00_keyboard6-knife2.png
subject-05,1,1033,0.569911956787109,cat,cat,0,1033_s5n_s05_0_cat_00_cat5-car2.png
subject-05,1,1034,0.675063133239746,knife,knife,0,1034_s5n_s05_0_knife_00_knife10-dog1.png
subject-05,1,1035,0.590415000915527,bird,bird,0,1035_s5n_s05_0_bird_00_bird6-oven1.png
subject-05,1,1036,0.73646092414856,cat,dog,0,1036_s5n_s05_0_dog_00_dog7-chair2.png
subject-05,1,1037,0.60605788230896,bottle,bottle,0,1037_s5n_s05_0_bottle_00_bottle4-truck1.png
subject-05,1,1038,0.622343063354492,bear,bear,0,1038_s5n_s05_0_bear_00_bear4-clock3.png
subject-05,1,1039,0.635777950286865,bicycle,bicycle,0,1039_s5n_s05_0_bicycle_00_bicycle9-car1.png
subject-05,1,1040,0.727389097213745,bicycle,bicycle,0,1040_s5n_s05_0_bicycle_00_bicycle2-bird3.png
subject-05,1,1041,0.735936164855957,bicycle,bicycle,0,1041_s5n_s05_0_bicycle_00_bicycle4-keyboard3.png
subject-05,1,1042,0.698429107666016,bottle,bird,0,1042_s5n_s05_0_bird_00_bird3-bottle2.png
subject-05,1,1043,0.760167121887207,truck,truck,0,1043_s5n_s05_0_truck_00_truck3-dog3.png
subject-05,1,1044,0.700272798538208,dog,dog,0,1044_s5n_s05_0_dog_00_dog10-dog1.png
subject-05,1,1045,0.621874094009399,bicycle,bicycle,0,1045_s5n_s05_0_bicycle_00_bicycle1-dog3.png
subject-05,1,1046,0.829236030578613,bottle,boat,0,1046_s5n_s05_0_boat_00_boat3-chair3.png
subject-05,1,1047,0.975610017776489,truck,truck,0,1047_s5n_s05_0_truck_00_truck5-dog3.png
subject-05,1,1048,0.896427869796753,bear,bear,0,1048_s5n_s05_0_bear_00_bear8-bear1.png
subject-05,1,1049,0.920207023620605,bicycle,bicycle,0,1049_s5n_s05_0_bicycle_00_bicycle9-bottle1.png
subject-05,1,1050,0.84985089302063,knife,knife,0,1050_s5n_s05_0_knife_00_knife9-bear3.png
subject-05,1,1051,0.811890840530396,airplane,airplane,0,1051_s5n_s05_0_airplane_00_airplane7-car1.png
subject-05,1,1052,0.899787902832031,bicycle,bicycle,0,1052_s5n_s05_0_bicycle_00_bicycle4-boat1.png
subject-05,1,1053,0.938048124313354,bear,bear,0,1053_s5n_s05_0_bear_00_bear7-clock1.png
subject-05,1,1054,1.37552094459534,bicycle,bicycle,0,1054_s5n_s05_0_bicycle_00_bicycle1-truck1.png
subject-05,1,1055,0.737493991851807,bicycle,bicycle,0,1055_s5n_s05_0_bicycle_00_bicycle4-car2.png
subject-05,1,1056,0.975100040435791,bear,bird,0,1056_s5n_s05_0_bird_00_bird3-cat1.png
subject-05,1,1057,0.484642028808594,oven,oven,0,1057_s5n_s05_0_oven_00_oven2-truck3.png
subject-05,1,1058,0.844529151916504,dog,dog,0,1058_s5n_s05_0_dog_00_dog9-boat1.png
subject-05,1,1059,0.738384962081909,bottle,bottle,0,1059_s5n_s05_0_bottle_00_bottle7-clock1.png
subject-05,1,1060,0.597292900085449,keyboard,keyboard,0,1060_s5n_s05_0_keyboard_00_keyboard2-bicycle3.png
subject-05,1,1061,0.888867855072021,elephant,elephant,0,1061_s5n_s05_0_elephant_00_elephant2-elephant3.png
subject-05,1,1062,0.629436016082764,bicycle,bicycle,0,1062_s5n_s05_0_bicycle_00_bicycle8-bear2.png
subject-05,1,1063,0.645167112350464,clock,clock,0,1063_s5n_s05_0_clock_00_clock10-clock3.png
subject-05,1,1064,0.661597013473511,keyboard,keyboard,0,1064_s5n_s05_0_keyboard_00_keyboard8-oven1.png
subject-05,1,1065,0.715495109558105,bottle,bottle,0,1065_s5n_s05_0_bottle_00_bottle9-bicycle1.png
subject-05,1,1066,0.52044415473938,truck,truck,0,1066_s5n_s05_0_truck_00_truck4-bear1.png
subject-05,1,1067,1.05789589881897,boat,bear,0,1067_s5n_s05_0_bear_00_bear6-clock1.png
subject-05,1,1068,1.32812404632568,knife,boat,0,1068_s5n_s05_0_boat_00_boat1-elephant3.png
subject-05,1,1069,0.7068030834198,airplane,airplane,0,1069_s5n_s05_0_airplane_00_airplane7-truck1.png
subject-05,1,1070,0.660327911376953,chair,chair,0,1070_s5n_s05_0_chair_00_chair8-bear1.png
subject-05,1,1071,0.668692111968994,keyboard,keyboard,0,1071_s5n_s05_0_keyboard_00_keyboard7-dog1.png
subject-05,1,1072,0.753078937530518,bird,bird,0,1072_s5n_s05_0_bird_00_bird1-keyboard3.png
subject-05,1,1073,0.691344976425171,bicycle,bicycle,0,1073_s5n_s05_0_bicycle_00_bicycle3-elephant2.png
subject-05,1,1074,0.730832099914551,clock,clock,0,1074_s5n_s05_0_clock_00_clock5-oven1.png
subject-05,1,1075,0.939084053039551,airplane,airplane,0,1075_s5n_s05_0_airplane_00_airplane3-cat1.png
subject-05,1,1076,0.783946990966797,knife,knife,0,1076_s5n_s05_0_knife_00_knife4-bear1.png
subject-05,1,1077,0.75968599319458,car,car,0,1077_s5n_s05_0_car_00_car10-chair1.png
subject-05,1,1078,0.821224927902222,car,car,0,1078_s5n_s05_0_car_00_car10-keyboard2.png
subject-05,1,1079,0.934928894042969,airplane,bear,0,1079_s5n_s05_0_bear_00_bear6-car2.png
subject-05,1,1080,0.713129043579102,bear,bear,0,1080_s5n_s05_0_bear_00_bear2-oven1.png
subject-05,1,1081,0.866641044616699,elephant,elephant,0,1081_s5n_s05_0_elephant_00_elephant7-car3.png
subject-05,1,1082,0.775304794311523,car,car,0,1082_s5n_s05_0_car_00_car6-chair3.png
subject-05,1,1083,0.728820085525513,clock,dog,0,1083_s5n_s05_0_dog_00_dog6-truck2.png
subject-05,1,1084,0.722095966339111,bicycle,bicycle,0,1084_s5n_s05_0_bicycle_00_bicycle8-bird2.png
subject-05,1,1085,0.743964195251465,oven,oven,0,1085_s5n_s05_0_oven_00_oven4-truck3.png
subject-05,1,1086,0.773723840713501,bear,bear,0,1086_s5n_s05_0_bear_00_bear9-bottle2.png
subject-05,1,1087,0.535495042800903,oven,oven,0,1087_s5n_s05_0_oven_00_oven4-knife2.png
subject-05,1,1088,0.666953086853027,bicycle,bicycle,0,1088_s5n_s05_0_bicycle_00_bicycle7-elephant2.png
subject-05,1,1089,0.751228809356689,airplane,airplane,0,1089_s5n_s05_0_airplane_00_airplane1-elephant1.png
subject-05,1,1090,0.704638004302979,bottle,bottle,0,1090_s5n_s05_0_bottle_00_bottle9-oven2.png
subject-05,1,1091,0.996623039245605,bird,bird,0,1091_s5n_s05_0_bird_00_bird2-bird2.png
subject-05,1,1092,0.928478956222534,chair,chair,0,1092_s5n_s05_0_chair_00_chair1-oven3.png
