subj,session,trial,rt,object_response,category,condition,imagename
subject-10,1,1,0.84811806678772,oven,airplane,0,0001_s5n_s10_0_airplane_00_airplane8-bicycle3.png
subject-10,1,2,0.733391046524048,cat,cat,0,0002_s5n_s10_0_cat_00_cat4-cat3.png
subject-10,1,3,0.778812885284424,bicycle,bicycle,0,0003_s5n_s10_0_bicycle_00_bicycle4-chair2.png
subject-10,1,4,0.916406869888306,chair,chair,0,0004_s5n_s10_0_chair_00_chair8-chair3.png
subject-10,1,5,0.783805131912231,chair,chair,0,0005_s5n_s10_0_chair_00_chair9-boat2.png
subject-10,1,6,0.683162927627563,car,car,0,0006_s5n_s10_0_car_00_car6-bottle1.png
subject-10,1,7,1.14224219322205,elephant,elephant,0,0007_s5n_s10_0_elephant_00_elephant2-bear3.png
subject-10,1,8,0.979773998260498,knife,airplane,0,0008_s5n_s10_0_airplane_00_airplane2-cat1.png
subject-10,1,9,0.829842090606689,keyboard,keyboard,0,0009_s5n_s10_0_keyboard_00_keyboard8-cat3.png
subject-10,1,10,0.737660884857178,car,car,0,0010_s5n_s10_0_car_00_car9-knife1.png
subject-10,1,11,0.889403104782104,keyboard,oven,0,0011_s5n_s10_0_oven_00_oven9-boat2.png
subject-10,1,12,0.980777978897095,dog,dog,0,0012_s5n_s10_0_dog_00_dog3-bird2.png
subject-10,1,13,1.00488209724426,bird,bird,0,0013_s5n_s10_0_bird_00_bird8-elephant1.png
subject-10,1,14,0.748187065124512,chair,chair,0,0014_s5n_s10_0_chair_00_chair8-boat1.png
subject-10,1,15,0.855569124221802,chair,chair,0,0015_s5n_s10_0_chair_00_chair5-oven2.png
subject-10,1,16,0.746351957321167,bird,bird,0,0016_s5n_s10_0_bird_00_bird5-bear3.png
subject-10,1,17,1.06082201004028,truck,truck,0,0017_s5n_s10_0_truck_00_truck7-chair2.png
subject-10,1,18,NaN,na,elephant,0,0018_s5n_s10_0_elephant_00_elephant6-dog2.png
subject-10,1,19,1.10293984413147,car,bear,0,0019_s5n_s10_0_bear_00_bear10-car2.png
subject-10,1,20,0.888029813766479,clock,clock,0,0020_s5n_s10_0_clock_00_clock10-oven2.png
subject-10,1,21,1.50033807754517,oven,clock,0,0021_s5n_s10_0_clock_00_clock4-boat3.png
subject-10,1,22,0.776976108551025,bicycle,bicycle,0,0022_s5n_s10_0_bicycle_00_bicycle4-oven3.png
subject-10,1,23,0.792636156082153,cat,oven,0,0023_s5n_s10_0_oven_00_oven2-boat3.png
subject-10,1,24,0.706127882003784,keyboard,keyboard,0,0024_s5n_s10_0_keyboard_00_keyboard6-bicycle1.png
subject-10,1,25,1.1055691242218,airplane,airplane,0,0025_s5n_s10_0_airplane_00_airplane10-bear3.png
subject-10,1,26,0.743098974227905,boat,boat,0,0026_s5n_s10_0_boat_00_boat5-boat3.png
subject-10,1,27,0.734079837799072,keyboard,keyboard,0,0027_s5n_s10_0_keyboard_00_keyboard9-boat2.png
subject-10,1,28,0.910017013549805,knife,boat,0,0028_s5n_s10_0_boat_00_boat1-car2.png
subject-10,1,29,0.955485820770264,bicycle,oven,0,0029_s5n_s10_0_oven_00_oven3-boat3.png
subject-10,1,30,0.776665210723877,knife,boat,0,0030_s5n_s10_0_boat_00_boat2-bird1.png
subject-10,1,31,0.752516984939575,cat,boat,0,0031_s5n_s10_0_boat_00_boat10-cat1.png
subject-10,1,32,0.809957027435303,dog,dog,0,0032_s5n_s10_0_dog_00_dog1-dog2.png
subject-10,1,33,1.10964798927307,knife,knife,0,0033_s5n_s10_0_knife_00_knife8-cat2.png
subject-10,1,34,0.701246023178101,bottle,bottle,0,0034_s5n_s10_0_bottle_00_bottle6-bicycle3.png
subject-10,1,35,0.930756807327271,dog,dog,0,0035_s5n_s10_0_dog_00_dog9-cat1.png
subject-10,1,36,0.814879894256592,car,car,0,0036_s5n_s10_0_car_00_car2-cat3.png
subject-10,1,37,1.242751121521,dog,dog,0,0037_s5n_s10_0_dog_00_dog10-bottle1.png
subject-10,1,38,0.721135139465332,bicycle,bicycle,0,0038_s5n_s10_0_bicycle_00_bicycle1-oven1.png
subject-10,1,39,0.81116795539856,oven,clock,0,0039_s5n_s10_0_clock_00_clock9-keyboard2.png
subject-10,1,40,0.878097057342529,truck,truck,0,0040_s5n_s10_0_truck_00_truck7-boat1.png
subject-10,1,41,1.02591180801392,truck,truck,0,0041_s5n_s10_0_truck_00_truck3-dog3.png
subject-10,1,42,0.823396921157837,oven,oven,0,0042_s5n_s10_0_oven_00_oven3-car2.png
subject-10,1,43,0.749480009078979,clock,clock,0,0043_s5n_s10_0_clock_00_clock2-elephant2.png
subject-10,1,44,0.838685989379883,bottle,bottle,0,0044_s5n_s10_0_bottle_00_bottle5-chair1.png
subject-10,1,45,0.82541298866272,clock,clock,0,0045_s5n_s10_0_clock_00_clock8-cat1.png
subject-10,1,46,0.750870943069458,truck,truck,0,0046_s5n_s10_0_truck_00_truck6-clock2.png
subject-10,1,47,0.988352060317993,knife,knife,0,0047_s5n_s10_0_knife_00_knife2-bird1.png
subject-10,1,48,0.926088094711304,car,car,0,0048_s5n_s10_0_car_00_car7-bird3.png
subject-10,1,49,0.880001068115234,boat,boat,0,0049_s5n_s10_0_boat_00_boat7-oven3.png
subject-10,1,50,0.917270183563232,bottle,bottle,0,0050_s5n_s10_0_bottle_00_bottle9-truck1.png
subject-10,1,51,0.847034931182861,oven,oven,0,0051_s5n_s10_0_oven_00_oven4-keyboard3.png
subject-10,1,52,1.17654013633728,keyboard,airplane,0,0052_s5n_s10_0_airplane_00_airplane4-bottle1.png
subject-10,1,53,1.13043785095215,cat,cat,0,0053_s5n_s10_0_cat_00_cat3-elephant2.png
subject-10,1,54,1.17593097686768,bear,bear,0,0054_s5n_s10_0_bear_00_bear4-elephant2.png
subject-10,1,55,0.721242904663086,cat,cat,0,0055_s5n_s10_0_cat_00_cat8-bird2.png
subject-10,1,56,0.896464109420776,chair,chair,0,0056_s5n_s10_0_chair_00_chair10-bottle3.png
subject-10,1,57,0.99631404876709,oven,boat,0,0057_s5n_s10_0_boat_00_boat3-chair3.png
subject-10,1,58,1.22057890892029,car,car,0,0058_s5n_s10_0_car_00_car4-bird1.png
subject-10,1,59,0.811731100082397,cat,cat,0,0059_s5n_s10_0_cat_00_cat3-cat1.png
subject-10,1,60,0.894884824752808,car,car,0,0060_s5n_s10_0_car_00_car8-dog1.png
subject-10,1,61,1.01683902740479,chair,chair,0,0061_s5n_s10_0_chair_00_chair4-cat2.png
subject-10,1,62,0.948858022689819,bear,bear,0,0062_s5n_s10_0_bear_00_bear1-bicycle3.png
subject-10,1,63,1.24090099334717,truck,truck,0,0063_s5n_s10_0_truck_00_truck4-bear1.png
subject-10,1,64,NaN,na,dog,0,0064_s5n_s10_0_dog_00_dog4-clock1.png
subject-10,1,65,0.999202013015747,bear,elephant,0,0065_s5n_s10_0_elephant_00_elephant9-boat3.png
subject-10,1,66,1.26135897636414,car,car,0,0066_s5n_s10_0_car_00_car3-oven3.png
subject-10,1,67,1.02357888221741,bear,bear,0,0067_s5n_s10_0_bear_00_bear2-knife2.png
subject-10,1,68,1.07738304138184,keyboard,keyboard,0,0068_s5n_s10_0_keyboard_00_keyboard3-bird3.png
subject-10,1,69,1.50026798248291,elephant,elephant,0,0069_s5n_s10_0_elephant_00_elephant1-bear2.png
subject-10,1,70,0.850199937820435,bear,bear,0,0070_s5n_s10_0_bear_00_bear9-knife2.png
subject-10,1,71,0.756709098815918,elephant,elephant,0,0071_s5n_s10_0_elephant_00_elephant1-airplane2.png
subject-10,1,72,0.840889930725098,oven,oven,0,0072_s5n_s10_0_oven_00_oven10-truck2.png
subject-10,1,73,0.810487985610962,cat,cat,0,0073_s5n_s10_0_cat_00_cat4-bird2.png
subject-10,1,74,0.793832063674927,bottle,bottle,0,0074_s5n_s10_0_bottle_00_bottle8-elephant3.png
subject-10,1,75,0.677311897277832,cat,cat,0,0075_s5n_s10_0_cat_00_cat9-dog2.png
subject-10,1,76,0.789037942886353,clock,clock,0,0076_s5n_s10_0_clock_00_clock7-keyboard2.png
subject-10,1,77,0.994243860244751,bear,elephant,0,0077_s5n_s10_0_elephant_00_elephant6-cat2.png
subject-10,1,78,0.855602025985718,knife,knife,0,0078_s5n_s10_0_knife_00_knife6-dog2.png
subject-10,1,79,0.947440147399902,keyboard,keyboard,0,0079_s5n_s10_0_keyboard_00_keyboard9-chair2.png
subject-10,1,80,1.07798004150391,keyboard,boat,0,0080_s5n_s10_0_boat_00_boat3-bicycle2.png
subject-10,1,81,0.753158092498779,oven,oven,0,0081_s5n_s10_0_oven_00_oven1-dog3.png
subject-10,1,82,1.41566705703735,knife,boat,0,0082_s5n_s10_0_boat_00_boat6-airplane2.png
subject-10,1,83,0.86899209022522,oven,oven,0,0083_s5n_s10_0_oven_00_oven3-truck1.png
subject-10,1,84,0.731664896011353,clock,clock,0,0084_s5n_s10_0_clock_00_clock2-bear2.png
subject-10,1,85,0.868943214416504,bird,bird,0,0085_s5n_s10_0_bird_00_bird3-truck3.png
subject-10,1,86,0.94703197479248,oven,chair,0,0086_s5n_s10_0_chair_00_chair6-elephant2.png
subject-10,1,87,1.04623699188232,bird,dog,0,0087_s5n_s10_0_dog_00_dog4-truck2.png
subject-10,1,88,0.906105995178223,bird,bird,0,0088_s5n_s10_0_bird_00_bird1-bicycle2.png
subject-10,1,89,0.921730995178223,car,car,0,0089_s5n_s10_0_car_00_car9-truck3.png
subject-10,1,90,1.09287619590759,bird,bird,0,0090_s5n_s10_0_bird_00_bird8-clock1.png
subject-10,1,91,1.25542116165161,elephant,elephant,0,0091_s5n_s10_0_elephant_00_elephant1-oven2.png
subject-10,1,92,0.80845308303833,cat,cat,0,0092_s5n_s10_0_cat_00_cat2-car3.png
subject-10,1,93,0.714411020278931,boat,knife,0,0093_s5n_s10_0_knife_00_knife9-bear3.png
subject-10,1,94,1.11424016952515,airplane,airplane,0,0094_s5n_s10_0_airplane_00_airplane6-keyboard3.png
subject-10,1,95,0.621689081192017,cat,cat,0,0095_s5n_s10_0_cat_00_cat6-keyboard3.png
subject-10,1,96,0.623141050338745,bear,bear,0,0096_s5n_s10_0_bear_00_bear3-chair2.png
subject-10,1,97,0.704617023468018,bird,bird,0,0097_s5n_s10_0_bird_00_bird5-cat2.png
subject-10,1,98,0.688024997711182,bear,bear,0,0098_s5n_s10_0_bear_00_bear3-airplane1.png
subject-10,1,99,0.968919038772583,airplane,bird,0,0099_s5n_s10_0_bird_00_bird6-oven1.png
subject-10,1,100,0.860673904418945,oven,oven,0,0100_s5n_s10_0_oven_00_oven7-bottle1.png
subject-10,1,101,1.16788601875305,bicycle,bicycle,0,0101_s5n_s10_0_bicycle_00_bicycle1-knife3.png
subject-10,1,102,1.06036710739136,keyboard,keyboard,0,0102_s5n_s10_0_keyboard_00_keyboard9-bird1.png
subject-10,1,103,1.00637292861938,knife,boat,0,0103_s5n_s10_0_boat_00_boat4-boat3.png
subject-10,1,104,0.835524082183838,bird,bird,0,0104_s5n_s10_0_bird_00_bird5-keyboard2.png
subject-10,1,105,1.14266896247864,dog,dog,0,0105_s5n_s10_0_dog_00_dog6-clock1.png
subject-10,1,106,0.756497144699097,bottle,bottle,0,0106_s5n_s10_0_bottle_00_bottle1-chair2.png
subject-10,1,107,1.03997993469238,bottle,bottle,0,0107_s5n_s10_0_bottle_00_bottle8-keyboard3.png
subject-10,1,108,1.1158709526062,bear,elephant,0,0108_s5n_s10_0_elephant_00_elephant4-clock3.png
subject-10,1,109,1.04538798332214,elephant,elephant,0,0109_s5n_s10_0_elephant_00_elephant7-bear3.png
subject-10,1,110,1.04489898681641,elephant,elephant,0,0110_s5n_s10_0_elephant_00_elephant8-knife2.png
subject-10,1,111,0.99859881401062,keyboard,keyboard,0,0111_s5n_s10_0_keyboard_00_keyboard5-dog3.png
subject-10,1,112,NaN,na,bottle,0,0112_s5n_s10_0_bottle_00_bottle7-truck2.png
subject-10,1,113,1.07941389083862,keyboard,keyboard,0,0113_s5n_s10_0_keyboard_00_keyboard7-bottle1.png
subject-10,1,114,0.878655910491943,bear,elephant,0,0114_s5n_s10_0_elephant_00_elephant9-airplane2.png
subject-10,1,115,0.96832799911499,elephant,elephant,0,0115_s5n_s10_0_elephant_00_elephant8-elephant1.png
subject-10,1,116,0.938844919204712,oven,oven,0,0116_s5n_s10_0_oven_00_oven5-airplane1.png
subject-10,1,117,0.730412006378174,chair,chair,0,0117_s5n_s10_0_chair_00_chair2-knife1.png
subject-10,1,118,0.829949140548706,bear,elephant,0,0118_s5n_s10_0_elephant_00_elephant3-oven1.png
subject-10,1,119,1.38878607749939,cat,bear,0,0119_s5n_s10_0_bear_00_bear6-bear1.png
subject-10,1,120,0.934626817703247,elephant,elephant,0,0120_s5n_s10_0_elephant_00_elephant8-bicycle3.png
subject-10,1,121,0.793792009353638,bird,bird,0,0121_s5n_s10_0_bird_00_bird1-airplane2.png
subject-10,1,122,1.17767119407654,bird,airplane,0,0122_s5n_s10_0_airplane_00_airplane4-knife1.png
subject-10,1,123,0.722807168960571,chair,chair,0,0123_s5n_s10_0_chair_00_chair8-clock3.png
subject-10,1,124,0.824113130569458,bicycle,bicycle,0,0124_s5n_s10_0_bicycle_00_bicycle7-knife2.png
subject-10,1,125,0.737421989440918,oven,oven,0,0125_s5n_s10_0_oven_00_oven4-clock2.png
subject-10,1,126,1.03786897659302,dog,dog,0,0126_s5n_s10_0_dog_00_dog5-oven1.png
subject-10,1,127,1.44173312187195,cat,cat,0,0127_s5n_s10_0_cat_00_cat9-truck1.png
subject-10,1,128,0.947633028030396,bottle,bottle,0,0128_s5n_s10_0_bottle_00_bottle1-keyboard3.png
subject-10,1,129,0.805973052978516,bicycle,bicycle,0,0129_s5n_s10_0_bicycle_00_bicycle9-keyboard3.png
subject-10,1,130,0.776618957519531,oven,dog,0,0130_s5n_s10_0_dog_00_dog9-car1.png
subject-10,1,131,0.74440598487854,oven,oven,0,0131_s5n_s10_0_oven_00_oven4-truck3.png
subject-10,1,132,0.931510925292969,chair,dog,0,0132_s5n_s10_0_dog_00_dog2-knife3.png
subject-10,1,133,0.768590927124023,bicycle,bicycle,0,0133_s5n_s10_0_bicycle_00_bicycle4-knife3.png
subject-10,1,134,1.13687205314636,knife,knife,0,0134_s5n_s10_0_knife_00_knife8-truck3.png
subject-10,1,135,0.85332989692688,clock,clock,0,0135_s5n_s10_0_clock_00_clock6-bird3.png
subject-10,1,136,0.769952058792114,car,car,0,0136_s5n_s10_0_car_00_car8-boat3.png
subject-10,1,137,0.845556974411011,keyboard,keyboard,0,0137_s5n_s10_0_keyboard_00_keyboard5-bottle1.png
subject-10,1,138,0.745051145553589,oven,knife,0,0138_s5n_s10_0_knife_00_knife6-truck1.png
subject-10,1,139,0.732606172561646,chair,chair,0,0139_s5n_s10_0_chair_00_chair10-bicycle1.png
subject-10,1,140,0.821789979934692,oven,oven,0,0140_s5n_s10_0_oven_00_oven10-boat2.png
subject-10,1,141,1.11363220214844,bear,bear,0,0141_s5n_s10_0_bear_00_bear5-boat2.png
subject-10,1,142,1.03743100166321,car,car,0,0142_s5n_s10_0_car_00_car8-bear1.png
subject-10,1,143,0.751487016677856,boat,boat,0,0143_s5n_s10_0_boat_00_boat9-clock1.png
subject-10,1,144,0.866713047027588,truck,truck,0,0144_s5n_s10_0_truck_00_truck1-clock3.png
subject-10,1,145,1.27257394790649,cat,cat,0,0145_s5n_s10_0_cat_00_cat9-bottle2.png
subject-10,1,146,0.925843000411987,truck,truck,0,0146_s5n_s10_0_truck_00_truck2-elephant1.png
subject-10,1,147,1.05547785758972,truck,truck,0,0147_s5n_s10_0_truck_00_truck1-bird1.png
subject-10,1,148,1.07716608047485,bicycle,bicycle,0,0148_s5n_s10_0_bicycle_00_bicycle10-boat3.png
subject-10,1,149,0.830619096755981,bicycle,bicycle,0,0149_s5n_s10_0_bicycle_00_bicycle3-oven3.png
subject-10,1,150,0.986128807067871,elephant,elephant,0,0150_s5n_s10_0_elephant_00_elephant8-truck3.png
subject-10,1,151,1.29137897491455,airplane,airplane,0,0151_s5n_s10_0_airplane_00_airplane10-elephant1.png
subject-10,1,152,0.906835794448853,bird,bird,0,0152_s5n_s10_0_bird_00_bird9-bottle3.png
subject-10,1,153,1.00308203697205,cat,bird,0,0153_s5n_s10_0_bird_00_bird3-knife3.png
subject-10,1,154,0.881216049194336,cat,bear,0,0154_s5n_s10_0_bear_00_bear10-bottle1.png
subject-10,1,155,0.739897966384888,boat,boat,0,0155_s5n_s10_0_boat_00_boat5-bicycle3.png
subject-10,1,156,0.731576919555664,cat,cat,0,0156_s5n_s10_0_cat_00_cat8-bear1.png
subject-10,1,157,0.821202039718628,bird,bird,0,0157_s5n_s10_0_bird_00_bird8-car2.png
subject-10,1,158,0.658360958099365,clock,clock,0,0158_s5n_s10_0_clock_00_clock8-oven3.png
subject-10,1,159,1.29624509811401,bicycle,bicycle,0,0159_s5n_s10_0_bicycle_00_bicycle5-bottle3.png
subject-10,1,160,1.00925588607788,bicycle,bicycle,0,0160_s5n_s10_0_bicycle_00_bicycle1-dog3.png
subject-10,1,161,1.34649991989136,keyboard,airplane,0,0161_s5n_s10_0_airplane_00_airplane8-oven2.png
subject-10,1,162,1.03081703186035,chair,chair,0,0162_s5n_s10_0_chair_00_chair8-keyboard3.png
subject-10,1,163,0.868055820465088,bird,airplane,0,0163_s5n_s10_0_airplane_00_airplane3-cat1.png
subject-10,1,164,0.789582967758179,bear,bear,0,0164_s5n_s10_0_bear_00_bear2-dog1.png
subject-10,1,165,0.711198091506958,cat,oven,0,0165_s5n_s10_0_oven_00_oven5-bird1.png
subject-10,1,166,0.902789115905762,bear,bear,0,0166_s5n_s10_0_bear_00_bear2-keyboard2.png
subject-10,1,167,0.740212917327881,bottle,bottle,0,0167_s5n_s10_0_bottle_00_bottle1-bird3.png
subject-10,1,168,0.885709047317505,bear,bear,0,0168_s5n_s10_0_bear_00_bear3-keyboard2.png
subject-10,1,169,0.807824850082397,bird,cat,0,0169_s5n_s10_0_cat_00_cat5-airplane2.png
subject-10,1,170,1.47773098945618,truck,truck,0,0170_s5n_s10_0_truck_00_truck6-knife2.png
subject-10,1,171,1.12927389144897,bird,bird,0,0171_s5n_s10_0_bird_00_bird4-dog3.png
subject-10,1,172,0.888812065124512,keyboard,keyboard,0,0172_s5n_s10_0_keyboard_00_keyboard9-bear2.png
subject-10,1,173,1.24241900444031,elephant,elephant,0,0173_s5n_s10_0_elephant_00_elephant9-elephant3.png
subject-10,1,174,0.917582988739014,bird,bird,0,0174_s5n_s10_0_bird_00_bird5-oven3.png
subject-10,1,175,0.78016996383667,cat,elephant,0,0175_s5n_s10_0_elephant_00_elephant2-cat1.png
subject-10,1,176,0.955003976821899,bird,bird,0,0176_s5n_s10_0_bird_00_bird2-bird2.png
subject-10,1,177,0.738930940628052,boat,boat,0,0177_s5n_s10_0_boat_00_boat9-bear3.png
subject-10,1,178,1.08559608459473,bear,elephant,0,0178_s5n_s10_0_elephant_00_elephant7-car3.png
subject-10,1,179,0.907099962234497,cat,cat,0,0179_s5n_s10_0_cat_00_cat7-boat3.png
subject-10,1,180,1.0746750831604,bear,elephant,0,0180_s5n_s10_0_elephant_00_elephant6-truck3.png
subject-10,1,181,NaN,na,airplane,0,0181_s5n_s10_0_airplane_00_airplane4-elephant1.png
subject-10,1,182,0.704116106033325,oven,oven,0,0182_s5n_s10_0_oven_00_oven9-car2.png
subject-10,1,183,0.865783929824829,knife,knife,0,0183_s5n_s10_0_knife_00_knife10-bear3.png
subject-10,1,184,0.779891014099121,keyboard,keyboard,0,0184_s5n_s10_0_keyboard_00_keyboard4-clock2.png
subject-10,1,185,0.755805015563965,knife,airplane,0,0185_s5n_s10_0_airplane_00_airplane2-bird3.png
subject-10,1,186,0.639135122299194,oven,elephant,0,0186_s5n_s10_0_elephant_00_elephant3-chair1.png
subject-10,1,187,1.03945016860962,chair,chair,0,0187_s5n_s10_0_chair_00_chair3-knife1.png
subject-10,1,188,0.901314973831177,bird,cat,0,0188_s5n_s10_0_cat_00_cat4-keyboard2.png
subject-10,1,189,0.882588148117065,knife,boat,0,0189_s5n_s10_0_boat_00_boat1-bird3.png
subject-10,1,190,0.782370805740356,bear,elephant,0,0190_s5n_s10_0_elephant_00_elephant4-oven1.png
subject-10,1,191,0.93259596824646,car,car,0,0191_s5n_s10_0_car_00_car4-oven2.png
subject-10,1,192,0.7290940284729,clock,clock,0,0192_s5n_s10_0_clock_00_clock2-knife1.png
subject-10,1,193,0.89049506187439,cat,cat,0,0193_s5n_s10_0_cat_00_cat1-cat3.png
subject-10,1,194,1.45092701911926,truck,truck,0,0194_s5n_s10_0_truck_00_truck4-airplane3.png
subject-10,1,195,1.27250003814697,car,car,0,0195_s5n_s10_0_car_00_car5-airplane3.png
subject-10,1,196,0.872993946075439,car,car,0,0196_s5n_s10_0_car_00_car4-boat1.png
subject-10,1,197,1.12273097038269,truck,cat,0,0197_s5n_s10_0_cat_00_cat3-oven2.png
subject-10,1,198,0.936522960662842,bear,bear,0,0198_s5n_s10_0_bear_00_bear8-elephant2.png
subject-10,1,199,1.00393795967102,clock,clock,0,0199_s5n_s10_0_clock_00_clock8-chair2.png
subject-10,1,200,0.741350173950195,chair,chair,0,0200_s5n_s10_0_chair_00_chair1-truck3.png
subject-10,1,201,1.06537389755249,bottle,bottle,0,0201_s5n_s10_0_bottle_00_bottle3-bottle3.png
subject-10,1,202,0.799901962280273,cat,cat,0,0202_s5n_s10_0_cat_00_cat9-knife2.png
subject-10,1,203,0.729923963546753,clock,clock,0,0203_s5n_s10_0_clock_00_clock5-airplane1.png
subject-10,1,204,0.798058986663818,knife,knife,0,0204_s5n_s10_0_knife_00_knife9-airplane2.png
subject-10,1,205,1.31961107254028,knife,airplane,0,0205_s5n_s10_0_airplane_00_airplane9-truck1.png
subject-10,1,206,0.795165061950684,dog,dog,0,0206_s5n_s10_0_dog_00_dog3-keyboard1.png
subject-10,1,207,1.42495489120483,car,boat,0,0207_s5n_s10_0_boat_00_boat8-truck2.png
subject-10,1,208,0.894462108612061,cat,dog,0,0208_s5n_s10_0_dog_00_dog7-knife3.png
subject-10,1,209,0.816004037857056,knife,boat,0,0209_s5n_s10_0_boat_00_boat4-knife2.png
subject-10,1,210,0.976125001907349,truck,oven,0,0210_s5n_s10_0_oven_00_oven7-car3.png
subject-10,1,211,1.0814950466156,keyboard,keyboard,0,0211_s5n_s10_0_keyboard_00_keyboard1-airplane2.png
subject-10,1,212,0.86500096321106,cat,cat,0,0212_s5n_s10_0_cat_00_cat8-bicycle3.png
subject-10,1,213,0.980937957763672,knife,knife,0,0213_s5n_s10_0_knife_00_knife5-clock1.png
subject-10,1,214,0.839287996292114,chair,chair,0,0214_s5n_s10_0_chair_00_chair5-bird1.png
subject-10,1,215,0.966398000717163,airplane,airplane,0,0215_s5n_s10_0_airplane_00_airplane5-bottle3.png
subject-10,1,216,1.19592308998108,dog,dog,0,0216_s5n_s10_0_dog_00_dog3-bear3.png
subject-10,1,217,1.03754901885986,bicycle,bicycle,0,0217_s5n_s10_0_bicycle_00_bicycle9-bird3.png
subject-10,1,218,1.00560688972473,bear,elephant,0,0218_s5n_s10_0_elephant_00_elephant4-boat3.png
subject-10,1,219,0.980929851531982,cat,cat,0,0219_s5n_s10_0_cat_00_cat6-oven1.png
subject-10,1,220,0.847820997238159,chair,chair,0,0220_s5n_s10_0_chair_00_chair7-bird1.png
subject-10,1,221,0.809923887252808,oven,oven,0,0221_s5n_s10_0_oven_00_oven2-truck3.png
subject-10,1,222,0.606948137283325,cat,cat,0,0222_s5n_s10_0_cat_00_cat4-oven1.png
subject-10,1,223,1.03639507293701,elephant,elephant,0,0223_s5n_s10_0_elephant_00_elephant8-boat2.png
subject-10,1,224,0.849501848220825,knife,knife,0,0224_s5n_s10_0_knife_00_knife1-clock2.png
subject-10,1,225,1.19576001167297,keyboard,keyboard,0,0225_s5n_s10_0_keyboard_00_keyboard3-car2.png
subject-10,1,226,0.841308832168579,keyboard,keyboard,0,0226_s5n_s10_0_keyboard_00_keyboard8-oven1.png
subject-10,1,227,0.908841133117676,chair,chair,0,0227_s5n_s10_0_chair_00_chair4-bear2.png
subject-10,1,228,0.754014015197754,bicycle,bicycle,0,0228_s5n_s10_0_bicycle_00_bicycle9-chair1.png
subject-10,1,229,0.875725030899048,keyboard,boat,0,0229_s5n_s10_0_boat_00_boat3-airplane2.png
subject-10,1,230,0.788973093032837,bear,boat,0,0230_s5n_s10_0_boat_00_boat6-clock2.png
subject-10,1,231,0.743451833724976,keyboard,keyboard,0,0231_s5n_s10_0_keyboard_00_keyboard5-oven2.png
subject-10,1,232,0.911370992660522,keyboard,oven,0,0232_s5n_s10_0_oven_00_oven4-dog1.png
subject-10,1,233,0.879091024398804,bicycle,bicycle,0,0233_s5n_s10_0_bicycle_00_bicycle3-bird1.png
subject-10,1,234,1.14703702926636,elephant,elephant,0,0234_s5n_s10_0_elephant_00_elephant8-dog1.png
subject-10,1,235,0.868386030197144,dog,dog,0,0235_s5n_s10_0_dog_00_dog4-oven1.png
subject-10,1,236,0.790408134460449,knife,knife,0,0236_s5n_s10_0_knife_00_knife1-bird2.png
subject-10,1,237,0.690181970596313,car,car,0,0237_s5n_s10_0_car_00_car3-dog2.png
subject-10,1,238,0.703500032424927,oven,oven,0,0238_s5n_s10_0_oven_00_oven9-oven1.png
subject-10,1,239,1.01118898391724,airplane,airplane,0,0239_s5n_s10_0_airplane_00_airplane3-dog1.png
subject-10,1,240,0.832592010498047,dog,dog,0,0240_s5n_s10_0_dog_00_dog10-car3.png
subject-10,1,241,0.805208921432495,airplane,airplane,0,0241_s5n_s10_0_airplane_00_airplane5-chair3.png
subject-10,1,242,1.03469181060791,truck,truck,0,0242_s5n_s10_0_truck_00_truck3-car3.png
subject-10,1,243,0.796533107757568,car,car,0,0243_s5n_s10_0_car_00_car7-keyboard3.png
subject-10,1,244,0.985860824584961,elephant,elephant,0,0244_s5n_s10_0_elephant_00_elephant1-dog2.png
subject-10,1,245,1.2858190536499,boat,car,0,0245_s5n_s10_0_car_00_car7-clock1.png
subject-10,1,246,0.66999077796936,boat,boat,0,0246_s5n_s10_0_boat_00_boat5-clock3.png
subject-10,1,247,0.862231016159058,airplane,knife,0,0247_s5n_s10_0_knife_00_knife2-bottle2.png
subject-10,1,248,0.791312217712402,chair,chair,0,0248_s5n_s10_0_chair_00_chair9-dog2.png
subject-10,1,249,0.851207971572876,truck,truck,0,0249_s5n_s10_0_truck_00_truck9-truck3.png
subject-10,1,250,1.12740612030029,bird,bird,0,0250_s5n_s10_0_bird_00_bird6-elephant2.png
subject-10,1,251,1.04803204536438,truck,truck,0,0251_s5n_s10_0_truck_00_truck3-cat1.png
subject-10,1,252,1.27480387687683,bicycle,bicycle,0,0252_s5n_s10_0_bicycle_00_bicycle2-dog1.png
subject-10,1,253,0.761023044586182,clock,clock,0,0253_s5n_s10_0_clock_00_clock8-truck2.png
subject-10,1,254,0.690709114074707,oven,oven,0,0254_s5n_s10_0_oven_00_oven10-oven3.png
subject-10,1,255,0.728165864944458,clock,clock,0,0255_s5n_s10_0_clock_00_clock10-boat2.png
subject-10,1,256,1.19305896759033,bird,bird,0,0256_s5n_s10_0_bird_00_bird1-knife3.png
subject-10,1,257,1.01942896842957,car,car,0,0257_s5n_s10_0_car_00_car2-bird3.png
subject-10,1,258,0.864754915237427,knife,knife,0,0258_s5n_s10_0_knife_00_knife1-dog1.png
subject-10,1,259,0.748044967651367,oven,bear,0,0259_s5n_s10_0_bear_00_bear10-elephant1.png
subject-10,1,260,1.10870003700256,airplane,bear,0,0260_s5n_s10_0_bear_00_bear6-car2.png
subject-10,1,261,0.945966005325317,keyboard,keyboard,0,0261_s5n_s10_0_keyboard_00_keyboard2-clock1.png
subject-10,1,262,1.35119915008545,knife,knife,0,0262_s5n_s10_0_knife_00_knife4-clock3.png
subject-10,1,263,0.734885931015015,oven,oven,0,0263_s5n_s10_0_oven_00_oven2-oven3.png
subject-10,1,264,0.573209047317505,boat,boat,0,0264_s5n_s10_0_boat_00_boat9-cat3.png
subject-10,1,265,1.47341203689575,knife,boat,0,0265_s5n_s10_0_boat_00_boat8-elephant1.png
subject-10,1,266,1.11906599998474,car,car,0,0266_s5n_s10_0_car_00_car10-elephant2.png
subject-10,1,267,0.9948890209198,bird,elephant,0,0267_s5n_s10_0_elephant_00_elephant2-bird1.png
subject-10,1,268,1.28648090362549,car,car,0,0268_s5n_s10_0_car_00_car8-bicycle2.png
subject-10,1,269,0.991674184799194,truck,truck,0,0269_s5n_s10_0_truck_00_truck3-bird2.png
subject-10,1,270,0.875360012054443,truck,boat,0,0270_s5n_s10_0_boat_00_boat1-bear1.png
subject-10,1,271,0.742496967315674,chair,chair,0,0271_s5n_s10_0_chair_00_chair6-dog1.png
subject-10,1,272,1.11007618904114,keyboard,keyboard,0,0272_s5n_s10_0_keyboard_00_keyboard6-dog2.png
subject-10,1,273,0.909533023834229,car,car,0,0273_s5n_s10_0_car_00_car4-car2.png
subject-10,1,274,0.843996047973633,bottle,bottle,0,0274_s5n_s10_0_bottle_00_bottle7-airplane3.png
subject-10,1,275,0.795107841491699,boat,boat,0,0275_s5n_s10_0_boat_00_boat10-boat3.png
subject-10,1,276,0.925336837768555,bear,bear,0,0276_s5n_s10_0_bear_00_bear2-elephant1.png
subject-10,1,277,0.79503321647644,oven,oven,0,0277_s5n_s10_0_oven_00_oven9-keyboard1.png
subject-10,1,278,0.862571001052856,chair,chair,0,0278_s5n_s10_0_chair_00_chair9-elephant1.png
subject-10,1,279,0.784260988235474,boat,boat,0,0279_s5n_s10_0_boat_00_boat9-bird1.png
subject-10,1,280,1.02183103561401,bird,bird,0,0280_s5n_s10_0_bird_00_bird5-truck2.png
subject-10,1,281,0.867051839828491,bird,bird,0,0281_s5n_s10_0_bird_00_bird7-oven3.png
subject-10,1,282,1.04875206947327,dog,dog,0,0282_s5n_s10_0_dog_00_dog10-dog1.png
subject-10,1,283,1.37005877494812,elephant,elephant,0,0283_s5n_s10_0_elephant_00_elephant2-airplane3.png
subject-10,1,284,1.21609997749329,bicycle,bicycle,0,0284_s5n_s10_0_bicycle_00_bicycle1-elephant2.png
subject-10,1,285,0.944194078445435,cat,cat,0,0285_s5n_s10_0_cat_00_cat5-elephant2.png
subject-10,1,286,0.875001192092896,knife,knife,0,0286_s5n_s10_0_knife_00_knife3-keyboard3.png
subject-10,1,287,0.880239009857178,dog,dog,0,0287_s5n_s10_0_dog_00_dog10-clock1.png
subject-10,1,288,0.872523069381714,airplane,airplane,0,0288_s5n_s10_0_airplane_00_airplane1-chair2.png
subject-10,1,289,0.896811008453369,chair,oven,0,0289_s5n_s10_0_oven_00_oven7-dog2.png
subject-10,1,290,0.763696908950806,bicycle,bicycle,0,0290_s5n_s10_0_bicycle_00_bicycle9-bear1.png
subject-10,1,291,1.1315929889679,keyboard,knife,0,0291_s5n_s10_0_knife_00_knife9-bicycle1.png
subject-10,1,292,0.745568990707397,clock,clock,0,0292_s5n_s10_0_clock_00_clock1-boat3.png
subject-10,1,293,0.877125978469849,dog,dog,0,0293_s5n_s10_0_dog_00_dog9-airplane3.png
subject-10,1,294,0.761683940887451,bottle,bottle,0,0294_s5n_s10_0_bottle_00_bottle10-truck3.png
subject-10,1,295,0.751282930374146,car,car,0,0295_s5n_s10_0_car_00_car5-oven2.png
subject-10,1,296,0.909641981124878,airplane,airplane,0,0296_s5n_s10_0_airplane_00_airplane8-clock2.png
subject-10,1,297,0.825554132461548,bear,bear,0,0297_s5n_s10_0_bear_00_bear1-bear3.png
subject-10,1,298,0.717632055282593,cat,cat,0,0298_s5n_s10_0_cat_00_cat1-chair2.png
subject-10,1,299,0.910894870758057,oven,oven,0,0299_s5n_s10_0_oven_00_oven7-oven1.png
subject-10,1,300,1.09440994262695,keyboard,keyboard,0,0300_s5n_s10_0_keyboard_00_keyboard7-car3.png
subject-10,1,301,1.44692301750183,dog,dog,0,0301_s5n_s10_0_dog_00_dog6-bird1.png
subject-10,1,302,0.815804004669189,bear,bear,0,0302_s5n_s10_0_bear_00_bear1-clock2.png
subject-10,1,303,0.791455984115601,chair,chair,0,0303_s5n_s10_0_chair_00_chair9-bird3.png
subject-10,1,304,0.95932412147522,bottle,bottle,0,0304_s5n_s10_0_bottle_00_bottle8-bottle3.png
subject-10,1,305,0.805428028106689,clock,clock,0,0305_s5n_s10_0_clock_00_clock3-bicycle2.png
subject-10,1,306,0.80309009552002,keyboard,keyboard,0,0306_s5n_s10_0_keyboard_00_keyboard6-car2.png
subject-10,1,307,1.07013416290283,airplane,airplane,0,0307_s5n_s10_0_airplane_00_airplane7-airplane3.png
subject-10,1,308,1.23160600662231,truck,truck,0,0308_s5n_s10_0_truck_00_truck3-clock3.png
subject-10,1,309,0.845767974853516,bear,bear,0,0309_s5n_s10_0_bear_00_bear5-oven3.png
subject-10,1,310,0.84474778175354,clock,clock,0,0310_s5n_s10_0_clock_00_clock6-chair3.png
subject-10,1,311,1.10365295410156,keyboard,keyboard,0,0311_s5n_s10_0_keyboard_00_keyboard7-dog1.png
subject-10,1,312,1.41721081733704,airplane,bird,0,0312_s5n_s10_0_bird_00_bird7-truck2.png
subject-10,1,313,0.947527885437012,bird,bird,0,0313_s5n_s10_0_bird_00_bird6-car3.png
subject-10,1,314,0.871235132217407,bicycle,bicycle,0,0314_s5n_s10_0_bicycle_00_bicycle2-car2.png
subject-10,1,315,0.855067014694214,clock,clock,0,0315_s5n_s10_0_clock_00_clock9-bird2.png
subject-10,1,316,0.9444739818573,airplane,airplane,0,0316_s5n_s10_0_airplane_00_airplane3-elephant1.png
subject-10,1,317,1.15810918807983,truck,truck,0,0317_s5n_s10_0_truck_00_truck2-bottle3.png
subject-10,1,318,0.835803031921387,clock,clock,0,0318_s5n_s10_0_clock_00_clock1-clock2.png
subject-10,1,319,1.01160907745361,car,oven,0,0319_s5n_s10_0_oven_00_oven6-oven3.png
subject-10,1,320,0.708950042724609,oven,oven,0,0320_s5n_s10_0_oven_00_oven2-bear3.png
subject-10,1,321,0.732791900634766,oven,knife,0,0321_s5n_s10_0_knife_00_knife5-oven2.png
subject-10,1,322,1.5002179145813,knife,cat,0,0322_s5n_s10_0_cat_00_cat10-elephant3.png
subject-10,1,323,1.04386806488037,bird,bear,0,0323_s5n_s10_0_bear_00_bear6-bird2.png
subject-10,1,324,0.967668056488037,knife,boat,0,0324_s5n_s10_0_boat_00_boat4-car3.png
subject-10,1,325,0.805777072906494,oven,knife,0,0325_s5n_s10_0_knife_00_knife6-bird1.png
subject-10,1,326,0.805643796920776,boat,airplane,0,0326_s5n_s10_0_airplane_00_airplane9-airplane2.png
subject-10,1,327,0.848691940307617,cat,bird,0,0327_s5n_s10_0_bird_00_bird1-boat1.png
subject-10,1,328,0.762434959411621,boat,cat,0,0328_s5n_s10_0_cat_00_cat4-car2.png
subject-10,1,329,0.656361103057861,oven,oven,0,0329_s5n_s10_0_oven_00_oven5-keyboard2.png
subject-10,1,330,1.17858910560608,airplane,airplane,0,0330_s5n_s10_0_airplane_00_airplane7-boat2.png
subject-10,1,331,1.27620196342468,knife,boat,0,0331_s5n_s10_0_boat_00_boat8-bird2.png
subject-10,1,332,1.02959513664246,bird,bird,0,0332_s5n_s10_0_bird_00_bird9-bicycle3.png
subject-10,1,333,0.783402919769287,bicycle,bicycle,0,0333_s5n_s10_0_bicycle_00_bicycle7-cat1.png
subject-10,1,334,0.851166009902954,dog,dog,0,0334_s5n_s10_0_dog_00_dog2-dog3.png
subject-10,1,335,0.727224111557007,airplane,airplane,0,0335_s5n_s10_0_airplane_00_airplane5-bird2.png
subject-10,1,336,0.847721099853516,chair,chair,0,0336_s5n_s10_0_chair_00_chair10-dog1.png
subject-10,1,337,0.853160858154297,knife,knife,0,0337_s5n_s10_0_knife_00_knife4-bear1.png
subject-10,1,338,0.882810115814209,car,car,0,0338_s5n_s10_0_car_00_car8-truck3.png
subject-10,1,339,0.766350030899048,bottle,bottle,0,0339_s5n_s10_0_bottle_00_bottle1-dog2.png
subject-10,1,340,0.934206962585449,oven,oven,0,0340_s5n_s10_0_oven_00_oven3-elephant3.png
subject-10,1,341,1.03149700164795,bottle,boat,0,0341_s5n_s10_0_boat_00_boat4-bottle2.png
subject-10,1,342,0.869593858718872,keyboard,knife,0,0342_s5n_s10_0_knife_00_knife8-bottle3.png
subject-10,1,343,0.937617778778076,bird,bird,0,0343_s5n_s10_0_bird_00_bird10-bear2.png
subject-10,1,344,1.39679002761841,bear,truck,0,0344_s5n_s10_0_truck_00_truck6-bottle3.png
subject-10,1,345,0.941618919372559,bear,bear,0,0345_s5n_s10_0_bear_00_bear4-boat2.png
subject-10,1,346,0.801259994506836,truck,truck,0,0346_s5n_s10_0_truck_00_truck10-elephant3.png
subject-10,1,347,0.715528011322021,keyboard,keyboard,0,0347_s5n_s10_0_keyboard_00_keyboard8-airplane2.png
subject-10,1,348,0.92838716506958,knife,knife,0,0348_s5n_s10_0_knife_00_knife3-bear2.png
subject-10,1,349,0.898126125335693,truck,truck,0,0349_s5n_s10_0_truck_00_truck5-dog3.png
subject-10,1,350,1.05060315132141,dog,dog,0,0350_s5n_s10_0_dog_00_dog1-airplane3.png
subject-10,1,351,0.941887140274048,airplane,knife,0,0351_s5n_s10_0_knife_00_knife9-bottle2.png
subject-10,1,352,0.979703903198242,keyboard,keyboard,0,0352_s5n_s10_0_keyboard_00_keyboard3-clock3.png
subject-10,1,353,1.00132417678833,keyboard,bear,0,0353_s5n_s10_0_bear_00_bear4-keyboard3.png
subject-10,1,354,1.10914397239685,oven,cat,0,0354_s5n_s10_0_cat_00_cat10-bottle1.png
subject-10,1,355,0.847935914993286,clock,clock,0,0355_s5n_s10_0_clock_00_clock6-clock2.png
subject-10,1,356,1.0161988735199,truck,truck,0,0356_s5n_s10_0_truck_00_truck7-elephant2.png
subject-10,1,357,1.00725483894348,clock,boat,0,0357_s5n_s10_0_boat_00_boat6-elephant2.png
subject-10,1,358,0.912952899932861,bicycle,bicycle,0,0358_s5n_s10_0_bicycle_00_bicycle2-bottle1.png
subject-10,1,359,0.820452928543091,cat,airplane,0,0359_s5n_s10_0_airplane_00_airplane4-cat3.png
subject-10,1,360,0.812587022781372,cat,cat,0,0360_s5n_s10_0_cat_00_cat2-truck3.png
subject-10,1,361,0.842646837234497,cat,cat,0,0361_s5n_s10_0_cat_00_cat1-keyboard3.png
subject-10,1,362,0.980510950088501,elephant,elephant,0,0362_s5n_s10_0_elephant_00_elephant4-bicycle2.png
subject-10,1,363,0.794125080108643,bear,oven,0,0363_s5n_s10_0_oven_00_oven9-airplane2.png
subject-10,1,364,0.748046159744263,chair,chair,0,0364_s5n_s10_0_chair_00_chair8-car1.png
subject-10,1,365,0.953327894210815,knife,knife,0,0365_s5n_s10_0_knife_00_knife6-boat3.png
subject-10,1,366,0.901435852050781,car,car,0,0366_s5n_s10_0_car_00_car8-knife2.png
subject-10,1,367,0.824737071990967,bottle,bottle,0,0367_s5n_s10_0_bottle_00_bottle3-knife3.png
subject-10,1,368,1.43011283874512,keyboard,keyboard,0,0368_s5n_s10_0_keyboard_00_keyboard2-elephant1.png
subject-10,1,369,1.22226405143738,elephant,elephant,0,0369_s5n_s10_0_elephant_00_elephant10-bear1.png
subject-10,1,370,0.805930137634277,bottle,boat,0,0370_s5n_s10_0_boat_00_boat7-truck2.png
subject-10,1,371,0.970921039581299,oven,boat,0,0371_s5n_s10_0_boat_00_boat1-oven1.png
subject-10,1,372,0.800331115722656,car,boat,0,0372_s5n_s10_0_boat_00_boat10-truck1.png
subject-10,1,373,1.0083429813385,elephant,elephant,0,0373_s5n_s10_0_elephant_00_elephant7-keyboard3.png
subject-10,1,374,1.11360383033752,bird,boat,0,0374_s5n_s10_0_boat_00_boat6-bicycle2.png
subject-10,1,375,0.911174058914185,car,car,0,0375_s5n_s10_0_car_00_car8-clock2.png
subject-10,1,376,1.0486011505127,airplane,airplane,0,0376_s5n_s10_0_airplane_00_airplane9-oven2.png
subject-10,1,377,0.737544059753418,cat,cat,0,0377_s5n_s10_0_cat_00_cat4-knife1.png
subject-10,1,378,0.951774120330811,bird,bird,0,0378_s5n_s10_0_bird_00_bird4-airplane1.png
subject-10,1,379,NaN,na,airplane,0,0379_s5n_s10_0_airplane_00_airplane4-keyboard3.png
subject-10,1,380,0.679667949676514,oven,clock,0,0380_s5n_s10_0_clock_00_clock6-truck3.png
subject-10,1,381,1.28277111053467,elephant,elephant,0,0381_s5n_s10_0_elephant_00_elephant8-airplane3.png
subject-10,1,382,1.00473213195801,car,knife,0,0382_s5n_s10_0_knife_00_knife7-car2.png
subject-10,1,383,0.888581037521362,oven,oven,0,0383_s5n_s10_0_oven_00_oven2-dog3.png
subject-10,1,384,0.804296970367432,car,bear,0,0384_s5n_s10_0_bear_00_bear4-car3.png
subject-10,1,385,0.802021026611328,bicycle,bicycle,0,0385_s5n_s10_0_bicycle_00_bicycle6-airplane2.png
subject-10,1,386,0.948521137237549,chair,dog,0,0386_s5n_s10_0_dog_00_dog2-airplane2.png
subject-10,1,387,0.785585165023804,cat,cat,0,0387_s5n_s10_0_cat_00_cat3-bear2.png
subject-10,1,388,0.802250862121582,cat,airplane,0,0388_s5n_s10_0_airplane_00_airplane3-keyboard2.png
subject-10,1,389,0.800103902816772,knife,knife,0,0389_s5n_s10_0_knife_00_knife5-truck3.png
subject-10,1,390,1.06773114204407,bicycle,bicycle,0,0390_s5n_s10_0_bicycle_00_bicycle4-truck3.png
subject-10,1,391,0.81376314163208,bicycle,bicycle,0,0391_s5n_s10_0_bicycle_00_bicycle8-chair2.png
subject-10,1,392,0.827429056167603,bird,bear,0,0392_s5n_s10_0_bear_00_bear6-clock1.png
subject-10,1,393,0.834945917129517,keyboard,keyboard,0,0393_s5n_s10_0_keyboard_00_keyboard9-bicycle2.png
subject-10,1,394,0.836828947067261,oven,car,0,0394_s5n_s10_0_car_00_car10-keyboard2.png
subject-10,1,395,1.21257877349854,truck,truck,0,0395_s5n_s10_0_truck_00_truck6-bear2.png
subject-10,1,396,1.45849800109863,bottle,bottle,0,0396_s5n_s10_0_bottle_00_bottle10-bear2.png
subject-10,1,397,0.817790985107422,truck,truck,0,0397_s5n_s10_0_truck_00_truck2-keyboard1.png
subject-10,1,398,1.36158800125122,bicycle,bicycle,0,0398_s5n_s10_0_bicycle_00_bicycle10-airplane2.png
subject-10,1,399,0.820032835006714,cat,cat,0,0399_s5n_s10_0_cat_00_cat9-clock2.png
subject-10,1,400,0.981908082962036,elephant,elephant,0,0400_s5n_s10_0_elephant_00_elephant8-clock2.png
subject-10,1,401,0.903521060943604,bottle,dog,0,0401_s5n_s10_0_dog_00_dog2-bottle2.png
subject-10,1,402,1.01684713363647,bottle,bottle,0,0402_s5n_s10_0_bottle_00_bottle3-bicycle3.png
subject-10,1,403,0.849549055099487,bicycle,bicycle,0,0403_s5n_s10_0_bicycle_00_bicycle1-bottle3.png
subject-10,1,404,1.00957298278809,elephant,elephant,0,0404_s5n_s10_0_elephant_00_elephant4-chair3.png
subject-10,1,405,0.7535080909729,clock,clock,0,0405_s5n_s10_0_clock_00_clock7-bear2.png
subject-10,1,406,0.920922040939331,knife,boat,0,0406_s5n_s10_0_boat_00_boat1-elephant3.png
subject-10,1,407,1.02110886573792,bear,elephant,0,0407_s5n_s10_0_elephant_00_elephant7-clock2.png
subject-10,1,408,0.958225011825562,elephant,elephant,0,0408_s5n_s10_0_elephant_00_elephant3-cat2.png
subject-10,1,409,1.31016898155212,truck,truck,0,0409_s5n_s10_0_truck_00_truck3-knife2.png
subject-10,1,410,1.47775387763977,truck,bird,0,0410_s5n_s10_0_bird_00_bird3-boat3.png
subject-10,1,411,1.00771379470825,oven,knife,0,0411_s5n_s10_0_knife_00_knife4-keyboard1.png
subject-10,1,412,1.02365803718567,knife,knife,0,0412_s5n_s10_0_knife_00_knife5-knife3.png
subject-10,1,413,0.937324047088623,bear,bear,0,0413_s5n_s10_0_bear_00_bear2-cat2.png
subject-10,1,414,0.907338857650757,bottle,bottle,0,0414_s5n_s10_0_bottle_00_bottle4-car3.png
subject-10,1,415,1.14264416694641,bird,bird,0,0415_s5n_s10_0_bird_00_bird5-bicycle1.png
subject-10,1,416,1.09647798538208,dog,dog,0,0416_s5n_s10_0_dog_00_dog4-airplane3.png
subject-10,1,417,1.12759590148926,knife,knife,0,0417_s5n_s10_0_knife_00_knife1-elephant1.png
subject-10,1,418,0.851643800735474,bird,bird,0,0418_s5n_s10_0_bird_00_bird9-dog2.png
subject-10,1,419,0.635102987289429,clock,clock,0,0419_s5n_s10_0_clock_00_clock10-knife3.png
subject-10,1,420,0.957181215286255,bear,bear,0,0420_s5n_s10_0_bear_00_bear8-bear1.png
subject-10,1,421,1.08712697029114,bird,boat,0,0421_s5n_s10_0_boat_00_boat6-truck3.png
subject-10,1,422,1.22266316413879,bird,dog,0,0422_s5n_s10_0_dog_00_dog8-keyboard3.png
subject-10,1,423,1.01506114006042,elephant,elephant,0,0423_s5n_s10_0_elephant_00_elephant9-chair2.png
subject-10,1,424,0.830614805221558,truck,truck,0,0424_s5n_s10_0_truck_00_truck7-truck2.png
subject-10,1,425,0.944187879562378,airplane,airplane,0,0425_s5n_s10_0_airplane_00_airplane9-boat1.png
subject-10,1,426,0.989983797073364,elephant,bear,0,0426_s5n_s10_0_bear_00_bear4-clock3.png
subject-10,1,427,0.895917177200317,truck,truck,0,0427_s5n_s10_0_truck_00_truck5-bird2.png
subject-10,1,428,1.04157900810242,bird,bird,0,0428_s5n_s10_0_bird_00_bird8-bottle1.png
subject-10,1,429,0.838928937911987,cat,dog,0,0429_s5n_s10_0_dog_00_dog8-clock2.png
subject-10,1,430,1.12283277511597,truck,truck,0,0430_s5n_s10_0_truck_00_truck10-clock1.png
subject-10,1,431,0.676537036895752,clock,clock,0,0431_s5n_s10_0_clock_00_clock1-bear1.png
subject-10,1,432,1.0814790725708,car,elephant,0,0432_s5n_s10_0_elephant_00_elephant2-truck2.png
subject-10,1,433,0.819607019424438,chair,chair,0,0433_s5n_s10_0_chair_00_chair7-bottle1.png
subject-10,1,434,1.03380298614502,chair,chair,0,0434_s5n_s10_0_chair_00_chair1-airplane2.png
subject-10,1,435,0.822844982147217,bird,bird,0,0435_s5n_s10_0_bird_00_bird7-bird2.png
subject-10,1,436,0.876653909683228,keyboard,keyboard,0,0436_s5n_s10_0_keyboard_00_keyboard10-keyboard1.png
subject-10,1,437,1.29039001464844,keyboard,cat,0,0437_s5n_s10_0_cat_00_cat5-keyboard3.png
subject-10,1,438,0.820180177688599,bottle,bottle,0,0438_s5n_s10_0_bottle_00_bottle6-airplane1.png
subject-10,1,439,1.50001287460327,chair,chair,0,0439_s5n_s10_0_chair_00_chair5-bicycle1.png
subject-10,1,440,0.805429935455322,cat,cat,0,0440_s5n_s10_0_cat_00_cat9-cat3.png
subject-10,1,441,0.672983169555664,clock,clock,0,0441_s5n_s10_0_clock_00_clock7-bicycle1.png
subject-10,1,442,0.702705860137939,oven,oven,0,0442_s5n_s10_0_oven_00_oven4-elephant3.png
subject-10,1,443,0.948461055755615,elephant,elephant,0,0443_s5n_s10_0_elephant_00_elephant1-car3.png
subject-10,1,444,0.870990991592407,bottle,airplane,0,0444_s5n_s10_0_airplane_00_airplane5-knife1.png
subject-10,1,445,0.967813014984131,chair,chair,0,0445_s5n_s10_0_chair_00_chair2-boat1.png
subject-10,1,446,1.07611513137817,bicycle,bicycle,0,0446_s5n_s10_0_bicycle_00_bicycle4-boat1.png
subject-10,1,447,1.07374405860901,bird,dog,0,0447_s5n_s10_0_dog_00_dog4-bird1.png
subject-10,1,448,1.05230093002319,bird,bird,0,0448_s5n_s10_0_bird_00_bird7-cat3.png
subject-10,1,449,1.02015805244446,bottle,elephant,0,0449_s5n_s10_0_elephant_00_elephant6-knife2.png
subject-10,1,450,0.78242301940918,clock,clock,0,0450_s5n_s10_0_clock_00_clock4-knife1.png
subject-10,1,451,0.88841700553894,car,bird,0,0451_s5n_s10_0_bird_00_bird1-chair2.png
subject-10,1,452,0.917845964431763,clock,cat,0,0452_s5n_s10_0_cat_00_cat2-boat2.png
subject-10,1,453,1.11783599853516,bear,bear,0,0453_s5n_s10_0_bear_00_bear8-truck3.png
subject-10,1,454,1.20928597450256,knife,truck,0,0454_s5n_s10_0_truck_00_truck5-knife3.png
subject-10,1,455,NaN,na,bird,0,0455_s5n_s10_0_bird_00_bird4-clock1.png
subject-10,1,456,0.885249853134155,bird,bird,0,0456_s5n_s10_0_bird_00_bird10-bicycle1.png
subject-10,1,457,0.72927713394165,chair,chair,0,0457_s5n_s10_0_chair_00_chair7-chair1.png
subject-10,1,458,0.774200916290283,car,car,0,0458_s5n_s10_0_car_00_car7-bear1.png
subject-10,1,459,0.866975069046021,knife,knife,0,0459_s5n_s10_0_knife_00_knife5-bicycle2.png
subject-10,1,460,0.826812028884888,bird,bird,0,0460_s5n_s10_0_bird_00_bird9-elephant2.png
subject-10,1,461,0.727279901504517,cat,cat,0,0461_s5n_s10_0_cat_00_cat7-clock3.png
subject-10,1,462,1.0236029624939,bicycle,bicycle,0,0462_s5n_s10_0_bicycle_00_bicycle10-clock2.png
subject-10,1,463,0.790788173675537,airplane,airplane,0,0463_s5n_s10_0_airplane_00_airplane6-knife1.png
subject-10,1,464,0.753309965133667,truck,truck,0,0464_s5n_s10_0_truck_00_truck4-oven2.png
subject-10,1,465,0.859430074691772,dog,dog,0,0465_s5n_s10_0_dog_00_dog1-boat3.png
subject-10,1,466,0.812427997589111,chair,chair,0,0466_s5n_s10_0_chair_00_chair8-elephant1.png
subject-10,1,467,0.904538869857788,keyboard,keyboard,0,0467_s5n_s10_0_keyboard_00_keyboard1-car3.png
subject-10,1,468,0.740246057510376,bottle,bottle,0,0468_s5n_s10_0_bottle_00_bottle3-cat3.png
subject-10,1,469,0.694316864013672,cat,bird,0,0469_s5n_s10_0_bird_00_bird1-keyboard3.png
subject-10,1,470,0.623155117034912,clock,clock,0,0470_s5n_s10_0_clock_00_clock7-boat3.png
subject-10,1,471,0.906816959381104,chair,chair,0,0471_s5n_s10_0_chair_00_chair10-oven1.png
subject-10,1,472,0.936753988265991,car,car,0,0472_s5n_s10_0_car_00_car1-clock2.png
subject-10,1,473,0.801826000213623,chair,chair,0,0473_s5n_s10_0_chair_00_chair1-oven3.png
subject-10,1,474,0.871322154998779,car,car,0,0474_s5n_s10_0_car_00_car5-cat1.png
subject-10,1,475,0.815748929977417,car,airplane,0,0475_s5n_s10_0_airplane_00_airplane4-car1.png
subject-10,1,476,0.677531957626343,boat,boat,0,0476_s5n_s10_0_boat_00_boat2-airplane1.png
subject-10,1,477,0.949192047119141,clock,clock,0,0477_s5n_s10_0_clock_00_clock3-car2.png
subject-10,1,478,0.741310119628906,chair,chair,0,0478_s5n_s10_0_chair_00_chair4-oven2.png
subject-10,1,479,0.795524835586548,cat,cat,0,0479_s5n_s10_0_cat_00_cat5-bear2.png
subject-10,1,480,0.808844804763794,cat,cat,0,0480_s5n_s10_0_cat_00_cat8-car2.png
subject-10,1,481,0.906940937042236,car,car,0,0481_s5n_s10_0_car_00_car10-car1.png
subject-10,1,482,NaN,na,dog,0,0482_s5n_s10_0_dog_00_dog9-chair2.png
subject-10,1,483,1.1326949596405,truck,keyboard,0,0483_s5n_s10_0_keyboard_00_keyboard7-oven2.png
subject-10,1,484,0.862297058105469,knife,knife,0,0484_s5n_s10_0_knife_00_knife4-cat2.png
subject-10,1,485,0.808300018310547,clock,clock,0,0485_s5n_s10_0_clock_00_clock1-truck3.png
subject-10,1,486,0.905756950378418,airplane,airplane,0,0486_s5n_s10_0_airplane_00_airplane5-boat3.png
subject-10,1,487,0.782264947891235,bicycle,bicycle,0,0487_s5n_s10_0_bicycle_00_bicycle1-airplane2.png
subject-10,1,488,0.889357089996338,boat,airplane,0,0488_s5n_s10_0_airplane_00_airplane9-clock1.png
subject-10,1,489,0.766273975372314,cat,cat,0,0489_s5n_s10_0_cat_00_cat1-dog1.png
subject-10,1,490,0.712028026580811,cat,car,0,0490_s5n_s10_0_car_00_car4-bear3.png
subject-10,1,491,0.687384843826294,bear,bear,0,0491_s5n_s10_0_bear_00_bear3-car2.png
subject-10,1,492,0.776959896087646,dog,dog,0,0492_s5n_s10_0_dog_00_dog7-keyboard3.png
subject-10,1,493,0.85273003578186,chair,chair,0,0493_s5n_s10_0_chair_00_chair7-airplane1.png
subject-10,1,494,0.540471792221069,boat,boat,0,0494_s5n_s10_0_boat_00_boat5-airplane1.png
subject-10,1,495,0.854197025299072,dog,dog,0,0495_s5n_s10_0_dog_00_dog9-bear3.png
subject-10,1,496,1.00629091262817,bear,bear,0,0496_s5n_s10_0_bear_00_bear10-chair2.png
subject-10,1,497,1.50032305717468,bird,elephant,0,0497_s5n_s10_0_elephant_00_elephant10-keyboard1.png
subject-10,1,498,1.00375199317932,car,car,0,0498_s5n_s10_0_car_00_car9-bicycle2.png
subject-10,1,499,0.881577014923096,bottle,bottle,0,0499_s5n_s10_0_bottle_00_bottle9-cat2.png
subject-10,1,500,0.878919839859009,knife,boat,0,0500_s5n_s10_0_boat_00_boat1-keyboard3.png
subject-10,1,501,0.730695962905884,bottle,bottle,0,0501_s5n_s10_0_bottle_00_bottle5-airplane1.png
subject-10,1,502,0.669627904891968,clock,oven,0,0502_s5n_s10_0_oven_00_oven3-cat2.png
subject-10,1,503,0.898931980133057,keyboard,airplane,0,0503_s5n_s10_0_airplane_00_airplane10-cat2.png
subject-10,1,504,1.50034999847412,knife,airplane,0,0504_s5n_s10_0_airplane_00_airplane8-elephant3.png
subject-10,1,505,0.826056003570557,boat,boat,0,0505_s5n_s10_0_boat_00_boat5-knife2.png
subject-10,1,506,0.769114971160889,chair,chair,0,0506_s5n_s10_0_chair_00_chair4-chair3.png
subject-10,1,507,0.777096033096313,cat,cat,0,0507_s5n_s10_0_cat_00_cat4-truck3.png
subject-10,1,508,0.728973150253296,bicycle,bicycle,0,0508_s5n_s10_0_bicycle_00_bicycle1-bicycle3.png
subject-10,1,509,1.0874559879303,truck,truck,0,0509_s5n_s10_0_truck_00_truck2-bird2.png
subject-10,1,510,0.931014060974121,car,keyboard,0,0510_s5n_s10_0_keyboard_00_keyboard4-truck3.png
subject-10,1,511,0.838855981826782,bear,bear,0,0511_s5n_s10_0_bear_00_bear3-bicycle2.png
subject-10,1,512,0.720112085342407,bottle,bottle,0,0512_s5n_s10_0_bottle_00_bottle9-car3.png
subject-10,1,513,0.810404062271118,knife,knife,0,0513_s5n_s10_0_knife_00_knife10-elephant3.png
subject-10,1,514,1.07003402709961,clock,clock,0,0514_s5n_s10_0_clock_00_clock10-bird3.png
subject-10,1,515,0.810662984848022,dog,dog,0,0515_s5n_s10_0_dog_00_dog1-bear1.png
subject-10,1,516,1.04633784294128,car,keyboard,0,0516_s5n_s10_0_keyboard_00_keyboard10-car1.png
subject-10,1,517,0.684272050857544,car,car,0,0517_s5n_s10_0_car_00_car4-cat3.png
subject-10,1,518,0.596392154693604,cat,cat,0,0518_s5n_s10_0_cat_00_cat1-boat1.png
subject-10,1,519,0.888216972351074,keyboard,keyboard,0,0519_s5n_s10_0_keyboard_00_keyboard1-bear2.png
subject-10,1,520,NaN,na,oven,0,0520_s5n_s10_0_oven_00_oven3-airplane1.png
subject-10,1,521,0.720890045166016,cat,boat,0,0521_s5n_s10_0_boat_00_boat6-knife2.png
subject-10,1,522,0.690976142883301,bottle,bottle,0,0522_s5n_s10_0_bottle_00_bottle5-clock3.png
subject-10,1,523,0.650516033172607,knife,knife,0,0523_s5n_s10_0_knife_00_knife5-keyboard3.png
subject-10,1,524,0.618100881576538,cat,boat,0,0524_s5n_s10_0_boat_00_boat8-oven1.png
subject-10,1,525,1.13203501701355,dog,dog,0,0525_s5n_s10_0_dog_00_dog10-oven2.png
subject-10,1,526,0.729191064834595,bicycle,bicycle,0,0526_s5n_s10_0_bicycle_00_bicycle8-bear2.png
subject-10,1,527,0.791208982467651,oven,oven,0,0527_s5n_s10_0_oven_00_oven6-bird1.png
subject-10,1,528,0.788897037506104,oven,oven,0,0528_s5n_s10_0_oven_00_oven1-boat3.png
subject-10,1,529,0.740164041519165,bicycle,bicycle,0,0529_s5n_s10_0_bicycle_00_bicycle3-keyboard1.png
subject-10,1,530,0.701767921447754,bird,bird,0,0530_s5n_s10_0_bird_00_bird5-car2.png
subject-10,1,531,0.675563097000122,clock,clock,0,0531_s5n_s10_0_clock_00_clock7-cat2.png
subject-10,1,532,1.37534594535828,keyboard,keyboard,0,0532_s5n_s10_0_keyboard_00_keyboard1-bird2.png
subject-10,1,533,1.50000095367432,knife,knife,0,0533_s5n_s10_0_knife_00_knife6-bottle3.png
subject-10,1,534,0.953253030776978,bird,bird,0,0534_s5n_s10_0_bird_00_bird9-bear3.png
subject-10,1,535,0.921577930450439,bear,bear,0,0535_s5n_s10_0_bear_00_bear9-dog1.png
subject-10,1,536,0.979570865631104,boat,bicycle,0,0536_s5n_s10_0_bicycle_00_bicycle1-bear1.png
subject-10,1,537,0.9150550365448,knife,knife,0,0537_s5n_s10_0_knife_00_knife4-car2.png
subject-10,1,538,1.15245008468628,knife,knife,0,0538_s5n_s10_0_knife_00_knife2-dog1.png
subject-10,1,539,0.749505043029785,bird,bird,0,0539_s5n_s10_0_bird_00_bird5-airplane3.png
subject-10,1,540,1.42578101158142,truck,truck,0,0540_s5n_s10_0_truck_00_truck6-dog2.png
subject-10,1,541,1.00978398323059,clock,clock,0,0541_s5n_s10_0_clock_00_clock2-bicycle1.png
subject-10,1,542,1.39917397499084,bird,bird,0,0542_s5n_s10_0_bird_00_bird4-bicycle2.png
subject-10,1,543,0.866352081298828,bottle,bottle,0,0543_s5n_s10_0_bottle_00_bottle5-truck1.png
subject-10,1,544,0.941856145858765,bicycle,bicycle,0,0544_s5n_s10_0_bicycle_00_bicycle7-bear2.png
subject-10,1,545,1.10133790969849,bicycle,bicycle,0,0545_s5n_s10_0_bicycle_00_bicycle1-chair1.png
subject-10,1,546,0.923704862594604,bear,bear,0,0546_s5n_s10_0_bear_00_bear9-keyboard3.png
subject-10,1,547,1.35820293426514,knife,knife,0,0547_s5n_s10_0_knife_00_knife3-knife1.png
subject-10,1,548,0.817568063735962,oven,oven,0,0548_s5n_s10_0_oven_00_oven2-bird2.png
subject-10,1,549,0.833406925201416,cat,bird,0,0549_s5n_s10_0_bird_00_bird7-bottle1.png
subject-10,1,550,0.768782138824463,oven,oven,0,0550_s5n_s10_0_oven_00_oven10-airplane2.png
subject-10,1,551,0.990624189376831,truck,truck,0,0551_s5n_s10_0_truck_00_truck6-boat2.png
subject-10,1,552,1.35048198699951,knife,knife,0,0552_s5n_s10_0_knife_00_knife4-oven2.png
subject-10,1,553,0.771554946899414,oven,dog,0,0553_s5n_s10_0_dog_00_dog5-truck2.png
subject-10,1,554,0.855952024459839,bird,bird,0,0554_s5n_s10_0_bird_00_bird5-chair1.png
subject-10,1,555,0.98302698135376,keyboard,clock,0,0555_s5n_s10_0_clock_00_clock6-oven1.png
subject-10,1,556,1.10966086387634,oven,keyboard,0,0556_s5n_s10_0_keyboard_00_keyboard2-knife1.png
subject-10,1,557,1.00137591362,bicycle,chair,0,0557_s5n_s10_0_chair_00_chair3-airplane2.png
subject-10,1,558,1.32291412353516,airplane,airplane,0,0558_s5n_s10_0_airplane_00_airplane4-airplane1.png
subject-10,1,559,1.23268008232117,bicycle,bicycle,0,0559_s5n_s10_0_bicycle_00_bicycle9-bottle1.png
subject-10,1,560,1.05454182624817,chair,keyboard,0,0560_s5n_s10_0_keyboard_00_keyboard5-airplane3.png
subject-10,1,561,1.05987501144409,elephant,elephant,0,0561_s5n_s10_0_elephant_00_elephant5-chair3.png
subject-10,1,562,0.775677919387817,oven,oven,0,0562_s5n_s10_0_oven_00_oven4-bottle2.png
subject-10,1,563,0.740913867950439,bird,bird,0,0563_s5n_s10_0_bird_00_bird2-dog2.png
subject-10,1,564,1.14458608627319,bear,bear,0,0564_s5n_s10_0_bear_00_bear9-bottle2.png
subject-10,1,565,0.9806067943573,dog,dog,0,0565_s5n_s10_0_dog_00_dog5-boat3.png
subject-10,1,566,0.89424204826355,cat,cat,0,0566_s5n_s10_0_cat_00_cat6-clock3.png
subject-10,1,567,1.23243188858032,cat,elephant,0,0567_s5n_s10_0_elephant_00_elephant2-clock1.png
subject-10,1,568,1.10020518302917,knife,boat,0,0568_s5n_s10_0_boat_00_boat7-bottle1.png
subject-10,1,569,0.791542053222656,oven,chair,0,0569_s5n_s10_0_chair_00_chair6-bird2.png
subject-10,1,570,1.49999904632568,elephant,elephant,0,0570_s5n_s10_0_elephant_00_elephant6-car3.png
subject-10,1,571,0.757192850112915,truck,truck,0,0571_s5n_s10_0_truck_00_truck4-bottle2.png
subject-10,1,572,0.824698925018311,cat,bear,0,0572_s5n_s10_0_bear_00_bear10-clock1.png
subject-10,1,573,0.658225059509277,bottle,bottle,0,0573_s5n_s10_0_bottle_00_bottle10-boat3.png
subject-10,1,574,0.848116874694824,knife,keyboard,0,0574_s5n_s10_0_keyboard_00_keyboard3-cat1.png
subject-10,1,575,1.13947892189026,oven,oven,0,0575_s5n_s10_0_oven_00_oven6-chair3.png
subject-10,1,576,0.928790092468262,bird,elephant,0,0576_s5n_s10_0_elephant_00_elephant1-keyboard3.png
subject-10,1,577,0.907186985015869,elephant,elephant,0,0577_s5n_s10_0_elephant_00_elephant3-knife1.png
subject-10,1,578,0.970870971679688,knife,knife,0,0578_s5n_s10_0_knife_00_knife4-boat1.png
subject-10,1,579,0.746463060379028,dog,dog,0,0579_s5n_s10_0_dog_00_dog3-dog1.png
subject-10,1,580,0.773563861846924,knife,airplane,0,0580_s5n_s10_0_airplane_00_airplane5-oven3.png
subject-10,1,581,1.23302102088928,car,car,0,0581_s5n_s10_0_car_00_car6-boat1.png
subject-10,1,582,1.34670305252075,clock,chair,0,0582_s5n_s10_0_chair_00_chair3-bicycle3.png
subject-10,1,583,0.884710073471069,knife,knife,0,0583_s5n_s10_0_knife_00_knife1-keyboard3.png
subject-10,1,584,0.806106090545654,chair,chair,0,0584_s5n_s10_0_chair_00_chair9-bottle3.png
subject-10,1,585,0.811507940292358,bicycle,bicycle,0,0585_s5n_s10_0_bicycle_00_bicycle4-keyboard3.png
subject-10,1,586,0.749679088592529,cat,cat,0,0586_s5n_s10_0_cat_00_cat7-elephant1.png
subject-10,1,587,1.08452486991882,bicycle,bicycle,0,0587_s5n_s10_0_bicycle_00_bicycle2-knife2.png
subject-10,1,588,0.667675018310547,cat,bird,0,0588_s5n_s10_0_bird_00_bird7-car2.png
subject-10,1,589,0.781174898147583,chair,chair,0,0589_s5n_s10_0_chair_00_chair1-clock2.png
subject-10,1,590,0.88676905632019,clock,clock,0,0590_s5n_s10_0_clock_00_clock9-cat1.png
subject-10,1,591,1.07018709182739,knife,knife,0,0591_s5n_s10_0_knife_00_knife1-car3.png
subject-10,1,592,0.958432912826538,elephant,elephant,0,0592_s5n_s10_0_elephant_00_elephant1-boat2.png
subject-10,1,593,1.50011301040649,knife,boat,0,0593_s5n_s10_0_boat_00_boat8-dog3.png
subject-10,1,594,0.931764125823975,bottle,bottle,0,0594_s5n_s10_0_bottle_00_bottle1-car1.png
subject-10,1,595,0.769248962402344,keyboard,keyboard,0,0595_s5n_s10_0_keyboard_00_keyboard4-cat2.png
subject-10,1,596,0.798710823059082,clock,clock,0,0596_s5n_s10_0_clock_00_clock9-chair3.png
subject-10,1,597,0.682200908660889,keyboard,keyboard,0,0597_s5n_s10_0_keyboard_00_keyboard9-cat1.png
subject-10,1,598,0.681053876876831,keyboard,keyboard,0,0598_s5n_s10_0_keyboard_00_keyboard9-airplane3.png
subject-10,1,599,0.67248010635376,bear,bear,0,0599_s5n_s10_0_bear_00_bear7-dog3.png
subject-10,1,600,0.739761114120483,chair,chair,0,0600_s5n_s10_0_chair_00_chair10-airplane2.png
subject-10,1,601,1.37983798980713,elephant,elephant,0,0601_s5n_s10_0_elephant_00_elephant5-bottle2.png
subject-10,1,602,1.28607702255249,dog,dog,0,0602_s5n_s10_0_dog_00_dog3-elephant2.png
subject-10,1,603,1.39150595664978,bicycle,bicycle,0,0603_s5n_s10_0_bicycle_00_bicycle5-elephant1.png
subject-10,1,604,1.06104111671448,airplane,airplane,0,0604_s5n_s10_0_airplane_00_airplane10-oven2.png
subject-10,1,605,0.73733115196228,boat,boat,0,0605_s5n_s10_0_boat_00_boat3-keyboard2.png
subject-10,1,606,0.680379867553711,chair,chair,0,0606_s5n_s10_0_chair_00_chair1-elephant1.png
subject-10,1,607,0.693574190139771,bottle,bottle,0,0607_s5n_s10_0_bottle_00_bottle6-oven3.png
subject-10,1,608,0.886138916015625,cat,elephant,0,0608_s5n_s10_0_elephant_00_elephant7-bird1.png
subject-10,1,609,0.791334867477417,boat,boat,0,0609_s5n_s10_0_boat_00_boat8-knife1.png
subject-10,1,610,0.8747718334198,chair,chair,0,0610_s5n_s10_0_chair_00_chair10-bird3.png
subject-10,1,611,0.910226106643677,car,car,0,0611_s5n_s10_0_car_00_car2-knife3.png
subject-10,1,612,0.777923107147217,clock,clock,0,0612_s5n_s10_0_clock_00_clock6-bottle1.png
subject-10,1,613,0.955867052078247,truck,oven,0,0613_s5n_s10_0_oven_00_oven7-clock2.png
subject-10,1,614,1.50028896331787,truck,truck,0,0614_s5n_s10_0_truck_00_truck1-bear1.png
subject-10,1,615,1.20931506156921,truck,truck,0,0615_s5n_s10_0_truck_00_truck1-cat1.png
subject-10,1,616,1.0229549407959,truck,cat,0,0616_s5n_s10_0_cat_00_cat5-knife2.png
subject-10,1,617,0.906141042709351,car,car,0,0617_s5n_s10_0_car_00_car3-elephant3.png
subject-10,1,618,0.927586078643799,clock,clock,0,0618_s5n_s10_0_clock_00_clock7-bottle2.png
subject-10,1,619,1.1572380065918,airplane,airplane,0,0619_s5n_s10_0_airplane_00_airplane1-bicycle2.png
subject-10,1,620,1.33760595321655,bicycle,bicycle,0,0620_s5n_s10_0_bicycle_00_bicycle9-car1.png
subject-10,1,621,0.956333875656128,clock,clock,0,0621_s5n_s10_0_clock_00_clock5-bicycle1.png
subject-10,1,622,0.918914794921875,cat,boat,0,0622_s5n_s10_0_boat_00_boat7-cat3.png
subject-10,1,623,0.654067993164062,bear,bear,0,0623_s5n_s10_0_bear_00_bear2-airplane1.png
subject-10,1,624,0.837731838226318,oven,oven,0,0624_s5n_s10_0_oven_00_oven10-bear1.png
subject-10,1,625,1.14354395866394,chair,chair,0,0625_s5n_s10_0_chair_00_chair7-clock3.png
subject-10,1,626,0.89711594581604,cat,dog,0,0626_s5n_s10_0_dog_00_dog1-chair1.png
subject-10,1,627,0.894252061843872,car,car,0,0627_s5n_s10_0_car_00_car5-bottle1.png
subject-10,1,628,0.808197021484375,keyboard,oven,0,0628_s5n_s10_0_oven_00_oven8-chair1.png
subject-10,1,629,0.767575979232788,keyboard,keyboard,0,0629_s5n_s10_0_keyboard_00_keyboard7-clock3.png
subject-10,1,630,1.06724715232849,cat,cat,0,0630_s5n_s10_0_cat_00_cat7-knife2.png
subject-10,1,631,1.11849284172058,elephant,elephant,0,0631_s5n_s10_0_elephant_00_elephant8-cat1.png
subject-10,1,632,0.61570405960083,oven,oven,0,0632_s5n_s10_0_oven_00_oven2-chair1.png
subject-10,1,633,0.683573961257935,oven,oven,0,0633_s5n_s10_0_oven_00_oven2-bicycle1.png
subject-10,1,634,0.805635929107666,car,cat,0,0634_s5n_s10_0_cat_00_cat5-chair3.png
subject-10,1,635,0.759024858474731,keyboard,keyboard,0,0635_s5n_s10_0_keyboard_00_keyboard4-bird1.png
subject-10,1,636,0.964916944503784,bear,elephant,0,0636_s5n_s10_0_elephant_00_elephant7-bottle3.png
subject-10,1,637,0.778314113616943,bottle,bottle,0,0637_s5n_s10_0_bottle_00_bottle3-airplane2.png
subject-10,1,638,1.19263696670532,truck,truck,0,0638_s5n_s10_0_truck_00_truck5-airplane2.png
subject-10,1,639,0.951875925064087,bicycle,bicycle,0,0639_s5n_s10_0_bicycle_00_bicycle5-car3.png
subject-10,1,640,0.859425067901611,bicycle,bicycle,0,0640_s5n_s10_0_bicycle_00_bicycle9-knife3.png
subject-10,1,641,1.30885100364685,cat,dog,0,0641_s5n_s10_0_dog_00_dog7-bird3.png
subject-10,1,642,0.900115013122559,knife,keyboard,0,0642_s5n_s10_0_keyboard_00_keyboard3-elephant2.png
subject-10,1,643,0.65991997718811,bottle,bottle,0,0643_s5n_s10_0_bottle_00_bottle1-cat3.png
subject-10,1,644,0.77581000328064,oven,oven,0,0644_s5n_s10_0_oven_00_oven10-cat2.png
subject-10,1,645,0.819356918334961,boat,boat,0,0645_s5n_s10_0_boat_00_boat1-bicycle2.png
subject-10,1,646,0.819737911224365,bird,airplane,0,0646_s5n_s10_0_airplane_00_airplane7-cat3.png
subject-10,1,647,0.979249000549316,knife,knife,0,0647_s5n_s10_0_knife_00_knife8-car2.png
subject-10,1,648,0.779197931289673,oven,oven,0,0648_s5n_s10_0_oven_00_oven4-car1.png
subject-10,1,649,0.738682985305786,bear,bear,0,0649_s5n_s10_0_bear_00_bear2-bird3.png
subject-10,1,650,1.36738276481628,bear,elephant,0,0650_s5n_s10_0_elephant_00_elephant6-bottle2.png
subject-10,1,651,0.753134965896606,bear,bear,0,0651_s5n_s10_0_bear_00_bear2-car2.png
subject-10,1,652,1.04253005981445,bird,bird,0,0652_s5n_s10_0_bird_00_bird10-cat1.png
subject-10,1,653,0.710216045379639,clock,clock,0,0653_s5n_s10_0_clock_00_clock6-knife2.png
subject-10,1,654,1.02357602119446,bird,bird,0,0654_s5n_s10_0_bird_00_bird3-oven1.png
subject-10,1,655,1.42934799194336,elephant,elephant,0,0655_s5n_s10_0_elephant_00_elephant8-oven3.png
subject-10,1,656,1.49706983566284,airplane,airplane,0,0656_s5n_s10_0_airplane_00_airplane7-bottle3.png
subject-10,1,657,0.884469032287598,cat,cat,0,0657_s5n_s10_0_cat_00_cat3-bicycle1.png
subject-10,1,658,0.905759811401367,airplane,airplane,0,0658_s5n_s10_0_airplane_00_airplane7-bird3.png
subject-10,1,659,0.925478935241699,truck,truck,0,0659_s5n_s10_0_truck_00_truck1-bicycle3.png
subject-10,1,660,0.970659017562866,chair,chair,0,0660_s5n_s10_0_chair_00_chair1-dog1.png
subject-10,1,661,0.975845098495483,oven,boat,0,0661_s5n_s10_0_boat_00_boat4-bird1.png
subject-10,1,662,0.883881807327271,cat,elephant,0,0662_s5n_s10_0_elephant_00_elephant6-bird1.png
subject-10,1,663,1.00671792030334,car,car,0,0663_s5n_s10_0_car_00_car1-oven3.png
subject-10,1,664,1.24405884742737,truck,oven,0,0664_s5n_s10_0_oven_00_oven6-bicycle1.png
subject-10,1,665,1.01139903068542,bird,bird,0,0665_s5n_s10_0_bird_00_bird1-oven1.png
subject-10,1,666,1.0634331703186,elephant,elephant,0,0666_s5n_s10_0_elephant_00_elephant5-bear2.png
subject-10,1,667,1.09289312362671,knife,airplane,0,0667_s5n_s10_0_airplane_00_airplane4-bicycle2.png
subject-10,1,668,1.39798903465271,knife,bottle,0,0668_s5n_s10_0_bottle_00_bottle9-elephant2.png
subject-10,1,669,0.869172096252441,boat,boat,0,0669_s5n_s10_0_boat_00_boat2-oven3.png
subject-10,1,670,0.766864061355591,bicycle,bicycle,0,0670_s5n_s10_0_bicycle_00_bicycle5-bear1.png
subject-10,1,671,1.30464506149292,bear,bear,0,0671_s5n_s10_0_bear_00_bear1-bird2.png
subject-10,1,672,0.926316022872925,chair,keyboard,0,0672_s5n_s10_0_keyboard_00_keyboard7-chair3.png
subject-10,1,673,1.05554699897766,bicycle,bicycle,0,0673_s5n_s10_0_bicycle_00_bicycle3-truck3.png
subject-10,1,674,1.32292008399963,truck,truck,0,0674_s5n_s10_0_truck_00_truck3-bear3.png
subject-10,1,675,0.698498010635376,oven,oven,0,0675_s5n_s10_0_oven_00_oven9-chair1.png
subject-10,1,676,1.0336811542511,bear,bear,0,0676_s5n_s10_0_bear_00_bear8-knife3.png
subject-10,1,677,1.14763402938843,keyboard,clock,0,0677_s5n_s10_0_clock_00_clock5-keyboard1.png
subject-10,1,678,NaN,na,airplane,0,0678_s5n_s10_0_airplane_00_airplane10-knife3.png
subject-10,1,679,1.50021505355835,cat,boat,0,0679_s5n_s10_0_boat_00_boat2-keyboard1.png
subject-10,1,680,0.641809940338135,clock,clock,0,0680_s5n_s10_0_clock_00_clock4-airplane1.png
subject-10,1,681,0.774857044219971,oven,bear,0,0681_s5n_s10_0_bear_00_bear10-oven1.png
subject-10,1,682,0.881870985031128,knife,knife,0,0682_s5n_s10_0_knife_00_knife3-clock2.png
subject-10,1,683,0.658236026763916,boat,boat,0,0683_s5n_s10_0_boat_00_boat9-dog2.png
subject-10,1,684,0.749839067459106,keyboard,keyboard,0,0684_s5n_s10_0_keyboard_00_keyboard1-clock1.png
subject-10,1,685,1.33568000793457,chair,chair,0,0685_s5n_s10_0_chair_00_chair7-boat3.png
subject-10,1,686,1.15399289131165,chair,chair,0,0686_s5n_s10_0_chair_00_chair7-cat1.png
subject-10,1,687,0.760550022125244,oven,oven,0,0687_s5n_s10_0_oven_00_oven7-cat1.png
subject-10,1,688,0.612017869949341,boat,bird,0,0688_s5n_s10_0_bird_00_bird7-boat1.png
subject-10,1,689,0.780549049377441,truck,truck,0,0689_s5n_s10_0_truck_00_truck6-oven3.png
subject-10,1,690,0.755677938461304,clock,clock,0,0690_s5n_s10_0_clock_00_clock4-bird3.png
subject-10,1,691,0.807088851928711,bottle,bottle,0,0691_s5n_s10_0_bottle_00_bottle10-car1.png
subject-10,1,692,1.10519909858704,bear,bear,0,0692_s5n_s10_0_bear_00_bear8-dog1.png
subject-10,1,693,0.620742797851562,cat,cat,0,0693_s5n_s10_0_cat_00_cat2-bottle3.png
subject-10,1,694,1.26986408233643,keyboard,keyboard,0,0694_s5n_s10_0_keyboard_00_keyboard1-chair2.png
subject-10,1,695,1.37772297859192,chair,chair,0,0695_s5n_s10_0_chair_00_chair8-bicycle3.png
subject-10,1,696,1.02124691009521,knife,bear,0,0696_s5n_s10_0_bear_00_bear6-chair1.png
subject-10,1,697,0.851177930831909,chair,chair,0,0697_s5n_s10_0_chair_00_chair2-keyboard2.png
subject-10,1,698,0.811279058456421,bear,bear,0,0698_s5n_s10_0_bear_00_bear7-bear2.png
subject-10,1,699,1.41145992279053,bicycle,bicycle,0,0699_s5n_s10_0_bicycle_00_bicycle9-airplane2.png
subject-10,1,700,0.724570035934448,clock,clock,0,0700_s5n_s10_0_clock_00_clock5-clock2.png
subject-10,1,701,0.846214056015015,keyboard,keyboard,0,0701_s5n_s10_0_keyboard_00_keyboard2-bottle1.png
subject-10,1,702,0.764760971069336,bottle,bottle,0,0702_s5n_s10_0_bottle_00_bottle7-bear1.png
subject-10,1,703,1.01634001731873,car,car,0,0703_s5n_s10_0_car_00_car6-elephant3.png
subject-10,1,704,0.949805974960327,knife,clock,0,0704_s5n_s10_0_clock_00_clock1-elephant2.png
subject-10,1,705,0.679268836975098,bottle,bottle,0,0705_s5n_s10_0_bottle_00_bottle7-elephant2.png
subject-10,1,706,0.716939926147461,chair,chair,0,0706_s5n_s10_0_chair_00_chair1-bear1.png
subject-10,1,707,0.947054147720337,airplane,airplane,0,0707_s5n_s10_0_airplane_00_airplane4-bird3.png
subject-10,1,708,0.898429870605469,keyboard,keyboard,0,0708_s5n_s10_0_keyboard_00_keyboard6-knife2.png
subject-10,1,709,0.98219108581543,chair,chair,0,0709_s5n_s10_0_chair_00_chair9-bear1.png
subject-10,1,710,0.749878168106079,bear,bear,0,0710_s5n_s10_0_bear_00_bear7-clock1.png
subject-10,1,711,1.39328193664551,keyboard,keyboard,0,0711_s5n_s10_0_keyboard_00_keyboard6-bottle2.png
subject-10,1,712,0.907370805740356,keyboard,keyboard,0,0712_s5n_s10_0_keyboard_00_keyboard8-dog3.png
subject-10,1,713,0.649190902709961,oven,bear,0,0713_s5n_s10_0_bear_00_bear4-knife1.png
subject-10,1,714,0.968491077423096,keyboard,keyboard,0,0714_s5n_s10_0_keyboard_00_keyboard2-bicycle3.png
subject-10,1,715,0.938560009002686,car,car,0,0715_s5n_s10_0_car_00_car8-airplane3.png
subject-10,1,716,0.811572074890137,cat,bird,0,0716_s5n_s10_0_bird_00_bird1-elephant2.png
subject-10,1,717,0.841498851776123,cat,cat,0,0717_s5n_s10_0_cat_00_cat4-chair2.png
subject-10,1,718,0.825441122055054,keyboard,keyboard,0,0718_s5n_s10_0_keyboard_00_keyboard5-keyboard1.png
subject-10,1,719,0.717906951904297,clock,clock,0,0719_s5n_s10_0_clock_00_clock4-bottle3.png
subject-10,1,720,1.16178393363953,chair,chair,0,0720_s5n_s10_0_chair_00_chair5-truck3.png
subject-10,1,721,0.854001998901367,car,car,0,0721_s5n_s10_0_car_00_car3-truck1.png
subject-10,1,722,1.49016308784485,chair,chair,0,0722_s5n_s10_0_chair_00_chair3-dog2.png
subject-10,1,723,NaN,na,truck,0,0723_s5n_s10_0_truck_00_truck10-airplane1.png
subject-10,1,724,0.844456911087036,knife,knife,0,0724_s5n_s10_0_knife_00_knife4-knife2.png
subject-10,1,725,0.910222053527832,truck,truck,0,0725_s5n_s10_0_truck_00_truck9-boat3.png
subject-10,1,726,1.05565690994263,truck,truck,0,0726_s5n_s10_0_truck_00_truck2-oven3.png
subject-10,1,727,1.01521277427673,cat,cat,0,0727_s5n_s10_0_cat_00_cat4-clock2.png
subject-10,1,728,0.75082802772522,knife,knife,0,0728_s5n_s10_0_knife_00_knife6-knife1.png
subject-10,1,729,0.880779027938843,knife,airplane,0,0729_s5n_s10_0_airplane_00_airplane9-knife3.png
subject-10,1,730,0.731299161911011,bicycle,bicycle,0,0730_s5n_s10_0_bicycle_00_bicycle8-clock3.png
subject-10,1,731,1.12896013259888,bird,bird,0,0731_s5n_s10_0_bird_00_bird6-airplane2.png
subject-10,1,732,0.796468019485474,oven,bear,0,0732_s5n_s10_0_bear_00_bear10-truck1.png
subject-10,1,733,0.726524114608765,chair,chair,0,0733_s5n_s10_0_chair_00_chair7-elephant1.png
subject-10,1,734,0.948515892028809,chair,chair,0,0734_s5n_s10_0_chair_00_chair9-chair3.png
subject-10,1,735,0.913490056991577,clock,truck,0,0735_s5n_s10_0_truck_00_truck1-chair2.png
subject-10,1,736,1.20477509498596,airplane,airplane,0,0736_s5n_s10_0_airplane_00_airplane5-bicycle1.png
subject-10,1,737,0.894774198532104,chair,chair,0,0737_s5n_s10_0_chair_00_chair5-clock2.png
subject-10,1,738,0.670129060745239,bottle,bottle,0,0738_s5n_s10_0_bottle_00_bottle7-boat3.png
subject-10,1,739,0.853410959243774,bird,bird,0,0739_s5n_s10_0_bird_00_bird8-boat3.png
subject-10,1,740,0.751065015792847,bird,bird,0,0740_s5n_s10_0_bird_00_bird10-clock1.png
subject-10,1,741,1.09566593170166,knife,oven,0,0741_s5n_s10_0_oven_00_oven6-knife3.png
subject-10,1,742,0.703644037246704,cat,bird,0,0742_s5n_s10_0_bird_00_bird1-truck1.png
subject-10,1,743,0.925153970718384,bear,elephant,0,0743_s5n_s10_0_elephant_00_elephant4-bird1.png
subject-10,1,744,0.91464900970459,car,car,0,0744_s5n_s10_0_car_00_car2-car3.png
subject-10,1,745,0.760483026504517,car,car,0,0745_s5n_s10_0_car_00_car6-bicycle3.png
subject-10,1,746,1.20393800735474,elephant,elephant,0,0746_s5n_s10_0_elephant_00_elephant6-bicycle1.png
subject-10,1,747,0.996051073074341,bottle,bottle,0,0747_s5n_s10_0_bottle_00_bottle4-truck1.png
subject-10,1,748,1.01719307899475,bear,dog,0,0748_s5n_s10_0_dog_00_dog10-keyboard2.png
subject-10,1,749,0.823355913162231,cat,boat,0,0749_s5n_s10_0_boat_00_boat7-keyboard3.png
subject-10,1,750,0.928753137588501,knife,knife,0,0750_s5n_s10_0_knife_00_knife7-chair2.png
subject-10,1,751,0.882604122161865,bird,boat,0,0751_s5n_s10_0_boat_00_boat6-bottle2.png
subject-10,1,752,0.97987699508667,keyboard,keyboard,0,0752_s5n_s10_0_keyboard_00_keyboard7-boat2.png
subject-10,1,753,1.03901505470276,airplane,airplane,0,0753_s5n_s10_0_airplane_00_airplane10-boat3.png
subject-10,1,754,0.692600965499878,bottle,bottle,0,0754_s5n_s10_0_bottle_00_bottle5-elephant1.png
subject-10,1,755,0.60651707649231,clock,clock,0,0755_s5n_s10_0_clock_00_clock6-bicycle1.png
subject-10,1,756,1.25760197639465,dog,dog,0,0756_s5n_s10_0_dog_00_dog4-keyboard2.png
subject-10,1,757,0.922558069229126,knife,oven,0,0757_s5n_s10_0_oven_00_oven6-elephant2.png
subject-10,1,758,1.07679891586304,bear,bear,0,0758_s5n_s10_0_bear_00_bear8-boat2.png
subject-10,1,759,1.21984004974365,oven,airplane,0,0759_s5n_s10_0_airplane_00_airplane4-boat3.png
subject-10,1,760,1.35523509979248,keyboard,knife,0,0760_s5n_s10_0_knife_00_knife8-bicycle1.png
subject-10,1,761,1.27930879592896,dog,dog,0,0761_s5n_s10_0_dog_00_dog10-elephant1.png
subject-10,1,762,1.07669305801392,chair,chair,0,0762_s5n_s10_0_chair_00_chair5-knife3.png
subject-10,1,763,0.982688903808594,bicycle,bicycle,0,0763_s5n_s10_0_bicycle_00_bicycle8-truck1.png
subject-10,1,764,0.944589138031006,cat,car,0,0764_s5n_s10_0_car_00_car1-dog2.png
subject-10,1,765,1.3424289226532,cat,boat,0,0765_s5n_s10_0_boat_00_boat4-bicycle3.png
subject-10,1,766,0.888106822967529,bicycle,bicycle,0,0766_s5n_s10_0_bicycle_00_bicycle3-elephant2.png
subject-10,1,767,1.00178289413452,keyboard,keyboard,0,0767_s5n_s10_0_keyboard_00_keyboard9-truck3.png
subject-10,1,768,1.05281090736389,bird,bird,0,0768_s5n_s10_0_bird_00_bird8-knife2.png
subject-10,1,769,NaN,na,chair,0,0769_s5n_s10_0_chair_00_chair10-car2.png
subject-10,1,770,NaN,na,bicycle,0,0770_s5n_s10_0_bicycle_00_bicycle7-elephant2.png
subject-10,1,771,1.19953393936157,cat,cat,0,0771_s5n_s10_0_cat_00_cat9-bicycle1.png
subject-10,1,772,0.769757986068726,truck,truck,0,0772_s5n_s10_0_truck_00_truck1-knife1.png
subject-10,1,773,1.00500202178955,airplane,airplane,0,0773_s5n_s10_0_airplane_00_airplane10-truck1.png
subject-10,1,774,0.672770023345947,truck,truck,0,0774_s5n_s10_0_truck_00_truck6-cat2.png
subject-10,1,775,0.802906036376953,bicycle,bicycle,0,0775_s5n_s10_0_bicycle_00_bicycle2-keyboard2.png
subject-10,1,776,0.808550834655762,clock,clock,0,0776_s5n_s10_0_clock_00_clock8-boat1.png
subject-10,1,777,0.970174074172974,keyboard,keyboard,0,0777_s5n_s10_0_keyboard_00_keyboard1-dog3.png
subject-10,1,778,0.92966890335083,clock,clock,0,0778_s5n_s10_0_clock_00_clock5-elephant2.png
subject-10,1,779,0.759283065795898,truck,bird,0,0779_s5n_s10_0_bird_00_bird3-bottle2.png
subject-10,1,780,0.741072177886963,airplane,bird,0,0780_s5n_s10_0_bird_00_bird1-clock3.png
subject-10,1,781,0.608849048614502,car,car,0,0781_s5n_s10_0_car_00_car8-chair1.png
subject-10,1,782,0.738471984863281,cat,cat,0,0782_s5n_s10_0_cat_00_cat5-dog3.png
subject-10,1,783,0.998028993606567,dog,dog,0,0783_s5n_s10_0_dog_00_dog10-truck2.png
subject-10,1,784,0.914175987243652,truck,truck,0,0784_s5n_s10_0_truck_00_truck3-chair2.png
subject-10,1,785,0.911328077316284,keyboard,keyboard,0,0785_s5n_s10_0_keyboard_00_keyboard8-keyboard2.png
subject-10,1,786,0.78004002571106,bird,bird,0,0786_s5n_s10_0_bird_00_bird6-bottle3.png
subject-10,1,787,0.739409923553467,bottle,bottle,0,0787_s5n_s10_0_bottle_00_bottle6-dog3.png
subject-10,1,788,0.693128108978271,bottle,bottle,0,0788_s5n_s10_0_bottle_00_bottle6-knife3.png
subject-10,1,789,0.728632926940918,clock,clock,0,0789_s5n_s10_0_clock_00_clock3-keyboard3.png
subject-10,1,790,0.744635105133057,airplane,bear,0,0790_s5n_s10_0_bear_00_bear10-keyboard3.png
subject-10,1,791,0.780930042266846,car,car,0,0791_s5n_s10_0_car_00_car10-dog1.png
subject-10,1,792,0.542151927947998,boat,boat,0,0792_s5n_s10_0_boat_00_boat9-chair2.png
subject-10,1,793,1.0023238658905,dog,dog,0,0793_s5n_s10_0_dog_00_dog4-bottle2.png
subject-10,1,794,0.700376987457275,bear,bear,0,0794_s5n_s10_0_bear_00_bear3-bird3.png
subject-10,1,795,0.805942058563232,bear,bear,0,0795_s5n_s10_0_bear_00_bear3-cat1.png
subject-10,1,796,0.982139110565186,dog,dog,0,0796_s5n_s10_0_dog_00_dog4-elephant2.png
subject-10,1,797,0.711687088012695,knife,knife,0,0797_s5n_s10_0_knife_00_knife2-cat3.png
subject-10,1,798,0.703309059143066,clock,clock,0,0798_s5n_s10_0_clock_00_clock8-airplane2.png
subject-10,1,799,0.755188941955566,bear,bear,0,0799_s5n_s10_0_bear_00_bear5-chair1.png
subject-10,1,800,0.785754203796387,bear,bear,0,0800_s5n_s10_0_bear_00_bear4-oven2.png
subject-10,1,801,1.12943816184998,keyboard,keyboard,0,0801_s5n_s10_0_keyboard_00_keyboard3-bicycle2.png
subject-10,1,802,0.891296863555908,boat,knife,0,0802_s5n_s10_0_knife_00_knife6-chair3.png
subject-10,1,803,0.913648843765259,bear,bear,0,0803_s5n_s10_0_bear_00_bear5-bottle1.png
subject-10,1,804,0.819628953933716,car,car,0,0804_s5n_s10_0_car_00_car2-chair1.png
subject-10,1,805,0.886811971664429,cat,cat,0,0805_s5n_s10_0_cat_00_cat6-chair3.png
subject-10,1,806,0.816740989685059,bottle,bottle,0,0806_s5n_s10_0_bottle_00_bottle7-cat2.png
subject-10,1,807,0.731058120727539,clock,clock,0,0807_s5n_s10_0_clock_00_clock4-chair1.png
subject-10,1,808,1.01488780975342,bear,bear,0,0808_s5n_s10_0_bear_00_bear10-bear2.png
subject-10,1,809,0.874411106109619,bear,bear,0,0809_s5n_s10_0_bear_00_bear8-bottle1.png
subject-10,1,810,1.01214098930359,truck,truck,0,0810_s5n_s10_0_truck_00_truck10-bicycle1.png
subject-10,1,811,1.15453386306763,bear,bear,0,0811_s5n_s10_0_bear_00_bear10-knife2.png
subject-10,1,812,1.27651596069336,truck,truck,0,0812_s5n_s10_0_truck_00_truck5-cat3.png
subject-10,1,813,0.88680100440979,knife,keyboard,0,0813_s5n_s10_0_keyboard_00_keyboard7-bear2.png
subject-10,1,814,0.870702981948853,car,car,0,0814_s5n_s10_0_car_00_car4-bicycle3.png
subject-10,1,815,0.69192099571228,boat,boat,0,0815_s5n_s10_0_boat_00_boat4-chair2.png
subject-10,1,816,0.575866937637329,cat,cat,0,0816_s5n_s10_0_cat_00_cat1-airplane1.png
subject-10,1,817,0.973474979400635,bear,bird,0,0817_s5n_s10_0_bird_00_bird6-boat2.png
subject-10,1,818,0.87398099899292,bottle,bottle,0,0818_s5n_s10_0_bottle_00_bottle7-clock1.png
subject-10,1,819,0.941571950912476,bear,elephant,0,0819_s5n_s10_0_elephant_00_elephant7-cat1.png
subject-10,1,820,0.586877822875977,cat,cat,0,0820_s5n_s10_0_cat_00_cat7-truck2.png
subject-10,1,821,0.88465690612793,car,car,0,0821_s5n_s10_0_car_00_car6-chair3.png
subject-10,1,822,0.852781057357788,knife,knife,0,0822_s5n_s10_0_knife_00_knife7-bird3.png
subject-10,1,823,0.7535400390625,bear,bird,0,0823_s5n_s10_0_bird_00_bird3-bear3.png
subject-10,1,824,0.997083902359009,bicycle,bicycle,0,0824_s5n_s10_0_bicycle_00_bicycle1-truck1.png
subject-10,1,825,1.06550192832947,knife,knife,0,0825_s5n_s10_0_knife_00_knife5-dog1.png
subject-10,1,826,1.35692501068115,elephant,elephant,0,0826_s5n_s10_0_elephant_00_elephant5-truck1.png
subject-10,1,827,0.770242929458618,elephant,elephant,0,0827_s5n_s10_0_elephant_00_elephant9-bicycle2.png
subject-10,1,828,1.05974793434143,boat,boat,0,0828_s5n_s10_0_boat_00_boat7-boat2.png
subject-10,1,829,0.735105991363525,clock,airplane,0,0829_s5n_s10_0_airplane_00_airplane5-bear2.png
subject-10,1,830,0.91128396987915,truck,truck,0,0830_s5n_s10_0_truck_00_truck2-boat3.png
subject-10,1,831,0.67982292175293,airplane,airplane,0,0831_s5n_s10_0_airplane_00_airplane10-airplane1.png
subject-10,1,832,1.1803297996521,chair,chair,0,0832_s5n_s10_0_chair_00_chair8-oven1.png
subject-10,1,833,0.910043001174927,truck,truck,0,0833_s5n_s10_0_truck_00_truck9-chair3.png
subject-10,1,834,0.815509080886841,cat,bear,0,0834_s5n_s10_0_bear_00_bear5-bicycle3.png
subject-10,1,835,0.782866954803467,oven,oven,0,0835_s5n_s10_0_oven_00_oven1-cat1.png
subject-10,1,836,0.688867807388306,cat,cat,0,0836_s5n_s10_0_cat_00_cat7-bottle1.png
subject-10,1,837,1.05664205551147,chair,chair,0,0837_s5n_s10_0_chair_00_chair7-car2.png
subject-10,1,838,0.695317983627319,clock,clock,0,0838_s5n_s10_0_clock_00_clock7-dog2.png
subject-10,1,839,0.908514976501465,car,car,0,0839_s5n_s10_0_car_00_car1-keyboard2.png
subject-10,1,840,0.790071964263916,cat,bird,0,0840_s5n_s10_0_bird_00_bird8-keyboard2.png
subject-10,1,841,0.86565089225769,bicycle,bicycle,0,0841_s5n_s10_0_bicycle_00_bicycle6-bicycle3.png
subject-10,1,842,1.0007631778717,airplane,airplane,0,0842_s5n_s10_0_airplane_00_airplane1-clock1.png
subject-10,1,843,0.908763885498047,clock,clock,0,0843_s5n_s10_0_clock_00_clock4-car2.png
subject-10,1,844,0.927587985992432,keyboard,keyboard,0,0844_s5n_s10_0_keyboard_00_keyboard6-bear2.png
subject-10,1,845,0.97908091545105,bicycle,bicycle,0,0845_s5n_s10_0_bicycle_00_bicycle10-elephant2.png
subject-10,1,846,0.993283033370972,truck,truck,0,0846_s5n_s10_0_truck_00_truck9-bottle2.png
subject-10,1,847,1.07662296295166,car,cat,0,0847_s5n_s10_0_cat_00_cat10-keyboard1.png
subject-10,1,848,1.22828817367554,knife,knife,0,0848_s5n_s10_0_knife_00_knife6-clock2.png
subject-10,1,849,0.857668161392212,keyboard,airplane,0,0849_s5n_s10_0_airplane_00_airplane2-bottle1.png
subject-10,1,850,0.825575828552246,boat,airplane,0,0850_s5n_s10_0_airplane_00_airplane2-dog1.png
subject-10,1,851,1.24732494354248,cat,cat,0,0851_s5n_s10_0_cat_00_cat6-bear1.png
subject-10,1,852,0.809696197509766,bicycle,bicycle,0,0852_s5n_s10_0_bicycle_00_bicycle5-oven3.png
subject-10,1,853,0.639567136764526,bottle,bottle,0,0853_s5n_s10_0_bottle_00_bottle6-bird1.png
subject-10,1,854,0.920760869979858,truck,truck,0,0854_s5n_s10_0_truck_00_truck8-cat2.png
subject-10,1,855,0.704380035400391,cat,airplane,0,0855_s5n_s10_0_airplane_00_airplane3-chair3.png
subject-10,1,856,0.81105899810791,truck,truck,0,0856_s5n_s10_0_truck_00_truck4-knife1.png
subject-10,1,857,0.901959896087646,oven,oven,0,0857_s5n_s10_0_oven_00_oven8-cat3.png
subject-10,1,858,1.06772899627686,bottle,keyboard,0,0858_s5n_s10_0_keyboard_00_keyboard10-oven3.png
subject-10,1,859,0.699672937393188,clock,clock,0,0859_s5n_s10_0_clock_00_clock4-elephant2.png
subject-10,1,860,0.773324966430664,clock,clock,0,0860_s5n_s10_0_clock_00_clock10-clock3.png
subject-10,1,861,0.610454082489014,cat,cat,0,0861_s5n_s10_0_cat_00_cat1-oven1.png
subject-10,1,862,0.925534963607788,bird,bird,0,0862_s5n_s10_0_bird_00_bird4-cat3.png
subject-10,1,863,0.730780124664307,cat,cat,0,0863_s5n_s10_0_cat_00_cat2-knife3.png
subject-10,1,864,0.814531087875366,car,car,0,0864_s5n_s10_0_car_00_car10-bottle3.png
subject-10,1,865,0.765928030014038,boat,boat,0,0865_s5n_s10_0_boat_00_boat9-keyboard2.png
subject-10,1,866,0.795659065246582,chair,chair,0,0866_s5n_s10_0_chair_00_chair7-truck3.png
subject-10,1,867,0.733575105667114,bottle,bottle,0,0867_s5n_s10_0_bottle_00_bottle5-boat1.png
subject-10,1,868,0.85527491569519,bear,elephant,0,0868_s5n_s10_0_elephant_00_elephant9-dog3.png
subject-10,1,869,1.00762510299683,car,car,0,0869_s5n_s10_0_car_00_car7-car1.png
subject-10,1,870,1.16178107261658,bird,bird,0,0870_s5n_s10_0_bird_00_bird3-bird2.png
subject-10,1,871,1.11422801017761,bird,oven,0,0871_s5n_s10_0_oven_00_oven3-clock3.png
subject-10,1,872,0.851693868637085,dog,dog,0,0872_s5n_s10_0_dog_00_dog10-airplane1.png
subject-10,1,873,1.01882791519165,truck,truck,0,0873_s5n_s10_0_truck_00_truck10-car3.png
subject-10,1,874,1.01147794723511,keyboard,knife,0,0874_s5n_s10_0_knife_00_knife10-chair1.png
subject-10,1,875,0.809468030929565,dog,dog,0,0875_s5n_s10_0_dog_00_dog8-boat3.png
subject-10,1,876,0.847005128860474,truck,truck,0,0876_s5n_s10_0_truck_00_truck8-dog3.png
subject-10,1,877,0.746881008148193,bottle,bottle,0,0877_s5n_s10_0_bottle_00_bottle8-bicycle1.png
subject-10,1,878,1.00614213943481,cat,cat,0,0878_s5n_s10_0_cat_00_cat7-dog3.png
subject-10,1,879,0.758603096008301,oven,knife,0,0879_s5n_s10_0_knife_00_knife7-elephant2.png
subject-10,1,880,0.637588977813721,clock,clock,0,0880_s5n_s10_0_clock_00_clock2-dog1.png
subject-10,1,881,1.25107789039612,bottle,bottle,0,0881_s5n_s10_0_bottle_00_bottle4-dog2.png
subject-10,1,882,0.956499099731445,bear,truck,0,0882_s5n_s10_0_truck_00_truck4-boat3.png
subject-10,1,883,0.757595777511597,clock,clock,0,0883_s5n_s10_0_clock_00_clock1-dog2.png
subject-10,1,884,0.855358123779297,car,car,0,0884_s5n_s10_0_car_00_car9-bird1.png
subject-10,1,885,0.70107102394104,clock,clock,0,0885_s5n_s10_0_clock_00_clock4-oven1.png
subject-10,1,886,0.714657068252563,cat,boat,0,0886_s5n_s10_0_boat_00_boat7-clock3.png
subject-10,1,887,0.882576942443848,cat,bottle,0,0887_s5n_s10_0_bottle_00_bottle7-keyboard2.png
subject-10,1,888,0.996098041534424,boat,airplane,0,0888_s5n_s10_0_airplane_00_airplane6-chair3.png
subject-10,1,889,0.939205884933472,truck,truck,0,0889_s5n_s10_0_truck_00_truck8-elephant1.png
subject-10,1,890,0.931136131286621,keyboard,keyboard,0,0890_s5n_s10_0_keyboard_00_keyboard6-chair1.png
subject-10,1,891,1.24515700340271,oven,oven,0,0891_s5n_s10_0_oven_00_oven9-knife3.png
subject-10,1,892,0.967381000518799,bottle,bottle,0,0892_s5n_s10_0_bottle_00_bottle6-bear2.png
subject-10,1,893,0.797727108001709,cat,elephant,0,0893_s5n_s10_0_elephant_00_elephant5-elephant1.png
subject-10,1,894,0.873342990875244,car,car,0,0894_s5n_s10_0_car_00_car6-knife1.png
subject-10,1,895,0.707814931869507,cat,boat,0,0895_s5n_s10_0_boat_00_boat2-bear3.png
subject-10,1,896,0.875409126281738,bird,airplane,0,0896_s5n_s10_0_airplane_00_airplane3-oven1.png
subject-10,1,897,0.712741851806641,chair,chair,0,0897_s5n_s10_0_chair_00_chair8-airplane1.png
subject-10,1,898,0.881142139434814,knife,knife,0,0898_s5n_s10_0_knife_00_knife7-airplane3.png
subject-10,1,899,0.91878604888916,knife,knife,0,0899_s5n_s10_0_knife_00_knife6-oven3.png
subject-10,1,900,1.01656699180603,bird,bird,0,0900_s5n_s10_0_bird_00_bird2-car3.png
subject-10,1,901,0.884223937988281,bottle,bottle,0,0901_s5n_s10_0_bottle_00_bottle9-keyboard1.png
subject-10,1,902,1.28174304962158,bear,bear,0,0902_s5n_s10_0_bear_00_bear9-boat2.png
subject-10,1,903,0.911575078964233,cat,dog,0,0903_s5n_s10_0_dog_00_dog1-car2.png
subject-10,1,904,0.641642808914185,clock,clock,0,0904_s5n_s10_0_clock_00_clock3-bear3.png
subject-10,1,905,1.28727197647095,car,airplane,0,0905_s5n_s10_0_airplane_00_airplane3-car1.png
subject-10,1,906,0.846365928649902,keyboard,keyboard,0,0906_s5n_s10_0_keyboard_00_keyboard9-elephant2.png
subject-10,1,907,1.10596108436584,oven,oven,0,0907_s5n_s10_0_oven_00_oven5-dog3.png
subject-10,1,908,0.812221050262451,cat,boat,0,0908_s5n_s10_0_boat_00_boat1-truck3.png
subject-10,1,909,0.919896125793457,airplane,airplane,0,0909_s5n_s10_0_airplane_00_airplane6-bottle2.png
subject-10,1,910,0.634022951126099,cat,cat,0,0910_s5n_s10_0_cat_00_cat10-bird2.png
subject-10,1,911,0.585104942321777,cat,cat,0,0911_s5n_s10_0_cat_00_cat9-bird3.png
subject-10,1,912,0.752429962158203,bicycle,bicycle,0,0912_s5n_s10_0_bicycle_00_bicycle6-car2.png
subject-10,1,913,0.757714033126831,oven,oven,0,0913_s5n_s10_0_oven_00_oven3-knife1.png
subject-10,1,914,0.903668880462646,keyboard,knife,0,0914_s5n_s10_0_knife_00_knife7-bottle3.png
subject-10,1,915,0.763136148452759,bottle,bottle,0,0915_s5n_s10_0_bottle_00_bottle8-bird1.png
subject-10,1,916,0.714444875717163,cat,cat,0,0916_s5n_s10_0_cat_00_cat10-clock1.png
subject-10,1,917,0.87456202507019,bicycle,bottle,0,0917_s5n_s10_0_bottle_00_bottle5-cat1.png
subject-10,1,918,1.07182097434998,airplane,bear,0,0918_s5n_s10_0_bear_00_bear6-boat3.png
subject-10,1,919,0.709892988204956,cat,dog,0,0919_s5n_s10_0_dog_00_dog7-chair2.png
subject-10,1,920,0.814537048339844,car,car,0,0920_s5n_s10_0_car_00_car5-bear3.png
subject-10,1,921,0.936645030975342,truck,truck,0,0921_s5n_s10_0_truck_00_truck3-bicycle1.png
subject-10,1,922,0.727673053741455,boat,boat,0,0922_s5n_s10_0_boat_00_boat9-boat3.png
subject-10,1,923,0.641762018203735,bottle,bottle,0,0923_s5n_s10_0_bottle_00_bottle3-chair3.png
subject-10,1,924,0.839349031448364,bicycle,bicycle,0,0924_s5n_s10_0_bicycle_00_bicycle10-dog3.png
subject-10,1,925,1.03156113624573,bicycle,truck,0,0925_s5n_s10_0_truck_00_truck9-airplane2.png
subject-10,1,926,0.89070200920105,cat,cat,0,0926_s5n_s10_0_cat_00_cat2-elephant1.png
subject-10,1,927,1.31301403045654,dog,dog,0,0927_s5n_s10_0_dog_00_dog8-bear3.png
subject-10,1,928,0.756782054901123,cat,airplane,0,0928_s5n_s10_0_airplane_00_airplane8-chair1.png
subject-10,1,929,0.486291170120239,clock,clock,0,0929_s5n_s10_0_clock_00_clock3-dog2.png
subject-10,1,930,0.585695028305054,boat,boat,0,0930_s5n_s10_0_boat_00_boat5-car3.png
subject-10,1,931,0.799309968948364,bear,bear,0,0931_s5n_s10_0_bear_00_bear4-truck3.png
subject-10,1,932,0.637206077575684,cat,cat,0,0932_s5n_s10_0_cat_00_cat1-car2.png
subject-10,1,933,0.867608070373535,bird,bird,0,0933_s5n_s10_0_bird_00_bird6-truck2.png
subject-10,1,934,0.877306938171387,bicycle,bicycle,0,0934_s5n_s10_0_bicycle_00_bicycle1-bird1.png
subject-10,1,935,0.852751970291138,truck,truck,0,0935_s5n_s10_0_truck_00_truck8-keyboard2.png
subject-10,1,936,1.21800303459167,dog,dog,0,0936_s5n_s10_0_dog_00_dog9-bottle1.png
subject-10,1,937,0.925980091094971,bottle,bottle,0,0937_s5n_s10_0_bottle_00_bottle5-bird3.png
subject-10,1,938,0.993732213973999,truck,oven,0,0938_s5n_s10_0_oven_00_oven7-keyboard1.png
subject-10,1,939,1.50044298171997,truck,dog,0,0939_s5n_s10_0_dog_00_dog5-knife2.png
subject-10,1,940,1.08831286430359,dog,dog,0,0940_s5n_s10_0_dog_00_dog2-cat1.png
subject-10,1,941,0.901732921600342,car,car,0,0941_s5n_s10_0_car_00_car3-airplane3.png
subject-10,1,942,1.50031280517578,dog,dog,0,0942_s5n_s10_0_dog_00_dog4-chair1.png
subject-10,1,943,0.915208101272583,bear,bear,0,0943_s5n_s10_0_bear_00_bear3-dog3.png
subject-10,1,944,0.967386960983276,airplane,airplane,0,0944_s5n_s10_0_airplane_00_airplane7-keyboard1.png
subject-10,1,945,0.826399087905884,bicycle,bicycle,0,0945_s5n_s10_0_bicycle_00_bicycle4-clock3.png
subject-10,1,946,0.665002107620239,cat,boat,0,0946_s5n_s10_0_boat_00_boat10-bear3.png
subject-10,1,947,0.910586833953857,truck,truck,0,0947_s5n_s10_0_truck_00_truck9-elephant1.png
subject-10,1,948,0.707789897918701,bird,bird,0,0948_s5n_s10_0_bird_00_bird9-keyboard1.png
subject-10,1,949,0.845969915390015,bottle,bottle,0,0949_s5n_s10_0_bottle_00_bottle9-oven2.png
subject-10,1,950,1.34294295310974,truck,truck,0,0950_s5n_s10_0_truck_00_truck1-car3.png
subject-10,1,951,0.856139898300171,bottle,bottle,0,0951_s5n_s10_0_bottle_00_bottle2-clock1.png
subject-10,1,952,0.945423126220703,knife,knife,0,0952_s5n_s10_0_knife_00_knife1-chair1.png
subject-10,1,953,0.852813005447388,boat,boat,0,0953_s5n_s10_0_boat_00_boat9-knife2.png
subject-10,1,954,0.95891809463501,cat,bird,0,0954_s5n_s10_0_bird_00_bird7-keyboard3.png
subject-10,1,955,1.21050095558167,knife,knife,0,0955_s5n_s10_0_knife_00_knife1-airplane1.png
subject-10,1,956,1.16185212135315,bear,elephant,0,0956_s5n_s10_0_elephant_00_elephant2-elephant3.png
subject-10,1,957,1.09127402305603,bear,bear,0,0957_s5n_s10_0_bear_00_bear8-bicycle3.png
subject-10,1,958,0.989064931869507,bicycle,bicycle,0,0958_s5n_s10_0_bicycle_00_bicycle1-boat3.png
subject-10,1,959,1.17212104797363,truck,truck,0,0959_s5n_s10_0_truck_00_truck5-truck1.png
subject-10,1,960,0.953678131103516,car,car,0,0960_s5n_s10_0_car_00_car6-truck3.png
subject-10,1,961,0.775044918060303,cat,boat,0,0961_s5n_s10_0_boat_00_boat6-cat1.png
subject-10,1,962,1.20486903190613,car,car,0,0962_s5n_s10_0_car_00_car4-bottle1.png
subject-10,1,963,1.10244703292847,cat,dog,0,0963_s5n_s10_0_dog_00_dog3-boat1.png
subject-10,1,964,1.03249788284302,keyboard,knife,0,0964_s5n_s10_0_knife_00_knife6-bicycle1.png
subject-10,1,965,1.09939789772034,airplane,airplane,0,0965_s5n_s10_0_airplane_00_airplane7-truck1.png
subject-10,1,966,1.18927001953125,clock,clock,0,0966_s5n_s10_0_clock_00_clock2-clock3.png
subject-10,1,967,1.026771068573,car,airplane,0,0967_s5n_s10_0_airplane_00_airplane4-truck2.png
subject-10,1,968,1.49620699882507,chair,chair,0,0968_s5n_s10_0_chair_00_chair3-bottle3.png
subject-10,1,969,1.17150187492371,chair,chair,0,0969_s5n_s10_0_chair_00_chair7-knife2.png
subject-10,1,970,0.73923397064209,dog,cat,0,0970_s5n_s10_0_cat_00_cat4-dog3.png
subject-10,1,971,0.791590929031372,cat,bird,0,0971_s5n_s10_0_bird_00_bird3-cat1.png
subject-10,1,972,0.697130918502808,bottle,bottle,0,0972_s5n_s10_0_bottle_00_bottle6-boat3.png
subject-10,1,973,1.45675992965698,car,car,0,0973_s5n_s10_0_car_00_car7-boat3.png
subject-10,1,974,1.04856300354004,car,knife,0,0974_s5n_s10_0_knife_00_knife1-truck2.png
subject-10,1,975,0.870262861251831,elephant,elephant,0,0975_s5n_s10_0_elephant_00_elephant5-bicycle3.png
subject-10,1,976,0.73241400718689,oven,chair,0,0976_s5n_s10_0_chair_00_chair6-truck2.png
subject-10,1,977,0.718435049057007,bottle,bottle,0,0977_s5n_s10_0_bottle_00_bottle5-knife1.png
subject-10,1,978,0.67787504196167,bicycle,bicycle,0,0978_s5n_s10_0_bicycle_00_bicycle7-clock3.png
subject-10,1,979,0.899677991867065,keyboard,keyboard,0,0979_s5n_s10_0_keyboard_00_keyboard7-knife1.png
subject-10,1,980,1.32091307640076,airplane,airplane,0,0980_s5n_s10_0_airplane_00_airplane7-clock3.png
subject-10,1,981,1.35661005973816,car,car,0,0981_s5n_s10_0_car_00_car7-airplane2.png
subject-10,1,982,0.771949052810669,bottle,bottle,0,0982_s5n_s10_0_bottle_00_bottle6-bottle3.png
subject-10,1,983,0.761799097061157,car,cat,0,0983_s5n_s10_0_cat_00_cat9-boat2.png
subject-10,1,984,0.761651992797852,bear,bear,0,0984_s5n_s10_0_bear_00_bear1-elephant1.png
subject-10,1,985,0.967022895812988,elephant,elephant,0,0985_s5n_s10_0_elephant_00_elephant5-car1.png
subject-10,1,986,0.9430091381073,bear,bear,0,0986_s5n_s10_0_bear_00_bear5-bird1.png
subject-10,1,987,0.924438953399658,elephant,elephant,0,0987_s5n_s10_0_elephant_00_elephant4-car3.png
subject-10,1,988,0.846237897872925,bird,bird,0,0988_s5n_s10_0_bird_00_bird2-clock3.png
subject-10,1,989,1.39228987693787,dog,dog,0,0989_s5n_s10_0_dog_00_dog5-bear3.png
subject-10,1,990,0.759700059890747,bicycle,bicycle,0,0990_s5n_s10_0_bicycle_00_bicycle8-bird2.png
subject-10,1,991,0.903413057327271,keyboard,knife,0,0991_s5n_s10_0_knife_00_knife7-boat3.png
subject-10,1,992,0.687523126602173,cat,truck,0,0992_s5n_s10_0_truck_00_truck7-keyboard3.png
subject-10,1,993,0.603454828262329,clock,clock,0,0993_s5n_s10_0_clock_00_clock5-oven1.png
subject-10,1,994,1.0472719669342,oven,knife,0,0994_s5n_s10_0_knife_00_knife10-oven3.png
subject-10,1,995,0.968323945999146,truck,truck,0,0995_s5n_s10_0_truck_00_truck7-bird2.png
subject-10,1,996,1.19530987739563,keyboard,boat,0,0996_s5n_s10_0_boat_00_boat4-elephant2.png
subject-10,1,997,0.974019050598145,keyboard,keyboard,0,0997_s5n_s10_0_keyboard_00_keyboard6-elephant1.png
subject-10,1,998,0.671252965927124,truck,dog,0,0998_s5n_s10_0_dog_00_dog3-truck2.png
subject-10,1,999,0.755681991577148,keyboard,keyboard,0,0999_s5n_s10_0_keyboard_00_keyboard3-boat1.png
subject-10,1,1000,0.623676061630249,car,car,0,1000_s5n_s10_0_car_00_car7-oven2.png
subject-10,1,1001,0.824229001998901,bear,bear,0,1001_s5n_s10_0_bear_00_bear1-chair2.png
subject-10,1,1002,0.767305135726929,bicycle,bicycle,0,1002_s5n_s10_0_bicycle_00_bicycle4-cat1.png
subject-10,1,1003,1.03497004508972,oven,truck,0,1003_s5n_s10_0_truck_00_truck2-clock1.png
subject-10,1,1004,1.4872100353241,knife,knife,0,1004_s5n_s10_0_knife_00_knife9-bird1.png
subject-10,1,1005,1.27078318595886,knife,knife,0,1005_s5n_s10_0_knife_00_knife8-boat1.png
subject-10,1,1006,1.40636110305786,elephant,elephant,0,1006_s5n_s10_0_elephant_00_elephant7-knife2.png
subject-10,1,1007,0.868400096893311,car,car,0,1007_s5n_s10_0_car_00_car4-clock1.png
subject-10,1,1008,0.703811168670654,chair,chair,0,1008_s5n_s10_0_chair_00_chair10-clock1.png
subject-10,1,1009,0.771876811981201,cat,dog,0,1009_s5n_s10_0_dog_00_dog2-bicycle2.png
subject-10,1,1010,0.771389007568359,bottle,bottle,0,1010_s5n_s10_0_bottle_00_bottle5-keyboard2.png
subject-10,1,1011,0.784779787063599,bottle,bottle,0,1011_s5n_s10_0_bottle_00_bottle2-bottle3.png
subject-10,1,1012,0.715072870254517,cat,cat,0,1012_s5n_s10_0_cat_00_cat5-bicycle3.png
subject-10,1,1013,0.696732997894287,chair,chair,0,1013_s5n_s10_0_chair_00_chair5-bottle3.png
subject-10,1,1014,0.717907905578613,bird,bird,0,1014_s5n_s10_0_bird_00_bird2-airplane3.png
subject-10,1,1015,1.25400996208191,chair,airplane,0,1015_s5n_s10_0_airplane_00_airplane8-truck3.png
subject-10,1,1016,0.721689939498901,oven,oven,0,1016_s5n_s10_0_oven_00_oven10-bicycle1.png
subject-10,1,1017,0.666762828826904,oven,oven,0,1017_s5n_s10_0_oven_00_oven6-truck1.png
subject-10,1,1018,0.68886399269104,car,car,0,1018_s5n_s10_0_car_00_car9-keyboard2.png
subject-10,1,1019,0.864599943161011,chair,chair,0,1019_s5n_s10_0_chair_00_chair8-bear1.png
subject-10,1,1020,0.869756937026978,dog,dog,0,1020_s5n_s10_0_dog_00_dog6-cat1.png
subject-10,1,1021,1.24396300315857,bird,airplane,0,1021_s5n_s10_0_airplane_00_airplane5-dog3.png
subject-10,1,1022,0.730105876922607,bicycle,bicycle,0,1022_s5n_s10_0_bicycle_00_bicycle7-truck3.png
subject-10,1,1023,0.766820192337036,bear,bear,0,1023_s5n_s10_0_bear_00_bear1-airplane3.png
subject-10,1,1024,0.896142959594727,bear,bear,0,1024_s5n_s10_0_bear_00_bear5-airplane3.png
subject-10,1,1025,1.07989001274109,clock,clock,0,1025_s5n_s10_0_clock_00_clock10-dog3.png
subject-10,1,1026,0.917680978775024,truck,truck,0,1026_s5n_s10_0_truck_00_truck7-bear2.png
subject-10,1,1027,0.810113906860352,bottle,bottle,0,1027_s5n_s10_0_bottle_00_bottle9-bottle1.png
subject-10,1,1028,0.863739013671875,car,car,0,1028_s5n_s10_0_car_00_car7-elephant3.png
subject-10,1,1029,0.929106950759888,bicycle,bicycle,0,1029_s5n_s10_0_bicycle_00_bicycle6-dog2.png
subject-10,1,1030,1.02141499519348,dog,dog,0,1030_s5n_s10_0_dog_00_dog5-car3.png
subject-10,1,1031,0.959492921829224,car,car,0,1031_s5n_s10_0_car_00_car6-bear1.png
subject-10,1,1032,1.03538799285889,elephant,elephant,0,1032_s5n_s10_0_elephant_00_elephant3-keyboard2.png
subject-10,1,1033,0.727311849594116,chair,chair,0,1033_s5n_s10_0_chair_00_chair5-car1.png
subject-10,1,1034,0.679409980773926,chair,chair,0,1034_s5n_s10_0_chair_00_chair5-boat3.png
subject-10,1,1035,0.86377215385437,keyboard,keyboard,0,1035_s5n_s10_0_keyboard_00_keyboard10-airplane3.png
subject-10,1,1036,0.785866975784302,dog,dog,0,1036_s5n_s10_0_dog_00_dog9-bicycle3.png
subject-10,1,1037,0.645601034164429,oven,oven,0,1037_s5n_s10_0_oven_00_oven4-bicycle2.png
subject-10,1,1038,0.691050052642822,oven,oven,0,1038_s5n_s10_0_oven_00_oven6-bear2.png
subject-10,1,1039,0.834436893463135,knife,knife,0,1039_s5n_s10_0_knife_00_knife10-dog1.png
subject-10,1,1040,0.848011016845703,bear,bear,0,1040_s5n_s10_0_bear_00_bear8-airplane1.png
subject-10,1,1041,0.911865949630737,dog,cat,0,1041_s5n_s10_0_cat_00_cat5-boat1.png
subject-10,1,1042,0.879601955413818,truck,truck,0,1042_s5n_s10_0_truck_00_truck2-bicycle2.png
subject-10,1,1043,0.763827085494995,bird,bird,0,1043_s5n_s10_0_bird_00_bird2-knife1.png
subject-10,1,1044,1.49999713897705,bottle,bottle,0,1044_s5n_s10_0_bottle_00_bottle8-dog2.png
subject-10,1,1045,0.829726934432983,bicycle,bicycle,0,1045_s5n_s10_0_bicycle_00_bicycle5-keyboard3.png
subject-10,1,1046,0.843413114547729,bear,elephant,0,1046_s5n_s10_0_elephant_00_elephant2-boat1.png
subject-10,1,1047,1.07349514961243,knife,knife,0,1047_s5n_s10_0_knife_00_knife9-chair1.png
subject-10,1,1048,0.924530982971191,bird,bird,0,1048_s5n_s10_0_bird_00_bird5-dog2.png
subject-10,1,1049,0.899940013885498,chair,chair,0,1049_s5n_s10_0_chair_00_chair2-bear2.png
subject-10,1,1050,0.708121061325073,bird,boat,0,1050_s5n_s10_0_boat_00_boat6-dog1.png
subject-10,1,1051,0.643631935119629,clock,clock,0,1051_s5n_s10_0_clock_00_clock3-bird1.png
subject-10,1,1052,0.581434011459351,clock,clock,0,1052_s5n_s10_0_clock_00_clock7-truck3.png
subject-10,1,1053,0.749091148376465,clock,clock,0,1053_s5n_s10_0_clock_00_clock1-car1.png
subject-10,1,1054,0.771384000778198,oven,oven,0,1054_s5n_s10_0_oven_00_oven2-bottle1.png
subject-10,1,1055,0.746648073196411,oven,oven,0,1055_s5n_s10_0_oven_00_oven5-bicycle1.png
subject-10,1,1056,0.97606086730957,bottle,bottle,0,1056_s5n_s10_0_bottle_00_bottle2-car2.png
subject-10,1,1057,0.759865045547485,bird,bird,0,1057_s5n_s10_0_bird_00_bird10-chair1.png
subject-10,1,1058,1.30878615379333,chair,car,0,1058_s5n_s10_0_car_00_car1-chair3.png
subject-10,1,1059,1.1066370010376,elephant,elephant,0,1059_s5n_s10_0_elephant_00_elephant1-chair1.png
subject-10,1,1060,0.736597061157227,bear,boat,0,1060_s5n_s10_0_boat_00_boat7-chair1.png
subject-10,1,1061,0.674538850784302,chair,chair,0,1061_s5n_s10_0_chair_00_chair1-cat3.png
subject-10,1,1062,0.812509059906006,boat,boat,0,1062_s5n_s10_0_boat_00_boat3-clock3.png
subject-10,1,1063,0.842746019363403,dog,dog,0,1063_s5n_s10_0_dog_00_dog1-bird1.png
subject-10,1,1064,0.794108867645264,truck,truck,0,1064_s5n_s10_0_truck_00_truck2-chair1.png
subject-10,1,1065,1.22960305213928,boat,boat,0,1065_s5n_s10_0_boat_00_boat3-car3.png
subject-10,1,1066,0.770053148269653,knife,knife,0,1066_s5n_s10_0_knife_00_knife9-boat1.png
subject-10,1,1067,0.721024990081787,dog,dog,0,1067_s5n_s10_0_dog_00_dog1-knife3.png
subject-10,1,1068,0.757146835327148,airplane,knife,0,1068_s5n_s10_0_knife_00_knife2-truck2.png
subject-10,1,1069,0.757328987121582,car,car,0,1069_s5n_s10_0_car_00_car9-clock2.png
subject-10,1,1070,1.00045990943909,knife,knife,0,1070_s5n_s10_0_knife_00_knife2-elephant2.png
subject-10,1,1071,0.984119892120361,dog,dog,0,1071_s5n_s10_0_dog_00_dog6-elephant2.png
subject-10,1,1072,0.873687028884888,bottle,bottle,0,1072_s5n_s10_0_bottle_00_bottle3-bird1.png
subject-10,1,1073,0.725008010864258,oven,oven,0,1073_s5n_s10_0_oven_00_oven9-clock2.png
subject-10,1,1074,0.992655992507935,oven,truck,0,1074_s5n_s10_0_truck_00_truck3-keyboard3.png
subject-10,1,1075,0.960197925567627,keyboard,keyboard,0,1075_s5n_s10_0_keyboard_00_keyboard5-bicycle1.png
subject-10,1,1076,0.990056991577148,bird,boat,0,1076_s5n_s10_0_boat_00_boat6-bear1.png
subject-10,1,1077,0.781494855880737,oven,oven,0,1077_s5n_s10_0_oven_00_oven9-bear2.png
subject-10,1,1078,0.757483005523682,truck,truck,0,1078_s5n_s10_0_truck_00_truck2-airplane3.png
subject-10,1,1079,1.47676801681519,boat,dog,0,1079_s5n_s10_0_dog_00_dog7-car2.png
subject-10,1,1080,0.860672950744629,clock,keyboard,0,1080_s5n_s10_0_keyboard_00_keyboard4-knife2.png
subject-10,1,1081,0.85821795463562,cat,cat,0,1081_s5n_s10_0_cat_00_cat3-truck3.png
subject-10,1,1082,0.804112911224365,truck,cat,0,1082_s5n_s10_0_cat_00_cat10-oven2.png
subject-10,1,1083,0.556782007217407,oven,oven,0,1083_s5n_s10_0_oven_00_oven5-bottle3.png
subject-10,1,1084,0.686383008956909,cat,cat,0,1084_s5n_s10_0_cat_00_cat7-airplane2.png
subject-10,1,1085,1.442134141922,car,car,0,1085_s5n_s10_0_car_00_car3-bird2.png
subject-10,1,1086,NaN,na,keyboard,0,1086_s5n_s10_0_keyboard_00_keyboard4-keyboard2.png
subject-10,1,1087,0.747537136077881,oven,oven,0,1087_s5n_s10_0_oven_00_oven9-bird3.png
subject-10,1,1088,0.761304140090942,clock,clock,0,1088_s5n_s10_0_clock_00_clock8-keyboard1.png
subject-10,1,1089,0.675595998764038,boat,airplane,0,1089_s5n_s10_0_airplane_00_airplane2-bear1.png
subject-10,1,1090,0.743459939956665,keyboard,keyboard,0,1090_s5n_s10_0_keyboard_00_keyboard5-bear3.png
subject-10,1,1091,0.77226185798645,clock,bear,0,1091_s5n_s10_0_bear_00_bear6-bottle3.png
subject-10,1,1092,0.755705833435059,bicycle,bicycle,0,1092_s5n_s10_0_bicycle_00_bicycle1-clock3.png
subject-10,1,1093,0.953566074371338,dog,dog,0,1093_s5n_s10_0_dog_00_dog6-bicycle1.png
subject-10,1,1094,0.891129016876221,keyboard,keyboard,0,1094_s5n_s10_0_keyboard_00_keyboard1-elephant3.png
subject-10,1,1095,0.635032176971436,cat,cat,0,1095_s5n_s10_0_cat_00_cat10-airplane3.png
subject-10,1,1096,1.5001540184021,dog,dog,0,1096_s5n_s10_0_dog_00_dog5-elephant1.png
subject-10,1,1097,0.891411066055298,cat,cat,0,1097_s5n_s10_0_cat_00_cat5-bottle1.png
subject-10,1,1098,0.780290842056274,bird,bird,0,1098_s5n_s10_0_bird_00_bird9-chair1.png
subject-10,1,1099,0.547751903533936,boat,boat,0,1099_s5n_s10_0_boat_00_boat9-airplane2.png
