subj,session,trial,rt,object_response,category,condition,imagename
subject-04,1,1,1.50007104873657,oven,bear,1.5,0001_hp_s04_1.5_bear_10_n02133161_1551.png
subject-04,1,2,0.989723920822144,boat,dog,0.55,0002_hp_s04_0.55_dog_10_n02099601_4798.png
subject-04,1,3,0.705967903137207,car,car,0.7,0003_hp_s04_0.7_car_10_n04285008_2382.png
subject-04,1,4,0.874265909194946,car,dog,0.4,0004_hp_s04_0.4_dog_10_n02094258_3668.png
subject-04,1,5,0.696363925933838,oven,cat,0.7,0005_hp_s04_0.7_cat_10_n02123159_5429.png
subject-04,1,6,0.742499113082886,keyboard,bicycle,0.4,0006_hp_s04_0.4_bicycle_10_n02835271_3342.png
subject-04,1,7,NaN,na,dog,1.5,0007_hp_s04_1.5_dog_10_n02088632_4092.png
subject-04,1,8,0.600892066955566,clock,clock,inf,0008_hp_s04_inf_clock_10_n04548280_6394.png
subject-04,1,9,0.814939975738525,bicycle,bicycle,3,0009_hp_s04_3_bicycle_10_n03792782_5416.png
subject-04,1,10,0.669650793075562,airplane,airplane,1,0010_hp_s04_1_airplane_10_n02690373_2217.png
subject-04,1,11,0.667620897293091,oven,bird,0.45,0011_hp_s04_0.45_bird_10_n01530575_1513.png
subject-04,1,12,0.581773996353149,oven,bird,0.45,0012_hp_s04_0.45_bird_10_n01829413_1415.png
subject-04,1,13,0.750231027603149,truck,truck,3,0013_hp_s04_3_truck_10_n04467665_68386.png
subject-04,1,14,0.596630096435547,oven,keyboard,0.4,0014_hp_s04_0.4_keyboard_10_n04505470_4202.png
subject-04,1,15,0.586862087249756,car,car,1,0015_hp_s04_1_car_10_n04285008_5528.png
subject-04,1,16,0.809070110321045,oven,bicycle,0.45,0016_hp_s04_0.45_bicycle_10_n03792782_4083.png
subject-04,1,17,1.24748396873474,chair,boat,1,0017_hp_s04_1_boat_10_n02951358_9292.png
subject-04,1,18,0.853044986724854,bicycle,bicycle,1,0018_hp_s04_1_bicycle_10_n03792782_15016.png
subject-04,1,19,0.69133186340332,oven,bicycle,0.4,0019_hp_s04_0.4_bicycle_10_n02835271_10770.png
subject-04,1,20,1.35732197761536,dog,boat,1.5,0020_hp_s04_1.5_boat_10_n03344393_9782.png
subject-04,1,21,0.94173002243042,keyboard,keyboard,1.5,0021_hp_s04_1.5_keyboard_10_n03085013_8334.png
subject-04,1,22,1.01214003562927,elephant,elephant,1.5,0022_hp_s04_1.5_elephant_10_n02504013_4007.png
subject-04,1,23,1.20227980613708,airplane,oven,1.5,0023_hp_s04_1.5_oven_10_n04111531_1922.png
subject-04,1,24,0.778487920761108,bottle,bottle,1.5,0024_hp_s04_1.5_bottle_10_n02823428_3242.png
subject-04,1,25,0.655174970626831,oven,cat,0.4,0025_hp_s04_0.4_cat_10_n02123394_381.png
subject-04,1,26,0.577192068099976,clock,clock,3,0026_hp_s04_3_clock_10_n02708093_5327.png
subject-04,1,27,0.775370121002197,boat,boat,1.5,0027_hp_s04_1.5_boat_10_n03662601_1427.png
subject-04,1,28,0.783926963806152,cat,cat,1.5,0028_hp_s04_1.5_cat_10_n02123597_2503.png
subject-04,1,29,0.928261995315552,dog,elephant,1,0029_hp_s04_1_elephant_10_n02504458_1357.png
subject-04,1,30,1.37414622306824,clock,chair,inf,0030_hp_s04_inf_chair_10_n04429376_4135.png
subject-04,1,31,0.980104923248291,car,car,3,0031_hp_s04_3_car_10_n02814533_40984.png
subject-04,1,32,1.21053504943848,bicycle,bear,1.5,0032_hp_s04_1.5_bear_10_n02133161_498.png
subject-04,1,33,1.06250810623169,oven,knife,0.4,0033_hp_s04_0.4_knife_10_n03041632_24461.png
subject-04,1,34,0.655032157897949,elephant,elephant,inf,0034_hp_s04_inf_elephant_10_n02504458_3851.png
subject-04,1,35,0.861397981643677,oven,boat,0.7,0035_hp_s04_0.7_boat_10_n03344393_2382.png
subject-04,1,36,0.882095098495483,oven,elephant,0.4,0036_hp_s04_0.4_elephant_10_n02504458_5149.png
subject-04,1,37,0.804420948028564,oven,bird,1,0037_hp_s04_1_bird_10_n01796340_3743.png
subject-04,1,38,0.934643983840942,oven,airplane,0.4,0038_hp_s04_0.4_airplane_10_n02690373_11799.png
subject-04,1,39,0.818872928619385,dog,dog,3,0039_hp_s04_3_dog_10_n02106550_2696.png
subject-04,1,40,1.00901198387146,cat,cat,inf,0040_hp_s04_inf_cat_10_n02125311_51999.png
subject-04,1,41,0.709266901016235,keyboard,keyboard,3,0041_hp_s04_3_keyboard_10_n04505470_728.png
subject-04,1,42,NaN,na,chair,1.5,0042_hp_s04_1.5_chair_10_n02791124_13610.png
subject-04,1,43,1.04571294784546,knife,knife,1,0043_hp_s04_1_knife_10_n03041632_7680.png
subject-04,1,44,0.683732986450195,oven,keyboard,0.4,0044_hp_s04_0.4_keyboard_10_n04505470_3553.png
subject-04,1,45,0.689774036407471,boat,bicycle,1,0045_hp_s04_1_bicycle_10_n03792782_41173.png
subject-04,1,46,0.728366136550903,oven,clock,0.45,0046_hp_s04_0.45_clock_10_n04548280_670.png
subject-04,1,47,0.988386154174805,bird,bird,3,0047_hp_s04_3_bird_10_n01514859_11011.png
subject-04,1,48,0.964570999145508,keyboard,oven,3,0048_hp_s04_3_oven_10_n04111531_1220.png
subject-04,1,49,0.710678100585938,oven,bear,inf,0049_hp_s04_inf_bear_10_n02134418_5472.png
subject-04,1,50,0.586845874786377,oven,bear,0.55,0050_hp_s04_0.55_bear_10_n02134418_7067.png
subject-04,1,51,0.677328109741211,oven,oven,0.7,0051_hp_s04_0.7_oven_10_n04111531_10710.png
subject-04,1,52,0.577647924423218,clock,clock,0.7,0052_hp_s04_0.7_clock_10_n02708093_123.png
subject-04,1,53,0.707643032073975,clock,dog,1,0053_hp_s04_1_dog_10_n02111129_6896.png
subject-04,1,54,0.859838962554932,oven,dog,0.45,0054_hp_s04_0.45_dog_10_n02088238_11522.png
subject-04,1,55,0.595520973205566,oven,dog,0.45,0055_hp_s04_0.45_dog_10_n02098286_3951.png
subject-04,1,56,0.895793199539185,bird,bird,0.7,0056_hp_s04_0.7_bird_10_n01798484_2632.png
subject-04,1,57,1.04856705665588,bird,dog,inf,0057_hp_s04_inf_dog_10_n02089973_1490.png
subject-04,1,58,0.96269702911377,elephant,bird,1,0058_hp_s04_1_bird_10_n02002724_630.png
subject-04,1,59,0.708175182342529,airplane,airplane,3,0059_hp_s04_3_airplane_10_n02690373_817.png
subject-04,1,60,1.11477899551392,airplane,dog,1.5,0060_hp_s04_1.5_dog_10_n02108915_2783.png
subject-04,1,61,0.653185129165649,oven,cat,1,0061_hp_s04_1_cat_10_n02123394_1135.png
subject-04,1,62,0.683745145797729,oven,chair,0.55,0062_hp_s04_0.55_chair_10_n03376595_13797.png
subject-04,1,63,0.728049993515015,oven,oven,0.4,0063_hp_s04_0.4_oven_10_n04111531_7728.png
subject-04,1,64,0.690237045288086,dog,dog,3,0064_hp_s04_3_dog_10_n02111500_5057.png
subject-04,1,65,0.888477087020874,oven,bicycle,0.45,0065_hp_s04_0.45_bicycle_10_n02835271_7753.png
subject-04,1,66,0.75715708732605,keyboard,keyboard,1,0066_hp_s04_1_keyboard_10_n03085013_21559.png
subject-04,1,67,0.833587884902954,oven,chair,0.7,0067_hp_s04_0.7_chair_10_n02791124_1734.png
subject-04,1,68,0.726011991500854,airplane,airplane,1,0068_hp_s04_1_airplane_10_n02690373_8925.png
subject-04,1,69,0.734560012817383,oven,bear,0.4,0069_hp_s04_0.4_bear_10_n02133161_178.png
subject-04,1,70,0.786978960037231,truck,truck,inf,0070_hp_s04_inf_truck_10_n03417042_1853.png
subject-04,1,71,0.909133911132812,car,airplane,0.45,0071_hp_s04_0.45_airplane_10_n02690373_3313.png
subject-04,1,72,0.669570922851562,oven,elephant,0.4,0072_hp_s04_0.4_elephant_10_n02504458_2237.png
subject-04,1,73,0.561825037002563,oven,keyboard,0.55,0073_hp_s04_0.55_keyboard_10_n03085013_5622.png
subject-04,1,74,0.537580013275146,oven,bicycle,1.5,0074_hp_s04_1.5_bicycle_10_n03792782_1030.png
subject-04,1,75,0.589838027954102,oven,clock,0.4,0075_hp_s04_0.4_clock_10_n02708093_459.png
subject-04,1,76,0.720271110534668,oven,bear,0.55,0076_hp_s04_0.55_bear_10_n02134418_3261.png
subject-04,1,77,0.842813968658447,cat,bear,3,0077_hp_s04_3_bear_10_n02132136_3727.png
subject-04,1,78,0.864867210388184,dog,dog,1,0078_hp_s04_1_dog_10_n02093754_2959.png
subject-04,1,79,1.30941009521484,oven,truck,1.5,0079_hp_s04_1.5_truck_10_n03796401_5044.png
subject-04,1,80,0.809542894363403,oven,car,0.45,0080_hp_s04_0.45_car_10_n04285008_4390.png
subject-04,1,81,0.999882936477661,knife,knife,3,0081_hp_s04_3_knife_10_n03041632_21859.png
subject-04,1,82,0.976253986358643,dog,dog,1.5,0082_hp_s04_1.5_dog_10_n02098286_4999.png
subject-04,1,83,0.714428186416626,chair,chair,inf,0083_hp_s04_inf_chair_10_n04429376_4601.png
subject-04,1,84,0.682722806930542,bear,bear,1.5,0084_hp_s04_1.5_bear_10_n02133161_14151.png
subject-04,1,85,0.921124935150146,oven,oven,1.5,0085_hp_s04_1.5_oven_10_n04111531_6622.png
subject-04,1,86,1.02765297889709,oven,oven,0.7,0086_hp_s04_0.7_oven_10_n04111531_6489.png
subject-04,1,87,0.806174993515015,keyboard,keyboard,0.45,0087_hp_s04_0.45_keyboard_10_n04505470_2869.png
subject-04,1,88,1.36673188209534,knife,knife,0.55,0088_hp_s04_0.55_knife_10_n03041632_46914.png
subject-04,1,89,1.04900908470154,oven,airplane,0.45,0089_hp_s04_0.45_airplane_10_n02690373_1161.png
subject-04,1,90,0.941344976425171,oven,car,0.4,0090_hp_s04_0.4_car_10_n04285008_7739.png
subject-04,1,91,1.00949096679688,oven,knife,0.7,0091_hp_s04_0.7_knife_10_n03041632_3617.png
subject-04,1,92,0.770001888275146,clock,clock,1,0092_hp_s04_1_clock_10_n04548280_2942.png
subject-04,1,93,0.778601169586182,airplane,airplane,inf,0093_hp_s04_inf_airplane_10_n02690373_6831.png
subject-04,1,94,0.716965913772583,cat,cat,inf,0094_hp_s04_inf_cat_10_n02123394_623.png
subject-04,1,95,1.05342698097229,elephant,bear,3,0095_hp_s04_3_bear_10_n02134418_3592.png
subject-04,1,96,0.975482940673828,boat,boat,3,0096_hp_s04_3_boat_10_n03662601_2793.png
subject-04,1,97,0.87310791015625,oven,bear,0.55,0097_hp_s04_0.55_bear_10_n02132136_8017.png
subject-04,1,98,0.81157112121582,bottle,bottle,1,0098_hp_s04_1_bottle_10_n04591713_215.png
subject-04,1,99,0.841737985610962,oven,bicycle,0.4,0099_hp_s04_0.4_bicycle_10_n03792782_18964.png
subject-04,1,100,0.702067852020264,clock,clock,0.7,0100_hp_s04_0.7_clock_10_n04548280_3234.png
subject-04,1,101,0.740782022476196,dog,dog,inf,0101_hp_s04_inf_dog_10_n02095570_7058.png
subject-04,1,102,1.13859391212463,elephant,bird,1.5,0102_hp_s04_1.5_bird_10_n01616318_6075.png
subject-04,1,103,0.876950025558472,oven,oven,inf,0103_hp_s04_inf_oven_10_n04111531_7072.png
subject-04,1,104,1.16183280944824,dog,cat,1,0104_hp_s04_1_cat_10_n02123045_5290.png
subject-04,1,105,0.821929931640625,oven,dog,0.45,0105_hp_s04_0.45_dog_10_n02102177_2723.png
subject-04,1,106,0.730684041976929,oven,oven,0.55,0106_hp_s04_0.55_oven_10_n04111531_10476.png
subject-04,1,107,0.72924017906189,oven,truck,0.45,0107_hp_s04_0.45_truck_10_n03417042_9152.png
subject-04,1,108,0.675129890441895,car,car,1,0108_hp_s04_1_car_10_n02814533_99123.png
subject-04,1,109,1.03549480438232,oven,knife,0.7,0109_hp_s04_0.7_knife_10_n03041632_39883.png
subject-04,1,110,0.828204870223999,oven,elephant,0.45,0110_hp_s04_0.45_elephant_10_n02504013_6865.png
subject-04,1,111,0.634736776351929,oven,bear,3,0111_hp_s04_3_bear_10_n02134418_6172.png
subject-04,1,112,1.4111340045929,elephant,dog,0.7,0112_hp_s04_0.7_dog_10_n02100583_20732.png
subject-04,1,113,0.725595951080322,truck,truck,1,0113_hp_s04_1_truck_10_n03417042_17726.png
subject-04,1,114,0.739439010620117,bottle,bottle,inf,0114_hp_s04_inf_bottle_10_n04591713_5599.png
subject-04,1,115,0.96779990196228,airplane,airplane,1.5,0115_hp_s04_1.5_airplane_10_n02690373_6332.png
subject-04,1,116,0.814079999923706,car,car,0.7,0116_hp_s04_0.7_car_10_n02814533_12925.png
subject-04,1,117,0.857873916625977,truck,truck,inf,0117_hp_s04_inf_truck_10_n04467665_69134.png
subject-04,1,118,0.872725009918213,car,car,1,0118_hp_s04_1_car_10_n02814533_75014.png
subject-04,1,119,0.765125036239624,car,car,0.55,0119_hp_s04_0.55_car_10_n03100240_4149.png
subject-04,1,120,0.745087146759033,car,airplane,3,0120_hp_s04_3_airplane_10_n02690373_4113.png
subject-04,1,121,0.851377010345459,truck,boat,0.7,0121_hp_s04_0.7_boat_10_n03344393_10033.png
subject-04,1,122,0.903207063674927,bicycle,bicycle,3,0122_hp_s04_3_bicycle_10_n02835271_6309.png
subject-04,1,123,0.817745923995972,bear,bear,0.7,0123_hp_s04_0.7_bear_10_n02134084_22458.png
subject-04,1,124,0.832235097885132,oven,bear,0.45,0124_hp_s04_0.45_bear_10_n02133161_10386.png
subject-04,1,125,0.992390155792236,airplane,oven,1,0125_hp_s04_1_oven_10_n04111531_13862.png
subject-04,1,126,0.614515066146851,car,car,3,0126_hp_s04_3_car_10_n02814533_72213.png
subject-04,1,127,0.769406080245972,oven,truck,0.55,0127_hp_s04_0.55_truck_10_n04467665_60862.png
subject-04,1,128,0.621351003646851,oven,bottle,0.4,0128_hp_s04_0.4_bottle_10_n04557648_2282.png
subject-04,1,129,0.689720869064331,keyboard,keyboard,3,0129_hp_s04_3_keyboard_10_n03085013_21166.png
subject-04,1,130,0.904130935668945,dog,dog,1.5,0130_hp_s04_1.5_dog_10_n02091831_6461.png
subject-04,1,131,0.604587078094482,oven,bottle,0.4,0131_hp_s04_0.4_bottle_10_n04557648_1730.png
subject-04,1,132,0.572945117950439,oven,bottle,0.45,0132_hp_s04_0.45_bottle_10_n02823428_8404.png
subject-04,1,133,0.833243131637573,bear,cat,1,0133_hp_s04_1_cat_10_n02125311_54306.png
subject-04,1,134,0.839843988418579,boat,boat,1.5,0134_hp_s04_1.5_boat_10_n03344393_6101.png
subject-04,1,135,1.37808799743652,bottle,bottle,1.5,0135_hp_s04_1.5_bottle_10_n04591713_1993.png
subject-04,1,136,1.45256304740906,bear,bear,inf,0136_hp_s04_inf_bear_10_n02133161_3622.png
subject-04,1,137,1.36567807197571,bear,bear,inf,0137_hp_s04_inf_bear_10_n02133161_14957.png
subject-04,1,138,0.919598817825317,oven,bird,0.4,0138_hp_s04_0.4_bird_10_n02009229_16963.png
subject-04,1,139,0.642114162445068,oven,boat,0.4,0139_hp_s04_0.4_boat_10_n02951358_22150.png
subject-04,1,140,0.669893980026245,elephant,elephant,inf,0140_hp_s04_inf_elephant_10_n02504458_5539.png
subject-04,1,141,0.830286026000977,elephant,truck,3,0141_hp_s04_3_truck_10_n03417042_11883.png
subject-04,1,142,0.676445007324219,car,car,inf,0142_hp_s04_inf_car_10_n03100240_12429.png
subject-04,1,143,1.50031900405884,bicycle,bicycle,1,0143_hp_s04_1_bicycle_10_n03792782_17503.png
subject-04,1,144,0.863582849502563,airplane,airplane,1,0144_hp_s04_1_airplane_10_n02690373_2131.png
subject-04,1,145,0.647933959960938,oven,airplane,0.4,0145_hp_s04_0.4_airplane_10_n02690373_17011.png
subject-04,1,146,0.708508968353271,oven,car,0.45,0146_hp_s04_0.45_car_10_n02814533_17214.png
subject-04,1,147,0.714938879013062,oven,oven,0.55,0147_hp_s04_0.55_oven_10_n04111531_12820.png
subject-04,1,148,0.675661087036133,oven,bottle,0.55,0148_hp_s04_0.55_bottle_10_n04560804_2266.png
subject-04,1,149,0.993615865707397,cat,cat,1,0149_hp_s04_1_cat_10_n02125311_38252.png
subject-04,1,150,1.00014901161194,oven,airplane,0.45,0150_hp_s04_0.45_airplane_10_n02690373_3640.png
subject-04,1,151,0.930417060852051,cat,bird,1,0151_hp_s04_1_bird_10_n02017213_5120.png
subject-04,1,152,0.677166938781738,keyboard,keyboard,1,0152_hp_s04_1_keyboard_10_n03085013_18851.png
subject-04,1,153,0.637639999389648,oven,bear,0.45,0153_hp_s04_0.45_bear_10_n02134084_22029.png
subject-04,1,154,0.811614990234375,elephant,elephant,3,0154_hp_s04_3_elephant_10_n02504013_698.png
subject-04,1,155,0.880053997039795,keyboard,dog,0.7,0155_hp_s04_0.7_dog_10_n02095570_8882.png
subject-04,1,156,0.49425196647644,oven,knife,0.45,0156_hp_s04_0.45_knife_10_n03041632_12537.png
subject-04,1,157,1.07675218582153,car,car,inf,0157_hp_s04_inf_car_10_n03100240_18421.png
subject-04,1,158,0.914741039276123,keyboard,bottle,0.7,0158_hp_s04_0.7_bottle_10_n04591713_3896.png
subject-04,1,159,0.883150100708008,knife,knife,0.7,0159_hp_s04_0.7_knife_10_n03041632_45326.png
subject-04,1,160,0.66779899597168,knife,knife,3,0160_hp_s04_3_knife_10_n03041632_51617.png
subject-04,1,161,0.765369892120361,oven,bird,0.4,0161_hp_s04_0.4_bird_10_n02018207_6933.png
subject-04,1,162,0.625746011734009,oven,bicycle,0.55,0162_hp_s04_0.55_bicycle_10_n03792782_2809.png
subject-04,1,163,0.731661796569824,airplane,airplane,1,0163_hp_s04_1_airplane_10_n02690373_2730.png
subject-04,1,164,0.961845874786377,airplane,airplane,0.55,0164_hp_s04_0.55_airplane_10_n02690373_2431.png
subject-04,1,165,1.21398711204529,airplane,chair,0.7,0165_hp_s04_0.7_chair_10_n04429376_6426.png
subject-04,1,166,0.752806901931763,oven,truck,0.7,0166_hp_s04_0.7_truck_10_n03417042_8867.png
subject-04,1,167,0.683278799057007,chair,chair,3,0167_hp_s04_3_chair_10_n03376595_4256.png
subject-04,1,168,0.719545125961304,bear,bear,3,0168_hp_s04_3_bear_10_n02133161_765.png
subject-04,1,169,0.787087202072144,car,truck,0.55,0169_hp_s04_0.55_truck_10_n03417042_5229.png
subject-04,1,170,0.833707094192505,car,chair,0.55,0170_hp_s04_0.55_chair_10_n02791124_60.png
subject-04,1,171,1.04029512405396,oven,truck,1.5,0171_hp_s04_1.5_truck_10_n03417042_18096.png
subject-04,1,172,0.892518043518066,car,chair,0.4,0172_hp_s04_0.4_chair_10_n03376595_70.png
subject-04,1,173,0.706722021102905,keyboard,keyboard,0.55,0173_hp_s04_0.55_keyboard_10_n04505470_4422.png
subject-04,1,174,0.812665939331055,keyboard,boat,0.7,0174_hp_s04_0.7_boat_10_n04273569_11922.png
subject-04,1,175,0.858905076980591,dog,cat,1.5,0175_hp_s04_1.5_cat_10_n02124075_12587.png
subject-04,1,176,1.21156692504883,bicycle,knife,0.7,0176_hp_s04_0.7_knife_10_n03041632_379.png
subject-04,1,177,1.18007206916809,dog,dog,1,0177_hp_s04_1_dog_10_n02109047_6213.png
subject-04,1,178,0.826464891433716,boat,boat,0.55,0178_hp_s04_0.55_boat_10_n03344393_1276.png
subject-04,1,179,0.787029981613159,chair,chair,3,0179_hp_s04_3_chair_10_n04099969_1543.png
subject-04,1,180,0.593106031417847,boat,boat,1.5,0180_hp_s04_1.5_boat_10_n04273569_20418.png
subject-04,1,181,0.731780052185059,oven,dog,0.4,0181_hp_s04_0.4_dog_10_n02099712_3297.png
subject-04,1,182,0.762233018875122,bottle,bottle,inf,0182_hp_s04_inf_bottle_10_n04579145_2676.png
subject-04,1,183,0.652958869934082,elephant,elephant,1.5,0183_hp_s04_1.5_elephant_10_n02504458_7564.png
subject-04,1,184,0.667448043823242,oven,bicycle,0.45,0184_hp_s04_0.45_bicycle_10_n02835271_7284.png
subject-04,1,185,0.965419054031372,knife,knife,inf,0185_hp_s04_inf_knife_10_n03041632_26710.png
subject-04,1,186,0.857497930526733,knife,knife,1.5,0186_hp_s04_1.5_knife_10_n03041632_3159.png
subject-04,1,187,0.755539178848267,keyboard,oven,inf,0187_hp_s04_inf_oven_10_n04111531_7821.png
subject-04,1,188,1.22907304763794,elephant,cat,1,0188_hp_s04_1_cat_10_n02123159_3467.png
subject-04,1,189,0.705848932266235,bottle,bottle,0.55,0189_hp_s04_0.55_bottle_10_n03983396_2786.png
subject-04,1,190,0.568011045455933,oven,bear,0.4,0190_hp_s04_0.4_bear_10_n02134084_7424.png
subject-04,1,191,0.750731945037842,bear,bear,1.5,0191_hp_s04_1.5_bear_10_n02133161_5696.png
subject-04,1,192,0.750843048095703,oven,bicycle,0.4,0192_hp_s04_0.4_bicycle_10_n03792782_51196.png
subject-04,1,193,0.670903921127319,airplane,airplane,inf,0193_hp_s04_inf_airplane_10_n02690373_3435.png
subject-04,1,194,0.61759090423584,oven,knife,0.4,0194_hp_s04_0.4_knife_10_n03041632_29961.png
subject-04,1,195,0.639939069747925,oven,car,0.45,0195_hp_s04_0.45_car_10_n02814533_45607.png
subject-04,1,196,0.822247982025146,oven,knife,1,0196_hp_s04_1_knife_10_n03041632_6708.png
subject-04,1,197,0.85835599899292,cat,dog,0.55,0197_hp_s04_0.55_dog_10_n02109961_69981.png
subject-04,1,198,0.688698053359985,truck,truck,1,0198_hp_s04_1_truck_10_n03417042_17911.png
subject-04,1,199,1.2574999332428,dog,dog,1.5,0199_hp_s04_1.5_dog_10_n02102177_1028.png
subject-04,1,200,0.979660034179688,chair,chair,3,0200_hp_s04_3_chair_10_n04099969_8063.png
subject-04,1,201,1.06374096870422,oven,keyboard,0.4,0201_hp_s04_0.4_keyboard_10_n04505470_1342.png
subject-04,1,202,0.662479877471924,airplane,airplane,1.5,0202_hp_s04_1.5_airplane_10_n02690373_4198.png
subject-04,1,203,0.915032863616943,car,car,0.7,0203_hp_s04_0.7_car_10_n03100240_2776.png
subject-04,1,204,0.907276153564453,truck,truck,1.5,0204_hp_s04_1.5_truck_10_n03417042_3868.png
subject-04,1,205,0.725244998931885,clock,clock,1,0205_hp_s04_1_clock_10_n03196217_4254.png
subject-04,1,206,0.769760847091675,clock,cat,0.45,0206_hp_s04_0.45_cat_10_n02123045_12876.png
subject-04,1,207,0.826905012130737,dog,dog,3,0207_hp_s04_3_dog_10_n02093647_5881.png
subject-04,1,208,0.665470123291016,oven,elephant,0.55,0208_hp_s04_0.55_elephant_10_n02504458_130.png
subject-04,1,209,0.647615909576416,oven,dog,0.45,0209_hp_s04_0.45_dog_10_n02094114_6882.png
subject-04,1,210,0.548216104507446,oven,keyboard,0.45,0210_hp_s04_0.45_keyboard_10_n04505470_4553.png
subject-04,1,211,0.508036851882935,oven,bicycle,0.45,0211_hp_s04_0.45_bicycle_10_n02835271_2904.png
subject-04,1,212,0.690713167190552,oven,elephant,0.45,0212_hp_s04_0.45_elephant_10_n02504013_5890.png
subject-04,1,213,0.973345994949341,cat,cat,0.55,0213_hp_s04_0.55_cat_10_n02125311_44815.png
subject-04,1,214,0.665709018707275,keyboard,keyboard,0.55,0214_hp_s04_0.55_keyboard_10_n04505470_4206.png
subject-04,1,215,1.2101891040802,bicycle,bicycle,1,0215_hp_s04_1_bicycle_10_n02835271_23993.png
subject-04,1,216,0.572640180587769,cat,cat,inf,0216_hp_s04_inf_cat_10_n02123597_8010.png
subject-04,1,217,0.571051120758057,boat,boat,3,0217_hp_s04_3_boat_10_n04273569_2034.png
subject-04,1,218,0.553215026855469,keyboard,keyboard,inf,0218_hp_s04_inf_keyboard_10_n04505470_5057.png
subject-04,1,219,0.773473024368286,boat,bear,1,0219_hp_s04_1_bear_10_n02134084_6869.png
subject-04,1,220,0.811982154846191,oven,boat,0.4,0220_hp_s04_0.4_boat_10_n03662601_27241.png
subject-04,1,221,0.693927049636841,clock,clock,0.7,0221_hp_s04_0.7_clock_10_n04548280_15154.png
subject-04,1,222,0.708155155181885,clock,clock,0.7,0222_hp_s04_0.7_clock_10_n03196217_7121.png
subject-04,1,223,0.722639799118042,elephant,elephant,1.5,0223_hp_s04_1.5_elephant_10_n02504458_5176.png
subject-04,1,224,0.728735208511353,cat,bear,inf,0224_hp_s04_inf_bear_10_n02133161_4960.png
subject-04,1,225,0.734853982925415,clock,truck,3,0225_hp_s04_3_truck_10_n04467665_7876.png
subject-04,1,226,0.657390117645264,clock,chair,3,0226_hp_s04_3_chair_10_n02791124_4227.png
subject-04,1,227,NaN,na,bottle,1,0227_hp_s04_1_bottle_10_n04560804_12099.png
subject-04,1,228,0.862215995788574,truck,car,0.7,0228_hp_s04_0.7_car_10_n04285008_11186.png
subject-04,1,229,0.72283411026001,oven,dog,0.4,0229_hp_s04_0.4_dog_10_n02099712_5721.png
subject-04,1,230,0.691025018692017,elephant,elephant,3,0230_hp_s04_3_elephant_10_n02504013_6177.png
subject-04,1,231,0.743442058563232,oven,boat,0.45,0231_hp_s04_0.45_boat_10_n02951358_14015.png
subject-04,1,232,0.557873010635376,oven,elephant,0.4,0232_hp_s04_0.4_elephant_10_n02504013_3569.png
subject-04,1,233,0.786264181137085,car,truck,inf,0233_hp_s04_inf_truck_10_n04467665_3576.png
subject-04,1,234,0.908509016036987,oven,truck,0.4,0234_hp_s04_0.4_truck_10_n03796401_26820.png
subject-04,1,235,0.70703387260437,oven,airplane,0.7,0235_hp_s04_0.7_airplane_10_n02690373_18871.png
subject-04,1,236,0.967313051223755,car,car,1.5,0236_hp_s04_1.5_car_10_n02814533_5850.png
subject-04,1,237,0.627795934677124,oven,cat,0.4,0237_hp_s04_0.4_cat_10_n02123394_4125.png
subject-04,1,238,0.956030130386353,elephant,elephant,1.5,0238_hp_s04_1.5_elephant_10_n02504458_3757.png
subject-04,1,239,0.694504976272583,oven,chair,0.4,0239_hp_s04_0.4_chair_10_n04099969_4100.png
subject-04,1,240,0.608741998672485,oven,chair,0.7,0240_hp_s04_0.7_chair_10_n03376595_8806.png
subject-04,1,241,0.544844150543213,oven,bottle,0.55,0241_hp_s04_0.55_bottle_10_n04557648_171.png
subject-04,1,242,0.489293098449707,oven,clock,0.4,0242_hp_s04_0.4_clock_10_n04548280_5476.png
subject-04,1,243,0.965897083282471,truck,truck,inf,0243_hp_s04_inf_truck_10_n04467665_52335.png
subject-04,1,244,0.918095111846924,oven,dog,0.55,0244_hp_s04_0.55_dog_10_n02092002_11313.png
subject-04,1,245,0.499819040298462,oven,truck,0.45,0245_hp_s04_0.45_truck_10_n03417042_1218.png
subject-04,1,246,0.454324007034302,oven,elephant,0.4,0246_hp_s04_0.4_elephant_10_n02504013_6423.png
subject-04,1,247,0.66692590713501,oven,dog,1,0247_hp_s04_1_dog_10_n02093991_6311.png
subject-04,1,248,0.889356851577759,oven,boat,0.4,0248_hp_s04_0.4_boat_10_n04273569_10500.png
subject-04,1,249,0.627883911132812,keyboard,keyboard,0.7,0249_hp_s04_0.7_keyboard_10_n04505470_4044.png
subject-04,1,250,0.888340950012207,knife,knife,3,0250_hp_s04_3_knife_10_n03041632_84869.png
subject-04,1,251,0.548979043960571,oven,dog,0.55,0251_hp_s04_0.55_dog_10_n02104029_3493.png
subject-04,1,252,0.963037014007568,knife,cat,0.45,0252_hp_s04_0.45_cat_10_n02125311_26729.png
subject-04,1,253,0.615390062332153,bear,bear,0.7,0253_hp_s04_0.7_bear_10_n02133161_1301.png
subject-04,1,254,0.898229122161865,oven,clock,0.4,0254_hp_s04_0.4_clock_10_n04548280_2334.png
subject-04,1,255,0.696171045303345,bear,bear,inf,0255_hp_s04_inf_bear_10_n02133161_4012.png
subject-04,1,256,0.685546875,bear,dog,0.7,0256_hp_s04_0.7_dog_10_n02086910_9685.png
subject-04,1,257,0.753462076187134,bear,bear,0.45,0257_hp_s04_0.45_bear_10_n02132136_11217.png
subject-04,1,258,0.859824895858765,oven,chair,inf,0258_hp_s04_inf_chair_10_n04429376_31206.png
subject-04,1,259,0.688333034515381,keyboard,clock,0.7,0259_hp_s04_0.7_clock_10_n03196217_3283.png
subject-04,1,260,0.518739938735962,oven,bottle,0.45,0260_hp_s04_0.45_bottle_10_n04557648_3308.png
subject-04,1,261,0.601294994354248,bottle,bottle,inf,0261_hp_s04_inf_bottle_10_n02823428_8543.png
subject-04,1,262,0.577219009399414,truck,truck,1,0262_hp_s04_1_truck_10_n03417042_16249.png
subject-04,1,263,0.691487789154053,bicycle,bicycle,0.7,0263_hp_s04_0.7_bicycle_10_n03792782_22856.png
subject-04,1,264,0.606031179428101,oven,knife,1,0264_hp_s04_1_knife_10_n03041632_13225.png
subject-04,1,265,0.766753911972046,oven,chair,0.4,0265_hp_s04_0.4_chair_10_n02791124_4475.png
subject-04,1,266,0.710088968276978,keyboard,clock,1,0266_hp_s04_1_clock_10_n03196217_5620.png
subject-04,1,267,0.440804004669189,oven,bear,0.7,0267_hp_s04_0.7_bear_10_n02134084_13827.png
subject-04,1,268,0.599200963973999,oven,bird,0.55,0268_hp_s04_0.55_bird_10_n02007558_10685.png
subject-04,1,269,0.875426054000854,truck,truck,0.55,0269_hp_s04_0.55_truck_10_n03417042_7653.png
subject-04,1,270,1.10380601882935,elephant,elephant,1.5,0270_hp_s04_1.5_elephant_10_n02504013_7538.png
subject-04,1,271,0.918226003646851,cat,cat,1.5,0271_hp_s04_1.5_cat_10_n02123597_9668.png
subject-04,1,272,0.762356996536255,oven,bear,3,0272_hp_s04_3_bear_10_n02134084_7145.png
subject-04,1,273,0.768351793289185,oven,cat,0.55,0273_hp_s04_0.55_cat_10_n02123597_1639.png
subject-04,1,274,0.644653081893921,oven,elephant,0.45,0274_hp_s04_0.45_elephant_10_n02504013_293.png
subject-04,1,275,0.567193984985352,oven,bear,0.45,0275_hp_s04_0.45_bear_10_n02134418_260.png
subject-04,1,276,0.579636812210083,keyboard,keyboard,1,0276_hp_s04_1_keyboard_10_n04505470_84.png
subject-04,1,277,0.824082851409912,car,car,0.55,0277_hp_s04_0.55_car_10_n03100240_17245.png
subject-04,1,278,0.538223028182983,oven,elephant,0.4,0278_hp_s04_0.4_elephant_10_n02504013_644.png
subject-04,1,279,0.58477520942688,oven,cat,0.45,0279_hp_s04_0.45_cat_10_n02123045_4788.png
subject-04,1,280,0.83463716506958,cat,cat,inf,0280_hp_s04_inf_cat_10_n02123045_9364.png
subject-04,1,281,0.841602087020874,car,boat,0.55,0281_hp_s04_0.55_boat_10_n03662601_7210.png
subject-04,1,282,0.679347991943359,airplane,airplane,1.5,0282_hp_s04_1.5_airplane_10_n02690373_7473.png
subject-04,1,283,0.891454935073853,car,truck,0.45,0283_hp_s04_0.45_truck_10_n03796401_17201.png
subject-04,1,284,0.889961004257202,keyboard,knife,1,0284_hp_s04_1_knife_10_n03041632_30602.png
subject-04,1,285,1.19416618347168,dog,dog,1,0285_hp_s04_1_dog_10_n02088632_6869.png
subject-04,1,286,0.624377012252808,oven,bear,0.4,0286_hp_s04_0.4_bear_10_n02132136_6778.png
subject-04,1,287,0.655051946640015,oven,knife,0.7,0287_hp_s04_0.7_knife_10_n03041632_17349.png
subject-04,1,288,0.669585943222046,oven,oven,0.4,0288_hp_s04_0.4_oven_10_n04111531_22715.png
subject-04,1,289,1.13606381416321,oven,chair,0.55,0289_hp_s04_0.55_chair_10_n04429376_16091.png
subject-04,1,290,0.698801040649414,bottle,bottle,3,0290_hp_s04_3_bottle_10_n04560804_6450.png
subject-04,1,291,0.894380807876587,bird,bird,1,0291_hp_s04_1_bird_10_n02025239_9177.png
subject-04,1,292,0.586348056793213,clock,clock,inf,0292_hp_s04_inf_clock_10_n04548280_6388.png
subject-04,1,293,0.582679986953735,oven,oven,0.4,0293_hp_s04_0.4_oven_10_n04111531_19274.png
subject-04,1,294,0.688453912734985,oven,bottle,0.45,0294_hp_s04_0.45_bottle_10_n04591713_6271.png
subject-04,1,295,0.711007118225098,bear,bear,1.5,0295_hp_s04_1.5_bear_10_n02134418_912.png
subject-04,1,296,0.725556135177612,car,car,inf,0296_hp_s04_inf_car_10_n04285008_9404.png
subject-04,1,297,0.900090932846069,truck,truck,0.55,0297_hp_s04_0.55_truck_10_n03796401_9.png
subject-04,1,298,0.944144010543823,knife,knife,3,0298_hp_s04_3_knife_10_n03041632_45338.png
subject-04,1,299,1.3344988822937,bottle,bottle,inf,0299_hp_s04_inf_bottle_10_n03937543_10429.png
subject-04,1,300,0.643037080764771,oven,knife,0.55,0300_hp_s04_0.55_knife_10_n03041632_11741.png
subject-04,1,301,NaN,na,airplane,inf,0301_hp_s04_inf_airplane_10_n02690373_1512.png
subject-04,1,302,0.807330846786499,airplane,airplane,1.5,0302_hp_s04_1.5_airplane_10_n02690373_8967.png
subject-04,1,303,0.805881977081299,car,oven,0.45,0303_hp_s04_0.45_oven_10_n04111531_6049.png
subject-04,1,304,0.514376878738403,oven,clock,0.4,0304_hp_s04_0.4_clock_10_n04548280_582.png
subject-04,1,305,0.63482403755188,keyboard,keyboard,3,0305_hp_s04_3_keyboard_10_n03085013_11685.png
subject-04,1,306,0.586791038513184,boat,boat,3,0306_hp_s04_3_boat_10_n03344393_278.png
subject-04,1,307,0.661387920379639,oven,bear,0.45,0307_hp_s04_0.45_bear_10_n02134418_76.png
subject-04,1,308,0.691375017166138,oven,cat,0.55,0308_hp_s04_0.55_cat_10_n02123045_4829.png
subject-04,1,309,0.697926998138428,oven,chair,0.4,0309_hp_s04_0.4_chair_10_n04099969_3436.png
subject-04,1,310,1.03962016105652,car,car,1.5,0310_hp_s04_1.5_car_10_n02814533_5706.png
subject-04,1,311,0.783941984176636,oven,bird,0.55,0311_hp_s04_0.55_bird_10_n01531178_16176.png
subject-04,1,312,0.575735092163086,oven,elephant,0.45,0312_hp_s04_0.45_elephant_10_n02504458_4767.png
subject-04,1,313,0.527901172637939,oven,clock,0.55,0313_hp_s04_0.55_clock_10_n02708093_1400.png
subject-04,1,314,0.702682018280029,oven,boat,0.55,0314_hp_s04_0.55_boat_10_n04612504_2951.png
subject-04,1,315,0.825176000595093,oven,elephant,0.55,0315_hp_s04_0.55_elephant_10_n02504458_6171.png
subject-04,1,316,0.637578964233398,oven,knife,0.45,0316_hp_s04_0.45_knife_10_n03041632_11327.png
subject-04,1,317,0.690038919448853,airplane,airplane,3,0317_hp_s04_3_airplane_10_n02690373_6090.png
subject-04,1,318,0.69054102897644,oven,bird,0.55,0318_hp_s04_0.55_bird_10_n01622779_1451.png
subject-04,1,319,0.595113039016724,boat,boat,inf,0319_hp_s04_inf_boat_10_n03662601_34032.png
subject-04,1,320,0.825833797454834,elephant,elephant,1,0320_hp_s04_1_elephant_10_n02504458_8219.png
subject-04,1,321,1.02042508125305,chair,cat,0.55,0321_hp_s04_0.55_cat_10_n02123159_6021.png
subject-04,1,322,0.488964796066284,oven,car,0.45,0322_hp_s04_0.45_car_10_n04285008_1887.png
subject-04,1,323,0.557216882705688,keyboard,keyboard,inf,0323_hp_s04_inf_keyboard_10_n03085013_24296.png
subject-04,1,324,0.639961957931519,oven,truck,0.45,0324_hp_s04_0.45_truck_10_n03417042_21047.png
subject-04,1,325,0.986412048339844,bicycle,truck,1,0325_hp_s04_1_truck_10_n03417042_10993.png
subject-04,1,326,0.603010892868042,oven,elephant,0.55,0326_hp_s04_0.55_elephant_10_n02504458_1852.png
subject-04,1,327,0.471199989318848,oven,oven,0.4,0327_hp_s04_0.4_oven_10_n04111531_15718.png
subject-04,1,328,0.494272947311401,oven,oven,inf,0328_hp_s04_inf_oven_10_n04111531_12830.png
subject-04,1,329,0.659788846969604,keyboard,keyboard,3,0329_hp_s04_3_keyboard_10_n04505470_4764.png
subject-04,1,330,0.650262832641602,bicycle,bicycle,0.55,0330_hp_s04_0.55_bicycle_10_n02835271_12799.png
subject-04,1,331,0.548530101776123,oven,knife,1,0331_hp_s04_1_knife_10_n03041632_424.png
subject-04,1,332,0.738964080810547,bear,bear,0.55,0332_hp_s04_0.55_bear_10_n02133161_4247.png
subject-04,1,333,0.723375082015991,oven,bird,0.4,0333_hp_s04_0.4_bird_10_n02006656_567.png
subject-04,1,334,1.13555216789246,knife,knife,inf,0334_hp_s04_inf_knife_10_n03041632_94995.png
subject-04,1,335,0.741847038269043,oven,clock,0.55,0335_hp_s04_0.55_clock_10_n04548280_7115.png
subject-04,1,336,0.594602108001709,oven,keyboard,0.45,0336_hp_s04_0.45_keyboard_10_n03085013_21880.png
subject-04,1,337,0.471009016036987,oven,dog,0.45,0337_hp_s04_0.45_dog_10_n02112018_12586.png
subject-04,1,338,0.598968982696533,boat,boat,0.7,0338_hp_s04_0.7_boat_10_n03662601_8096.png
subject-04,1,339,0.559401988983154,bear,bear,3,0339_hp_s04_3_bear_10_n02134084_5582.png
subject-04,1,340,0.581622838973999,airplane,airplane,inf,0340_hp_s04_inf_airplane_10_n02690373_10051.png
subject-04,1,341,1.01024389266968,bear,bear,inf,0341_hp_s04_inf_bear_10_n02134418_258.png
subject-04,1,342,0.546796083450317,oven,bottle,0.45,0342_hp_s04_0.45_bottle_10_n02823428_5374.png
subject-04,1,343,0.623090028762817,keyboard,keyboard,1,0343_hp_s04_1_keyboard_10_n04505470_4997.png
subject-04,1,344,1.17329096794128,bear,dog,0.7,0344_hp_s04_0.7_dog_10_n02111277_6627.png
subject-04,1,345,0.641722917556763,bicycle,bicycle,0.7,0345_hp_s04_0.7_bicycle_10_n03792782_17502.png
subject-04,1,346,0.580366849899292,boat,boat,inf,0346_hp_s04_inf_boat_10_n04612504_3800.png
subject-04,1,347,0.578133106231689,oven,bottle,0.45,0347_hp_s04_0.45_bottle_10_n03937543_6353.png
subject-04,1,348,0.576476812362671,oven,dog,0.55,0348_hp_s04_0.55_dog_10_n02108422_998.png
subject-04,1,349,1.28835201263428,chair,chair,0.7,0349_hp_s04_0.7_chair_10_n04429376_5542.png
subject-04,1,350,0.595134973526001,oven,clock,0.45,0350_hp_s04_0.45_clock_10_n02708093_149.png
subject-04,1,351,0.555099010467529,oven,knife,0.45,0351_hp_s04_0.45_knife_10_n03041632_10136.png
subject-04,1,352,0.407497882843018,oven,cat,0.45,0352_hp_s04_0.45_cat_10_n02124075_11783.png
subject-04,1,353,0.752301931381226,car,bird,0.55,0353_hp_s04_0.55_bird_10_n02011460_1215.png
subject-04,1,354,0.450350046157837,oven,chair,0.55,0354_hp_s04_0.55_chair_10_n04099969_4275.png
subject-04,1,355,1.04074001312256,dog,dog,0.7,0355_hp_s04_0.7_dog_10_n02109525_69456.png
subject-04,1,356,0.63088583946228,bird,bird,1.5,0356_hp_s04_1.5_bird_10_n01530575_10684.png
subject-04,1,357,0.721402883529663,cat,bicycle,0.55,0357_hp_s04_0.55_bicycle_10_n03792782_6651.png
subject-04,1,358,0.820168018341064,dog,dog,3,0358_hp_s04_3_dog_10_n02113712_14617.png
subject-04,1,359,0.618028879165649,oven,airplane,1,0359_hp_s04_1_airplane_10_n02690373_7718.png
subject-04,1,360,NaN,na,knife,1.5,0360_hp_s04_1.5_knife_10_n03041632_96345.png
subject-04,1,361,0.576292991638184,oven,clock,0.4,0361_hp_s04_0.4_clock_10_n03196217_5493.png
subject-04,1,362,0.511605978012085,oven,clock,0.4,0362_hp_s04_0.4_clock_10_n04548280_11763.png
subject-04,1,363,0.686532020568848,bottle,bottle,inf,0363_hp_s04_inf_bottle_10_n04591713_2010.png
subject-04,1,364,0.830534934997559,oven,dog,0.7,0364_hp_s04_0.7_dog_10_n02091831_2275.png
subject-04,1,365,0.582996129989624,oven,bottle,0.4,0365_hp_s04_0.4_bottle_10_n03983396_1864.png
subject-04,1,366,0.543575048446655,oven,dog,0.4,0366_hp_s04_0.4_dog_10_n02107683_3364.png
subject-04,1,367,0.679805994033813,keyboard,chair,0.55,0367_hp_s04_0.55_chair_10_n03376595_8346.png
subject-04,1,368,1.06999683380127,car,car,3,0368_hp_s04_3_car_10_n02814533_62992.png
subject-04,1,369,0.744441986083984,oven,cat,0.4,0369_hp_s04_0.4_cat_10_n02125311_4740.png
subject-04,1,370,0.867644071578979,oven,cat,0.55,0370_hp_s04_0.55_cat_10_n02123159_4742.png
subject-04,1,371,0.649586915969849,bear,bear,3,0371_hp_s04_3_bear_10_n02133161_10330.png
subject-04,1,372,0.548070192337036,oven,bird,0.4,0372_hp_s04_0.4_bird_10_n01796340_13912.png
subject-04,1,373,0.632285118103027,oven,oven,1,0373_hp_s04_1_oven_10_n04111531_7034.png
subject-04,1,374,0.584903001785278,boat,boat,1.5,0374_hp_s04_1.5_boat_10_n03662601_15971.png
subject-04,1,375,0.72110390663147,bottle,bottle,3,0375_hp_s04_3_bottle_10_n04591713_5651.png
subject-04,1,376,0.525228023529053,oven,knife,0.4,0376_hp_s04_0.4_knife_10_n03041632_21034.png
subject-04,1,377,0.643650054931641,oven,chair,0.4,0377_hp_s04_0.4_chair_10_n03376595_12364.png
subject-04,1,378,0.625852823257446,oven,chair,0.4,0378_hp_s04_0.4_chair_10_n02791124_1345.png
subject-04,1,379,0.624316215515137,oven,truck,0.55,0379_hp_s04_0.55_truck_10_n04467665_3876.png
subject-04,1,380,0.630577087402344,keyboard,truck,0.55,0380_hp_s04_0.55_truck_10_n03796401_16603.png
subject-04,1,381,0.507113933563232,oven,truck,0.45,0381_hp_s04_0.45_truck_10_n04467665_28176.png
subject-04,1,382,0.949837923049927,boat,boat,0.7,0382_hp_s04_0.7_boat_10_n04612504_603.png
subject-04,1,383,0.580011129379272,oven,clock,0.55,0383_hp_s04_0.55_clock_10_n04548280_549.png
subject-04,1,384,0.44900107383728,oven,oven,3,0384_hp_s04_3_oven_10_n04111531_344.png
subject-04,1,385,0.693105936050415,car,car,inf,0385_hp_s04_inf_car_10_n04285008_10073.png
subject-04,1,386,0.721557140350342,oven,cat,1.5,0386_hp_s04_1.5_cat_10_n02123597_12112.png
subject-04,1,387,0.603720903396606,clock,clock,3,0387_hp_s04_3_clock_10_n02708093_7133.png
subject-04,1,388,0.856070041656494,oven,oven,inf,0388_hp_s04_inf_oven_10_n04111531_13809.png
subject-04,1,389,0.516587018966675,oven,knife,0.55,0389_hp_s04_0.55_knife_10_n03041632_83826.png
subject-04,1,390,0.712769985198975,bottle,bottle,1.5,0390_hp_s04_1.5_bottle_10_n04591713_6851.png
subject-04,1,391,0.527529954910278,oven,cat,0.7,0391_hp_s04_0.7_cat_10_n02123394_1697.png
subject-04,1,392,0.680317163467407,keyboard,keyboard,1,0392_hp_s04_1_keyboard_10_n03085013_9533.png
subject-04,1,393,0.815770864486694,cat,cat,0.7,0393_hp_s04_0.7_cat_10_n02123159_5427.png
subject-04,1,394,0.621778964996338,car,car,0.7,0394_hp_s04_0.7_car_10_n04285008_15271.png
subject-04,1,395,0.612666845321655,oven,bottle,0.7,0395_hp_s04_0.7_bottle_10_n03983396_2327.png
subject-04,1,396,0.995009183883667,bicycle,bicycle,3,0396_hp_s04_3_bicycle_10_n02835271_270.png
subject-04,1,397,0.553097009658813,oven,boat,inf,0397_hp_s04_inf_boat_10_n02951358_6564.png
subject-04,1,398,0.57539701461792,keyboard,keyboard,inf,0398_hp_s04_inf_keyboard_10_n03085013_233.png
subject-04,1,399,0.57365894317627,clock,clock,1.5,0399_hp_s04_1.5_clock_10_n03196217_8792.png
subject-04,1,400,0.580413103103638,bicycle,bicycle,inf,0400_hp_s04_inf_bicycle_10_n03792782_3373.png
subject-04,1,401,0.984761953353882,bear,bear,0.7,0401_hp_s04_0.7_bear_10_n02132136_2489.png
subject-04,1,402,1.15912389755249,elephant,elephant,inf,0402_hp_s04_inf_elephant_10_n02504458_7130.png
subject-04,1,403,0.727831125259399,cat,oven,inf,0403_hp_s04_inf_oven_10_n04111531_845.png
subject-04,1,404,0.6180579662323,bicycle,bicycle,3,0404_hp_s04_3_bicycle_10_n02835271_11974.png
subject-04,1,405,0.662864923477173,boat,boat,inf,0405_hp_s04_inf_boat_10_n02951358_9824.png
subject-04,1,406,1.04545402526855,bird,bird,inf,0406_hp_s04_inf_bird_10_n01560419_5285.png
subject-04,1,407,0.705694198608398,oven,oven,0.4,0407_hp_s04_0.4_oven_10_n04111531_12769.png
subject-04,1,408,0.713337898254395,bicycle,bicycle,0.55,0408_hp_s04_0.55_bicycle_10_n02835271_12700.png
subject-04,1,409,1.07177114486694,cat,chair,1.5,0409_hp_s04_1.5_chair_10_n04099969_2821.png
subject-04,1,410,0.710517168045044,oven,knife,0.45,0410_hp_s04_0.45_knife_10_n03041632_54191.png
subject-04,1,411,0.793210983276367,oven,bird,3,0411_hp_s04_3_bird_10_n02018795_7438.png
subject-04,1,412,0.761604070663452,oven,oven,3,0412_hp_s04_3_oven_10_n04111531_2943.png
subject-04,1,413,0.811954975128174,bear,bear,inf,0413_hp_s04_inf_bear_10_n02133161_311.png
subject-04,1,414,0.788506984710693,boat,truck,0.45,0414_hp_s04_0.45_truck_10_n04467665_3378.png
subject-04,1,415,0.654890060424805,oven,oven,inf,0415_hp_s04_inf_oven_10_n04111531_6567.png
subject-04,1,416,0.755466938018799,oven,keyboard,0.4,0416_hp_s04_0.4_keyboard_10_n03085013_2508.png
subject-04,1,417,0.77597713470459,keyboard,keyboard,1,0417_hp_s04_1_keyboard_10_n04505470_2093.png
subject-04,1,418,0.636353015899658,oven,clock,0.4,0418_hp_s04_0.4_clock_10_n03196217_3558.png
subject-04,1,419,0.786821842193604,knife,knife,inf,0419_hp_s04_inf_knife_10_n03041632_23803.png
subject-04,1,420,0.693286895751953,bear,dog,0.7,0420_hp_s04_0.7_dog_10_n02099712_6603.png
subject-04,1,421,0.645312070846558,boat,boat,0.7,0421_hp_s04_0.7_boat_10_n03662601_2148.png
subject-04,1,422,0.635535001754761,bicycle,bicycle,inf,0422_hp_s04_inf_bicycle_10_n03792782_7963.png
subject-04,1,423,1.06376004219055,bottle,knife,0.7,0423_hp_s04_0.7_knife_10_n03041632_27848.png
subject-04,1,424,0.891952037811279,elephant,elephant,inf,0424_hp_s04_inf_elephant_10_n02504013_7635.png
subject-04,1,425,0.844645023345947,oven,elephant,0.45,0425_hp_s04_0.45_elephant_10_n02504013_6120.png
subject-04,1,426,1.22681999206543,keyboard,bottle,1,0426_hp_s04_1_bottle_10_n04557648_66.png
subject-04,1,427,0.917274951934814,keyboard,boat,0.45,0427_hp_s04_0.45_boat_10_n03662601_16627.png
subject-04,1,428,0.63988995552063,elephant,elephant,1,0428_hp_s04_1_elephant_10_n02504458_930.png
subject-04,1,429,0.598250865936279,elephant,elephant,0.7,0429_hp_s04_0.7_elephant_10_n02504013_25336.png
subject-04,1,430,1.10468578338623,bear,car,0.4,0430_hp_s04_0.4_car_10_n03100240_11854.png
subject-04,1,431,0.695134162902832,oven,chair,0.45,0431_hp_s04_0.45_chair_10_n02791124_4679.png
subject-04,1,432,NaN,na,airplane,0.4,0432_hp_s04_0.4_airplane_10_n02690373_9619.png
subject-04,1,433,0.881916999816895,bicycle,bicycle,inf,0433_hp_s04_inf_bicycle_10_n02835271_8573.png
subject-04,1,434,0.765758037567139,bicycle,bicycle,inf,0434_hp_s04_inf_bicycle_10_n02835271_21043.png
subject-04,1,435,0.76192307472229,car,car,1.5,0435_hp_s04_1.5_car_10_n02814533_65093.png
subject-04,1,436,0.544149160385132,oven,oven,0.45,0436_hp_s04_0.45_oven_10_n04111531_3181.png
subject-04,1,437,0.604798078536987,clock,clock,1,0437_hp_s04_1_clock_10_n04548280_8914.png
subject-04,1,438,0.761523962020874,bicycle,bicycle,1.5,0438_hp_s04_1.5_bicycle_10_n03792782_5437.png
subject-04,1,439,0.950143814086914,oven,bear,0.45,0439_hp_s04_0.45_bear_10_n02133161_2305.png
subject-04,1,440,0.8803391456604,bear,bear,0.7,0440_hp_s04_0.7_bear_10_n02133161_4576.png
subject-04,1,441,0.638410806655884,bicycle,bicycle,1,0441_hp_s04_1_bicycle_10_n03792782_11297.png
subject-04,1,442,0.652716875076294,oven,knife,0.7,0442_hp_s04_0.7_knife_10_n03041632_18304.png
subject-04,1,443,0.565570116043091,boat,truck,1,0443_hp_s04_1_truck_10_n03417042_12169.png
subject-04,1,444,0.79400110244751,clock,chair,1.5,0444_hp_s04_1.5_chair_10_n04429376_47584.png
subject-04,1,445,0.907569169998169,elephant,elephant,3,0445_hp_s04_3_elephant_10_n02504458_6995.png
subject-04,1,446,0.782096862792969,elephant,dog,1.5,0446_hp_s04_1.5_dog_10_n02090721_630.png
subject-04,1,447,0.81831693649292,oven,chair,0.4,0447_hp_s04_0.4_chair_10_n04429376_8579.png
subject-04,1,448,0.778826951980591,clock,clock,1.5,0448_hp_s04_1.5_clock_10_n02708093_6890.png
subject-04,1,449,1.10584688186646,truck,truck,0.45,0449_hp_s04_0.45_truck_10_n03796401_4495.png
subject-04,1,450,0.773836851119995,oven,bottle,0.4,0450_hp_s04_0.4_bottle_10_n04557648_2687.png
subject-04,1,451,NaN,na,bottle,1,0451_hp_s04_1_bottle_10_n03983396_8051.png
subject-04,1,452,0.708433151245117,bicycle,bicycle,0.7,0452_hp_s04_0.7_bicycle_10_n02835271_158.png
subject-04,1,453,0.790632009506226,airplane,airplane,0.55,0453_hp_s04_0.55_airplane_10_n02690373_3493.png
subject-04,1,454,0.781090021133423,truck,truck,3,0454_hp_s04_3_truck_10_n03417042_11091.png
subject-04,1,455,0.595664978027344,keyboard,keyboard,1.5,0455_hp_s04_1.5_keyboard_10_n04505470_709.png
subject-04,1,456,0.615435838699341,oven,keyboard,0.4,0456_hp_s04_0.4_keyboard_10_n03085013_13848.png
subject-04,1,457,0.665757894515991,oven,oven,0.4,0457_hp_s04_0.4_oven_10_n04111531_7050.png
subject-04,1,458,0.710458993911743,oven,boat,0.4,0458_hp_s04_0.4_boat_10_n03662601_1387.png
subject-04,1,459,1.20100808143616,knife,knife,1.5,0459_hp_s04_1.5_knife_10_n03041632_13194.png
subject-04,1,460,0.899538993835449,oven,knife,0.4,0460_hp_s04_0.4_knife_10_n03041632_79317.png
subject-04,1,461,1.21653199195862,cat,cat,1.5,0461_hp_s04_1.5_cat_10_n02123159_3804.png
subject-04,1,462,1.12292194366455,bear,cat,0.7,0462_hp_s04_0.7_cat_10_n02124075_5067.png
subject-04,1,463,0.775038957595825,bottle,knife,inf,0463_hp_s04_inf_knife_10_n03041632_15174.png
subject-04,1,464,0.773679971694946,oven,cat,0.4,0464_hp_s04_0.4_cat_10_n02123045_10118.png
subject-04,1,465,0.832128047943115,bottle,bottle,0.7,0465_hp_s04_0.7_bottle_10_n04560804_11900.png
subject-04,1,466,0.898458957672119,dog,dog,inf,0466_hp_s04_inf_dog_10_n02095889_9982.png
subject-04,1,467,0.766966819763184,elephant,elephant,0.7,0467_hp_s04_0.7_elephant_10_n02504013_2342.png
subject-04,1,468,1.24145793914795,bird,bird,1.5,0468_hp_s04_1.5_bird_10_n01537544_5649.png
subject-04,1,469,0.869801044464111,boat,boat,1.5,0469_hp_s04_1.5_boat_10_n03344393_6358.png
subject-04,1,470,1.05246591567993,oven,dog,0.55,0470_hp_s04_0.55_dog_10_n02102040_6763.png
subject-04,1,471,0.882699966430664,boat,truck,1.5,0471_hp_s04_1.5_truck_10_n03417042_910.png
subject-04,1,472,1.06355690956116,truck,truck,1.5,0472_hp_s04_1.5_truck_10_n03796401_2007.png
subject-04,1,473,1.03965902328491,oven,bicycle,0.55,0473_hp_s04_0.55_bicycle_10_n02835271_320.png
subject-04,1,474,1.22306895256042,bottle,bottle,0.7,0474_hp_s04_0.7_bottle_10_n02823428_7337.png
subject-04,1,475,0.928859949111938,bird,bird,3,0475_hp_s04_3_bird_10_n01843383_125.png
subject-04,1,476,1.34686994552612,truck,truck,3,0476_hp_s04_3_truck_10_n04467665_5510.png
subject-04,1,477,0.969854116439819,bottle,bottle,inf,0477_hp_s04_inf_bottle_10_n04557648_3350.png
subject-04,1,478,0.752017974853516,bicycle,bicycle,0.7,0478_hp_s04_0.7_bicycle_10_n03792782_11911.png
subject-04,1,479,1.01248788833618,oven,bird,0.7,0479_hp_s04_0.7_bird_10_n02011460_5835.png
subject-04,1,480,0.702954053878784,car,car,1,0480_hp_s04_1_car_10_n02814533_2530.png
subject-04,1,481,1.0951099395752,knife,airplane,0.55,0481_hp_s04_0.55_airplane_10_n02690373_3050.png
subject-04,1,482,0.693647861480713,bicycle,bicycle,1.5,0482_hp_s04_1.5_bicycle_10_n03792782_4472.png
subject-04,1,483,1.26011919975281,bicycle,bird,1.5,0483_hp_s04_1.5_bird_10_n02037110_3503.png
subject-04,1,484,0.880091905593872,elephant,elephant,3,0484_hp_s04_3_elephant_10_n02504458_6248.png
subject-04,1,485,1.1327691078186,elephant,elephant,1.5,0485_hp_s04_1.5_elephant_10_n02504013_44.png
subject-04,1,486,0.861333847045898,oven,dog,0.4,0486_hp_s04_0.4_dog_10_n02113712_7084.png
subject-04,1,487,0.689647912979126,boat,bird,0.7,0487_hp_s04_0.7_bird_10_n02051845_5718.png
subject-04,1,488,0.75805401802063,oven,oven,1,0488_hp_s04_1_oven_10_n04111531_2771.png
subject-04,1,489,1.14598894119263,dog,dog,1,0489_hp_s04_1_dog_10_n02105056_5686.png
subject-04,1,490,0.851861953735352,truck,truck,inf,0490_hp_s04_inf_truck_10_n04467665_4810.png
subject-04,1,491,1.18620300292969,truck,truck,1.5,0491_hp_s04_1.5_truck_10_n03796401_9472.png
subject-04,1,492,0.914671897888184,cat,cat,inf,0492_hp_s04_inf_cat_10_n02124075_14098.png
subject-04,1,493,0.91289210319519,oven,oven,inf,0493_hp_s04_inf_oven_10_n04111531_2831.png
subject-04,1,494,0.635668992996216,oven,oven,0.55,0494_hp_s04_0.55_oven_10_n04111531_6628.png
subject-04,1,495,0.755475044250488,oven,bottle,0.4,0495_hp_s04_0.4_bottle_10_n04557648_26717.png
subject-04,1,496,NaN,na,dog,inf,0496_hp_s04_inf_dog_10_n02088094_3426.png
subject-04,1,497,0.912523984909058,bird,bird,3,0497_hp_s04_3_bird_10_n02028035_7968.png
subject-04,1,498,0.902698993682861,elephant,elephant,1,0498_hp_s04_1_elephant_10_n02504458_5562.png
subject-04,1,499,0.639518022537231,cat,cat,inf,0499_hp_s04_inf_cat_10_n02123394_6311.png
subject-04,1,500,1.00578594207764,clock,clock,inf,0500_hp_s04_inf_clock_10_n04548280_9533.png
subject-04,1,501,0.736344814300537,bicycle,bicycle,1,0501_hp_s04_1_bicycle_10_n03792782_11949.png
subject-04,1,502,0.940349102020264,chair,chair,inf,0502_hp_s04_inf_chair_10_n04429376_24375.png
subject-04,1,503,0.714632034301758,keyboard,keyboard,inf,0503_hp_s04_inf_keyboard_10_n04505470_532.png
subject-04,1,504,0.881142854690552,bird,bird,1,0504_hp_s04_1_bird_10_n01797886_2017.png
subject-04,1,505,0.757370948791504,car,car,inf,0505_hp_s04_inf_car_10_n04285008_2747.png
subject-04,1,506,1.02383518218994,oven,dog,0.7,0506_hp_s04_0.7_dog_10_n02112018_8064.png
subject-04,1,507,0.78164005279541,oven,knife,0.4,0507_hp_s04_0.4_knife_10_n03041632_11887.png
subject-04,1,508,0.750231981277466,keyboard,keyboard,1,0508_hp_s04_1_keyboard_10_n04505470_8782.png
subject-04,1,509,0.916673183441162,oven,airplane,0.55,0509_hp_s04_0.55_airplane_10_n02690373_1119.png
subject-04,1,510,0.815395832061768,bear,bear,1,0510_hp_s04_1_bear_10_n02133161_18699.png
subject-04,1,511,0.813860177993774,oven,elephant,0.4,0511_hp_s04_0.4_elephant_10_n02504458_996.png
subject-04,1,512,0.864122867584229,oven,elephant,0.4,0512_hp_s04_0.4_elephant_10_n02504013_3652.png
subject-04,1,513,0.80869197845459,oven,bottle,0.45,0513_hp_s04_0.45_bottle_10_n04560804_3130.png
subject-04,1,514,0.998804092407227,keyboard,keyboard,0.7,0514_hp_s04_0.7_keyboard_10_n03085013_7752.png
subject-04,1,515,0.688309192657471,oven,airplane,0.4,0515_hp_s04_0.4_airplane_10_n02690373_19131.png
subject-04,1,516,1.18495106697083,keyboard,keyboard,3,0516_hp_s04_3_keyboard_10_n03085013_23275.png
subject-04,1,517,1.05881595611572,oven,cat,0.55,0517_hp_s04_0.55_cat_10_n02125311_34817.png
subject-04,1,518,1.50025820732117,oven,elephant,1,0518_hp_s04_1_elephant_10_n02504458_5758.png
subject-04,1,519,1.20559906959534,elephant,elephant,3,0519_hp_s04_3_elephant_10_n02504013_10257.png
subject-04,1,520,1.01209115982056,bicycle,bicycle,3,0520_hp_s04_3_bicycle_10_n02835271_19309.png
subject-04,1,521,1.03216600418091,knife,knife,0.55,0521_hp_s04_0.55_knife_10_n03041632_40887.png
subject-04,1,522,1.12864685058594,oven,oven,1,0522_hp_s04_1_oven_10_n04111531_2006.png
subject-04,1,523,0.997003078460693,keyboard,knife,1.5,0523_hp_s04_1.5_knife_10_n03041632_25331.png
subject-04,1,524,0.77147102355957,oven,clock,0.45,0524_hp_s04_0.45_clock_10_n02708093_7007.png
subject-04,1,525,1.01254296302795,car,oven,1.5,0525_hp_s04_1.5_oven_10_n04111531_22466.png
subject-04,1,526,0.965085983276367,cat,cat,1,0526_hp_s04_1_cat_10_n02123045_21094.png
subject-04,1,527,1.14431715011597,cat,cat,3,0527_hp_s04_3_cat_10_n02123045_7290.png
subject-04,1,528,0.958652973175049,truck,truck,3,0528_hp_s04_3_truck_10_n03796401_1150.png
subject-04,1,529,1.04683899879456,clock,clock,inf,0529_hp_s04_inf_clock_10_n04548280_696.png
subject-04,1,530,0.961212873458862,boat,boat,inf,0530_hp_s04_inf_boat_10_n03344393_1392.png
subject-04,1,531,1.01378107070923,oven,oven,0.55,0531_hp_s04_0.55_oven_10_n04111531_6695.png
subject-04,1,532,1.09430599212646,oven,dog,0.55,0532_hp_s04_0.55_dog_10_n02087394_6897.png
subject-04,1,533,0.838545083999634,oven,boat,0.4,0533_hp_s04_0.4_boat_10_n03344393_6713.png
subject-04,1,534,1.21316289901733,dog,dog,3,0534_hp_s04_3_dog_10_n02108422_9145.png
subject-04,1,535,1.04179000854492,oven,knife,1.5,0535_hp_s04_1.5_knife_10_n03041632_25512.png
subject-04,1,536,1.04021692276001,oven,chair,0.45,0536_hp_s04_0.45_chair_10_n03376595_12326.png
subject-04,1,537,0.900321960449219,chair,chair,0.7,0537_hp_s04_0.7_chair_10_n04099969_416.png
subject-04,1,538,0.766805171966553,bear,bear,inf,0538_hp_s04_inf_bear_10_n02134084_20133.png
subject-04,1,539,0.679100036621094,cat,cat,3,0539_hp_s04_3_cat_10_n02123045_10689.png
subject-04,1,540,0.685537099838257,oven,bottle,0.45,0540_hp_s04_0.45_bottle_10_n03937543_8707.png
subject-04,1,541,1.49546098709106,knife,knife,1.5,0541_hp_s04_1.5_knife_10_n03041632_48062.png
subject-04,1,542,0.847799062728882,oven,chair,3,0542_hp_s04_3_chair_10_n04429376_3940.png
subject-04,1,543,0.60014009475708,oven,cat,0.4,0543_hp_s04_0.4_cat_10_n02123597_11436.png
subject-04,1,544,0.698318958282471,clock,clock,3,0544_hp_s04_3_clock_10_n02708093_774.png
subject-04,1,545,0.680711030960083,oven,keyboard,0.55,0545_hp_s04_0.55_keyboard_10_n03085013_20078.png
subject-04,1,546,0.709457874298096,oven,bicycle,0.4,0546_hp_s04_0.4_bicycle_10_n03792782_12665.png
subject-04,1,547,0.675034046173096,oven,chair,0.4,0547_hp_s04_0.4_chair_10_n04099969_4662.png
subject-04,1,548,0.857691049575806,chair,chair,inf,0548_hp_s04_inf_chair_10_n03376595_9650.png
subject-04,1,549,0.793978929519653,bear,bear,1,0549_hp_s04_1_bear_10_n02132136_2810.png
subject-04,1,550,0.670525789260864,airplane,airplane,3,0550_hp_s04_3_airplane_10_n02690373_4706.png
subject-04,1,551,0.429160118103027,oven,bottle,0.55,0551_hp_s04_0.55_bottle_10_n04591713_1905.png
subject-04,1,552,0.465762853622437,oven,car,0.4,0552_hp_s04_0.4_car_10_n04285008_11713.png
subject-04,1,553,1.28623509407043,bear,bear,0.55,0553_hp_s04_0.55_bear_10_n02132136_1858.png
subject-04,1,554,0.584542036056519,oven,knife,0.45,0554_hp_s04_0.45_knife_10_n03041632_31367.png
subject-04,1,555,0.642968893051147,oven,oven,3,0555_hp_s04_3_oven_10_n04111531_4012.png
subject-04,1,556,1.29332804679871,car,car,0.45,0556_hp_s04_0.45_car_10_n04285008_2699.png
subject-04,1,557,0.56182599067688,clock,clock,3,0557_hp_s04_3_clock_10_n02708093_4597.png
subject-04,1,558,1.5000159740448,dog,dog,1,0558_hp_s04_1_dog_10_n02110958_6998.png
subject-04,1,559,0.81831693649292,clock,clock,0.55,0559_hp_s04_0.55_clock_10_n03196217_847.png
subject-04,1,560,0.500945091247559,oven,clock,0.55,0560_hp_s04_0.55_clock_10_n03196217_10246.png
subject-04,1,561,0.729317903518677,oven,cat,0.7,0561_hp_s04_0.7_cat_10_n02123394_513.png
subject-04,1,562,0.773813009262085,keyboard,keyboard,0.7,0562_hp_s04_0.7_keyboard_10_n04505470_930.png
subject-04,1,563,0.509618043899536,oven,clock,0.4,0563_hp_s04_0.4_clock_10_n02708093_57.png
subject-04,1,564,0.714258193969727,oven,cat,0.4,0564_hp_s04_0.4_cat_10_n02123045_453.png
subject-04,1,565,0.657962083816528,knife,knife,inf,0565_hp_s04_inf_knife_10_n03041632_35365.png
subject-04,1,566,0.640367984771729,oven,keyboard,0.45,0566_hp_s04_0.45_keyboard_10_n04505470_1551.png
subject-04,1,567,0.768413066864014,keyboard,keyboard,3,0567_hp_s04_3_keyboard_10_n04505470_2816.png
subject-04,1,568,0.726909160614014,oven,oven,0.7,0568_hp_s04_0.7_oven_10_n04111531_5781.png
subject-04,1,569,0.725458860397339,bicycle,bicycle,1,0569_hp_s04_1_bicycle_10_n02835271_19019.png
subject-04,1,570,0.715362071990967,clock,clock,1,0570_hp_s04_1_clock_10_n04548280_8454.png
subject-04,1,571,0.735848903656006,oven,oven,0.45,0571_hp_s04_0.45_oven_10_n04111531_14055.png
subject-04,1,572,NaN,na,airplane,0.7,0572_hp_s04_0.7_airplane_10_n02690373_5055.png
subject-04,1,573,0.862478971481323,clock,clock,1,0573_hp_s04_1_clock_10_n02708093_2197.png
subject-04,1,574,0.874881029129028,knife,oven,1,0574_hp_s04_1_oven_10_n04111531_3470.png
subject-04,1,575,0.703346014022827,oven,bear,0.55,0575_hp_s04_0.55_bear_10_n02132136_7206.png
subject-04,1,576,0.739964962005615,knife,knife,3,0576_hp_s04_3_knife_10_n03041632_38535.png
subject-04,1,577,0.722407817840576,oven,bird,0.45,0577_hp_s04_0.45_bird_10_n01855672_9178.png
subject-04,1,578,0.752758026123047,bear,bear,3,0578_hp_s04_3_bear_10_n02134418_495.png
subject-04,1,579,0.686769008636475,keyboard,knife,1,0579_hp_s04_1_knife_10_n03041632_30565.png
subject-04,1,580,0.6475510597229,keyboard,keyboard,1.5,0580_hp_s04_1.5_keyboard_10_n03085013_8714.png
subject-04,1,581,0.972480058670044,dog,dog,inf,0581_hp_s04_inf_dog_10_n02093256_21901.png
subject-04,1,582,0.678243160247803,oven,truck,0.4,0582_hp_s04_0.4_truck_10_n03417042_213.png
subject-04,1,583,0.661010980606079,oven,keyboard,0.45,0583_hp_s04_0.45_keyboard_10_n03085013_1695.png
subject-04,1,584,1.17922401428223,truck,truck,1,0584_hp_s04_1_truck_10_n03796401_3191.png
subject-04,1,585,0.901612043380737,cat,cat,3,0585_hp_s04_3_cat_10_n02123394_68.png
subject-04,1,586,1.05988907814026,airplane,airplane,1.5,0586_hp_s04_1.5_airplane_10_n02690373_6536.png
subject-04,1,587,0.874444007873535,clock,keyboard,inf,0587_hp_s04_inf_keyboard_10_n03085013_3666.png
subject-04,1,588,0.956990003585815,keyboard,elephant,0.45,0588_hp_s04_0.45_elephant_10_n02504013_2844.png
subject-04,1,589,1.19355320930481,clock,chair,0.45,0589_hp_s04_0.45_chair_10_n03376595_13441.png
subject-04,1,590,0.96763801574707,bottle,bottle,1,0590_hp_s04_1_bottle_10_n02823428_1222.png
subject-04,1,591,0.866008996963501,keyboard,bicycle,0.55,0591_hp_s04_0.55_bicycle_10_n03792782_21459.png
subject-04,1,592,0.593919038772583,airplane,airplane,0.7,0592_hp_s04_0.7_airplane_10_n02690373_9529.png
subject-04,1,593,0.868489027023315,bird,bird,1,0593_hp_s04_1_bird_10_n02051845_4527.png
subject-04,1,594,0.726554155349731,bottle,bottle,3,0594_hp_s04_3_bottle_10_n04579145_2485.png
subject-04,1,595,0.853940010070801,dog,dog,3,0595_hp_s04_3_dog_10_n02112706_4758.png
subject-04,1,596,1.03433704376221,bottle,oven,1,0596_hp_s04_1_oven_10_n04111531_6454.png
subject-04,1,597,0.818821907043457,oven,boat,0.55,0597_hp_s04_0.55_boat_10_n03344393_7371.png
subject-04,1,598,0.655102014541626,oven,oven,inf,0598_hp_s04_inf_oven_10_n04111531_1128.png
subject-04,1,599,0.843188047409058,bird,bird,inf,0599_hp_s04_inf_bird_10_n02018207_5036.png
subject-04,1,600,0.687736988067627,oven,keyboard,0.4,0600_hp_s04_0.4_keyboard_10_n03085013_7440.png
subject-04,1,601,0.846081018447876,oven,elephant,0.55,0601_hp_s04_0.55_elephant_10_n02504013_26543.png
subject-04,1,602,0.760596036911011,airplane,knife,0.7,0602_hp_s04_0.7_knife_10_n03041632_48071.png
subject-04,1,603,0.719295978546143,chair,chair,1,0603_hp_s04_1_chair_10_n04429376_39889.png
subject-04,1,604,0.517467021942139,oven,clock,0.45,0604_hp_s04_0.45_clock_10_n04548280_4653.png
subject-04,1,605,1.21392178535461,airplane,airplane,3,0605_hp_s04_3_airplane_10_n02690373_1325.png
subject-04,1,606,0.628684043884277,oven,clock,0.45,0606_hp_s04_0.45_clock_10_n03196217_8618.png
subject-04,1,607,0.705107927322388,airplane,airplane,1,0607_hp_s04_1_airplane_10_n02690373_4066.png
subject-04,1,608,0.809193849563599,airplane,airplane,1.5,0608_hp_s04_1.5_airplane_10_n02690373_18845.png
subject-04,1,609,0.889271020889282,truck,truck,1,0609_hp_s04_1_truck_10_n03796401_40.png
subject-04,1,610,0.90998101234436,clock,bicycle,0.7,0610_hp_s04_0.7_bicycle_10_n03792782_42182.png
subject-04,1,611,1.03794002532959,cat,cat,1.5,0611_hp_s04_1.5_cat_10_n02123394_2285.png
subject-04,1,612,0.794179916381836,oven,dog,0.4,0612_hp_s04_0.4_dog_10_n02088094_11150.png
subject-04,1,613,0.868849039077759,cat,cat,3,0613_hp_s04_3_cat_10_n02123159_4515.png
subject-04,1,614,0.512763023376465,oven,bear,0.45,0614_hp_s04_0.45_bear_10_n02132136_228.png
subject-04,1,615,0.809149980545044,cat,dog,1,0615_hp_s04_1_dog_10_n02093754_3114.png
subject-04,1,616,0.770063161849976,bird,bird,3,0616_hp_s04_3_bird_10_n02009229_5285.png
subject-04,1,617,1.0041069984436,boat,boat,1,0617_hp_s04_1_boat_10_n02951358_33918.png
subject-04,1,618,0.818902015686035,oven,knife,3,0618_hp_s04_3_knife_10_n03041632_27929.png
subject-04,1,619,0.669232845306396,oven,knife,0.55,0619_hp_s04_0.55_knife_10_n03041632_40508.png
subject-04,1,620,0.591797113418579,oven,truck,0.55,0620_hp_s04_0.55_truck_10_n03796401_6315.png
subject-04,1,621,0.966453075408936,airplane,airplane,inf,0621_hp_s04_inf_airplane_10_n02690373_6978.png
subject-04,1,622,0.6789710521698,oven,dog,0.4,0622_hp_s04_0.4_dog_10_n02097130_1999.png
subject-04,1,623,0.783338785171509,boat,boat,inf,0623_hp_s04_inf_boat_10_n03344393_2469.png
subject-04,1,624,0.797843933105469,oven,elephant,0.55,0624_hp_s04_0.55_elephant_10_n02504013_8562.png
subject-04,1,625,0.672209978103638,oven,bird,0.7,0625_hp_s04_0.7_bird_10_n01601694_19895.png
subject-04,1,626,0.809096097946167,bottle,bottle,1,0626_hp_s04_1_bottle_10_n02823428_11371.png
subject-04,1,627,0.813100814819336,bottle,bottle,0.7,0627_hp_s04_0.7_bottle_10_n04591713_6997.png
subject-04,1,628,0.771603107452393,bicycle,bicycle,1.5,0628_hp_s04_1.5_bicycle_10_n02835271_70.png
subject-04,1,629,0.640239953994751,oven,boat,0.45,0629_hp_s04_0.45_boat_10_n03344393_2024.png
subject-04,1,630,0.860476016998291,knife,knife,1,0630_hp_s04_1_knife_10_n03041632_36277.png
subject-04,1,631,0.7968430519104,car,car,1,0631_hp_s04_1_car_10_n04285008_11394.png
subject-04,1,632,0.85520601272583,oven,airplane,0.55,0632_hp_s04_0.55_airplane_10_n02690373_9687.png
subject-04,1,633,1.1133120059967,clock,clock,1,0633_hp_s04_1_clock_10_n04548280_2947.png
subject-04,1,634,1.19434404373169,oven,knife,1,0634_hp_s04_1_knife_10_n03041632_43975.png
subject-04,1,635,0.861891984939575,oven,keyboard,0.7,0635_hp_s04_0.7_keyboard_10_n03085013_999.png
subject-04,1,636,0.598785161972046,oven,car,0.4,0636_hp_s04_0.4_car_10_n04285008_3135.png
subject-04,1,637,0.688804149627686,keyboard,keyboard,1.5,0637_hp_s04_1.5_keyboard_10_n03085013_29396.png
subject-04,1,638,0.793163061141968,keyboard,chair,0.45,0638_hp_s04_0.45_chair_10_n03376595_2001.png
subject-04,1,639,1.02980017662048,oven,car,0.55,0639_hp_s04_0.55_car_10_n03100240_627.png
subject-04,1,640,0.888353109359741,airplane,airplane,1.5,0640_hp_s04_1.5_airplane_10_n02690373_1295.png
subject-04,1,641,0.842427968978882,bicycle,bicycle,0.7,0641_hp_s04_0.7_bicycle_10_n03792782_50743.png
subject-04,1,642,0.592767000198364,oven,bear,0.55,0642_hp_s04_0.55_bear_10_n02133161_12895.png
subject-04,1,643,0.621126890182495,keyboard,keyboard,0.55,0643_hp_s04_0.55_keyboard_10_n03085013_3204.png
subject-04,1,644,0.695172786712646,oven,keyboard,0.45,0644_hp_s04_0.45_keyboard_10_n03085013_21971.png
subject-04,1,645,0.639623880386353,oven,bear,1,0645_hp_s04_1_bear_10_n02133161_1187.png
subject-04,1,646,0.714168787002563,oven,clock,1,0646_hp_s04_1_clock_10_n04548280_1109.png
subject-04,1,647,0.742573022842407,oven,bear,0.7,0647_hp_s04_0.7_bear_10_n02133161_792.png
subject-04,1,648,0.670767068862915,oven,oven,0.45,0648_hp_s04_0.45_oven_10_n04111531_15629.png
subject-04,1,649,0.706789970397949,oven,oven,0.7,0649_hp_s04_0.7_oven_10_n04111531_21896.png
subject-04,1,650,0.889917850494385,clock,clock,1.5,0650_hp_s04_1.5_clock_10_n02708093_7020.png
subject-04,1,651,1.07249307632446,car,car,1.5,0651_hp_s04_1.5_car_10_n04285008_10561.png
subject-04,1,652,0.862592935562134,oven,bird,0.4,0652_hp_s04_0.4_bird_10_n02028035_9755.png
subject-04,1,653,0.653253078460693,keyboard,keyboard,1,0653_hp_s04_1_keyboard_10_n04505470_8148.png
subject-04,1,654,0.670065879821777,airplane,airplane,0.7,0654_hp_s04_0.7_airplane_10_n02690373_4586.png
subject-04,1,655,0.744521856307983,oven,cat,0.45,0655_hp_s04_0.45_cat_10_n02123394_3714.png
subject-04,1,656,0.648368835449219,oven,bear,0.4,0656_hp_s04_0.4_bear_10_n02134084_6863.png
subject-04,1,657,0.592777967453003,oven,bird,0.4,0657_hp_s04_0.4_bird_10_n02006656_5217.png
subject-04,1,658,0.829416036605835,knife,knife,inf,0658_hp_s04_inf_knife_10_n03041632_29886.png
subject-04,1,659,0.649899005889893,oven,bird,0.45,0659_hp_s04_0.45_bird_10_n02033041_15162.png
subject-04,1,660,0.523825168609619,oven,dog,0.45,0660_hp_s04_0.45_dog_10_n02088632_9005.png
subject-04,1,661,0.646360874176025,clock,clock,3,0661_hp_s04_3_clock_10_n04548280_7436.png
subject-04,1,662,0.689069032669067,bottle,bottle,inf,0662_hp_s04_inf_bottle_10_n02823428_3976.png
subject-04,1,663,0.627465963363647,car,car,3,0663_hp_s04_3_car_10_n02814533_2170.png
subject-04,1,664,0.699455976486206,boat,boat,3,0664_hp_s04_3_boat_10_n03344393_6356.png
subject-04,1,665,0.689647912979126,oven,boat,0.55,0665_hp_s04_0.55_boat_10_n04273569_18447.png
subject-04,1,666,0.680523157119751,airplane,airplane,1.5,0666_hp_s04_1.5_airplane_10_n02690373_5382.png
subject-04,1,667,0.614461898803711,oven,bird,0.45,0667_hp_s04_0.45_bird_10_n01843383_778.png
subject-04,1,668,0.658788919448853,bicycle,bicycle,3,0668_hp_s04_3_bicycle_10_n02835271_15911.png
subject-04,1,669,0.662752866744995,keyboard,keyboard,1.5,0669_hp_s04_1.5_keyboard_10_n04505470_2040.png
subject-04,1,670,0.636964082717896,oven,bicycle,0.4,0670_hp_s04_0.4_bicycle_10_n03792782_32232.png
subject-04,1,671,0.711404085159302,oven,oven,0.7,0671_hp_s04_0.7_oven_10_n04111531_5802.png
subject-04,1,672,0.618085861206055,clock,clock,1.5,0672_hp_s04_1.5_clock_10_n03196217_6249.png
subject-04,1,673,0.576632022857666,oven,cat,0.7,0673_hp_s04_0.7_cat_10_n02123597_2787.png
subject-04,1,674,0.700599193572998,oven,oven,1.5,0674_hp_s04_1.5_oven_10_n04111531_458.png
subject-04,1,675,0.653226852416992,cat,cat,1,0675_hp_s04_1_cat_10_n02123045_9889.png
subject-04,1,676,0.735010862350464,oven,elephant,0.55,0676_hp_s04_0.55_elephant_10_n02504013_2479.png
subject-04,1,677,0.777510166168213,truck,truck,1.5,0677_hp_s04_1.5_truck_10_n03417042_8998.png
subject-04,1,678,0.930438995361328,bottle,bottle,1,0678_hp_s04_1_bottle_10_n04560804_2165.png
subject-04,1,679,0.734161853790283,bicycle,bicycle,1,0679_hp_s04_1_bicycle_10_n02835271_10556.png
subject-04,1,680,0.633129119873047,oven,bear,0.4,0680_hp_s04_0.4_bear_10_n02134084_160.png
subject-04,1,681,1.49157905578613,bird,car,inf,0681_hp_s04_inf_car_10_n03100240_13707.png
subject-04,1,682,1.16582679748535,oven,bicycle,0.4,0682_hp_s04_0.4_bicycle_10_n03792782_29100.png
subject-04,1,683,0.772182941436768,chair,chair,1.5,0683_hp_s04_1.5_chair_10_n04429376_1501.png
subject-04,1,684,0.59498119354248,oven,car,0.4,0684_hp_s04_0.4_car_10_n03100240_756.png
subject-04,1,685,0.791357040405273,car,truck,1.5,0685_hp_s04_1.5_truck_10_n04467665_9625.png
subject-04,1,686,0.973941087722778,oven,clock,0.45,0686_hp_s04_0.45_clock_10_n02708093_664.png
subject-04,1,687,0.802293062210083,oven,bottle,0.4,0687_hp_s04_0.4_bottle_10_n04591713_2245.png
subject-04,1,688,0.946989059448242,elephant,elephant,3,0688_hp_s04_3_elephant_10_n02504013_2559.png
subject-04,1,689,0.837496995925903,keyboard,keyboard,inf,0689_hp_s04_inf_keyboard_10_n03085013_1944.png
subject-04,1,690,1.47739696502686,truck,truck,0.55,0690_hp_s04_0.55_truck_10_n03796401_13740.png
subject-04,1,691,0.9319748878479,oven,bird,0.45,0691_hp_s04_0.45_bird_10_n02011460_1487.png
subject-04,1,692,1.0902681350708,elephant,dog,0.7,0692_hp_s04_0.7_dog_10_n02107683_3433.png
subject-04,1,693,0.948975086212158,truck,truck,inf,0693_hp_s04_inf_truck_10_n04467665_1745.png
subject-04,1,694,0.647562026977539,elephant,elephant,3,0694_hp_s04_3_elephant_10_n02504013_7006.png
subject-04,1,695,1.23000192642212,keyboard,keyboard,1.5,0695_hp_s04_1.5_keyboard_10_n04505470_4909.png
subject-04,1,696,1.31803894042969,keyboard,bottle,0.7,0696_hp_s04_0.7_bottle_10_n03937543_3697.png
subject-04,1,697,1.3307580947876,truck,truck,3,0697_hp_s04_3_truck_10_n03417042_18374.png
subject-04,1,698,0.991219043731689,bottle,bottle,inf,0698_hp_s04_inf_bottle_10_n02823428_3694.png
subject-04,1,699,1.01879715919495,keyboard,bicycle,1,0699_hp_s04_1_bicycle_10_n03792782_19985.png
subject-04,1,700,0.731281995773315,oven,airplane,0.4,0700_hp_s04_0.4_airplane_10_n02690373_4452.png
subject-04,1,701,0.699769973754883,chair,chair,1.5,0701_hp_s04_1.5_chair_10_n03376595_4850.png
subject-04,1,702,0.780256986618042,boat,boat,1,0702_hp_s04_1_boat_10_n03662601_20797.png
subject-04,1,703,0.716779947280884,clock,clock,1.5,0703_hp_s04_1.5_clock_10_n04548280_467.png
subject-04,1,704,0.645343065261841,oven,oven,0.45,0704_hp_s04_0.45_oven_10_n04111531_7910.png
subject-04,1,705,0.703524112701416,chair,chair,3,0705_hp_s04_3_chair_10_n04099969_12574.png
subject-04,1,706,0.64016580581665,keyboard,clock,0.7,0706_hp_s04_0.7_clock_10_n03196217_3292.png
subject-04,1,707,0.66022515296936,oven,chair,3,0707_hp_s04_3_chair_10_n04429376_18627.png
subject-04,1,708,1.03418302536011,bird,bird,inf,0708_hp_s04_inf_bird_10_n01798484_8891.png
subject-04,1,709,0.624552011489868,oven,chair,0.45,0709_hp_s04_0.45_chair_10_n04429376_16033.png
subject-04,1,710,0.607190132141113,oven,car,0.45,0710_hp_s04_0.45_car_10_n04285008_12206.png
subject-04,1,711,0.603398084640503,oven,oven,3,0711_hp_s04_3_oven_10_n04111531_15683.png
subject-04,1,712,0.57170295715332,boat,boat,1,0712_hp_s04_1_boat_10_n03344393_646.png
subject-04,1,713,0.705665826797485,chair,chair,0.55,0713_hp_s04_0.55_chair_10_n03376595_3181.png
subject-04,1,714,0.7342529296875,oven,bicycle,0.55,0714_hp_s04_0.55_bicycle_10_n03792782_41213.png
subject-04,1,715,0.908612966537476,boat,bicycle,1.5,0715_hp_s04_1.5_bicycle_10_n02835271_232.png
subject-04,1,716,0.844659805297852,bird,bird,3,0716_hp_s04_3_bird_10_n01829413_2650.png
subject-04,1,717,0.925059080123901,oven,dog,0.45,0717_hp_s04_0.45_dog_10_n02101006_4803.png
subject-04,1,718,NaN,na,bird,inf,0718_hp_s04_inf_bird_10_n01798484_3361.png
subject-04,1,719,1.16616892814636,bear,bear,1,0719_hp_s04_1_bear_10_n02134084_2082.png
subject-04,1,720,0.904694080352783,elephant,elephant,0.7,0720_hp_s04_0.7_elephant_10_n02504013_4268.png
subject-04,1,721,0.925090074539185,oven,bottle,3,0721_hp_s04_3_bottle_10_n04557648_444.png
subject-04,1,722,0.84525990486145,bicycle,bicycle,3,0722_hp_s04_3_bicycle_10_n03792782_38641.png
subject-04,1,723,0.689454078674316,boat,boat,1,0723_hp_s04_1_boat_10_n04273569_12991.png
subject-04,1,724,0.991958856582642,oven,truck,0.7,0724_hp_s04_0.7_truck_10_n03417042_1770.png
subject-04,1,725,0.889416933059692,oven,bottle,0.45,0725_hp_s04_0.45_bottle_10_n03937543_598.png
subject-04,1,726,0.963783979415894,oven,oven,0.7,0726_hp_s04_0.7_oven_10_n04111531_14441.png
subject-04,1,727,0.859960079193115,bottle,bottle,1.5,0727_hp_s04_1.5_bottle_10_n03937543_10027.png
subject-04,1,728,0.757694005966187,oven,bird,0.7,0728_hp_s04_0.7_bird_10_n01514859_2794.png
subject-04,1,729,1.12414813041687,bicycle,bicycle,inf,0729_hp_s04_inf_bicycle_10_n02835271_7628.png
subject-04,1,730,1.24504017829895,oven,airplane,0.55,0730_hp_s04_0.55_airplane_10_n02690373_2750.png
subject-04,1,731,0.851293087005615,oven,knife,0.7,0731_hp_s04_0.7_knife_10_n03041632_2386.png
subject-04,1,732,0.795851945877075,oven,oven,0.4,0732_hp_s04_0.4_oven_10_n04111531_14178.png
subject-04,1,733,0.794227123260498,oven,bottle,0.55,0733_hp_s04_0.55_bottle_10_n04560804_12816.png
subject-04,1,734,1.09083604812622,bicycle,bicycle,0.7,0734_hp_s04_0.7_bicycle_10_n03792782_11043.png
subject-04,1,735,1.0269410610199,oven,knife,0.4,0735_hp_s04_0.4_knife_10_n03041632_2644.png
subject-04,1,736,1.10123586654663,dog,dog,1,0736_hp_s04_1_dog_10_n02105162_474.png
subject-04,1,737,0.983419179916382,oven,chair,0.45,0737_hp_s04_0.45_chair_10_n04429376_353.png
subject-04,1,738,0.879940986633301,bear,cat,1,0738_hp_s04_1_cat_10_n02123394_6521.png
subject-04,1,739,0.924470901489258,oven,oven,inf,0739_hp_s04_inf_oven_10_n04111531_7452.png
subject-04,1,740,1.02898621559143,bird,dog,1.5,0740_hp_s04_1.5_dog_10_n02097130_4770.png
subject-04,1,741,0.811270952224731,oven,bottle,0.4,0741_hp_s04_0.4_bottle_10_n02823428_13048.png
subject-04,1,742,0.88572096824646,oven,chair,1,0742_hp_s04_1_chair_10_n03376595_54.png
subject-04,1,743,0.762385129928589,oven,bear,0.4,0743_hp_s04_0.4_bear_10_n02133161_564.png
subject-04,1,744,0.812683820724487,car,car,1.5,0744_hp_s04_1.5_car_10_n03100240_3244.png
subject-04,1,745,0.908504009246826,cat,cat,1.5,0745_hp_s04_1.5_cat_10_n02125311_2861.png
subject-04,1,746,0.961309909820557,dog,dog,1.5,0746_hp_s04_1.5_dog_10_n02089973_5461.png
subject-04,1,747,0.78433895111084,oven,airplane,0.45,0747_hp_s04_0.45_airplane_10_n02690373_4251.png
subject-04,1,748,0.918920993804932,elephant,elephant,0.7,0748_hp_s04_0.7_elephant_10_n02504013_6780.png
subject-04,1,749,0.655296087265015,oven,bear,0.55,0749_hp_s04_0.55_bear_10_n02134418_5510.png
subject-04,1,750,0.845425128936768,airplane,airplane,3,0750_hp_s04_3_airplane_10_n02690373_6363.png
subject-04,1,751,0.727676868438721,bicycle,bicycle,1,0751_hp_s04_1_bicycle_10_n02835271_4220.png
subject-04,1,752,0.701849937438965,oven,chair,0.7,0752_hp_s04_0.7_chair_10_n04429376_35063.png
subject-04,1,753,0.673882961273193,oven,oven,0.55,0753_hp_s04_0.55_oven_10_n04111531_18520.png
subject-04,1,754,0.793959856033325,oven,keyboard,0.4,0754_hp_s04_0.4_keyboard_10_n04505470_4751.png
subject-04,1,755,0.668261051177979,keyboard,keyboard,inf,0755_hp_s04_inf_keyboard_10_n03085013_23697.png
subject-04,1,756,0.81292200088501,bottle,bottle,1.5,0756_hp_s04_1.5_bottle_10_n04591713_5759.png
subject-04,1,757,0.749309062957764,bicycle,bicycle,0.7,0757_hp_s04_0.7_bicycle_10_n02835271_4246.png
subject-04,1,758,0.631410837173462,keyboard,keyboard,0.55,0758_hp_s04_0.55_keyboard_10_n04505470_4994.png
subject-04,1,759,0.665314912796021,oven,car,0.45,0759_hp_s04_0.45_car_10_n03100240_8743.png
subject-04,1,760,0.755908966064453,airplane,airplane,0.7,0760_hp_s04_0.7_airplane_10_n02690373_5724.png
subject-04,1,761,0.946254968643188,oven,oven,1.5,0761_hp_s04_1.5_oven_10_n04111531_5694.png
subject-04,1,762,1.50019979476929,bear,bear,1,0762_hp_s04_1_bear_10_n02132136_13604.png
subject-04,1,763,1.11745882034302,oven,bottle,1.5,0763_hp_s04_1.5_bottle_10_n03937543_3737.png
subject-04,1,764,NaN,na,boat,0.55,0764_hp_s04_0.55_boat_10_n04273569_17942.png
subject-04,1,765,0.77417516708374,cat,cat,inf,0765_hp_s04_inf_cat_10_n02123045_8605.png
subject-04,1,766,0.732165813446045,oven,boat,0.4,0766_hp_s04_0.4_boat_10_n02951358_2910.png
subject-04,1,767,0.65495491027832,car,car,0.7,0767_hp_s04_0.7_car_10_n02814533_4399.png
subject-04,1,768,0.78905200958252,airplane,airplane,0.7,0768_hp_s04_0.7_airplane_10_n02690373_2648.png
subject-04,1,769,0.717283010482788,oven,oven,0.45,0769_hp_s04_0.45_oven_10_n04111531_505.png
subject-04,1,770,0.853999853134155,oven,oven,0.7,0770_hp_s04_0.7_oven_10_n04111531_21055.png
subject-04,1,771,0.759957075119019,oven,dog,3,0771_hp_s04_3_dog_10_n02086646_5324.png
subject-04,1,772,1.14032602310181,car,car,1.5,0772_hp_s04_1.5_car_10_n03100240_3234.png
subject-04,1,773,NaN,na,elephant,1.5,0773_hp_s04_1.5_elephant_10_n02504458_1623.png
subject-04,1,774,1.36571907997131,dog,dog,inf,0774_hp_s04_inf_dog_10_n02086240_12664.png
subject-04,1,775,1.07185006141663,oven,keyboard,0.45,0775_hp_s04_0.45_keyboard_10_n03085013_23596.png
subject-04,1,776,0.632340908050537,oven,oven,3,0776_hp_s04_3_oven_10_n04111531_7345.png
subject-04,1,777,0.69902515411377,oven,knife,0.55,0777_hp_s04_0.55_knife_10_n03041632_33198.png
subject-04,1,778,0.88135814666748,car,boat,0.45,0778_hp_s04_0.45_boat_10_n04273569_20158.png
subject-04,1,779,1.40750789642334,boat,boat,1.5,0779_hp_s04_1.5_boat_10_n04273569_13091.png
subject-04,1,780,0.997906923294067,truck,truck,inf,0780_hp_s04_inf_truck_10_n03796401_3318.png
subject-04,1,781,0.766265869140625,oven,bird,0.7,0781_hp_s04_0.7_bird_10_n01860187_2572.png
subject-04,1,782,0.724530935287476,cat,cat,3,0782_hp_s04_3_cat_10_n02123159_2233.png
subject-04,1,783,0.944442987442017,knife,knife,1.5,0783_hp_s04_1.5_knife_10_n03041632_31301.png
subject-04,1,784,0.94946813583374,oven,boat,0.7,0784_hp_s04_0.7_boat_10_n03344393_315.png
subject-04,1,785,1.00137305259705,oven,airplane,0.45,0785_hp_s04_0.45_airplane_10_n02690373_10232.png
subject-04,1,786,1.25192809104919,bird,bird,inf,0786_hp_s04_inf_bird_10_n01796340_6517.png
subject-04,1,787,1.01833701133728,bear,bear,1.5,0787_hp_s04_1.5_bear_10_n02134418_9315.png
subject-04,1,788,1.03060078620911,oven,oven,1.5,0788_hp_s04_1.5_oven_10_n04111531_21733.png
subject-04,1,789,0.807042121887207,chair,chair,0.55,0789_hp_s04_0.55_chair_10_n03376595_5364.png
subject-04,1,790,1.00100207328796,oven,bottle,0.55,0790_hp_s04_0.55_bottle_10_n04591713_7474.png
subject-04,1,791,1.16726899147034,elephant,elephant,inf,0791_hp_s04_inf_elephant_10_n02504458_8209.png
subject-04,1,792,0.827666997909546,oven,bear,0.7,0792_hp_s04_0.7_bear_10_n02133161_14686.png
subject-04,1,793,1.50004315376282,chair,chair,1,0793_hp_s04_1_chair_10_n02791124_295.png
subject-04,1,794,0.967978954315186,oven,clock,0.55,0794_hp_s04_0.55_clock_10_n02708093_7969.png
subject-04,1,795,1.43460416793823,car,car,1,0795_hp_s04_1_car_10_n04285008_13174.png
subject-04,1,796,0.855311155319214,clock,clock,3,0796_hp_s04_3_clock_10_n02708093_3266.png
subject-04,1,797,0.704535007476807,bear,bear,0.7,0797_hp_s04_0.7_bear_10_n02133161_1243.png
subject-04,1,798,0.572946071624756,oven,boat,0.55,0798_hp_s04_0.55_boat_10_n03662601_870.png
subject-04,1,799,0.701524972915649,oven,elephant,0.55,0799_hp_s04_0.55_elephant_10_n02504458_2618.png
subject-04,1,800,0.973775148391724,airplane,airplane,inf,0800_hp_s04_inf_airplane_10_n02690373_1442.png
subject-04,1,801,1.02181196212769,chair,chair,inf,0801_hp_s04_inf_chair_10_n04429376_5269.png
subject-04,1,802,1.37987804412842,clock,keyboard,0.55,0802_hp_s04_0.55_keyboard_10_n04505470_4906.png
subject-04,1,803,1.01633596420288,oven,car,0.55,0803_hp_s04_0.55_car_10_n03100240_20326.png
subject-04,1,804,0.966657161712646,bear,bear,1.5,0804_hp_s04_1.5_bear_10_n02132136_3562.png
subject-04,1,805,0.948333978652954,clock,clock,1,0805_hp_s04_1_clock_10_n02708093_2549.png
subject-04,1,806,0.992894887924194,oven,truck,1,0806_hp_s04_1_truck_10_n03417042_3886.png
subject-04,1,807,0.781458854675293,oven,cat,0.7,0807_hp_s04_0.7_cat_10_n02124075_5874.png
subject-04,1,808,0.941401958465576,bottle,bottle,1,0808_hp_s04_1_bottle_10_n02823428_2965.png
subject-04,1,809,0.723942041397095,airplane,airplane,3,0809_hp_s04_3_airplane_10_n02690373_6697.png
subject-04,1,810,1.06685400009155,elephant,bear,1,0810_hp_s04_1_bear_10_n02133161_891.png
subject-04,1,811,0.794776916503906,oven,bird,0.7,0811_hp_s04_0.7_bird_10_n01622779_281.png
subject-04,1,812,1.02328014373779,chair,chair,inf,0812_hp_s04_inf_chair_10_n04099969_1275.png
subject-04,1,813,0.911612033843994,oven,elephant,0.4,0813_hp_s04_0.4_elephant_10_n02504458_5308.png
subject-04,1,814,0.772197008132935,cat,cat,inf,0814_hp_s04_inf_cat_10_n02124075_10927.png
subject-04,1,815,1.06640601158142,oven,cat,0.4,0815_hp_s04_0.4_cat_10_n02123045_7470.png
subject-04,1,816,1.00299596786499,chair,chair,1.5,0816_hp_s04_1.5_chair_10_n04099969_1365.png
subject-04,1,817,1.00140500068665,oven,airplane,0.45,0817_hp_s04_0.45_airplane_10_n02690373_2440.png
subject-04,1,818,0.943910837173462,oven,chair,0.45,0818_hp_s04_0.45_chair_10_n04099969_43.png
subject-04,1,819,0.886244058609009,oven,cat,0.45,0819_hp_s04_0.45_cat_10_n02123159_5618.png
subject-04,1,820,0.584192037582397,oven,keyboard,0.4,0820_hp_s04_0.4_keyboard_10_n03085013_24360.png
subject-04,1,821,0.704372882843018,elephant,elephant,3,0821_hp_s04_3_elephant_10_n02504013_6829.png
subject-04,1,822,0.516695022583008,oven,boat,0.45,0822_hp_s04_0.45_boat_10_n02951358_33568.png
subject-04,1,823,0.705451965332031,bird,bird,3,0823_hp_s04_3_bird_10_n02018207_5589.png
subject-04,1,824,0.48769998550415,oven,cat,0.55,0824_hp_s04_0.55_cat_10_n02125311_73072.png
subject-04,1,825,0.385898113250732,oven,bird,0.4,0825_hp_s04_0.4_bird_10_n02037110_14805.png
subject-04,1,826,0.436315059661865,oven,chair,0.7,0826_hp_s04_0.7_chair_10_n02791124_4334.png
subject-04,1,827,0.61081600189209,oven,cat,0.4,0827_hp_s04_0.4_cat_10_n02123597_4359.png
subject-04,1,828,0.66109299659729,car,car,inf,0828_hp_s04_inf_car_10_n04285008_15049.png
subject-04,1,829,0.873313903808594,cat,cat,inf,0829_hp_s04_inf_cat_10_n02123394_270.png
subject-04,1,830,0.861763000488281,cat,cat,3,0830_hp_s04_3_cat_10_n02123159_4024.png
subject-04,1,831,0.790241003036499,cat,dog,3,0831_hp_s04_3_dog_10_n02095570_1647.png
subject-04,1,832,1.50003504753113,bird,bird,1.5,0832_hp_s04_1.5_bird_10_n01558993_11114.png
subject-04,1,833,NaN,na,bird,inf,0833_hp_s04_inf_bird_10_n01818515_141.png
subject-04,1,834,1.38944005966187,oven,boat,0.4,0834_hp_s04_0.4_boat_10_n03344393_11851.png
subject-04,1,835,0.879746913909912,oven,oven,0.55,0835_hp_s04_0.55_oven_10_n04111531_12103.png
subject-04,1,836,1.2436830997467,clock,clock,inf,0836_hp_s04_inf_clock_10_n03196217_4844.png
subject-04,1,837,0.987880945205688,boat,elephant,1,0837_hp_s04_1_elephant_10_n02504458_6823.png
subject-04,1,838,1.3464150428772,dog,dog,1,0838_hp_s04_1_dog_10_n02085936_10691.png
subject-04,1,839,1.36688685417175,oven,airplane,0.7,0839_hp_s04_0.7_airplane_10_n02690373_6144.png
subject-04,1,840,1.01711392402649,bird,bird,inf,0840_hp_s04_inf_bird_10_n02018207_6941.png
subject-04,1,841,1.07520198822021,car,car,inf,0841_hp_s04_inf_car_10_n03100240_3136.png
subject-04,1,842,1.4256579875946,dog,dog,1.5,0842_hp_s04_1.5_dog_10_n02105251_3570.png
subject-04,1,843,1.30791306495667,bear,bear,inf,0843_hp_s04_inf_bear_10_n02134084_742.png
subject-04,1,844,1.15845918655396,oven,car,0.7,0844_hp_s04_0.7_car_10_n03100240_16639.png
subject-04,1,845,1.46507596969604,oven,knife,3,0845_hp_s04_3_knife_10_n03041632_23667.png
subject-04,1,846,1.1014621257782,car,car,3,0846_hp_s04_3_car_10_n04285008_7503.png
subject-04,1,847,1.50001192092896,oven,boat,0.4,0847_hp_s04_0.4_boat_10_n04273569_13485.png
subject-04,1,848,1.50008702278137,oven,bird,0.4,0848_hp_s04_0.4_bird_10_n01616318_7168.png
subject-04,1,849,1.2820029258728,oven,bottle,3,0849_hp_s04_3_bottle_10_n04591713_2095.png
subject-04,1,850,1.10980916023254,oven,truck,0.4,0850_hp_s04_0.4_truck_10_n03417042_6373.png
subject-04,1,851,0.916203022003174,bear,bear,3,0851_hp_s04_3_bear_10_n02134084_23153.png
subject-04,1,852,1.12087082862854,airplane,airplane,0.7,0852_hp_s04_0.7_airplane_10_n02690373_181.png
subject-04,1,853,1.13281607627869,clock,clock,3,0853_hp_s04_3_clock_10_n02708093_3638.png
subject-04,1,854,0.983232975006104,keyboard,keyboard,1.5,0854_hp_s04_1.5_keyboard_10_n04505470_5086.png
subject-04,1,855,0.927821159362793,oven,elephant,0.4,0855_hp_s04_0.4_elephant_10_n02504013_5217.png
subject-04,1,856,1.02396988868713,clock,clock,inf,0856_hp_s04_inf_clock_10_n03196217_11445.png
subject-04,1,857,1.08238792419434,keyboard,car,0.55,0857_hp_s04_0.55_car_10_n04285008_5400.png
subject-04,1,858,1.18705701828003,oven,knife,0.7,0858_hp_s04_0.7_knife_10_n03041632_7832.png
subject-04,1,859,1.23770809173584,clock,clock,0.55,0859_hp_s04_0.55_clock_10_n03196217_82.png
subject-04,1,860,1.11152100563049,truck,truck,1.5,0860_hp_s04_1.5_truck_10_n03417042_3735.png
subject-04,1,861,1.13992691040039,oven,boat,0.45,0861_hp_s04_0.45_boat_10_n03344393_3515.png
subject-04,1,862,1.09605097770691,keyboard,boat,0.7,0862_hp_s04_0.7_boat_10_n02951358_1718.png
subject-04,1,863,1.34070706367493,truck,truck,0.55,0863_hp_s04_0.55_truck_10_n03796401_7421.png
subject-04,1,864,1.42881107330322,airplane,airplane,inf,0864_hp_s04_inf_airplane_10_n02690373_16250.png
subject-04,1,865,1.47357296943665,oven,elephant,0.55,0865_hp_s04_0.55_elephant_10_n02504013_3173.png
subject-04,1,866,1.43757796287537,knife,knife,3,0866_hp_s04_3_knife_10_n03041632_36235.png
subject-04,1,867,NaN,na,clock,1.5,0867_hp_s04_1.5_clock_10_n04548280_9217.png
subject-04,1,868,NaN,na,bird,0.7,0868_hp_s04_0.7_bird_10_n02051845_38565.png
subject-04,1,869,0.676769018173218,cat,cat,3,0869_hp_s04_3_cat_10_n02123045_5747.png
subject-04,1,870,1.20305705070496,oven,truck,0.4,0870_hp_s04_0.4_truck_10_n03417042_27587.png
subject-04,1,871,0.649658918380737,clock,clock,3,0871_hp_s04_3_clock_10_n02708093_3591.png
subject-04,1,872,1.00998091697693,oven,boat,0.55,0872_hp_s04_0.55_boat_10_n02951358_2853.png
subject-04,1,873,0.768521070480347,oven,bird,0.55,0873_hp_s04_0.55_bird_10_n02017213_7659.png
subject-04,1,874,0.964791059494019,bottle,bottle,3,0874_hp_s04_3_bottle_10_n02823428_2344.png
subject-04,1,875,0.993040084838867,elephant,elephant,1,0875_hp_s04_1_elephant_10_n02504013_4150.png
subject-04,1,876,1.00536799430847,bicycle,bicycle,3,0876_hp_s04_3_bicycle_10_n03792782_11851.png
subject-04,1,877,1.017982006073,oven,bear,1,0877_hp_s04_1_bear_10_n02134418_3630.png
subject-04,1,878,1.16817688941956,elephant,elephant,1,0878_hp_s04_1_elephant_10_n02504458_11265.png
subject-04,1,879,1.05833101272583,oven,bicycle,0.4,0879_hp_s04_0.4_bicycle_10_n02835271_6723.png
subject-04,1,880,1.43123722076416,elephant,elephant,inf,0880_hp_s04_inf_elephant_10_n02504013_4350.png
subject-04,1,881,1.50025916099548,airplane,airplane,1,0881_hp_s04_1_airplane_10_n02690373_3907.png
subject-04,1,882,1.31736183166504,elephant,chair,1,0882_hp_s04_1_chair_10_n04429376_43057.png
subject-04,1,883,1.32192301750183,oven,oven,0.4,0883_hp_s04_0.4_oven_10_n04111531_6851.png
subject-04,1,884,1.40368103981018,airplane,bird,0.55,0884_hp_s04_0.55_bird_10_n01537544_2285.png
subject-04,1,885,1.11585879325867,oven,knife,0.4,0885_hp_s04_0.4_knife_10_n03041632_13509.png
subject-04,1,886,1.05862212181091,oven,car,0.4,0886_hp_s04_0.4_car_10_n03100240_6827.png
subject-04,1,887,0.962958097457886,oven,bicycle,0.4,0887_hp_s04_0.4_bicycle_10_n03792782_11034.png
subject-04,1,888,1.17508006095886,oven,boat,inf,0888_hp_s04_inf_boat_10_n02951358_13456.png
subject-04,1,889,1.48750495910645,oven,keyboard,3,0889_hp_s04_3_keyboard_10_n03085013_26430.png
subject-04,1,890,1.33225297927856,truck,oven,3,0890_hp_s04_3_oven_10_n04111531_8193.png
subject-04,1,891,1.50008606910706,boat,bottle,0.45,0891_hp_s04_0.45_bottle_10_n03937543_9941.png
subject-04,1,892,1.50016093254089,oven,airplane,0.55,0892_hp_s04_0.55_airplane_10_n02690373_6812.png
subject-04,1,893,0.930835962295532,boat,boat,3,0893_hp_s04_3_boat_10_n02951358_1065.png
subject-04,1,894,0.995146989822388,oven,oven,3,0894_hp_s04_3_oven_10_n04111531_6428.png
subject-04,1,895,0.968657970428467,airplane,airplane,0.7,0895_hp_s04_0.7_airplane_10_n02690373_17722.png
subject-04,1,896,0.93523097038269,elephant,elephant,inf,0896_hp_s04_inf_elephant_10_n02504458_6946.png
subject-04,1,897,1.19931483268738,car,car,3,0897_hp_s04_3_car_10_n02814533_18129.png
subject-04,1,898,1.21126413345337,oven,chair,0.7,0898_hp_s04_0.7_chair_10_n02791124_1018.png
subject-04,1,899,NaN,na,bear,3,0899_hp_s04_3_bear_10_n02134084_7790.png
subject-04,1,900,NaN,na,clock,inf,0900_hp_s04_inf_clock_10_n04548280_272.png
subject-04,1,901,NaN,na,truck,0.4,0901_hp_s04_0.4_truck_10_n03417042_13151.png
subject-04,1,902,0.915045022964478,oven,elephant,0.45,0902_hp_s04_0.45_elephant_10_n02504013_4187.png
subject-04,1,903,0.787466049194336,oven,car,0.4,0903_hp_s04_0.4_car_10_n04285008_6183.png
subject-04,1,904,0.821824073791504,oven,airplane,0.55,0904_hp_s04_0.55_airplane_10_n02690373_101.png
subject-04,1,905,1.08837795257568,oven,bicycle,1.5,0905_hp_s04_1.5_bicycle_10_n03792782_8224.png
subject-04,1,906,0.784327030181885,oven,dog,0.55,0906_hp_s04_0.55_dog_10_n02100236_4657.png
subject-04,1,907,0.690910816192627,oven,knife,0.55,0907_hp_s04_0.55_knife_10_n03041632_20504.png
subject-04,1,908,0.948812961578369,oven,oven,1.5,0908_hp_s04_1.5_oven_10_n04111531_537.png
subject-04,1,909,1.15318298339844,oven,knife,3,0909_hp_s04_3_knife_10_n03041632_1661.png
subject-04,1,910,0.795750856399536,oven,bicycle,0.45,0910_hp_s04_0.45_bicycle_10_n02835271_3110.png
subject-04,1,911,0.808113098144531,chair,chair,1,0911_hp_s04_1_chair_10_n04099969_9782.png
subject-04,1,912,1.10366106033325,bicycle,bicycle,3,0912_hp_s04_3_bicycle_10_n02835271_10364.png
subject-04,1,913,1.35389590263367,oven,boat,1.5,0913_hp_s04_1.5_boat_10_n03662601_6013.png
subject-04,1,914,1.24401497840881,oven,cat,1.5,0914_hp_s04_1.5_cat_10_n02125311_2897.png
subject-04,1,915,0.978302955627441,truck,truck,inf,0915_hp_s04_inf_truck_10_n03796401_12130.png
subject-04,1,916,0.714112997055054,chair,chair,1.5,0916_hp_s04_1.5_chair_10_n03376595_10689.png
subject-04,1,917,0.664298057556152,cat,cat,1.5,0917_hp_s04_1.5_cat_10_n02123394_4874.png
subject-04,1,918,1.09875988960266,oven,bird,1,0918_hp_s04_1_bird_10_n02056570_9055.png
subject-04,1,919,1.21128606796265,oven,knife,0.4,0919_hp_s04_0.4_knife_10_n03041632_29285.png
subject-04,1,920,0.663869857788086,oven,keyboard,0.45,0920_hp_s04_0.45_keyboard_10_n04505470_5172.png
subject-04,1,921,0.700262069702148,oven,boat,1.5,0921_hp_s04_1.5_boat_10_n04273569_4476.png
subject-04,1,922,0.750651836395264,oven,chair,0.55,0922_hp_s04_0.55_chair_10_n04429376_11106.png
subject-04,1,923,1.0167191028595,truck,truck,0.7,0923_hp_s04_0.7_truck_10_n03796401_17457.png
subject-04,1,924,0.889009952545166,car,car,0.55,0924_hp_s04_0.55_car_10_n03100240_13397.png
subject-04,1,925,0.770374059677124,oven,dog,3,0925_hp_s04_3_dog_10_n02107142_1372.png
subject-04,1,926,1.08061599731445,bear,bottle,1.5,0926_hp_s04_1.5_bottle_10_n04591713_5364.png
subject-04,1,927,0.808764934539795,oven,bottle,0.55,0927_hp_s04_0.55_bottle_10_n02823428_1208.png
subject-04,1,928,0.690905094146729,cat,cat,3,0928_hp_s04_3_cat_10_n02123045_3551.png
subject-04,1,929,0.681308031082153,oven,dog,0.45,0929_hp_s04_0.45_dog_10_n02111500_7006.png
subject-04,1,930,0.561172008514404,cat,cat,0.7,0930_hp_s04_0.7_cat_10_n02125311_16033.png
subject-04,1,931,0.765404939651489,oven,car,0.45,0931_hp_s04_0.45_car_10_n03100240_6661.png
subject-04,1,932,0.664133071899414,oven,dog,0.55,0932_hp_s04_0.55_dog_10_n02105505_1159.png
subject-04,1,933,1.03649687767029,oven,chair,0.4,0933_hp_s04_0.4_chair_10_n04429376_30620.png
subject-04,1,934,0.804834127426147,oven,dog,0.55,0934_hp_s04_0.55_dog_10_n02109047_654.png
subject-04,1,935,1.30720496177673,oven,chair,1,0935_hp_s04_1_chair_10_n04429376_11668.png
subject-04,1,936,1.31940817832947,oven,boat,0.45,0936_hp_s04_0.45_boat_10_n02951358_30167.png
subject-04,1,937,1.139328956604,oven,bird,0.55,0937_hp_s04_0.55_bird_10_n02002556_1423.png
subject-04,1,938,1.48194003105164,oven,truck,0.45,0938_hp_s04_0.45_truck_10_n03796401_19058.png
subject-04,1,939,1.07227396965027,airplane,airplane,1,0939_hp_s04_1_airplane_10_n02690373_9926.png
subject-04,1,940,0.633021831512451,boat,boat,1,0940_hp_s04_1_boat_10_n03662601_15107.png
subject-04,1,941,1.05928993225098,cat,bottle,0.7,0941_hp_s04_0.7_bottle_10_n04591713_6887.png
subject-04,1,942,0.808818101882935,oven,knife,0.4,0942_hp_s04_0.4_knife_10_n03041632_7116.png
subject-04,1,943,0.944706916809082,bear,bear,1,0943_hp_s04_1_bear_10_n02134418_13550.png
subject-04,1,944,1.09508490562439,elephant,keyboard,0.45,0944_hp_s04_0.45_keyboard_10_n03085013_22729.png
subject-04,1,945,0.96992301940918,oven,airplane,0.7,0945_hp_s04_0.7_airplane_10_n02690373_5524.png
subject-04,1,946,0.97374701499939,elephant,oven,inf,0946_hp_s04_inf_oven_10_n04111531_7741.png
subject-04,1,947,1.44654011726379,elephant,bear,0.55,0947_hp_s04_0.55_bear_10_n02132136_417.png
subject-04,1,948,1.22914695739746,keyboard,keyboard,1.5,0948_hp_s04_1.5_keyboard_10_n04505470_1728.png
subject-04,1,949,0.981493949890137,oven,truck,0.7,0949_hp_s04_0.7_truck_10_n03796401_17673.png
subject-04,1,950,1.04528307914734,keyboard,bottle,1.5,0950_hp_s04_1.5_bottle_10_n02823428_13937.png
subject-04,1,951,1.01172280311584,car,bird,inf,0951_hp_s04_inf_bird_10_n02007558_12286.png
subject-04,1,952,NaN,na,boat,0.7,0952_hp_s04_0.7_boat_10_n04612504_36314.png
subject-04,1,953,1.00656390190125,bear,bear,1.5,0953_hp_s04_1.5_bear_10_n02132136_2108.png
subject-04,1,954,1.32651209831238,oven,knife,0.45,0954_hp_s04_0.45_knife_10_n03041632_48149.png
subject-04,1,955,0.970780849456787,oven,bear,0.45,0955_hp_s04_0.45_bear_10_n02133161_9600.png
subject-04,1,956,0.95966911315918,chair,knife,0.55,0956_hp_s04_0.55_knife_10_n03041632_33488.png
subject-04,1,957,NaN,na,clock,inf,0957_hp_s04_inf_clock_10_n04548280_8990.png
subject-04,1,958,1.30635690689087,boat,boat,1,0958_hp_s04_1_boat_10_n04273569_16008.png
subject-04,1,959,1.12069702148438,clock,clock,0.7,0959_hp_s04_0.7_clock_10_n04548280_3356.png
subject-04,1,960,1.27106499671936,oven,oven,0.55,0960_hp_s04_0.55_oven_10_n04111531_687.png
subject-04,1,961,0.87255597114563,bird,bird,1.5,0961_hp_s04_1.5_bird_10_n01530575_3903.png
subject-04,1,962,0.660851955413818,oven,airplane,0.4,0962_hp_s04_0.4_airplane_10_n02690373_911.png
subject-04,1,963,1.34139513969421,bird,bird,0.7,0963_hp_s04_0.7_bird_10_n02013706_10478.png
subject-04,1,964,0.555793046951294,oven,car,0.4,0964_hp_s04_0.4_car_10_n04285008_11893.png
subject-04,1,965,0.784318208694458,car,car,1,0965_hp_s04_1_car_10_n03100240_9955.png
subject-04,1,966,0.794581174850464,oven,clock,0.55,0966_hp_s04_0.55_clock_10_n04548280_1039.png
subject-04,1,967,0.668737888336182,oven,chair,0.55,0967_hp_s04_0.55_chair_10_n03376595_6290.png
subject-04,1,968,0.727266073226929,keyboard,keyboard,1.5,0968_hp_s04_1.5_keyboard_10_n04505470_2326.png
subject-04,1,969,0.625695943832397,oven,oven,1.5,0969_hp_s04_1.5_oven_10_n04111531_16696.png
subject-04,1,970,0.698073863983154,truck,truck,inf,0970_hp_s04_inf_truck_10_n04467665_28424.png
subject-04,1,971,NaN,na,truck,0.7,0971_hp_s04_0.7_truck_10_n04467665_3212.png
subject-04,1,972,NaN,na,keyboard,0.7,0972_hp_s04_0.7_keyboard_10_n03085013_4823.png
subject-04,1,973,0.420759916305542,oven,bear,0.45,0973_hp_s04_0.45_bear_10_n02134084_15300.png
subject-04,1,974,0.770919799804688,airplane,airplane,inf,0974_hp_s04_inf_airplane_10_n02690373_20326.png
subject-04,1,975,0.559257030487061,cat,cat,0.7,0975_hp_s04_0.7_cat_10_n02123045_5371.png
subject-04,1,976,0.76319694519043,airplane,airplane,1.5,0976_hp_s04_1.5_airplane_10_n02690373_12966.png
subject-04,1,977,0.607621908187866,oven,bicycle,0.4,0977_hp_s04_0.4_bicycle_10_n03792782_3176.png
subject-04,1,978,0.404299020767212,oven,oven,0.45,0978_hp_s04_0.45_oven_10_n04111531_6863.png
subject-04,1,979,0.992553949356079,elephant,elephant,1.5,0979_hp_s04_1.5_elephant_10_n02504458_631.png
subject-04,1,980,0.583246946334839,car,car,1.5,0980_hp_s04_1.5_car_10_n04285008_10703.png
subject-04,1,981,0.457690000534058,oven,cat,0.4,0981_hp_s04_0.4_cat_10_n02123159_6481.png
subject-04,1,982,0.708357095718384,elephant,elephant,3,0982_hp_s04_3_elephant_10_n02504013_8308.png
subject-04,1,983,1.00434613227844,boat,bird,3,0983_hp_s04_3_bird_10_n01843383_3239.png
subject-04,1,984,0.758116960525513,cat,cat,0.7,0984_hp_s04_0.7_cat_10_n02123597_5127.png
subject-04,1,985,0.824532032012939,keyboard,airplane,1.5,0985_hp_s04_1.5_airplane_10_n02690373_10729.png
subject-04,1,986,0.752775907516479,elephant,elephant,inf,0986_hp_s04_inf_elephant_10_n02504013_19419.png
subject-04,1,987,0.949126005172729,dog,dog,inf,0987_hp_s04_inf_dog_10_n02089867_802.png
subject-04,1,988,0.569507837295532,oven,chair,0.45,0988_hp_s04_0.45_chair_10_n04099969_14958.png
subject-04,1,989,1.44777917861938,bear,elephant,0.55,0989_hp_s04_0.55_elephant_10_n02504458_3091.png
subject-04,1,990,0.815627098083496,car,car,0.7,0990_hp_s04_0.7_car_10_n03100240_18019.png
subject-04,1,991,0.933725833892822,keyboard,keyboard,inf,0991_hp_s04_inf_keyboard_10_n03085013_18673.png
subject-04,1,992,0.59467601776123,oven,airplane,0.45,0992_hp_s04_0.45_airplane_10_n02690373_6362.png
subject-04,1,993,0.99666690826416,car,boat,3,0993_hp_s04_3_boat_10_n02951358_8569.png
subject-04,1,994,0.632926940917969,oven,clock,0.4,0994_hp_s04_0.4_clock_10_n04548280_7828.png
subject-04,1,995,0.899744033813477,car,keyboard,1,0995_hp_s04_1_keyboard_10_n03085013_26573.png
subject-04,1,996,0.61192512512207,oven,bird,1,0996_hp_s04_1_bird_10_n01592084_8813.png
subject-04,1,997,0.846368074417114,bird,bird,1.5,0997_hp_s04_1.5_bird_10_n01796340_19753.png
subject-04,1,998,0.590917825698853,oven,bear,1,0998_hp_s04_1_bear_10_n02133161_5157.png
subject-04,1,999,0.716726779937744,oven,keyboard,0.4,0999_hp_s04_0.4_keyboard_10_n04505470_4016.png
subject-04,1,1000,0.729295969009399,bird,bird,3,1000_hp_s04_3_bird_10_n01558993_12968.png
subject-04,1,1001,0.895433902740479,bottle,bottle,3,1001_hp_s04_3_bottle_10_n04557648_14826.png
subject-04,1,1002,0.737827062606812,oven,bottle,0.7,1002_hp_s04_0.7_bottle_10_n04591713_10569.png
subject-04,1,1003,1.04214406013489,bottle,bottle,3,1003_hp_s04_3_bottle_10_n03937543_4505.png
subject-04,1,1004,0.694241046905518,clock,clock,0.7,1004_hp_s04_0.7_clock_10_n04548280_360.png
subject-04,1,1005,0.658493995666504,oven,oven,1,1005_hp_s04_1_oven_10_n04111531_11530.png
subject-04,1,1006,1.23042798042297,dog,dog,1.5,1006_hp_s04_1.5_dog_10_n02106550_5063.png
subject-04,1,1007,0.598632097244263,oven,chair,0.55,1007_hp_s04_0.55_chair_10_n04099969_22160.png
subject-04,1,1008,0.755204916000366,oven,bear,0.4,1008_hp_s04_0.4_bear_10_n02134418_4458.png
subject-04,1,1009,0.934978008270264,clock,clock,inf,1009_hp_s04_inf_clock_10_n02708093_1134.png
subject-04,1,1010,0.741285085678101,oven,elephant,0.7,1010_hp_s04_0.7_elephant_10_n02504013_5996.png
subject-04,1,1011,0.713688135147095,oven,bottle,0.55,1011_hp_s04_0.55_bottle_10_n03983396_4736.png
subject-04,1,1012,0.788115978240967,bicycle,bicycle,0.7,1012_hp_s04_0.7_bicycle_10_n03792782_19003.png
subject-04,1,1013,1.50006604194641,elephant,elephant,1.5,1013_hp_s04_1.5_elephant_10_n02504013_5235.png
subject-04,1,1014,0.850845098495483,bird,bird,1,1014_hp_s04_1_bird_10_n01828970_10163.png
subject-04,1,1015,0.787185907363892,clock,clock,1,1015_hp_s04_1_clock_10_n02708093_832.png
subject-04,1,1016,0.745922088623047,keyboard,oven,1,1016_hp_s04_1_oven_10_n04111531_73.png
subject-04,1,1017,0.872323036193848,clock,clock,1.5,1017_hp_s04_1.5_clock_10_n04548280_4390.png
subject-04,1,1018,0.730917930603027,clock,clock,0.45,1018_hp_s04_0.45_clock_10_n03196217_981.png
subject-04,1,1019,0.912796020507812,elephant,elephant,0.7,1019_hp_s04_0.7_elephant_10_n02504458_5849.png
subject-04,1,1020,1.00001311302185,oven,bear,1.5,1020_hp_s04_1.5_bear_10_n02133161_2340.png
subject-04,1,1021,0.764297008514404,truck,truck,0.7,1021_hp_s04_0.7_truck_10_n04467665_23905.png
subject-04,1,1022,0.954849004745483,bird,bird,0.7,1022_hp_s04_0.7_bird_10_n01828970_7609.png
subject-04,1,1023,1.28901600837708,bear,bear,inf,1023_hp_s04_inf_bear_10_n02132136_33642.png
subject-04,1,1024,0.838316917419434,elephant,elephant,0.7,1024_hp_s04_0.7_elephant_10_n02504458_7213.png
subject-04,1,1025,0.773015975952148,oven,dog,0.4,1025_hp_s04_0.4_dog_10_n02093754_7604.png
subject-04,1,1026,0.739455938339233,airplane,airplane,3,1026_hp_s04_3_airplane_10_n02690373_4108.png
subject-04,1,1027,0.729691028594971,oven,cat,0.55,1027_hp_s04_0.55_cat_10_n02123597_468.png
subject-04,1,1028,0.64194917678833,oven,knife,0.4,1028_hp_s04_0.4_knife_10_n03041632_51581.png
subject-04,1,1029,0.662767887115479,cat,cat,3,1029_hp_s04_3_cat_10_n02124075_4614.png
subject-04,1,1030,0.780699968338013,chair,chair,1,1030_hp_s04_1_chair_10_n04429376_5770.png
subject-04,1,1031,0.647092819213867,oven,oven,0.45,1031_hp_s04_0.45_oven_10_n04111531_16795.png
subject-04,1,1032,0.805722951889038,bird,bird,inf,1032_hp_s04_inf_bird_10_n02018207_3457.png
subject-04,1,1033,0.855686902999878,elephant,bottle,1,1033_hp_s04_1_bottle_10_n04557648_9145.png
subject-04,1,1034,0.675877094268799,oven,airplane,0.55,1034_hp_s04_0.55_airplane_10_n02690373_20331.png
subject-04,1,1035,0.65851902961731,airplane,airplane,inf,1035_hp_s04_inf_airplane_10_n02690373_6576.png
subject-04,1,1036,0.671165943145752,oven,elephant,0.45,1036_hp_s04_0.45_elephant_10_n02504458_485.png
subject-04,1,1037,0.913450956344604,bird,bird,1,1037_hp_s04_1_bird_10_n02018207_11199.png
subject-04,1,1038,1.2100031375885,boat,boat,1,1038_hp_s04_1_boat_10_n04273569_1288.png
subject-04,1,1039,0.798289060592651,oven,dog,0.45,1039_hp_s04_0.45_dog_10_n02105162_8014.png
subject-04,1,1040,0.812784910202026,airplane,bear,0.4,1040_hp_s04_0.4_bear_10_n02133161_2236.png
subject-04,1,1041,0.677424192428589,oven,bear,0.4,1041_hp_s04_0.4_bear_10_n02134418_2804.png
subject-04,1,1042,0.805689811706543,oven,elephant,inf,1042_hp_s04_inf_elephant_10_n02504458_3057.png
subject-04,1,1043,0.701789855957031,truck,truck,inf,1043_hp_s04_inf_truck_10_n03417042_1790.png
subject-04,1,1044,0.714194059371948,knife,knife,1,1044_hp_s04_1_knife_10_n03041632_40652.png
subject-04,1,1045,1.01083612442017,boat,boat,1.5,1045_hp_s04_1.5_boat_10_n04612504_199.png
subject-04,1,1046,0.731314897537231,oven,keyboard,0.4,1046_hp_s04_0.4_keyboard_10_n03085013_20487.png
subject-04,1,1047,0.665627002716064,oven,bottle,0.45,1047_hp_s04_0.45_bottle_10_n04591713_16610.png
subject-04,1,1048,0.563492059707642,oven,airplane,0.4,1048_hp_s04_0.4_airplane_10_n02690373_9312.png
subject-04,1,1049,0.74351692199707,oven,chair,1,1049_hp_s04_1_chair_10_n03376595_18148.png
subject-04,1,1050,0.517997980117798,oven,airplane,0.45,1050_hp_s04_0.45_airplane_10_n02690373_9404.png
subject-04,1,1051,0.59826397895813,oven,bottle,1.5,1051_hp_s04_1.5_bottle_10_n02823428_6199.png
subject-04,1,1052,0.747828006744385,elephant,elephant,3,1052_hp_s04_3_elephant_10_n02504458_7867.png
subject-04,1,1053,0.898534059524536,dog,dog,0.7,1053_hp_s04_0.7_dog_10_n02095570_6229.png
subject-04,1,1054,0.80296802520752,knife,knife,inf,1054_hp_s04_inf_knife_10_n03041632_7448.png
subject-04,1,1055,0.685394048690796,keyboard,keyboard,0.7,1055_hp_s04_0.7_keyboard_10_n03085013_6561.png
subject-04,1,1056,0.719403982162476,oven,cat,0.45,1056_hp_s04_0.45_cat_10_n02123159_5441.png
subject-04,1,1057,0.509767055511475,oven,oven,0.4,1057_hp_s04_0.4_oven_10_n04111531_20591.png
subject-04,1,1058,0.744213819503784,truck,truck,1,1058_hp_s04_1_truck_10_n03417042_8227.png
subject-04,1,1059,0.810641050338745,chair,oven,0.55,1059_hp_s04_0.55_oven_10_n04111531_21931.png
subject-04,1,1060,0.684720039367676,car,car,1.5,1060_hp_s04_1.5_car_10_n04285008_569.png
subject-04,1,1061,0.835109949111938,airplane,airplane,1,1061_hp_s04_1_airplane_10_n02690373_848.png
subject-04,1,1062,0.547744035720825,boat,boat,0.55,1062_hp_s04_0.55_boat_10_n04612504_6611.png
subject-04,1,1063,0.627409934997559,oven,clock,0.45,1063_hp_s04_0.45_clock_10_n03196217_3039.png
