subj,session,trial,rt,object_response,category,condition,imagename
subject-01,1,1,0.808637142181396,oven,oven,inf,0001_hp_s01_inf_oven_10_n04111531_6454.png
subject-01,1,2,0.632524013519287,knife,knife,inf,0002_hp_s01_inf_knife_10_n03041632_22286.png
subject-01,1,3,0.757255077362061,bicycle,bicycle,0.45,0003_hp_s01_0.45_bicycle_10_n03792782_16034.png
subject-01,1,4,1.14186000823975,keyboard,chair,0.4,0004_hp_s01_0.4_chair_10_n03376595_17747.png
subject-01,1,5,0.827876091003418,car,car,0.45,0005_hp_s01_0.45_car_10_n03100240_1856.png
subject-01,1,6,0.75993800163269,boat,truck,0.45,0006_hp_s01_0.45_truck_10_n04467665_40002.png
subject-01,1,7,0.922044992446899,elephant,bottle,0.55,0007_hp_s01_0.55_bottle_10_n04557648_3350.png
subject-01,1,8,0.968208789825439,truck,truck,inf,0008_hp_s01_inf_truck_10_n04467665_33086.png
subject-01,1,9,0.816744089126587,car,keyboard,0.45,0009_hp_s01_0.45_keyboard_10_n03085013_5622.png
subject-01,1,10,1.00939202308655,boat,boat,0.55,0010_hp_s01_0.55_boat_10_n04612504_2853.png
subject-01,1,11,0.950050115585327,bird,oven,0.4,0011_hp_s01_0.4_oven_10_n04111531_15569.png
subject-01,1,12,0.712841033935547,elephant,elephant,3,0012_hp_s01_3_elephant_10_n02504013_6742.png
subject-01,1,13,0.698586225509644,clock,clock,0.7,0013_hp_s01_0.7_clock_10_n03196217_3361.png
subject-01,1,14,0.793125152587891,bear,bear,1.5,0014_hp_s01_1.5_bear_10_n02134084_1484.png
subject-01,1,15,0.969073057174683,elephant,bear,0.55,0015_hp_s01_0.55_bear_10_n02132136_3563.png
subject-01,1,16,0.968847036361694,airplane,airplane,0.4,0016_hp_s01_0.4_airplane_10_n02690373_6978.png
subject-01,1,17,0.725276947021484,chair,chair,1,0017_hp_s01_1_chair_10_n04099969_14028.png
subject-01,1,18,1.13286995887756,oven,keyboard,0.4,0018_hp_s01_0.4_keyboard_10_n03085013_20736.png
subject-01,1,19,0.979567050933838,elephant,bear,0.45,0019_hp_s01_0.45_bear_10_n02134418_13618.png
subject-01,1,20,0.995628118515015,bottle,bottle,inf,0020_hp_s01_inf_bottle_10_n02823428_4245.png
subject-01,1,21,0.773909091949463,keyboard,keyboard,3,0021_hp_s01_3_keyboard_10_n03085013_22949.png
subject-01,1,22,0.736418008804321,keyboard,keyboard,1,0022_hp_s01_1_keyboard_10_n03085013_24115.png
subject-01,1,23,0.682286977767944,oven,oven,1,0023_hp_s01_1_oven_10_n04111531_4438.png
subject-01,1,24,1.08494901657104,bird,bear,3,0024_hp_s01_3_bear_10_n02132136_2236.png
subject-01,1,25,0.97762393951416,knife,knife,1,0025_hp_s01_1_knife_10_n03041632_14442.png
subject-01,1,26,0.977782964706421,truck,knife,0.45,0026_hp_s01_0.45_knife_10_n03041632_3516.png
subject-01,1,27,0.648412942886353,elephant,elephant,3,0027_hp_s01_3_elephant_10_n02504458_3329.png
subject-01,1,28,0.812497138977051,car,car,0.55,0028_hp_s01_0.55_car_10_n02814533_4726.png
subject-01,1,29,0.943172216415405,chair,chair,1,0029_hp_s01_1_chair_10_n02791124_2689.png
subject-01,1,30,0.891175985336304,car,car,0.4,0030_hp_s01_0.4_car_10_n03100240_8885.png
subject-01,1,31,0.975370168685913,cat,elephant,0.55,0031_hp_s01_0.55_elephant_10_n02504458_7221.png
subject-01,1,32,0.831922054290771,cat,cat,3,0032_hp_s01_3_cat_10_n02124075_5631.png
subject-01,1,33,0.654051065444946,oven,chair,3,0033_hp_s01_3_chair_10_n04429376_10546.png
subject-01,1,34,0.564531803131104,clock,clock,0.7,0034_hp_s01_0.7_clock_10_n04548280_8646.png
subject-01,1,35,0.749161958694458,airplane,airplane,1.5,0035_hp_s01_1.5_airplane_10_n02690373_3377.png
subject-01,1,36,0.682137012481689,oven,oven,1.5,0036_hp_s01_1.5_oven_10_n04111531_8046.png
subject-01,1,37,0.907335996627808,car,oven,0.4,0037_hp_s01_0.4_oven_10_n04111531_669.png
subject-01,1,38,1.03189206123352,elephant,elephant,0.7,0038_hp_s01_0.7_elephant_10_n02504013_6.png
subject-01,1,39,1.15082502365112,knife,knife,inf,0039_hp_s01_inf_knife_10_n03041632_23736.png
subject-01,1,40,0.670373916625977,boat,boat,3,0040_hp_s01_3_boat_10_n04612504_4773.png
subject-01,1,41,1.19540810585022,oven,oven,0.55,0041_hp_s01_0.55_oven_10_n04111531_190.png
subject-01,1,42,0.817269086837769,car,airplane,0.45,0042_hp_s01_0.45_airplane_10_n02690373_18111.png
subject-01,1,43,0.927415132522583,airplane,airplane,0.55,0043_hp_s01_0.55_airplane_10_n02690373_7401.png
subject-01,1,44,0.843997001647949,knife,knife,inf,0044_hp_s01_inf_knife_10_n03041632_26989.png
subject-01,1,45,1.04440784454346,oven,bottle,0.55,0045_hp_s01_0.55_bottle_10_n03983396_11597.png
subject-01,1,46,0.685317993164062,bicycle,bicycle,0.55,0046_hp_s01_0.55_bicycle_10_n03792782_4251.png
subject-01,1,47,1.2007999420166,clock,bottle,0.55,0047_hp_s01_0.55_bottle_10_n03937543_2874.png
subject-01,1,48,1.00138998031616,bird,bird,0.7,0048_hp_s01_0.7_bird_10_n01796340_5262.png
subject-01,1,49,0.892647981643677,bear,bear,1,0049_hp_s01_1_bear_10_n02132136_10559.png
subject-01,1,50,0.716427087783813,bear,bear,inf,0050_hp_s01_inf_bear_10_n02133161_4580.png
subject-01,1,51,0.662681102752686,knife,knife,1,0051_hp_s01_1_knife_10_n03041632_11797.png
subject-01,1,52,0.700537919998169,bicycle,bicycle,3,0052_hp_s01_3_bicycle_10_n02835271_6919.png
subject-01,1,53,0.640647888183594,clock,clock,0.7,0053_hp_s01_0.7_clock_10_n04548280_5038.png
subject-01,1,54,1.37818098068237,chair,dog,1,0054_hp_s01_1_dog_10_n02086240_3572.png
subject-01,1,55,1.04876899719238,dog,bird,0.4,0055_hp_s01_0.4_bird_10_n02011460_19684.png
subject-01,1,56,1.06521987915039,bottle,bottle,0.45,0056_hp_s01_0.45_bottle_10_n04557648_413.png
subject-01,1,57,0.826812028884888,bird,bird,1.5,0057_hp_s01_1.5_bird_10_n01558993_14305.png
subject-01,1,58,0.743346929550171,clock,clock,inf,0058_hp_s01_inf_clock_10_n03196217_1550.png
subject-01,1,59,0.843844175338745,bird,dog,0.7,0059_hp_s01_0.7_dog_10_n02101006_16129.png
subject-01,1,60,1.12137317657471,airplane,dog,0.4,0060_hp_s01_0.4_dog_10_n02106662_37555.png
subject-01,1,61,0.983750104904175,dog,dog,inf,0061_hp_s01_inf_dog_10_n02099601_5760.png
subject-01,1,62,0.737910032272339,dog,dog,1.5,0062_hp_s01_1.5_dog_10_n02100236_1502.png
subject-01,1,63,1.26246404647827,bottle,bear,inf,0063_hp_s01_inf_bear_10_n02134084_6910.png
subject-01,1,64,1.16493916511536,dog,bear,0.45,0064_hp_s01_0.45_bear_10_n02134418_7067.png
subject-01,1,65,0.665619850158691,bear,bear,0.55,0065_hp_s01_0.55_bear_10_n02133161_489.png
subject-01,1,66,0.997965812683105,keyboard,dog,0.4,0066_hp_s01_0.4_dog_10_n02108422_7493.png
subject-01,1,67,0.630331039428711,clock,clock,inf,0067_hp_s01_inf_clock_10_n03196217_4844.png
subject-01,1,68,0.668884992599487,cat,cat,0.7,0068_hp_s01_0.7_cat_10_n02123045_11126.png
subject-01,1,69,1.11711311340332,clock,keyboard,0.4,0069_hp_s01_0.4_keyboard_10_n04505470_207.png
subject-01,1,70,1.0419008731842,elephant,elephant,0.55,0070_hp_s01_0.55_elephant_10_n02504458_2618.png
subject-01,1,71,1.2963330745697,bicycle,oven,0.4,0071_hp_s01_0.4_oven_10_n04111531_1330.png
subject-01,1,72,0.633496046066284,keyboard,keyboard,3,0072_hp_s01_3_keyboard_10_n04505470_550.png
subject-01,1,73,1.05004286766052,car,elephant,0.45,0073_hp_s01_0.45_elephant_10_n02504458_4767.png
subject-01,1,74,0.612567901611328,keyboard,keyboard,1.5,0074_hp_s01_1.5_keyboard_10_n03085013_4157.png
subject-01,1,75,0.861102819442749,truck,bear,0.4,0075_hp_s01_0.4_bear_10_n02133161_1506.png
subject-01,1,76,0.823969841003418,truck,truck,1,0076_hp_s01_1_truck_10_n04467665_56954.png
subject-01,1,77,1.13989186286926,knife,knife,1.5,0077_hp_s01_1.5_knife_10_n03041632_13518.png
subject-01,1,78,0.772603988647461,cat,cat,inf,0078_hp_s01_inf_cat_10_n02123045_10395.png
subject-01,1,79,0.728921890258789,knife,knife,0.55,0079_hp_s01_0.55_knife_10_n03041632_17338.png
subject-01,1,80,0.683411836624146,airplane,airplane,0.7,0080_hp_s01_0.7_airplane_10_n02690373_6328.png
subject-01,1,81,0.76217794418335,airplane,airplane,0.45,0081_hp_s01_0.45_airplane_10_n02690373_798.png
subject-01,1,82,0.770256042480469,keyboard,keyboard,0.7,0082_hp_s01_0.7_keyboard_10_n04505470_4966.png
subject-01,1,83,0.794710874557495,truck,truck,inf,0083_hp_s01_inf_truck_10_n04467665_55193.png
subject-01,1,84,0.941179037094116,dog,cat,0.45,0084_hp_s01_0.45_cat_10_n02123394_2084.png
subject-01,1,85,0.757435083389282,bird,bird,3,0085_hp_s01_3_bird_10_n01828970_15425.png
subject-01,1,86,0.830106019973755,bear,bear,1.5,0086_hp_s01_1.5_bear_10_n02134418_3216.png
subject-01,1,87,1.10070610046387,dog,dog,1.5,0087_hp_s01_1.5_dog_10_n02110063_11495.png
subject-01,1,88,0.90942907333374,bottle,bird,0.4,0088_hp_s01_0.4_bird_10_n02002556_121.png
subject-01,1,89,0.963876008987427,chair,chair,0.7,0089_hp_s01_0.7_chair_10_n02791124_5759.png
subject-01,1,90,0.774316072463989,keyboard,keyboard,1.5,0090_hp_s01_1.5_keyboard_10_n03085013_23583.png
subject-01,1,91,1.21693992614746,knife,keyboard,inf,0091_hp_s01_inf_keyboard_10_n03085013_23213.png
subject-01,1,92,0.841453075408936,bear,keyboard,0.45,0092_hp_s01_0.45_keyboard_10_n04505470_709.png
subject-01,1,93,0.728013038635254,truck,truck,3,0093_hp_s01_3_truck_10_n03417042_212.png
subject-01,1,94,1.00642609596252,clock,clock,1,0094_hp_s01_1_clock_10_n03196217_711.png
subject-01,1,95,0.930956125259399,truck,truck,3,0095_hp_s01_3_truck_10_n04467665_45796.png
subject-01,1,96,0.885544061660767,cat,cat,1.5,0096_hp_s01_1.5_cat_10_n02123159_5934.png
subject-01,1,97,1.01024889945984,elephant,elephant,3,0097_hp_s01_3_elephant_10_n02504013_9566.png
subject-01,1,98,0.850706815719604,keyboard,keyboard,0.55,0098_hp_s01_0.55_keyboard_10_n03085013_8325.png
subject-01,1,99,0.651083946228027,keyboard,keyboard,3,0099_hp_s01_3_keyboard_10_n03085013_19401.png
subject-01,1,100,0.645442008972168,cat,cat,1,0100_hp_s01_1_cat_10_n02124075_11528.png
subject-01,1,101,0.676053047180176,cat,cat,1,0101_hp_s01_1_cat_10_n02125311_12070.png
subject-01,1,102,0.986155033111572,bottle,clock,0.4,0102_hp_s01_0.4_clock_10_n03196217_2628.png
subject-01,1,103,0.62492299079895,boat,boat,1,0103_hp_s01_1_boat_10_n04612504_31680.png
subject-01,1,104,0.810861110687256,keyboard,keyboard,0.7,0104_hp_s01_0.7_keyboard_10_n03085013_1483.png
subject-01,1,105,0.989443063735962,bear,oven,0.55,0105_hp_s01_0.55_oven_10_n04111531_3702.png
subject-01,1,106,0.782366991043091,chair,clock,0.4,0106_hp_s01_0.4_clock_10_n04548280_1126.png
subject-01,1,107,0.676537990570068,clock,clock,1,0107_hp_s01_1_clock_10_n04548280_3013.png
subject-01,1,108,0.725224018096924,chair,chair,1,0108_hp_s01_1_chair_10_n04099969_4275.png
subject-01,1,109,0.887831926345825,keyboard,keyboard,0.7,0109_hp_s01_0.7_keyboard_10_n04505470_4569.png
subject-01,1,110,0.782291889190674,bear,bicycle,0.55,0110_hp_s01_0.55_bicycle_10_n03792782_10876.png
subject-01,1,111,0.761168003082275,boat,truck,0.7,0111_hp_s01_0.7_truck_10_n04467665_22974.png
subject-01,1,112,0.961512804031372,elephant,elephant,1.5,0112_hp_s01_1.5_elephant_10_n02504458_5369.png
subject-01,1,113,0.747982978820801,airplane,airplane,1,0113_hp_s01_1_airplane_10_n02690373_3289.png
subject-01,1,114,0.648236989974976,boat,boat,0.7,0114_hp_s01_0.7_boat_10_n03344393_3219.png
subject-01,1,115,0.818743944168091,bird,bird,0.55,0115_hp_s01_0.55_bird_10_n02009912_91.png
subject-01,1,116,1.14399099349976,chair,bird,0.45,0116_hp_s01_0.45_bird_10_n01796340_1877.png
subject-01,1,117,0.621731042861938,bird,bird,1,0117_hp_s01_1_bird_10_n01860187_1191.png
subject-01,1,118,1.30879187583923,bicycle,chair,0.45,0118_hp_s01_0.45_chair_10_n03376595_14970.png
subject-01,1,119,0.816944122314453,oven,oven,1.5,0119_hp_s01_1.5_oven_10_n04111531_14959.png
subject-01,1,120,0.787667036056519,cat,cat,3,0120_hp_s01_3_cat_10_n02123045_1120.png
subject-01,1,121,1.03585696220398,keyboard,chair,inf,0121_hp_s01_inf_chair_10_n03376595_9165.png
subject-01,1,122,1.05291104316711,dog,boat,1,0122_hp_s01_1_boat_10_n04612504_1869.png
subject-01,1,123,0.584601879119873,airplane,airplane,3,0123_hp_s01_3_airplane_10_n02690373_1053.png
subject-01,1,124,1.247389793396,bottle,bottle,1.5,0124_hp_s01_1.5_bottle_10_n03983396_12916.png
subject-01,1,125,0.779793977737427,airplane,airplane,0.55,0125_hp_s01_0.55_airplane_10_n02690373_7685.png
subject-01,1,126,0.658375024795532,cat,cat,1.5,0126_hp_s01_1.5_cat_10_n02123394_3813.png
subject-01,1,127,0.774444103240967,bear,bear,0.45,0127_hp_s01_0.45_bear_10_n02132136_2108.png
subject-01,1,128,1.22255396842957,cat,bear,inf,0128_hp_s01_inf_bear_10_n02133161_8471.png
subject-01,1,129,0.623059034347534,cat,cat,inf,0129_hp_s01_inf_cat_10_n02125311_18354.png
subject-01,1,130,0.671642065048218,bicycle,bottle,0.4,0130_hp_s01_0.4_bottle_10_n03983396_3047.png
subject-01,1,131,0.749648094177246,bird,bird,1.5,0131_hp_s01_1.5_bird_10_n01818515_42621.png
subject-01,1,132,0.774385929107666,knife,bottle,0.45,0132_hp_s01_0.45_bottle_10_n03937543_11897.png
subject-01,1,133,0.958803176879883,boat,boat,0.45,0133_hp_s01_0.45_boat_10_n03344393_381.png
subject-01,1,134,1.08533191680908,oven,dog,0.45,0134_hp_s01_0.45_dog_10_n02097209_7557.png
subject-01,1,135,1.18171620368958,truck,truck,1.5,0135_hp_s01_1.5_truck_10_n03417042_1770.png
subject-01,1,136,0.743453979492188,knife,knife,1.5,0136_hp_s01_1.5_knife_10_n03041632_38540.png
subject-01,1,137,0.897879123687744,oven,oven,1.5,0137_hp_s01_1.5_oven_10_n04111531_20407.png
subject-01,1,138,0.614057064056396,bicycle,bicycle,1,0138_hp_s01_1_bicycle_10_n02835271_6906.png
subject-01,1,139,1.06280088424683,truck,elephant,0.4,0139_hp_s01_0.4_elephant_10_n02504013_1492.png
subject-01,1,140,0.809340953826904,bird,bird,0.7,0140_hp_s01_0.7_bird_10_n01855032_3713.png
subject-01,1,141,0.719187021255493,bottle,car,0.4,0141_hp_s01_0.4_car_10_n03100240_23060.png
subject-01,1,142,0.695537090301514,bird,bird,1.5,0142_hp_s01_1.5_bird_10_n02051845_14208.png
subject-01,1,143,0.589991092681885,cat,cat,inf,0143_hp_s01_inf_cat_10_n02124075_8754.png
subject-01,1,144,0.814071893692017,keyboard,elephant,0.45,0144_hp_s01_0.45_elephant_10_n02504458_4137.png
subject-01,1,145,0.660506963729858,cat,cat,0.7,0145_hp_s01_0.7_cat_10_n02123159_7161.png
subject-01,1,146,0.684700965881348,oven,oven,3,0146_hp_s01_3_oven_10_n04111531_7298.png
subject-01,1,147,0.608784914016724,bicycle,bicycle,inf,0147_hp_s01_inf_bicycle_10_n02835271_9191.png
subject-01,1,148,0.919546127319336,knife,knife,0.55,0148_hp_s01_0.55_knife_10_n03041632_13203.png
subject-01,1,149,0.627233028411865,car,car,inf,0149_hp_s01_inf_car_10_n04285008_6587.png
subject-01,1,150,0.843755960464478,car,chair,0.7,0150_hp_s01_0.7_chair_10_n03376595_3566.png
subject-01,1,151,1.45194911956787,bird,oven,3,0151_hp_s01_3_oven_10_n04111531_13128.png
subject-01,1,152,0.792275190353394,boat,bear,0.4,0152_hp_s01_0.4_bear_10_n02133161_2813.png
subject-01,1,153,0.792346954345703,chair,chair,0.55,0153_hp_s01_0.55_chair_10_n04099969_34144.png
subject-01,1,154,0.902779102325439,dog,dog,0.45,0154_hp_s01_0.45_dog_10_n02111500_2439.png
subject-01,1,155,0.79517388343811,elephant,elephant,inf,0155_hp_s01_inf_elephant_10_n02504458_12303.png
subject-01,1,156,0.64353609085083,bird,bird,inf,0156_hp_s01_inf_bird_10_n02056570_11311.png
subject-01,1,157,0.920000791549683,oven,bear,0.45,0157_hp_s01_0.45_bear_10_n02134418_2157.png
subject-01,1,158,0.914511919021606,elephant,elephant,1,0158_hp_s01_1_elephant_10_n02504013_3169.png
subject-01,1,159,0.868360042572021,bottle,bottle,1.5,0159_hp_s01_1.5_bottle_10_n03983396_11898.png
subject-01,1,160,0.700567007064819,elephant,elephant,0.7,0160_hp_s01_0.7_elephant_10_n02504458_6135.png
subject-01,1,161,1.02006006240845,car,keyboard,0.45,0161_hp_s01_0.45_keyboard_10_n03085013_23316.png
subject-01,1,162,0.682568073272705,keyboard,keyboard,0.7,0162_hp_s01_0.7_keyboard_10_n03085013_21973.png
subject-01,1,163,0.560440063476562,boat,boat,1.5,0163_hp_s01_1.5_boat_10_n02951358_2813.png
subject-01,1,164,0.57082200050354,oven,clock,inf,0164_hp_s01_inf_clock_10_n02708093_6918.png
subject-01,1,165,0.725106000900269,bottle,bottle,3,0165_hp_s01_3_bottle_10_n02823428_6830.png
subject-01,1,166,0.857618093490601,car,car,inf,0166_hp_s01_inf_car_10_n02814533_27824.png
subject-01,1,167,0.979608058929443,bear,elephant,0.45,0167_hp_s01_0.45_elephant_10_n02504458_217.png
subject-01,1,168,0.787186861038208,bicycle,bicycle,3,0168_hp_s01_3_bicycle_10_n02835271_11922.png
subject-01,1,169,0.503406047821045,boat,boat,1.5,0169_hp_s01_1.5_boat_10_n04273569_3401.png
subject-01,1,170,0.959656000137329,knife,elephant,3,0170_hp_s01_3_elephant_10_n02504458_3399.png
subject-01,1,171,0.630232095718384,boat,boat,0.45,0171_hp_s01_0.45_boat_10_n03662601_14982.png
subject-01,1,172,0.58491587638855,keyboard,bird,0.4,0172_hp_s01_0.4_bird_10_n01828970_8669.png
subject-01,1,173,0.563037157058716,oven,oven,inf,0173_hp_s01_inf_oven_10_n04111531_3076.png
subject-01,1,174,0.733707904815674,bear,bear,inf,0174_hp_s01_inf_bear_10_n02132136_13370.png
subject-01,1,175,0.833686113357544,airplane,airplane,1,0175_hp_s01_1_airplane_10_n02690373_9318.png
subject-01,1,176,0.758204221725464,truck,chair,0.45,0176_hp_s01_0.45_chair_10_n04099969_8946.png
subject-01,1,177,0.77405309677124,elephant,elephant,0.45,0177_hp_s01_0.45_elephant_10_n02504458_9094.png
subject-01,1,178,0.852787017822266,bird,bottle,0.45,0178_hp_s01_0.45_bottle_10_n04560804_7509.png
subject-01,1,179,0.92278003692627,dog,dog,inf,0179_hp_s01_inf_dog_10_n02086646_5897.png
subject-01,1,180,0.73929500579834,bird,bird,0.55,0180_hp_s01_0.55_bird_10_n02028035_17759.png
subject-01,1,181,0.571598052978516,bird,bird,3,0181_hp_s01_3_bird_10_n01534433_5046.png
subject-01,1,182,0.709743022918701,keyboard,clock,0.45,0182_hp_s01_0.45_clock_10_n02708093_2926.png
subject-01,1,183,0.61180591583252,elephant,elephant,1.5,0183_hp_s01_1.5_elephant_10_n02504013_4560.png
subject-01,1,184,0.874222993850708,knife,elephant,0.4,0184_hp_s01_0.4_elephant_10_n02504458_6714.png
subject-01,1,185,0.903975963592529,knife,knife,3,0185_hp_s01_3_knife_10_n03041632_1407.png
subject-01,1,186,0.766685009002686,chair,chair,1.5,0186_hp_s01_1.5_chair_10_n03376595_99.png
subject-01,1,187,0.93906307220459,keyboard,chair,0.55,0187_hp_s01_0.55_chair_10_n03376595_12251.png
subject-01,1,188,0.701534986495972,truck,chair,0.4,0188_hp_s01_0.4_chair_10_n02791124_1814.png
subject-01,1,189,1.09430003166199,cat,bird,1,0189_hp_s01_1_bird_10_n01820546_3605.png
subject-01,1,190,0.872668027877808,knife,knife,1,0190_hp_s01_1_knife_10_n03041632_4214.png
subject-01,1,191,0.575035095214844,oven,oven,inf,0191_hp_s01_inf_oven_10_n04111531_5802.png
subject-01,1,192,0.775454998016357,truck,truck,0.45,0192_hp_s01_0.45_truck_10_n04467665_64540.png
subject-01,1,193,0.731945991516113,elephant,elephant,inf,0193_hp_s01_inf_elephant_10_n02504013_816.png
subject-01,1,194,1.23210716247559,clock,elephant,0.4,0194_hp_s01_0.4_elephant_10_n02504013_3979.png
subject-01,1,195,0.872519969940186,airplane,airplane,0.55,0195_hp_s01_0.55_airplane_10_n02690373_817.png
subject-01,1,196,1.02690505981445,elephant,dog,0.45,0196_hp_s01_0.45_dog_10_n02111129_6881.png
subject-01,1,197,0.97545313835144,elephant,elephant,0.7,0197_hp_s01_0.7_elephant_10_n02504458_1233.png
subject-01,1,198,1.03803396224976,knife,knife,1.5,0198_hp_s01_1.5_knife_10_n03041632_91967.png
subject-01,1,199,1.45452499389648,bird,elephant,0.55,0199_hp_s01_0.55_elephant_10_n02504458_11214.png
subject-01,1,200,0.901103973388672,airplane,airplane,3,0200_hp_s01_3_airplane_10_n02690373_3468.png
subject-01,1,201,0.619179964065552,clock,clock,0.55,0201_hp_s01_0.55_clock_10_n02708093_5311.png
subject-01,1,202,0.619471073150635,bird,bird,1.5,0202_hp_s01_1.5_bird_10_n01616318_9819.png
subject-01,1,203,1.01400589942932,dog,dog,inf,0203_hp_s01_inf_dog_10_n02097047_2877.png
subject-01,1,204,0.846330165863037,elephant,elephant,1,0204_hp_s01_1_elephant_10_n02504013_6904.png
subject-01,1,205,0.808620929718018,bottle,knife,0.4,0205_hp_s01_0.4_knife_10_n03041632_30602.png
subject-01,1,206,0.848675966262817,car,cat,0.45,0206_hp_s01_0.45_cat_10_n02125311_20316.png
subject-01,1,207,0.578978061676025,boat,boat,inf,0207_hp_s01_inf_boat_10_n03662601_4295.png
subject-01,1,208,0.527091026306152,chair,chair,inf,0208_hp_s01_inf_chair_10_n03376595_9926.png
subject-01,1,209,0.451630830764771,boat,boat,1.5,0209_hp_s01_1.5_boat_10_n04273569_10149.png
subject-01,1,210,0.484269857406616,clock,clock,1.5,0210_hp_s01_1.5_clock_10_n04548280_3198.png
subject-01,1,211,0.647001981735229,bottle,bottle,3,0211_hp_s01_3_bottle_10_n02823428_5115.png
subject-01,1,212,0.787092924118042,bear,bear,1,0212_hp_s01_1_bear_10_n02134418_4515.png
subject-01,1,213,0.738066911697388,bicycle,bicycle,3,0213_hp_s01_3_bicycle_10_n03792782_19985.png
subject-01,1,214,0.740654945373535,clock,oven,0.45,0214_hp_s01_0.45_oven_10_n04111531_9314.png
subject-01,1,215,0.679321050643921,bicycle,bicycle,1.5,0215_hp_s01_1.5_bicycle_10_n02835271_1874.png
subject-01,1,216,0.773254871368408,oven,oven,0.7,0216_hp_s01_0.7_oven_10_n04111531_3955.png
subject-01,1,217,0.603132963180542,airplane,airplane,1.5,0217_hp_s01_1.5_airplane_10_n02690373_4148.png
subject-01,1,218,0.690006971359253,airplane,airplane,inf,0218_hp_s01_inf_airplane_10_n02690373_5779.png
subject-01,1,219,0.976150989532471,bird,bird,inf,0219_hp_s01_inf_bird_10_n01833805_3578.png
subject-01,1,220,0.738314151763916,bottle,bottle,1,0220_hp_s01_1_bottle_10_n04591713_4206.png
subject-01,1,221,0.731124877929688,chair,dog,0.4,0221_hp_s01_0.4_dog_10_n02108551_8385.png
subject-01,1,222,0.724991798400879,truck,chair,0.4,0222_hp_s01_0.4_chair_10_n04429376_10628.png
subject-01,1,223,0.711765050888062,clock,clock,0.7,0223_hp_s01_0.7_clock_10_n03196217_6217.png
subject-01,1,224,0.614950895309448,oven,oven,0.55,0224_hp_s01_0.55_oven_10_n04111531_3977.png
subject-01,1,225,0.699456930160522,car,boat,0.4,0225_hp_s01_0.4_boat_10_n02951358_6637.png
subject-01,1,226,0.893867969512939,oven,chair,0.7,0226_hp_s01_0.7_chair_10_n04429376_22819.png
subject-01,1,227,0.680426120758057,bicycle,bicycle,0.7,0227_hp_s01_0.7_bicycle_10_n02835271_20175.png
subject-01,1,228,0.864255905151367,keyboard,cat,0.4,0228_hp_s01_0.4_cat_10_n02123045_12748.png
subject-01,1,229,0.896859169006348,truck,boat,0.4,0229_hp_s01_0.4_boat_10_n02951358_11867.png
subject-01,1,230,0.845037937164307,airplane,bicycle,0.4,0230_hp_s01_0.4_bicycle_10_n02835271_1261.png
subject-01,1,231,0.653347969055176,oven,oven,inf,0231_hp_s01_inf_oven_10_n04111531_16251.png
subject-01,1,232,1.19983100891113,dog,dog,1,0232_hp_s01_1_dog_10_n02088364_13814.png
subject-01,1,233,0.932101964950562,bear,elephant,0.4,0233_hp_s01_0.4_elephant_10_n02504458_5008.png
subject-01,1,234,1.44022798538208,elephant,boat,0.55,0234_hp_s01_0.55_boat_10_n03344393_4502.png
subject-01,1,235,1.11871004104614,airplane,clock,0.4,0235_hp_s01_0.4_clock_10_n02708093_6717.png
subject-01,1,236,1.00329399108887,oven,oven,3,0236_hp_s01_3_oven_10_n04111531_2042.png
subject-01,1,237,0.95958685874939,dog,dog,3,0237_hp_s01_3_dog_10_n02091244_3193.png
subject-01,1,238,0.838142871856689,keyboard,keyboard,1,0238_hp_s01_1_keyboard_10_n04505470_142.png
subject-01,1,239,0.730315923690796,bird,bear,0.4,0239_hp_s01_0.4_bear_10_n02134418_119.png
subject-01,1,240,0.808866024017334,bicycle,bicycle,3,0240_hp_s01_3_bicycle_10_n03792782_4472.png
subject-01,1,241,0.809188842773438,clock,bottle,0.55,0241_hp_s01_0.55_bottle_10_n02823428_11140.png
subject-01,1,242,0.749771118164062,airplane,airplane,inf,0242_hp_s01_inf_airplane_10_n02690373_9535.png
subject-01,1,243,0.763694047927856,knife,knife,1.5,0243_hp_s01_1.5_knife_10_n03041632_33075.png
subject-01,1,244,0.774241209030151,clock,airplane,1,0244_hp_s01_1_airplane_10_n02690373_1167.png
subject-01,1,245,0.644611120223999,clock,clock,0.55,0245_hp_s01_0.55_clock_10_n03196217_1454.png
subject-01,1,246,1.06734395027161,dog,bird,0.45,0246_hp_s01_0.45_bird_10_n01614925_7608.png
subject-01,1,247,0.799536943435669,truck,truck,1,0247_hp_s01_1_truck_10_n04467665_5053.png
subject-01,1,248,0.953644037246704,keyboard,dog,0.4,0248_hp_s01_0.4_dog_10_n02108000_7066.png
subject-01,1,249,0.661761999130249,keyboard,keyboard,3,0249_hp_s01_3_keyboard_10_n03085013_5738.png
subject-01,1,250,0.802000999450684,boat,bottle,0.4,0250_hp_s01_0.4_bottle_10_n03983396_4165.png
subject-01,1,251,0.880433082580566,keyboard,keyboard,0.4,0251_hp_s01_0.4_keyboard_10_n04505470_9762.png
subject-01,1,252,0.889139890670776,clock,clock,0.45,0252_hp_s01_0.45_clock_10_n04548280_4713.png
subject-01,1,253,1.08147192001343,bird,bottle,0.4,0253_hp_s01_0.4_bottle_10_n04557648_11977.png
subject-01,1,254,0.943947076797485,oven,bear,0.45,0254_hp_s01_0.45_bear_10_n02134084_3177.png
subject-01,1,255,0.845848083496094,boat,truck,0.4,0255_hp_s01_0.4_truck_10_n03796401_4423.png
subject-01,1,256,0.738475799560547,bottle,bottle,1,0256_hp_s01_1_bottle_10_n04591713_4892.png
subject-01,1,257,1.01682806015015,bicycle,elephant,0.45,0257_hp_s01_0.45_elephant_10_n02504013_2545.png
subject-01,1,258,1.15756678581238,clock,knife,3,0258_hp_s01_3_knife_10_n03041632_11603.png
subject-01,1,259,0.611883878707886,clock,clock,0.55,0259_hp_s01_0.55_clock_10_n03196217_2983.png
subject-01,1,260,0.820450067520142,elephant,elephant,0.7,0260_hp_s01_0.7_elephant_10_n02504013_21877.png
subject-01,1,261,0.698848009109497,knife,knife,1,0261_hp_s01_1_knife_10_n03041632_105080.png
subject-01,1,262,0.645264148712158,clock,clock,3,0262_hp_s01_3_clock_10_n03196217_7353.png
subject-01,1,263,0.837057828903198,oven,oven,0.55,0263_hp_s01_0.55_oven_10_n04111531_21973.png
subject-01,1,264,0.753575086593628,bottle,keyboard,0.7,0264_hp_s01_0.7_keyboard_10_n03085013_20673.png
subject-01,1,265,0.717690944671631,knife,knife,1,0265_hp_s01_1_knife_10_n03041632_12707.png
subject-01,1,266,0.688043117523193,elephant,elephant,1.5,0266_hp_s01_1.5_elephant_10_n02504013_4166.png
subject-01,1,267,0.772142171859741,car,knife,0.4,0267_hp_s01_0.4_knife_10_n03041632_14774.png
subject-01,1,268,0.918664932250977,cat,bear,0.7,0268_hp_s01_0.7_bear_10_n02134084_5004.png
subject-01,1,269,0.789158821105957,boat,airplane,0.7,0269_hp_s01_0.7_airplane_10_n02690373_18506.png
subject-01,1,270,1.04365491867065,chair,knife,0.7,0270_hp_s01_0.7_knife_10_n03041632_28710.png
subject-01,1,271,0.992029905319214,car,dog,0.4,0271_hp_s01_0.4_dog_10_n02085936_4391.png
subject-01,1,272,0.908792972564697,bird,bear,inf,0272_hp_s01_inf_bear_10_n02134084_3695.png
subject-01,1,273,0.608963012695312,keyboard,keyboard,3,0273_hp_s01_3_keyboard_10_n03085013_23776.png
subject-01,1,274,0.847568988800049,bird,bird,3,0274_hp_s01_3_bird_10_n01530575_3831.png
subject-01,1,275,0.763459205627441,bicycle,bicycle,1.5,0275_hp_s01_1.5_bicycle_10_n03792782_14557.png
subject-01,1,276,1.11745691299438,keyboard,oven,0.55,0276_hp_s01_0.55_oven_10_n04111531_3082.png
subject-01,1,277,0.68812894821167,bear,bear,1.5,0277_hp_s01_1.5_bear_10_n02133161_1970.png
subject-01,1,278,0.904082059860229,dog,dog,1,0278_hp_s01_1_dog_10_n02099267_14149.png
subject-01,1,279,0.796694040298462,truck,truck,1.5,0279_hp_s01_1.5_truck_10_n04467665_45872.png
subject-01,1,280,0.804876089096069,bicycle,cat,0.4,0280_hp_s01_0.4_cat_10_n02123045_4812.png
subject-01,1,281,0.82343602180481,airplane,airplane,0.55,0281_hp_s01_0.55_airplane_10_n02690373_3035.png
subject-01,1,282,0.553766012191772,oven,oven,3,0282_hp_s01_3_oven_10_n04111531_4826.png
subject-01,1,283,0.716136932373047,boat,boat,inf,0283_hp_s01_inf_boat_10_n03662601_11276.png
subject-01,1,284,0.770857095718384,bear,airplane,0.4,0284_hp_s01_0.4_airplane_10_n02690373_191.png
subject-01,1,285,0.703455924987793,knife,boat,0.4,0285_hp_s01_0.4_boat_10_n03344393_7394.png
subject-01,1,286,0.66601300239563,boat,boat,0.7,0286_hp_s01_0.7_boat_10_n04612504_37043.png
subject-01,1,287,0.666224002838135,clock,knife,0.45,0287_hp_s01_0.45_knife_10_n03041632_2184.png
subject-01,1,288,0.723438024520874,truck,truck,1,0288_hp_s01_1_truck_10_n03417042_4520.png
subject-01,1,289,1.44540500640869,chair,chair,0.7,0289_hp_s01_0.7_chair_10_n04099969_13775.png
subject-01,1,290,0.761885166168213,elephant,elephant,0.55,0290_hp_s01_0.55_elephant_10_n02504013_2369.png
subject-01,1,291,0.670222997665405,bicycle,bicycle,1.5,0291_hp_s01_1.5_bicycle_10_n02835271_358.png
subject-01,1,292,0.723962068557739,clock,oven,3,0292_hp_s01_3_oven_10_n04111531_2066.png
subject-01,1,293,0.924330949783325,truck,truck,0.55,0293_hp_s01_0.55_truck_10_n03417042_7310.png
subject-01,1,294,0.764453887939453,knife,knife,1,0294_hp_s01_1_knife_10_n03041632_27575.png
subject-01,1,295,0.87122106552124,truck,truck,inf,0295_hp_s01_inf_truck_10_n03796401_1458.png
subject-01,1,296,0.933515071868896,keyboard,keyboard,1,0296_hp_s01_1_keyboard_10_n03085013_22494.png
subject-01,1,297,0.603188991546631,clock,clock,1.5,0297_hp_s01_1.5_clock_10_n03196217_71.png
subject-01,1,298,1.31148481369019,dog,cat,0.7,0298_hp_s01_0.7_cat_10_n02123597_3634.png
subject-01,1,299,0.681986093521118,bear,bear,1.5,0299_hp_s01_1.5_bear_10_n02133161_13077.png
subject-01,1,300,0.858685970306396,airplane,car,0.4,0300_hp_s01_0.4_car_10_n02814533_85296.png
subject-01,1,301,0.99934983253479,car,car,0.45,0301_hp_s01_0.45_car_10_n03100240_12361.png
subject-01,1,302,0.815042018890381,truck,truck,inf,0302_hp_s01_inf_truck_10_n03417042_5257.png
subject-01,1,303,1.02118682861328,knife,knife,3,0303_hp_s01_3_knife_10_n03041632_33739.png
subject-01,1,304,0.577661991119385,boat,boat,1,0304_hp_s01_1_boat_10_n04273569_3770.png
subject-01,1,305,0.978368043899536,boat,boat,1.5,0305_hp_s01_1.5_boat_10_n02951358_30635.png
subject-01,1,306,0.978255033493042,bear,bear,1.5,0306_hp_s01_1.5_bear_10_n02132136_5051.png
subject-01,1,307,1.47882795333862,keyboard,bicycle,0.7,0307_hp_s01_0.7_bicycle_10_n02835271_1035.png
subject-01,1,308,0.635297060012817,bird,bird,3,0308_hp_s01_3_bird_10_n01820546_228.png
subject-01,1,309,0.765951156616211,car,clock,0.4,0309_hp_s01_0.4_clock_10_n04548280_9867.png
subject-01,1,310,1.15241980552673,keyboard,knife,0.7,0310_hp_s01_0.7_knife_10_n03041632_39739.png
subject-01,1,311,0.898993015289307,car,car,3,0311_hp_s01_3_car_10_n04285008_13104.png
subject-01,1,312,1.01528692245483,bicycle,bicycle,0.55,0312_hp_s01_0.55_bicycle_10_n02835271_6167.png
subject-01,1,313,0.601452112197876,boat,boat,3,0313_hp_s01_3_boat_10_n03344393_408.png
subject-01,1,314,0.847495794296265,airplane,boat,0.4,0314_hp_s01_0.4_boat_10_n03662601_2438.png
subject-01,1,315,0.986078977584839,boat,truck,0.45,0315_hp_s01_0.45_truck_10_n03417042_2315.png
subject-01,1,316,0.85683012008667,knife,knife,inf,0316_hp_s01_inf_knife_10_n03041632_20595.png
subject-01,1,317,0.993165969848633,bear,bicycle,0.45,0317_hp_s01_0.45_bicycle_10_n03792782_44296.png
subject-01,1,318,1.14691805839539,truck,clock,0.4,0318_hp_s01_0.4_clock_10_n02708093_3743.png
subject-01,1,319,0.923521995544434,bottle,dog,0.4,0319_hp_s01_0.4_dog_10_n02090721_5305.png
subject-01,1,320,1.41604280471802,chair,elephant,0.4,0320_hp_s01_0.4_elephant_10_n02504013_295.png
subject-01,1,321,0.499587059020996,oven,oven,inf,0321_hp_s01_inf_oven_10_n04111531_1723.png
subject-01,1,322,0.708065032958984,oven,elephant,0.55,0322_hp_s01_0.55_elephant_10_n02504013_7422.png
subject-01,1,323,0.978085994720459,car,car,1,0323_hp_s01_1_car_10_n04285008_6200.png
subject-01,1,324,1.0624041557312,knife,keyboard,0.55,0324_hp_s01_0.55_keyboard_10_n03085013_6963.png
subject-01,1,325,0.740665912628174,car,car,3,0325_hp_s01_3_car_10_n03100240_2420.png
subject-01,1,326,0.642982006072998,chair,chair,inf,0326_hp_s01_inf_chair_10_n02791124_6999.png
subject-01,1,327,1.05741405487061,boat,truck,0.45,0327_hp_s01_0.45_truck_10_n04467665_36855.png
subject-01,1,328,0.827430009841919,bicycle,bicycle,1.5,0328_hp_s01_1.5_bicycle_10_n02835271_6953.png
subject-01,1,329,0.943634986877441,bottle,bottle,1.5,0329_hp_s01_1.5_bottle_10_n04591713_6958.png
subject-01,1,330,0.852365970611572,keyboard,bicycle,0.4,0330_hp_s01_0.4_bicycle_10_n02835271_8098.png
subject-01,1,331,0.944571971893311,cat,cat,0.7,0331_hp_s01_0.7_cat_10_n02124075_8732.png
subject-01,1,332,0.761080026626587,keyboard,keyboard,0.55,0332_hp_s01_0.55_keyboard_10_n04505470_7686.png
subject-01,1,333,0.847856998443604,car,oven,0.45,0333_hp_s01_0.45_oven_10_n04111531_4148.png
subject-01,1,334,1.0403139591217,bear,bottle,0.55,0334_hp_s01_0.55_bottle_10_n04560804_13142.png
subject-01,1,335,0.84829306602478,boat,boat,0.7,0335_hp_s01_0.7_boat_10_n03344393_2941.png
subject-01,1,336,0.978537797927856,boat,airplane,0.45,0336_hp_s01_0.45_airplane_10_n02690373_2692.png
subject-01,1,337,0.956859111785889,dog,airplane,0.4,0337_hp_s01_0.4_airplane_10_n02690373_4788.png
subject-01,1,338,0.540885925292969,clock,clock,0.7,0338_hp_s01_0.7_clock_10_n02708093_3688.png
subject-01,1,339,0.935402870178223,car,car,inf,0339_hp_s01_inf_car_10_n03100240_2477.png
subject-01,1,340,1.29546904563904,elephant,elephant,1.5,0340_hp_s01_1.5_elephant_10_n02504013_7079.png
subject-01,1,341,1.18155789375305,airplane,boat,0.7,0341_hp_s01_0.7_boat_10_n03662601_12531.png
subject-01,1,342,1.05032205581665,oven,truck,0.55,0342_hp_s01_0.55_truck_10_n03417042_10642.png
subject-01,1,343,0.782752990722656,cat,knife,0.4,0343_hp_s01_0.4_knife_10_n03041632_32197.png
subject-01,1,344,0.829214096069336,truck,truck,0.7,0344_hp_s01_0.7_truck_10_n03796401_6526.png
subject-01,1,345,0.807281970977783,dog,dog,1.5,0345_hp_s01_1.5_dog_10_n02105251_6599.png
subject-01,1,346,0.715465068817139,oven,oven,inf,0346_hp_s01_inf_oven_10_n04111531_2201.png
subject-01,1,347,0.607789993286133,cat,cat,1.5,0347_hp_s01_1.5_cat_10_n02125311_4034.png
subject-01,1,348,1.50019216537476,boat,elephant,0.55,0348_hp_s01_0.55_elephant_10_n02504013_3688.png
subject-01,1,349,1.07822108268738,keyboard,cat,0.4,0349_hp_s01_0.4_cat_10_n02125311_8522.png
subject-01,1,350,0.878367185592651,cat,bear,0.55,0350_hp_s01_0.55_bear_10_n02134084_13434.png
subject-01,1,351,0.808817863464355,elephant,elephant,0.7,0351_hp_s01_0.7_elephant_10_n02504458_155.png
subject-01,1,352,0.933300971984863,knife,knife,1.5,0352_hp_s01_1.5_knife_10_n03041632_379.png
subject-01,1,353,0.933391809463501,airplane,clock,0.7,0353_hp_s01_0.7_clock_10_n03196217_1746.png
subject-01,1,354,0.89542818069458,elephant,elephant,inf,0354_hp_s01_inf_elephant_10_n02504013_5839.png
subject-01,1,355,1.04212284088135,cat,bear,0.7,0355_hp_s01_0.7_bear_10_n02133161_4161.png
subject-01,1,356,0.76659083366394,elephant,elephant,1.5,0356_hp_s01_1.5_elephant_10_n02504013_5192.png
subject-01,1,357,0.612712144851685,keyboard,keyboard,inf,0357_hp_s01_inf_keyboard_10_n03085013_7962.png
subject-01,1,358,0.959165096282959,bird,bird,1,0358_hp_s01_1_bird_10_n01560419_3160.png
subject-01,1,359,0.979970932006836,bicycle,bicycle,3,0359_hp_s01_3_bicycle_10_n02835271_781.png
subject-01,1,360,1.03356599807739,elephant,elephant,inf,0360_hp_s01_inf_elephant_10_n02504458_150.png
subject-01,1,361,0.942506074905396,boat,elephant,0.4,0361_hp_s01_0.4_elephant_10_n02504458_7269.png
subject-01,1,362,1.30477905273438,boat,bicycle,0.45,0362_hp_s01_0.45_bicycle_10_n02835271_2050.png
subject-01,1,363,1.29732894897461,clock,bottle,0.4,0363_hp_s01_0.4_bottle_10_n03983396_8837.png
subject-01,1,364,0.637545824050903,bird,bird,1.5,0364_hp_s01_1.5_bird_10_n02018795_5488.png
subject-01,1,365,0.997038125991821,truck,truck,0.7,0365_hp_s01_0.7_truck_10_n03417042_4292.png
subject-01,1,366,0.683568954467773,keyboard,keyboard,1.5,0366_hp_s01_1.5_keyboard_10_n04505470_5059.png
subject-01,1,367,1.04384899139404,bicycle,bicycle,inf,0367_hp_s01_inf_bicycle_10_n02835271_13793.png
subject-01,1,368,1.12215304374695,bottle,bottle,0.55,0368_hp_s01_0.55_bottle_10_n03983396_1904.png
subject-01,1,369,0.822525978088379,truck,truck,1.5,0369_hp_s01_1.5_truck_10_n04467665_38886.png
subject-01,1,370,0.884438037872314,keyboard,cat,0.45,0370_hp_s01_0.45_cat_10_n02124075_12467.png
subject-01,1,371,1.20701789855957,dog,dog,1.5,0371_hp_s01_1.5_dog_10_n02097047_1003.png
subject-01,1,372,0.738477945327759,bird,bird,0.7,0372_hp_s01_0.7_bird_10_n01855032_1096.png
subject-01,1,373,0.714655876159668,car,car,0.7,0373_hp_s01_0.7_car_10_n02814533_45704.png
subject-01,1,374,0.953418970108032,bear,bear,0.7,0374_hp_s01_0.7_bear_10_n02134084_5794.png
subject-01,1,375,0.907272815704346,truck,truck,0.7,0375_hp_s01_0.7_truck_10_n03417042_10958.png
subject-01,1,376,0.78608512878418,knife,knife,1,0376_hp_s01_1_knife_10_n03041632_25257.png
subject-01,1,377,0.861963033676147,airplane,elephant,0.4,0377_hp_s01_0.4_elephant_10_n02504458_63.png
subject-01,1,378,0.710408926010132,bicycle,bicycle,inf,0378_hp_s01_inf_bicycle_10_n03792782_6512.png
subject-01,1,379,1.10280203819275,car,bottle,0.45,0379_hp_s01_0.45_bottle_10_n04560804_19619.png
subject-01,1,380,1.38712882995605,bird,bird,0.55,0380_hp_s01_0.55_bird_10_n01616318_12459.png
subject-01,1,381,1.31168508529663,chair,airplane,0.4,0381_hp_s01_0.4_airplane_10_n02690373_7300.png
subject-01,1,382,0.704042196273804,oven,oven,0.7,0382_hp_s01_0.7_oven_10_n04111531_537.png
subject-01,1,383,0.558163166046143,boat,boat,1.5,0383_hp_s01_1.5_boat_10_n03344393_7659.png
subject-01,1,384,0.590419054031372,car,car,0.7,0384_hp_s01_0.7_car_10_n02814533_5278.png
subject-01,1,385,0.498569011688232,boat,boat,1.5,0385_hp_s01_1.5_boat_10_n04273569_9803.png
subject-01,1,386,1.19647479057312,cat,truck,0.4,0386_hp_s01_0.4_truck_10_n03417042_2293.png
subject-01,1,387,0.645201921463013,airplane,airplane,1.5,0387_hp_s01_1.5_airplane_10_n02690373_2316.png
subject-01,1,388,1.45355606079102,bicycle,boat,0.7,0388_hp_s01_0.7_boat_10_n03344393_7179.png
subject-01,1,389,1.50056409835815,bird,knife,0.45,0389_hp_s01_0.45_knife_10_n03041632_4443.png
subject-01,1,390,0.862726926803589,car,bottle,0.4,0390_hp_s01_0.4_bottle_10_n03983396_1151.png
subject-01,1,391,1.1930091381073,knife,knife,inf,0391_hp_s01_inf_knife_10_n03041632_48816.png
subject-01,1,392,1.50021290779114,chair,elephant,1,0392_hp_s01_1_elephant_10_n02504458_3535.png
subject-01,1,393,0.549827098846436,boat,boat,0.55,0393_hp_s01_0.55_boat_10_n03662601_1541.png
subject-01,1,394,0.672172784805298,bottle,bottle,0.7,0394_hp_s01_0.7_bottle_10_n04557648_3775.png
subject-01,1,395,0.818581819534302,bird,bird,3,0395_hp_s01_3_bird_10_n02037110_32120.png
subject-01,1,396,0.634313106536865,bicycle,bicycle,3,0396_hp_s01_3_bicycle_10_n02835271_7311.png
subject-01,1,397,0.572585105895996,clock,clock,inf,0397_hp_s01_inf_clock_10_n02708093_6635.png
subject-01,1,398,0.826898813247681,bottle,clock,3,0398_hp_s01_3_clock_10_n04548280_8083.png
subject-01,1,399,0.951427936553955,elephant,bottle,0.55,0399_hp_s01_0.55_bottle_10_n03937543_4098.png
subject-01,1,400,0.975746870040894,cat,dog,0.55,0400_hp_s01_0.55_dog_10_n02097474_2799.png
subject-01,1,401,0.546247959136963,airplane,airplane,1.5,0401_hp_s01_1.5_airplane_10_n02690373_1450.png
subject-01,1,402,0.722719192504883,car,car,0.55,0402_hp_s01_0.55_car_10_n03100240_6822.png
subject-01,1,403,1.20111393928528,truck,truck,0.55,0403_hp_s01_0.55_truck_10_n03417042_7061.png
subject-01,1,404,1.03972792625427,keyboard,keyboard,inf,0404_hp_s01_inf_keyboard_10_n04505470_4565.png
subject-01,1,405,0.726401090621948,elephant,elephant,0.55,0405_hp_s01_0.55_elephant_10_n02504013_1740.png
subject-01,1,406,1.07234120368958,clock,bottle,0.45,0406_hp_s01_0.45_bottle_10_n04591713_807.png
subject-01,1,407,0.656694889068604,bird,bird,1,0407_hp_s01_1_bird_10_n01558993_12930.png
subject-01,1,408,1.05721616744995,oven,bicycle,0.45,0408_hp_s01_0.45_bicycle_10_n03792782_19295.png
subject-01,1,409,0.797517061233521,car,car,3,0409_hp_s01_3_car_10_n04285008_6030.png
subject-01,1,410,0.71398401260376,airplane,airplane,3,0410_hp_s01_3_airplane_10_n02690373_3153.png
subject-01,1,411,0.666384935379028,bear,bear,inf,0411_hp_s01_inf_bear_10_n02134418_3152.png
subject-01,1,412,0.928867101669312,keyboard,clock,0.45,0412_hp_s01_0.45_clock_10_n03196217_2003.png
subject-01,1,413,1.06126999855042,knife,oven,0.45,0413_hp_s01_0.45_oven_10_n04111531_3348.png
subject-01,1,414,1.24602890014648,oven,oven,1,0414_hp_s01_1_oven_10_n04111531_2458.png
subject-01,1,415,0.754093170166016,bicycle,dog,0.45,0415_hp_s01_0.45_dog_10_n02099712_1184.png
subject-01,1,416,1.02918100357056,boat,chair,0.4,0416_hp_s01_0.4_chair_10_n02791124_9414.png
subject-01,1,417,0.5833899974823,boat,boat,3,0417_hp_s01_3_boat_10_n03662601_1834.png
subject-01,1,418,0.854001045227051,cat,cat,1,0418_hp_s01_1_cat_10_n02123045_2339.png
subject-01,1,419,1.10065102577209,bird,elephant,0.45,0419_hp_s01_0.45_elephant_10_n02504458_1473.png
subject-01,1,420,1.07119798660278,car,truck,3,0420_hp_s01_3_truck_10_n03417042_3748.png
subject-01,1,421,0.763212919235229,bicycle,bicycle,3,0421_hp_s01_3_bicycle_10_n02835271_4307.png
subject-01,1,422,1.05560111999512,airplane,bear,0.55,0422_hp_s01_0.55_bear_10_n02132136_9311.png
subject-01,1,423,0.99390697479248,bottle,bottle,1.5,0423_hp_s01_1.5_bottle_10_n04579145_1174.png
subject-01,1,424,0.804413080215454,knife,knife,1.5,0424_hp_s01_1.5_knife_10_n03041632_55083.png
subject-01,1,425,0.88886284828186,bicycle,bicycle,0.55,0425_hp_s01_0.55_bicycle_10_n03792782_9412.png
subject-01,1,426,1.02680802345276,chair,chair,3,0426_hp_s01_3_chair_10_n02791124_1023.png
subject-01,1,427,1.29932498931885,knife,clock,0.45,0427_hp_s01_0.45_clock_10_n04548280_4345.png
subject-01,1,428,0.701835155487061,cat,cat,3,0428_hp_s01_3_cat_10_n02123394_2274.png
subject-01,1,429,1.10218405723572,dog,bear,1,0429_hp_s01_1_bear_10_n02132136_1141.png
subject-01,1,430,0.716752052307129,cat,cat,inf,0430_hp_s01_inf_cat_10_n02124075_15171.png
subject-01,1,431,0.741003036499023,keyboard,clock,1.5,0431_hp_s01_1.5_clock_10_n03196217_10717.png
subject-01,1,432,0.911137104034424,clock,keyboard,0.55,0432_hp_s01_0.55_keyboard_10_n03085013_21301.png
subject-01,1,433,0.657728910446167,keyboard,keyboard,0.55,0433_hp_s01_0.55_keyboard_10_n04505470_1043.png
subject-01,1,434,0.666285037994385,keyboard,keyboard,0.55,0434_hp_s01_0.55_keyboard_10_n03085013_24510.png
subject-01,1,435,0.751019954681396,truck,truck,3,0435_hp_s01_3_truck_10_n04467665_77214.png
subject-01,1,436,0.737236976623535,bottle,bottle,3,0436_hp_s01_3_bottle_10_n04591713_4380.png
subject-01,1,437,0.935636043548584,car,car,1,0437_hp_s01_1_car_10_n03100240_17505.png
subject-01,1,438,1.13214802742004,clock,car,0.55,0438_hp_s01_0.55_car_10_n02814533_6178.png
subject-01,1,439,0.910851001739502,keyboard,keyboard,0.45,0439_hp_s01_0.45_keyboard_10_n04505470_4105.png
subject-01,1,440,0.681243181228638,cat,cat,inf,0440_hp_s01_inf_cat_10_n02123045_8543.png
subject-01,1,441,0.840948104858398,oven,oven,0.55,0441_hp_s01_0.55_oven_10_n04111531_2260.png
subject-01,1,442,1.02757215499878,airplane,oven,0.4,0442_hp_s01_0.4_oven_10_n04111531_1794.png
subject-01,1,443,0.795748949050903,truck,truck,1,0443_hp_s01_1_truck_10_n04467665_7069.png
subject-01,1,444,1.01190400123596,clock,clock,0.7,0444_hp_s01_0.7_clock_10_n03196217_219.png
subject-01,1,445,1.3962299823761,bicycle,bicycle,1,0445_hp_s01_1_bicycle_10_n03792782_4559.png
subject-01,1,446,0.996707201004028,cat,truck,0.4,0446_hp_s01_0.4_truck_10_n03417042_750.png
subject-01,1,447,0.850836038589478,airplane,airplane,1.5,0447_hp_s01_1.5_airplane_10_n02690373_6455.png
subject-01,1,448,0.781049966812134,car,bird,0.4,0448_hp_s01_0.4_bird_10_n01797886_16808.png
subject-01,1,449,0.735034942626953,car,car,1,0449_hp_s01_1_car_10_n03100240_9955.png
subject-01,1,450,0.710669994354248,keyboard,keyboard,1.5,0450_hp_s01_1.5_keyboard_10_n03085013_2272.png
subject-01,1,451,0.881454944610596,bicycle,bicycle,0.7,0451_hp_s01_0.7_bicycle_10_n02835271_31150.png
subject-01,1,452,1.24131417274475,elephant,elephant,1.5,0452_hp_s01_1.5_elephant_10_n02504458_5137.png
subject-01,1,453,0.85787296295166,bear,truck,0.4,0453_hp_s01_0.4_truck_10_n03417042_18124.png
subject-01,1,454,1.50030708312988,truck,clock,1.5,0454_hp_s01_1.5_clock_10_n03196217_10190.png
subject-01,1,455,0.612471103668213,car,car,0.55,0455_hp_s01_0.55_car_10_n02814533_81092.png
subject-01,1,456,0.874799966812134,oven,truck,0.4,0456_hp_s01_0.4_truck_10_n04467665_70880.png
subject-01,1,457,0.751117944717407,keyboard,keyboard,1,0457_hp_s01_1_keyboard_10_n03085013_22928.png
subject-01,1,458,0.511302947998047,car,car,3,0458_hp_s01_3_car_10_n03100240_1879.png
subject-01,1,459,0.718115091323853,cat,bear,0.55,0459_hp_s01_0.55_bear_10_n02132136_20826.png
subject-01,1,460,0.834413051605225,bicycle,oven,1,0460_hp_s01_1_oven_10_n04111531_15943.png
subject-01,1,461,0.672494173049927,elephant,elephant,0.7,0461_hp_s01_0.7_elephant_10_n02504013_18005.png
subject-01,1,462,0.942692995071411,chair,chair,1.5,0462_hp_s01_1.5_chair_10_n03376595_6173.png
subject-01,1,463,0.827252864837646,bicycle,cat,0.45,0463_hp_s01_0.45_cat_10_n02124075_2138.png
subject-01,1,464,1.00360512733459,oven,bear,0.45,0464_hp_s01_0.45_bear_10_n02133161_2749.png
subject-01,1,465,0.990438938140869,boat,bicycle,0.45,0465_hp_s01_0.45_bicycle_10_n02835271_3570.png
subject-01,1,466,0.882629871368408,elephant,elephant,1,0466_hp_s01_1_elephant_10_n02504458_6248.png
subject-01,1,467,0.723326206207275,cat,cat,inf,0467_hp_s01_inf_cat_10_n02123045_4644.png
subject-01,1,468,0.869688987731934,boat,boat,1,0468_hp_s01_1_boat_10_n04273569_16739.png
subject-01,1,469,0.954138994216919,bird,bird,1,0469_hp_s01_1_bird_10_n01534433_905.png
subject-01,1,470,0.878942966461182,cat,cat,3,0470_hp_s01_3_cat_10_n02123597_13175.png
subject-01,1,471,1.09278512001038,dog,dog,1,0471_hp_s01_1_dog_10_n02088238_2234.png
subject-01,1,472,0.800889015197754,bear,bear,3,0472_hp_s01_3_bear_10_n02132136_7647.png
subject-01,1,473,0.77714991569519,boat,boat,0.45,0473_hp_s01_0.45_boat_10_n04612504_4581.png
subject-01,1,474,0.539618015289307,oven,oven,inf,0474_hp_s01_inf_oven_10_n04111531_2447.png
subject-01,1,475,0.939856052398682,clock,dog,0.45,0475_hp_s01_0.45_dog_10_n02106382_9188.png
subject-01,1,476,1.0320131778717,keyboard,airplane,0.45,0476_hp_s01_0.45_airplane_10_n02690373_18871.png
subject-01,1,477,1.19200301170349,truck,boat,0.45,0477_hp_s01_0.45_boat_10_n03344393_10295.png
subject-01,1,478,0.694399118423462,chair,chair,1.5,0478_hp_s01_1.5_chair_10_n02791124_2825.png
subject-01,1,479,0.832387924194336,bottle,bottle,3,0479_hp_s01_3_bottle_10_n02823428_10796.png
subject-01,1,480,0.930579900741577,knife,knife,3,0480_hp_s01_3_knife_10_n03041632_31363.png
subject-01,1,481,0.589356899261475,cat,cat,1.5,0481_hp_s01_1.5_cat_10_n02123045_7154.png
subject-01,1,482,0.859183073043823,car,knife,0.55,0482_hp_s01_0.55_knife_10_n03041632_36247.png
subject-01,1,483,0.789929866790771,bear,bear,inf,0483_hp_s01_inf_bear_10_n02134084_24136.png
subject-01,1,484,1.29027915000916,airplane,truck,1,0484_hp_s01_1_truck_10_n04467665_56754.png
subject-01,1,485,0.652716875076294,clock,clock,3,0485_hp_s01_3_clock_10_n04548280_57.png
subject-01,1,486,0.661397933959961,car,car,0.7,0486_hp_s01_0.7_car_10_n04285008_6320.png
subject-01,1,487,0.761404991149902,chair,chair,0.55,0487_hp_s01_0.55_chair_10_n03376595_10460.png
subject-01,1,488,0.585585117340088,bear,bear,inf,0488_hp_s01_inf_bear_10_n02132136_22387.png
subject-01,1,489,0.999356985092163,boat,airplane,0.4,0489_hp_s01_0.4_airplane_10_n02690373_4784.png
subject-01,1,490,0.591588973999023,bottle,bottle,0.7,0490_hp_s01_0.7_bottle_10_n02823428_6201.png
subject-01,1,491,0.638347864151001,bear,bear,0.7,0491_hp_s01_0.7_bear_10_n02132136_3441.png
subject-01,1,492,0.808809995651245,bear,bear,3,0492_hp_s01_3_bear_10_n02133161_1118.png
subject-01,1,493,0.955304861068726,keyboard,keyboard,0.55,0493_hp_s01_0.55_keyboard_10_n03085013_10035.png
subject-01,1,494,0.809657096862793,chair,knife,0.55,0494_hp_s01_0.55_knife_10_n03041632_5302.png
subject-01,1,495,0.772014856338501,boat,bicycle,0.7,0495_hp_s01_0.7_bicycle_10_n03792782_41173.png
subject-01,1,496,0.672832012176514,car,car,3,0496_hp_s01_3_car_10_n02814533_10135.png
subject-01,1,497,0.650938034057617,keyboard,keyboard,0.7,0497_hp_s01_0.7_keyboard_10_n03085013_22067.png
subject-01,1,498,0.919441938400269,oven,airplane,0.45,0498_hp_s01_0.45_airplane_10_n02690373_111.png
subject-01,1,499,1.47362518310547,boat,boat,0.55,0499_hp_s01_0.55_boat_10_n04273569_18089.png
subject-01,1,500,0.560096979141235,bottle,bottle,3,0500_hp_s01_3_bottle_10_n04591713_7090.png
subject-01,1,501,0.636394023895264,boat,boat,1,0501_hp_s01_1_boat_10_n03662601_18924.png
subject-01,1,502,1.04501700401306,cat,dog,0.45,0502_hp_s01_0.45_dog_10_n02096585_391.png
subject-01,1,503,0.891037225723267,airplane,airplane,0.55,0503_hp_s01_0.55_airplane_10_n02690373_20996.png
subject-01,1,504,0.723480939865112,oven,elephant,0.45,0504_hp_s01_0.45_elephant_10_n02504458_582.png
subject-01,1,505,1.43759202957153,bottle,cat,1.5,0505_hp_s01_1.5_cat_10_n02123045_6144.png
subject-01,1,506,1.3598210811615,car,cat,0.4,0506_hp_s01_0.4_cat_10_n02123394_4662.png
subject-01,1,507,0.592489957809448,clock,clock,1,0507_hp_s01_1_clock_10_n03196217_1850.png
subject-01,1,508,1.13916993141174,truck,oven,0.7,0508_hp_s01_0.7_oven_10_n04111531_4749.png
subject-01,1,509,0.609549999237061,boat,bird,0.45,0509_hp_s01_0.45_bird_10_n02025239_2227.png
subject-01,1,510,1.37232708930969,dog,dog,1.5,0510_hp_s01_1.5_dog_10_n02099712_1825.png
subject-01,1,511,0.872431039810181,clock,knife,0.45,0511_hp_s01_0.45_knife_10_n03041632_56172.png
subject-01,1,512,0.534602880477905,oven,oven,1.5,0512_hp_s01_1.5_oven_10_n04111531_1752.png
subject-01,1,513,0.664917945861816,car,bicycle,0.4,0513_hp_s01_0.4_bicycle_10_n03792782_2327.png
subject-01,1,514,0.789466857910156,elephant,elephant,1,0514_hp_s01_1_elephant_10_n02504458_6301.png
subject-01,1,515,0.873728036880493,chair,chair,inf,0515_hp_s01_inf_chair_10_n02791124_3240.png
subject-01,1,516,0.812019109725952,bear,bird,3,0516_hp_s01_3_bird_10_n01514859_8585.png
subject-01,1,517,0.774055004119873,oven,oven,0.7,0517_hp_s01_0.7_oven_10_n04111531_9838.png
subject-01,1,518,0.744511842727661,airplane,bicycle,0.45,0518_hp_s01_0.45_bicycle_10_n03792782_6133.png
subject-01,1,519,0.850830078125,car,car,0.45,0519_hp_s01_0.45_car_10_n04285008_3911.png
subject-01,1,520,1.08283591270447,bicycle,elephant,0.45,0520_hp_s01_0.45_elephant_10_n02504013_4392.png
subject-01,1,521,1.05886602401733,elephant,elephant,1.5,0521_hp_s01_1.5_elephant_10_n02504458_7144.png
subject-01,1,522,0.737664937973022,truck,truck,3,0522_hp_s01_3_truck_10_n03417042_4614.png
subject-01,1,523,0.768138885498047,clock,clock,3,0523_hp_s01_3_clock_10_n04548280_5013.png
subject-01,1,524,0.768233060836792,knife,knife,inf,0524_hp_s01_inf_knife_10_n03041632_96714.png
subject-01,1,525,0.898737907409668,chair,chair,inf,0525_hp_s01_inf_chair_10_n04429376_7902.png
subject-01,1,526,1.21502804756165,bicycle,bottle,0.45,0526_hp_s01_0.45_bottle_10_n03937543_438.png
subject-01,1,527,0.961888074874878,oven,bottle,0.4,0527_hp_s01_0.4_bottle_10_n04591713_1762.png
subject-01,1,528,0.823912858963013,dog,dog,1,0528_hp_s01_1_dog_10_n02105162_1601.png
subject-01,1,529,0.677893161773682,cat,cat,1,0529_hp_s01_1_cat_10_n02123159_3454.png
subject-01,1,530,0.724681854248047,car,car,inf,0530_hp_s01_inf_car_10_n02814533_3560.png
subject-01,1,531,0.957077026367188,dog,cat,0.55,0531_hp_s01_0.55_cat_10_n02125311_34158.png
subject-01,1,532,0.611217021942139,bicycle,bicycle,1.5,0532_hp_s01_1.5_bicycle_10_n03792782_11945.png
subject-01,1,533,1.2193341255188,airplane,oven,0.45,0533_hp_s01_0.45_oven_10_n04111531_7050.png
subject-01,1,534,0.94172191619873,elephant,elephant,0.7,0534_hp_s01_0.7_elephant_10_n02504013_10331.png
subject-01,1,535,0.934462785720825,cat,bear,1,0535_hp_s01_1_bear_10_n02134084_16190.png
subject-01,1,536,0.750859975814819,car,knife,0.4,0536_hp_s01_0.4_knife_10_n03041632_45270.png
subject-01,1,537,0.951557159423828,clock,bear,0.45,0537_hp_s01_0.45_bear_10_n02132136_16636.png
subject-01,1,538,0.859768867492676,elephant,elephant,3,0538_hp_s01_3_elephant_10_n02504458_6821.png
subject-01,1,539,0.792520999908447,bottle,bottle,0.7,0539_hp_s01_0.7_bottle_10_n04579145_3660.png
subject-01,1,540,0.962630033493042,car,car,0.55,0540_hp_s01_0.55_car_10_n03100240_10384.png
subject-01,1,541,0.776724815368652,airplane,airplane,inf,0541_hp_s01_inf_airplane_10_n02690373_734.png
subject-01,1,542,0.732936143875122,oven,oven,0.7,0542_hp_s01_0.7_oven_10_n04111531_12468.png
subject-01,1,543,0.864001035690308,dog,dog,3,0543_hp_s01_3_dog_10_n02096294_1275.png
subject-01,1,544,0.525246143341064,clock,clock,inf,0544_hp_s01_inf_clock_10_n02708093_2043.png
subject-01,1,545,0.950244903564453,truck,truck,inf,0545_hp_s01_inf_truck_10_n04467665_83611.png
subject-01,1,546,1.50040698051453,bird,knife,0.7,0546_hp_s01_0.7_knife_10_n03041632_94155.png
subject-01,1,547,0.794600963592529,truck,truck,0.55,0547_hp_s01_0.55_truck_10_n03796401_21954.png
subject-01,1,548,1.07271814346313,car,car,0.45,0548_hp_s01_0.45_car_10_n02814533_72255.png
subject-01,1,549,0.81135892868042,keyboard,keyboard,1,0549_hp_s01_1_keyboard_10_n04505470_1724.png
subject-01,1,550,0.689907073974609,bird,bird,1,0550_hp_s01_1_bird_10_n02027492_4897.png
subject-01,1,551,0.873830080032349,clock,clock,0.55,0551_hp_s01_0.55_clock_10_n02708093_5236.png
subject-01,1,552,0.882184982299805,bird,chair,0.4,0552_hp_s01_0.4_chair_10_n03376595_6673.png
subject-01,1,553,0.857078075408936,airplane,airplane,0.45,0553_hp_s01_0.45_airplane_10_n02690373_863.png
subject-01,1,554,1.50020503997803,oven,airplane,0.4,0554_hp_s01_0.4_airplane_10_n02690373_4964.png
subject-01,1,555,1.04969000816345,dog,dog,0.7,0555_hp_s01_0.7_dog_10_n02113978_8008.png
subject-01,1,556,0.674010992050171,bear,bear,1.5,0556_hp_s01_1.5_bear_10_n02134084_12917.png
subject-01,1,557,0.712663888931274,boat,boat,1.5,0557_hp_s01_1.5_boat_10_n04273569_8774.png
subject-01,1,558,1.43461012840271,airplane,truck,0.45,0558_hp_s01_0.45_truck_10_n04467665_20933.png
subject-01,1,559,1.15079998970032,bird,clock,0.4,0559_hp_s01_0.4_clock_10_n02708093_2580.png
subject-01,1,560,NaN,na,keyboard,0.4,0560_hp_s01_0.4_keyboard_10_n03085013_19407.png
subject-01,1,561,0.959015846252441,clock,clock,1.5,0561_hp_s01_1.5_clock_10_n02708093_6591.png
subject-01,1,562,0.581156015396118,boat,boat,1,0562_hp_s01_1_boat_10_n03344393_5177.png
subject-01,1,563,0.673200845718384,bottle,bottle,0.7,0563_hp_s01_0.7_bottle_10_n03983396_4990.png
subject-01,1,564,0.621479988098145,car,car,1,0564_hp_s01_1_car_10_n04285008_9452.png
subject-01,1,565,0.973873853683472,bird,bird,0.7,0565_hp_s01_0.7_bird_10_n02007558_4566.png
subject-01,1,566,0.63642406463623,oven,truck,0.7,0566_hp_s01_0.7_truck_10_n03417042_6467.png
subject-01,1,567,0.736564874649048,bottle,bottle,1,0567_hp_s01_1_bottle_10_n02823428_8034.png
subject-01,1,568,0.506677865982056,boat,boat,inf,0568_hp_s01_inf_boat_10_n03662601_5968.png
subject-01,1,569,0.814959049224854,bicycle,keyboard,0.45,0569_hp_s01_0.45_keyboard_10_n03085013_22016.png
subject-01,1,570,0.677205085754395,bird,bird,1.5,0570_hp_s01_1.5_bird_10_n01828970_9006.png
subject-01,1,571,0.728540897369385,keyboard,keyboard,1.5,0571_hp_s01_1.5_keyboard_10_n03085013_26556.png
subject-01,1,572,0.552441120147705,boat,boat,inf,0572_hp_s01_inf_boat_10_n02951358_31813.png
subject-01,1,573,0.629160165786743,bird,bird,3,0573_hp_s01_3_bird_10_n01819313_3440.png
subject-01,1,574,0.637593984603882,dog,dog,inf,0574_hp_s01_inf_dog_10_n02086646_7064.png
subject-01,1,575,0.661543130874634,clock,clock,1,0575_hp_s01_1_clock_10_n04548280_8668.png
subject-01,1,576,0.668277025222778,knife,knife,1,0576_hp_s01_1_knife_10_n03041632_41077.png
subject-01,1,577,1.20693802833557,bear,bear,0.55,0577_hp_s01_0.55_bear_10_n02132136_7253.png
subject-01,1,578,0.877161026000977,car,dog,1,0578_hp_s01_1_dog_10_n02091134_4525.png
subject-01,1,579,0.877724885940552,car,car,0.4,0579_hp_s01_0.4_car_10_n03100240_20489.png
subject-01,1,580,0.710036039352417,truck,truck,1.5,0580_hp_s01_1.5_truck_10_n03796401_1326.png
subject-01,1,581,0.748143911361694,bicycle,bicycle,inf,0581_hp_s01_inf_bicycle_10_n02835271_7303.png
subject-01,1,582,0.661758184432983,chair,chair,1.5,0582_hp_s01_1.5_chair_10_n02791124_3484.png
subject-01,1,583,1.03195095062256,truck,truck,0.55,0583_hp_s01_0.55_truck_10_n04467665_22585.png
subject-01,1,584,0.984287977218628,bicycle,bicycle,0.7,0584_hp_s01_0.7_bicycle_10_n03792782_15932.png
subject-01,1,585,0.624810934066772,bottle,bottle,1,0585_hp_s01_1_bottle_10_n04560804_15923.png
subject-01,1,586,0.563123941421509,cat,cat,1.5,0586_hp_s01_1.5_cat_10_n02124075_14965.png
subject-01,1,587,1.16019701957703,cat,cat,inf,0587_hp_s01_inf_cat_10_n02125311_8369.png
subject-01,1,588,0.884560108184814,clock,keyboard,0.4,0588_hp_s01_0.4_keyboard_10_n03085013_20462.png
subject-01,1,589,0.714972972869873,bear,bear,1,0589_hp_s01_1_bear_10_n02134084_3795.png
subject-01,1,590,0.901595830917358,car,car,0.45,0590_hp_s01_0.45_car_10_n03100240_21833.png
subject-01,1,591,1.03168916702271,clock,dog,0.7,0591_hp_s01_0.7_dog_10_n02096051_988.png
subject-01,1,592,0.8316969871521,elephant,elephant,0.55,0592_hp_s01_0.55_elephant_10_n02504458_3092.png
subject-01,1,593,0.793881177902222,cat,dog,3,0593_hp_s01_3_dog_10_n02098286_4467.png
subject-01,1,594,1.0404269695282,knife,knife,1.5,0594_hp_s01_1.5_knife_10_n03041632_1201.png
subject-01,1,595,0.879041910171509,chair,chair,0.55,0595_hp_s01_0.55_chair_10_n03376595_1862.png
subject-01,1,596,0.847256898880005,truck,cat,0.45,0596_hp_s01_0.45_cat_10_n02124075_5453.png
subject-01,1,597,0.917722225189209,car,car,0.55,0597_hp_s01_0.55_car_10_n03100240_15228.png
subject-01,1,598,1.20180511474609,bird,boat,0.7,0598_hp_s01_0.7_boat_10_n04273569_7355.png
subject-01,1,599,0.526076078414917,oven,oven,0.7,0599_hp_s01_0.7_oven_10_n04111531_9041.png
subject-01,1,600,0.894800901412964,elephant,elephant,1,0600_hp_s01_1_elephant_10_n02504458_4439.png
subject-01,1,601,1.1173620223999,dog,bear,0.55,0601_hp_s01_0.55_bear_10_n02134084_14031.png
subject-01,1,602,1.06185388565063,truck,boat,0.45,0602_hp_s01_0.45_boat_10_n03344393_2434.png
subject-01,1,603,0.716875076293945,keyboard,keyboard,1,0603_hp_s01_1_keyboard_10_n03085013_20483.png
subject-01,1,604,1.45258712768555,bottle,bear,0.45,0604_hp_s01_0.45_bear_10_n02134084_22801.png
subject-01,1,605,NaN,na,knife,0.55,0605_hp_s01_0.55_knife_10_n03041632_18304.png
subject-01,1,606,1.09356093406677,dog,dog,1,0606_hp_s01_1_dog_10_n02091032_8024.png
subject-01,1,607,0.747875928878784,bicycle,bicycle,3,0607_hp_s01_3_bicycle_10_n02835271_949.png
subject-01,1,608,0.732047080993652,knife,knife,3,0608_hp_s01_3_knife_10_n03041632_21034.png
subject-01,1,609,0.662122011184692,airplane,airplane,1.5,0609_hp_s01_1.5_airplane_10_n02690373_4176.png
subject-01,1,610,0.678591966629028,cat,cat,0.7,0610_hp_s01_0.7_cat_10_n02123045_114.png
subject-01,1,611,0.870962858200073,dog,cat,0.55,0611_hp_s01_0.55_cat_10_n02124075_853.png
subject-01,1,612,1.50011897087097,bottle,boat,0.55,0612_hp_s01_0.55_boat_10_n03344393_4349.png
subject-01,1,613,1.09374022483826,oven,knife,0.55,0613_hp_s01_0.55_knife_10_n03041632_13478.png
subject-01,1,614,1.47809720039368,chair,boat,0.45,0614_hp_s01_0.45_boat_10_n02951358_23313.png
subject-01,1,615,1.29256701469421,bird,knife,1.5,0615_hp_s01_1.5_knife_10_n03041632_23667.png
subject-01,1,616,0.878805875778198,elephant,elephant,3,0616_hp_s01_3_elephant_10_n02504013_2269.png
subject-01,1,617,0.72533106803894,airplane,airplane,inf,0617_hp_s01_inf_airplane_10_n02690373_15411.png
subject-01,1,618,1.05585980415344,bottle,bottle,0.55,0618_hp_s01_0.55_bottle_10_n04560804_14395.png
subject-01,1,619,0.778065919876099,chair,chair,1.5,0619_hp_s01_1.5_chair_10_n03376595_2646.png
subject-01,1,620,0.664273023605347,knife,knife,1.5,0620_hp_s01_1.5_knife_10_n03041632_36907.png
subject-01,1,621,0.624858856201172,bicycle,bicycle,inf,0621_hp_s01_inf_bicycle_10_n02835271_8512.png
subject-01,1,622,1.22510290145874,chair,chair,3,0622_hp_s01_3_chair_10_n04429376_7279.png
subject-01,1,623,1.27949714660645,dog,bear,0.7,0623_hp_s01_0.7_bear_10_n02134418_5848.png
subject-01,1,624,0.609870195388794,bird,bird,3,0624_hp_s01_3_bird_10_n02028035_521.png
subject-01,1,625,0.63213586807251,chair,chair,1.5,0625_hp_s01_1.5_chair_10_n03376595_6865.png
subject-01,1,626,0.640546083450317,bicycle,bicycle,1.5,0626_hp_s01_1.5_bicycle_10_n03792782_17193.png
subject-01,1,627,0.649420022964478,boat,boat,0.7,0627_hp_s01_0.7_boat_10_n03344393_9459.png
subject-01,1,628,0.879806995391846,bird,bird,inf,0628_hp_s01_inf_bird_10_n01798484_4076.png
subject-01,1,629,0.750033140182495,elephant,elephant,1,0629_hp_s01_1_elephant_10_n02504013_7500.png
subject-01,1,630,1.24275183677673,car,boat,3,0630_hp_s01_3_boat_10_n03662601_15713.png
subject-01,1,631,0.835233211517334,bird,bird,inf,0631_hp_s01_inf_bird_10_n01797886_1953.png
subject-01,1,632,0.773283958435059,bicycle,bicycle,1,0632_hp_s01_1_bicycle_10_n02835271_1525.png
subject-01,1,633,1.01192498207092,keyboard,cat,0.45,0633_hp_s01_0.45_cat_10_n02124075_1460.png
subject-01,1,634,1.24422192573547,bear,dog,0.55,0634_hp_s01_0.55_dog_10_n02100877_1902.png
subject-01,1,635,0.644707202911377,bottle,bottle,1.5,0635_hp_s01_1.5_bottle_10_n04591713_7158.png
subject-01,1,636,1.31320595741272,bottle,chair,1,0636_hp_s01_1_chair_10_n04429376_7732.png
subject-01,1,637,0.707788944244385,bird,bird,0.7,0637_hp_s01_0.7_bird_10_n02009229_4667.png
subject-01,1,638,0.914177179336548,airplane,chair,0.4,0638_hp_s01_0.4_chair_10_n04429376_20837.png
subject-01,1,639,0.838644981384277,chair,chair,1,0639_hp_s01_1_chair_10_n02791124_5268.png
subject-01,1,640,0.798654079437256,clock,elephant,0.4,0640_hp_s01_0.4_elephant_10_n02504458_2041.png
subject-01,1,641,0.796991109848022,chair,chair,inf,0641_hp_s01_inf_chair_10_n03376595_10769.png
subject-01,1,642,0.651610136032104,boat,boat,0.55,0642_hp_s01_0.55_boat_10_n04612504_654.png
subject-01,1,643,1.08201885223389,clock,chair,0.45,0643_hp_s01_0.45_chair_10_n04099969_9891.png
subject-01,1,644,0.898489952087402,car,car,1,0644_hp_s01_1_car_10_n02814533_22693.png
subject-01,1,645,0.721168041229248,truck,truck,1,0645_hp_s01_1_truck_10_n03417042_22709.png
subject-01,1,646,1.20591902732849,bicycle,bicycle,0.7,0646_hp_s01_0.7_bicycle_10_n03792782_4067.png
subject-01,1,647,0.651680946350098,bicycle,bicycle,inf,0647_hp_s01_inf_bicycle_10_n02835271_9067.png
subject-01,1,648,0.814095020294189,oven,oven,1,0648_hp_s01_1_oven_10_n04111531_891.png
subject-01,1,649,0.692332029342651,keyboard,keyboard,inf,0649_hp_s01_inf_keyboard_10_n03085013_20460.png
subject-01,1,650,1.42881202697754,cat,cat,inf,0650_hp_s01_inf_cat_10_n02123045_12659.png
subject-01,1,651,1.50031805038452,dog,truck,0.55,0651_hp_s01_0.55_truck_10_n03417042_6517.png
subject-01,1,652,0.829154014587402,clock,clock,0.45,0652_hp_s01_0.45_clock_10_n04548280_3782.png
subject-01,1,653,0.929283142089844,bird,bird,1,0653_hp_s01_1_bird_10_n02017213_1150.png
subject-01,1,654,0.637676000595093,boat,boat,inf,0654_hp_s01_inf_boat_10_n02951358_4189.png
subject-01,1,655,0.751626968383789,keyboard,keyboard,inf,0655_hp_s01_inf_keyboard_10_n03085013_23877.png
subject-01,1,656,0.805483102798462,cat,cat,1.5,0656_hp_s01_1.5_cat_10_n02123597_7071.png
subject-01,1,657,1.50029587745667,truck,truck,0.55,0657_hp_s01_0.55_truck_10_n03417042_5600.png
subject-01,1,658,1.05247282981873,cat,bottle,0.7,0658_hp_s01_0.7_bottle_10_n03937543_9606.png
subject-01,1,659,0.99035120010376,airplane,bird,0.45,0659_hp_s01_0.45_bird_10_n01795545_3992.png
subject-01,1,660,0.958922147750854,airplane,airplane,0.55,0660_hp_s01_0.55_airplane_10_n02690373_1663.png
subject-01,1,661,1.0209219455719,clock,chair,1,0661_hp_s01_1_chair_10_n04429376_1791.png
subject-01,1,662,0.988368988037109,bicycle,bicycle,0.55,0662_hp_s01_0.55_bicycle_10_n02835271_12123.png
subject-01,1,663,1.21120405197144,bicycle,bicycle,1.5,0663_hp_s01_1.5_bicycle_10_n03792782_5106.png
subject-01,1,664,0.896979808807373,elephant,elephant,3,0664_hp_s01_3_elephant_10_n02504458_2685.png
subject-01,1,665,0.635539054870605,boat,boat,inf,0665_hp_s01_inf_boat_10_n04612504_31305.png
subject-01,1,666,1.01179194450378,clock,clock,0.7,0666_hp_s01_0.7_clock_10_n02708093_7821.png
subject-01,1,667,0.792446851730347,elephant,elephant,0.55,0667_hp_s01_0.55_elephant_10_n02504013_933.png
subject-01,1,668,0.802795171737671,airplane,airplane,0.55,0668_hp_s01_0.55_airplane_10_n02690373_16986.png
subject-01,1,669,0.855584144592285,boat,boat,0.45,0669_hp_s01_0.45_boat_10_n02951358_11567.png
subject-01,1,670,1.10990405082703,bear,dog,0.7,0670_hp_s01_0.7_dog_10_n02098286_2699.png
subject-01,1,671,0.964350938796997,airplane,airplane,inf,0671_hp_s01_inf_airplane_10_n02690373_5564.png
subject-01,1,672,1.23291993141174,boat,boat,3,0672_hp_s01_3_boat_10_n03344393_5801.png
subject-01,1,673,1.04911088943481,car,car,0.55,0673_hp_s01_0.55_car_10_n02814533_8121.png
subject-01,1,674,0.941017150878906,chair,chair,inf,0674_hp_s01_inf_chair_10_n02791124_7877.png
subject-01,1,675,0.663565158843994,airplane,airplane,0.55,0675_hp_s01_0.55_airplane_10_n02690373_7591.png
subject-01,1,676,0.687816858291626,cat,keyboard,0.4,0676_hp_s01_0.4_keyboard_10_n03085013_19055.png
subject-01,1,677,0.694526195526123,bird,bicycle,0.55,0677_hp_s01_0.55_bicycle_10_n02835271_14732.png
subject-01,1,678,0.678902149200439,keyboard,keyboard,1.5,0678_hp_s01_1.5_keyboard_10_n03085013_24026.png
subject-01,1,679,0.787194013595581,cat,cat,1,0679_hp_s01_1_cat_10_n02123159_5424.png
subject-01,1,680,1.20399808883667,dog,dog,3,0680_hp_s01_3_dog_10_n02102973_7028.png
subject-01,1,681,0.911770105361938,chair,chair,3,0681_hp_s01_3_chair_10_n04429376_22344.png
subject-01,1,682,0.758330821990967,boat,boat,1,0682_hp_s01_1_boat_10_n04273569_6071.png
subject-01,1,683,0.81103515625,bicycle,bicycle,1.5,0683_hp_s01_1.5_bicycle_10_n03792782_1983.png
subject-01,1,684,NaN,na,airplane,inf,0684_hp_s01_inf_airplane_10_n02690373_5797.png
subject-01,1,685,0.804166078567505,cat,cat,0.55,0685_hp_s01_0.55_cat_10_n02123159_5429.png
subject-01,1,686,0.904000997543335,car,car,0.45,0686_hp_s01_0.45_car_10_n02814533_70922.png
subject-01,1,687,0.70384407043457,bear,bear,inf,0687_hp_s01_inf_bear_10_n02134418_3886.png
subject-01,1,688,0.994235992431641,elephant,elephant,0.7,0688_hp_s01_0.7_elephant_10_n02504458_1327.png
subject-01,1,689,1.34864687919617,airplane,clock,0.55,0689_hp_s01_0.55_clock_10_n03196217_8072.png
subject-01,1,690,0.602828979492188,oven,oven,1.5,0690_hp_s01_1.5_oven_10_n04111531_6810.png
subject-01,1,691,0.910692930221558,car,truck,0.45,0691_hp_s01_0.45_truck_10_n03417042_4188.png
subject-01,1,692,1.31181597709656,boat,truck,1.5,0692_hp_s01_1.5_truck_10_n04467665_45306.png
subject-01,1,693,0.681867122650146,boat,bird,0.45,0693_hp_s01_0.45_bird_10_n01855032_4295.png
subject-01,1,694,0.77455997467041,dog,dog,inf,0694_hp_s01_inf_dog_10_n02111500_4280.png
subject-01,1,695,1.22107291221619,bird,oven,3,0695_hp_s01_3_oven_10_n04111531_9342.png
subject-01,1,696,1.48931193351746,cat,oven,inf,0696_hp_s01_inf_oven_10_n04111531_8959.png
subject-01,1,697,1.41949200630188,airplane,knife,0.4,0697_hp_s01_0.4_knife_10_n03041632_40508.png
subject-01,1,698,0.665596008300781,elephant,elephant,1,0698_hp_s01_1_elephant_10_n02504013_6671.png
subject-01,1,699,0.727940082550049,bicycle,cat,0.45,0699_hp_s01_0.45_cat_10_n02125311_43276.png
subject-01,1,700,0.78264307975769,car,car,inf,0700_hp_s01_inf_car_10_n02814533_43694.png
subject-01,1,701,NaN,na,airplane,0.7,0701_hp_s01_0.7_airplane_10_n02690373_18295.png
subject-01,1,702,0.626499891281128,elephant,elephant,1.5,0702_hp_s01_1.5_elephant_10_n02504013_701.png
subject-01,1,703,0.713104963302612,bear,bear,1,0703_hp_s01_1_bear_10_n02132136_11125.png
subject-01,1,704,0.673320055007935,oven,oven,1.5,0704_hp_s01_1.5_oven_10_n04111531_605.png
subject-01,1,705,1.05316019058228,clock,bear,0.4,0705_hp_s01_0.4_bear_10_n02133161_24490.png
subject-01,1,706,0.93967604637146,truck,truck,1,0706_hp_s01_1_truck_10_n03417042_19481.png
subject-01,1,707,0.708438158035278,airplane,airplane,3,0707_hp_s01_3_airplane_10_n02690373_7496.png
subject-01,1,708,0.648780107498169,cat,cat,0.7,0708_hp_s01_0.7_cat_10_n02124075_7680.png
subject-01,1,709,0.554949045181274,clock,clock,inf,0709_hp_s01_inf_clock_10_n03196217_2853.png
subject-01,1,710,0.501147985458374,oven,oven,0.7,0710_hp_s01_0.7_oven_10_n04111531_8688.png
subject-01,1,711,0.755504131317139,airplane,airplane,1,0711_hp_s01_1_airplane_10_n02690373_3435.png
subject-01,1,712,0.77200984954834,chair,chair,3,0712_hp_s01_3_chair_10_n04429376_28372.png
subject-01,1,713,0.909972190856934,truck,truck,0.7,0713_hp_s01_0.7_truck_10_n03796401_1082.png
subject-01,1,714,1.27802801132202,airplane,truck,0.55,0714_hp_s01_0.55_truck_10_n04467665_67853.png
subject-01,1,715,0.940638065338135,bottle,bottle,3,0715_hp_s01_3_bottle_10_n04591713_4585.png
subject-01,1,716,0.785805940628052,car,car,0.7,0716_hp_s01_0.7_car_10_n04285008_12138.png
subject-01,1,717,0.716329097747803,chair,chair,1,0717_hp_s01_1_chair_10_n04099969_1040.png
subject-01,1,718,0.908622026443481,airplane,dog,0.45,0718_hp_s01_0.45_dog_10_n02111500_2111.png
subject-01,1,719,1.07904410362244,clock,clock,1.5,0719_hp_s01_1.5_clock_10_n02708093_3750.png
subject-01,1,720,0.711493968963623,knife,cat,0.4,0720_hp_s01_0.4_cat_10_n02123394_2386.png
subject-01,1,721,0.895944118499756,knife,dog,0.55,0721_hp_s01_0.55_dog_10_n02101556_7581.png
subject-01,1,722,0.596605062484741,car,car,1.5,0722_hp_s01_1.5_car_10_n02814533_4501.png
subject-01,1,723,0.534288883209229,clock,clock,1,0723_hp_s01_1_clock_10_n04548280_3342.png
subject-01,1,724,0.534826040267944,cat,cat,3,0724_hp_s01_3_cat_10_n02124075_4413.png
subject-01,1,725,0.697412967681885,airplane,airplane,0.4,0725_hp_s01_0.4_airplane_10_n02690373_17718.png
subject-01,1,726,1.02742505073547,dog,dog,1,0726_hp_s01_1_dog_10_n02097658_3693.png
subject-01,1,727,0.665872812271118,keyboard,keyboard,inf,0727_hp_s01_inf_keyboard_10_n04505470_4138.png
subject-01,1,728,0.736376047134399,bicycle,bicycle,0.7,0728_hp_s01_0.7_bicycle_10_n02835271_4656.png
subject-01,1,729,1.11462807655334,oven,bottle,0.45,0729_hp_s01_0.45_bottle_10_n04591713_475.png
subject-01,1,730,0.915587902069092,bird,car,0.45,0730_hp_s01_0.45_car_10_n04285008_12457.png
subject-01,1,731,0.736870050430298,car,bird,0.4,0731_hp_s01_0.4_bird_10_n01537544_18123.png
subject-01,1,732,0.882659912109375,keyboard,oven,0.45,0732_hp_s01_0.45_oven_10_n04111531_9498.png
subject-01,1,733,0.867114067077637,dog,dog,0.55,0733_hp_s01_0.55_dog_10_n02097298_6933.png
subject-01,1,734,0.775307893753052,bottle,bottle,1,0734_hp_s01_1_bottle_10_n04579145_287.png
subject-01,1,735,0.575782060623169,cat,cat,1,0735_hp_s01_1_cat_10_n02123159_2107.png
subject-01,1,736,0.946177005767822,cat,cat,0.7,0736_hp_s01_0.7_cat_10_n02123597_22264.png
subject-01,1,737,0.75472092628479,car,car,inf,0737_hp_s01_inf_car_10_n03100240_8907.png
subject-01,1,738,0.654860973358154,bear,dog,0.4,0738_hp_s01_0.4_dog_10_n02112350_279.png
subject-01,1,739,0.676382064819336,bear,bear,1.5,0739_hp_s01_1.5_bear_10_n02134418_2666.png
subject-01,1,740,0.739128828048706,airplane,clock,0.4,0740_hp_s01_0.4_clock_10_n03196217_5365.png
subject-01,1,741,0.755453824996948,elephant,dog,0.55,0741_hp_s01_0.55_dog_10_n02089867_6424.png
subject-01,1,742,0.702164173126221,keyboard,keyboard,inf,0742_hp_s01_inf_keyboard_10_n04505470_4668.png
subject-01,1,743,0.702316045761108,oven,oven,0.55,0743_hp_s01_0.55_oven_10_n04111531_9867.png
subject-01,1,744,0.786984920501709,truck,truck,1,0744_hp_s01_1_truck_10_n04467665_47602.png
subject-01,1,745,0.620048046112061,keyboard,keyboard,1,0745_hp_s01_1_keyboard_10_n03085013_24099.png
subject-01,1,746,1.02860903739929,elephant,elephant,0.7,0746_hp_s01_0.7_elephant_10_n02504458_5308.png
subject-01,1,747,1.30421805381775,car,truck,0.7,0747_hp_s01_0.7_truck_10_n04467665_30189.png
subject-01,1,748,1.29674196243286,bear,oven,0.45,0748_hp_s01_0.45_oven_10_n04111531_4955.png
subject-01,1,749,0.974683046340942,cat,knife,0.45,0749_hp_s01_0.45_knife_10_n03041632_17349.png
subject-01,1,750,1.28886198997498,keyboard,keyboard,1,0750_hp_s01_1_keyboard_10_n04505470_7421.png
subject-01,1,751,0.529462099075317,clock,clock,3,0751_hp_s01_3_clock_10_n04548280_9816.png
subject-01,1,752,0.883929014205933,oven,truck,0.45,0752_hp_s01_0.45_truck_10_n04467665_46192.png
subject-01,1,753,1.16849899291992,car,bird,0.4,0753_hp_s01_0.4_bird_10_n02051845_3351.png
subject-01,1,754,0.616677045822144,cat,cat,inf,0754_hp_s01_inf_cat_10_n02125311_1746.png
subject-01,1,755,0.800812005996704,bicycle,chair,0.4,0755_hp_s01_0.4_chair_10_n04099969_142.png
subject-01,1,756,0.539380073547363,cat,cat,0.7,0756_hp_s01_0.7_cat_10_n02123597_1684.png
subject-01,1,757,1.45569801330566,dog,cat,0.55,0757_hp_s01_0.55_cat_10_n02123597_1016.png
subject-01,1,758,1.04035902023315,car,truck,3,0758_hp_s01_3_truck_10_n04467665_25059.png
subject-01,1,759,0.926594972610474,truck,truck,3,0759_hp_s01_3_truck_10_n03417042_411.png
subject-01,1,760,0.873273134231567,boat,clock,0.4,0760_hp_s01_0.4_clock_10_n02708093_2025.png
subject-01,1,761,0.68937611579895,bottle,bottle,inf,0761_hp_s01_inf_bottle_10_n03983396_11948.png
subject-01,1,762,1.39528918266296,bird,oven,1,0762_hp_s01_1_oven_10_n04111531_5781.png
subject-01,1,763,0.857550144195557,airplane,airplane,1,0763_hp_s01_1_airplane_10_n02690373_9618.png
subject-01,1,764,0.641602039337158,cat,dog,0.45,0764_hp_s01_0.45_dog_10_n02106166_22138.png
subject-01,1,765,0.589965105056763,cat,cat,3,0765_hp_s01_3_cat_10_n02125311_16544.png
subject-01,1,766,1.10412096977234,bear,bear,1.5,0766_hp_s01_1.5_bear_10_n02134084_17849.png
subject-01,1,767,1.19675993919373,elephant,bear,inf,0767_hp_s01_inf_bear_10_n02134084_14888.png
subject-01,1,768,0.8836669921875,elephant,cat,0.55,0768_hp_s01_0.55_cat_10_n02123394_3607.png
subject-01,1,769,0.937751054763794,bird,bear,0.4,0769_hp_s01_0.4_bear_10_n02134418_5735.png
subject-01,1,770,1.02169990539551,bird,bird,0.55,0770_hp_s01_0.55_bird_10_n02033041_2082.png
subject-01,1,771,0.792274951934814,bird,bird,0.55,0771_hp_s01_0.55_bird_10_n02006656_11566.png
subject-01,1,772,0.716500997543335,truck,truck,1,0772_hp_s01_1_truck_10_n03796401_430.png
subject-01,1,773,0.708626985549927,boat,car,0.4,0773_hp_s01_0.4_car_10_n04285008_11133.png
subject-01,1,774,0.662839889526367,chair,chair,3,0774_hp_s01_3_chair_10_n02791124_6654.png
subject-01,1,775,0.724951982498169,bottle,bottle,1.5,0775_hp_s01_1.5_bottle_10_n04560804_12099.png
subject-01,1,776,0.771340131759644,truck,truck,1.5,0776_hp_s01_1.5_truck_10_n04467665_40361.png
subject-01,1,777,1.43961906433105,bottle,dog,3,0777_hp_s01_3_dog_10_n02093428_17625.png
subject-01,1,778,1.30173993110657,truck,truck,1.5,0778_hp_s01_1.5_truck_10_n04467665_67315.png
subject-01,1,779,0.656493902206421,bottle,bottle,inf,0779_hp_s01_inf_bottle_10_n04557648_91.png
subject-01,1,780,0.764608144760132,car,car,0.45,0780_hp_s01_0.45_car_10_n03100240_5633.png
subject-01,1,781,0.681025981903076,keyboard,keyboard,0.4,0781_hp_s01_0.4_keyboard_10_n03085013_20923.png
subject-01,1,782,1.01122999191284,bird,bird,1,0782_hp_s01_1_bird_10_n02025239_1443.png
subject-01,1,783,0.757353782653809,clock,clock,1,0783_hp_s01_1_clock_10_n02708093_3266.png
subject-01,1,784,0.821758031845093,bear,bear,1,0784_hp_s01_1_bear_10_n02134418_24559.png
subject-01,1,785,0.802565097808838,bear,bear,3,0785_hp_s01_3_bear_10_n02134418_47.png
subject-01,1,786,0.810615062713623,bicycle,bicycle,1,0786_hp_s01_1_bicycle_10_n03792782_18496.png
subject-01,1,787,0.764862775802612,dog,dog,inf,0787_hp_s01_inf_dog_10_n02107683_1460.png
subject-01,1,788,0.727563142776489,elephant,elephant,inf,0788_hp_s01_inf_elephant_10_n02504013_648.png
subject-01,1,789,0.836130857467651,bicycle,bicycle,inf,0789_hp_s01_inf_bicycle_10_n02835271_1299.png
subject-01,1,790,0.928518056869507,bear,elephant,0.45,0790_hp_s01_0.45_elephant_10_n02504458_6472.png
subject-01,1,791,1.1044499874115,airplane,boat,0.4,0791_hp_s01_0.4_boat_10_n04612504_29813.png
subject-01,1,792,1.03691792488098,cat,clock,0.45,0792_hp_s01_0.45_clock_10_n04548280_2399.png
subject-01,1,793,0.629534959793091,car,car,0.55,0793_hp_s01_0.55_car_10_n03100240_1794.png
subject-01,1,794,0.737672805786133,bicycle,bicycle,1.5,0794_hp_s01_1.5_bicycle_10_n02835271_8549.png
subject-01,1,795,0.738249063491821,bottle,bottle,1.5,0795_hp_s01_1.5_bottle_10_n03937543_146.png
subject-01,1,796,0.939269065856934,elephant,bicycle,0.55,0796_hp_s01_0.55_bicycle_10_n03792782_5097.png
subject-01,1,797,0.871306896209717,bear,bear,3,0797_hp_s01_3_bear_10_n02132136_17524.png
subject-01,1,798,0.801636934280396,keyboard,keyboard,0.7,0798_hp_s01_0.7_keyboard_10_n04505470_3929.png
subject-01,1,799,0.948084115982056,boat,keyboard,0.55,0799_hp_s01_0.55_keyboard_10_n03085013_24156.png
subject-01,1,800,0.918263912200928,car,car,0.55,0800_hp_s01_0.55_car_10_n02814533_12532.png
subject-01,1,801,0.82567310333252,car,car,0.7,0801_hp_s01_0.7_car_10_n02814533_90798.png
subject-01,1,802,0.693431854248047,oven,bear,0.4,0802_hp_s01_0.4_bear_10_n02134418_2412.png
subject-01,1,803,0.710179090499878,boat,chair,0.45,0803_hp_s01_0.45_chair_10_n03376595_10689.png
subject-01,1,804,0.650970935821533,car,car,1.5,0804_hp_s01_1.5_car_10_n02814533_5085.png
subject-01,1,805,0.49660587310791,oven,oven,1,0805_hp_s01_1_oven_10_n04111531_5906.png
subject-01,1,806,0.613317012786865,keyboard,keyboard,1,0806_hp_s01_1_keyboard_10_n04505470_4741.png
subject-01,1,807,0.618963956832886,airplane,airplane,inf,0807_hp_s01_inf_airplane_10_n02690373_9673.png
subject-01,1,808,0.589176893234253,boat,boat,3,0808_hp_s01_3_boat_10_n03662601_34042.png
subject-01,1,809,0.659741878509521,bear,bear,1.5,0809_hp_s01_1.5_bear_10_n02133161_334.png
subject-01,1,810,0.844129085540771,knife,knife,0.7,0810_hp_s01_0.7_knife_10_n03041632_24181.png
subject-01,1,811,0.622766971588135,car,cat,0.4,0811_hp_s01_0.4_cat_10_n02123159_6381.png
subject-01,1,812,0.614946126937866,clock,clock,inf,0812_hp_s01_inf_clock_10_n04548280_7930.png
subject-01,1,813,1.09897804260254,clock,clock,3,0813_hp_s01_3_clock_10_n02708093_4737.png
subject-01,1,814,0.661619901657104,bear,boat,0.4,0814_hp_s01_0.4_boat_10_n03344393_4509.png
subject-01,1,815,0.690908908843994,bear,cat,0.7,0815_hp_s01_0.7_cat_10_n02123159_5993.png
subject-01,1,816,0.637146949768066,clock,clock,0.45,0816_hp_s01_0.45_clock_10_n04548280_10040.png
subject-01,1,817,0.629791021347046,bottle,bottle,inf,0817_hp_s01_inf_bottle_10_n04591713_2052.png
subject-01,1,818,1.27003788948059,dog,dog,0.55,0818_hp_s01_0.55_dog_10_n02107574_1533.png
subject-01,1,819,0.970497131347656,bird,bird,0.7,0819_hp_s01_0.7_bird_10_n02009229_6029.png
subject-01,1,820,NaN,na,airplane,3,0820_hp_s01_3_airplane_10_n02690373_4429.png
subject-01,1,821,0.671826839447021,keyboard,keyboard,3,0821_hp_s01_3_keyboard_10_n03085013_20186.png
subject-01,1,822,0.650441884994507,boat,boat,0.55,0822_hp_s01_0.55_boat_10_n02951358_9884.png
subject-01,1,823,1.02651906013489,bear,dog,0.55,0823_hp_s01_0.55_dog_10_n02094433_10343.png
subject-01,1,824,0.596625804901123,oven,oven,3,0824_hp_s01_3_oven_10_n04111531_1313.png
subject-01,1,825,0.865088939666748,airplane,truck,0.4,0825_hp_s01_0.4_truck_10_n03796401_3651.png
subject-01,1,826,0.847567081451416,car,airplane,0.45,0826_hp_s01_0.45_airplane_10_n02690373_1547.png
subject-01,1,827,0.624145984649658,elephant,elephant,inf,0827_hp_s01_inf_elephant_10_n02504013_6769.png
subject-01,1,828,0.816519975662231,dog,dog,inf,0828_hp_s01_inf_dog_10_n02091032_8873.png
subject-01,1,829,0.648952007293701,chair,chair,1.5,0829_hp_s01_1.5_chair_10_n04099969_11279.png
subject-01,1,830,0.749305009841919,car,car,1.5,0830_hp_s01_1.5_car_10_n03100240_6192.png
subject-01,1,831,0.549901962280273,cat,cat,1,0831_hp_s01_1_cat_10_n02124075_10085.png
subject-01,1,832,0.828315019607544,clock,clock,0.7,0832_hp_s01_0.7_clock_10_n04548280_6493.png
subject-01,1,833,0.996932983398438,knife,oven,1.5,0833_hp_s01_1.5_oven_10_n04111531_15616.png
subject-01,1,834,1.0352771282196,car,car,1.5,0834_hp_s01_1.5_car_10_n03100240_17028.png
subject-01,1,835,0.576043844223022,cat,cat,0.7,0835_hp_s01_0.7_cat_10_n02123597_3822.png
subject-01,1,836,0.884618043899536,clock,keyboard,0.45,0836_hp_s01_0.45_keyboard_10_n03085013_11399.png
subject-01,1,837,1.35224008560181,boat,truck,0.4,0837_hp_s01_0.4_truck_10_n04467665_42126.png
subject-01,1,838,1.45264911651611,knife,knife,0.7,0838_hp_s01_0.7_knife_10_n03041632_91582.png
subject-01,1,839,1.14544916152954,knife,knife,1.5,0839_hp_s01_1.5_knife_10_n03041632_50332.png
subject-01,1,840,0.774801969528198,car,car,1,0840_hp_s01_1_car_10_n03100240_6059.png
subject-01,1,841,1.005450963974,bird,dog,0.4,0841_hp_s01_0.4_dog_10_n02107908_10107.png
subject-01,1,842,0.651463985443115,oven,dog,0.4,0842_hp_s01_0.4_dog_10_n02091032_4179.png
subject-01,1,843,0.659914016723633,knife,knife,3,0843_hp_s01_3_knife_10_n03041632_41493.png
subject-01,1,844,0.722131013870239,bear,bear,0.55,0844_hp_s01_0.55_bear_10_n02132136_23853.png
subject-01,1,845,1.03067898750305,dog,bird,0.45,0845_hp_s01_0.45_bird_10_n01796340_6191.png
subject-01,1,846,0.660719156265259,keyboard,boat,0.45,0846_hp_s01_0.45_boat_10_n03344393_4827.png
subject-01,1,847,1.14478397369385,boat,bicycle,0.45,0847_hp_s01_0.45_bicycle_10_n02835271_672.png
subject-01,1,848,0.677340030670166,airplane,clock,0.4,0848_hp_s01_0.4_clock_10_n04548280_7243.png
subject-01,1,849,0.78301215171814,bear,bear,0.7,0849_hp_s01_0.7_bear_10_n02132136_10944.png
subject-01,1,850,0.913429021835327,bird,bird,0.55,0850_hp_s01_0.55_bird_10_n01843065_1699.png
subject-01,1,851,0.899682998657227,bear,airplane,0.4,0851_hp_s01_0.4_airplane_10_n02690373_20042.png
subject-01,1,852,0.746134996414185,cat,cat,inf,0852_hp_s01_inf_cat_10_n02123394_2765.png
subject-01,1,853,1.50012397766113,bicycle,knife,0.55,0853_hp_s01_0.55_knife_10_n03041632_86554.png
subject-01,1,854,0.685116052627563,bicycle,bicycle,1,0854_hp_s01_1_bicycle_10_n02835271_719.png
subject-01,1,855,0.739419937133789,car,car,3,0855_hp_s01_3_car_10_n03100240_5796.png
subject-01,1,856,0.663954973220825,bicycle,bicycle,inf,0856_hp_s01_inf_bicycle_10_n03792782_47694.png
subject-01,1,857,1.07269191741943,bottle,bottle,0.7,0857_hp_s01_0.7_bottle_10_n04579145_2196.png
subject-01,1,858,0.948509931564331,car,oven,0.45,0858_hp_s01_0.45_oven_10_n04111531_12129.png
subject-01,1,859,1.23298192024231,car,car,1,0859_hp_s01_1_car_10_n04285008_8444.png
subject-01,1,860,0.503769159317017,bottle,bottle,inf,0860_hp_s01_inf_bottle_10_n04591713_941.png
subject-01,1,861,1.31744909286499,truck,truck,inf,0861_hp_s01_inf_truck_10_n03417042_6419.png
subject-01,1,862,1.18009805679321,bird,bird,0.45,0862_hp_s01_0.45_bird_10_n02006656_3891.png
subject-01,1,863,0.974496126174927,car,car,1.5,0863_hp_s01_1.5_car_10_n03100240_13909.png
subject-01,1,864,0.680533885955811,bottle,bottle,inf,0864_hp_s01_inf_bottle_10_n04557648_4250.png
subject-01,1,865,0.926967859268188,car,chair,0.45,0865_hp_s01_0.45_chair_10_n02791124_5684.png
subject-01,1,866,0.697089910507202,truck,truck,3,0866_hp_s01_3_truck_10_n03796401_7487.png
subject-01,1,867,0.98192310333252,bear,bear,3,0867_hp_s01_3_bear_10_n02132136_15681.png
subject-01,1,868,0.582084178924561,car,car,inf,0868_hp_s01_inf_car_10_n04285008_8921.png
subject-01,1,869,0.75258994102478,chair,chair,1.5,0869_hp_s01_1.5_chair_10_n03376595_6850.png
subject-01,1,870,1.20497512817383,bear,bear,3,0870_hp_s01_3_bear_10_n02133161_2800.png
subject-01,1,871,0.62916088104248,elephant,elephant,inf,0871_hp_s01_inf_elephant_10_n02504458_1506.png
subject-01,1,872,0.783460140228271,chair,chair,0.55,0872_hp_s01_0.55_chair_10_n03376595_9524.png
subject-01,1,873,0.775545835494995,car,car,3,0873_hp_s01_3_car_10_n04285008_5467.png
subject-01,1,874,0.560223817825317,truck,truck,0.7,0874_hp_s01_0.7_truck_10_n03417042_751.png
subject-01,1,875,0.576730012893677,airplane,airplane,1,0875_hp_s01_1_airplane_10_n02690373_4202.png
subject-01,1,876,0.568804025650024,bird,bird,1.5,0876_hp_s01_1.5_bird_10_n01537544_1126.png
subject-01,1,877,0.768954992294312,clock,clock,1,0877_hp_s01_1_clock_10_n02708093_1291.png
subject-01,1,878,1.33138513565063,oven,knife,0.7,0878_hp_s01_0.7_knife_10_n03041632_5727.png
subject-01,1,879,1.12289595603943,oven,chair,0.4,0879_hp_s01_0.4_chair_10_n03376595_383.png
subject-01,1,880,0.745463132858276,keyboard,keyboard,0.7,0880_hp_s01_0.7_keyboard_10_n03085013_24257.png
subject-01,1,881,1.04783701896667,truck,bicycle,0.4,0881_hp_s01_0.4_bicycle_10_n03792782_19709.png
subject-01,1,882,1.15440106391907,truck,truck,0.45,0882_hp_s01_0.45_truck_10_n03417042_2603.png
subject-01,1,883,0.81707501411438,airplane,car,0.4,0883_hp_s01_0.4_car_10_n02814533_87793.png
subject-01,1,884,0.887356996536255,bear,truck,0.4,0884_hp_s01_0.4_truck_10_n03417042_10150.png
subject-01,1,885,1.19581484794617,boat,boat,1,0885_hp_s01_1_boat_10_n04612504_11379.png
subject-01,1,886,1.15837597846985,boat,chair,0.45,0886_hp_s01_0.45_chair_10_n03376595_8196.png
subject-01,1,887,1.17297077178955,keyboard,elephant,0.4,0887_hp_s01_0.4_elephant_10_n02504458_3163.png
subject-01,1,888,0.774961948394775,boat,clock,0.45,0888_hp_s01_0.45_clock_10_n04548280_8225.png
subject-01,1,889,0.781950950622559,airplane,airplane,0.7,0889_hp_s01_0.7_airplane_10_n02690373_10397.png
subject-01,1,890,1.50004386901855,bear,dog,3,0890_hp_s01_3_dog_10_n02100735_8835.png
subject-01,1,891,1.10128593444824,dog,oven,0.4,0891_hp_s01_0.4_oven_10_n04111531_10521.png
subject-01,1,892,0.76952600479126,chair,chair,0.7,0892_hp_s01_0.7_chair_10_n04099969_16512.png
subject-01,1,893,1.50038194656372,bear,elephant,1,0893_hp_s01_1_elephant_10_n02504458_2928.png
subject-01,1,894,0.648663997650146,bird,bird,1.5,0894_hp_s01_1.5_bird_10_n01843065_6365.png
subject-01,1,895,0.594478130340576,oven,oven,1,0895_hp_s01_1_oven_10_n04111531_2116.png
subject-01,1,896,0.732787132263184,keyboard,keyboard,3,0896_hp_s01_3_keyboard_10_n03085013_18741.png
subject-01,1,897,0.649578094482422,airplane,airplane,0.7,0897_hp_s01_0.7_airplane_10_n02690373_6739.png
subject-01,1,898,0.818022012710571,knife,knife,3,0898_hp_s01_3_knife_10_n03041632_24998.png
subject-01,1,899,0.596537828445435,boat,boat,0.7,0899_hp_s01_0.7_boat_10_n03344393_3345.png
subject-01,1,900,1.13518810272217,elephant,chair,0.55,0900_hp_s01_0.55_chair_10_n03376595_5503.png
subject-01,1,901,1.31167697906494,boat,bottle,0.7,0901_hp_s01_0.7_bottle_10_n04591713_2501.png
subject-01,1,902,0.55171799659729,boat,boat,1.5,0902_hp_s01_1.5_boat_10_n03344393_7631.png
subject-01,1,903,0.789915800094604,bottle,bottle,1.5,0903_hp_s01_1.5_bottle_10_n04560804_13232.png
subject-01,1,904,0.758059024810791,cat,cat,0.55,0904_hp_s01_0.55_cat_10_n02123045_7342.png
subject-01,1,905,0.874445915222168,bear,bear,0.4,0905_hp_s01_0.4_bear_10_n02132136_5612.png
subject-01,1,906,1.50015902519226,airplane,airplane,3,0906_hp_s01_3_airplane_10_n02690373_20033.png
subject-01,1,907,0.721027135848999,clock,chair,1,0907_hp_s01_1_chair_10_n04429376_2349.png
subject-01,1,908,0.721466064453125,bottle,bottle,1,0908_hp_s01_1_bottle_10_n03983396_2054.png
subject-01,1,909,0.529390096664429,chair,chair,3,0909_hp_s01_3_chair_10_n03376595_10873.png
subject-01,1,910,0.935338020324707,airplane,airplane,1,0910_hp_s01_1_airplane_10_n02690373_20350.png
subject-01,1,911,0.538644075393677,oven,oven,1.5,0911_hp_s01_1.5_oven_10_n04111531_1830.png
subject-01,1,912,0.622216939926147,bear,bear,1.5,0912_hp_s01_1.5_bear_10_n02134418_875.png
subject-01,1,913,0.914822101593018,bicycle,cat,0.45,0913_hp_s01_0.45_cat_10_n02125311_25104.png
subject-01,1,914,0.82335901260376,car,bicycle,0.4,0914_hp_s01_0.4_bicycle_10_n02835271_12599.png
subject-01,1,915,0.631638050079346,chair,chair,3,0915_hp_s01_3_chair_10_n03376595_17859.png
subject-01,1,916,0.694200992584229,truck,dog,0.4,0916_hp_s01_0.4_dog_10_n02107142_27162.png
subject-01,1,917,0.954934120178223,chair,chair,1,0917_hp_s01_1_chair_10_n02791124_6786.png
subject-01,1,918,0.703262805938721,bear,bear,0.55,0918_hp_s01_0.55_bear_10_n02134084_1949.png
subject-01,1,919,0.80136513710022,bird,bottle,0.4,0919_hp_s01_0.4_bottle_10_n04591713_7528.png
subject-01,1,920,0.825518846511841,car,car,0.7,0920_hp_s01_0.7_car_10_n04285008_9893.png
subject-01,1,921,0.584271907806396,boat,boat,1,0921_hp_s01_1_boat_10_n02951358_7320.png
subject-01,1,922,1.16080808639526,boat,boat,0.55,0922_hp_s01_0.55_boat_10_n04273569_1086.png
subject-01,1,923,0.763523817062378,cat,cat,1.5,0923_hp_s01_1.5_cat_10_n02123045_12040.png
subject-01,1,924,1.46945214271545,airplane,airplane,0.45,0924_hp_s01_0.45_airplane_10_n02690373_8204.png
subject-01,1,925,0.91590690612793,clock,clock,0.55,0925_hp_s01_0.55_clock_10_n04548280_2988.png
subject-01,1,926,0.824718952178955,car,bear,0.4,0926_hp_s01_0.4_bear_10_n02134084_7805.png
subject-01,1,927,0.55557918548584,clock,clock,1,0927_hp_s01_1_clock_10_n02708093_3173.png
subject-01,1,928,0.616008043289185,boat,boat,inf,0928_hp_s01_inf_boat_10_n04612504_1692.png
subject-01,1,929,0.678479909896851,bicycle,bicycle,3,0929_hp_s01_3_bicycle_10_n03792782_60.png
subject-01,1,930,0.902647018432617,dog,dog,0.55,0930_hp_s01_0.55_dog_10_n02091831_3628.png
subject-01,1,931,1.02542090415955,truck,truck,0.7,0931_hp_s01_0.7_truck_10_n03417042_9693.png
subject-01,1,932,0.711966037750244,boat,knife,0.45,0932_hp_s01_0.45_knife_10_n03041632_32004.png
subject-01,1,933,0.804216861724854,elephant,bear,0.45,0933_hp_s01_0.45_bear_10_n02132136_2875.png
subject-01,1,934,0.566719055175781,boat,boat,0.7,0934_hp_s01_0.7_boat_10_n03662601_840.png
subject-01,1,935,0.759464979171753,keyboard,bottle,0.4,0935_hp_s01_0.4_bottle_10_n02823428_11.png
subject-01,1,936,0.859112977981567,bicycle,bicycle,1,0936_hp_s01_1_bicycle_10_n02835271_24230.png
subject-01,1,937,0.867379903793335,car,car,1,0937_hp_s01_1_car_10_n02814533_5183.png
subject-01,1,938,1.01388096809387,bicycle,chair,0.55,0938_hp_s01_0.55_chair_10_n04099969_18220.png
subject-01,1,939,1.49008893966675,cat,dog,1.5,0939_hp_s01_1.5_dog_10_n02092339_2197.png
subject-01,1,940,0.606809854507446,bird,bird,3,0940_hp_s01_3_bird_10_n01560419_1738.png
subject-01,1,941,0.877213954925537,keyboard,knife,0.4,0941_hp_s01_0.4_knife_10_n03041632_22734.png
subject-01,1,942,0.761406183242798,airplane,boat,0.45,0942_hp_s01_0.45_boat_10_n03344393_11788.png
subject-01,1,943,0.661787986755371,elephant,elephant,inf,0943_hp_s01_inf_elephant_10_n02504013_4523.png
subject-01,1,944,0.662518978118896,bicycle,bicycle,0.55,0944_hp_s01_0.55_bicycle_10_n03792782_7092.png
subject-01,1,945,1.17897319793701,car,airplane,0.45,0945_hp_s01_0.45_airplane_10_n02690373_3047.png
subject-01,1,946,0.663429021835327,bicycle,bicycle,1,0946_hp_s01_1_bicycle_10_n02835271_11851.png
subject-01,1,947,0.587867975234985,chair,chair,0.7,0947_hp_s01_0.7_chair_10_n03376595_11839.png
subject-01,1,948,0.73433518409729,car,truck,0.45,0948_hp_s01_0.45_truck_10_n03417042_5809.png
subject-01,1,949,0.734110116958618,airplane,airplane,0.7,0949_hp_s01_0.7_airplane_10_n02690373_3313.png
subject-01,1,950,0.52625298500061,keyboard,keyboard,3,0950_hp_s01_3_keyboard_10_n04505470_7721.png
subject-01,1,951,0.764918088912964,truck,car,0.4,0951_hp_s01_0.4_car_10_n03100240_6836.png
subject-01,1,952,0.805356979370117,knife,knife,0.55,0952_hp_s01_0.55_knife_10_n03041632_20217.png
subject-01,1,953,0.705615997314453,clock,clock,3,0953_hp_s01_3_clock_10_n02708093_3484.png
subject-01,1,954,1.0738480091095,elephant,elephant,inf,0954_hp_s01_inf_elephant_10_n02504458_3068.png
subject-01,1,955,0.644094944000244,bicycle,bicycle,1,0955_hp_s01_1_bicycle_10_n03792782_8176.png
subject-01,1,956,0.760823965072632,car,car,inf,0956_hp_s01_inf_car_10_n04285008_5838.png
subject-01,1,957,0.691169023513794,truck,truck,0.55,0957_hp_s01_0.55_truck_10_n04467665_52409.png
subject-01,1,958,0.636703014373779,bicycle,bicycle,inf,0958_hp_s01_inf_bicycle_10_n03792782_16179.png
subject-01,1,959,0.636948823928833,bicycle,bicycle,0.55,0959_hp_s01_0.55_bicycle_10_n03792782_10185.png
subject-01,1,960,0.699532985687256,bird,bicycle,0.4,0960_hp_s01_0.4_bicycle_10_n03792782_1276.png
subject-01,1,961,0.842704057693481,oven,keyboard,0.55,0961_hp_s01_0.55_keyboard_10_n03085013_23201.png
subject-01,1,962,0.718587875366211,bear,bear,0.7,0962_hp_s01_0.7_bear_10_n02132136_2279.png
subject-01,1,963,1.50014996528625,bottle,bottle,1,0963_hp_s01_1_bottle_10_n04591713_17676.png
subject-01,1,964,1.04340600967407,bird,elephant,0.45,0964_hp_s01_0.45_elephant_10_n02504458_4448.png
subject-01,1,965,0.851860046386719,clock,clock,1,0965_hp_s01_1_clock_10_n03196217_5079.png
subject-01,1,966,0.638102054595947,car,car,0.7,0966_hp_s01_0.7_car_10_n02814533_62413.png
subject-01,1,967,0.722882986068726,car,car,0.7,0967_hp_s01_0.7_car_10_n02814533_39933.png
subject-01,1,968,0.815096855163574,bicycle,bicycle,1.5,0968_hp_s01_1.5_bicycle_10_n03792782_66837.png
subject-01,1,969,0.60135817527771,cat,bicycle,0.4,0969_hp_s01_0.4_bicycle_10_n02835271_9280.png
subject-01,1,970,0.777681827545166,car,bottle,0.4,0970_hp_s01_0.4_bottle_10_n04557648_2093.png
subject-01,1,971,0.810029983520508,clock,clock,1.5,0971_hp_s01_1.5_clock_10_n03196217_7918.png
subject-01,1,972,1.4002058506012,knife,knife,3,0972_hp_s01_3_knife_10_n03041632_18468.png
subject-01,1,973,1.2166211605072,truck,oven,0.4,0973_hp_s01_0.4_oven_10_n04111531_9224.png
subject-01,1,974,0.919193029403687,dog,dog,1.5,0974_hp_s01_1.5_dog_10_n02097474_9488.png
subject-01,1,975,0.695394992828369,keyboard,keyboard,1.5,0975_hp_s01_1.5_keyboard_10_n03085013_21615.png
subject-01,1,976,0.580048084259033,car,oven,0.45,0976_hp_s01_0.45_oven_10_n04111531_14435.png
subject-01,1,977,0.582405090332031,clock,clock,0.55,0977_hp_s01_0.55_clock_10_n04548280_3605.png
subject-01,1,978,0.604791879653931,cat,knife,0.45,0978_hp_s01_0.45_knife_10_n03041632_89912.png
subject-01,1,979,0.551415205001831,car,car,inf,0979_hp_s01_inf_car_10_n03100240_6376.png
subject-01,1,980,0.584321975708008,bottle,bottle,3,0980_hp_s01_3_bottle_10_n04591713_17618.png
subject-01,1,981,0.837630987167358,dog,dog,3,0981_hp_s01_3_dog_10_n02093256_2633.png
subject-01,1,982,0.93025016784668,chair,chair,0.7,0982_hp_s01_0.7_chair_10_n04429376_52822.png
subject-01,1,983,0.806663036346436,airplane,airplane,1.5,0983_hp_s01_1.5_airplane_10_n02690373_8846.png
subject-01,1,984,0.947055101394653,dog,dog,3,0984_hp_s01_3_dog_10_n02091244_8497.png
subject-01,1,985,NaN,na,boat,1,0985_hp_s01_1_boat_10_n03662601_34676.png
subject-01,1,986,0.657906055450439,car,car,0.55,0986_hp_s01_0.55_car_10_n03100240_3241.png
subject-01,1,987,0.711920976638794,bear,bear,0.7,0987_hp_s01_0.7_bear_10_n02134084_1867.png
subject-01,1,988,0.865968942642212,elephant,elephant,1,0988_hp_s01_1_elephant_10_n02504013_3969.png
subject-01,1,989,0.741821050643921,airplane,boat,0.4,0989_hp_s01_0.4_boat_10_n03344393_6015.png
subject-01,1,990,0.912883043289185,boat,boat,3,0990_hp_s01_3_boat_10_n03344393_1987.png
subject-01,1,991,1.17268490791321,truck,car,0.45,0991_hp_s01_0.45_car_10_n02814533_30383.png
subject-01,1,992,0.751181125640869,car,car,1,0992_hp_s01_1_car_10_n04285008_5788.png
subject-01,1,993,0.889616012573242,keyboard,keyboard,inf,0993_hp_s01_inf_keyboard_10_n04505470_4603.png
subject-01,1,994,0.752139806747437,cat,cat,0.4,0994_hp_s01_0.4_cat_10_n02124075_16814.png
subject-01,1,995,0.690526008605957,chair,chair,0.7,0995_hp_s01_0.7_chair_10_n04429376_30610.png
subject-01,1,996,1.0149929523468,airplane,airplane,0.55,0996_hp_s01_0.55_airplane_10_n02690373_7600.png
subject-01,1,997,1.14521312713623,truck,truck,1,0997_hp_s01_1_truck_10_n03417042_3398.png
subject-01,1,998,0.737805128097534,oven,bear,0.4,0998_hp_s01_0.4_bear_10_n02133161_10325.png
subject-01,1,999,0.570070028305054,boat,boat,3,0999_hp_s01_3_boat_10_n03662601_2197.png
subject-01,1,1000,1.14653301239014,airplane,oven,1.5,1000_hp_s01_1.5_oven_10_n04111531_8344.png
subject-01,1,1001,0.854882955551147,airplane,airplane,3,1001_hp_s01_3_airplane_10_n02690373_18848.png
subject-01,1,1002,0.793328046798706,bird,bird,1.5,1002_hp_s01_1.5_bird_10_n02013706_848.png
subject-01,1,1003,1.05579900741577,airplane,cat,0.4,1003_hp_s01_0.4_cat_10_n02123045_5189.png
subject-01,1,1004,1.11003303527832,bear,oven,0.4,1004_hp_s01_0.4_oven_10_n04111531_5927.png
subject-01,1,1005,0.750694990158081,clock,clock,3,1005_hp_s01_3_clock_10_n04548280_6919.png
subject-01,1,1006,0.864868879318237,car,elephant,0.55,1006_hp_s01_0.55_elephant_10_n02504013_407.png
subject-01,1,1007,0.797142028808594,cat,keyboard,0.45,1007_hp_s01_0.45_keyboard_10_n03085013_25559.png
subject-01,1,1008,0.789216995239258,keyboard,bottle,1.5,1008_hp_s01_1.5_bottle_10_n03983396_2091.png
subject-01,1,1009,0.821660041809082,boat,airplane,0.45,1009_hp_s01_0.45_airplane_10_n02690373_5177.png
subject-01,1,1010,0.890361070632935,bird,bird,0.7,1010_hp_s01_0.7_bird_10_n02009229_851.png
subject-01,1,1011,0.830924034118652,keyboard,keyboard,0.55,1011_hp_s01_0.55_keyboard_10_n03085013_23791.png
subject-01,1,1012,1.09935212135315,clock,clock,inf,1012_hp_s01_inf_clock_10_n02708093_8390.png
subject-01,1,1013,1.09379196166992,car,car,0.4,1013_hp_s01_0.4_car_10_n04285008_4551.png
subject-01,1,1014,1.16992998123169,clock,clock,0.55,1014_hp_s01_0.55_clock_10_n03196217_5214.png
subject-01,1,1015,0.962268114089966,bear,bird,0.4,1015_hp_s01_0.4_bird_10_n01843065_2176.png
subject-01,1,1016,0.778556108474731,cat,cat,3,1016_hp_s01_3_cat_10_n02124075_14326.png
subject-01,1,1017,0.862223148345947,keyboard,car,0.4,1017_hp_s01_0.4_car_10_n04285008_771.png
subject-01,1,1018,0.800601005554199,boat,boat,inf,1018_hp_s01_inf_boat_10_n02951358_3205.png
subject-01,1,1019,1.00878691673279,truck,bird,0.4,1019_hp_s01_0.4_bird_10_n01820546_6431.png
subject-01,1,1020,0.671151876449585,chair,chair,0.55,1020_hp_s01_0.55_chair_10_n04099969_20421.png
subject-01,1,1021,0.617654085159302,chair,chair,inf,1021_hp_s01_inf_chair_10_n02791124_8099.png
subject-01,1,1022,0.809928178787231,dog,dog,inf,1022_hp_s01_inf_dog_10_n02108915_11897.png
subject-01,1,1023,0.695946931838989,cat,oven,0.4,1023_hp_s01_0.4_oven_10_n04111531_5463.png
subject-01,1,1024,0.710599184036255,elephant,elephant,inf,1024_hp_s01_inf_elephant_10_n02504458_1271.png
subject-01,1,1025,0.627326965332031,oven,oven,inf,1025_hp_s01_inf_oven_10_n04111531_7741.png
subject-01,1,1026,0.589959859848022,car,bear,0.45,1026_hp_s01_0.45_bear_10_n02134418_1798.png
subject-01,1,1027,0.705737829208374,bird,truck,0.45,1027_hp_s01_0.45_truck_10_n04467665_21266.png
subject-01,1,1028,0.675963163375854,boat,cat,0.55,1028_hp_s01_0.55_cat_10_n02125311_15099.png
subject-01,1,1029,1.29054999351501,bird,bird,0.55,1029_hp_s01_0.55_bird_10_n01833805_6395.png
subject-01,1,1030,1.26902604103088,airplane,airplane,0.7,1030_hp_s01_0.7_airplane_10_n02690373_9642.png
subject-01,1,1031,0.99897289276123,clock,knife,0.7,1031_hp_s01_0.7_knife_10_n03041632_4044.png
subject-01,1,1032,0.991468906402588,boat,bear,0.55,1032_hp_s01_0.55_bear_10_n02133161_4049.png
subject-01,1,1033,1.08556580543518,keyboard,boat,0.55,1033_hp_s01_0.55_boat_10_n03662601_5210.png
subject-01,1,1034,NaN,na,airplane,inf,1034_hp_s01_inf_airplane_10_n02690373_10278.png
subject-01,1,1035,0.948592901229858,bear,bottle,0.55,1035_hp_s01_0.55_bottle_10_n04557648_7646.png
subject-01,1,1036,0.725025177001953,knife,knife,inf,1036_hp_s01_inf_knife_10_n03041632_40450.png
subject-01,1,1037,1.17415618896484,keyboard,boat,0.4,1037_hp_s01_0.4_boat_10_n04273569_3978.png
subject-01,1,1038,0.628821134567261,dog,dog,0.7,1038_hp_s01_0.7_dog_10_n02098286_1591.png
subject-01,1,1039,0.707181930541992,bird,elephant,0.4,1039_hp_s01_0.4_elephant_10_n02504013_1846.png
subject-01,1,1040,0.76789116859436,elephant,bird,0.55,1040_hp_s01_0.55_bird_10_n01824575_328.png
subject-01,1,1041,1.06199884414673,car,car,3,1041_hp_s01_3_car_10_n04285008_12767.png
subject-01,1,1042,0.954421997070312,bear,bear,0.7,1042_hp_s01_0.7_bear_10_n02134418_962.png
subject-01,1,1043,0.9927659034729,truck,truck,0.55,1043_hp_s01_0.55_truck_10_n04467665_13645.png
subject-01,1,1044,0.825344085693359,car,car,1,1044_hp_s01_1_car_10_n04285008_7751.png
subject-01,1,1045,0.712208986282349,oven,oven,0.45,1045_hp_s01_0.45_oven_10_n04111531_3671.png
subject-01,1,1046,0.758311033248901,keyboard,keyboard,inf,1046_hp_s01_inf_keyboard_10_n03085013_21282.png
subject-01,1,1047,0.696835041046143,clock,clock,1,1047_hp_s01_1_clock_10_n04548280_4229.png
subject-01,1,1048,1.06708717346191,car,dog,0.55,1048_hp_s01_0.55_dog_10_n02090721_4433.png
subject-01,1,1049,1.14556407928467,airplane,airplane,3,1049_hp_s01_3_airplane_10_n02690373_21922.png
subject-01,1,1050,1.28413510322571,car,car,1.5,1050_hp_s01_1.5_car_10_n02814533_14627.png
subject-01,1,1051,0.908627033233643,clock,chair,0.55,1051_hp_s01_0.55_chair_10_n04099969_4725.png
subject-01,1,1052,0.776125907897949,bird,bird,3,1052_hp_s01_3_bird_10_n02037110_11362.png
subject-01,1,1053,1.04651713371277,cat,knife,0.55,1053_hp_s01_0.55_knife_10_n03041632_81471.png
subject-01,1,1054,0.878948926925659,keyboard,keyboard,inf,1054_hp_s01_inf_keyboard_10_n04505470_4685.png
subject-01,1,1055,1.27973484992981,bird,bicycle,1,1055_hp_s01_1_bicycle_10_n03792782_15174.png
