subj,session,trial,rt,object_response,category,condition,imagename
subject-06,1,1,0.736672163009644,cat,dog,0.4,0001_hp_s06_0.4_dog_10_n02111129_6189.png
subject-06,1,2,0.629016160964966,oven,knife,0.55,0002_hp_s06_0.55_knife_10_n03041632_17285.png
subject-06,1,3,1.00553202629089,car,oven,1.5,0003_hp_s06_1.5_oven_10_n04111531_2213.png
subject-06,1,4,0.561912059783936,cat,cat,inf,0004_hp_s06_inf_cat_10_n02123045_1320.png
subject-06,1,5,0.692390918731689,oven,oven,0.7,0005_hp_s06_0.7_oven_10_n04111531_12468.png
subject-06,1,6,0.961035966873169,boat,boat,3,0006_hp_s06_3_boat_10_n02951358_7471.png
subject-06,1,7,1.11496305465698,car,car,3,0007_hp_s06_3_car_10_n04285008_4098.png
subject-06,1,8,0.769287109375,clock,bird,0.45,0008_hp_s06_0.45_bird_10_n02011460_892.png
subject-06,1,9,1.20001912117004,chair,boat,0.4,0009_hp_s06_0.4_boat_10_n03344393_2354.png
subject-06,1,10,1.084223985672,bottle,chair,0.4,0010_hp_s06_0.4_chair_10_n04429376_17646.png
subject-06,1,11,0.946118831634521,bird,airplane,0.45,0011_hp_s06_0.45_airplane_10_n02690373_2038.png
subject-06,1,12,0.922696113586426,bird,bird,3,0012_hp_s06_3_bird_10_n02037110_3539.png
subject-06,1,13,0.738938093185425,elephant,elephant,1,0013_hp_s06_1_elephant_10_n02504013_257.png
subject-06,1,14,0.661397933959961,boat,boat,inf,0014_hp_s06_inf_boat_10_n04612504_12444.png
subject-06,1,15,1.13989591598511,keyboard,chair,0.4,0015_hp_s06_0.4_chair_10_n04429376_18215.png
subject-06,1,16,0.916473865509033,keyboard,bottle,0.55,0016_hp_s06_0.55_bottle_10_n04557648_11973.png
subject-06,1,17,1.11686301231384,elephant,bird,inf,0017_hp_s06_inf_bird_10_n01855672_9697.png
subject-06,1,18,1.22513198852539,bird,bird,1.5,0018_hp_s06_1.5_bird_10_n01820546_4605.png
subject-06,1,19,1.1090350151062,elephant,elephant,1,0019_hp_s06_1_elephant_10_n02504458_3463.png
subject-06,1,20,0.763185977935791,oven,dog,0.7,0020_hp_s06_0.7_dog_10_n02113978_8271.png
subject-06,1,21,1.03373908996582,clock,keyboard,0.45,0021_hp_s06_0.45_keyboard_10_n04505470_6662.png
subject-06,1,22,1.20202803611755,bear,bird,1.5,0022_hp_s06_1.5_bird_10_n01532829_33179.png
subject-06,1,23,NaN,na,bear,0.45,0023_hp_s06_0.45_bear_10_n02133161_895.png
subject-06,1,24,1.00834703445435,boat,airplane,0.4,0024_hp_s06_0.4_airplane_10_n02690373_3821.png
subject-06,1,25,0.908540010452271,bicycle,bicycle,0.7,0025_hp_s06_0.7_bicycle_10_n02835271_20907.png
subject-06,1,26,0.687041997909546,boat,airplane,0.7,0026_hp_s06_0.7_airplane_10_n02690373_1075.png
subject-06,1,27,0.84136700630188,cat,dog,1.5,0027_hp_s06_1.5_dog_10_n02095570_3154.png
subject-06,1,28,0.933436155319214,bicycle,bicycle,3,0028_hp_s06_3_bicycle_10_n03792782_40738.png
subject-06,1,29,0.933674097061157,clock,bird,0.7,0029_hp_s06_0.7_bird_10_n01530575_10661.png
subject-06,1,30,1.03981709480286,airplane,dog,0.45,0030_hp_s06_0.45_dog_10_n02105056_13225.png
subject-06,1,31,1.38047194480896,dog,bear,0.7,0031_hp_s06_0.7_bear_10_n02132136_24229.png
subject-06,1,32,0.849102020263672,boat,boat,0.7,0032_hp_s06_0.7_boat_10_n02951358_2629.png
subject-06,1,33,1.18724393844604,dog,dog,inf,0033_hp_s06_inf_dog_10_n02095570_602.png
subject-06,1,34,1.319669008255,bicycle,bottle,1,0034_hp_s06_1_bottle_10_n04560804_265.png
subject-06,1,35,0.644392013549805,keyboard,keyboard,1.5,0035_hp_s06_1.5_keyboard_10_n04505470_2114.png
subject-06,1,36,0.849981069564819,bottle,bottle,3,0036_hp_s06_3_bottle_10_n04560804_4585.png
subject-06,1,37,1.11050415039062,oven,oven,0.7,0037_hp_s06_0.7_oven_10_n04111531_10622.png
subject-06,1,38,0.964814901351929,bottle,bottle,3,0038_hp_s06_3_bottle_10_n04560804_2651.png
subject-06,1,39,0.927286148071289,bird,bird,3,0039_hp_s06_3_bird_10_n01860187_471.png
subject-06,1,40,0.949298858642578,car,dog,0.55,0040_hp_s06_0.55_dog_10_n02112018_5586.png
subject-06,1,41,1.04218482971191,bear,bicycle,0.45,0041_hp_s06_0.45_bicycle_10_n03792782_48605.png
subject-06,1,42,0.774495124816895,bear,bear,0.55,0042_hp_s06_0.55_bear_10_n02133161_9643.png
subject-06,1,43,1.18044900894165,bear,bear,inf,0043_hp_s06_inf_bear_10_n02134418_5071.png
subject-06,1,44,0.789210081100464,bear,bear,1,0044_hp_s06_1_bear_10_n02133161_400.png
subject-06,1,45,0.9356689453125,oven,bear,0.45,0045_hp_s06_0.45_bear_10_n02133161_1498.png
subject-06,1,46,1.06009006500244,clock,truck,0.4,0046_hp_s06_0.4_truck_10_n04467665_30209.png
subject-06,1,47,0.790441036224365,bottle,bottle,inf,0047_hp_s06_inf_bottle_10_n04560804_1018.png
subject-06,1,48,0.891005039215088,bicycle,bicycle,inf,0048_hp_s06_inf_bicycle_10_n03792782_29108.png
subject-06,1,49,0.621777057647705,bicycle,bicycle,inf,0049_hp_s06_inf_bicycle_10_n03792782_15156.png
subject-06,1,50,1.06007599830627,bear,bear,0.7,0050_hp_s06_0.7_bear_10_n02134084_12180.png
subject-06,1,51,0.992701053619385,keyboard,keyboard,inf,0051_hp_s06_inf_keyboard_10_n04505470_5059.png
subject-06,1,52,1.00926184654236,bicycle,oven,1.5,0052_hp_s06_1.5_oven_10_n04111531_1220.png
subject-06,1,53,0.623449087142944,bicycle,bicycle,3,0053_hp_s06_3_bicycle_10_n03792782_30530.png
subject-06,1,54,0.73189115524292,bear,keyboard,1.5,0054_hp_s06_1.5_keyboard_10_n03085013_24569.png
subject-06,1,55,0.832045078277588,airplane,airplane,3,0055_hp_s06_3_airplane_10_n02690373_7489.png
subject-06,1,56,1.046875,oven,dog,0.55,0056_hp_s06_0.55_dog_10_n02088094_555.png
subject-06,1,57,1.08512711524963,bicycle,oven,0.45,0057_hp_s06_0.45_oven_10_n04111531_21460.png
subject-06,1,58,0.879241943359375,boat,chair,0.7,0058_hp_s06_0.7_chair_10_n04099969_12218.png
subject-06,1,59,0.879886865615845,car,car,0.7,0059_hp_s06_0.7_car_10_n04285008_10884.png
subject-06,1,60,0.910575866699219,bird,bird,inf,0060_hp_s06_inf_bird_10_n01795545_13797.png
subject-06,1,61,1.17082214355469,elephant,elephant,1,0061_hp_s06_1_elephant_10_n02504013_21730.png
subject-06,1,62,0.841265201568604,airplane,airplane,0.7,0062_hp_s06_0.7_airplane_10_n02690373_13585.png
subject-06,1,63,1.11636400222778,bear,elephant,inf,0063_hp_s06_inf_elephant_10_n02504013_9099.png
subject-06,1,64,1.03050899505615,boat,boat,0.55,0064_hp_s06_0.55_boat_10_n02951358_3819.png
subject-06,1,65,0.939093112945557,airplane,knife,0.7,0065_hp_s06_0.7_knife_10_n03041632_32337.png
subject-06,1,66,1.13959789276123,airplane,oven,0.7,0066_hp_s06_0.7_oven_10_n04111531_11405.png
subject-06,1,67,0.669743061065674,bear,bear,1,0067_hp_s06_1_bear_10_n02133161_10562.png
subject-06,1,68,0.962196826934814,car,truck,1,0068_hp_s06_1_truck_10_n03417042_6602.png
subject-06,1,69,0.908529996871948,cat,clock,0.4,0069_hp_s06_0.4_clock_10_n04548280_3234.png
subject-06,1,70,0.724832057952881,bottle,bottle,1,0070_hp_s06_1_bottle_10_n03937543_4726.png
subject-06,1,71,0.74732780456543,bird,bird,0.7,0071_hp_s06_0.7_bird_10_n01534433_21546.png
subject-06,1,72,0.785732984542847,bear,bear,1,0072_hp_s06_1_bear_10_n02134084_21202.png
subject-06,1,73,0.739852905273438,clock,knife,1.5,0073_hp_s06_1.5_knife_10_n03041632_4057.png
subject-06,1,74,0.638097047805786,car,car,0.7,0074_hp_s06_0.7_car_10_n04285008_10998.png
subject-06,1,75,0.984226942062378,airplane,boat,1.5,0075_hp_s06_1.5_boat_10_n04273569_7097.png
subject-06,1,76,0.6925950050354,clock,oven,0.45,0076_hp_s06_0.45_oven_10_n04111531_8117.png
subject-06,1,77,1.00691199302673,boat,boat,1,0077_hp_s06_1_boat_10_n03344393_7826.png
subject-06,1,78,1.01272702217102,bicycle,clock,0.55,0078_hp_s06_0.55_clock_10_n02708093_3462.png
subject-06,1,79,0.799565076828003,bicycle,bicycle,1.5,0079_hp_s06_1.5_bicycle_10_n02835271_3812.png
subject-06,1,80,1.01851892471313,knife,car,0.45,0080_hp_s06_0.45_car_10_n04285008_13537.png
subject-06,1,81,0.826999187469482,elephant,elephant,inf,0081_hp_s06_inf_elephant_10_n02504013_299.png
subject-06,1,82,1.01151394844055,car,car,0.55,0082_hp_s06_0.55_car_10_n04285008_2280.png
subject-06,1,83,0.704063892364502,cat,cat,3,0083_hp_s06_3_cat_10_n02124075_12464.png
subject-06,1,84,0.826159000396729,keyboard,keyboard,1.5,0084_hp_s06_1.5_keyboard_10_n04505470_2825.png
subject-06,1,85,0.934580087661743,truck,truck,1,0085_hp_s06_1_truck_10_n04467665_1719.png
subject-06,1,86,1.04900503158569,elephant,bicycle,0.55,0086_hp_s06_0.55_bicycle_10_n03792782_14492.png
subject-06,1,87,0.873325109481812,bird,bird,3,0087_hp_s06_3_bird_10_n01558993_4297.png
subject-06,1,88,0.773690938949585,bicycle,bicycle,1.5,0088_hp_s06_1.5_bicycle_10_n02835271_12405.png
subject-06,1,89,0.695709943771362,car,car,1,0089_hp_s06_1_car_10_n02814533_126.png
subject-06,1,90,0.739386081695557,keyboard,airplane,0.55,0090_hp_s06_0.55_airplane_10_n02690373_111.png
subject-06,1,91,0.747648000717163,bear,bear,inf,0091_hp_s06_inf_bear_10_n02134084_7706.png
subject-06,1,92,0.915690898895264,boat,airplane,0.45,0092_hp_s06_0.45_airplane_10_n02690373_1733.png
subject-06,1,93,0.762317895889282,cat,oven,1,0093_hp_s06_1_oven_10_n04111531_14611.png
subject-06,1,94,0.877011060714722,cat,cat,1.5,0094_hp_s06_1.5_cat_10_n02125311_20209.png
subject-06,1,95,0.831333875656128,elephant,elephant,1.5,0095_hp_s06_1.5_elephant_10_n02504458_6218.png
subject-06,1,96,1.09150385856628,elephant,elephant,1,0096_hp_s06_1_elephant_10_n02504458_5697.png
subject-06,1,97,0.961944103240967,airplane,bear,0.4,0097_hp_s06_0.4_bear_10_n02133161_2192.png
subject-06,1,98,1.15383291244507,boat,airplane,0.7,0098_hp_s06_0.7_airplane_10_n02690373_20090.png
subject-06,1,99,1.0980920791626,boat,chair,0.45,0099_hp_s06_0.45_chair_10_n04099969_7368.png
subject-06,1,100,1.16075801849365,boat,knife,0.55,0100_hp_s06_0.55_knife_10_n03041632_5911.png
subject-06,1,101,1.23701000213623,keyboard,clock,0.7,0101_hp_s06_0.7_clock_10_n03196217_4859.png
subject-06,1,102,1.02137279510498,clock,keyboard,0.45,0102_hp_s06_0.45_keyboard_10_n04505470_4660.png
subject-06,1,103,1.01365208625793,bicycle,elephant,0.4,0103_hp_s06_0.4_elephant_10_n02504458_1018.png
subject-06,1,104,0.738214015960693,car,car,inf,0104_hp_s06_inf_car_10_n02814533_80632.png
subject-06,1,105,0.913711071014404,keyboard,bottle,0.7,0105_hp_s06_0.7_bottle_10_n04579145_4378.png
subject-06,1,106,0.912135124206543,airplane,boat,0.45,0106_hp_s06_0.45_boat_10_n03662601_1191.png
subject-06,1,107,0.882345914840698,bear,bird,0.4,0107_hp_s06_0.4_bird_10_n02056570_9394.png
subject-06,1,108,0.542549848556519,airplane,airplane,inf,0108_hp_s06_inf_airplane_10_n02690373_166.png
subject-06,1,109,1.11064791679382,bicycle,cat,0.7,0109_hp_s06_0.7_cat_10_n02123394_1918.png
subject-06,1,110,1.14092302322388,truck,cat,0.45,0110_hp_s06_0.45_cat_10_n02124075_12740.png
subject-06,1,111,1.19558620452881,elephant,oven,0.7,0111_hp_s06_0.7_oven_10_n04111531_10313.png
subject-06,1,112,1.06369209289551,oven,cat,1.5,0112_hp_s06_1.5_cat_10_n02123597_8771.png
subject-06,1,113,1.01781511306763,chair,chair,1.5,0113_hp_s06_1.5_chair_10_n04099969_5133.png
subject-06,1,114,0.763938188552856,elephant,elephant,1.5,0114_hp_s06_1.5_elephant_10_n02504458_4849.png
subject-06,1,115,0.586223840713501,truck,truck,3,0115_hp_s06_3_truck_10_n03417042_11.png
subject-06,1,116,0.870233058929443,bicycle,boat,3,0116_hp_s06_3_boat_10_n02951358_33042.png
subject-06,1,117,0.940914869308472,boat,knife,0.55,0117_hp_s06_0.55_knife_10_n03041632_10109.png
subject-06,1,118,1.02193021774292,bear,knife,0.45,0118_hp_s06_0.45_knife_10_n03041632_30958.png
subject-06,1,119,1.22780609130859,airplane,bicycle,0.55,0119_hp_s06_0.55_bicycle_10_n02835271_25718.png
subject-06,1,120,0.774065017700195,airplane,airplane,1.5,0120_hp_s06_1.5_airplane_10_n02690373_19329.png
subject-06,1,121,0.806786060333252,oven,oven,inf,0121_hp_s06_inf_oven_10_n04111531_741.png
subject-06,1,122,0.967389106750488,truck,truck,1.5,0122_hp_s06_1.5_truck_10_n03417042_19650.png
subject-06,1,123,1.04379796981812,chair,chair,0.7,0123_hp_s06_0.7_chair_10_n04429376_19573.png
subject-06,1,124,0.88990592956543,clock,bicycle,0.55,0124_hp_s06_0.55_bicycle_10_n03792782_1116.png
subject-06,1,125,1.12018299102783,dog,cat,inf,0125_hp_s06_inf_cat_10_n02123597_295.png
subject-06,1,126,0.920567989349365,car,oven,0.4,0126_hp_s06_0.4_oven_10_n04111531_15257.png
subject-06,1,127,0.883168935775757,cat,elephant,3,0127_hp_s06_3_elephant_10_n02504458_1383.png
subject-06,1,128,0.829646110534668,boat,chair,0.45,0128_hp_s06_0.45_chair_10_n03376595_1981.png
subject-06,1,129,0.94458794593811,bicycle,bottle,0.55,0129_hp_s06_0.55_bottle_10_n03983396_10060.png
subject-06,1,130,1.36693811416626,bear,knife,inf,0130_hp_s06_inf_knife_10_n03041632_5102.png
subject-06,1,131,1.18944621086121,clock,bottle,0.55,0131_hp_s06_0.55_bottle_10_n04591713_7902.png
subject-06,1,132,0.651652097702026,boat,airplane,0.45,0132_hp_s06_0.45_airplane_10_n02690373_1829.png
subject-06,1,133,1.12781810760498,car,dog,0.7,0133_hp_s06_0.7_dog_10_n02107574_4136.png
subject-06,1,134,0.75803279876709,oven,bear,0.4,0134_hp_s06_0.4_bear_10_n02134418_5115.png
subject-06,1,135,0.566325902938843,clock,clock,inf,0135_hp_s06_inf_clock_10_n04548280_2957.png
subject-06,1,136,1.1348888874054,cat,elephant,3,0136_hp_s06_3_elephant_10_n02504013_11223.png
subject-06,1,137,1.25103688240051,chair,oven,3,0137_hp_s06_3_oven_10_n04111531_8537.png
subject-06,1,138,0.665585041046143,bicycle,bicycle,3,0138_hp_s06_3_bicycle_10_n03792782_14199.png
subject-06,1,139,1.02731800079346,elephant,elephant,inf,0139_hp_s06_inf_elephant_10_n02504458_8939.png
subject-06,1,140,1.17968106269836,car,clock,0.4,0140_hp_s06_0.4_clock_10_n03196217_5120.png
subject-06,1,141,1.06394219398499,bottle,bottle,3,0141_hp_s06_3_bottle_10_n04560804_1140.png
subject-06,1,142,0.810425996780396,dog,dog,3,0142_hp_s06_3_dog_10_n02100236_7775.png
subject-06,1,143,0.994595050811768,chair,chair,1,0143_hp_s06_1_chair_10_n02791124_5483.png
subject-06,1,144,1.0331699848175,car,truck,0.45,0144_hp_s06_0.45_truck_10_n03796401_24591.png
subject-06,1,145,0.787635087966919,boat,truck,0.4,0145_hp_s06_0.4_truck_10_n04467665_22967.png
subject-06,1,146,1.23420810699463,knife,oven,1,0146_hp_s06_1_oven_10_n04111531_7076.png
subject-06,1,147,0.810854911804199,boat,boat,1,0147_hp_s06_1_boat_10_n03344393_6914.png
subject-06,1,148,0.849153995513916,keyboard,oven,1.5,0148_hp_s06_1.5_oven_10_n04111531_2066.png
subject-06,1,149,0.632145166397095,keyboard,keyboard,inf,0149_hp_s06_inf_keyboard_10_n04505470_2792.png
subject-06,1,150,0.53861403465271,keyboard,keyboard,1,0150_hp_s06_1_keyboard_10_n03085013_16115.png
subject-06,1,151,0.847063064575195,elephant,elephant,1.5,0151_hp_s06_1.5_elephant_10_n02504458_11933.png
subject-06,1,152,1.0074291229248,oven,cat,0.4,0152_hp_s06_0.4_cat_10_n02123045_1030.png
subject-06,1,153,1.00155806541443,oven,dog,0.7,0153_hp_s06_0.7_dog_10_n02089867_4104.png
subject-06,1,154,0.945662021636963,chair,oven,0.55,0154_hp_s06_0.55_oven_10_n04111531_7430.png
subject-06,1,155,0.95407509803772,clock,bird,0.45,0155_hp_s06_0.45_bird_10_n01855672_10898.png
subject-06,1,156,0.830811977386475,car,car,0.55,0156_hp_s06_0.55_car_10_n04285008_9456.png
subject-06,1,157,0.614503145217896,airplane,airplane,1.5,0157_hp_s06_1.5_airplane_10_n02690373_5342.png
subject-06,1,158,0.676968097686768,airplane,airplane,1,0158_hp_s06_1_airplane_10_n02690373_1351.png
subject-06,1,159,1.02880215644836,oven,bear,3,0159_hp_s06_3_bear_10_n02134418_2381.png
subject-06,1,160,0.759292840957642,cat,boat,0.45,0160_hp_s06_0.45_boat_10_n02951358_8883.png
subject-06,1,161,0.610619068145752,clock,clock,1.5,0161_hp_s06_1.5_clock_10_n04548280_7565.png
subject-06,1,162,0.748944997787476,oven,car,0.4,0162_hp_s06_0.4_car_10_n03100240_5406.png
subject-06,1,163,0.755172967910767,oven,oven,inf,0163_hp_s06_inf_oven_10_n04111531_3063.png
subject-06,1,164,0.893581867218018,knife,knife,1.5,0164_hp_s06_1.5_knife_10_n03041632_11700.png
subject-06,1,165,0.801954984664917,airplane,airplane,0.55,0165_hp_s06_0.55_airplane_10_n02690373_1316.png
subject-06,1,166,0.708124876022339,bicycle,bicycle,3,0166_hp_s06_3_bicycle_10_n02835271_9482.png
subject-06,1,167,1.12168502807617,car,keyboard,0.4,0167_hp_s06_0.4_keyboard_10_n03085013_21246.png
subject-06,1,168,1.43612885475159,knife,bear,0.55,0168_hp_s06_0.55_bear_10_n02134418_3531.png
subject-06,1,169,0.99878716468811,knife,chair,0.55,0169_hp_s06_0.55_chair_10_n02791124_6437.png
subject-06,1,170,0.636847019195557,airplane,airplane,3,0170_hp_s06_3_airplane_10_n02690373_1996.png
subject-06,1,171,0.582964897155762,airplane,airplane,0.55,0171_hp_s06_0.55_airplane_10_n02690373_1974.png
subject-06,1,172,0.683387041091919,car,car,0.55,0172_hp_s06_0.55_car_10_n03100240_4908.png
subject-06,1,173,0.875532150268555,oven,truck,0.55,0173_hp_s06_0.55_truck_10_n03417042_3886.png
subject-06,1,174,0.911817789077759,cat,elephant,0.45,0174_hp_s06_0.45_elephant_10_n02504458_5788.png
subject-06,1,175,0.85738205909729,cat,chair,0.4,0175_hp_s06_0.4_chair_10_n03376595_10883.png
subject-06,1,176,1.38782095909119,cat,bird,inf,0176_hp_s06_inf_bird_10_n01514859_4482.png
subject-06,1,177,0.904314041137695,boat,bear,0.55,0177_hp_s06_0.55_bear_10_n02134418_3099.png
subject-06,1,178,0.957022905349731,bear,bird,0.4,0178_hp_s06_0.4_bird_10_n01819313_3737.png
subject-06,1,179,1.22739505767822,bicycle,clock,1,0179_hp_s06_1_clock_10_n04548280_4768.png
subject-06,1,180,1.05776405334473,knife,knife,1,0180_hp_s06_1_knife_10_n03041632_1143.png
subject-06,1,181,0.742345809936523,oven,boat,0.55,0181_hp_s06_0.55_boat_10_n03344393_5708.png
subject-06,1,182,0.580327987670898,oven,oven,inf,0182_hp_s06_inf_oven_10_n04111531_13625.png
subject-06,1,183,0.580942869186401,keyboard,keyboard,0.7,0183_hp_s06_0.7_keyboard_10_n04505470_6165.png
subject-06,1,184,0.795207977294922,knife,boat,0.7,0184_hp_s06_0.7_boat_10_n02951358_12663.png
subject-06,1,185,0.979212999343872,clock,keyboard,0.55,0185_hp_s06_0.55_keyboard_10_n04505470_6955.png
subject-06,1,186,0.855607032775879,airplane,airplane,3,0186_hp_s06_3_airplane_10_n02690373_10061.png
subject-06,1,187,1.14548206329346,bottle,bottle,1.5,0187_hp_s06_1.5_bottle_10_n03983396_2651.png
subject-06,1,188,0.916115045547485,car,knife,0.45,0188_hp_s06_0.45_knife_10_n03041632_18766.png
subject-06,1,189,0.854460000991821,cat,elephant,0.45,0189_hp_s06_0.45_elephant_10_n02504013_13097.png
subject-06,1,190,1.00722312927246,bottle,chair,1,0190_hp_s06_1_chair_10_n02791124_1256.png
subject-06,1,191,0.699426174163818,oven,oven,0.4,0191_hp_s06_0.4_oven_10_n04111531_15735.png
subject-06,1,192,0.615720987319946,keyboard,keyboard,1,0192_hp_s06_1_keyboard_10_n03085013_20749.png
subject-06,1,193,0.943758010864258,clock,clock,inf,0193_hp_s06_inf_clock_10_n03196217_11614.png
subject-06,1,194,1.03635787963867,keyboard,truck,0.7,0194_hp_s06_0.7_truck_10_n04467665_61792.png
subject-06,1,195,0.944738864898682,oven,knife,0.4,0195_hp_s06_0.4_knife_10_n03041632_4975.png
subject-06,1,196,0.774786949157715,boat,clock,0.45,0196_hp_s06_0.45_clock_10_n02708093_745.png
subject-06,1,197,0.666836023330688,airplane,bicycle,0.7,0197_hp_s06_0.7_bicycle_10_n02835271_1536.png
subject-06,1,198,1.06541299819946,car,car,0.4,0198_hp_s06_0.4_car_10_n04285008_6102.png
subject-06,1,199,0.673369884490967,truck,truck,1,0199_hp_s06_1_truck_10_n03796401_28465.png
subject-06,1,200,0.963478803634644,bicycle,truck,inf,0200_hp_s06_inf_truck_10_n03796401_23550.png
subject-06,1,201,0.731178045272827,airplane,oven,0.7,0201_hp_s06_0.7_oven_10_n04111531_4951.png
subject-06,1,202,1.22361493110657,airplane,truck,0.55,0202_hp_s06_0.55_truck_10_n03417042_10038.png
subject-06,1,203,0.623638868331909,keyboard,keyboard,1.5,0203_hp_s06_1.5_keyboard_10_n04505470_1820.png
subject-06,1,204,1.1685471534729,bottle,bottle,inf,0204_hp_s06_inf_bottle_10_n03937543_2252.png
subject-06,1,205,0.898639917373657,bottle,bottle,inf,0205_hp_s06_inf_bottle_10_n03937543_5500.png
subject-06,1,206,1.12100195884705,knife,elephant,0.7,0206_hp_s06_0.7_elephant_10_n02504013_1512.png
subject-06,1,207,0.953319072723389,car,car,1.5,0207_hp_s06_1.5_car_10_n03100240_159.png
subject-06,1,208,0.906069993972778,bicycle,bear,0.7,0208_hp_s06_0.7_bear_10_n02132136_9105.png
subject-06,1,209,0.936218023300171,bear,boat,0.4,0209_hp_s06_0.4_boat_10_n03344393_1588.png
subject-06,1,210,1.15032005310059,truck,oven,0.55,0210_hp_s06_0.55_oven_10_n04111531_4421.png
subject-06,1,211,1.01239490509033,bear,elephant,0.4,0211_hp_s06_0.4_elephant_10_n02504458_1985.png
subject-06,1,212,0.604741811752319,clock,clock,1.5,0212_hp_s06_1.5_clock_10_n04548280_696.png
subject-06,1,213,1.26488614082336,truck,truck,3,0213_hp_s06_3_truck_10_n03796401_9156.png
subject-06,1,214,0.979117155075073,boat,bicycle,0.4,0214_hp_s06_0.4_bicycle_10_n03792782_16212.png
subject-06,1,215,0.787619113922119,cat,cat,3,0215_hp_s06_3_cat_10_n02123159_452.png
subject-06,1,216,1.02619814872742,elephant,elephant,1,0216_hp_s06_1_elephant_10_n02504458_1727.png
subject-06,1,217,0.940864086151123,boat,boat,0.55,0217_hp_s06_0.55_boat_10_n03662601_8344.png
subject-06,1,218,0.562716960906982,boat,truck,0.7,0218_hp_s06_0.7_truck_10_n03417042_5874.png
subject-06,1,219,0.954934120178223,car,airplane,0.7,0219_hp_s06_0.7_airplane_10_n02690373_4202.png
subject-06,1,220,0.885367155075073,airplane,airplane,0.7,0220_hp_s06_0.7_airplane_10_n02690373_5565.png
subject-06,1,221,0.756186008453369,boat,keyboard,0.45,0221_hp_s06_0.45_keyboard_10_n04505470_4565.png
subject-06,1,222,0.984634160995483,boat,chair,0.7,0222_hp_s06_0.7_chair_10_n04099969_2758.png
subject-06,1,223,0.770859956741333,cat,bear,3,0223_hp_s06_3_bear_10_n02132136_451.png
subject-06,1,224,0.760859966278076,keyboard,keyboard,3,0224_hp_s06_3_keyboard_10_n03085013_3666.png
subject-06,1,225,0.982810020446777,bear,bear,3,0225_hp_s06_3_bear_10_n02133161_14361.png
subject-06,1,226,1.10750198364258,clock,truck,0.4,0226_hp_s06_0.4_truck_10_n04467665_5313.png
subject-06,1,227,0.645789861679077,cat,cat,inf,0227_hp_s06_inf_cat_10_n02123159_1032.png
subject-06,1,228,0.922433137893677,elephant,elephant,1.5,0228_hp_s06_1.5_elephant_10_n02504013_23548.png
subject-06,1,229,1.18324494361877,truck,bicycle,0.55,0229_hp_s06_0.55_bicycle_10_n02835271_10385.png
subject-06,1,230,1.17533183097839,car,dog,1,0230_hp_s06_1_dog_10_n02088466_8631.png
subject-06,1,231,0.69756293296814,bear,bear,inf,0231_hp_s06_inf_bear_10_n02132136_332.png
subject-06,1,232,0.735996961593628,bicycle,bicycle,inf,0232_hp_s06_inf_bicycle_10_n03792782_13665.png
subject-06,1,233,0.982714891433716,bear,clock,0.4,0233_hp_s06_0.4_clock_10_n02708093_1320.png
subject-06,1,234,0.921068906784058,oven,dog,0.45,0234_hp_s06_0.45_dog_10_n02102480_7371.png
subject-06,1,235,0.673413991928101,oven,elephant,0.4,0235_hp_s06_0.4_elephant_10_n02504458_6475.png
subject-06,1,236,1.11184406280518,boat,elephant,0.4,0236_hp_s06_0.4_elephant_10_n02504013_6063.png
subject-06,1,237,0.920213937759399,bear,bear,3,0237_hp_s06_3_bear_10_n02134418_139.png
subject-06,1,238,1.1482629776001,cat,clock,0.45,0238_hp_s06_0.45_clock_10_n03196217_11648.png
subject-06,1,239,1.21668601036072,truck,car,1.5,0239_hp_s06_1.5_car_10_n02814533_67600.png
subject-06,1,240,1.13319492340088,car,cat,0.45,0240_hp_s06_0.45_cat_10_n02125311_48776.png
subject-06,1,241,0.771799087524414,boat,boat,inf,0241_hp_s06_inf_boat_10_n04612504_29348.png
subject-06,1,242,0.66361403465271,boat,boat,1.5,0242_hp_s06_1.5_boat_10_n04612504_16600.png
subject-06,1,243,0.800146818161011,keyboard,keyboard,3,0243_hp_s06_3_keyboard_10_n03085013_17884.png
subject-06,1,244,1.03869104385376,chair,chair,0.7,0244_hp_s06_0.7_chair_10_n02791124_3091.png
subject-06,1,245,0.876710891723633,oven,chair,0.4,0245_hp_s06_0.4_chair_10_n04099969_1365.png
subject-06,1,246,0.661144018173218,cat,cat,1.5,0246_hp_s06_1.5_cat_10_n02124075_10422.png
subject-06,1,247,0.683409929275513,bicycle,bicycle,3,0247_hp_s06_3_bicycle_10_n02835271_11906.png
subject-06,1,248,0.652246952056885,car,car,3,0248_hp_s06_3_car_10_n02814533_82321.png
subject-06,1,249,0.790436983108521,cat,oven,0.7,0249_hp_s06_0.7_oven_10_n04111531_4227.png
subject-06,1,250,0.821007966995239,car,car,1.5,0250_hp_s06_1.5_car_10_n03100240_3024.png
subject-06,1,251,0.92718505859375,truck,car,0.55,0251_hp_s06_0.55_car_10_n02814533_10706.png
subject-06,1,252,1.0495228767395,boat,boat,inf,0252_hp_s06_inf_boat_10_n04273569_14638.png
subject-06,1,253,1.09194207191467,keyboard,oven,1,0253_hp_s06_1_oven_10_n04111531_16795.png
subject-06,1,254,1.50035715103149,oven,bottle,inf,0254_hp_s06_inf_bottle_10_n02823428_5791.png
subject-06,1,255,0.936762094497681,clock,clock,3,0255_hp_s06_3_clock_10_n03196217_1814.png
subject-06,1,256,0.715354919433594,keyboard,oven,0.55,0256_hp_s06_0.55_oven_10_n04111531_5578.png
subject-06,1,257,1.09759092330933,airplane,boat,0.55,0257_hp_s06_0.55_boat_10_n04612504_7166.png
subject-06,1,258,1.02033996582031,boat,elephant,0.55,0258_hp_s06_0.55_elephant_10_n02504013_5383.png
subject-06,1,259,0.728583812713623,chair,chair,1,0259_hp_s06_1_chair_10_n03376595_2916.png
subject-06,1,260,0.913133859634399,cat,dog,3,0260_hp_s06_3_dog_10_n02093754_2444.png
subject-06,1,261,0.621505975723267,keyboard,keyboard,0.7,0261_hp_s06_0.7_keyboard_10_n03085013_22796.png
subject-06,1,262,0.749464988708496,bottle,bottle,1,0262_hp_s06_1_bottle_10_n03937543_1303.png
subject-06,1,263,0.704134941101074,bicycle,bicycle,3,0263_hp_s06_3_bicycle_10_n03792782_11043.png
subject-06,1,264,0.940266132354736,car,elephant,0.4,0264_hp_s06_0.4_elephant_10_n02504013_7232.png
subject-06,1,265,0.816636085510254,keyboard,keyboard,1,0265_hp_s06_1_keyboard_10_n04505470_4262.png
subject-06,1,266,0.731058120727539,cat,bear,0.7,0266_hp_s06_0.7_bear_10_n02134084_6758.png
subject-06,1,267,1.26926803588867,dog,dog,inf,0267_hp_s06_inf_dog_10_n02106030_16115.png
subject-06,1,268,0.937314987182617,knife,knife,inf,0268_hp_s06_inf_knife_10_n03041632_29038.png
subject-06,1,269,1.03823494911194,oven,oven,3,0269_hp_s06_3_oven_10_n04111531_5429.png
subject-06,1,270,1.06002497673035,bear,oven,3,0270_hp_s06_3_oven_10_n04111531_8344.png
subject-06,1,271,0.758806943893433,bottle,bottle,1.5,0271_hp_s06_1.5_bottle_10_n02823428_4108.png
subject-06,1,272,0.989152908325195,cat,bicycle,0.4,0272_hp_s06_0.4_bicycle_10_n03792782_85.png
subject-06,1,273,0.759359121322632,chair,chair,inf,0273_hp_s06_inf_chair_10_n04099969_18380.png
subject-06,1,274,0.703651189804077,bird,bird,0.7,0274_hp_s06_0.7_bird_10_n02017213_3873.png
subject-06,1,275,1.46430492401123,cat,dog,inf,0275_hp_s06_inf_dog_10_n02097047_2199.png
subject-06,1,276,0.648725032806396,car,car,0.55,0276_hp_s06_0.55_car_10_n03100240_2600.png
subject-06,1,277,1.04703187942505,boat,keyboard,0.55,0277_hp_s06_0.55_keyboard_10_n03085013_23269.png
subject-06,1,278,0.685196876525879,oven,bird,0.45,0278_hp_s06_0.45_bird_10_n01582220_11441.png
subject-06,1,279,0.96153712272644,airplane,airplane,1.5,0279_hp_s06_1.5_airplane_10_n02690373_3440.png
subject-06,1,280,0.615653038024902,bicycle,bicycle,inf,0280_hp_s06_inf_bicycle_10_n03792782_9525.png
subject-06,1,281,0.843791007995605,dog,dog,inf,0281_hp_s06_inf_dog_10_n02108551_2122.png
subject-06,1,282,0.873974800109863,clock,clock,0.7,0282_hp_s06_0.7_clock_10_n03196217_3063.png
subject-06,1,283,0.72075080871582,oven,bottle,0.4,0283_hp_s06_0.4_bottle_10_n04560804_156.png
subject-06,1,284,0.925580978393555,boat,bear,0.4,0284_hp_s06_0.4_bear_10_n02134084_22384.png
subject-06,1,285,0.556357860565186,bicycle,bicycle,inf,0285_hp_s06_inf_bicycle_10_n03792782_8832.png
subject-06,1,286,1.02472805976868,truck,truck,1.5,0286_hp_s06_1.5_truck_10_n04467665_71074.png
subject-06,1,287,0.61534595489502,keyboard,keyboard,3,0287_hp_s06_3_keyboard_10_n04505470_1342.png
subject-06,1,288,0.79158616065979,bear,cat,3,0288_hp_s06_3_cat_10_n02123394_2735.png
subject-06,1,289,0.838388919830322,chair,car,0.45,0289_hp_s06_0.45_car_10_n03100240_16908.png
subject-06,1,290,1.06071901321411,bicycle,clock,0.55,0290_hp_s06_0.55_clock_10_n02708093_6657.png
subject-06,1,291,0.89908504486084,cat,airplane,0.4,0291_hp_s06_0.4_airplane_10_n02690373_2078.png
subject-06,1,292,0.643083095550537,bear,bear,3,0292_hp_s06_3_bear_10_n02133161_4775.png
subject-06,1,293,0.797101020812988,knife,knife,1,0293_hp_s06_1_knife_10_n03041632_27709.png
subject-06,1,294,0.963486194610596,knife,cat,0.7,0294_hp_s06_0.7_cat_10_n02123159_5711.png
subject-06,1,295,0.956090927124023,keyboard,clock,0.7,0295_hp_s06_0.7_clock_10_n03196217_1519.png
subject-06,1,296,1.50010895729065,elephant,elephant,3,0296_hp_s06_3_elephant_10_n02504013_5351.png
subject-06,1,297,0.541361093521118,oven,oven,3,0297_hp_s06_3_oven_10_n04111531_16007.png
subject-06,1,298,0.569349050521851,bear,bear,inf,0298_hp_s06_inf_bear_10_n02132136_2404.png
subject-06,1,299,1.03790497779846,elephant,knife,0.4,0299_hp_s06_0.4_knife_10_n03041632_83826.png
subject-06,1,300,0.700099945068359,chair,bear,0.7,0300_hp_s06_0.7_bear_10_n02134418_278.png
subject-06,1,301,0.874030113220215,cat,cat,3,0301_hp_s06_3_cat_10_n02123394_2929.png
subject-06,1,302,0.790402173995972,bear,bear,3,0302_hp_s06_3_bear_10_n02133161_8261.png
subject-06,1,303,1.27288198471069,cat,bird,1,0303_hp_s06_1_bird_10_n01592084_4125.png
subject-06,1,304,0.739798069000244,bird,bird,3,0304_hp_s06_3_bird_10_n01592084_7195.png
subject-06,1,305,0.899895906448364,airplane,airplane,0.7,0305_hp_s06_0.7_airplane_10_n02690373_17731.png
subject-06,1,306,1.09304976463318,truck,truck,0.7,0306_hp_s06_0.7_truck_10_n04467665_4165.png
subject-06,1,307,0.958865165710449,car,bicycle,0.4,0307_hp_s06_0.4_bicycle_10_n02835271_622.png
subject-06,1,308,0.551162958145142,airplane,airplane,3,0308_hp_s06_3_airplane_10_n02690373_8589.png
subject-06,1,309,0.851768970489502,bear,dog,0.55,0309_hp_s06_0.55_dog_10_n02104365_7431.png
subject-06,1,310,0.820015907287598,keyboard,keyboard,0.7,0310_hp_s06_0.7_keyboard_10_n03085013_14643.png
subject-06,1,311,0.934715032577515,bicycle,bicycle,1.5,0311_hp_s06_1.5_bicycle_10_n02835271_12597.png
subject-06,1,312,0.787039995193481,truck,truck,3,0312_hp_s06_3_truck_10_n04467665_33667.png
subject-06,1,313,0.954217910766602,oven,dog,0.45,0313_hp_s06_0.45_dog_10_n02108422_4157.png
subject-06,1,314,0.876687049865723,chair,keyboard,0.45,0314_hp_s06_0.45_keyboard_10_n03085013_233.png
subject-06,1,315,0.840734004974365,bicycle,bicycle,1,0315_hp_s06_1_bicycle_10_n02835271_19306.png
subject-06,1,316,1.06345891952515,car,truck,inf,0316_hp_s06_inf_truck_10_n03417042_5105.png
subject-06,1,317,1.31583285331726,bear,bird,0.7,0317_hp_s06_0.7_bird_10_n01860187_1151.png
subject-06,1,318,1.10841798782349,bear,elephant,1,0318_hp_s06_1_elephant_10_n02504013_2832.png
subject-06,1,319,0.984876871109009,knife,chair,inf,0319_hp_s06_inf_chair_10_n02791124_880.png
subject-06,1,320,0.991570949554443,oven,knife,1.5,0320_hp_s06_1.5_knife_10_n03041632_22734.png
subject-06,1,321,0.989003896713257,cat,cat,1,0321_hp_s06_1_cat_10_n02123045_11048.png
subject-06,1,322,0.819473028182983,boat,cat,0.4,0322_hp_s06_0.4_cat_10_n02124075_11103.png
subject-06,1,323,0.833222150802612,cat,cat,3,0323_hp_s06_3_cat_10_n02125311_18608.png
subject-06,1,324,0.693632125854492,bear,dog,0.7,0324_hp_s06_0.7_dog_10_n02106166_12626.png
subject-06,1,325,0.808289051055908,airplane,airplane,inf,0325_hp_s06_inf_airplane_10_n02690373_18234.png
subject-06,1,326,0.638659000396729,car,car,0.7,0326_hp_s06_0.7_car_10_n02814533_25416.png
subject-06,1,327,0.861190795898438,bicycle,bicycle,3,0327_hp_s06_3_bicycle_10_n03792782_5758.png
subject-06,1,328,0.783715009689331,oven,dog,0.45,0328_hp_s06_0.45_dog_10_n02108551_13206.png
subject-06,1,329,1.26796221733093,boat,knife,1.5,0329_hp_s06_1.5_knife_10_n03041632_21017.png
subject-06,1,330,0.674067974090576,keyboard,keyboard,1.5,0330_hp_s06_1.5_keyboard_10_n03085013_22069.png
subject-06,1,331,0.750635862350464,oven,chair,0.55,0331_hp_s06_0.55_chair_10_n04429376_15534.png
subject-06,1,332,0.956971168518066,cat,oven,0.7,0332_hp_s06_0.7_oven_10_n04111531_18949.png
subject-06,1,333,1.04160284996033,boat,elephant,1.5,0333_hp_s06_1.5_elephant_10_n02504458_3372.png
subject-06,1,334,0.617600917816162,car,car,1.5,0334_hp_s06_1.5_car_10_n02814533_10911.png
subject-06,1,335,0.953656911849976,bear,bird,0.45,0335_hp_s06_0.45_bird_10_n02037110_2681.png
subject-06,1,336,0.878190994262695,chair,bear,1,0336_hp_s06_1_bear_10_n02132136_5139.png
subject-06,1,337,1.15237998962402,bicycle,boat,1.5,0337_hp_s06_1.5_boat_10_n02951358_34150.png
subject-06,1,338,0.706988096237183,bird,bird,3,0338_hp_s06_3_bird_10_n02017213_1157.png
subject-06,1,339,1.13739013671875,boat,airplane,1,0339_hp_s06_1_airplane_10_n02690373_5581.png
subject-06,1,340,0.789347171783447,elephant,dog,1,0340_hp_s06_1_dog_10_n02091134_2863.png
subject-06,1,341,0.665509939193726,oven,airplane,0.4,0341_hp_s06_0.4_airplane_10_n02690373_8547.png
subject-06,1,342,0.980237007141113,elephant,elephant,3,0342_hp_s06_3_elephant_10_n02504013_1125.png
subject-06,1,343,1.13252997398376,chair,dog,0.45,0343_hp_s06_0.45_dog_10_n02105056_924.png
subject-06,1,344,0.839139938354492,oven,chair,0.45,0344_hp_s06_0.45_chair_10_n02791124_3819.png
subject-06,1,345,0.869774103164673,cat,bottle,0.4,0345_hp_s06_0.4_bottle_10_n04560804_14395.png
subject-06,1,346,0.878098964691162,chair,cat,inf,0346_hp_s06_inf_cat_10_n02123597_7485.png
subject-06,1,347,0.706877946853638,bottle,truck,0.45,0347_hp_s06_0.45_truck_10_n04467665_70579.png
subject-06,1,348,1.07529592514038,cat,bear,inf,0348_hp_s06_inf_bear_10_n02134418_304.png
subject-06,1,349,0.65318489074707,keyboard,keyboard,inf,0349_hp_s06_inf_keyboard_10_n03085013_30789.png
subject-06,1,350,1.29785299301147,bottle,elephant,0.4,0350_hp_s06_0.4_elephant_10_n02504013_2085.png
subject-06,1,351,0.757758140563965,oven,cat,0.4,0351_hp_s06_0.4_cat_10_n02123159_14865.png
subject-06,1,352,1.05565595626831,bird,bird,1.5,0352_hp_s06_1.5_bird_10_n01860187_37802.png
subject-06,1,353,0.824229001998901,boat,oven,0.55,0353_hp_s06_0.55_oven_10_n04111531_467.png
subject-06,1,354,0.762520790100098,keyboard,bicycle,0.55,0354_hp_s06_0.55_bicycle_10_n03792782_11950.png
subject-06,1,355,0.730744123458862,chair,chair,1,0355_hp_s06_1_chair_10_n04099969_14986.png
subject-06,1,356,0.695122957229614,boat,boat,3,0356_hp_s06_3_boat_10_n02951358_15634.png
subject-06,1,357,0.877474069595337,car,car,0.4,0357_hp_s06_0.4_car_10_n04285008_7255.png
subject-06,1,358,0.948081970214844,clock,dog,0.45,0358_hp_s06_0.45_dog_10_n02106166_18873.png
subject-06,1,359,0.592344999313354,boat,keyboard,0.4,0359_hp_s06_0.4_keyboard_10_n03085013_24612.png
subject-06,1,360,1.03687691688538,boat,chair,0.55,0360_hp_s06_0.55_chair_10_n03376595_10266.png
subject-06,1,361,0.821060180664062,airplane,airplane,1.5,0361_hp_s06_1.5_airplane_10_n02690373_10449.png
subject-06,1,362,1.26745104789734,bear,knife,0.4,0362_hp_s06_0.4_knife_10_n03041632_25257.png
subject-06,1,363,0.757836818695068,bear,elephant,3,0363_hp_s06_3_elephant_10_n02504458_2056.png
subject-06,1,364,1.15643405914307,truck,boat,0.4,0364_hp_s06_0.4_boat_10_n03344393_8399.png
subject-06,1,365,0.918653964996338,clock,clock,1.5,0365_hp_s06_1.5_clock_10_n03196217_1505.png
subject-06,1,366,0.695399045944214,boat,boat,1,0366_hp_s06_1_boat_10_n04612504_6380.png
subject-06,1,367,0.893765211105347,chair,chair,1.5,0367_hp_s06_1.5_chair_10_n04099969_499.png
subject-06,1,368,1.17855095863342,bottle,bicycle,0.4,0368_hp_s06_0.4_bicycle_10_n03792782_14557.png
subject-06,1,369,0.871125936508179,cat,bottle,0.4,0369_hp_s06_0.4_bottle_10_n04560804_6672.png
subject-06,1,370,0.877583980560303,boat,bottle,0.4,0370_hp_s06_0.4_bottle_10_n04579145_1667.png
subject-06,1,371,1.03014802932739,elephant,bicycle,0.7,0371_hp_s06_0.7_bicycle_10_n02835271_771.png
subject-06,1,372,0.860501050949097,keyboard,keyboard,3,0372_hp_s06_3_keyboard_10_n04505470_1430.png
subject-06,1,373,0.961115121841431,dog,dog,inf,0373_hp_s06_inf_dog_10_n02091244_2590.png
subject-06,1,374,0.721626996994019,car,knife,0.55,0374_hp_s06_0.55_knife_10_n03041632_29427.png
subject-06,1,375,0.959790945053101,bear,bicycle,1,0375_hp_s06_1_bicycle_10_n03792782_14221.png
subject-06,1,376,0.871259927749634,cat,chair,0.4,0376_hp_s06_0.4_chair_10_n04099969_3130.png
subject-06,1,377,1.11784195899963,bicycle,clock,0.7,0377_hp_s06_0.7_clock_10_n04548280_8412.png
subject-06,1,378,0.523864984512329,boat,boat,inf,0378_hp_s06_inf_boat_10_n03344393_4083.png
subject-06,1,379,0.892227172851562,bicycle,clock,0.55,0379_hp_s06_0.55_clock_10_n04548280_12596.png
subject-06,1,380,0.806915998458862,car,elephant,0.55,0380_hp_s06_0.55_elephant_10_n02504013_13512.png
subject-06,1,381,1.15929698944092,chair,knife,inf,0381_hp_s06_inf_knife_10_n03041632_21034.png
subject-06,1,382,0.935951948165894,airplane,airplane,0.55,0382_hp_s06_0.55_airplane_10_n02690373_7536.png
subject-06,1,383,1.50026392936707,bottle,chair,0.4,0383_hp_s06_0.4_chair_10_n04429376_29312.png
subject-06,1,384,0.980364084243774,dog,dog,3,0384_hp_s06_3_dog_10_n02106030_17782.png
subject-06,1,385,0.602972030639648,cat,boat,0.4,0385_hp_s06_0.4_boat_10_n02951358_6089.png
subject-06,1,386,0.879070043563843,dog,dog,1,0386_hp_s06_1_dog_10_n02101006_7513.png
subject-06,1,387,0.897232055664062,bird,bottle,0.45,0387_hp_s06_0.45_bottle_10_n04560804_11696.png
subject-06,1,388,0.73577094078064,boat,bear,0.55,0388_hp_s06_0.55_bear_10_n02132136_965.png
subject-06,1,389,1.21021199226379,car,bear,0.55,0389_hp_s06_0.55_bear_10_n02133161_3869.png
subject-06,1,390,1.04834008216858,chair,bottle,1.5,0390_hp_s06_1.5_bottle_10_n03937543_8875.png
subject-06,1,391,0.870763063430786,cat,elephant,0.4,0391_hp_s06_0.4_elephant_10_n02504013_4622.png
subject-06,1,392,0.931132078170776,dog,dog,1,0392_hp_s06_1_dog_10_n02107683_1412.png
subject-06,1,393,1.43735504150391,cat,dog,3,0393_hp_s06_3_dog_10_n02100583_26616.png
subject-06,1,394,0.799568891525269,keyboard,keyboard,1.5,0394_hp_s06_1.5_keyboard_10_n04505470_2518.png
subject-06,1,395,0.790142059326172,bear,bear,1.5,0395_hp_s06_1.5_bear_10_n02134418_3152.png
subject-06,1,396,1.08831310272217,truck,bear,0.4,0396_hp_s06_0.4_bear_10_n02134418_82.png
subject-06,1,397,0.902826070785522,boat,bird,0.45,0397_hp_s06_0.45_bird_10_n01820546_5114.png
subject-06,1,398,0.779168844223022,oven,bottle,0.4,0398_hp_s06_0.4_bottle_10_n04579145_6348.png
subject-06,1,399,1.01745700836182,keyboard,chair,1,0399_hp_s06_1_chair_10_n03376595_7835.png
subject-06,1,400,1.2775719165802,bottle,chair,inf,0400_hp_s06_inf_chair_10_n02791124_825.png
subject-06,1,401,0.700217008590698,bear,elephant,0.55,0401_hp_s06_0.55_elephant_10_n02504013_459.png
subject-06,1,402,0.798388004302979,car,boat,0.4,0402_hp_s06_0.4_boat_10_n03662601_31508.png
subject-06,1,403,0.750643014907837,bicycle,bicycle,0.7,0403_hp_s06_0.7_bicycle_10_n03792782_12421.png
subject-06,1,404,0.759155035018921,boat,bear,0.45,0404_hp_s06_0.45_bear_10_n02134418_2825.png
subject-06,1,405,0.643620014190674,boat,boat,0.55,0405_hp_s06_0.55_boat_10_n04273569_5891.png
subject-06,1,406,1.11800384521484,elephant,elephant,3,0406_hp_s06_3_elephant_10_n02504458_363.png
subject-06,1,407,0.76867413520813,elephant,elephant,inf,0407_hp_s06_inf_elephant_10_n02504013_5894.png
subject-06,1,408,1.24551796913147,bicycle,dog,3,0408_hp_s06_3_dog_10_n02096051_5891.png
subject-06,1,409,0.897709846496582,knife,knife,inf,0409_hp_s06_inf_knife_10_n03041632_51581.png
subject-06,1,410,0.882031917572021,elephant,elephant,1.5,0410_hp_s06_1.5_elephant_10_n02504013_8856.png
subject-06,1,411,1.08034515380859,elephant,bird,1,0411_hp_s06_1_bird_10_n02006656_875.png
subject-06,1,412,0.680994987487793,elephant,elephant,1,0412_hp_s06_1_elephant_10_n02504458_325.png
subject-06,1,413,1.00154209136963,bear,oven,0.4,0413_hp_s06_0.4_oven_10_n04111531_891.png
subject-06,1,414,1.09382200241089,elephant,bottle,0.55,0414_hp_s06_0.55_bottle_10_n04560804_12978.png
subject-06,1,415,0.745959997177124,airplane,airplane,0.7,0415_hp_s06_0.7_airplane_10_n02690373_3753.png
subject-06,1,416,0.892735958099365,oven,bird,3,0416_hp_s06_3_bird_10_n01514859_23289.png
subject-06,1,417,0.898639917373657,airplane,airplane,1,0417_hp_s06_1_airplane_10_n02690373_6336.png
subject-06,1,418,1.15103602409363,bottle,chair,0.7,0418_hp_s06_0.7_chair_10_n02791124_2301.png
subject-06,1,419,0.719552993774414,cat,car,0.45,0419_hp_s06_0.45_car_10_n03100240_9354.png
subject-06,1,420,1.05751085281372,airplane,truck,1,0420_hp_s06_1_truck_10_n03417042_29384.png
subject-06,1,421,1.00982308387756,elephant,elephant,0.7,0421_hp_s06_0.7_elephant_10_n02504458_1837.png
subject-06,1,422,1.30006217956543,car,airplane,0.45,0422_hp_s06_0.45_airplane_10_n02690373_3364.png
subject-06,1,423,1.41440200805664,truck,chair,0.55,0423_hp_s06_0.55_chair_10_n04429376_17319.png
subject-06,1,424,0.806521892547607,chair,chair,1,0424_hp_s06_1_chair_10_n04099969_19411.png
subject-06,1,425,0.835016965866089,boat,airplane,0.45,0425_hp_s06_0.45_airplane_10_n02690373_9128.png
subject-06,1,426,1.2035870552063,car,elephant,0.55,0426_hp_s06_0.55_elephant_10_n02504013_12586.png
subject-06,1,427,0.734115839004517,boat,chair,0.55,0427_hp_s06_0.55_chair_10_n02791124_1333.png
subject-06,1,428,0.826705932617188,bear,cat,0.45,0428_hp_s06_0.45_cat_10_n02123394_224.png
subject-06,1,429,0.670670032501221,cat,bird,0.4,0429_hp_s06_0.4_bird_10_n02018795_6705.png
subject-06,1,430,0.938967943191528,keyboard,clock,1.5,0430_hp_s06_1.5_clock_10_n03196217_2567.png
subject-06,1,431,0.753259897232056,oven,elephant,0.55,0431_hp_s06_0.55_elephant_10_n02504458_4395.png
subject-06,1,432,0.897989988327026,truck,truck,3,0432_hp_s06_3_truck_10_n04467665_48264.png
subject-06,1,433,0.690203905105591,boat,dog,0.55,0433_hp_s06_0.55_dog_10_n02106550_4956.png
subject-06,1,434,0.628875970840454,cat,truck,0.4,0434_hp_s06_0.4_truck_10_n04467665_24829.png
subject-06,1,435,0.826928853988647,bear,bear,1,0435_hp_s06_1_bear_10_n02133161_9962.png
subject-06,1,436,0.857451200485229,boat,bear,0.55,0436_hp_s06_0.55_bear_10_n02134084_3242.png
subject-06,1,437,0.985575199127197,dog,dog,3,0437_hp_s06_3_dog_10_n02109047_20414.png
subject-06,1,438,0.900039911270142,cat,boat,0.45,0438_hp_s06_0.45_boat_10_n03344393_6226.png
subject-06,1,439,0.960513830184937,cat,bird,3,0439_hp_s06_3_bird_10_n01817953_9020.png
subject-06,1,440,1.14494395256042,airplane,airplane,0.55,0440_hp_s06_0.55_airplane_10_n02690373_8813.png
subject-06,1,441,0.80510401725769,oven,bicycle,0.45,0441_hp_s06_0.45_bicycle_10_n03792782_30962.png
subject-06,1,442,1.06523203849792,keyboard,oven,0.7,0442_hp_s06_0.7_oven_10_n04111531_4955.png
subject-06,1,443,1.41004109382629,oven,oven,inf,0443_hp_s06_inf_oven_10_n04111531_7667.png
subject-06,1,444,0.725847959518433,cat,cat,0.45,0444_hp_s06_0.45_cat_10_n02123159_5494.png
subject-06,1,445,1.04852819442749,boat,airplane,0.55,0445_hp_s06_0.55_airplane_10_n02690373_9618.png
subject-06,1,446,1.03933787345886,chair,airplane,0.4,0446_hp_s06_0.4_airplane_10_n02690373_1983.png
subject-06,1,447,0.847541093826294,bottle,keyboard,0.45,0447_hp_s06_0.45_keyboard_10_n03085013_19416.png
subject-06,1,448,0.653931856155396,cat,dog,0.4,0448_hp_s06_0.4_dog_10_n02098286_4425.png
subject-06,1,449,0.97649097442627,dog,dog,3,0449_hp_s06_3_dog_10_n02111500_6625.png
subject-06,1,450,1.06086397171021,bird,knife,0.55,0450_hp_s06_0.55_knife_10_n03041632_4879.png
subject-06,1,451,1.01367902755737,truck,truck,0.7,0451_hp_s06_0.7_truck_10_n03417042_265.png
subject-06,1,452,1.01194095611572,boat,bird,0.55,0452_hp_s06_0.55_bird_10_n01537544_12829.png
subject-06,1,453,0.933905839920044,airplane,airplane,3,0453_hp_s06_3_airplane_10_n02690373_13604.png
subject-06,1,454,1.42654991149902,airplane,airplane,0.7,0454_hp_s06_0.7_airplane_10_n02690373_7093.png
subject-06,1,455,1.24916195869446,cat,bird,1,0455_hp_s06_1_bird_10_n01819313_3186.png
subject-06,1,456,0.91740894317627,dog,dog,inf,0456_hp_s06_inf_dog_10_n02086910_5031.png
subject-06,1,457,1.1456241607666,cat,cat,3,0457_hp_s06_3_cat_10_n02123597_13350.png
subject-06,1,458,0.670318841934204,car,bicycle,0.55,0458_hp_s06_0.55_bicycle_10_n02835271_24847.png
subject-06,1,459,1.35262203216553,chair,chair,3,0459_hp_s06_3_chair_10_n02791124_3103.png
subject-06,1,460,0.774971961975098,car,car,inf,0460_hp_s06_inf_car_10_n04285008_9354.png
subject-06,1,461,1.11946988105774,bear,elephant,0.45,0461_hp_s06_0.45_elephant_10_n02504458_4417.png
subject-06,1,462,0.803737163543701,boat,elephant,0.45,0462_hp_s06_0.45_elephant_10_n02504013_10311.png
subject-06,1,463,0.842239141464233,boat,bicycle,0.45,0463_hp_s06_0.45_bicycle_10_n02835271_749.png
subject-06,1,464,0.702862024307251,boat,boat,0.55,0464_hp_s06_0.55_boat_10_n04273569_74.png
subject-06,1,465,0.679397106170654,elephant,elephant,3,0465_hp_s06_3_elephant_10_n02504458_481.png
subject-06,1,466,0.893356084823608,cat,bird,0.55,0466_hp_s06_0.55_bird_10_n02025239_3489.png
subject-06,1,467,1.26001501083374,bear,oven,0.7,0467_hp_s06_0.7_oven_10_n04111531_14607.png
subject-06,1,468,0.630367994308472,clock,clock,1,0468_hp_s06_1_clock_10_n04548280_4713.png
subject-06,1,469,0.836859226226807,truck,truck,inf,0469_hp_s06_inf_truck_10_n04467665_32438.png
subject-06,1,470,0.926750898361206,bottle,bottle,3,0470_hp_s06_3_bottle_10_n03983396_2538.png
subject-06,1,471,0.715157985687256,truck,truck,inf,0471_hp_s06_inf_truck_10_n04467665_41825.png
subject-06,1,472,0.929385900497437,oven,bottle,0.45,0472_hp_s06_0.45_bottle_10_n04560804_13773.png
subject-06,1,473,0.682393074035645,boat,truck,0.55,0473_hp_s06_0.55_truck_10_n03417042_12145.png
subject-06,1,474,0.896618127822876,chair,chair,0.45,0474_hp_s06_0.45_chair_10_n02791124_6243.png
subject-06,1,475,0.859117984771729,car,car,inf,0475_hp_s06_inf_car_10_n02814533_34317.png
subject-06,1,476,0.619332075119019,cat,cat,3,0476_hp_s06_3_cat_10_n02124075_7825.png
subject-06,1,477,0.894087076187134,bicycle,clock,0.55,0477_hp_s06_0.55_clock_10_n04548280_3022.png
subject-06,1,478,1.07836508750916,boat,keyboard,0.7,0478_hp_s06_0.7_keyboard_10_n03085013_23323.png
subject-06,1,479,1.17687606811523,airplane,cat,0.55,0479_hp_s06_0.55_cat_10_n02123597_8521.png
subject-06,1,480,1.2233030796051,airplane,bottle,0.55,0480_hp_s06_0.55_bottle_10_n03937543_4690.png
subject-06,1,481,1.05807018280029,boat,chair,0.45,0481_hp_s06_0.45_chair_10_n03376595_12305.png
subject-06,1,482,0.74199104309082,keyboard,keyboard,0.55,0482_hp_s06_0.55_keyboard_10_n03085013_2272.png
subject-06,1,483,1.18650412559509,bear,bicycle,1.5,0483_hp_s06_1.5_bicycle_10_n03792782_13617.png
subject-06,1,484,0.678927898406982,keyboard,keyboard,1,0484_hp_s06_1_keyboard_10_n03085013_21490.png
subject-06,1,485,0.993536949157715,oven,car,0.45,0485_hp_s06_0.45_car_10_n04285008_7023.png
subject-06,1,486,0.724004983901978,chair,knife,0.4,0486_hp_s06_0.4_knife_10_n03041632_10802.png
subject-06,1,487,1.00601506233215,car,elephant,0.7,0487_hp_s06_0.7_elephant_10_n02504013_9476.png
subject-06,1,488,0.50690221786499,cat,boat,0.4,0488_hp_s06_0.4_boat_10_n03662601_28969.png
subject-06,1,489,0.928966045379639,knife,knife,1.5,0489_hp_s06_1.5_knife_10_n03041632_14132.png
subject-06,1,490,1.20364499092102,boat,truck,0.7,0490_hp_s06_0.7_truck_10_n04467665_63662.png
subject-06,1,491,0.719830989837646,oven,truck,0.55,0491_hp_s06_0.55_truck_10_n04467665_43222.png
subject-06,1,492,0.680356025695801,clock,keyboard,0.45,0492_hp_s06_0.45_keyboard_10_n04505470_10746.png
subject-06,1,493,0.848605155944824,boat,car,0.45,0493_hp_s06_0.45_car_10_n04285008_5077.png
subject-06,1,494,1.11501908302307,chair,dog,0.7,0494_hp_s06_0.7_dog_10_n02113799_13752.png
subject-06,1,495,0.861368894577026,elephant,elephant,1,0495_hp_s06_1_elephant_10_n02504013_6823.png
subject-06,1,496,0.838147878646851,dog,dog,1.5,0496_hp_s06_1.5_dog_10_n02096294_10825.png
subject-06,1,497,0.768285989761353,chair,chair,3,0497_hp_s06_3_chair_10_n02791124_2600.png
subject-06,1,498,0.720562219619751,chair,chair,0.7,0498_hp_s06_0.7_chair_10_n02791124_7759.png
subject-06,1,499,0.605056047439575,chair,chair,3,0499_hp_s06_3_chair_10_n02791124_1291.png
subject-06,1,500,1.06529402732849,oven,truck,0.55,0500_hp_s06_0.55_truck_10_n03417042_9377.png
subject-06,1,501,0.725440979003906,clock,clock,1.5,0501_hp_s06_1.5_clock_10_n02708093_2744.png
subject-06,1,502,0.999650001525879,bottle,keyboard,0.4,0502_hp_s06_0.4_keyboard_10_n03085013_21971.png
subject-06,1,503,0.999881029129028,knife,knife,3,0503_hp_s06_3_knife_10_n03041632_55083.png
subject-06,1,504,0.859833955764771,boat,car,0.45,0504_hp_s06_0.45_car_10_n03100240_688.png
subject-06,1,505,0.771976947784424,car,bear,0.4,0505_hp_s06_0.4_bear_10_n02134084_3898.png
subject-06,1,506,0.602111101150513,knife,knife,1.5,0506_hp_s06_1.5_knife_10_n03041632_39836.png
subject-06,1,507,0.908492088317871,oven,oven,0.45,0507_hp_s06_0.45_oven_10_n04111531_18648.png
subject-06,1,508,1.10726690292358,keyboard,knife,0.45,0508_hp_s06_0.45_knife_10_n03041632_54732.png
subject-06,1,509,0.783517837524414,keyboard,knife,0.55,0509_hp_s06_0.55_knife_10_n03041632_36280.png
subject-06,1,510,0.821697950363159,knife,knife,1,0510_hp_s06_1_knife_10_n03041632_46914.png
subject-06,1,511,1.10410690307617,keyboard,cat,0.7,0511_hp_s06_0.7_cat_10_n02125311_20206.png
subject-06,1,512,0.688161134719849,boat,knife,0.4,0512_hp_s06_0.4_knife_10_n03041632_25656.png
subject-06,1,513,0.907696008682251,clock,clock,0.45,0513_hp_s06_0.45_clock_10_n03196217_3292.png
subject-06,1,514,1.04618096351624,chair,truck,0.4,0514_hp_s06_0.4_truck_10_n03417042_4664.png
subject-06,1,515,1.32833290100098,bear,bear,1.5,0515_hp_s06_1.5_bear_10_n02133161_14945.png
subject-06,1,516,0.774440050125122,cat,bicycle,0.4,0516_hp_s06_0.4_bicycle_10_n02835271_10827.png
subject-06,1,517,0.918878078460693,airplane,airplane,0.55,0517_hp_s06_0.55_airplane_10_n02690373_5204.png
subject-06,1,518,NaN,na,oven,3,0518_hp_s06_3_oven_10_n04111531_2796.png
subject-06,1,519,0.730492830276489,oven,clock,0.55,0519_hp_s06_0.55_clock_10_n04548280_4391.png
subject-06,1,520,0.603914976119995,boat,boat,1.5,0520_hp_s06_1.5_boat_10_n03662601_19120.png
subject-06,1,521,0.664159059524536,chair,chair,inf,0521_hp_s06_inf_chair_10_n04099969_53073.png
subject-06,1,522,1.08437895774841,truck,truck,0.7,0522_hp_s06_0.7_truck_10_n03796401_23774.png
subject-06,1,523,0.646821022033691,chair,chair,0.55,0523_hp_s06_0.55_chair_10_n04099969_8671.png
subject-06,1,524,1.02125811576843,bottle,cat,0.55,0524_hp_s06_0.55_cat_10_n02123045_14135.png
subject-06,1,525,0.87388014793396,chair,knife,3,0525_hp_s06_3_knife_10_n03041632_13518.png
subject-06,1,526,0.774311780929565,bear,bottle,0.4,0526_hp_s06_0.4_bottle_10_n03983396_551.png
subject-06,1,527,0.606630086898804,bird,bird,1.5,0527_hp_s06_1.5_bird_10_n01860187_5275.png
subject-06,1,528,0.836781024932861,car,car,0.55,0528_hp_s06_0.55_car_10_n02814533_15249.png
subject-06,1,529,0.797167062759399,bicycle,bicycle,inf,0529_hp_s06_inf_bicycle_10_n02835271_1476.png
subject-06,1,530,0.857387065887451,chair,elephant,0.45,0530_hp_s06_0.45_elephant_10_n02504458_4022.png
subject-06,1,531,0.788022041320801,dog,dog,3,0531_hp_s06_3_dog_10_n02097209_7195.png
subject-06,1,532,0.870202779769897,cat,bear,0.45,0532_hp_s06_0.45_bear_10_n02134418_1121.png
subject-06,1,533,0.984791040420532,bear,elephant,3,0533_hp_s06_3_elephant_10_n02504458_9870.png
subject-06,1,534,0.722876071929932,boat,boat,1,0534_hp_s06_1_boat_10_n02951358_4999.png
subject-06,1,535,0.943226099014282,elephant,elephant,inf,0535_hp_s06_inf_elephant_10_n02504013_7518.png
subject-06,1,536,0.827379941940308,boat,oven,0.55,0536_hp_s06_0.55_oven_10_n04111531_21232.png
subject-06,1,537,1.06597709655762,bear,elephant,0.55,0537_hp_s06_0.55_elephant_10_n02504458_6171.png
subject-06,1,538,0.534384965896606,airplane,airplane,1,0538_hp_s06_1_airplane_10_n02690373_7276.png
subject-06,1,539,0.99902606010437,knife,knife,1,0539_hp_s06_1_knife_10_n03041632_20707.png
subject-06,1,540,0.675663948059082,bottle,bottle,1,0540_hp_s06_1_bottle_10_n04591713_3562.png
subject-06,1,541,0.86582612991333,knife,knife,3,0541_hp_s06_3_knife_10_n03041632_6557.png
subject-06,1,542,0.8802809715271,bear,truck,0.7,0542_hp_s06_0.7_truck_10_n03417042_18536.png
subject-06,1,543,0.640675067901611,boat,boat,1,0543_hp_s06_1_boat_10_n04273569_3668.png
subject-06,1,544,0.594606876373291,oven,oven,3,0544_hp_s06_3_oven_10_n04111531_14488.png
subject-06,1,545,1.27686595916748,car,oven,0.45,0545_hp_s06_0.45_oven_10_n04111531_1128.png
subject-06,1,546,NaN,na,chair,0.55,0546_hp_s06_0.55_chair_10_n04099969_26693.png
subject-06,1,547,0.775854110717773,chair,car,0.45,0547_hp_s06_0.45_car_10_n02814533_37747.png
subject-06,1,548,0.666279077529907,bear,bicycle,0.55,0548_hp_s06_0.55_bicycle_10_n03792782_70690.png
subject-06,1,549,0.650864124298096,cat,bottle,0.4,0549_hp_s06_0.4_bottle_10_n04591713_3879.png
subject-06,1,550,0.641548156738281,chair,knife,0.45,0550_hp_s06_0.45_knife_10_n03041632_3326.png
subject-06,1,551,0.979782104492188,bottle,bottle,0.7,0551_hp_s06_0.7_bottle_10_n03983396_7573.png
subject-06,1,552,0.594619989395142,bear,bear,inf,0552_hp_s06_inf_bear_10_n02132136_14385.png
subject-06,1,553,1.24680995941162,airplane,truck,1,0553_hp_s06_1_truck_10_n03417042_11441.png
subject-06,1,554,0.799415111541748,car,bottle,0.45,0554_hp_s06_0.45_bottle_10_n02823428_5519.png
subject-06,1,555,1.1461501121521,car,clock,0.7,0555_hp_s06_0.7_clock_10_n03196217_6689.png
subject-06,1,556,0.735923051834106,chair,chair,1.5,0556_hp_s06_1.5_chair_10_n02791124_269.png
subject-06,1,557,1.01227498054504,car,car,0.7,0557_hp_s06_0.7_car_10_n04285008_6576.png
subject-06,1,558,0.594444990158081,airplane,airplane,1.5,0558_hp_s06_1.5_airplane_10_n02690373_7496.png
subject-06,1,559,0.662745952606201,cat,bicycle,0.45,0559_hp_s06_0.45_bicycle_10_n02835271_927.png
subject-06,1,560,1.16120600700378,bear,truck,0.45,0560_hp_s06_0.45_truck_10_n03417042_5809.png
subject-06,1,561,1.22877502441406,bottle,knife,1,0561_hp_s06_1_knife_10_n03041632_33488.png
subject-06,1,562,1.06509900093079,car,truck,0.7,0562_hp_s06_0.7_truck_10_n03796401_2552.png
subject-06,1,563,0.586961984634399,airplane,airplane,1,0563_hp_s06_1_airplane_10_n02690373_1670.png
subject-06,1,564,0.609445810317993,oven,oven,1,0564_hp_s06_1_oven_10_n04111531_4585.png
subject-06,1,565,0.593741178512573,oven,oven,1.5,0565_hp_s06_1.5_oven_10_n04111531_1847.png
subject-06,1,566,0.906187057495117,cat,boat,0.45,0566_hp_s06_0.45_boat_10_n03344393_7667.png
subject-06,1,567,0.890828132629395,oven,bottle,0.55,0567_hp_s06_0.55_bottle_10_n04591713_3328.png
subject-06,1,568,0.483281850814819,oven,bicycle,0.45,0568_hp_s06_0.45_bicycle_10_n03792782_32689.png
subject-06,1,569,0.719979047775269,cat,cat,1,0569_hp_s06_1_cat_10_n02124075_2685.png
subject-06,1,570,0.942394971847534,elephant,elephant,1.5,0570_hp_s06_1.5_elephant_10_n02504458_7258.png
subject-06,1,571,1.03241395950317,bear,dog,0.55,0571_hp_s06_0.55_dog_10_n02106166_1790.png
subject-06,1,572,0.838915824890137,bicycle,bicycle,0.7,0572_hp_s06_0.7_bicycle_10_n03792782_3388.png
subject-06,1,573,0.961371183395386,chair,chair,3,0573_hp_s06_3_chair_10_n02791124_1788.png
subject-06,1,574,0.851402997970581,car,truck,0.4,0574_hp_s06_0.4_truck_10_n03417042_8602.png
subject-06,1,575,0.765530109405518,cat,bicycle,0.4,0575_hp_s06_0.4_bicycle_10_n02835271_21211.png
subject-06,1,576,0.942171096801758,cat,dog,0.7,0576_hp_s06_0.7_dog_10_n02113624_1356.png
subject-06,1,577,1.07878613471985,truck,truck,inf,0577_hp_s06_inf_truck_10_n04467665_69216.png
subject-06,1,578,1.02511620521545,bear,dog,0.7,0578_hp_s06_0.7_dog_10_n02090721_2249.png
subject-06,1,579,1.07772994041443,truck,truck,3,0579_hp_s06_3_truck_10_n03417042_21705.png
subject-06,1,580,0.722100019454956,car,boat,0.4,0580_hp_s06_0.4_boat_10_n03662601_8662.png
subject-06,1,581,1.07461714744568,knife,cat,0.7,0581_hp_s06_0.7_cat_10_n02123045_999.png
subject-06,1,582,0.674739837646484,oven,bird,0.4,0582_hp_s06_0.4_bird_10_n01843065_5119.png
subject-06,1,583,1.02715587615967,clock,bottle,0.55,0583_hp_s06_0.55_bottle_10_n03983396_2135.png
subject-06,1,584,0.687540054321289,boat,cat,0.4,0584_hp_s06_0.4_cat_10_n02123159_1451.png
subject-06,1,585,1.08277606964111,bicycle,truck,0.45,0585_hp_s06_0.45_truck_10_n04467665_69892.png
subject-06,1,586,1.17512893676758,bear,bear,1.5,0586_hp_s06_1.5_bear_10_n02134084_35010.png
subject-06,1,587,1.34166193008423,cat,cat,1,0587_hp_s06_1_cat_10_n02123597_2888.png
subject-06,1,588,0.880053997039795,bicycle,bicycle,3,0588_hp_s06_3_bicycle_10_n02835271_6903.png
subject-06,1,589,0.625014781951904,boat,truck,0.4,0589_hp_s06_0.4_truck_10_n03796401_9038.png
subject-06,1,590,0.771231889724731,truck,truck,1,0590_hp_s06_1_truck_10_n03417042_27608.png
subject-06,1,591,0.944781064987183,knife,knife,0.7,0591_hp_s06_0.7_knife_10_n03041632_36834.png
subject-06,1,592,0.743316888809204,bottle,bottle,1,0592_hp_s06_1_bottle_10_n04591713_7134.png
subject-06,1,593,0.735775947570801,chair,bear,0.45,0593_hp_s06_0.45_bear_10_n02132136_18776.png
subject-06,1,594,0.910433053970337,cat,bird,0.4,0594_hp_s06_0.4_bird_10_n02018207_2970.png
subject-06,1,595,0.702528953552246,airplane,airplane,inf,0595_hp_s06_inf_airplane_10_n02690373_21731.png
subject-06,1,596,0.862711191177368,chair,chair,inf,0596_hp_s06_inf_chair_10_n04099969_14288.png
subject-06,1,597,0.623018026351929,keyboard,keyboard,inf,0597_hp_s06_inf_keyboard_10_n03085013_20363.png
subject-06,1,598,0.959756135940552,chair,bicycle,0.55,0598_hp_s06_0.55_bicycle_10_n02835271_2620.png
subject-06,1,599,1.16602802276611,elephant,elephant,inf,0599_hp_s06_inf_elephant_10_n02504013_1803.png
subject-06,1,600,0.62590503692627,keyboard,keyboard,3,0600_hp_s06_3_keyboard_10_n03085013_5539.png
subject-06,1,601,0.540565967559814,cat,cat,1,0601_hp_s06_1_cat_10_n02123159_3534.png
subject-06,1,602,0.793221950531006,cat,car,0.4,0602_hp_s06_0.4_car_10_n03100240_6294.png
subject-06,1,603,0.907652139663696,boat,bicycle,0.55,0603_hp_s06_0.55_bicycle_10_n03792782_16896.png
subject-06,1,604,0.935210943222046,boat,bird,1,0604_hp_s06_1_bird_10_n02002556_5477.png
subject-06,1,605,0.981752157211304,chair,chair,1,0605_hp_s06_1_chair_10_n02791124_1976.png
subject-06,1,606,1.44799304008484,chair,knife,0.7,0606_hp_s06_0.7_knife_10_n03041632_11603.png
subject-06,1,607,0.615741968154907,airplane,airplane,inf,0607_hp_s06_inf_airplane_10_n02690373_13326.png
subject-06,1,608,0.867969036102295,clock,clock,0.4,0608_hp_s06_0.4_clock_10_n04548280_541.png
subject-06,1,609,0.72829008102417,oven,truck,0.45,0609_hp_s06_0.45_truck_10_n04467665_32090.png
subject-06,1,610,0.934842109680176,cat,cat,1,0610_hp_s06_1_cat_10_n02123159_5273.png
subject-06,1,611,0.781274080276489,boat,airplane,0.4,0611_hp_s06_0.4_airplane_10_n02690373_5149.png
subject-06,1,612,0.641216993331909,boat,bear,0.45,0612_hp_s06_0.45_bear_10_n02133161_7819.png
subject-06,1,613,1.19994115829468,elephant,elephant,0.7,0613_hp_s06_0.7_elephant_10_n02504458_7389.png
subject-06,1,614,0.89695405960083,oven,dog,0.4,0614_hp_s06_0.4_dog_10_n02109525_15683.png
subject-06,1,615,0.727468967437744,oven,bird,0.55,0615_hp_s06_0.55_bird_10_n01514859_10788.png
subject-06,1,616,0.817859172821045,airplane,airplane,3,0616_hp_s06_3_airplane_10_n02690373_8231.png
subject-06,1,617,1.08588480949402,bicycle,dog,0.55,0617_hp_s06_0.55_dog_10_n02113624_6479.png
subject-06,1,618,0.646449089050293,car,car,3,0618_hp_s06_3_car_10_n03100240_5719.png
subject-06,1,619,0.898875951766968,bottle,bottle,3,0619_hp_s06_3_bottle_10_n03983396_529.png
subject-06,1,620,0.705399036407471,clock,bottle,0.7,0620_hp_s06_0.7_bottle_10_n04560804_1061.png
subject-06,1,621,0.573161125183105,oven,dog,0.45,0621_hp_s06_0.45_dog_10_n02105162_564.png
subject-06,1,622,0.77983283996582,oven,oven,1.5,0622_hp_s06_1.5_oven_10_n04111531_12952.png
subject-06,1,623,0.94053316116333,cat,cat,0.7,0623_hp_s06_0.7_cat_10_n02123394_1333.png
subject-06,1,624,0.85483193397522,boat,keyboard,0.4,0624_hp_s06_0.4_keyboard_10_n03085013_21115.png
subject-06,1,625,1.43925309181213,bird,dog,0.4,0625_hp_s06_0.4_dog_10_n02113624_189.png
subject-06,1,626,1.50009703636169,car,knife,0.4,0626_hp_s06_0.4_knife_10_n03041632_30821.png
subject-06,1,627,0.737982034683228,bicycle,clock,3,0627_hp_s06_3_clock_10_n02708093_8155.png
subject-06,1,628,0.86601710319519,boat,elephant,0.45,0628_hp_s06_0.45_elephant_10_n02504013_10149.png
subject-06,1,629,1.02668213844299,oven,oven,3,0629_hp_s06_3_oven_10_n04111531_1674.png
subject-06,1,630,0.919166803359985,truck,truck,1,0630_hp_s06_1_truck_10_n03417042_3459.png
subject-06,1,631,0.58779501914978,boat,boat,3,0631_hp_s06_3_boat_10_n04612504_3003.png
subject-06,1,632,0.994138956069946,cat,dog,1.5,0632_hp_s06_1.5_dog_10_n02102040_712.png
subject-06,1,633,1.10057711601257,chair,oven,1.5,0633_hp_s06_1.5_oven_10_n04111531_1004.png
subject-06,1,634,0.895543813705444,bear,bear,1,0634_hp_s06_1_bear_10_n02133161_5278.png
subject-06,1,635,0.571784973144531,boat,bottle,0.45,0635_hp_s06_0.45_bottle_10_n04591713_5646.png
subject-06,1,636,1.10829210281372,truck,truck,0.7,0636_hp_s06_0.7_truck_10_n04467665_34667.png
subject-06,1,637,0.59279203414917,boat,clock,0.45,0637_hp_s06_0.45_clock_10_n02708093_1546.png
subject-06,1,638,1.20697999000549,car,oven,0.45,0638_hp_s06_0.45_oven_10_n04111531_2937.png
subject-06,1,639,0.613432884216309,boat,elephant,0.45,0639_hp_s06_0.45_elephant_10_n02504013_2018.png
subject-06,1,640,1.17365193367004,knife,knife,0.7,0640_hp_s06_0.7_knife_10_n03041632_4808.png
subject-06,1,641,0.743743181228638,chair,chair,inf,0641_hp_s06_inf_chair_10_n03376595_8177.png
subject-06,1,642,1.04219603538513,keyboard,bottle,0.55,0642_hp_s06_0.55_bottle_10_n04557648_7809.png
subject-06,1,643,0.68667197227478,keyboard,bird,0.55,0643_hp_s06_0.55_bird_10_n01860187_795.png
subject-06,1,644,0.631132125854492,car,boat,0.45,0644_hp_s06_0.45_boat_10_n04612504_34519.png
subject-06,1,645,0.915063858032227,car,boat,0.7,0645_hp_s06_0.7_boat_10_n02951358_26579.png
subject-06,1,646,0.605723857879639,boat,bicycle,1,0646_hp_s06_1_bicycle_10_n02835271_8394.png
subject-06,1,647,0.92833685874939,clock,clock,0.55,0647_hp_s06_0.55_clock_10_n04548280_5308.png
subject-06,1,648,0.642369985580444,chair,chair,0.55,0648_hp_s06_0.55_chair_10_n02791124_3781.png
subject-06,1,649,0.932524919509888,chair,truck,0.55,0649_hp_s06_0.55_truck_10_n03417042_10108.png
subject-06,1,650,0.892822027206421,cat,dog,0.7,0650_hp_s06_0.7_dog_10_n02092002_14021.png
subject-06,1,651,1.02934002876282,car,bottle,0.4,0651_hp_s06_0.4_bottle_10_n03983396_10886.png
subject-06,1,652,0.857590913772583,airplane,boat,inf,0652_hp_s06_inf_boat_10_n04273569_29194.png
subject-06,1,653,0.880240917205811,car,boat,0.55,0653_hp_s06_0.55_boat_10_n04273569_6060.png
subject-06,1,654,0.840591907501221,bicycle,boat,3,0654_hp_s06_3_boat_10_n02951358_29341.png
subject-06,1,655,1.10909700393677,keyboard,knife,0.7,0655_hp_s06_0.7_knife_10_n03041632_90125.png
subject-06,1,656,1.21356296539307,truck,bird,0.45,0656_hp_s06_0.45_bird_10_n02002724_839.png
subject-06,1,657,0.736368894577026,chair,chair,3,0657_hp_s06_3_chair_10_n04429376_5427.png
subject-06,1,658,0.934545040130615,car,truck,0.55,0658_hp_s06_0.55_truck_10_n03417042_19563.png
subject-06,1,659,0.551481008529663,cat,bicycle,0.4,0659_hp_s06_0.4_bicycle_10_n03792782_380.png
subject-06,1,660,1.42357993125916,knife,knife,1,0660_hp_s06_1_knife_10_n03041632_14224.png
subject-06,1,661,0.953274011611938,bicycle,bicycle,1.5,0661_hp_s06_1.5_bicycle_10_n02835271_358.png
subject-06,1,662,0.614068031311035,bear,bear,3,0662_hp_s06_3_bear_10_n02134084_23687.png
subject-06,1,663,0.806581974029541,boat,boat,1.5,0663_hp_s06_1.5_boat_10_n04273569_21470.png
subject-06,1,664,0.533633947372437,clock,clock,inf,0664_hp_s06_inf_clock_10_n04548280_6792.png
subject-06,1,665,0.961580038070679,bottle,bottle,1.5,0665_hp_s06_1.5_bottle_10_n04579145_1174.png
subject-06,1,666,0.691735982894897,bear,bear,1,0666_hp_s06_1_bear_10_n02133161_7032.png
subject-06,1,667,0.912364959716797,boat,dog,0.4,0667_hp_s06_0.4_dog_10_n02094258_6390.png
subject-06,1,668,0.642409086227417,boat,boat,1,0668_hp_s06_1_boat_10_n04612504_8322.png
subject-06,1,669,0.724909067153931,airplane,airplane,inf,0669_hp_s06_inf_airplane_10_n02690373_6891.png
subject-06,1,670,0.663093090057373,keyboard,oven,0.7,0670_hp_s06_0.7_oven_10_n04111531_7283.png
subject-06,1,671,0.775566101074219,bear,clock,1,0671_hp_s06_1_clock_10_n04548280_10390.png
subject-06,1,672,0.814357995986938,car,bird,1,0672_hp_s06_1_bird_10_n01532829_4749.png
subject-06,1,673,0.558547973632812,keyboard,keyboard,1,0673_hp_s06_1_keyboard_10_n03085013_6313.png
subject-06,1,674,0.788948774337769,car,truck,inf,0674_hp_s06_inf_truck_10_n03417042_10965.png
subject-06,1,675,0.62533712387085,boat,car,0.4,0675_hp_s06_0.4_car_10_n04285008_13292.png
subject-06,1,676,1.20763111114502,boat,boat,0.7,0676_hp_s06_0.7_boat_10_n04612504_24342.png
subject-06,1,677,0.576030015945435,oven,oven,inf,0677_hp_s06_inf_oven_10_n04111531_12161.png
subject-06,1,678,0.822596073150635,bottle,bottle,1.5,0678_hp_s06_1.5_bottle_10_n03983396_7445.png
subject-06,1,679,0.737243175506592,boat,keyboard,0.55,0679_hp_s06_0.55_keyboard_10_n03085013_8867.png
subject-06,1,680,0.751405954360962,bear,bear,1.5,0680_hp_s06_1.5_bear_10_n02134418_3506.png
subject-06,1,681,0.895927906036377,car,car,inf,0681_hp_s06_inf_car_10_n03100240_10915.png
subject-06,1,682,0.80996298789978,bicycle,bicycle,0.7,0682_hp_s06_0.7_bicycle_10_n02835271_1630.png
subject-06,1,683,0.80600905418396,bear,bear,3,0683_hp_s06_3_bear_10_n02134084_1455.png
subject-06,1,684,0.981446981430054,boat,truck,1.5,0684_hp_s06_1.5_truck_10_n03417042_4655.png
subject-06,1,685,0.8175208568573,oven,clock,0.45,0685_hp_s06_0.45_clock_10_n04548280_3242.png
subject-06,1,686,0.59393310546875,boat,bicycle,0.45,0686_hp_s06_0.45_bicycle_10_n03792782_67.png
subject-06,1,687,0.83049201965332,car,airplane,0.45,0687_hp_s06_0.45_airplane_10_n02690373_2619.png
subject-06,1,688,0.661005020141602,oven,keyboard,0.45,0688_hp_s06_0.45_keyboard_10_n04505470_4669.png
subject-06,1,689,0.99367094039917,cat,bicycle,0.45,0689_hp_s06_0.45_bicycle_10_n03792782_4659.png
subject-06,1,690,0.903995990753174,airplane,airplane,3,0690_hp_s06_3_airplane_10_n02690373_6999.png
subject-06,1,691,0.986422061920166,car,oven,0.55,0691_hp_s06_0.55_oven_10_n04111531_15568.png
subject-06,1,692,0.586848020553589,oven,oven,3,0692_hp_s06_3_oven_10_n04111531_10102.png
subject-06,1,693,0.915369987487793,cat,elephant,0.45,0693_hp_s06_0.45_elephant_10_n02504458_3906.png
subject-06,1,694,1.14563512802124,boat,bird,0.45,0694_hp_s06_0.45_bird_10_n01601694_17953.png
subject-06,1,695,1.11899280548096,cat,elephant,3,0695_hp_s06_3_elephant_10_n02504458_11511.png
subject-06,1,696,0.746933937072754,bicycle,bicycle,0.7,0696_hp_s06_0.7_bicycle_10_n02835271_781.png
subject-06,1,697,0.677052021026611,clock,bird,0.45,0697_hp_s06_0.45_bird_10_n02027492_8707.png
subject-06,1,698,0.73560619354248,truck,truck,3,0698_hp_s06_3_truck_10_n03417042_5424.png
subject-06,1,699,0.750071048736572,oven,knife,0.4,0699_hp_s06_0.4_knife_10_n03041632_47759.png
subject-06,1,700,0.780767202377319,bottle,bottle,1.5,0700_hp_s06_1.5_bottle_10_n03983396_6037.png
subject-06,1,701,1.30900096893311,bicycle,truck,1,0701_hp_s06_1_truck_10_n04467665_30494.png
subject-06,1,702,0.663702011108398,clock,clock,inf,0702_hp_s06_inf_clock_10_n04548280_22640.png
subject-06,1,703,0.58617091178894,airplane,airplane,3,0703_hp_s06_3_airplane_10_n02690373_4507.png
subject-06,1,704,0.852438926696777,boat,bird,0.4,0704_hp_s06_0.4_bird_10_n02037110_14088.png
subject-06,1,705,0.780959129333496,car,bear,0.4,0705_hp_s06_0.4_bear_10_n02134418_6222.png
subject-06,1,706,0.673090934753418,knife,knife,inf,0706_hp_s06_inf_knife_10_n03041632_54627.png
subject-06,1,707,0.887763023376465,knife,knife,inf,0707_hp_s06_inf_knife_10_n03041632_16104.png
subject-06,1,708,0.785554885864258,bicycle,bottle,1,0708_hp_s06_1_bottle_10_n04557648_9051.png
subject-06,1,709,0.576001167297363,bear,bear,1.5,0709_hp_s06_1.5_bear_10_n02132136_2789.png
subject-06,1,710,0.758486986160278,bicycle,knife,1,0710_hp_s06_1_knife_10_n03041632_102764.png
subject-06,1,711,0.567062854766846,bicycle,bicycle,inf,0711_hp_s06_inf_bicycle_10_n02835271_3947.png
subject-06,1,712,0.933240175247192,keyboard,boat,0.55,0712_hp_s06_0.55_boat_10_n04612504_40672.png
subject-06,1,713,0.802149057388306,bird,bird,3,0713_hp_s06_3_bird_10_n01855032_6432.png
subject-06,1,714,0.670125007629395,keyboard,keyboard,1.5,0714_hp_s06_1.5_keyboard_10_n03085013_31266.png
subject-06,1,715,1.24543714523315,clock,clock,3,0715_hp_s06_3_clock_10_n03196217_422.png
subject-06,1,716,0.629988193511963,car,car,inf,0716_hp_s06_inf_car_10_n02814533_14627.png
subject-06,1,717,0.782335042953491,clock,clock,1,0717_hp_s06_1_clock_10_n02708093_6734.png
subject-06,1,718,0.712948083877563,boat,oven,0.4,0718_hp_s06_0.4_oven_10_n04111531_9455.png
subject-06,1,719,0.881700992584229,bear,dog,0.55,0719_hp_s06_0.55_dog_10_n02110185_12288.png
subject-06,1,720,0.657993078231812,clock,chair,0.4,0720_hp_s06_0.4_chair_10_n04099969_14610.png
subject-06,1,721,0.510295152664185,boat,bicycle,0.45,0721_hp_s06_0.45_bicycle_10_n03792782_13508.png
subject-06,1,722,0.878819942474365,keyboard,keyboard,0.55,0722_hp_s06_0.55_keyboard_10_n03085013_32791.png
subject-06,1,723,0.753073930740356,airplane,airplane,1.5,0723_hp_s06_1.5_airplane_10_n02690373_1563.png
subject-06,1,724,0.735307931900024,car,car,0.7,0724_hp_s06_0.7_car_10_n02814533_23234.png
subject-06,1,725,0.942108869552612,car,boat,0.7,0725_hp_s06_0.7_boat_10_n03662601_23578.png
subject-06,1,726,0.5643150806427,clock,clock,inf,0726_hp_s06_inf_clock_10_n02708093_167.png
subject-06,1,727,0.608949899673462,keyboard,keyboard,1,0727_hp_s06_1_keyboard_10_n03085013_21048.png
subject-06,1,728,1.10747718811035,elephant,dog,1.5,0728_hp_s06_1.5_dog_10_n02111500_5004.png
subject-06,1,729,1.10550808906555,cat,bear,0.7,0729_hp_s06_0.7_bear_10_n02134084_19775.png
subject-06,1,730,1.14990615844727,dog,knife,0.55,0730_hp_s06_0.55_knife_10_n03041632_14442.png
subject-06,1,731,1.06441187858582,dog,bottle,0.45,0731_hp_s06_0.45_bottle_10_n04557648_9145.png
subject-06,1,732,0.739880084991455,cat,cat,inf,0732_hp_s06_inf_cat_10_n02123159_7181.png
subject-06,1,733,0.913318872451782,oven,oven,3,0733_hp_s06_3_oven_10_n04111531_22916.png
subject-06,1,734,0.819886922836304,oven,bicycle,0.4,0734_hp_s06_0.4_bicycle_10_n03792782_10812.png
subject-06,1,735,0.648247003555298,cat,cat,1.5,0735_hp_s06_1.5_cat_10_n02123159_5965.png
subject-06,1,736,0.594498157501221,oven,oven,1,0736_hp_s06_1_oven_10_n04111531_3805.png
subject-06,1,737,1.0987651348114,oven,car,0.4,0737_hp_s06_0.4_car_10_n03100240_9389.png
subject-06,1,738,1.01297998428345,boat,bottle,0.45,0738_hp_s06_0.45_bottle_10_n04591713_6668.png
subject-06,1,739,0.596702814102173,cat,cat,inf,0739_hp_s06_inf_cat_10_n02123045_11536.png
subject-06,1,740,0.808501958847046,bird,bird,inf,0740_hp_s06_inf_bird_10_n01592084_5227.png
subject-06,1,741,1.31257200241089,knife,knife,1.5,0741_hp_s06_1.5_knife_10_n03041632_42526.png
subject-06,1,742,0.788991928100586,bottle,clock,0.7,0742_hp_s06_0.7_clock_10_n03196217_8580.png
subject-06,1,743,0.619111061096191,clock,clock,3,0743_hp_s06_3_clock_10_n04548280_4092.png
subject-06,1,744,0.601372003555298,clock,clock,1,0744_hp_s06_1_clock_10_n02708093_6929.png
subject-06,1,745,1.00014209747314,keyboard,bird,0.55,0745_hp_s06_0.55_bird_10_n01592084_4317.png
subject-06,1,746,0.708724021911621,cat,cat,1.5,0746_hp_s06_1.5_cat_10_n02123597_2239.png
subject-06,1,747,1.25884699821472,knife,knife,inf,0747_hp_s06_inf_knife_10_n03041632_80317.png
subject-06,1,748,1.23496198654175,airplane,truck,inf,0748_hp_s06_inf_truck_10_n04467665_80465.png
subject-06,1,749,1.18495106697083,bird,elephant,0.45,0749_hp_s06_0.45_elephant_10_n02504458_1604.png
subject-06,1,750,0.755414962768555,dog,dog,3,0750_hp_s06_3_dog_10_n02108551_20183.png
subject-06,1,751,0.767619848251343,bird,bird,inf,0751_hp_s06_inf_bird_10_n01833805_24362.png
subject-06,1,752,0.590337038040161,chair,chair,inf,0752_hp_s06_inf_chair_10_n03376595_8520.png
subject-06,1,753,0.658611059188843,oven,dog,0.4,0753_hp_s06_0.4_dog_10_n02099601_4644.png
subject-06,1,754,0.848906993865967,knife,knife,1.5,0754_hp_s06_1.5_knife_10_n03041632_965.png
subject-06,1,755,1.32345604896545,oven,chair,0.7,0755_hp_s06_0.7_chair_10_n02791124_7877.png
subject-06,1,756,0.969854831695557,keyboard,keyboard,1,0756_hp_s06_1_keyboard_10_n03085013_22442.png
subject-06,1,757,0.744230985641479,keyboard,keyboard,inf,0757_hp_s06_inf_keyboard_10_n04505470_4615.png
subject-06,1,758,0.842724084854126,boat,boat,1,0758_hp_s06_1_boat_10_n04612504_20125.png
subject-06,1,759,0.519201993942261,boat,boat,inf,0759_hp_s06_inf_boat_10_n03662601_1561.png
subject-06,1,760,0.917629957199097,clock,car,0.4,0760_hp_s06_0.4_car_10_n03100240_21377.png
subject-06,1,761,0.978260040283203,cat,clock,0.45,0761_hp_s06_0.45_clock_10_n02708093_1714.png
subject-06,1,762,0.893021821975708,boat,bird,0.4,0762_hp_s06_0.4_bird_10_n01817953_10493.png
subject-06,1,763,1.1295268535614,bear,bear,1.5,0763_hp_s06_1.5_bear_10_n02132136_14583.png
subject-06,1,764,1.5001118183136,dog,keyboard,0.4,0764_hp_s06_0.4_keyboard_10_n03085013_5714.png
subject-06,1,765,0.817503929138184,elephant,bear,1.5,0765_hp_s06_1.5_bear_10_n02134418_1750.png
subject-06,1,766,0.855966091156006,oven,knife,1.5,0766_hp_s06_1.5_knife_10_n03041632_29940.png
subject-06,1,767,0.859956979751587,car,bottle,0.4,0767_hp_s06_0.4_bottle_10_n04557648_27488.png
subject-06,1,768,0.606576204299927,keyboard,keyboard,1.5,0768_hp_s06_1.5_keyboard_10_n03085013_22489.png
subject-06,1,769,0.796791791915894,bottle,bottle,inf,0769_hp_s06_inf_bottle_10_n04560804_2533.png
subject-06,1,770,0.848992109298706,cat,cat,1.5,0770_hp_s06_1.5_cat_10_n02123045_3729.png
subject-06,1,771,0.647742986679077,truck,truck,1.5,0771_hp_s06_1.5_truck_10_n03417042_3011.png
subject-06,1,772,0.729610919952393,oven,boat,3,0772_hp_s06_3_boat_10_n03662601_32877.png
subject-06,1,773,0.682322025299072,boat,clock,0.45,0773_hp_s06_0.45_clock_10_n04548280_17.png
subject-06,1,774,0.793850183486938,boat,knife,0.45,0774_hp_s06_0.45_knife_10_n03041632_9671.png
subject-06,1,775,0.840200901031494,bicycle,bicycle,1,0775_hp_s06_1_bicycle_10_n02835271_2625.png
subject-06,1,776,1.00621104240417,clock,boat,0.45,0776_hp_s06_0.45_boat_10_n03662601_18953.png
subject-06,1,777,0.788300037384033,boat,airplane,3,0777_hp_s06_3_airplane_10_n02690373_10311.png
subject-06,1,778,0.840700149536133,boat,oven,0.4,0778_hp_s06_0.4_oven_10_n04111531_8934.png
subject-06,1,779,1.07627487182617,clock,clock,1,0779_hp_s06_1_clock_10_n02708093_6766.png
subject-06,1,780,1.00679516792297,clock,chair,0.45,0780_hp_s06_0.45_chair_10_n03376595_12251.png
subject-06,1,781,0.935213088989258,oven,clock,0.4,0781_hp_s06_0.4_clock_10_n04548280_1274.png
subject-06,1,782,0.679258108139038,cat,cat,0.45,0782_hp_s06_0.45_cat_10_n02123045_13197.png
subject-06,1,783,1.24724912643433,boat,car,0.55,0783_hp_s06_0.55_car_10_n02814533_20390.png
subject-06,1,784,0.954181909561157,car,clock,3,0784_hp_s06_3_clock_10_n03196217_10219.png
subject-06,1,785,0.752396821975708,clock,knife,0.45,0785_hp_s06_0.45_knife_10_n03041632_9488.png
subject-06,1,786,0.674526929855347,boat,boat,1.5,0786_hp_s06_1.5_boat_10_n02951358_11412.png
subject-06,1,787,0.795399904251099,bird,oven,0.4,0787_hp_s06_0.4_oven_10_n04111531_1330.png
subject-06,1,788,0.670953035354614,cat,bird,0.55,0788_hp_s06_0.55_bird_10_n02056570_8478.png
subject-06,1,789,0.983466863632202,chair,chair,0.55,0789_hp_s06_0.55_chair_10_n02791124_6858.png
subject-06,1,790,0.796853065490723,chair,chair,1.5,0790_hp_s06_1.5_chair_10_n02791124_696.png
subject-06,1,791,1.26336884498596,cat,keyboard,0.4,0791_hp_s06_0.4_keyboard_10_n03085013_24408.png
subject-06,1,792,1.10005211830139,car,cat,0.55,0792_hp_s06_0.55_cat_10_n02124075_10346.png
subject-06,1,793,0.852211952209473,oven,cat,0.55,0793_hp_s06_0.55_cat_10_n02123394_2174.png
subject-06,1,794,0.890819072723389,bear,bicycle,0.45,0794_hp_s06_0.45_bicycle_10_n03792782_27375.png
subject-06,1,795,0.711225986480713,bird,bird,inf,0795_hp_s06_inf_bird_10_n02033041_14074.png
subject-06,1,796,0.657679080963135,clock,clock,inf,0796_hp_s06_inf_clock_10_n03196217_3742.png
subject-06,1,797,1.03182196617126,car,car,0.7,0797_hp_s06_0.7_car_10_n02814533_26659.png
subject-06,1,798,0.559650897979736,car,car,0.7,0798_hp_s06_0.7_car_10_n03100240_6099.png
subject-06,1,799,0.682200908660889,elephant,elephant,1,0799_hp_s06_1_elephant_10_n02504458_693.png
subject-06,1,800,0.734675884246826,chair,bottle,1,0800_hp_s06_1_bottle_10_n04560804_15311.png
subject-06,1,801,0.728173017501831,oven,oven,0.4,0801_hp_s06_0.4_oven_10_n04111531_8398.png
subject-06,1,802,0.588840961456299,boat,bear,0.4,0802_hp_s06_0.4_bear_10_n02133161_752.png
subject-06,1,803,0.609230995178223,bird,bird,1,0803_hp_s06_1_bird_10_n01582220_7342.png
subject-06,1,804,0.569302082061768,cat,knife,0.4,0804_hp_s06_0.4_knife_10_n03041632_24998.png
subject-06,1,805,0.805860042572021,truck,truck,inf,0805_hp_s06_inf_truck_10_n03417042_4765.png
subject-06,1,806,0.59783411026001,car,elephant,0.55,0806_hp_s06_0.55_elephant_10_n02504013_10887.png
subject-06,1,807,0.51262903213501,boat,clock,0.55,0807_hp_s06_0.55_clock_10_n04548280_8646.png
subject-06,1,808,0.763059854507446,elephant,elephant,0.7,0808_hp_s06_0.7_elephant_10_n02504458_863.png
subject-06,1,809,0.701179027557373,truck,truck,1.5,0809_hp_s06_1.5_truck_10_n03796401_19777.png
subject-06,1,810,0.790949106216431,car,cat,0.4,0810_hp_s06_0.4_cat_10_n02123045_5370.png
subject-06,1,811,0.673168897628784,car,car,1,0811_hp_s06_1_car_10_n02814533_31430.png
subject-06,1,812,1.09330296516418,boat,cat,0.55,0812_hp_s06_0.55_cat_10_n02125311_27989.png
subject-06,1,813,1.47534489631653,bird,cat,inf,0813_hp_s06_inf_cat_10_n02125311_39892.png
subject-06,1,814,0.935920000076294,knife,knife,0.7,0814_hp_s06_0.7_knife_10_n03041632_4318.png
subject-06,1,815,0.811935901641846,bicycle,cat,3,0815_hp_s06_3_cat_10_n02123159_7569.png
subject-06,1,816,0.918455123901367,boat,boat,1.5,0816_hp_s06_1.5_boat_10_n02951358_3898.png
subject-06,1,817,1.38460612297058,boat,bird,1.5,0817_hp_s06_1.5_bird_10_n01829413_8722.png
subject-06,1,818,0.898952960968018,cat,elephant,0.55,0818_hp_s06_0.55_elephant_10_n02504458_379.png
subject-06,1,819,0.675193071365356,boat,cat,0.45,0819_hp_s06_0.45_cat_10_n02125311_14569.png
subject-06,1,820,0.879646062850952,knife,knife,1,0820_hp_s06_1_knife_10_n03041632_45270.png
subject-06,1,821,0.74015212059021,boat,boat,1.5,0821_hp_s06_1.5_boat_10_n04612504_2951.png
subject-06,1,822,0.683947086334229,boat,chair,0.4,0822_hp_s06_0.4_chair_10_n04099969_2220.png
subject-06,1,823,0.730587005615234,airplane,airplane,inf,0823_hp_s06_inf_airplane_10_n02690373_7094.png
subject-06,1,824,1.15861082077026,airplane,bird,0.55,0824_hp_s06_0.55_bird_10_n02002556_10560.png
subject-06,1,825,0.711331129074097,car,car,inf,0825_hp_s06_inf_car_10_n04285008_5251.png
subject-06,1,826,0.923968076705933,car,bear,0.55,0826_hp_s06_0.55_bear_10_n02134084_4247.png
subject-06,1,827,0.52445912361145,boat,oven,1.5,0827_hp_s06_1.5_oven_10_n04111531_10583.png
subject-06,1,828,0.79885196685791,dog,dog,1.5,0828_hp_s06_1.5_dog_10_n02107142_5581.png
subject-06,1,829,0.945340156555176,oven,knife,1,0829_hp_s06_1_knife_10_n03041632_36789.png
subject-06,1,830,0.589335918426514,bear,bear,inf,0830_hp_s06_inf_bear_10_n02133161_4723.png
subject-06,1,831,0.901592016220093,elephant,cat,1,0831_hp_s06_1_cat_10_n02124075_853.png
subject-06,1,832,0.848178863525391,cat,bottle,0.45,0832_hp_s06_0.45_bottle_10_n03937543_6785.png
subject-06,1,833,0.73855185508728,car,truck,0.4,0833_hp_s06_0.4_truck_10_n04467665_41861.png
subject-06,1,834,1.08815383911133,boat,car,inf,0834_hp_s06_inf_car_10_n03100240_16598.png
subject-06,1,835,0.672741889953613,cat,clock,0.4,0835_hp_s06_0.4_clock_10_n04548280_4392.png
subject-06,1,836,0.795531034469604,oven,bird,0.45,0836_hp_s06_0.45_bird_10_n02002724_327.png
subject-06,1,837,0.702239990234375,bear,dog,0.7,0837_hp_s06_0.7_dog_10_n02093256_9107.png
subject-06,1,838,0.676591157913208,bottle,bottle,inf,0838_hp_s06_inf_bottle_10_n03937543_6644.png
subject-06,1,839,0.745012998580933,chair,bottle,0.55,0839_hp_s06_0.55_bottle_10_n03937543_9804.png
subject-06,1,840,0.673472166061401,boat,clock,0.7,0840_hp_s06_0.7_clock_10_n02708093_1897.png
subject-06,1,841,0.533727169036865,car,bird,0.45,0841_hp_s06_0.45_bird_10_n01614925_3496.png
subject-06,1,842,0.970098972320557,bicycle,bicycle,1,0842_hp_s06_1_bicycle_10_n02835271_15196.png
subject-06,1,843,1.01430988311768,clock,bottle,1,0843_hp_s06_1_bottle_10_n04560804_313.png
subject-06,1,844,1.33697104454041,cat,cat,0.7,0844_hp_s06_0.7_cat_10_n02123045_3871.png
subject-06,1,845,0.843295097351074,elephant,elephant,0.7,0845_hp_s06_0.7_elephant_10_n02504013_4523.png
subject-06,1,846,0.582056999206543,car,car,1.5,0846_hp_s06_1.5_car_10_n03100240_8625.png
subject-06,1,847,0.722638130187988,bicycle,bicycle,inf,0847_hp_s06_inf_bicycle_10_n03792782_15248.png
subject-06,1,848,0.666866064071655,boat,knife,0.45,0848_hp_s06_0.45_knife_10_n03041632_24114.png
subject-06,1,849,0.965163946151733,bird,bird,inf,0849_hp_s06_inf_bird_10_n02009912_3408.png
subject-06,1,850,0.687991857528687,keyboard,keyboard,0.7,0850_hp_s06_0.7_keyboard_10_n03085013_19343.png
subject-06,1,851,0.824471950531006,bicycle,chair,3,0851_hp_s06_3_chair_10_n04099969_40045.png
subject-06,1,852,1.25222396850586,airplane,airplane,1.5,0852_hp_s06_1.5_airplane_10_n02690373_2796.png
subject-06,1,853,0.612504959106445,oven,oven,inf,0853_hp_s06_inf_oven_10_n04111531_585.png
subject-06,1,854,0.664515972137451,cat,cat,0.4,0854_hp_s06_0.4_cat_10_n02123597_5350.png
subject-06,1,855,0.786868810653687,oven,oven,1,0855_hp_s06_1_oven_10_n04111531_11655.png
subject-06,1,856,0.737353086471558,oven,bottle,0.45,0856_hp_s06_0.45_bottle_10_n03937543_1120.png
subject-06,1,857,0.697606086730957,cat,cat,1.5,0857_hp_s06_1.5_cat_10_n02123045_5204.png
subject-06,1,858,0.849175930023193,keyboard,knife,0.45,0858_hp_s06_0.45_knife_10_n03041632_7982.png
subject-06,1,859,1.12116408348083,bird,bird,0.4,0859_hp_s06_0.4_bird_10_n01824575_8065.png
subject-06,1,860,0.729457855224609,airplane,airplane,inf,0860_hp_s06_inf_airplane_10_n02690373_4079.png
subject-06,1,861,0.779618978500366,knife,knife,3,0861_hp_s06_3_knife_10_n03041632_46091.png
subject-06,1,862,0.815886974334717,elephant,elephant,inf,0862_hp_s06_inf_elephant_10_n02504013_3295.png
subject-06,1,863,1.01446890830994,chair,airplane,0.45,0863_hp_s06_0.45_airplane_10_n02690373_8454.png
subject-06,1,864,0.836996078491211,bottle,cat,0.55,0864_hp_s06_0.55_cat_10_n02123159_6170.png
subject-06,1,865,0.843662977218628,bicycle,bicycle,1,0865_hp_s06_1_bicycle_10_n02835271_719.png
subject-06,1,866,0.920122146606445,bicycle,cat,0.55,0866_hp_s06_0.55_cat_10_n02125311_55118.png
subject-06,1,867,0.51056694984436,boat,bear,0.4,0867_hp_s06_0.4_bear_10_n02133161_2400.png
subject-06,1,868,0.770554065704346,clock,clock,1,0868_hp_s06_1_clock_10_n02708093_1482.png
subject-06,1,869,1.05312705039978,boat,bear,1,0869_hp_s06_1_bear_10_n02134418_5045.png
subject-06,1,870,0.727524995803833,elephant,knife,1,0870_hp_s06_1_knife_10_n03041632_11326.png
subject-06,1,871,0.619646072387695,oven,bottle,0.45,0871_hp_s06_0.45_bottle_10_n04591713_4206.png
subject-06,1,872,0.802137136459351,boat,boat,0.7,0872_hp_s06_0.7_boat_10_n03662601_2511.png
subject-06,1,873,1.23037695884705,car,truck,1.5,0873_hp_s06_1.5_truck_10_n04467665_22974.png
subject-06,1,874,0.698630094528198,airplane,airplane,1,0874_hp_s06_1_airplane_10_n02690373_8524.png
subject-06,1,875,0.972937822341919,clock,dog,0.45,0875_hp_s06_0.45_dog_10_n02110958_13696.png
subject-06,1,876,0.72462010383606,bicycle,bicycle,1,0876_hp_s06_1_bicycle_10_n03792782_2267.png
subject-06,1,877,0.923311948776245,bird,dog,3,0877_hp_s06_3_dog_10_n02100735_8203.png
subject-06,1,878,0.537704944610596,cat,boat,0.4,0878_hp_s06_0.4_boat_10_n02951358_4345.png
subject-06,1,879,0.741688966751099,airplane,bicycle,1.5,0879_hp_s06_1.5_bicycle_10_n03792782_1363.png
subject-06,1,880,0.778118133544922,car,car,3,0880_hp_s06_3_car_10_n04285008_3425.png
subject-06,1,881,1.0066351890564,boat,oven,1,0881_hp_s06_1_oven_10_n04111531_15582.png
subject-06,1,882,0.628674030303955,oven,boat,0.45,0882_hp_s06_0.45_boat_10_n03344393_7100.png
subject-06,1,883,1.08911085128784,dog,dog,1.5,0883_hp_s06_1.5_dog_10_n02086910_3247.png
subject-06,1,884,0.749417066574097,cat,cat,3,0884_hp_s06_3_cat_10_n02124075_14659.png
subject-06,1,885,1.00834083557129,dog,dog,1,0885_hp_s06_1_dog_10_n02102040_3099.png
subject-06,1,886,0.822420835494995,chair,chair,3,0886_hp_s06_3_chair_10_n04099969_20895.png
subject-06,1,887,0.821745157241821,car,car,1.5,0887_hp_s06_1.5_car_10_n02814533_2161.png
subject-06,1,888,0.77386999130249,chair,chair,0.7,0888_hp_s06_0.7_chair_10_n04099969_1040.png
subject-06,1,889,0.603985071182251,airplane,airplane,1,0889_hp_s06_1_airplane_10_n02690373_9293.png
subject-06,1,890,0.808429002761841,boat,cat,0.45,0890_hp_s06_0.45_cat_10_n02123597_5111.png
subject-06,1,891,0.568794965744019,clock,cat,0.45,0891_hp_s06_0.45_cat_10_n02123159_3569.png
subject-06,1,892,0.945580959320068,car,car,1,0892_hp_s06_1_car_10_n03100240_2971.png
subject-06,1,893,0.73590612411499,airplane,airplane,1,0893_hp_s06_1_airplane_10_n02690373_283.png
subject-06,1,894,0.658375024795532,cat,cat,1,0894_hp_s06_1_cat_10_n02123045_9476.png
subject-06,1,895,0.595170021057129,boat,boat,1.5,0895_hp_s06_1.5_boat_10_n03344393_7233.png
subject-06,1,896,1.07739114761353,airplane,car,0.45,0896_hp_s06_0.45_car_10_n02814533_20044.png
subject-06,1,897,0.761656999588013,car,car,1,0897_hp_s06_1_car_10_n04285008_7739.png
subject-06,1,898,0.773702144622803,oven,bicycle,0.4,0898_hp_s06_0.4_bicycle_10_n03792782_20028.png
subject-06,1,899,0.566091775894165,boat,clock,0.4,0899_hp_s06_0.4_clock_10_n02708093_6768.png
subject-06,1,900,0.908162117004395,car,knife,0.7,0900_hp_s06_0.7_knife_10_n03041632_3023.png
subject-06,1,901,0.960458993911743,car,bottle,0.7,0901_hp_s06_0.7_bottle_10_n03983396_2689.png
subject-06,1,902,0.982983112335205,bicycle,dog,1.5,0902_hp_s06_1.5_dog_10_n02107908_6573.png
subject-06,1,903,0.865071058273315,boat,boat,inf,0903_hp_s06_inf_boat_10_n03662601_4433.png
subject-06,1,904,0.909631967544556,bottle,bottle,inf,0904_hp_s06_inf_bottle_10_n04560804_8845.png
subject-06,1,905,0.702008962631226,knife,knife,3,0905_hp_s06_3_knife_10_n03041632_27832.png
subject-06,1,906,0.900516986846924,oven,oven,inf,0906_hp_s06_inf_oven_10_n04111531_1970.png
subject-06,1,907,0.798460960388184,boat,dog,0.45,0907_hp_s06_0.45_dog_10_n02099429_80.png
subject-06,1,908,0.696884870529175,clock,dog,0.55,0908_hp_s06_0.55_dog_10_n02094433_24851.png
subject-06,1,909,1.09544706344604,clock,clock,1.5,0909_hp_s06_1.5_clock_10_n03196217_3323.png
subject-06,1,910,0.840208053588867,bottle,bottle,1.5,0910_hp_s06_1.5_bottle_10_n04560804_12422.png
subject-06,1,911,0.938601016998291,bicycle,bicycle,0.7,0911_hp_s06_0.7_bicycle_10_n02835271_7129.png
subject-06,1,912,0.944952964782715,bottle,bottle,3,0912_hp_s06_3_bottle_10_n02823428_10737.png
subject-06,1,913,0.867610931396484,chair,truck,1.5,0913_hp_s06_1.5_truck_10_n03417042_8119.png
subject-06,1,914,0.644094944000244,cat,bear,0.4,0914_hp_s06_0.4_bear_10_n02134418_5491.png
subject-06,1,915,0.948430061340332,airplane,airplane,0.55,0915_hp_s06_0.55_airplane_10_n02690373_5016.png
subject-06,1,916,0.909166097640991,boat,clock,0.4,0916_hp_s06_0.4_clock_10_n04548280_2328.png
subject-06,1,917,0.83092999458313,bear,bear,1.5,0917_hp_s06_1.5_bear_10_n02132136_24476.png
subject-06,1,918,1.30188393592834,airplane,chair,1,0918_hp_s06_1_chair_10_n03376595_16362.png
subject-06,1,919,0.770239114761353,clock,clock,1.5,0919_hp_s06_1.5_clock_10_n02708093_4692.png
subject-06,1,920,1.37664389610291,chair,bottle,0.7,0920_hp_s06_0.7_bottle_10_n02823428_6418.png
subject-06,1,921,0.582780838012695,boat,boat,3,0921_hp_s06_3_boat_10_n04612504_1194.png
subject-06,1,922,0.743206977844238,oven,oven,1,0922_hp_s06_1_oven_10_n04111531_7619.png
subject-06,1,923,1.14184212684631,cat,bear,0.45,0923_hp_s06_0.45_bear_10_n02133161_361.png
subject-06,1,924,0.664093971252441,clock,airplane,0.4,0924_hp_s06_0.4_airplane_10_n02690373_12436.png
subject-06,1,925,0.746761798858643,chair,chair,1.5,0925_hp_s06_1.5_chair_10_n03376595_15439.png
subject-06,1,926,0.721534013748169,keyboard,keyboard,0.7,0926_hp_s06_0.7_keyboard_10_n03085013_24102.png
subject-06,1,927,0.927974939346313,car,oven,0.45,0927_hp_s06_0.45_oven_10_n04111531_4116.png
subject-06,1,928,0.879514932632446,cat,oven,0.55,0928_hp_s06_0.55_oven_10_n04111531_8553.png
subject-06,1,929,0.685709953308105,bear,bear,3,0929_hp_s06_3_bear_10_n02134084_2900.png
subject-06,1,930,1.50000476837158,cat,bear,0.7,0930_hp_s06_0.7_bear_10_n02134084_10517.png
subject-06,1,931,0.764150857925415,bottle,bottle,3,0931_hp_s06_3_bottle_10_n04560804_3128.png
subject-06,1,932,0.562701940536499,cat,cat,0.7,0932_hp_s06_0.7_cat_10_n02124075_9300.png
subject-06,1,933,0.814903020858765,boat,bicycle,0.4,0933_hp_s06_0.4_bicycle_10_n03792782_67327.png
subject-06,1,934,0.89759087562561,bear,bear,1.5,0934_hp_s06_1.5_bear_10_n02134418_5710.png
subject-06,1,935,0.711987018585205,boat,bear,0.45,0935_hp_s06_0.45_bear_10_n02133161_7712.png
subject-06,1,936,0.642480850219727,clock,clock,inf,0936_hp_s06_inf_clock_10_n04548280_6221.png
subject-06,1,937,0.854694843292236,keyboard,keyboard,inf,0937_hp_s06_inf_keyboard_10_n03085013_23239.png
subject-06,1,938,1.00759792327881,bear,bear,1,0938_hp_s06_1_bear_10_n02132136_492.png
subject-06,1,939,1.08413696289062,boat,cat,0.4,0939_hp_s06_0.4_cat_10_n02123045_1812.png
subject-06,1,940,0.612480878829956,oven,oven,1.5,0940_hp_s06_1.5_oven_10_n04111531_7106.png
subject-06,1,941,0.773132801055908,bicycle,bicycle,1.5,0941_hp_s06_1.5_bicycle_10_n02835271_12840.png
subject-06,1,942,0.870563983917236,cat,airplane,0.4,0942_hp_s06_0.4_airplane_10_n02690373_2935.png
subject-06,1,943,0.891268014907837,chair,bicycle,0.55,0943_hp_s06_0.55_bicycle_10_n02835271_6055.png
subject-06,1,944,0.843528985977173,bird,bird,1.5,0944_hp_s06_1.5_bird_10_n01796340_19929.png
subject-06,1,945,0.87425684928894,car,dog,0.4,0945_hp_s06_0.4_dog_10_n02090721_4433.png
subject-06,1,946,0.748569011688232,bird,bird,1,0946_hp_s06_1_bird_10_n01795545_8614.png
subject-06,1,947,0.971166133880615,cat,bear,0.7,0947_hp_s06_0.7_bear_10_n02132136_249.png
subject-06,1,948,1.30579090118408,bicycle,cat,0.55,0948_hp_s06_0.55_cat_10_n02124075_3045.png
subject-06,1,949,0.86639404296875,bottle,bottle,1.5,0949_hp_s06_1.5_bottle_10_n03983396_5886.png
subject-06,1,950,0.596786022186279,clock,clock,3,0950_hp_s06_3_clock_10_n02708093_6967.png
subject-06,1,951,0.840845108032227,chair,car,0.45,0951_hp_s06_0.45_car_10_n03100240_10791.png
subject-06,1,952,0.831448078155518,knife,knife,1.5,0952_hp_s06_1.5_knife_10_n03041632_5427.png
subject-06,1,953,0.56741189956665,boat,boat,inf,0953_hp_s06_inf_boat_10_n04273569_3722.png
subject-06,1,954,1.02822208404541,boat,airplane,0.7,0954_hp_s06_0.7_airplane_10_n02690373_427.png
subject-06,1,955,0.764654159545898,car,car,1,0955_hp_s06_1_car_10_n02814533_62491.png
subject-06,1,956,0.941143035888672,oven,oven,0.45,0956_hp_s06_0.45_oven_10_n04111531_2350.png
subject-06,1,957,0.985426187515259,cat,boat,0.7,0957_hp_s06_0.7_boat_10_n03344393_3278.png
subject-06,1,958,0.883826971054077,clock,clock,0.7,0958_hp_s06_0.7_clock_10_n03196217_4368.png
subject-06,1,959,0.904589176177979,chair,chair,inf,0959_hp_s06_inf_chair_10_n04099969_739.png
subject-06,1,960,1.06500196456909,keyboard,keyboard,0.55,0960_hp_s06_0.55_keyboard_10_n04505470_2427.png
subject-06,1,961,0.848957061767578,boat,boat,inf,0961_hp_s06_inf_boat_10_n03662601_21543.png
subject-06,1,962,0.617304086685181,airplane,airplane,inf,0962_hp_s06_inf_airplane_10_n02690373_1928.png
subject-06,1,963,0.610825061798096,boat,boat,0.45,0963_hp_s06_0.45_boat_10_n03344393_381.png
subject-06,1,964,0.630822896957397,oven,truck,0.45,0964_hp_s06_0.45_truck_10_n03417042_3141.png
subject-06,1,965,0.553555965423584,boat,boat,3,0965_hp_s06_3_boat_10_n02951358_13944.png
subject-06,1,966,0.752324104309082,bird,bird,3,0966_hp_s06_3_bird_10_n01614925_3110.png
subject-06,1,967,0.780315160751343,car,car,0.55,0967_hp_s06_0.55_car_10_n04285008_13223.png
subject-06,1,968,0.581101179122925,cat,clock,0.55,0968_hp_s06_0.55_clock_10_n03196217_2695.png
subject-06,1,969,1.07163596153259,chair,chair,1.5,0969_hp_s06_1.5_chair_10_n04099969_7471.png
subject-06,1,970,0.924028158187866,car,car,0.7,0970_hp_s06_0.7_car_10_n04285008_4760.png
subject-06,1,971,0.830699920654297,truck,oven,1.5,0971_hp_s06_1.5_oven_10_n04111531_1898.png
subject-06,1,972,0.782854080200195,car,knife,0.45,0972_hp_s06_0.45_knife_10_n03041632_10777.png
subject-06,1,973,0.889613151550293,cat,clock,0.4,0973_hp_s06_0.4_clock_10_n03196217_3465.png
subject-06,1,974,0.787881851196289,truck,truck,3,0974_hp_s06_3_truck_10_n03796401_3375.png
subject-06,1,975,1.50005292892456,chair,clock,inf,0975_hp_s06_inf_clock_10_n03196217_6419.png
subject-06,1,976,0.838665008544922,bird,bird,3,0976_hp_s06_3_bird_10_n01855672_7573.png
subject-06,1,977,0.983073949813843,chair,knife,3,0977_hp_s06_3_knife_10_n03041632_25498.png
subject-06,1,978,0.835668087005615,elephant,bear,inf,0978_hp_s06_inf_bear_10_n02132136_7901.png
subject-06,1,979,0.980180025100708,truck,truck,3,0979_hp_s06_3_truck_10_n04467665_68597.png
subject-06,1,980,0.970417976379395,airplane,airplane,0.45,0980_hp_s06_0.45_airplane_10_n02690373_18479.png
subject-06,1,981,0.831082105636597,elephant,elephant,1,0981_hp_s06_1_elephant_10_n02504458_1169.png
subject-06,1,982,1.01385998725891,cat,cat,1,0982_hp_s06_1_cat_10_n02124075_8955.png
subject-06,1,983,1.17396116256714,cat,keyboard,0.4,0983_hp_s06_0.4_keyboard_10_n03085013_23037.png
subject-06,1,984,1.10268306732178,dog,dog,1.5,0984_hp_s06_1.5_dog_10_n02099267_4294.png
subject-06,1,985,0.506227016448975,oven,clock,0.55,0985_hp_s06_0.55_clock_10_n04548280_2227.png
subject-06,1,986,0.802870035171509,oven,elephant,0.55,0986_hp_s06_0.55_elephant_10_n02504013_868.png
subject-06,1,987,0.633217096328735,car,car,0.55,0987_hp_s06_0.55_car_10_n02814533_5947.png
subject-06,1,988,0.69936203956604,truck,truck,3,0988_hp_s06_3_truck_10_n04467665_36463.png
subject-06,1,989,0.760157108306885,clock,clock,3,0989_hp_s06_3_clock_10_n02708093_22.png
subject-06,1,990,0.850332021713257,truck,truck,inf,0990_hp_s06_inf_truck_10_n03796401_7431.png
subject-06,1,991,0.632256031036377,keyboard,keyboard,3,0991_hp_s06_3_keyboard_10_n04505470_7161.png
subject-06,1,992,0.914775133132935,boat,boat,0.7,0992_hp_s06_0.7_boat_10_n03662601_13963.png
subject-06,1,993,0.566956043243408,clock,clock,inf,0993_hp_s06_inf_clock_10_n03196217_7272.png
subject-06,1,994,0.789402961730957,knife,knife,0.7,0994_hp_s06_0.7_knife_10_n03041632_31271.png
subject-06,1,995,0.487573862075806,boat,boat,1,0995_hp_s06_1_boat_10_n03662601_6404.png
subject-06,1,996,0.686347007751465,keyboard,keyboard,inf,0996_hp_s06_inf_keyboard_10_n03085013_6432.png
subject-06,1,997,0.898675918579102,oven,oven,3,0997_hp_s06_3_oven_10_n04111531_4959.png
subject-06,1,998,0.950610876083374,keyboard,keyboard,0.7,0998_hp_s06_0.7_keyboard_10_n04505470_5172.png
subject-06,1,999,0.980835914611816,airplane,bird,0.7,0999_hp_s06_0.7_bird_10_n02025239_16800.png
subject-06,1,1000,0.771299123764038,boat,truck,0.45,1000_hp_s06_0.45_truck_10_n03417042_6298.png
subject-06,1,1001,1.09208297729492,elephant,bottle,0.7,1001_hp_s06_0.7_bottle_10_n04557648_10456.png
subject-06,1,1002,0.798316955566406,boat,airplane,0.55,1002_hp_s06_0.55_airplane_10_n02690373_8515.png
subject-06,1,1003,0.728825092315674,boat,car,0.4,1003_hp_s06_0.4_car_10_n04285008_6527.png
subject-06,1,1004,0.749258041381836,car,clock,0.4,1004_hp_s06_0.4_clock_10_n04548280_503.png
subject-06,1,1005,0.534356117248535,clock,clock,inf,1005_hp_s06_inf_clock_10_n04548280_3503.png
subject-06,1,1006,0.630810976028442,cat,cat,0.7,1006_hp_s06_0.7_cat_10_n02123597_5887.png
subject-06,1,1007,1.22086811065674,keyboard,keyboard,1,1007_hp_s06_1_keyboard_10_n04505470_3961.png
subject-06,1,1008,0.94330096244812,oven,airplane,0.45,1008_hp_s06_0.45_airplane_10_n02690373_8967.png
subject-06,1,1009,0.541676044464111,clock,clock,1.5,1009_hp_s06_1.5_clock_10_n03196217_5214.png
subject-06,1,1010,1.02104783058167,cat,bird,0.7,1010_hp_s06_0.7_bird_10_n01534433_639.png
subject-06,1,1011,1.21897888183594,oven,oven,inf,1011_hp_s06_inf_oven_10_n04111531_3270.png
subject-06,1,1012,0.709474086761475,bear,bear,1,1012_hp_s06_1_bear_10_n02133161_3395.png
subject-06,1,1013,0.685816049575806,boat,knife,0.4,1013_hp_s06_0.4_knife_10_n03041632_12130.png
subject-06,1,1014,1.05206203460693,boat,knife,0.7,1014_hp_s06_0.7_knife_10_n03041632_18236.png
subject-06,1,1015,0.958333015441895,oven,bear,0.55,1015_hp_s06_0.55_bear_10_n02134084_13826.png
subject-06,1,1016,0.819019079208374,chair,boat,0.55,1016_hp_s06_0.55_boat_10_n04612504_16760.png
subject-06,1,1017,0.863362789154053,chair,keyboard,0.4,1017_hp_s06_0.4_keyboard_10_n04505470_4893.png
subject-06,1,1018,0.937624931335449,chair,knife,0.55,1018_hp_s06_0.55_knife_10_n03041632_30248.png
subject-06,1,1019,1.05191993713379,chair,bottle,0.7,1019_hp_s06_0.7_bottle_10_n04560804_17045.png
subject-06,1,1020,0.864696025848389,chair,boat,0.55,1020_hp_s06_0.55_boat_10_n04273569_2274.png
subject-06,1,1021,0.6788170337677,chair,keyboard,0.45,1021_hp_s06_0.45_keyboard_10_n04505470_858.png
subject-06,1,1022,0.830826044082642,cat,chair,0.7,1022_hp_s06_0.7_chair_10_n04099969_43.png
subject-06,1,1023,0.62139892578125,cat,cat,1.5,1023_hp_s06_1.5_cat_10_n02123159_635.png
subject-06,1,1024,0.71189022064209,cat,oven,1,1024_hp_s06_1_oven_10_n04111531_9695.png
subject-06,1,1025,1.03952288627625,boat,truck,0.45,1025_hp_s06_0.45_truck_10_n03417042_25753.png
subject-06,1,1026,1.30786395072937,cat,knife,3,1026_hp_s06_3_knife_10_n03041632_9256.png
subject-06,1,1027,1.38227701187134,chair,bottle,inf,1027_hp_s06_inf_bottle_10_n04557648_7601.png
subject-06,1,1028,0.642674922943115,car,car,1.5,1028_hp_s06_1.5_car_10_n02814533_330.png
subject-06,1,1029,0.700385093688965,oven,bottle,0.4,1029_hp_s06_0.4_bottle_10_n04560804_7255.png
subject-06,1,1030,0.622704029083252,cat,cat,inf,1030_hp_s06_inf_cat_10_n02125311_26209.png
subject-06,1,1031,0.921111106872559,clock,clock,1.5,1031_hp_s06_1.5_clock_10_n03196217_8282.png
subject-06,1,1032,0.827880144119263,boat,clock,0.45,1032_hp_s06_0.45_clock_10_n02708093_6745.png
subject-06,1,1033,1.03213381767273,car,clock,0.45,1033_hp_s06_0.45_clock_10_n04548280_9752.png
subject-06,1,1034,1.06225180625916,bird,chair,1,1034_hp_s06_1_chair_10_n04099969_36602.png
subject-06,1,1035,0.80645489692688,cat,cat,1.5,1035_hp_s06_1.5_cat_10_n02123597_619.png
subject-06,1,1036,1.34898495674133,boat,truck,0.55,1036_hp_s06_0.55_truck_10_n03796401_9455.png
subject-06,1,1037,1.00962400436401,oven,car,1.5,1037_hp_s06_1.5_car_10_n03100240_9264.png
subject-06,1,1038,0.770161867141724,car,car,0.7,1038_hp_s06_0.7_car_10_n03100240_17973.png
subject-06,1,1039,0.884683132171631,bird,elephant,0.7,1039_hp_s06_0.7_elephant_10_n02504458_5008.png
subject-06,1,1040,1.00462198257446,dog,dog,1,1040_hp_s06_1_dog_10_n02095570_3517.png
subject-06,1,1041,0.910849094390869,cat,oven,0.55,1041_hp_s06_0.55_oven_10_n04111531_21176.png
subject-06,1,1042,0.922889947891235,bottle,elephant,0.4,1042_hp_s06_0.4_elephant_10_n02504458_6058.png
subject-06,1,1043,0.705533981323242,knife,knife,3,1043_hp_s06_3_knife_10_n03041632_31909.png
subject-06,1,1044,0.92782998085022,oven,car,0.45,1044_hp_s06_0.45_car_10_n03100240_4343.png
subject-06,1,1045,1.26928114891052,cat,bicycle,1,1045_hp_s06_1_bicycle_10_n03792782_15679.png
subject-06,1,1046,0.813565969467163,clock,clock,3,1046_hp_s06_3_clock_10_n04548280_1945.png
subject-06,1,1047,0.919658899307251,cat,bird,0.7,1047_hp_s06_0.7_bird_10_n01537544_9815.png
subject-06,1,1048,0.664107084274292,bottle,bottle,3,1048_hp_s06_3_bottle_10_n04591713_5249.png
subject-06,1,1049,0.930731058120728,chair,bear,0.45,1049_hp_s06_0.45_bear_10_n02134418_5639.png
subject-06,1,1050,0.891267061233521,elephant,elephant,inf,1050_hp_s06_inf_elephant_10_n02504013_874.png
subject-06,1,1051,0.867743968963623,airplane,airplane,0.7,1051_hp_s06_0.7_airplane_10_n02690373_19345.png
subject-06,1,1052,0.642321109771729,car,car,0.7,1052_hp_s06_0.7_car_10_n02814533_18458.png
subject-06,1,1053,0.778940916061401,car,car,inf,1053_hp_s06_inf_car_10_n03100240_13842.png
subject-06,1,1054,1.3992919921875,cat,chair,1.5,1054_hp_s06_1.5_chair_10_n04099969_1814.png
subject-06,1,1055,0.807693004608154,clock,clock,0.55,1055_hp_s06_0.55_clock_10_n02708093_3525.png
subject-06,1,1056,1.05823087692261,bicycle,oven,0.45,1056_hp_s06_0.45_oven_10_n04111531_22834.png
subject-06,1,1057,0.918347120285034,bottle,bottle,inf,1057_hp_s06_inf_bottle_10_n04560804_1255.png
subject-06,1,1058,0.76214599609375,boat,airplane,1,1058_hp_s06_1_airplane_10_n02690373_1946.png
