subj,session,trial,rt,object_response,category,condition,imagename
subject-03,1,1,1.23924899101257,bird,bird,inf,0001_hp_s03_inf_bird_10_n02002724_2598.png
subject-03,1,2,NaN,na,boat,3,0002_hp_s03_3_boat_10_n03344393_6999.png
subject-03,1,3,1.07588005065918,boat,boat,0.45,0003_hp_s03_0.45_boat_10_n03344393_318.png
subject-03,1,4,1.16840982437134,clock,clock,1,0004_hp_s03_1_clock_10_n04548280_7639.png
subject-03,1,5,1.17646193504333,bird,bird,0.7,0005_hp_s03_0.7_bird_10_n02025239_11176.png
subject-03,1,6,1.41271305084229,oven,oven,0.7,0006_hp_s03_0.7_oven_10_n04111531_3555.png
subject-03,1,7,0.805048942565918,car,car,3,0007_hp_s03_3_car_10_n03100240_18745.png
subject-03,1,8,1.21114301681519,cat,bicycle,0.4,0008_hp_s03_0.4_bicycle_10_n03792782_4251.png
subject-03,1,9,1.38142919540405,bottle,oven,0.55,0009_hp_s03_0.55_oven_10_n04111531_3570.png
subject-03,1,10,1.08754801750183,bird,bird,inf,0010_hp_s03_inf_bird_10_n01582220_5092.png
subject-03,1,11,1.10170102119446,chair,chair,0.7,0011_hp_s03_0.7_chair_10_n04099969_141.png
subject-03,1,12,1.17229104042053,bottle,bicycle,0.7,0012_hp_s03_0.7_bicycle_10_n02835271_10947.png
subject-03,1,13,1.43276882171631,bird,bird,3,0013_hp_s03_3_bird_10_n02051845_555.png
subject-03,1,14,1.04636192321777,oven,truck,0.55,0014_hp_s03_0.55_truck_10_n03417042_8518.png
subject-03,1,15,0.852660894393921,clock,clock,1,0015_hp_s03_1_clock_10_n03196217_5888.png
subject-03,1,16,1.29931497573853,dog,dog,inf,0016_hp_s03_inf_dog_10_n02110627_17528.png
subject-03,1,17,1.27580094337463,cat,bicycle,0.55,0017_hp_s03_0.55_bicycle_10_n02835271_5199.png
subject-03,1,18,1.47637581825256,bicycle,boat,0.7,0018_hp_s03_0.7_boat_10_n04273569_13187.png
subject-03,1,19,1.08235192298889,bird,bird,inf,0019_hp_s03_inf_bird_10_n01592084_2306.png
subject-03,1,20,1.09036612510681,boat,boat,1.5,0020_hp_s03_1.5_boat_10_n03662601_20110.png
subject-03,1,21,1.41524410247803,car,boat,3,0021_hp_s03_3_boat_10_n02951358_11283.png
subject-03,1,22,1.27771019935608,boat,oven,0.7,0022_hp_s03_0.7_oven_10_n04111531_10102.png
subject-03,1,23,1.34595394134521,bird,elephant,0.55,0023_hp_s03_0.55_elephant_10_n02504458_7565.png
subject-03,1,24,1.08439421653748,elephant,elephant,inf,0024_hp_s03_inf_elephant_10_n02504458_3205.png
subject-03,1,25,1.01496195793152,truck,truck,inf,0025_hp_s03_inf_truck_10_n04467665_30588.png
subject-03,1,26,0.936814785003662,keyboard,keyboard,1.5,0026_hp_s03_1.5_keyboard_10_n03085013_29396.png
subject-03,1,27,1.08932685852051,elephant,elephant,1.5,0027_hp_s03_1.5_elephant_10_n02504458_1652.png
subject-03,1,28,1.48776483535767,dog,bear,1,0028_hp_s03_1_bear_10_n02133161_5098.png
subject-03,1,29,1.29590606689453,bird,airplane,0.4,0029_hp_s03_0.4_airplane_10_n02690373_19666.png
subject-03,1,30,1.23440408706665,boat,airplane,0.55,0030_hp_s03_0.55_airplane_10_n02690373_4128.png
subject-03,1,31,1.50025391578674,chair,boat,inf,0031_hp_s03_inf_boat_10_n02951358_30236.png
subject-03,1,32,1.48463582992554,cat,bear,3,0032_hp_s03_3_bear_10_n02133161_1159.png
subject-03,1,33,0.847549915313721,car,car,inf,0033_hp_s03_inf_car_10_n03100240_7697.png
subject-03,1,34,1.09187388420105,boat,airplane,3,0034_hp_s03_3_airplane_10_n02690373_4979.png
subject-03,1,35,1.30816006660461,cat,elephant,0.7,0035_hp_s03_0.7_elephant_10_n02504458_5849.png
subject-03,1,36,1.39842200279236,clock,chair,0.45,0036_hp_s03_0.45_chair_10_n02791124_5501.png
subject-03,1,37,1.21281909942627,chair,chair,inf,0037_hp_s03_inf_chair_10_n04429376_19175.png
subject-03,1,38,NaN,na,truck,0.45,0038_hp_s03_0.45_truck_10_n04467665_5951.png
subject-03,1,39,1.14376711845398,boat,truck,0.55,0039_hp_s03_0.55_truck_10_n03417042_13223.png
subject-03,1,40,0.898422956466675,car,bicycle,0.55,0040_hp_s03_0.55_bicycle_10_n02835271_22061.png
subject-03,1,41,1.23453307151794,chair,dog,1.5,0041_hp_s03_1.5_dog_10_n02112018_4910.png
subject-03,1,42,0.888873100280762,knife,knife,inf,0042_hp_s03_inf_knife_10_n03041632_36235.png
subject-03,1,43,1.1413049697876,clock,boat,0.45,0043_hp_s03_0.45_boat_10_n03344393_2052.png
subject-03,1,44,NaN,na,oven,1.5,0044_hp_s03_1.5_oven_10_n04111531_1778.png
subject-03,1,45,1.15362191200256,boat,bottle,0.45,0045_hp_s03_0.45_bottle_10_n03983396_9794.png
subject-03,1,46,NaN,na,airplane,0.4,0046_hp_s03_0.4_airplane_10_n02690373_2823.png
subject-03,1,47,1.09789419174194,boat,boat,1.5,0047_hp_s03_1.5_boat_10_n04273569_15674.png
subject-03,1,48,1.37429404258728,bird,bear,0.7,0048_hp_s03_0.7_bear_10_n02133161_15299.png
subject-03,1,49,1.32068085670471,chair,bird,0.7,0049_hp_s03_0.7_bird_10_n01531178_19175.png
subject-03,1,50,1.2810218334198,cat,bird,0.45,0050_hp_s03_0.45_bird_10_n01820546_27.png
subject-03,1,51,1.02748203277588,car,car,1,0051_hp_s03_1_car_10_n04285008_14334.png
subject-03,1,52,0.850126028060913,airplane,airplane,1,0052_hp_s03_1_airplane_10_n02690373_4860.png
subject-03,1,53,NaN,na,airplane,0.55,0053_hp_s03_0.55_airplane_10_n02690373_9848.png
subject-03,1,54,NaN,na,airplane,0.4,0054_hp_s03_0.4_airplane_10_n02690373_4440.png
subject-03,1,55,1.0548779964447,knife,knife,1.5,0055_hp_s03_1.5_knife_10_n03041632_12707.png
subject-03,1,56,0.999362945556641,chair,elephant,0.7,0056_hp_s03_0.7_elephant_10_n02504013_6376.png
subject-03,1,57,1.06278800964355,airplane,airplane,1,0057_hp_s03_1_airplane_10_n02690373_3728.png
subject-03,1,58,1.37727880477905,keyboard,bicycle,3,0058_hp_s03_3_bicycle_10_n02835271_7638.png
subject-03,1,59,1.28362202644348,bird,bird,inf,0059_hp_s03_inf_bird_10_n01818515_9624.png
subject-03,1,60,1.01448607444763,oven,keyboard,0.45,0060_hp_s03_0.45_keyboard_10_n03085013_8579.png
subject-03,1,61,1.15231323242188,bird,bird,3,0061_hp_s03_3_bird_10_n02009229_6068.png
subject-03,1,62,1.38055396080017,dog,bear,inf,0062_hp_s03_inf_bear_10_n02134418_9485.png
subject-03,1,63,NaN,na,truck,0.45,0063_hp_s03_0.45_truck_10_n03417042_4647.png
subject-03,1,64,1.24313282966614,truck,truck,3,0064_hp_s03_3_truck_10_n03417042_15078.png
subject-03,1,65,NaN,na,bear,0.4,0065_hp_s03_0.4_bear_10_n02133161_1585.png
subject-03,1,66,1.24786400794983,oven,truck,1.5,0066_hp_s03_1.5_truck_10_n03417042_9240.png
subject-03,1,67,0.894108057022095,cat,dog,0.7,0067_hp_s03_0.7_dog_10_n02112018_2141.png
subject-03,1,68,NaN,na,bicycle,0.45,0068_hp_s03_0.45_bicycle_10_n02835271_21636.png
subject-03,1,69,1.46089315414429,cat,bird,1.5,0069_hp_s03_1.5_bird_10_n01531178_4779.png
subject-03,1,70,1.1214280128479,clock,clock,1.5,0070_hp_s03_1.5_clock_10_n02708093_870.png
subject-03,1,71,0.921869993209839,knife,knife,1,0071_hp_s03_1_knife_10_n03041632_26405.png
subject-03,1,72,NaN,na,keyboard,0.4,0072_hp_s03_0.4_keyboard_10_n03085013_22839.png
subject-03,1,73,1.03711891174316,cat,dog,0.4,0073_hp_s03_0.4_dog_10_n02109525_13410.png
subject-03,1,74,1.25966501235962,bottle,chair,0.7,0074_hp_s03_0.7_chair_10_n04099969_5088.png
subject-03,1,75,NaN,na,airplane,3,0075_hp_s03_3_airplane_10_n02690373_971.png
subject-03,1,76,1.50013995170593,bird,cat,1.5,0076_hp_s03_1.5_cat_10_n02125311_16840.png
subject-03,1,77,0.881731033325195,cat,cat,inf,0077_hp_s03_inf_cat_10_n02124075_8093.png
subject-03,1,78,1.31829690933228,bird,bird,0.45,0078_hp_s03_0.45_bird_10_n01860187_1229.png
subject-03,1,79,0.986579895019531,cat,airplane,0.4,0079_hp_s03_0.4_airplane_10_n02690373_1986.png
subject-03,1,80,1.34710288047791,dog,dog,0.4,0080_hp_s03_0.4_dog_10_n02093256_12981.png
subject-03,1,81,NaN,na,boat,0.4,0081_hp_s03_0.4_boat_10_n02951358_31813.png
subject-03,1,82,1.19993495941162,oven,knife,1,0082_hp_s03_1_knife_10_n03041632_99799.png
subject-03,1,83,1.4359290599823,dog,bear,1.5,0083_hp_s03_1.5_bear_10_n02134418_71.png
subject-03,1,84,1.27431297302246,truck,truck,3,0084_hp_s03_3_truck_10_n03417042_23566.png
subject-03,1,85,NaN,na,cat,1.5,0085_hp_s03_1.5_cat_10_n02124075_2903.png
subject-03,1,86,0.989341020584106,oven,chair,3,0086_hp_s03_3_chair_10_n02791124_2610.png
subject-03,1,87,NaN,na,elephant,1,0087_hp_s03_1_elephant_10_n02504013_6048.png
subject-03,1,88,0.964204072952271,bicycle,bicycle,3,0088_hp_s03_3_bicycle_10_n02835271_12957.png
subject-03,1,89,0.994548082351685,car,car,3,0089_hp_s03_3_car_10_n02814533_8306.png
subject-03,1,90,1.20062899589539,cat,cat,3,0090_hp_s03_3_cat_10_n02123159_11443.png
subject-03,1,91,0.876706838607788,oven,bicycle,0.55,0091_hp_s03_0.55_bicycle_10_n02835271_5678.png
subject-03,1,92,NaN,na,bicycle,3,0092_hp_s03_3_bicycle_10_n02835271_9623.png
subject-03,1,93,0.857348918914795,bottle,bottle,3,0093_hp_s03_3_bottle_10_n04557648_11729.png
subject-03,1,94,1.21784996986389,cat,car,0.7,0094_hp_s03_0.7_car_10_n03100240_11614.png
subject-03,1,95,NaN,na,bottle,0.45,0095_hp_s03_0.45_bottle_10_n04591713_5201.png
subject-03,1,96,0.910868883132935,oven,car,0.4,0096_hp_s03_0.4_car_10_n02814533_49142.png
subject-03,1,97,NaN,na,bear,0.55,0097_hp_s03_0.55_bear_10_n02134418_4670.png
subject-03,1,98,1.13179802894592,oven,keyboard,1,0098_hp_s03_1_keyboard_10_n03085013_23596.png
subject-03,1,99,1.2294750213623,boat,airplane,0.7,0099_hp_s03_0.7_airplane_10_n02690373_9404.png
subject-03,1,100,1.06538200378418,car,car,3,0100_hp_s03_3_car_10_n02814533_36330.png
subject-03,1,101,1.47233891487122,car,boat,1,0101_hp_s03_1_boat_10_n03344393_5532.png
subject-03,1,102,0.972670078277588,oven,knife,3,0102_hp_s03_3_knife_10_n03041632_43975.png
subject-03,1,103,1.14904499053955,cat,bird,0.45,0103_hp_s03_0.45_bird_10_n01795545_1191.png
subject-03,1,104,0.947724103927612,bottle,bottle,1,0104_hp_s03_1_bottle_10_n04557648_9282.png
subject-03,1,105,1.23219203948975,oven,knife,0.55,0105_hp_s03_0.55_knife_10_n03041632_126.png
subject-03,1,106,1.19253706932068,boat,bird,0.7,0106_hp_s03_0.7_bird_10_n02027492_7353.png
subject-03,1,107,0.792862892150879,bicycle,bicycle,3,0107_hp_s03_3_bicycle_10_n03792782_67167.png
subject-03,1,108,1.39963984489441,clock,dog,0.4,0108_hp_s03_0.4_dog_10_n02102973_6609.png
subject-03,1,109,1.31392502784729,elephant,dog,1.5,0109_hp_s03_1.5_dog_10_n02098286_390.png
subject-03,1,110,1.39076495170593,oven,keyboard,0.45,0110_hp_s03_0.45_keyboard_10_n03085013_5812.png
subject-03,1,111,NaN,na,car,1.5,0111_hp_s03_1.5_car_10_n02814533_39792.png
subject-03,1,112,1.21054911613464,cat,dog,0.55,0112_hp_s03_0.55_dog_10_n02105056_2948.png
subject-03,1,113,0.762201070785522,bottle,chair,3,0113_hp_s03_3_chair_10_n02791124_4977.png
subject-03,1,114,0.830999851226807,boat,boat,inf,0114_hp_s03_inf_boat_10_n03662601_34922.png
subject-03,1,115,1.01526999473572,car,car,1,0115_hp_s03_1_car_10_n03100240_17768.png
subject-03,1,116,1.24399495124817,bird,bird,3,0116_hp_s03_3_bird_10_n01818515_7665.png
subject-03,1,117,1.1963198184967,bottle,chair,0.55,0117_hp_s03_0.55_chair_10_n02791124_1770.png
subject-03,1,118,1.10478496551514,oven,cat,0.4,0118_hp_s03_0.4_cat_10_n02123597_6721.png
subject-03,1,119,1.31145596504211,clock,car,0.45,0119_hp_s03_0.45_car_10_n02814533_6626.png
subject-03,1,120,1.45538401603699,car,chair,1,0120_hp_s03_1_chair_10_n04099969_43109.png
subject-03,1,121,1.11584711074829,dog,dog,inf,0121_hp_s03_inf_dog_10_n02087394_7495.png
subject-03,1,122,1.00802397727966,cat,cat,1,0122_hp_s03_1_cat_10_n02124075_9659.png
subject-03,1,123,1.29048085212708,bird,elephant,0.45,0123_hp_s03_0.45_elephant_10_n02504458_1715.png
subject-03,1,124,0.790717124938965,knife,knife,1.5,0124_hp_s03_1.5_knife_10_n03041632_40450.png
subject-03,1,125,1.22681307792664,clock,knife,0.7,0125_hp_s03_0.7_knife_10_n03041632_206.png
subject-03,1,126,NaN,na,cat,1,0126_hp_s03_1_cat_10_n02123159_5947.png
subject-03,1,127,0.876843929290771,airplane,airplane,inf,0127_hp_s03_inf_airplane_10_n02690373_18845.png
subject-03,1,128,0.945127010345459,cat,oven,1,0128_hp_s03_1_oven_10_n04111531_16670.png
subject-03,1,129,1.50040912628174,boat,bicycle,0.55,0129_hp_s03_0.55_bicycle_10_n03792782_4382.png
subject-03,1,130,1.50016713142395,keyboard,airplane,0.55,0130_hp_s03_0.55_airplane_10_n02690373_19646.png
subject-03,1,131,1.20431900024414,oven,keyboard,0.4,0131_hp_s03_0.4_keyboard_10_n03085013_23445.png
subject-03,1,132,1.21870493888855,bird,cat,0.7,0132_hp_s03_0.7_cat_10_n02123159_2644.png
subject-03,1,133,1.10329580307007,oven,chair,1.5,0133_hp_s03_1.5_chair_10_n02791124_4938.png
subject-03,1,134,1.13168001174927,car,truck,1.5,0134_hp_s03_1.5_truck_10_n03417042_7013.png
subject-03,1,135,1.08634495735168,bird,bird,1,0135_hp_s03_1_bird_10_n01795545_8614.png
subject-03,1,136,NaN,na,chair,0.7,0136_hp_s03_0.7_chair_10_n02791124_6390.png
subject-03,1,137,NaN,na,bird,1.5,0137_hp_s03_1.5_bird_10_n02007558_9933.png
subject-03,1,138,1.22668290138245,knife,bicycle,1.5,0138_hp_s03_1.5_bicycle_10_n03792782_19985.png
subject-03,1,139,1.09562397003174,oven,oven,0.55,0139_hp_s03_0.55_oven_10_n04111531_18223.png
subject-03,1,140,NaN,na,boat,1.5,0140_hp_s03_1.5_boat_10_n03344393_7352.png
subject-03,1,141,1.06957817077637,clock,bird,0.45,0141_hp_s03_0.45_bird_10_n01843383_9016.png
subject-03,1,142,0.991935968399048,oven,dog,1.5,0142_hp_s03_1.5_dog_10_n02102040_43.png
subject-03,1,143,1.26064705848694,bird,oven,0.4,0143_hp_s03_0.4_oven_10_n04111531_14280.png
subject-03,1,144,1.20490193367004,elephant,elephant,1,0144_hp_s03_1_elephant_10_n02504458_3197.png
subject-03,1,145,1.4034149646759,oven,bird,0.55,0145_hp_s03_0.55_bird_10_n01537544_9132.png
subject-03,1,146,1.40005016326904,cat,oven,1.5,0146_hp_s03_1.5_oven_10_n04111531_4809.png
subject-03,1,147,1.04453301429749,elephant,elephant,1.5,0147_hp_s03_1.5_elephant_10_n02504458_365.png
subject-03,1,148,1.36726117134094,bird,bird,1,0148_hp_s03_1_bird_10_n02002556_17013.png
subject-03,1,149,1.12749004364014,keyboard,keyboard,inf,0149_hp_s03_inf_keyboard_10_n04505470_4807.png
subject-03,1,150,1.47196412086487,bottle,bottle,0.45,0150_hp_s03_0.45_bottle_10_n04591713_1594.png
subject-03,1,151,1.03204703330994,oven,oven,0.7,0151_hp_s03_0.7_oven_10_n04111531_5351.png
subject-03,1,152,NaN,na,bird,0.45,0152_hp_s03_0.45_bird_10_n01514859_3103.png
subject-03,1,153,1.43844699859619,bird,cat,1.5,0153_hp_s03_1.5_cat_10_n02123394_3166.png
subject-03,1,154,NaN,na,airplane,0.45,0154_hp_s03_0.45_airplane_10_n02690373_1469.png
subject-03,1,155,0.997426986694336,cat,oven,0.55,0155_hp_s03_0.55_oven_10_n04111531_4826.png
subject-03,1,156,1.24422216415405,bird,cat,inf,0156_hp_s03_inf_cat_10_n02123045_4842.png
subject-03,1,157,1.1262731552124,oven,boat,0.45,0157_hp_s03_0.45_boat_10_n03344393_8799.png
subject-03,1,158,0.926705837249756,truck,truck,inf,0158_hp_s03_inf_truck_10_n03417042_12906.png
subject-03,1,159,0.963786125183105,keyboard,keyboard,1,0159_hp_s03_1_keyboard_10_n04505470_4723.png
subject-03,1,160,1.22452116012573,cat,bird,3,0160_hp_s03_3_bird_10_n02002556_4116.png
subject-03,1,161,1.20718288421631,boat,boat,1,0161_hp_s03_1_boat_10_n03344393_10246.png
subject-03,1,162,1.2214469909668,cat,bicycle,0.55,0162_hp_s03_0.55_bicycle_10_n02835271_12131.png
subject-03,1,163,0.851709842681885,knife,knife,inf,0163_hp_s03_inf_knife_10_n03041632_14766.png
subject-03,1,164,0.998459100723267,car,car,0.55,0164_hp_s03_0.55_car_10_n03100240_6626.png
subject-03,1,165,1.4568338394165,cat,bottle,inf,0165_hp_s03_inf_bottle_10_n04560804_283.png
subject-03,1,166,1.3871021270752,chair,oven,1.5,0166_hp_s03_1.5_oven_10_n04111531_14435.png
subject-03,1,167,1.14799189567566,cat,clock,0.45,0167_hp_s03_0.45_clock_10_n04548280_2283.png
subject-03,1,168,1.39135694503784,dog,cat,3,0168_hp_s03_3_cat_10_n02123159_3548.png
subject-03,1,169,0.984138965606689,airplane,airplane,0.55,0169_hp_s03_0.55_airplane_10_n02690373_8631.png
subject-03,1,170,0.843722820281982,cat,cat,1.5,0170_hp_s03_1.5_cat_10_n02123159_3265.png
subject-03,1,171,0.833892107009888,truck,truck,3,0171_hp_s03_3_truck_10_n04467665_45016.png
subject-03,1,172,1.24006319046021,oven,oven,1.5,0172_hp_s03_1.5_oven_10_n04111531_2797.png
subject-03,1,173,1.48975396156311,bear,bear,3,0173_hp_s03_3_bear_10_n02133161_9142.png
subject-03,1,174,1.45804190635681,boat,knife,0.7,0174_hp_s03_0.7_knife_10_n03041632_55083.png
subject-03,1,175,1.05608201026917,cat,clock,0.4,0175_hp_s03_0.4_clock_10_n03196217_2201.png
subject-03,1,176,1.46187496185303,cat,chair,inf,0176_hp_s03_inf_chair_10_n03376595_19406.png
subject-03,1,177,1.06012916564941,oven,clock,0.55,0177_hp_s03_0.55_clock_10_n04548280_4995.png
subject-03,1,178,1.47850203514099,dog,bear,3,0178_hp_s03_3_bear_10_n02133161_12354.png
subject-03,1,179,1.13875985145569,bird,car,0.45,0179_hp_s03_0.45_car_10_n03100240_362.png
subject-03,1,180,0.852921009063721,cat,cat,1,0180_hp_s03_1_cat_10_n02123045_5775.png
subject-03,1,181,NaN,na,bottle,0.4,0181_hp_s03_0.4_bottle_10_n04557648_2501.png
subject-03,1,182,1.05748105049133,bird,bird,inf,0182_hp_s03_inf_bird_10_n01514859_12308.png
subject-03,1,183,1.01772308349609,oven,keyboard,0.7,0183_hp_s03_0.7_keyboard_10_n04505470_1978.png
subject-03,1,184,1.33231902122498,cat,chair,0.45,0184_hp_s03_0.45_chair_10_n04429376_5159.png
subject-03,1,185,NaN,na,boat,0.4,0185_hp_s03_0.4_boat_10_n04612504_38516.png
subject-03,1,186,1.50010395050049,oven,dog,1,0186_hp_s03_1_dog_10_n02108422_836.png
subject-03,1,187,1.21853399276733,clock,chair,0.4,0187_hp_s03_0.4_chair_10_n04099969_3382.png
subject-03,1,188,1.2252790927887,car,car,inf,0188_hp_s03_inf_car_10_n04285008_1573.png
subject-03,1,189,1.25336098670959,cat,bird,1.5,0189_hp_s03_1.5_bird_10_n02002556_10558.png
subject-03,1,190,1.20563197135925,cat,clock,0.55,0190_hp_s03_0.55_clock_10_n02708093_3218.png
subject-03,1,191,1.03614115715027,oven,clock,0.7,0191_hp_s03_0.7_clock_10_n03196217_1258.png
subject-03,1,192,1.50027418136597,bird,clock,0.7,0192_hp_s03_0.7_clock_10_n04548280_6388.png
subject-03,1,193,1.49212598800659,cat,dog,0.4,0193_hp_s03_0.4_dog_10_n02094114_4507.png
subject-03,1,194,NaN,na,bicycle,1,0194_hp_s03_1_bicycle_10_n02835271_2393.png
subject-03,1,195,0.982784986495972,clock,clock,0.55,0195_hp_s03_0.55_clock_10_n04548280_2989.png
subject-03,1,196,0.965257167816162,keyboard,keyboard,inf,0196_hp_s03_inf_keyboard_10_n04505470_650.png
subject-03,1,197,0.741464138031006,car,car,1.5,0197_hp_s03_1.5_car_10_n03100240_18019.png
subject-03,1,198,NaN,na,dog,3,0198_hp_s03_3_dog_10_n02097298_6519.png
subject-03,1,199,1.1679379940033,oven,elephant,0.7,0199_hp_s03_0.7_elephant_10_n02504458_3762.png
subject-03,1,200,1.30426788330078,keyboard,bottle,0.7,0200_hp_s03_0.7_bottle_10_n04591713_4982.png
subject-03,1,201,1.32648611068726,clock,boat,0.7,0201_hp_s03_0.7_boat_10_n04612504_1145.png
subject-03,1,202,0.986896991729736,cat,car,0.4,0202_hp_s03_0.4_car_10_n04285008_2395.png
subject-03,1,203,1.45360493659973,clock,bottle,1.5,0203_hp_s03_1.5_bottle_10_n03983396_4321.png
subject-03,1,204,1.1622531414032,truck,truck,inf,0204_hp_s03_inf_truck_10_n04467665_32776.png
subject-03,1,205,1.21475410461426,bicycle,bicycle,inf,0205_hp_s03_inf_bicycle_10_n03792782_9174.png
subject-03,1,206,1.47517991065979,bird,dog,1,0206_hp_s03_1_dog_10_n02110958_7947.png
subject-03,1,207,0.897326946258545,cat,bear,3,0207_hp_s03_3_bear_10_n02134418_5132.png
subject-03,1,208,1.29367089271545,boat,cat,0.4,0208_hp_s03_0.4_cat_10_n02123045_463.png
subject-03,1,209,0.886141061782837,cat,bear,0.55,0209_hp_s03_0.55_bear_10_n02134084_15739.png
subject-03,1,210,1.50028491020203,boat,boat,1,0210_hp_s03_1_boat_10_n02951358_34760.png
subject-03,1,211,1.3670859336853,oven,bicycle,0.4,0211_hp_s03_0.4_bicycle_10_n03792782_8287.png
subject-03,1,212,1.50033092498779,oven,bottle,0.7,0212_hp_s03_0.7_bottle_10_n04579145_2190.png
subject-03,1,213,1.2556209564209,boat,cat,0.55,0213_hp_s03_0.55_cat_10_n02123045_377.png
subject-03,1,214,1.16919612884521,car,chair,0.7,0214_hp_s03_0.7_chair_10_n02791124_15756.png
subject-03,1,215,1.15117383003235,airplane,airplane,1,0215_hp_s03_1_airplane_10_n02690373_4586.png
subject-03,1,216,1.02720999717712,keyboard,keyboard,1,0216_hp_s03_1_keyboard_10_n04505470_6327.png
subject-03,1,217,1.10978412628174,oven,bird,0.55,0217_hp_s03_0.55_bird_10_n02009912_20078.png
subject-03,1,218,NaN,na,cat,inf,0218_hp_s03_inf_cat_10_n02123394_3318.png
subject-03,1,219,1.00572800636292,keyboard,keyboard,1.5,0219_hp_s03_1.5_keyboard_10_n03085013_25800.png
subject-03,1,220,1.29609203338623,knife,chair,0.7,0220_hp_s03_0.7_chair_10_n03376595_5421.png
subject-03,1,221,NaN,na,elephant,0.45,0221_hp_s03_0.45_elephant_10_n02504458_743.png
subject-03,1,222,1.46870899200439,boat,bottle,0.55,0222_hp_s03_0.55_bottle_10_n03983396_2114.png
subject-03,1,223,1.49116802215576,boat,cat,0.55,0223_hp_s03_0.55_cat_10_n02125311_23812.png
subject-03,1,224,1.23758506774902,chair,chair,0.7,0224_hp_s03_0.7_chair_10_n02791124_3671.png
subject-03,1,225,1.24181795120239,oven,elephant,1.5,0225_hp_s03_1.5_elephant_10_n02504458_337.png
subject-03,1,226,1.26445007324219,bird,cat,1,0226_hp_s03_1_cat_10_n02123159_259.png
subject-03,1,227,1.30066990852356,keyboard,airplane,1,0227_hp_s03_1_airplane_10_n02690373_8560.png
subject-03,1,228,1.26100206375122,bird,truck,0.55,0228_hp_s03_0.55_truck_10_n04467665_79143.png
subject-03,1,229,1.44301509857178,airplane,knife,1,0229_hp_s03_1_knife_10_n03041632_48071.png
subject-03,1,230,1.21165204048157,cat,bear,0.7,0230_hp_s03_0.7_bear_10_n02134418_363.png
subject-03,1,231,1.37178111076355,boat,car,0.45,0231_hp_s03_0.45_car_10_n03100240_7568.png
subject-03,1,232,1.22988796234131,car,knife,0.55,0232_hp_s03_0.55_knife_10_n03041632_3159.png
subject-03,1,233,1.30648589134216,car,car,3,0233_hp_s03_3_car_10_n03100240_7257.png
subject-03,1,234,1.2889518737793,bird,bird,0.55,0234_hp_s03_0.55_bird_10_n02056570_3406.png
subject-03,1,235,1.04857087135315,cat,dog,0.7,0235_hp_s03_0.7_dog_10_n02100236_9744.png
subject-03,1,236,1.33107900619507,boat,bicycle,0.45,0236_hp_s03_0.45_bicycle_10_n02835271_1222.png
subject-03,1,237,1.38324809074402,bottle,bird,0.55,0237_hp_s03_0.55_bird_10_n02006656_6934.png
subject-03,1,238,1.21990180015564,chair,oven,3,0238_hp_s03_3_oven_10_n04111531_9910.png
subject-03,1,239,1.25037884712219,airplane,airplane,0.7,0239_hp_s03_0.7_airplane_10_n02690373_9266.png
subject-03,1,240,1.42442798614502,bicycle,dog,1.5,0240_hp_s03_1.5_dog_10_n02101556_840.png
subject-03,1,241,1.09296202659607,boat,bottle,0.4,0241_hp_s03_0.4_bottle_10_n04557648_33.png
subject-03,1,242,1.23721218109131,cat,knife,0.55,0242_hp_s03_0.55_knife_10_n03041632_23546.png
subject-03,1,243,0.89722204208374,chair,chair,3,0243_hp_s03_3_chair_10_n03376595_13734.png
subject-03,1,244,1.50020503997803,oven,bear,0.55,0244_hp_s03_0.55_bear_10_n02132136_27682.png
subject-03,1,245,1.24623084068298,cat,bird,0.55,0245_hp_s03_0.55_bird_10_n01601694_14004.png
subject-03,1,246,1.2529821395874,keyboard,bottle,inf,0246_hp_s03_inf_bottle_10_n04560804_15744.png
subject-03,1,247,1.50011086463928,dog,dog,1,0247_hp_s03_1_dog_10_n02111500_5346.png
subject-03,1,248,1.50036001205444,cat,elephant,0.45,0248_hp_s03_0.45_elephant_10_n02504013_2020.png
subject-03,1,249,1.10961985588074,elephant,elephant,inf,0249_hp_s03_inf_elephant_10_n02504013_7474.png
subject-03,1,250,1.06205201148987,oven,knife,0.7,0250_hp_s03_0.7_knife_10_n03041632_22570.png
subject-03,1,251,1.24477195739746,bear,dog,3,0251_hp_s03_3_dog_10_n02105056_15122.png
subject-03,1,252,0.805203914642334,knife,knife,inf,0252_hp_s03_inf_knife_10_n03041632_18532.png
subject-03,1,253,1.23382806777954,boat,bear,0.55,0253_hp_s03_0.55_bear_10_n02134084_13014.png
subject-03,1,254,1.50001311302185,bird,elephant,inf,0254_hp_s03_inf_elephant_10_n02504458_2738.png
subject-03,1,255,1.1626980304718,bottle,bottle,0.55,0255_hp_s03_0.55_bottle_10_n03983396_2150.png
subject-03,1,256,1.32321977615356,bear,bear,inf,0256_hp_s03_inf_bear_10_n02134084_4923.png
subject-03,1,257,0.94320821762085,boat,bird,inf,0257_hp_s03_inf_bird_10_n02056570_9720.png
subject-03,1,258,1.20326805114746,bird,bear,1,0258_hp_s03_1_bear_10_n02134084_12797.png
subject-03,1,259,1.0719690322876,elephant,elephant,3,0259_hp_s03_3_elephant_10_n02504458_2317.png
subject-03,1,260,1.33827900886536,elephant,elephant,3,0260_hp_s03_3_elephant_10_n02504458_2031.png
subject-03,1,261,1.10632801055908,cat,truck,0.4,0261_hp_s03_0.4_truck_10_n03417042_4605.png
subject-03,1,262,1.13453197479248,boat,bear,0.45,0262_hp_s03_0.45_bear_10_n02132136_11159.png
subject-03,1,263,1.20304107666016,clock,bear,0.55,0263_hp_s03_0.55_bear_10_n02132136_6634.png
subject-03,1,264,1.20166993141174,car,clock,0.55,0264_hp_s03_0.55_clock_10_n04548280_2169.png
subject-03,1,265,0.899960041046143,airplane,airplane,inf,0265_hp_s03_inf_airplane_10_n02690373_5786.png
subject-03,1,266,1.26538586616516,clock,dog,0.55,0266_hp_s03_0.55_dog_10_n02097130_1739.png
subject-03,1,267,1.33886981010437,keyboard,clock,1,0267_hp_s03_1_clock_10_n03196217_3780.png
subject-03,1,268,1.03723120689392,cat,oven,3,0268_hp_s03_3_oven_10_n04111531_5463.png
subject-03,1,269,NaN,na,bird,0.45,0269_hp_s03_0.45_bird_10_n01829413_1606.png
subject-03,1,270,1.09555983543396,boat,dog,1.5,0270_hp_s03_1.5_dog_10_n02088632_5645.png
subject-03,1,271,1.19406199455261,cat,cat,0.55,0271_hp_s03_0.55_cat_10_n02123394_4585.png
subject-03,1,272,1.20885300636292,chair,elephant,1.5,0272_hp_s03_1.5_elephant_10_n02504013_5014.png
subject-03,1,273,1.07480907440186,cat,bottle,0.4,0273_hp_s03_0.4_bottle_10_n03937543_4657.png
subject-03,1,274,1.48095202445984,bird,chair,0.45,0274_hp_s03_0.45_chair_10_n02791124_6843.png
subject-03,1,275,1.43934416770935,cat,cat,3,0275_hp_s03_3_cat_10_n02124075_14197.png
subject-03,1,276,1.3379979133606,cat,bear,1.5,0276_hp_s03_1.5_bear_10_n02133161_18720.png
subject-03,1,277,1.50012397766113,airplane,oven,1,0277_hp_s03_1_oven_10_n04111531_6415.png
subject-03,1,278,1.43462705612183,bird,cat,0.45,0278_hp_s03_0.45_cat_10_n02125311_23860.png
subject-03,1,279,1.08894395828247,bottle,bottle,3,0279_hp_s03_3_bottle_10_n04560804_22024.png
subject-03,1,280,1.47766995429993,chair,dog,3,0280_hp_s03_3_dog_10_n02100735_10276.png
subject-03,1,281,1.5003559589386,dog,keyboard,0.55,0281_hp_s03_0.55_keyboard_10_n03085013_3733.png
subject-03,1,282,0.952549934387207,boat,boat,inf,0282_hp_s03_inf_boat_10_n04612504_10721.png
subject-03,1,283,0.704801082611084,cat,cat,inf,0283_hp_s03_inf_cat_10_n02123159_7947.png
subject-03,1,284,0.957504034042358,oven,car,1,0284_hp_s03_1_car_10_n03100240_9343.png
subject-03,1,285,1.05548882484436,car,car,inf,0285_hp_s03_inf_car_10_n03100240_9233.png
subject-03,1,286,1.15092492103577,bicycle,bird,1,0286_hp_s03_1_bird_10_n01531178_15439.png
subject-03,1,287,0.997989892959595,airplane,airplane,inf,0287_hp_s03_inf_airplane_10_n02690373_3059.png
subject-03,1,288,0.994458913803101,oven,oven,0.7,0288_hp_s03_0.7_oven_10_n04111531_7050.png
subject-03,1,289,0.840934038162231,cat,bear,1.5,0289_hp_s03_1.5_bear_10_n02133161_4903.png
subject-03,1,290,0.999446153640747,oven,car,0.45,0290_hp_s03_0.45_car_10_n03100240_5542.png
subject-03,1,291,0.82776403427124,bottle,bottle,inf,0291_hp_s03_inf_bottle_10_n03983396_10711.png
subject-03,1,292,NaN,na,car,0.55,0292_hp_s03_0.55_car_10_n02814533_71838.png
subject-03,1,293,1.14011812210083,elephant,elephant,1.5,0293_hp_s03_1.5_elephant_10_n02504458_6510.png
subject-03,1,294,1.00620412826538,cat,knife,1,0294_hp_s03_1_knife_10_n03041632_46185.png
subject-03,1,295,1.03435611724854,bird,knife,1.5,0295_hp_s03_1.5_knife_10_n03041632_23667.png
subject-03,1,296,0.994463920593262,oven,boat,1.5,0296_hp_s03_1.5_boat_10_n03662601_10528.png
subject-03,1,297,0.730545997619629,cat,clock,0.55,0297_hp_s03_0.55_clock_10_n04548280_3156.png
subject-03,1,298,0.913088083267212,boat,elephant,0.4,0298_hp_s03_0.4_elephant_10_n02504458_8936.png
subject-03,1,299,1.03502011299133,bird,bear,1.5,0299_hp_s03_1.5_bear_10_n02132136_7737.png
subject-03,1,300,0.895704984664917,knife,knife,inf,0300_hp_s03_inf_knife_10_n03041632_13478.png
subject-03,1,301,1.00831508636475,elephant,elephant,inf,0301_hp_s03_inf_elephant_10_n02504013_1284.png
subject-03,1,302,1.36863493919373,keyboard,bottle,1.5,0302_hp_s03_1.5_bottle_10_n04591713_3534.png
subject-03,1,303,1.08333802223206,oven,oven,0.7,0303_hp_s03_0.7_oven_10_n04111531_21232.png
subject-03,1,304,1.0195209980011,cat,car,0.55,0304_hp_s03_0.55_car_10_n02814533_94371.png
subject-03,1,305,1.05607295036316,bird,cat,0.45,0305_hp_s03_0.45_cat_10_n02123045_1417.png
subject-03,1,306,1.32951283454895,car,truck,0.7,0306_hp_s03_0.7_truck_10_n03796401_9627.png
subject-03,1,307,1.1156370639801,airplane,boat,inf,0307_hp_s03_inf_boat_10_n04273569_2698.png
subject-03,1,308,1.04403281211853,dog,dog,3,0308_hp_s03_3_dog_10_n02098286_5787.png
subject-03,1,309,1.15835094451904,bird,elephant,0.55,0309_hp_s03_0.55_elephant_10_n02504013_4218.png
subject-03,1,310,0.886954069137573,bicycle,bicycle,1.5,0310_hp_s03_1.5_bicycle_10_n03792782_14258.png
subject-03,1,311,1.10949301719666,bird,elephant,1,0311_hp_s03_1_elephant_10_n02504013_2640.png
subject-03,1,312,1.09186100959778,car,car,0.7,0312_hp_s03_0.7_car_10_n02814533_10135.png
subject-03,1,313,1.18235111236572,oven,boat,1,0313_hp_s03_1_boat_10_n03662601_1895.png
subject-03,1,314,1.07307600975037,cat,cat,0.55,0314_hp_s03_0.55_cat_10_n02123394_768.png
subject-03,1,315,1.30137395858765,bird,elephant,0.4,0315_hp_s03_0.4_elephant_10_n02504013_10361.png
subject-03,1,316,0.969733953475952,boat,bear,0.4,0316_hp_s03_0.4_bear_10_n02134084_18800.png
subject-03,1,317,1.06063890457153,car,car,1,0317_hp_s03_1_car_10_n02814533_7232.png
subject-03,1,318,0.737330913543701,bicycle,bicycle,inf,0318_hp_s03_inf_bicycle_10_n03792782_13464.png
subject-03,1,319,1.18151903152466,clock,boat,0.55,0319_hp_s03_0.55_boat_10_n04273569_8114.png
subject-03,1,320,1.09400415420532,cat,elephant,0.4,0320_hp_s03_0.4_elephant_10_n02504458_6664.png
subject-03,1,321,0.892095804214478,cat,oven,0.45,0321_hp_s03_0.45_oven_10_n04111531_9370.png
subject-03,1,322,0.91283106803894,bird,cat,0.45,0322_hp_s03_0.45_cat_10_n02123045_4272.png
subject-03,1,323,0.910976886749268,cat,dog,0.7,0323_hp_s03_0.7_dog_10_n02106550_5752.png
subject-03,1,324,1.2775399684906,dog,dog,0.7,0324_hp_s03_0.7_dog_10_n02106662_32228.png
subject-03,1,325,1.29214382171631,chair,knife,1.5,0325_hp_s03_1.5_knife_10_n03041632_18468.png
subject-03,1,326,0.99863600730896,car,bicycle,1,0326_hp_s03_1_bicycle_10_n03792782_4826.png
subject-03,1,327,0.821038961410522,boat,car,0.4,0327_hp_s03_0.4_car_10_n03100240_1520.png
subject-03,1,328,1.29308390617371,car,oven,0.55,0328_hp_s03_0.55_oven_10_n04111531_14959.png
subject-03,1,329,NaN,na,car,0.45,0329_hp_s03_0.45_car_10_n03100240_12874.png
subject-03,1,330,0.845718145370483,cat,cat,3,0330_hp_s03_3_cat_10_n02123045_1484.png
subject-03,1,331,1.38829016685486,bird,bird,0.7,0331_hp_s03_0.7_bird_10_n02009229_4534.png
subject-03,1,332,0.847563028335571,boat,oven,0.7,0332_hp_s03_0.7_oven_10_n04111531_15667.png
subject-03,1,333,0.967756986618042,oven,keyboard,0.55,0333_hp_s03_0.55_keyboard_10_n03085013_21064.png
subject-03,1,334,1.29631090164185,bottle,bear,0.4,0334_hp_s03_0.4_bear_10_n02132136_25399.png
subject-03,1,335,0.888475179672241,cat,elephant,0.55,0335_hp_s03_0.55_elephant_10_n02504458_11693.png
subject-03,1,336,1.05163407325745,bird,bottle,0.7,0336_hp_s03_0.7_bottle_10_n04591713_5553.png
subject-03,1,337,1.11999583244324,oven,chair,0.7,0337_hp_s03_0.7_chair_10_n04429376_29424.png
subject-03,1,338,1.01044893264771,bottle,bottle,inf,0338_hp_s03_inf_bottle_10_n04591713_4832.png
subject-03,1,339,0.816561937332153,cat,bear,1.5,0339_hp_s03_1.5_bear_10_n02134084_20788.png
subject-03,1,340,0.958539962768555,chair,chair,3,0340_hp_s03_3_chair_10_n04099969_36200.png
subject-03,1,341,1.04083585739136,oven,bird,0.55,0341_hp_s03_0.55_bird_10_n01558993_7187.png
subject-03,1,342,1.36949801445007,bird,bird,0.7,0342_hp_s03_0.7_bird_10_n02028035_25050.png
subject-03,1,343,0.92354416847229,cat,cat,inf,0343_hp_s03_inf_cat_10_n02124075_8955.png
subject-03,1,344,0.952142953872681,bird,bear,inf,0344_hp_s03_inf_bear_10_n02134084_6313.png
subject-03,1,345,1.08048486709595,car,bottle,0.7,0345_hp_s03_0.7_bottle_10_n04557648_9535.png
subject-03,1,346,1.33255004882812,oven,truck,1.5,0346_hp_s03_1.5_truck_10_n04467665_10169.png
subject-03,1,347,1.35325217247009,cat,elephant,0.4,0347_hp_s03_0.4_elephant_10_n02504013_7799.png
subject-03,1,348,0.759464025497437,boat,elephant,0.7,0348_hp_s03_0.7_elephant_10_n02504458_7805.png
subject-03,1,349,1.28203797340393,car,bird,1.5,0349_hp_s03_1.5_bird_10_n02051845_3660.png
subject-03,1,350,0.969413042068481,airplane,airplane,inf,0350_hp_s03_inf_airplane_10_n02690373_7908.png
subject-03,1,351,1.12987995147705,keyboard,keyboard,3,0351_hp_s03_3_keyboard_10_n04505470_4246.png
subject-03,1,352,1.3796980381012,oven,chair,inf,0352_hp_s03_inf_chair_10_n04429376_25760.png
subject-03,1,353,1.22956705093384,cat,oven,0.45,0353_hp_s03_0.45_oven_10_n04111531_774.png
subject-03,1,354,0.814114093780518,car,car,3,0354_hp_s03_3_car_10_n02814533_11762.png
subject-03,1,355,1.3966588973999,cat,bear,inf,0355_hp_s03_inf_bear_10_n02134418_1311.png
subject-03,1,356,1.21701312065125,elephant,bear,3,0356_hp_s03_3_bear_10_n02134418_1153.png
subject-03,1,357,NaN,na,dog,0.55,0357_hp_s03_0.55_dog_10_n02113799_440.png
subject-03,1,358,1.25985312461853,bird,bear,0.55,0358_hp_s03_0.55_bear_10_n02134084_4490.png
subject-03,1,359,1.18842720985413,bottle,dog,0.45,0359_hp_s03_0.45_dog_10_n02102973_4010.png
subject-03,1,360,1.13162994384766,elephant,bear,1,0360_hp_s03_1_bear_10_n02132136_1665.png
subject-03,1,361,1.07246780395508,bear,bear,0.7,0361_hp_s03_0.7_bear_10_n02134418_5594.png
subject-03,1,362,1.23063898086548,bird,airplane,0.55,0362_hp_s03_0.55_airplane_10_n02690373_4195.png
subject-03,1,363,1.50006604194641,cat,airplane,0.4,0363_hp_s03_0.4_airplane_10_n02690373_7915.png
subject-03,1,364,1.48771286010742,bird,bird,0.55,0364_hp_s03_0.55_bird_10_n01534433_11255.png
subject-03,1,365,1.41813516616821,dog,chair,0.4,0365_hp_s03_0.4_chair_10_n04099969_1911.png
subject-03,1,366,1.29265785217285,keyboard,oven,3,0366_hp_s03_3_oven_10_n04111531_4444.png
subject-03,1,367,NaN,na,boat,0.45,0367_hp_s03_0.45_boat_10_n04273569_2740.png
subject-03,1,368,0.859426975250244,boat,bottle,0.45,0368_hp_s03_0.45_bottle_10_n04557648_1727.png
subject-03,1,369,0.918197154998779,cat,knife,0.45,0369_hp_s03_0.45_knife_10_n03041632_29684.png
subject-03,1,370,1.14658498764038,cat,dog,1,0370_hp_s03_1_dog_10_n02093754_4689.png
subject-03,1,371,1.06891894340515,keyboard,clock,1.5,0371_hp_s03_1.5_clock_10_n04548280_5327.png
subject-03,1,372,1.20669794082642,clock,clock,0.55,0372_hp_s03_0.55_clock_10_n02708093_3761.png
subject-03,1,373,0.682997941970825,keyboard,keyboard,0.7,0373_hp_s03_0.7_keyboard_10_n04505470_3675.png
subject-03,1,374,0.718974113464355,airplane,airplane,1.5,0374_hp_s03_1.5_airplane_10_n02690373_4788.png
subject-03,1,375,1.07740998268127,boat,keyboard,0.4,0375_hp_s03_0.4_keyboard_10_n03085013_19362.png
subject-03,1,376,0.868175983428955,cat,clock,0.4,0376_hp_s03_0.4_clock_10_n04548280_578.png
subject-03,1,377,1.25063180923462,bird,airplane,0.45,0377_hp_s03_0.45_airplane_10_n02690373_1974.png
subject-03,1,378,1.14897179603577,bear,elephant,inf,0378_hp_s03_inf_elephant_10_n02504458_511.png
subject-03,1,379,1.23912000656128,cat,chair,0.45,0379_hp_s03_0.45_chair_10_n03376595_5.png
subject-03,1,380,0.837155103683472,car,car,1.5,0380_hp_s03_1.5_car_10_n02814533_33631.png
subject-03,1,381,0.965353012084961,cat,bear,0.7,0381_hp_s03_0.7_bear_10_n02133161_14791.png
subject-03,1,382,0.987712860107422,keyboard,keyboard,3,0382_hp_s03_3_keyboard_10_n04505470_5132.png
subject-03,1,383,0.970429182052612,oven,oven,1.5,0383_hp_s03_1.5_oven_10_n04111531_2447.png
subject-03,1,384,1.50041604042053,bottle,bottle,inf,0384_hp_s03_inf_bottle_10_n02823428_12471.png
subject-03,1,385,1.23496913909912,keyboard,boat,1,0385_hp_s03_1_boat_10_n03662601_1926.png
subject-03,1,386,1.00929188728333,bottle,oven,inf,0386_hp_s03_inf_oven_10_n04111531_2186.png
subject-03,1,387,1.46955609321594,cat,bicycle,0.4,0387_hp_s03_0.4_bicycle_10_n02835271_12752.png
subject-03,1,388,1.13604521751404,elephant,elephant,inf,0388_hp_s03_inf_elephant_10_n02504458_4725.png
subject-03,1,389,1.27443909645081,boat,elephant,0.45,0389_hp_s03_0.45_elephant_10_n02504458_5376.png
subject-03,1,390,0.840655088424683,chair,chair,3,0390_hp_s03_3_chair_10_n03376595_6865.png
subject-03,1,391,1.13911199569702,cat,bicycle,0.4,0391_hp_s03_0.4_bicycle_10_n03792782_5670.png
subject-03,1,392,0.821018934249878,keyboard,keyboard,1,0392_hp_s03_1_keyboard_10_n03085013_24963.png
subject-03,1,393,0.889892101287842,cat,knife,0.45,0393_hp_s03_0.45_knife_10_n03041632_14442.png
subject-03,1,394,0.850158929824829,boat,oven,0.4,0394_hp_s03_0.4_oven_10_n04111531_18592.png
subject-03,1,395,1.23020887374878,bird,cat,0.7,0395_hp_s03_0.7_cat_10_n02123394_4383.png
subject-03,1,396,0.936553001403809,boat,boat,3,0396_hp_s03_3_boat_10_n04273569_26100.png
subject-03,1,397,1.31898903846741,keyboard,bottle,1,0397_hp_s03_1_bottle_10_n03983396_13193.png
subject-03,1,398,NaN,na,boat,3,0398_hp_s03_3_boat_10_n03344393_8143.png
subject-03,1,399,1.15324807167053,oven,dog,1,0399_hp_s03_1_dog_10_n02088094_1829.png
subject-03,1,400,0.765909910202026,chair,chair,3,0400_hp_s03_3_chair_10_n04099969_14998.png
subject-03,1,401,1.04246687889099,cat,boat,0.55,0401_hp_s03_0.55_boat_10_n03662601_34881.png
subject-03,1,402,0.933106184005737,bottle,bottle,3,0402_hp_s03_3_bottle_10_n04557648_1210.png
subject-03,1,403,0.69352912902832,clock,clock,inf,0403_hp_s03_inf_clock_10_n02708093_425.png
subject-03,1,404,0.705425977706909,bottle,bottle,3,0404_hp_s03_3_bottle_10_n03937543_4678.png
subject-03,1,405,1.0116081237793,boat,cat,0.45,0405_hp_s03_0.45_cat_10_n02123045_10893.png
subject-03,1,406,0.948155879974365,bird,keyboard,0.45,0406_hp_s03_0.45_keyboard_10_n04505470_4262.png
subject-03,1,407,0.738336801528931,airplane,airplane,inf,0407_hp_s03_inf_airplane_10_n02690373_19131.png
subject-03,1,408,1.02829885482788,boat,boat,1.5,0408_hp_s03_1.5_boat_10_n03344393_4844.png
subject-03,1,409,0.707332134246826,bottle,bottle,inf,0409_hp_s03_inf_bottle_10_n03983396_2692.png
subject-03,1,410,1.16789889335632,clock,bottle,3,0410_hp_s03_3_bottle_10_n04560804_13059.png
subject-03,1,411,0.987937211990356,cat,cat,0.55,0411_hp_s03_0.55_cat_10_n02125311_19172.png
subject-03,1,412,0.678658962249756,clock,clock,3,0412_hp_s03_3_clock_10_n03196217_2414.png
subject-03,1,413,1.11493611335754,bird,elephant,1,0413_hp_s03_1_elephant_10_n02504458_57.png
subject-03,1,414,0.783534049987793,keyboard,keyboard,inf,0414_hp_s03_inf_keyboard_10_n04505470_4594.png
subject-03,1,415,0.95782995223999,car,car,0.7,0415_hp_s03_0.7_car_10_n03100240_1263.png
subject-03,1,416,1.38634896278381,bird,clock,0.7,0416_hp_s03_0.7_clock_10_n03196217_3352.png
subject-03,1,417,1.50017404556274,car,dog,1,0417_hp_s03_1_dog_10_n02091831_910.png
subject-03,1,418,1.16698408126831,cat,airplane,0.7,0418_hp_s03_0.7_airplane_10_n02690373_3435.png
subject-03,1,419,1.1653790473938,bird,bird,inf,0419_hp_s03_inf_bird_10_n01817953_12356.png
subject-03,1,420,1.31552195549011,dog,elephant,3,0420_hp_s03_3_elephant_10_n02504013_812.png
subject-03,1,421,1.05028891563416,keyboard,bottle,0.55,0421_hp_s03_0.55_bottle_10_n04591713_1768.png
subject-03,1,422,1.37849378585815,oven,dog,0.45,0422_hp_s03_0.45_dog_10_n02100877_2338.png
subject-03,1,423,1.13086104393005,boat,clock,0.55,0423_hp_s03_0.55_clock_10_n03196217_3292.png
subject-03,1,424,1.37540793418884,car,oven,0.4,0424_hp_s03_0.4_oven_10_n04111531_10465.png
subject-03,1,425,0.988184928894043,cat,car,0.4,0425_hp_s03_0.4_car_10_n02814533_40984.png
subject-03,1,426,0.748453140258789,bottle,bottle,3,0426_hp_s03_3_bottle_10_n02823428_3171.png
subject-03,1,427,1.26889896392822,elephant,elephant,inf,0427_hp_s03_inf_elephant_10_n02504458_6823.png
subject-03,1,428,1.4976019859314,bottle,bear,0.45,0428_hp_s03_0.45_bear_10_n02134418_2654.png
subject-03,1,429,1.04994320869446,cat,knife,0.55,0429_hp_s03_0.55_knife_10_n03041632_11887.png
subject-03,1,430,0.97020697593689,bird,oven,0.55,0430_hp_s03_0.55_oven_10_n04111531_12589.png
subject-03,1,431,NaN,na,truck,0.45,0431_hp_s03_0.45_truck_10_n03417042_16664.png
subject-03,1,432,1.15097808837891,clock,truck,1.5,0432_hp_s03_1.5_truck_10_n04467665_3211.png
subject-03,1,433,0.903158903121948,bottle,bottle,inf,0433_hp_s03_inf_bottle_10_n03983396_3737.png
subject-03,1,434,1.07748508453369,cat,keyboard,0.45,0434_hp_s03_0.45_keyboard_10_n03085013_7399.png
subject-03,1,435,0.984017848968506,car,car,inf,0435_hp_s03_inf_car_10_n04285008_407.png
subject-03,1,436,0.918432950973511,clock,clock,1,0436_hp_s03_1_clock_10_n02708093_685.png
subject-03,1,437,1.23845410346985,boat,chair,0.45,0437_hp_s03_0.45_chair_10_n04099969_7664.png
subject-03,1,438,0.97444486618042,car,car,inf,0438_hp_s03_inf_car_10_n03100240_13931.png
subject-03,1,439,1.44912314414978,cat,bottle,0.45,0439_hp_s03_0.45_bottle_10_n04560804_4145.png
subject-03,1,440,0.6714928150177,clock,clock,inf,0440_hp_s03_inf_clock_10_n04548280_8904.png
subject-03,1,441,1.30849695205688,truck,truck,1,0441_hp_s03_1_truck_10_n04467665_39107.png
subject-03,1,442,1.39048194885254,oven,bird,0.7,0442_hp_s03_0.7_bird_10_n01532829_19108.png
subject-03,1,443,1.18095707893372,cat,truck,0.45,0443_hp_s03_0.45_truck_10_n03796401_13591.png
subject-03,1,444,1.26319313049316,cat,bird,3,0444_hp_s03_3_bird_10_n02018795_99.png
subject-03,1,445,1.25378513336182,knife,airplane,0.7,0445_hp_s03_0.7_airplane_10_n02690373_1912.png
subject-03,1,446,1.42022585868835,boat,oven,0.55,0446_hp_s03_0.55_oven_10_n04111531_13456.png
subject-03,1,447,1.45627403259277,airplane,cat,1.5,0447_hp_s03_1.5_cat_10_n02123597_334.png
subject-03,1,448,0.762860059738159,boat,boat,3,0448_hp_s03_3_boat_10_n04612504_16816.png
subject-03,1,449,1.13761591911316,cat,bottle,0.4,0449_hp_s03_0.4_bottle_10_n04591713_7374.png
subject-03,1,450,1.09556317329407,airplane,airplane,1.5,0450_hp_s03_1.5_airplane_10_n02690373_5778.png
subject-03,1,451,1.40001797676086,bottle,bottle,0.7,0451_hp_s03_0.7_bottle_10_n04591713_10469.png
subject-03,1,452,0.954778909683228,cat,airplane,0.55,0452_hp_s03_0.55_airplane_10_n02690373_6380.png
subject-03,1,453,0.975070953369141,car,boat,0.7,0453_hp_s03_0.7_boat_10_n04273569_15997.png
subject-03,1,454,0.919642925262451,bottle,bottle,1.5,0454_hp_s03_1.5_bottle_10_n04557648_1722.png
subject-03,1,455,1.03220295906067,boat,boat,inf,0455_hp_s03_inf_boat_10_n03662601_8059.png
subject-03,1,456,0.822497844696045,keyboard,keyboard,inf,0456_hp_s03_inf_keyboard_10_n04505470_1328.png
subject-03,1,457,1.03436613082886,truck,truck,3,0457_hp_s03_3_truck_10_n03417042_4551.png
subject-03,1,458,1.16304612159729,chair,chair,3,0458_hp_s03_3_chair_10_n04429376_4849.png
subject-03,1,459,1.00711488723755,cat,elephant,0.4,0459_hp_s03_0.4_elephant_10_n02504458_4161.png
subject-03,1,460,NaN,na,cat,0.45,0460_hp_s03_0.45_cat_10_n02124075_9919.png
subject-03,1,461,1.23412799835205,oven,dog,inf,0461_hp_s03_inf_dog_10_n02099601_5240.png
subject-03,1,462,1.50035810470581,oven,chair,1,0462_hp_s03_1_chair_10_n02791124_612.png
subject-03,1,463,1.01969909667969,airplane,airplane,inf,0463_hp_s03_inf_airplane_10_n02690373_9626.png
subject-03,1,464,1.11560297012329,cat,bear,1,0464_hp_s03_1_bear_10_n02133161_132.png
subject-03,1,465,1.32221102714539,cat,bear,3,0465_hp_s03_3_bear_10_n02132136_152.png
subject-03,1,466,0.745857000350952,keyboard,keyboard,1.5,0466_hp_s03_1.5_keyboard_10_n04505470_3345.png
subject-03,1,467,1.10637283325195,keyboard,keyboard,1,0467_hp_s03_1_keyboard_10_n03085013_14844.png
subject-03,1,468,0.994547128677368,knife,knife,3,0468_hp_s03_3_knife_10_n03041632_2483.png
subject-03,1,469,1.07134199142456,airplane,airplane,1.5,0469_hp_s03_1.5_airplane_10_n02690373_6406.png
subject-03,1,470,1.13760089874268,cat,cat,0.4,0470_hp_s03_0.4_cat_10_n02124075_9490.png
subject-03,1,471,0.952162981033325,bird,boat,0.45,0471_hp_s03_0.45_boat_10_n03344393_11469.png
subject-03,1,472,1.26416683197021,bird,cat,0.7,0472_hp_s03_0.7_cat_10_n02123394_10767.png
subject-03,1,473,0.954375982284546,oven,oven,1,0473_hp_s03_1_oven_10_n04111531_11749.png
subject-03,1,474,1.09890794754028,oven,oven,0.4,0474_hp_s03_0.4_oven_10_n04111531_16007.png
subject-03,1,475,1.17301321029663,oven,chair,1.5,0475_hp_s03_1.5_chair_10_n04429376_1137.png
subject-03,1,476,1.13154292106628,bird,bird,1,0476_hp_s03_1_bird_10_n01514859_4770.png
subject-03,1,477,1.13011312484741,cat,bird,1,0477_hp_s03_1_bird_10_n02013706_7852.png
subject-03,1,478,1.2583920955658,bird,bicycle,1,0478_hp_s03_1_bicycle_10_n02835271_17617.png
subject-03,1,479,1.04069900512695,cat,bicycle,0.4,0479_hp_s03_0.4_bicycle_10_n02835271_8529.png
subject-03,1,480,0.925390005111694,car,car,0.7,0480_hp_s03_0.7_car_10_n04285008_1803.png
subject-03,1,481,1.20244908332825,bird,bottle,0.4,0481_hp_s03_0.4_bottle_10_n04560804_16214.png
subject-03,1,482,0.968769073486328,cat,dog,0.45,0482_hp_s03_0.45_dog_10_n02110063_10091.png
subject-03,1,483,1.23379278182983,bird,airplane,0.4,0483_hp_s03_0.4_airplane_10_n02690373_6491.png
subject-03,1,484,1.00020909309387,cat,bear,0.45,0484_hp_s03_0.45_bear_10_n02132136_181.png
subject-03,1,485,1.17835283279419,bird,airplane,0.45,0485_hp_s03_0.45_airplane_10_n02690373_3074.png
subject-03,1,486,1.21391987800598,clock,keyboard,0.55,0486_hp_s03_0.55_keyboard_10_n04505470_4565.png
subject-03,1,487,1.06461811065674,bird,chair,0.55,0487_hp_s03_0.55_chair_10_n04099969_28139.png
subject-03,1,488,1.20902919769287,bird,dog,1,0488_hp_s03_1_dog_10_n02101006_6593.png
subject-03,1,489,1.18350601196289,knife,knife,1,0489_hp_s03_1_knife_10_n03041632_4443.png
subject-03,1,490,1.38993501663208,boat,oven,0.45,0490_hp_s03_0.45_oven_10_n04111531_8309.png
subject-03,1,491,1.48029804229736,bird,chair,0.55,0491_hp_s03_0.55_chair_10_n02791124_2223.png
subject-03,1,492,1.03319001197815,cat,knife,0.7,0492_hp_s03_0.7_knife_10_n03041632_37949.png
subject-03,1,493,0.929200887680054,clock,clock,0.7,0493_hp_s03_0.7_clock_10_n02708093_496.png
subject-03,1,494,1.12772798538208,cat,oven,0.45,0494_hp_s03_0.45_oven_10_n04111531_22097.png
subject-03,1,495,1.5001277923584,bird,bottle,0.55,0495_hp_s03_0.55_bottle_10_n04557648_2392.png
subject-03,1,496,1.12273097038269,car,truck,0.7,0496_hp_s03_0.7_truck_10_n03417042_1211.png
subject-03,1,497,1.15102696418762,airplane,airplane,1.5,0497_hp_s03_1.5_airplane_10_n02690373_4429.png
subject-03,1,498,1.16550087928772,bird,bicycle,0.4,0498_hp_s03_0.4_bicycle_10_n03792782_4233.png
subject-03,1,499,1.30781197547913,cat,cat,0.45,0499_hp_s03_0.45_cat_10_n02123394_1651.png
subject-03,1,500,1.00644111633301,car,car,1,0500_hp_s03_1_car_10_n02814533_1215.png
subject-03,1,501,0.996707916259766,cat,bicycle,0.55,0501_hp_s03_0.55_bicycle_10_n03792782_7634.png
subject-03,1,502,1.4252450466156,airplane,knife,0.7,0502_hp_s03_0.7_knife_10_n03041632_38996.png
subject-03,1,503,1.50006604194641,bird,elephant,0.4,0503_hp_s03_0.4_elephant_10_n02504013_6671.png
subject-03,1,504,1.23608016967773,cat,bicycle,0.55,0504_hp_s03_0.55_bicycle_10_n03792782_1933.png
subject-03,1,505,1.11032485961914,bottle,bottle,1,0505_hp_s03_1_bottle_10_n04591713_14142.png
subject-03,1,506,1.50018000602722,keyboard,elephant,1,0506_hp_s03_1_elephant_10_n02504458_5619.png
subject-03,1,507,1.34313297271729,bird,bottle,0.4,0507_hp_s03_0.4_bottle_10_n03983396_10230.png
subject-03,1,508,1.19539904594421,boat,dog,0.55,0508_hp_s03_0.55_dog_10_n02095570_10366.png
subject-03,1,509,1.38587307929993,bear,boat,0.4,0509_hp_s03_0.4_boat_10_n03662601_1787.png
subject-03,1,510,1.13025403022766,bicycle,bicycle,1,0510_hp_s03_1_bicycle_10_n03792782_2246.png
subject-03,1,511,1.18771696090698,airplane,truck,0.7,0511_hp_s03_0.7_truck_10_n03417042_5257.png
subject-03,1,512,1.03181409835815,truck,truck,inf,0512_hp_s03_inf_truck_10_n03417042_4095.png
subject-03,1,513,1.20631289482117,car,clock,0.45,0513_hp_s03_0.45_clock_10_n04548280_3799.png
subject-03,1,514,1.00273299217224,car,car,1.5,0514_hp_s03_1.5_car_10_n04285008_10917.png
subject-03,1,515,1.1524600982666,cat,dog,3,0515_hp_s03_3_dog_10_n02113978_1323.png
subject-03,1,516,1.1753191947937,bird,chair,0.4,0516_hp_s03_0.4_chair_10_n02791124_5599.png
subject-03,1,517,1.10355710983276,keyboard,oven,0.7,0517_hp_s03_0.7_oven_10_n04111531_14934.png
subject-03,1,518,1.48612594604492,oven,chair,0.45,0518_hp_s03_0.45_chair_10_n03376595_1730.png
subject-03,1,519,1.00640988349915,cat,keyboard,0.55,0519_hp_s03_0.55_keyboard_10_n03085013_2483.png
subject-03,1,520,1.28876781463623,oven,clock,0.7,0520_hp_s03_0.7_clock_10_n03196217_5149.png
subject-03,1,521,1.50003790855408,cat,boat,0.45,0521_hp_s03_0.45_boat_10_n03662601_17617.png
subject-03,1,522,1.2914879322052,cat,bicycle,0.4,0522_hp_s03_0.4_bicycle_10_n03792782_12411.png
subject-03,1,523,1.29573011398315,car,chair,inf,0523_hp_s03_inf_chair_10_n02791124_2369.png
subject-03,1,524,1.46987223625183,airplane,bird,3,0524_hp_s03_3_bird_10_n01817953_9621.png
subject-03,1,525,1.40616798400879,dog,dog,3,0525_hp_s03_3_dog_10_n02087046_3560.png
subject-03,1,526,1.40220212936401,cat,chair,0.55,0526_hp_s03_0.55_chair_10_n03376595_8812.png
subject-03,1,527,0.932285785675049,oven,elephant,3,0527_hp_s03_3_elephant_10_n02504013_1970.png
subject-03,1,528,0.914565086364746,bottle,bottle,inf,0528_hp_s03_inf_bottle_10_n04591713_5560.png
subject-03,1,529,1.11098885536194,airplane,airplane,3,0529_hp_s03_3_airplane_10_n02690373_4452.png
subject-03,1,530,1.49144911766052,cat,chair,0.7,0530_hp_s03_0.7_chair_10_n03376595_9800.png
subject-03,1,531,0.891519069671631,keyboard,keyboard,0.7,0531_hp_s03_0.7_keyboard_10_n04505470_4562.png
subject-03,1,532,1.1717209815979,oven,dog,0.45,0532_hp_s03_0.45_dog_10_n02106030_5158.png
subject-03,1,533,1.00011801719666,cat,bear,1,0533_hp_s03_1_bear_10_n02133161_311.png
subject-03,1,534,0.982674837112427,boat,boat,0.7,0534_hp_s03_0.7_boat_10_n02951358_20116.png
subject-03,1,535,0.881139039993286,oven,clock,3,0535_hp_s03_3_clock_10_n03196217_884.png
subject-03,1,536,0.801481008529663,cat,cat,0.7,0536_hp_s03_0.7_cat_10_n02123159_4300.png
subject-03,1,537,0.951400995254517,clock,clock,1.5,0537_hp_s03_1.5_clock_10_n02708093_570.png
subject-03,1,538,1.27968192100525,cat,clock,1,0538_hp_s03_1_clock_10_n02708093_8379.png
subject-03,1,539,0.86169695854187,chair,chair,inf,0539_hp_s03_inf_chair_10_n04099969_5612.png
subject-03,1,540,0.789751052856445,keyboard,keyboard,0.55,0540_hp_s03_0.55_keyboard_10_n04505470_2804.png
subject-03,1,541,1.22394394874573,oven,boat,1.5,0541_hp_s03_1.5_boat_10_n03344393_3024.png
subject-03,1,542,1.29031682014465,elephant,cat,0.4,0542_hp_s03_0.4_cat_10_n02123597_13654.png
subject-03,1,543,0.802290916442871,car,truck,inf,0543_hp_s03_inf_truck_10_n04467665_23867.png
subject-03,1,544,1.26897096633911,cat,bottle,0.4,0544_hp_s03_0.4_bottle_10_n03937543_4423.png
subject-03,1,545,1.36680889129639,keyboard,keyboard,1.5,0545_hp_s03_1.5_keyboard_10_n03085013_19380.png
subject-03,1,546,0.895179986953735,clock,clock,1.5,0546_hp_s03_1.5_clock_10_n04548280_5038.png
subject-03,1,547,1.01549100875854,cat,truck,0.45,0547_hp_s03_0.45_truck_10_n04467665_3580.png
subject-03,1,548,1.04162096977234,car,car,1,0548_hp_s03_1_car_10_n03100240_8327.png
subject-03,1,549,1.18578910827637,elephant,elephant,1.5,0549_hp_s03_1.5_elephant_10_n02504458_10432.png
subject-03,1,550,1.22792792320251,oven,oven,1.5,0550_hp_s03_1.5_oven_10_n04111531_2662.png
subject-03,1,551,1.08004093170166,cat,elephant,0.45,0551_hp_s03_0.45_elephant_10_n02504458_5902.png
subject-03,1,552,0.9045729637146,oven,oven,1.5,0552_hp_s03_1.5_oven_10_n04111531_9322.png
subject-03,1,553,NaN,na,bird,inf,0553_hp_s03_inf_bird_10_n02013706_5899.png
subject-03,1,554,0.920938014984131,knife,knife,3,0554_hp_s03_3_knife_10_n03041632_38540.png
subject-03,1,555,1.25732493400574,cat,knife,0.45,0555_hp_s03_0.45_knife_10_n03041632_43625.png
subject-03,1,556,0.817892074584961,chair,chair,3,0556_hp_s03_3_chair_10_n04099969_5901.png
subject-03,1,557,NaN,na,boat,1.5,0557_hp_s03_1.5_boat_10_n03662601_6549.png
subject-03,1,558,1.40278911590576,cat,boat,0.45,0558_hp_s03_0.45_boat_10_n03662601_7336.png
subject-03,1,559,1.4012610912323,oven,boat,0.4,0559_hp_s03_0.4_boat_10_n02951358_31956.png
subject-03,1,560,1.07542204856873,cat,cat,1,0560_hp_s03_1_cat_10_n02125311_21904.png
subject-03,1,561,1.07968187332153,bird,bird,1.5,0561_hp_s03_1.5_bird_10_n01616318_299.png
subject-03,1,562,0.853778839111328,car,car,3,0562_hp_s03_3_car_10_n03100240_52.png
subject-03,1,563,NaN,na,airplane,0.55,0563_hp_s03_0.55_airplane_10_n02690373_4134.png
subject-03,1,564,1.47805285453796,bird,bird,1,0564_hp_s03_1_bird_10_n01819313_3294.png
subject-03,1,565,NaN,na,bird,0.4,0565_hp_s03_0.4_bird_10_n02017213_2434.png
subject-03,1,566,1.10978484153748,boat,boat,0.7,0566_hp_s03_0.7_boat_10_n03662601_2980.png
subject-03,1,567,1.03033399581909,bicycle,bicycle,0.7,0567_hp_s03_0.7_bicycle_10_n02835271_9931.png
subject-03,1,568,1.05278182029724,elephant,elephant,3,0568_hp_s03_3_elephant_10_n02504013_19006.png
subject-03,1,569,1.36299800872803,cat,bicycle,0.45,0569_hp_s03_0.45_bicycle_10_n02835271_7655.png
subject-03,1,570,1.467129945755,truck,truck,1,0570_hp_s03_1_truck_10_n03417042_15592.png
subject-03,1,571,1.40352487564087,airplane,airplane,0.7,0571_hp_s03_0.7_airplane_10_n02690373_17130.png
subject-03,1,572,1.22385907173157,oven,knife,3,0572_hp_s03_3_knife_10_n03041632_17285.png
subject-03,1,573,1.16035008430481,cat,truck,0.4,0573_hp_s03_0.4_truck_10_n03417042_10957.png
subject-03,1,574,NaN,na,knife,0.55,0574_hp_s03_0.55_knife_10_n03041632_11603.png
subject-03,1,575,0.970818042755127,clock,clock,1,0575_hp_s03_1_clock_10_n02708093_3173.png
subject-03,1,576,1.08354496955872,truck,truck,1.5,0576_hp_s03_1.5_truck_10_n04467665_30189.png
subject-03,1,577,1.08767604827881,bird,bird,3,0577_hp_s03_3_bird_10_n01843065_3621.png
subject-03,1,578,1.10203695297241,cat,bird,0.45,0578_hp_s03_0.45_bird_10_n02037110_178.png
subject-03,1,579,NaN,na,dog,1,0579_hp_s03_1_dog_10_n02092339_474.png
subject-03,1,580,1.38043284416199,bird,bicycle,0.7,0580_hp_s03_0.7_bicycle_10_n02835271_7129.png
subject-03,1,581,0.816425085067749,bottle,bottle,1.5,0581_hp_s03_1.5_bottle_10_n04591713_5345.png
subject-03,1,582,1.15069508552551,dog,dog,3,0582_hp_s03_3_dog_10_n02097298_11366.png
subject-03,1,583,1.1088240146637,cat,airplane,1,0583_hp_s03_1_airplane_10_n02690373_1441.png
subject-03,1,584,0.698896169662476,clock,clock,3,0584_hp_s03_3_clock_10_n04548280_2229.png
subject-03,1,585,1.50040197372437,cat,cat,0.55,0585_hp_s03_0.55_cat_10_n02123597_2275.png
subject-03,1,586,1.50015091896057,bird,oven,0.45,0586_hp_s03_0.45_oven_10_n04111531_1830.png
subject-03,1,587,1.21344590187073,elephant,knife,1.5,0587_hp_s03_1.5_knife_10_n03041632_5727.png
subject-03,1,588,0.956064939498901,clock,clock,inf,0588_hp_s03_inf_clock_10_n02708093_6570.png
subject-03,1,589,0.962522983551025,elephant,elephant,1.5,0589_hp_s03_1.5_elephant_10_n02504013_6407.png
subject-03,1,590,NaN,na,truck,0.7,0590_hp_s03_0.7_truck_10_n04467665_35560.png
subject-03,1,591,1.01680088043213,cat,bear,1,0591_hp_s03_1_bear_10_n02132136_2815.png
subject-03,1,592,1.14522218704224,cat,bird,0.4,0592_hp_s03_0.4_bird_10_n01819313_4084.png
subject-03,1,593,NaN,na,bottle,3,0593_hp_s03_3_bottle_10_n04557648_818.png
subject-03,1,594,1.28579688072205,airplane,truck,0.7,0594_hp_s03_0.7_truck_10_n03417042_5335.png
subject-03,1,595,1.0224289894104,chair,chair,inf,0595_hp_s03_inf_chair_10_n04099969_8360.png
subject-03,1,596,0.69721794128418,keyboard,keyboard,inf,0596_hp_s03_inf_keyboard_10_n03085013_12492.png
subject-03,1,597,1.24149703979492,cat,chair,0.45,0597_hp_s03_0.45_chair_10_n03376595_7017.png
subject-03,1,598,1.36219906806946,bird,elephant,0.45,0598_hp_s03_0.45_elephant_10_n02504458_1712.png
subject-03,1,599,1.38823986053467,cat,bird,0.4,0599_hp_s03_0.4_bird_10_n01843065_5600.png
subject-03,1,600,1.08645701408386,airplane,airplane,3,0600_hp_s03_3_airplane_10_n02690373_6872.png
subject-03,1,601,1.39091300964355,cat,clock,0.7,0601_hp_s03_0.7_clock_10_n04548280_5557.png
subject-03,1,602,1.50019288063049,bird,boat,0.45,0602_hp_s03_0.45_boat_10_n04612504_18954.png
subject-03,1,603,1.42583799362183,car,bird,1,0603_hp_s03_1_bird_10_n02025239_265.png
subject-03,1,604,1.50038003921509,boat,boat,3,0604_hp_s03_3_boat_10_n03662601_9415.png
subject-03,1,605,NaN,na,truck,0.55,0605_hp_s03_0.55_truck_10_n04467665_20923.png
subject-03,1,606,NaN,na,clock,0.45,0606_hp_s03_0.45_clock_10_n03196217_8254.png
subject-03,1,607,1.20736193656921,truck,truck,inf,0607_hp_s03_inf_truck_10_n04467665_77937.png
subject-03,1,608,1.04862809181213,car,car,3,0608_hp_s03_3_car_10_n03100240_14257.png
subject-03,1,609,1.17711806297302,bird,bicycle,0.4,0609_hp_s03_0.4_bicycle_10_n03792782_4512.png
subject-03,1,610,1.5000741481781,cat,bear,0.7,0610_hp_s03_0.7_bear_10_n02132136_34191.png
subject-03,1,611,0.862871885299683,keyboard,keyboard,3,0611_hp_s03_3_keyboard_10_n03085013_14503.png
subject-03,1,612,NaN,na,boat,0.4,0612_hp_s03_0.4_boat_10_n03344393_7526.png
subject-03,1,613,NaN,na,keyboard,0.4,0613_hp_s03_0.4_keyboard_10_n03085013_20861.png
subject-03,1,614,1.37982201576233,bottle,bottle,1,0614_hp_s03_1_bottle_10_n04579145_984.png
subject-03,1,615,1.48405003547668,boat,truck,0.4,0615_hp_s03_0.4_truck_10_n04467665_1187.png
subject-03,1,616,NaN,na,car,0.45,0616_hp_s03_0.45_car_10_n03100240_3189.png
subject-03,1,617,1.20317387580872,cat,car,0.55,0617_hp_s03_0.55_car_10_n02814533_46403.png
subject-03,1,618,1.50031709671021,bird,boat,0.55,0618_hp_s03_0.55_boat_10_n02951358_2954.png
subject-03,1,619,1.08954095840454,airplane,airplane,0.55,0619_hp_s03_0.55_airplane_10_n02690373_1019.png
subject-03,1,620,0.67206883430481,cat,dog,inf,0620_hp_s03_inf_dog_10_n02101006_7866.png
subject-03,1,621,1.46041393280029,chair,elephant,3,0621_hp_s03_3_elephant_10_n02504013_6461.png
subject-03,1,622,1.48829698562622,boat,oven,1,0622_hp_s03_1_oven_10_n04111531_6851.png
subject-03,1,623,0.848612070083618,knife,knife,inf,0623_hp_s03_inf_knife_10_n03041632_42162.png
subject-03,1,624,1.06697392463684,truck,truck,inf,0624_hp_s03_inf_truck_10_n03417042_518.png
subject-03,1,625,0.987090826034546,bottle,bottle,3,0625_hp_s03_3_bottle_10_n04579145_2955.png
subject-03,1,626,1.15388488769531,cat,bird,0.55,0626_hp_s03_0.55_bird_10_n01820546_3307.png
subject-03,1,627,1.09847021102905,dog,dog,inf,0627_hp_s03_inf_dog_10_n02099267_2491.png
subject-03,1,628,NaN,na,bear,1,0628_hp_s03_1_bear_10_n02134084_2190.png
subject-03,1,629,1.5002429485321,airplane,oven,0.7,0629_hp_s03_0.7_oven_10_n04111531_15087.png
subject-03,1,630,1.27139711380005,boat,chair,0.55,0630_hp_s03_0.55_chair_10_n02791124_4876.png
subject-03,1,631,1.17002391815186,bird,airplane,0.4,0631_hp_s03_0.4_airplane_10_n02690373_15966.png
subject-03,1,632,1.21216416358948,oven,dog,0.7,0632_hp_s03_0.7_dog_10_n02086646_7285.png
subject-03,1,633,1.50037097930908,car,chair,1.5,0633_hp_s03_1.5_chair_10_n02791124_2233.png
subject-03,1,634,NaN,na,boat,0.4,0634_hp_s03_0.4_boat_10_n03662601_5639.png
subject-03,1,635,1.32794189453125,cat,bear,0.45,0635_hp_s03_0.45_bear_10_n02134084_5435.png
subject-03,1,636,1.50037789344788,car,clock,1.5,0636_hp_s03_1.5_clock_10_n04548280_7475.png
subject-03,1,637,0.823019981384277,boat,boat,inf,0637_hp_s03_inf_boat_10_n04612504_33904.png
subject-03,1,638,1.04351282119751,cat,elephant,1,0638_hp_s03_1_elephant_10_n02504013_4718.png
subject-03,1,639,1.20963096618652,car,oven,0.7,0639_hp_s03_0.7_oven_10_n04111531_22923.png
subject-03,1,640,1.40611290931702,cat,chair,1.5,0640_hp_s03_1.5_chair_10_n03376595_406.png
subject-03,1,641,1.00807595252991,cat,bicycle,0.45,0641_hp_s03_0.45_bicycle_10_n02835271_9531.png
subject-03,1,642,1.06687092781067,bird,clock,0.4,0642_hp_s03_0.4_clock_10_n04548280_4249.png
subject-03,1,643,1.32547402381897,bear,bear,inf,0643_hp_s03_inf_bear_10_n02134418_7463.png
subject-03,1,644,1.16977405548096,cat,car,0.4,0644_hp_s03_0.4_car_10_n03100240_16570.png
subject-03,1,645,1.13615107536316,boat,airplane,1.5,0645_hp_s03_1.5_airplane_10_n02690373_4486.png
subject-03,1,646,1.17043900489807,bird,car,0.45,0646_hp_s03_0.45_car_10_n03100240_4294.png
subject-03,1,647,0.822613954544067,clock,clock,1.5,0647_hp_s03_1.5_clock_10_n04548280_994.png
subject-03,1,648,1.08125901222229,bottle,bottle,1.5,0648_hp_s03_1.5_bottle_10_n02823428_3680.png
subject-03,1,649,0.905673027038574,keyboard,clock,inf,0649_hp_s03_inf_clock_10_n02708093_6957.png
subject-03,1,650,1.2099769115448,keyboard,keyboard,inf,0650_hp_s03_inf_keyboard_10_n03085013_2190.png
subject-03,1,651,0.908698081970215,cat,airplane,0.45,0651_hp_s03_0.45_airplane_10_n02690373_303.png
subject-03,1,652,1.22095394134521,bear,bear,3,0652_hp_s03_3_bear_10_n02134084_3384.png
subject-03,1,653,0.925333976745605,elephant,elephant,1,0653_hp_s03_1_elephant_10_n02504013_783.png
subject-03,1,654,1.06979298591614,cat,elephant,0.7,0654_hp_s03_0.7_elephant_10_n02504458_6903.png
subject-03,1,655,0.914396047592163,dog,dog,inf,0655_hp_s03_inf_dog_10_n02100583_22072.png
subject-03,1,656,1.44881391525269,bird,knife,1.5,0656_hp_s03_1.5_knife_10_n03041632_36247.png
subject-03,1,657,1.45532202720642,car,chair,1,0657_hp_s03_1_chair_10_n03376595_410.png
subject-03,1,658,1.09159183502197,cat,chair,0.4,0658_hp_s03_0.4_chair_10_n04099969_7998.png
subject-03,1,659,1.28022408485413,boat,knife,1.5,0659_hp_s03_1.5_knife_10_n03041632_33225.png
subject-03,1,660,0.769912004470825,bicycle,bicycle,inf,0660_hp_s03_inf_bicycle_10_n02835271_8995.png
subject-03,1,661,1.03573203086853,clock,clock,3,0661_hp_s03_3_clock_10_n04548280_5273.png
subject-03,1,662,1.08600091934204,car,oven,1,0662_hp_s03_1_oven_10_n04111531_5093.png
subject-03,1,663,1.06842088699341,car,boat,0.7,0663_hp_s03_0.7_boat_10_n04612504_14570.png
subject-03,1,664,1.02338695526123,cat,bottle,0.4,0664_hp_s03_0.4_bottle_10_n03983396_9992.png
subject-03,1,665,1.06778383255005,keyboard,keyboard,3,0665_hp_s03_3_keyboard_10_n04505470_2705.png
subject-03,1,666,1.02544498443604,oven,bottle,3,0666_hp_s03_3_bottle_10_n04557648_1938.png
subject-03,1,667,1.15391802787781,oven,oven,1,0667_hp_s03_1_oven_10_n04111531_16270.png
subject-03,1,668,0.988616943359375,keyboard,keyboard,3,0668_hp_s03_3_keyboard_10_n03085013_19130.png
subject-03,1,669,1.47112107276917,boat,bird,0.45,0669_hp_s03_0.45_bird_10_n02002724_3338.png
subject-03,1,670,1.41321086883545,bicycle,bicycle,1.5,0670_hp_s03_1.5_bicycle_10_n02835271_18222.png
subject-03,1,671,1.34966206550598,oven,elephant,0.7,0671_hp_s03_0.7_elephant_10_n02504458_3057.png
subject-03,1,672,1.50026607513428,car,truck,0.7,0672_hp_s03_0.7_truck_10_n03796401_2354.png
subject-03,1,673,1.50000905990601,cat,cat,0.4,0673_hp_s03_0.4_cat_10_n02123045_4280.png
subject-03,1,674,NaN,na,bicycle,inf,0674_hp_s03_inf_bicycle_10_n03792782_19288.png
subject-03,1,675,1.25357294082642,cat,bear,1.5,0675_hp_s03_1.5_bear_10_n02133161_5637.png
subject-03,1,676,1.21371102333069,dog,car,0.55,0676_hp_s03_0.55_car_10_n04285008_2595.png
subject-03,1,677,1.21815204620361,oven,oven,3,0677_hp_s03_3_oven_10_n04111531_537.png
subject-03,1,678,0.930413961410522,cat,airplane,0.45,0678_hp_s03_0.45_airplane_10_n02690373_2431.png
subject-03,1,679,1.30494809150696,bicycle,bicycle,inf,0679_hp_s03_inf_bicycle_10_n03792782_15875.png
subject-03,1,680,1.13333702087402,cat,cat,0.4,0680_hp_s03_0.4_cat_10_n02123597_50.png
subject-03,1,681,1.02095484733582,cat,cat,3,0681_hp_s03_3_cat_10_n02125311_45426.png
subject-03,1,682,1.47143197059631,oven,truck,0.7,0682_hp_s03_0.7_truck_10_n04467665_37526.png
subject-03,1,683,1.27010893821716,bird,cat,3,0683_hp_s03_3_cat_10_n02124075_11022.png
subject-03,1,684,1.16642808914185,cat,bottle,0.45,0684_hp_s03_0.45_bottle_10_n04557648_10462.png
subject-03,1,685,1.11107110977173,boat,bear,0.45,0685_hp_s03_0.45_bear_10_n02134084_6505.png
subject-03,1,686,1.50002217292786,keyboard,clock,1,0686_hp_s03_1_clock_10_n04548280_4790.png
subject-03,1,687,NaN,na,keyboard,0.45,0687_hp_s03_0.45_keyboard_10_n03085013_22820.png
subject-03,1,688,1.22431588172913,bird,bird,0.4,0688_hp_s03_0.4_bird_10_n01537544_3993.png
subject-03,1,689,1.50031304359436,bird,bear,0.4,0689_hp_s03_0.4_bear_10_n02133161_331.png
subject-03,1,690,0.912549018859863,keyboard,keyboard,1.5,0690_hp_s03_1.5_keyboard_10_n03085013_19645.png
subject-03,1,691,1.34746694564819,cat,airplane,0.55,0691_hp_s03_0.55_airplane_10_n02690373_9718.png
subject-03,1,692,NaN,na,oven,0.45,0692_hp_s03_0.45_oven_10_n04111531_2458.png
subject-03,1,693,1.00745987892151,cat,airplane,0.45,0693_hp_s03_0.45_airplane_10_n02690373_807.png
subject-03,1,694,1.08784794807434,car,car,inf,0694_hp_s03_inf_car_10_n04285008_1114.png
subject-03,1,695,1.30041003227234,cat,boat,0.55,0695_hp_s03_0.55_boat_10_n03662601_6865.png
subject-03,1,696,1.44277191162109,bird,oven,0.4,0696_hp_s03_0.4_oven_10_n04111531_10537.png
subject-03,1,697,1.11704993247986,cat,boat,0.4,0697_hp_s03_0.4_boat_10_n03344393_3259.png
subject-03,1,698,1.50039219856262,bird,dog,0.55,0698_hp_s03_0.55_dog_10_n02092339_7698.png
subject-03,1,699,NaN,na,keyboard,0.7,0699_hp_s03_0.7_keyboard_10_n03085013_7971.png
subject-03,1,700,1.10192799568176,oven,truck,1.5,0700_hp_s03_1.5_truck_10_n03417042_2778.png
subject-03,1,701,1.10591912269592,cat,oven,0.55,0701_hp_s03_0.55_oven_10_n04111531_10199.png
subject-03,1,702,0.948565006256104,boat,truck,1.5,0702_hp_s03_1.5_truck_10_n03417042_19277.png
subject-03,1,703,1.0610728263855,truck,truck,1.5,0703_hp_s03_1.5_truck_10_n03417042_108.png
subject-03,1,704,1.22672891616821,keyboard,keyboard,0.55,0704_hp_s03_0.55_keyboard_10_n03085013_32791.png
subject-03,1,705,0.985130071640015,cat,knife,0.4,0705_hp_s03_0.4_knife_10_n03041632_30553.png
subject-03,1,706,1.22779893875122,bird,chair,0.4,0706_hp_s03_0.4_chair_10_n02791124_3103.png
subject-03,1,707,0.925846099853516,airplane,airplane,1.5,0707_hp_s03_1.5_airplane_10_n02690373_9335.png
subject-03,1,708,0.992419958114624,cat,bear,0.55,0708_hp_s03_0.55_bear_10_n02132136_3331.png
subject-03,1,709,1.23512983322144,bird,boat,1,0709_hp_s03_1_boat_10_n04612504_19912.png
subject-03,1,710,1.2332501411438,cat,elephant,0.55,0710_hp_s03_0.55_elephant_10_n02504458_3677.png
subject-03,1,711,1.17548799514771,knife,knife,3,0711_hp_s03_3_knife_10_n03041632_2386.png
subject-03,1,712,0.998286008834839,cat,bird,0.4,0712_hp_s03_0.4_bird_10_n02027492_16264.png
subject-03,1,713,1.03962111473083,cat,bottle,0.55,0713_hp_s03_0.55_bottle_10_n03983396_4834.png
subject-03,1,714,1.5001540184021,bird,knife,0.4,0714_hp_s03_0.4_knife_10_n03041632_47759.png
subject-03,1,715,1.50008082389832,truck,truck,0.7,0715_hp_s03_0.7_truck_10_n03417042_6419.png
subject-03,1,716,0.992079973220825,cat,cat,inf,0716_hp_s03_inf_cat_10_n02125311_36622.png
subject-03,1,717,0.850220918655396,boat,boat,inf,0717_hp_s03_inf_boat_10_n04273569_3348.png
subject-03,1,718,1.2305600643158,bird,knife,0.4,0718_hp_s03_0.4_knife_10_n03041632_24998.png
subject-03,1,719,1.0129919052124,keyboard,knife,1.5,0719_hp_s03_1.5_knife_10_n03041632_6446.png
subject-03,1,720,1.24718999862671,cat,elephant,1,0720_hp_s03_1_elephant_10_n02504013_5788.png
subject-03,1,721,0.99957799911499,bottle,knife,inf,0721_hp_s03_inf_knife_10_n03041632_96714.png
subject-03,1,722,0.974145889282227,cat,elephant,3,0722_hp_s03_3_elephant_10_n02504458_7966.png
subject-03,1,723,1.0783588886261,keyboard,oven,inf,0723_hp_s03_inf_oven_10_n04111531_11589.png
subject-03,1,724,0.89013409614563,bottle,oven,3,0724_hp_s03_3_oven_10_n04111531_14753.png
subject-03,1,725,1.32500290870667,cat,cat,0.45,0725_hp_s03_0.45_cat_10_n02123394_1463.png
subject-03,1,726,1.3534460067749,bird,dog,0.45,0726_hp_s03_0.45_dog_10_n02090721_4906.png
subject-03,1,727,1.45014095306396,bird,truck,0.45,0727_hp_s03_0.45_truck_10_n03417042_15198.png
subject-03,1,728,1.3861620426178,cat,bicycle,1,0728_hp_s03_1_bicycle_10_n03792782_19866.png
subject-03,1,729,0.654603958129883,clock,clock,inf,0729_hp_s03_inf_clock_10_n04548280_7243.png
subject-03,1,730,1.12661981582642,bird,knife,1,0730_hp_s03_1_knife_10_n03041632_18141.png
subject-03,1,731,1.24708080291748,truck,truck,3,0731_hp_s03_3_truck_10_n04467665_17283.png
subject-03,1,732,1.07576990127563,cat,keyboard,0.55,0732_hp_s03_0.55_keyboard_10_n03085013_23119.png
subject-03,1,733,0.964308023452759,dog,dog,inf,0733_hp_s03_inf_dog_10_n02104029_7767.png
subject-03,1,734,1.02283906936646,bird,oven,0.45,0734_hp_s03_0.45_oven_10_n04111531_1977.png
subject-03,1,735,1.02906107902527,cat,knife,0.55,0735_hp_s03_0.55_knife_10_n03041632_29862.png
subject-03,1,736,1.11194109916687,bird,bird,0.45,0736_hp_s03_0.45_bird_10_n01622779_8733.png
subject-03,1,737,1.30035305023193,car,bear,0.7,0737_hp_s03_0.7_bear_10_n02132136_2029.png
subject-03,1,738,1.43462991714478,car,knife,0.7,0738_hp_s03_0.7_knife_10_n03041632_46422.png
subject-03,1,739,0.640870094299316,keyboard,keyboard,inf,0739_hp_s03_inf_keyboard_10_n03085013_23718.png
subject-03,1,740,0.823575019836426,cat,clock,0.4,0740_hp_s03_0.4_clock_10_n03196217_6237.png
subject-03,1,741,1.33397006988525,bird,cat,1,0741_hp_s03_1_cat_10_n02123159_3353.png
subject-03,1,742,1.43856596946716,keyboard,oven,1.5,0742_hp_s03_1.5_oven_10_n04111531_6454.png
subject-03,1,743,1.0279381275177,airplane,airplane,1,0743_hp_s03_1_airplane_10_n02690373_9300.png
subject-03,1,744,0.964530944824219,keyboard,keyboard,0.7,0744_hp_s03_0.7_keyboard_10_n04505470_10775.png
subject-03,1,745,1.03684210777283,cat,clock,0.45,0745_hp_s03_0.45_clock_10_n04548280_8225.png
subject-03,1,746,0.997463941574097,bird,cat,0.4,0746_hp_s03_0.4_cat_10_n02123159_4033.png
subject-03,1,747,1.31598210334778,dog,knife,0.45,0747_hp_s03_0.45_knife_10_n03041632_15431.png
subject-03,1,748,0.852411031723022,airplane,airplane,inf,0748_hp_s03_inf_airplane_10_n02690373_9060.png
subject-03,1,749,1.2268979549408,boat,dog,0.4,0749_hp_s03_0.4_dog_10_n02097209_8427.png
subject-03,1,750,NaN,na,chair,0.4,0750_hp_s03_0.4_chair_10_n04429376_92.png
subject-03,1,751,1.40596795082092,bottle,boat,inf,0751_hp_s03_inf_boat_10_n03344393_5300.png
subject-03,1,752,1.21007490158081,cat,clock,0.45,0752_hp_s03_0.45_clock_10_n04548280_1219.png
subject-03,1,753,0.85444712638855,bicycle,bicycle,3,0753_hp_s03_3_bicycle_10_n03792782_19362.png
subject-03,1,754,1.30485105514526,bicycle,bicycle,1.5,0754_hp_s03_1.5_bicycle_10_n03792782_551.png
subject-03,1,755,0.933544874191284,cat,boat,0.7,0755_hp_s03_0.7_boat_10_n02951358_18848.png
subject-03,1,756,1.38332390785217,airplane,cat,1.5,0756_hp_s03_1.5_cat_10_n02123394_525.png
subject-03,1,757,1.11210608482361,bird,keyboard,0.45,0757_hp_s03_0.45_keyboard_10_n03085013_7511.png
subject-03,1,758,1.01039099693298,chair,chair,inf,0758_hp_s03_inf_chair_10_n03376595_6873.png
subject-03,1,759,1.11511898040771,bird,dog,0.45,0759_hp_s03_0.45_dog_10_n02111129_4571.png
subject-03,1,760,1.29488110542297,bird,bird,0.55,0760_hp_s03_0.55_bird_10_n02056570_2126.png
subject-03,1,761,0.868821859359741,truck,truck,inf,0761_hp_s03_inf_truck_10_n03417042_9327.png
subject-03,1,762,0.735241174697876,keyboard,keyboard,inf,0762_hp_s03_inf_keyboard_10_n04505470_8822.png
subject-03,1,763,1.06139707565308,cat,keyboard,0.55,0763_hp_s03_0.55_keyboard_10_n04505470_5275.png
subject-03,1,764,1.33581590652466,bird,bird,1,0764_hp_s03_1_bird_10_n02056570_10019.png
subject-03,1,765,0.92618989944458,cat,knife,0.45,0765_hp_s03_0.45_knife_10_n03041632_89912.png
subject-03,1,766,1.44433403015137,bird,dog,0.7,0766_hp_s03_0.7_dog_10_n02106662_20396.png
subject-03,1,767,0.750430107116699,bicycle,bicycle,3,0767_hp_s03_3_bicycle_10_n02835271_274.png
subject-03,1,768,1.06294894218445,car,car,0.7,0768_hp_s03_0.7_car_10_n04285008_4551.png
subject-03,1,769,1.05349206924438,keyboard,bottle,0.7,0769_hp_s03_0.7_bottle_10_n04579145_1951.png
subject-03,1,770,1.50014495849609,bicycle,cat,0.7,0770_hp_s03_0.7_cat_10_n02123394_203.png
subject-03,1,771,1.32209587097168,boat,bear,0.4,0771_hp_s03_0.4_bear_10_n02134418_5317.png
subject-03,1,772,1.14477396011353,cat,clock,0.45,0772_hp_s03_0.45_clock_10_n04548280_2532.png
subject-03,1,773,0.903186082839966,keyboard,airplane,3,0773_hp_s03_3_airplane_10_n02690373_3588.png
subject-03,1,774,0.969804048538208,cat,bicycle,1.5,0774_hp_s03_1.5_bicycle_10_n03792782_9991.png
subject-03,1,775,1.1818950176239,bird,boat,0.45,0775_hp_s03_0.45_boat_10_n03344393_8528.png
subject-03,1,776,0.84064507484436,car,car,0.7,0776_hp_s03_0.7_car_10_n03100240_6404.png
subject-03,1,777,1.03678584098816,truck,truck,inf,0777_hp_s03_inf_truck_10_n04467665_41163.png
subject-03,1,778,1.18143200874329,truck,truck,3,0778_hp_s03_3_truck_10_n03796401_28776.png
subject-03,1,779,1.21591687202454,car,elephant,0.55,0779_hp_s03_0.55_elephant_10_n02504013_1257.png
subject-03,1,780,0.773568868637085,knife,knife,inf,0780_hp_s03_inf_knife_10_n03041632_46091.png
subject-03,1,781,0.817941188812256,cat,bicycle,0.7,0781_hp_s03_0.7_bicycle_10_n02835271_6978.png
subject-03,1,782,1.18477582931519,bird,bear,3,0782_hp_s03_3_bear_10_n02134418_5124.png
subject-03,1,783,1.1188530921936,oven,bottle,inf,0783_hp_s03_inf_bottle_10_n04560804_2657.png
subject-03,1,784,0.917546033859253,cat,elephant,0.55,0784_hp_s03_0.55_elephant_10_n02504013_2146.png
subject-03,1,785,1.0440309047699,cat,chair,0.4,0785_hp_s03_0.4_chair_10_n02791124_2262.png
subject-03,1,786,1.01273608207703,cat,cat,0.7,0786_hp_s03_0.7_cat_10_n02123159_2429.png
subject-03,1,787,0.770900964736938,clock,clock,3,0787_hp_s03_3_clock_10_n03196217_4844.png
subject-03,1,788,0.945640087127686,car,car,0.55,0788_hp_s03_0.55_car_10_n03100240_6450.png
subject-03,1,789,0.863809108734131,bird,elephant,0.4,0789_hp_s03_0.4_elephant_10_n02504458_2835.png
subject-03,1,790,0.640294075012207,cat,dog,0.55,0790_hp_s03_0.55_dog_10_n02108000_6214.png
subject-03,1,791,0.982450008392334,cat,bear,0.45,0791_hp_s03_0.45_bear_10_n02134418_3886.png
subject-03,1,792,1.15497994422913,oven,oven,3,0792_hp_s03_3_oven_10_n04111531_2630.png
subject-03,1,793,1.4214940071106,bird,elephant,1.5,0793_hp_s03_1.5_elephant_10_n02504458_3897.png
subject-03,1,794,1.21965503692627,cat,truck,0.4,0794_hp_s03_0.4_truck_10_n04467665_41562.png
subject-03,1,795,NaN,na,elephant,0.45,0795_hp_s03_0.45_elephant_10_n02504458_13583.png
subject-03,1,796,1.30670213699341,car,cat,0.55,0796_hp_s03_0.55_cat_10_n02123159_6416.png
subject-03,1,797,NaN,na,bicycle,0.45,0797_hp_s03_0.45_bicycle_10_n03792782_12273.png
subject-03,1,798,NaN,na,cat,1.5,0798_hp_s03_1.5_cat_10_n02124075_843.png
subject-03,1,799,NaN,na,car,0.4,0799_hp_s03_0.4_car_10_n04285008_7866.png
subject-03,1,800,0.671917915344238,cat,knife,0.4,0800_hp_s03_0.4_knife_10_n03041632_21034.png
subject-03,1,801,0.96920108795166,clock,clock,0.7,0801_hp_s03_0.7_clock_10_n04548280_5692.png
subject-03,1,802,1.21947693824768,cat,oven,0.4,0802_hp_s03_0.4_oven_10_n04111531_9962.png
subject-03,1,803,1.19995188713074,bird,chair,1,0803_hp_s03_1_chair_10_n03376595_2192.png
subject-03,1,804,1.27407598495483,cat,elephant,1,0804_hp_s03_1_elephant_10_n02504458_8939.png
subject-03,1,805,1.11766600608826,bottle,bottle,0.4,0805_hp_s03_0.4_bottle_10_n03937543_6380.png
subject-03,1,806,0.951921939849854,bird,knife,0.4,0806_hp_s03_0.4_knife_10_n03041632_81471.png
subject-03,1,807,0.871877908706665,cat,knife,0.4,0807_hp_s03_0.4_knife_10_n03041632_4260.png
subject-03,1,808,0.976722002029419,bird,clock,0.4,0808_hp_s03_0.4_clock_10_n02708093_596.png
subject-03,1,809,0.920857191085815,cat,cat,3,0809_hp_s03_3_cat_10_n02123597_14722.png
subject-03,1,810,1.03954577445984,cat,car,0.45,0810_hp_s03_0.45_car_10_n04285008_14423.png
subject-03,1,811,0.959946870803833,bottle,bottle,1,0811_hp_s03_1_bottle_10_n04591713_2972.png
subject-03,1,812,1.02039504051208,knife,knife,1.5,0812_hp_s03_1.5_knife_10_n03041632_11797.png
subject-03,1,813,1.00110292434692,truck,truck,0.7,0813_hp_s03_0.7_truck_10_n03417042_3197.png
subject-03,1,814,0.937201976776123,clock,clock,1,0814_hp_s03_1_clock_10_n03196217_13380.png
subject-03,1,815,0.737411022186279,cat,clock,0.45,0815_hp_s03_0.45_clock_10_n03196217_13429.png
subject-03,1,816,1.16290092468262,car,car,inf,0816_hp_s03_inf_car_10_n03100240_5308.png
subject-03,1,817,1.31376695632935,cat,bear,0.4,0817_hp_s03_0.4_bear_10_n02132136_3959.png
subject-03,1,818,0.957911014556885,cat,cat,0.7,0818_hp_s03_0.7_cat_10_n02125311_1242.png
subject-03,1,819,1.18607115745544,cat,cat,3,0819_hp_s03_3_cat_10_n02123597_9585.png
subject-03,1,820,0.814278841018677,cat,cat,1.5,0820_hp_s03_1.5_cat_10_n02123597_11027.png
subject-03,1,821,1.33289790153503,oven,knife,0.55,0821_hp_s03_0.55_knife_10_n03041632_20595.png
subject-03,1,822,0.976861000061035,keyboard,keyboard,0.7,0822_hp_s03_0.7_keyboard_10_n03085013_23485.png
subject-03,1,823,0.975377082824707,cat,bear,0.55,0823_hp_s03_0.55_bear_10_n02134084_2556.png
subject-03,1,824,0.763944149017334,bicycle,bicycle,inf,0824_hp_s03_inf_bicycle_10_n03792782_6977.png
subject-03,1,825,1.11428308486938,elephant,elephant,1.5,0825_hp_s03_1.5_elephant_10_n02504458_2628.png
subject-03,1,826,1.22674298286438,bear,bird,1.5,0826_hp_s03_1.5_bird_10_n02007558_10955.png
subject-03,1,827,1.31708002090454,cat,airplane,0.45,0827_hp_s03_0.45_airplane_10_n02690373_5007.png
subject-03,1,828,1.28961801528931,cat,clock,0.7,0828_hp_s03_0.7_clock_10_n02708093_4289.png
subject-03,1,829,0.895596027374268,airplane,airplane,3,0829_hp_s03_3_airplane_10_n02690373_5632.png
subject-03,1,830,1.12235188484192,dog,knife,inf,0830_hp_s03_inf_knife_10_n03041632_47703.png
subject-03,1,831,1.35066699981689,dog,dog,1,0831_hp_s03_1_dog_10_n02102318_3096.png
subject-03,1,832,0.986759901046753,bottle,bottle,1,0832_hp_s03_1_bottle_10_n02823428_417.png
subject-03,1,833,1.00467395782471,elephant,elephant,3,0833_hp_s03_3_elephant_10_n02504458_1282.png
subject-03,1,834,0.949049949645996,cat,car,1,0834_hp_s03_1_car_10_n03100240_3581.png
subject-03,1,835,1.32873892784119,chair,knife,3,0835_hp_s03_3_knife_10_n03041632_40283.png
subject-03,1,836,1.30893707275391,cat,clock,3,0836_hp_s03_3_clock_10_n02708093_2242.png
subject-03,1,837,1.29123306274414,bear,elephant,0.7,0837_hp_s03_0.7_elephant_10_n02504458_10086.png
subject-03,1,838,0.927746057510376,boat,boat,1.5,0838_hp_s03_1.5_boat_10_n03662601_34152.png
subject-03,1,839,0.923721075057983,cat,chair,0.55,0839_hp_s03_0.55_chair_10_n02791124_1988.png
subject-03,1,840,1.21198606491089,knife,bicycle,1.5,0840_hp_s03_1.5_bicycle_10_n03792782_2598.png
subject-03,1,841,1.24078798294067,bird,bear,inf,0841_hp_s03_inf_bear_10_n02132136_14614.png
subject-03,1,842,1.17465710639954,bird,bird,1,0842_hp_s03_1_bird_10_n01622779_3855.png
subject-03,1,843,1.16257309913635,clock,clock,1.5,0843_hp_s03_1.5_clock_10_n03196217_818.png
subject-03,1,844,0.931062936782837,cat,bicycle,0.7,0844_hp_s03_0.7_bicycle_10_n03792782_19840.png
subject-03,1,845,0.759459018707275,bottle,bottle,1,0845_hp_s03_1_bottle_10_n04579145_6348.png
subject-03,1,846,0.810122966766357,airplane,airplane,0.7,0846_hp_s03_0.7_airplane_10_n02690373_4727.png
subject-03,1,847,1.41258502006531,bird,cat,1.5,0847_hp_s03_1.5_cat_10_n02123159_298.png
subject-03,1,848,1.35703706741333,cat,dog,1.5,0848_hp_s03_1.5_dog_10_n02108551_113.png
subject-03,1,849,1.19872903823853,cat,car,0.55,0849_hp_s03_0.55_car_10_n02814533_39933.png
subject-03,1,850,1.29538702964783,bird,keyboard,0.4,0850_hp_s03_0.4_keyboard_10_n03085013_24402.png
subject-03,1,851,1.23201704025269,car,car,1.5,0851_hp_s03_1.5_car_10_n02814533_89376.png
subject-03,1,852,0.822448015213013,oven,clock,inf,0852_hp_s03_inf_clock_10_n03196217_422.png
subject-03,1,853,0.821120977401733,car,car,0.7,0853_hp_s03_0.7_car_10_n04285008_3203.png
subject-03,1,854,1.23161101341248,cat,dog,0.4,0854_hp_s03_0.4_dog_10_n02100236_9096.png
subject-03,1,855,0.913022994995117,car,car,inf,0855_hp_s03_inf_car_10_n03100240_7134.png
subject-03,1,856,0.865674018859863,clock,clock,1.5,0856_hp_s03_1.5_clock_10_n04548280_11412.png
subject-03,1,857,1.21623611450195,bottle,bicycle,inf,0857_hp_s03_inf_bicycle_10_n03792782_15138.png
subject-03,1,858,1.12854504585266,airplane,truck,1,0858_hp_s03_1_truck_10_n03796401_10766.png
subject-03,1,859,0.819097995758057,bottle,bottle,1.5,0859_hp_s03_1.5_bottle_10_n02823428_2820.png
subject-03,1,860,0.739427089691162,keyboard,keyboard,1,0860_hp_s03_1_keyboard_10_n04505470_6487.png
subject-03,1,861,1.41186594963074,car,boat,1,0861_hp_s03_1_boat_10_n03662601_10341.png
subject-03,1,862,0.78627610206604,cat,car,0.4,0862_hp_s03_0.4_car_10_n04285008_3911.png
subject-03,1,863,0.769003868103027,bottle,bottle,1,0863_hp_s03_1_bottle_10_n02823428_6166.png
subject-03,1,864,0.71911096572876,car,car,inf,0864_hp_s03_inf_car_10_n04285008_3552.png
subject-03,1,865,1.28546190261841,bottle,chair,1,0865_hp_s03_1_chair_10_n04429376_3940.png
subject-03,1,866,0.867679119110107,cat,truck,0.4,0866_hp_s03_0.4_truck_10_n03796401_2784.png
subject-03,1,867,0.856384038925171,car,car,1,0867_hp_s03_1_car_10_n02814533_5357.png
subject-03,1,868,1.48253798484802,bird,dog,0.55,0868_hp_s03_0.55_dog_10_n02097298_3851.png
subject-03,1,869,0.90500020980835,cat,clock,0.45,0869_hp_s03_0.45_clock_10_n04548280_3038.png
subject-03,1,870,NaN,na,knife,0.45,0870_hp_s03_0.45_knife_10_n03041632_1407.png
subject-03,1,871,1.16782903671265,car,boat,0.55,0871_hp_s03_0.55_boat_10_n03662601_11448.png
subject-03,1,872,1.01001501083374,oven,oven,1,0872_hp_s03_1_oven_10_n04111531_6313.png
subject-03,1,873,0.824280023574829,cat,car,0.4,0873_hp_s03_0.4_car_10_n03100240_17245.png
subject-03,1,874,1.09094715118408,truck,truck,1.5,0874_hp_s03_1.5_truck_10_n04467665_70237.png
subject-03,1,875,1.19528818130493,cat,cat,3,0875_hp_s03_3_cat_10_n02123394_6869.png
subject-03,1,876,1.09979891777039,elephant,elephant,3,0876_hp_s03_3_elephant_10_n02504458_4643.png
subject-03,1,877,1.01520609855652,cat,bear,inf,0877_hp_s03_inf_bear_10_n02134418_4693.png
subject-03,1,878,0.995517015457153,car,car,3,0878_hp_s03_3_car_10_n03100240_8002.png
subject-03,1,879,1.06533980369568,cat,dog,1.5,0879_hp_s03_1.5_dog_10_n02095570_11983.png
subject-03,1,880,1.4455029964447,bird,elephant,0.45,0880_hp_s03_0.45_elephant_10_n02504013_978.png
subject-03,1,881,1.12005805969238,car,car,inf,0881_hp_s03_inf_car_10_n02814533_4533.png
subject-03,1,882,1.14026379585266,bicycle,bicycle,1,0882_hp_s03_1_bicycle_10_n03792782_22856.png
subject-03,1,883,0.953052997589111,clock,bottle,0.55,0883_hp_s03_0.55_bottle_10_n04579145_1174.png
subject-03,1,884,1.41133999824524,knife,knife,0.55,0884_hp_s03_0.55_knife_10_n03041632_47234.png
subject-03,1,885,0.617986917495728,cat,cat,0.7,0885_hp_s03_0.7_cat_10_n02123597_30151.png
subject-03,1,886,0.71598219871521,clock,clock,inf,0886_hp_s03_inf_clock_10_n02708093_3550.png
subject-03,1,887,1.01254296302795,car,car,3,0887_hp_s03_3_car_10_n04285008_1550.png
subject-03,1,888,0.84697699546814,keyboard,keyboard,0.7,0888_hp_s03_0.7_keyboard_10_n04505470_4704.png
subject-03,1,889,1.10537505149841,cat,oven,0.7,0889_hp_s03_0.7_oven_10_n04111531_605.png
subject-03,1,890,1.10159516334534,oven,boat,0.55,0890_hp_s03_0.55_boat_10_n03344393_2434.png
subject-03,1,891,1.43018698692322,bird,keyboard,0.4,0891_hp_s03_0.4_keyboard_10_n04505470_4757.png
subject-03,1,892,1.14457106590271,car,airplane,0.7,0892_hp_s03_0.7_airplane_10_n02690373_13317.png
subject-03,1,893,1.00310492515564,cat,bicycle,0.45,0893_hp_s03_0.45_bicycle_10_n03792782_20720.png
subject-03,1,894,1.48305678367615,bear,bear,3,0894_hp_s03_3_bear_10_n02134418_4465.png
subject-03,1,895,1.3493480682373,elephant,elephant,0.4,0895_hp_s03_0.4_elephant_10_n02504458_7144.png
subject-03,1,896,0.831418037414551,bottle,elephant,0.55,0896_hp_s03_0.55_elephant_10_n02504458_7342.png
subject-03,1,897,0.897644996643066,boat,bear,0.7,0897_hp_s03_0.7_bear_10_n02134084_134.png
subject-03,1,898,0.955732107162476,cat,elephant,0.55,0898_hp_s03_0.55_elephant_10_n02504458_8341.png
subject-03,1,899,1.39041304588318,bird,cat,inf,0899_hp_s03_inf_cat_10_n02123597_5059.png
subject-03,1,900,0.934588193893433,boat,boat,3,0900_hp_s03_3_boat_10_n03662601_3800.png
subject-03,1,901,1.0388298034668,car,car,0.7,0901_hp_s03_0.7_car_10_n02814533_48348.png
subject-03,1,902,1.19733190536499,cat,clock,0.4,0902_hp_s03_0.4_clock_10_n02708093_3159.png
subject-03,1,903,1.11802411079407,dog,boat,0.4,0903_hp_s03_0.4_boat_10_n03662601_20834.png
subject-03,1,904,0.999819040298462,keyboard,keyboard,1,0904_hp_s03_1_keyboard_10_n03085013_24668.png
subject-03,1,905,0.782082080841064,airplane,airplane,1.5,0905_hp_s03_1.5_airplane_10_n02690373_1996.png
subject-03,1,906,1.00819301605225,oven,chair,inf,0906_hp_s03_inf_chair_10_n02791124_13720.png
subject-03,1,907,1.02871489524841,cat,bottle,0.4,0907_hp_s03_0.4_bottle_10_n02823428_3951.png
subject-03,1,908,1.05726599693298,bottle,bottle,3,0908_hp_s03_3_bottle_10_n03937543_3347.png
subject-03,1,909,0.677324056625366,keyboard,keyboard,0.7,0909_hp_s03_0.7_keyboard_10_n04505470_5346.png
subject-03,1,910,1.10295510292053,cat,bear,0.4,0910_hp_s03_0.4_bear_10_n02133161_3580.png
subject-03,1,911,1.29128193855286,keyboard,oven,1,0911_hp_s03_1_oven_10_n04111531_13520.png
subject-03,1,912,0.88933801651001,airplane,airplane,1.5,0912_hp_s03_1.5_airplane_10_n02690373_5797.png
subject-03,1,913,1.39213895797729,bird,bicycle,0.4,0913_hp_s03_0.4_bicycle_10_n03792782_7426.png
subject-03,1,914,0.806670904159546,cat,bear,inf,0914_hp_s03_inf_bear_10_n02134084_3894.png
subject-03,1,915,1.29911398887634,bird,bird,1.5,0915_hp_s03_1.5_bird_10_n01820546_3806.png
subject-03,1,916,0.643635034561157,keyboard,keyboard,1.5,0916_hp_s03_1.5_keyboard_10_n04505470_4543.png
subject-03,1,917,1.10191106796265,bird,airplane,0.4,0917_hp_s03_0.4_airplane_10_n02690373_1087.png
subject-03,1,918,0.976002931594849,cat,bicycle,0.45,0918_hp_s03_0.45_bicycle_10_n03792782_10876.png
subject-03,1,919,0.902801990509033,chair,chair,3,0919_hp_s03_3_chair_10_n03376595_14143.png
subject-03,1,920,1.04710698127747,cat,dog,0.45,0920_hp_s03_0.45_dog_10_n02112350_8364.png
subject-03,1,921,1.45751094818115,cat,cat,1,0921_hp_s03_1_cat_10_n02123045_432.png
subject-03,1,922,1.22589206695557,bear,bear,inf,0922_hp_s03_inf_bear_10_n02132136_8540.png
subject-03,1,923,0.88456392288208,oven,chair,inf,0923_hp_s03_inf_chair_10_n02791124_1737.png
subject-03,1,924,1.29701399803162,chair,chair,1,0924_hp_s03_1_chair_10_n02791124_1430.png
subject-03,1,925,1.40181803703308,bird,cat,0.4,0925_hp_s03_0.4_cat_10_n02123597_8331.png
subject-03,1,926,0.906007051467896,oven,bird,1,0926_hp_s03_1_bird_10_n01843383_6599.png
subject-03,1,927,0.934464931488037,cat,bear,0.7,0927_hp_s03_0.7_bear_10_n02134418_2604.png
subject-03,1,928,0.717120170593262,keyboard,keyboard,1,0928_hp_s03_1_keyboard_10_n03085013_21300.png
subject-03,1,929,0.751353979110718,bottle,bottle,inf,0929_hp_s03_inf_bottle_10_n04560804_15812.png
subject-03,1,930,1.50032186508179,bottle,chair,inf,0930_hp_s03_inf_chair_10_n04429376_23039.png
subject-03,1,931,1.07357716560364,cat,bottle,0.45,0931_hp_s03_0.45_bottle_10_n02823428_2183.png
subject-03,1,932,1.25608396530151,bird,elephant,0.45,0932_hp_s03_0.45_elephant_10_n02504013_3500.png
subject-03,1,933,1.08995008468628,cat,bird,0.4,0933_hp_s03_0.4_bird_10_n02017213_6024.png
subject-03,1,934,1.47008109092712,boat,airplane,3,0934_hp_s03_3_airplane_10_n02690373_4851.png
subject-03,1,935,0.68461799621582,keyboard,keyboard,1.5,0935_hp_s03_1.5_keyboard_10_n03085013_3539.png
subject-03,1,936,1.23482489585876,oven,dog,0.7,0936_hp_s03_0.7_dog_10_n02105251_8416.png
subject-03,1,937,1.25554800033569,bird,dog,0.55,0937_hp_s03_0.55_dog_10_n02092339_7551.png
subject-03,1,938,0.883875846862793,cat,boat,0.7,0938_hp_s03_0.7_boat_10_n03344393_994.png
subject-03,1,939,1.27198600769043,boat,bicycle,1,0939_hp_s03_1_bicycle_10_n03792782_4068.png
subject-03,1,940,1.27635908126831,car,truck,1,0940_hp_s03_1_truck_10_n03417042_5748.png
subject-03,1,941,0.934840202331543,boat,boat,0.55,0941_hp_s03_0.55_boat_10_n04273569_2942.png
subject-03,1,942,1.05528998374939,bicycle,bicycle,0.7,0942_hp_s03_0.7_bicycle_10_n02835271_25149.png
subject-03,1,943,1.23768901824951,bird,bird,3,0943_hp_s03_3_bird_10_n01843065_6246.png
subject-03,1,944,0.895874977111816,cat,boat,0.7,0944_hp_s03_0.7_boat_10_n03344393_13584.png
subject-03,1,945,0.756015062332153,keyboard,chair,1.5,0945_hp_s03_1.5_chair_10_n03376595_2419.png
subject-03,1,946,1.50009894371033,truck,truck,1,0946_hp_s03_1_truck_10_n04467665_55499.png
subject-03,1,947,NaN,na,cat,0.7,0947_hp_s03_0.7_cat_10_n02123394_5819.png
subject-03,1,948,0.993163824081421,cat,truck,0.45,0948_hp_s03_0.45_truck_10_n03417042_5843.png
subject-03,1,949,1.13571095466614,keyboard,bear,1,0949_hp_s03_1_bear_10_n02133161_4864.png
subject-03,1,950,1.23233413696289,oven,chair,1,0950_hp_s03_1_chair_10_n03376595_1861.png
subject-03,1,951,1.08432698249817,knife,knife,1,0951_hp_s03_1_knife_10_n03041632_31363.png
subject-03,1,952,0.909976959228516,cat,cat,inf,0952_hp_s03_inf_cat_10_n02124075_14132.png
subject-03,1,953,1.32191395759583,bird,bird,0.4,0953_hp_s03_0.4_bird_10_n02006656_9815.png
subject-03,1,954,0.971589803695679,oven,bird,0.7,0954_hp_s03_0.7_bird_10_n01843065_9844.png
subject-03,1,955,1.43573594093323,car,car,0.55,0955_hp_s03_0.55_car_10_n04285008_6899.png
subject-03,1,956,1.06364011764526,cat,dog,0.4,0956_hp_s03_0.4_dog_10_n02106030_11415.png
subject-03,1,957,0.745515108108521,bicycle,bicycle,1.5,0957_hp_s03_1.5_bicycle_10_n03792782_51149.png
subject-03,1,958,1.41816306114197,bird,clock,0.45,0958_hp_s03_0.45_clock_10_n04548280_9473.png
subject-03,1,959,1.05467700958252,car,car,1.5,0959_hp_s03_1.5_car_10_n02814533_13601.png
subject-03,1,960,0.89128589630127,bicycle,clock,0.55,0960_hp_s03_0.55_clock_10_n02708093_3262.png
subject-03,1,961,1.12221384048462,bird,truck,0.4,0961_hp_s03_0.4_truck_10_n03796401_19058.png
subject-03,1,962,0.750708818435669,cat,chair,0.45,0962_hp_s03_0.45_chair_10_n03376595_7154.png
subject-03,1,963,1.2011730670929,boat,dog,0.55,0963_hp_s03_0.55_dog_10_n02106030_5627.png
subject-03,1,964,0.937527894973755,cat,boat,0.4,0964_hp_s03_0.4_boat_10_n02951358_23544.png
subject-03,1,965,1.08205914497375,knife,bottle,1.5,0965_hp_s03_1.5_bottle_10_n03983396_76.png
subject-03,1,966,1.50016808509827,oven,keyboard,0.7,0966_hp_s03_0.7_keyboard_10_n03085013_20675.png
subject-03,1,967,0.760318040847778,bicycle,bicycle,3,0967_hp_s03_3_bicycle_10_n03792782_2809.png
subject-03,1,968,1.01070404052734,boat,bird,0.7,0968_hp_s03_0.7_bird_10_n01530575_7926.png
subject-03,1,969,1.50030612945557,dog,cat,1.5,0969_hp_s03_1.5_cat_10_n02123394_2935.png
subject-03,1,970,1.15145587921143,boat,truck,0.45,0970_hp_s03_0.45_truck_10_n04467665_9833.png
subject-03,1,971,0.963731050491333,oven,keyboard,1,0971_hp_s03_1_keyboard_10_n04505470_4540.png
subject-03,1,972,1.02992510795593,bicycle,bicycle,1,0972_hp_s03_1_bicycle_10_n02835271_23845.png
subject-03,1,973,1.15012097358704,boat,cat,0.4,0973_hp_s03_0.4_cat_10_n02123394_4125.png
subject-03,1,974,0.940625905990601,airplane,airplane,inf,0974_hp_s03_inf_airplane_10_n02690373_1891.png
subject-03,1,975,0.937071084976196,boat,boat,inf,0975_hp_s03_inf_boat_10_n02951358_11022.png
subject-03,1,976,0.819261074066162,cat,bicycle,0.4,0976_hp_s03_0.4_bicycle_10_n03792782_7544.png
subject-03,1,977,1.03204917907715,bird,keyboard,0.4,0977_hp_s03_0.4_keyboard_10_n04505470_8469.png
subject-03,1,978,1.04423809051514,cat,bicycle,0.55,0978_hp_s03_0.55_bicycle_10_n03792782_1124.png
subject-03,1,979,0.964542150497437,keyboard,keyboard,3,0979_hp_s03_3_keyboard_10_n04505470_3499.png
subject-03,1,980,1.01709389686584,clock,clock,3,0980_hp_s03_3_clock_10_n04548280_353.png
subject-03,1,981,1.15151619911194,airplane,airplane,1,0981_hp_s03_1_airplane_10_n02690373_8123.png
subject-03,1,982,1.11779594421387,cat,oven,0.55,0982_hp_s03_0.55_oven_10_n04111531_6172.png
subject-03,1,983,1.0460410118103,cat,keyboard,0.4,0983_hp_s03_0.4_keyboard_10_n03085013_23201.png
subject-03,1,984,0.834631204605103,bottle,bottle,1.5,0984_hp_s03_1.5_bottle_10_n03983396_5817.png
subject-03,1,985,1.34662818908691,bird,airplane,0.4,0985_hp_s03_0.4_airplane_10_n02690373_8711.png
subject-03,1,986,0.737011194229126,cat,dog,0.4,0986_hp_s03_0.4_dog_10_n02093754_5205.png
subject-03,1,987,1.11145687103271,cat,airplane,0.45,0987_hp_s03_0.45_airplane_10_n02690373_8666.png
subject-03,1,988,0.832059144973755,boat,boat,1,0988_hp_s03_1_boat_10_n03344393_6458.png
subject-03,1,989,0.898649930953979,keyboard,bottle,1.5,0989_hp_s03_1.5_bottle_10_n04560804_332.png
subject-03,1,990,0.994811058044434,cat,clock,0.55,0990_hp_s03_0.55_clock_10_n04548280_7781.png
subject-03,1,991,0.893524169921875,bird,knife,0.4,0991_hp_s03_0.4_knife_10_n03041632_31909.png
subject-03,1,992,0.934788942337036,cat,knife,0.4,0992_hp_s03_0.4_knife_10_n03041632_33075.png
subject-03,1,993,1.32332301139832,airplane,truck,0.55,0993_hp_s03_0.55_truck_10_n04467665_40002.png
subject-03,1,994,1.11981511116028,oven,chair,0.55,0994_hp_s03_0.55_chair_10_n02791124_4942.png
subject-03,1,995,1.09448003768921,bird,bird,1.5,0995_hp_s03_1.5_bird_10_n01795545_4228.png
subject-03,1,996,1.19303488731384,cat,chair,0.55,0996_hp_s03_0.55_chair_10_n04099969_2038.png
subject-03,1,997,1.34310483932495,cat,chair,0.45,0997_hp_s03_0.45_chair_10_n04099969_763.png
subject-03,1,998,NaN,na,bicycle,0.55,0998_hp_s03_0.55_bicycle_10_n03792782_27375.png
subject-03,1,999,0.883445024490356,oven,oven,inf,0999_hp_s03_inf_oven_10_n04111531_20511.png
subject-03,1,1000,1.2262179851532,cat,keyboard,0.45,1000_hp_s03_0.45_keyboard_10_n03085013_23316.png
subject-03,1,1001,1.37687802314758,bird,truck,0.45,1001_hp_s03_0.45_truck_10_n03796401_9642.png
subject-03,1,1002,1.27546405792236,bird,elephant,0.4,1002_hp_s03_0.4_elephant_10_n02504013_701.png
subject-03,1,1003,1.28793096542358,dog,car,0.4,1003_hp_s03_0.4_car_10_n02814533_19407.png
subject-03,1,1004,NaN,na,truck,0.55,1004_hp_s03_0.55_truck_10_n04467665_21379.png
subject-03,1,1005,1.02026104927063,keyboard,keyboard,3,1005_hp_s03_3_keyboard_10_n03085013_19345.png
subject-03,1,1006,1.00271105766296,bird,dog,1.5,1006_hp_s03_1.5_dog_10_n02097130_9426.png
subject-03,1,1007,1.26867079734802,boat,knife,0.7,1007_hp_s03_0.7_knife_10_n03041632_41077.png
subject-03,1,1008,1.02679204940796,bear,bear,3,1008_hp_s03_3_bear_10_n02134084_17155.png
subject-03,1,1009,1.13918614387512,bird,cat,0.55,1009_hp_s03_0.55_cat_10_n02125311_73576.png
subject-03,1,1010,1.05076909065247,cat,bicycle,0.45,1010_hp_s03_0.45_bicycle_10_n02835271_17326.png
subject-03,1,1011,1.10130310058594,boat,boat,3,1011_hp_s03_3_boat_10_n04273569_281.png
subject-03,1,1012,1.15144300460815,bird,elephant,0.45,1012_hp_s03_0.45_elephant_10_n02504013_5899.png
subject-03,1,1013,0.857671022415161,clock,clock,inf,1013_hp_s03_inf_clock_10_n03196217_8999.png
subject-03,1,1014,0.962054014205933,cat,clock,0.45,1014_hp_s03_0.45_clock_10_n03196217_6312.png
subject-03,1,1015,1.23633217811584,cat,cat,1,1015_hp_s03_1_cat_10_n02125311_21963.png
subject-03,1,1016,1.31687903404236,dog,cat,1,1016_hp_s03_1_cat_10_n02123045_9725.png
subject-03,1,1017,0.793205976486206,keyboard,keyboard,inf,1017_hp_s03_inf_keyboard_10_n04505470_4549.png
subject-03,1,1018,1.37396001815796,airplane,airplane,0.7,1018_hp_s03_0.7_airplane_10_n02690373_1426.png
subject-03,1,1019,1.21822690963745,dog,dog,1.5,1019_hp_s03_1.5_dog_10_n02109961_45934.png
subject-03,1,1020,1.10879302024841,cat,cat,0.45,1020_hp_s03_0.45_cat_10_n02123394_9015.png
subject-03,1,1021,0.891113996505737,knife,knife,3,1021_hp_s03_3_knife_10_n03041632_45622.png
subject-03,1,1022,0.657696008682251,bottle,bottle,1,1022_hp_s03_1_bottle_10_n02823428_330.png
subject-03,1,1023,1.16976618766785,cat,cat,inf,1023_hp_s03_inf_cat_10_n02123045_13015.png
subject-03,1,1024,1.27445507049561,dog,dog,1,1024_hp_s03_1_dog_10_n02107574_5292.png
subject-03,1,1025,1.11069512367249,cat,clock,0.4,1025_hp_s03_0.4_clock_10_n03196217_4920.png
subject-03,1,1026,1.27506113052368,bird,elephant,1.5,1026_hp_s03_1.5_elephant_10_n02504013_3384.png
subject-03,1,1027,1.01167106628418,cat,bird,0.4,1027_hp_s03_0.4_bird_10_n02018795_8710.png
subject-03,1,1028,NaN,na,chair,0.4,1028_hp_s03_0.4_chair_10_n03376595_3233.png
subject-03,1,1029,0.900574922561646,oven,truck,1,1029_hp_s03_1_truck_10_n04467665_47602.png
subject-03,1,1030,1.05909609794617,keyboard,cat,0.7,1030_hp_s03_0.7_cat_10_n02123394_10288.png
subject-03,1,1031,0.86388111114502,bear,bear,inf,1031_hp_s03_inf_bear_10_n02134084_33483.png
subject-03,1,1032,1.13507699966431,cat,knife,0.7,1032_hp_s03_0.7_knife_10_n03041632_32197.png
subject-03,1,1033,1.07909679412842,oven,chair,1,1033_hp_s03_1_chair_10_n04099969_17424.png
subject-03,1,1034,0.991253852844238,cat,knife,0.4,1034_hp_s03_0.4_knife_10_n03041632_4806.png
subject-03,1,1035,0.765815019607544,clock,clock,1,1035_hp_s03_1_clock_10_n04548280_6811.png
subject-03,1,1036,1.11623406410217,dog,bear,1.5,1036_hp_s03_1.5_bear_10_n02134418_2871.png
subject-03,1,1037,1.0687620639801,oven,truck,1,1037_hp_s03_1_truck_10_n03796401_40.png
subject-03,1,1038,1.18078398704529,bottle,chair,1.5,1038_hp_s03_1.5_chair_10_n02791124_4294.png
subject-03,1,1039,0.831394910812378,airplane,airplane,1.5,1039_hp_s03_1.5_airplane_10_n02690373_4641.png
subject-03,1,1040,1.06800603866577,bird,cat,inf,1040_hp_s03_inf_cat_10_n02123597_12157.png
subject-03,1,1041,0.785494089126587,clock,clock,inf,1041_hp_s03_inf_clock_10_n03196217_6217.png
subject-03,1,1042,1.1298999786377,bottle,chair,1.5,1042_hp_s03_1.5_chair_10_n04099969_16273.png
subject-03,1,1043,1.24800109863281,dog,bear,1,1043_hp_s03_1_bear_10_n02132136_14595.png
subject-03,1,1044,1.35188698768616,bird,bottle,1.5,1044_hp_s03_1.5_bottle_10_n03937543_1927.png
subject-03,1,1045,1.02602505683899,knife,bear,0.7,1045_hp_s03_0.7_bear_10_n02134084_9722.png
subject-03,1,1046,0.908498048782349,cat,bicycle,0.7,1046_hp_s03_0.7_bicycle_10_n02835271_4003.png
subject-03,1,1047,0.928575992584229,bird,bottle,0.55,1047_hp_s03_0.55_bottle_10_n03983396_18628.png
subject-03,1,1048,NaN,na,bicycle,1,1048_hp_s03_1_bicycle_10_n03792782_4923.png
subject-03,1,1049,0.615066051483154,keyboard,keyboard,3,1049_hp_s03_3_keyboard_10_n03085013_6644.png
subject-03,1,1050,0.92732310295105,bicycle,bicycle,3,1050_hp_s03_3_bicycle_10_n02835271_4654.png
subject-03,1,1051,1.31592607498169,bird,oven,0.45,1051_hp_s03_0.45_oven_10_n04111531_1330.png
subject-03,1,1052,1.06838297843933,dog,dog,inf,1052_hp_s03_inf_dog_10_n02109525_5682.png
subject-03,1,1053,1.32720112800598,bird,keyboard,0.45,1053_hp_s03_0.45_keyboard_10_n03085013_3264.png
subject-03,1,1054,1.01716089248657,cat,elephant,0.55,1054_hp_s03_0.55_elephant_10_n02504013_3564.png
subject-03,1,1055,1.42759609222412,knife,knife,1,1055_hp_s03_1_knife_10_n03041632_14224.png
subject-03,1,1056,1.01730298995972,keyboard,keyboard,inf,1056_hp_s03_inf_keyboard_10_n04505470_4202.png
subject-03,1,1057,1.49791502952576,airplane,airplane,inf,1057_hp_s03_inf_airplane_10_n02690373_8846.png
subject-03,1,1058,0.92028284072876,boat,boat,0.55,1058_hp_s03_0.55_boat_10_n03662601_6399.png
subject-03,1,1059,1.26287317276001,knife,airplane,0.7,1059_hp_s03_0.7_airplane_10_n02690373_8175.png
subject-03,1,1060,1.37550783157349,keyboard,oven,inf,1060_hp_s03_inf_oven_10_n04111531_1303.png
subject-03,1,1061,1.31982803344727,airplane,airplane,1.5,1061_hp_s03_1.5_airplane_10_n02690373_7053.png
subject-03,1,1062,1.01036500930786,bird,bear,0.4,1062_hp_s03_0.4_bear_10_n02132136_10920.png
subject-03,1,1063,0.844585180282593,cat,keyboard,0.55,1063_hp_s03_0.55_keyboard_10_n03085013_4012.png
subject-03,1,1064,1.29497504234314,bottle,car,0.4,1064_hp_s03_0.4_car_10_n04285008_8612.png
subject-03,1,1065,1.09350395202637,bicycle,car,1.5,1065_hp_s03_1.5_car_10_n04285008_4834.png
subject-03,1,1066,1.05993795394897,cat,airplane,0.45,1066_hp_s03_0.45_airplane_10_n02690373_464.png
subject-03,1,1067,1.23247599601746,bird,bird,inf,1067_hp_s03_inf_bird_10_n01582220_11384.png
subject-03,1,1068,1.34467887878418,bottle,bear,0.45,1068_hp_s03_0.45_bear_10_n02134084_143.png
subject-03,1,1069,1.04270100593567,keyboard,clock,0.7,1069_hp_s03_0.7_clock_10_n03196217_1387.png
subject-03,1,1070,1.13319396972656,cat,dog,3,1070_hp_s03_3_dog_10_n02110806_10420.png
subject-03,1,1071,0.975807905197144,knife,knife,1,1071_hp_s03_1_knife_10_n03041632_20194.png
subject-03,1,1072,1.19614505767822,oven,bicycle,0.55,1072_hp_s03_0.55_bicycle_10_n03792782_64005.png
subject-03,1,1073,1.00291204452515,cat,truck,0.45,1073_hp_s03_0.45_truck_10_n04467665_67853.png
subject-03,1,1074,1.10723614692688,bird,boat,1,1074_hp_s03_1_boat_10_n04273569_7291.png
subject-03,1,1075,0.819047927856445,keyboard,keyboard,1.5,1075_hp_s03_1.5_keyboard_10_n04505470_4776.png
subject-03,1,1076,0.846144914627075,bicycle,bicycle,3,1076_hp_s03_3_bicycle_10_n03792782_12442.png
subject-03,1,1077,0.994318962097168,cat,boat,0.4,1077_hp_s03_0.4_boat_10_n03344393_9863.png
subject-03,1,1078,1.09089517593384,knife,knife,3,1078_hp_s03_3_knife_10_n03041632_26933.png
