subj,session,trial,rt,object_response,category,condition,imagename
subject-02,1,1,0.787014961242676,bicycle,bicycle,1.5,0001_hp_s02_1.5_bicycle_10_n02835271_1525.png
subject-02,1,2,0.957194089889526,bird,bicycle,0.45,0002_hp_s02_0.45_bicycle_10_n03792782_14931.png
subject-02,1,3,0.787675142288208,car,knife,0.4,0003_hp_s02_0.4_knife_10_n03041632_15754.png
subject-02,1,4,0.518308877944946,cat,cat,1.5,0004_hp_s02_1.5_cat_10_n02123159_5325.png
subject-02,1,5,0.464627981185913,bear,bear,inf,0005_hp_s02_inf_bear_10_n02134418_5391.png
subject-02,1,6,0.580783843994141,bird,bird,inf,0006_hp_s02_inf_bird_10_n02013706_936.png
subject-02,1,7,0.6352698802948,keyboard,keyboard,inf,0007_hp_s02_inf_keyboard_10_n04505470_4467.png
subject-02,1,8,0.736233949661255,car,car,1.5,0008_hp_s02_1.5_car_10_n04285008_2942.png
subject-02,1,9,0.658519983291626,airplane,airplane,inf,0009_hp_s02_inf_airplane_10_n02690373_5277.png
subject-02,1,10,0.630131006240845,chair,chair,1.5,0010_hp_s02_1.5_chair_10_n03376595_7081.png
subject-02,1,11,0.784210920333862,elephant,elephant,1.5,0011_hp_s02_1.5_elephant_10_n02504458_4708.png
subject-02,1,12,0.830785036087036,cat,truck,0.4,0012_hp_s02_0.4_truck_10_n03417042_18450.png
subject-02,1,13,0.847432851791382,oven,cat,0.4,0013_hp_s02_0.4_cat_10_n02123597_5927.png
subject-02,1,14,0.839865922927856,keyboard,boat,1,0014_hp_s02_1_boat_10_n03662601_34149.png
subject-02,1,15,0.494457960128784,keyboard,keyboard,1,0015_hp_s02_1_keyboard_10_n04505470_1416.png
subject-02,1,16,1.04092383384705,knife,knife,1,0016_hp_s02_1_knife_10_n03041632_30248.png
subject-02,1,17,0.887248992919922,truck,bird,0.4,0017_hp_s02_0.4_bird_10_n02009229_1807.png
subject-02,1,18,0.687480926513672,bottle,bottle,1.5,0018_hp_s02_1.5_bottle_10_n04557648_6282.png
subject-02,1,19,0.741946935653687,bird,bird,1.5,0019_hp_s02_1.5_bird_10_n01819313_4091.png
subject-02,1,20,1.12664103507996,bear,oven,0.4,0020_hp_s02_0.4_oven_10_n04111531_22097.png
subject-02,1,21,1.177973985672,airplane,bird,1,0021_hp_s02_1_bird_10_n02027492_12501.png
subject-02,1,22,1.0323338508606,clock,clock,0.4,0022_hp_s02_0.4_clock_10_n02708093_321.png
subject-02,1,23,1.03262400627136,bottle,dog,0.45,0023_hp_s02_0.45_dog_10_n02099267_3007.png
subject-02,1,24,0.687268018722534,car,car,3,0024_hp_s02_3_car_10_n04285008_5869.png
subject-02,1,25,0.826084136962891,truck,oven,0.45,0025_hp_s02_0.45_oven_10_n04111531_14753.png
subject-02,1,26,1.00208902359009,chair,knife,3,0026_hp_s02_3_knife_10_n03041632_28710.png
subject-02,1,27,0.872714042663574,clock,bottle,0.4,0027_hp_s02_0.4_bottle_10_n03937543_2941.png
subject-02,1,28,0.84315299987793,airplane,airplane,3,0028_hp_s02_3_airplane_10_n02690373_5624.png
subject-02,1,29,0.751677989959717,chair,cat,1,0029_hp_s02_1_cat_10_n02123597_2323.png
subject-02,1,30,0.998151063919067,car,truck,0.55,0030_hp_s02_0.55_truck_10_n03417042_1991.png
subject-02,1,31,0.760765075683594,truck,truck,1.5,0031_hp_s02_1.5_truck_10_n03417042_4200.png
subject-02,1,32,0.861001014709473,bird,knife,0.4,0032_hp_s02_0.4_knife_10_n03041632_39836.png
subject-02,1,33,1.02153301239014,oven,bottle,0.7,0033_hp_s02_0.7_bottle_10_n03937543_9003.png
subject-02,1,34,0.792029857635498,bottle,bird,0.4,0034_hp_s02_0.4_bird_10_n01514859_10845.png
subject-02,1,35,0.730611085891724,keyboard,keyboard,0.7,0035_hp_s02_0.7_keyboard_10_n04505470_2623.png
subject-02,1,36,0.717216014862061,airplane,airplane,inf,0036_hp_s02_inf_airplane_10_n02690373_763.png
subject-02,1,37,1.07742094993591,dog,bicycle,inf,0037_hp_s02_inf_bicycle_10_n03792782_1769.png
subject-02,1,38,0.940211057662964,bicycle,dog,0.4,0038_hp_s02_0.4_dog_10_n02102973_7037.png
subject-02,1,39,0.634695053100586,bottle,bottle,1,0039_hp_s02_1_bottle_10_n03983396_16742.png
subject-02,1,40,0.610719203948975,cat,cat,0.7,0040_hp_s02_0.7_cat_10_n02123394_3144.png
subject-02,1,41,0.573222875595093,bottle,bottle,3,0041_hp_s02_3_bottle_10_n03983396_9604.png
subject-02,1,42,0.757571935653687,bear,dog,0.55,0042_hp_s02_0.55_dog_10_n02092002_7744.png
subject-02,1,43,0.828332185745239,airplane,boat,0.55,0043_hp_s02_0.55_boat_10_n02951358_31973.png
subject-02,1,44,0.698585987091064,airplane,airplane,inf,0044_hp_s02_inf_airplane_10_n02690373_5587.png
subject-02,1,45,0.67522406578064,bicycle,bicycle,1.5,0045_hp_s02_1.5_bicycle_10_n03792782_56348.png
subject-02,1,46,0.513705968856812,bottle,bottle,inf,0046_hp_s02_inf_bottle_10_n03937543_4062.png
subject-02,1,47,0.646174907684326,cat,cat,1.5,0047_hp_s02_1.5_cat_10_n02123045_9059.png
subject-02,1,48,0.754579067230225,elephant,oven,0.45,0048_hp_s02_0.45_oven_10_n04111531_9805.png
subject-02,1,49,0.585155963897705,keyboard,keyboard,1.5,0049_hp_s02_1.5_keyboard_10_n04505470_4363.png
subject-02,1,50,0.655784845352173,bear,bear,1.5,0050_hp_s02_1.5_bear_10_n02134418_2429.png
subject-02,1,51,0.948031902313232,car,chair,0.7,0051_hp_s02_0.7_chair_10_n04099969_9444.png
subject-02,1,52,0.786349773406982,bear,dog,1,0052_hp_s02_1_dog_10_n02086910_10565.png
subject-02,1,53,1.21671414375305,elephant,bear,0.7,0053_hp_s02_0.7_bear_10_n02134418_11602.png
subject-02,1,54,0.863285064697266,bicycle,dog,0.45,0054_hp_s02_0.45_dog_10_n02109961_787.png
subject-02,1,55,0.549717903137207,keyboard,keyboard,3,0055_hp_s02_3_keyboard_10_n03085013_6424.png
subject-02,1,56,0.750494003295898,oven,keyboard,0.45,0056_hp_s02_0.45_keyboard_10_n04505470_4944.png
subject-02,1,57,0.888757944107056,dog,dog,3,0057_hp_s02_3_dog_10_n02106166_1611.png
subject-02,1,58,0.619691133499146,boat,clock,0.4,0058_hp_s02_0.4_clock_10_n03196217_845.png
subject-02,1,59,0.689750194549561,chair,car,1.5,0059_hp_s02_1.5_car_10_n02814533_23456.png
subject-02,1,60,0.598468065261841,elephant,elephant,3,0060_hp_s02_3_elephant_10_n02504013_7139.png
subject-02,1,61,0.860985040664673,bird,bear,0.7,0061_hp_s02_0.7_bear_10_n02134084_8265.png
subject-02,1,62,0.837238788604736,boat,boat,0.7,0062_hp_s02_0.7_boat_10_n03344393_3978.png
subject-02,1,63,1.00006103515625,bottle,bottle,inf,0063_hp_s02_inf_bottle_10_n03983396_5934.png
subject-02,1,64,0.654504060745239,car,oven,0.4,0064_hp_s02_0.4_oven_10_n04111531_14279.png
subject-02,1,65,0.818773984909058,bicycle,keyboard,0.4,0065_hp_s02_0.4_keyboard_10_n04505470_4741.png
subject-02,1,66,0.481261014938354,oven,oven,inf,0066_hp_s02_inf_oven_10_n04111531_1847.png
subject-02,1,67,0.665845155715942,knife,knife,inf,0067_hp_s02_inf_knife_10_n03041632_41077.png
subject-02,1,68,1.06620311737061,oven,elephant,0.55,0068_hp_s02_0.55_elephant_10_n02504013_4379.png
subject-02,1,69,0.766700029373169,boat,truck,0.45,0069_hp_s02_0.45_truck_10_n03796401_1789.png
subject-02,1,70,0.44528603553772,keyboard,keyboard,inf,0070_hp_s02_inf_keyboard_10_n03085013_805.png
subject-02,1,71,0.661643028259277,elephant,elephant,3,0071_hp_s02_3_elephant_10_n02504013_23628.png
subject-02,1,72,0.484498977661133,car,car,1.5,0072_hp_s02_1.5_car_10_n04285008_9232.png
subject-02,1,73,0.600573062896729,bicycle,bicycle,3,0073_hp_s02_3_bicycle_10_n03792782_1344.png
subject-02,1,74,0.622772932052612,boat,cat,0.4,0074_hp_s02_0.4_cat_10_n02125311_8602.png
subject-02,1,75,0.901072978973389,oven,chair,1,0075_hp_s02_1_chair_10_n04429376_107.png
subject-02,1,76,0.731788873672485,truck,truck,1,0076_hp_s02_1_truck_10_n04467665_9941.png
subject-02,1,77,0.616273880004883,boat,bear,0.45,0077_hp_s02_0.45_bear_10_n02134418_2534.png
subject-02,1,78,0.686663866043091,oven,oven,3,0078_hp_s02_3_oven_10_n04111531_13101.png
subject-02,1,79,0.995059967041016,bird,oven,0.7,0079_hp_s02_0.7_oven_10_n04111531_9881.png
subject-02,1,80,0.887519121170044,dog,dog,1.5,0080_hp_s02_1.5_dog_10_n02086646_8772.png
subject-02,1,81,0.704116106033325,dog,dog,3,0081_hp_s02_3_dog_10_n02109961_46304.png
subject-02,1,82,0.818442106246948,cat,bird,0.4,0082_hp_s02_0.4_bird_10_n01531178_5029.png
subject-02,1,83,1.04025793075562,elephant,chair,0.55,0083_hp_s02_0.55_chair_10_n04429376_25110.png
subject-02,1,84,0.819143056869507,bird,bird,1.5,0084_hp_s02_1.5_bird_10_n01855672_10040.png
subject-02,1,85,0.619082927703857,keyboard,keyboard,0.7,0085_hp_s02_0.7_keyboard_10_n03085013_20849.png
subject-02,1,86,0.733415126800537,boat,boat,inf,0086_hp_s02_inf_boat_10_n04612504_27085.png
subject-02,1,87,0.804117918014526,elephant,bear,1.5,0087_hp_s02_1.5_bear_10_n02133161_6351.png
subject-02,1,88,1.20238900184631,truck,truck,inf,0088_hp_s02_inf_truck_10_n03796401_106.png
subject-02,1,89,0.634742021560669,keyboard,keyboard,1,0089_hp_s02_1_keyboard_10_n04505470_3659.png
subject-02,1,90,0.949460983276367,car,cat,0.55,0090_hp_s02_0.55_cat_10_n02123394_5904.png
subject-02,1,91,1.04960107803345,oven,truck,0.55,0091_hp_s02_0.55_truck_10_n03796401_1710.png
subject-02,1,92,0.674276113510132,dog,dog,inf,0092_hp_s02_inf_dog_10_n02107683_3987.png
subject-02,1,93,1.05870699882507,truck,truck,0.55,0093_hp_s02_0.55_truck_10_n04467665_69877.png
subject-02,1,94,0.667160034179688,oven,knife,1,0094_hp_s02_1_knife_10_n03041632_85488.png
subject-02,1,95,0.629572868347168,boat,boat,0.7,0095_hp_s02_0.7_boat_10_n04612504_3657.png
subject-02,1,96,0.682220935821533,boat,boat,3,0096_hp_s02_3_boat_10_n04273569_10275.png
subject-02,1,97,0.922611951828003,bird,truck,0.4,0097_hp_s02_0.4_truck_10_n04467665_42126.png
subject-02,1,98,0.953076839447021,bottle,bicycle,0.55,0098_hp_s02_0.55_bicycle_10_n03792782_25019.png
subject-02,1,99,0.653742074966431,clock,clock,0.7,0099_hp_s02_0.7_clock_10_n04548280_5957.png
subject-02,1,100,0.600028991699219,cat,dog,0.7,0100_hp_s02_0.7_dog_10_n02107683_42.png
subject-02,1,101,0.614577054977417,airplane,airplane,1.5,0101_hp_s02_1.5_airplane_10_n02690373_7115.png
subject-02,1,102,0.769202947616577,bicycle,boat,0.4,0102_hp_s02_0.4_boat_10_n03662601_13963.png
subject-02,1,103,0.723497867584229,bicycle,bicycle,1.5,0103_hp_s02_1.5_bicycle_10_n02835271_16017.png
subject-02,1,104,0.862124919891357,chair,elephant,0.7,0104_hp_s02_0.7_elephant_10_n02504013_2558.png
subject-02,1,105,0.694206953048706,car,car,0.55,0105_hp_s02_0.55_car_10_n03100240_4633.png
subject-02,1,106,0.662800073623657,cat,elephant,0.55,0106_hp_s02_0.55_elephant_10_n02504013_7701.png
subject-02,1,107,0.641464948654175,clock,clock,0.55,0107_hp_s02_0.55_clock_10_n04548280_6068.png
subject-02,1,108,0.787953853607178,dog,oven,0.7,0108_hp_s02_0.7_oven_10_n04111531_10537.png
subject-02,1,109,0.578947782516479,airplane,airplane,0.7,0109_hp_s02_0.7_airplane_10_n02690373_2131.png
subject-02,1,110,0.593510866165161,clock,clock,0.7,0110_hp_s02_0.7_clock_10_n04548280_4035.png
subject-02,1,111,0.686018943786621,keyboard,keyboard,3,0111_hp_s02_3_keyboard_10_n03085013_22217.png
subject-02,1,112,0.986479997634888,knife,chair,0.4,0112_hp_s02_0.4_chair_10_n04099969_12653.png
subject-02,1,113,0.778875112533569,bicycle,bicycle,0.55,0113_hp_s02_0.55_bicycle_10_n02835271_10931.png
subject-02,1,114,0.503528118133545,oven,oven,1,0114_hp_s02_1_oven_10_n04111531_25647.png
subject-02,1,115,0.625993967056274,clock,clock,1,0115_hp_s02_1_clock_10_n03196217_12131.png
subject-02,1,116,0.833988189697266,elephant,elephant,1.5,0116_hp_s02_1.5_elephant_10_n02504458_4869.png
subject-02,1,117,0.648488998413086,airplane,airplane,3,0117_hp_s02_3_airplane_10_n02690373_4763.png
subject-02,1,118,0.789203882217407,boat,keyboard,0.45,0118_hp_s02_0.45_keyboard_10_n04505470_2019.png
subject-02,1,119,0.649507999420166,keyboard,keyboard,inf,0119_hp_s02_inf_keyboard_10_n04505470_5109.png
subject-02,1,120,0.725909948348999,boat,boat,inf,0120_hp_s02_inf_boat_10_n04273569_1938.png
subject-02,1,121,0.812447071075439,chair,chair,0.45,0121_hp_s02_0.45_chair_10_n04099969_381.png
subject-02,1,122,0.743113994598389,bottle,bottle,1,0122_hp_s02_1_bottle_10_n04579145_2593.png
subject-02,1,123,0.973406076431274,knife,knife,0.55,0123_hp_s02_0.55_knife_10_n03041632_2338.png
subject-02,1,124,0.712151050567627,car,keyboard,0.4,0124_hp_s02_0.4_keyboard_10_n04505470_4652.png
subject-02,1,125,0.644355058670044,cat,cat,3,0125_hp_s02_3_cat_10_n02123394_4665.png
subject-02,1,126,0.613165855407715,bird,knife,0.4,0126_hp_s02_0.4_knife_10_n03041632_10136.png
subject-02,1,127,0.791632890701294,bird,bird,1,0127_hp_s02_1_bird_10_n02002556_9083.png
subject-02,1,128,0.90584397315979,knife,bicycle,0.4,0128_hp_s02_0.4_bicycle_10_n02835271_3004.png
subject-02,1,129,0.884868860244751,dog,dog,1.5,0129_hp_s02_1.5_dog_10_n02113978_9245.png
subject-02,1,130,0.553128957748413,keyboard,keyboard,0.55,0130_hp_s02_0.55_keyboard_10_n04505470_3875.png
subject-02,1,131,0.81545090675354,airplane,airplane,0.45,0131_hp_s02_0.45_airplane_10_n02690373_2248.png
subject-02,1,132,0.654050827026367,clock,clock,1,0132_hp_s02_1_clock_10_n03196217_3063.png
subject-02,1,133,0.575738191604614,boat,bird,0.4,0133_hp_s02_0.4_bird_10_n01796340_3668.png
subject-02,1,134,0.584395885467529,bottle,bottle,3,0134_hp_s02_3_bottle_10_n04591713_14142.png
subject-02,1,135,0.646972179412842,truck,boat,0.4,0135_hp_s02_0.4_boat_10_n03344393_7312.png
subject-02,1,136,0.485329866409302,bicycle,bicycle,inf,0136_hp_s02_inf_bicycle_10_n02835271_2686.png
subject-02,1,137,0.645598173141479,oven,clock,0.7,0137_hp_s02_0.7_clock_10_n03196217_1009.png
subject-02,1,138,0.616197109222412,car,cat,0.45,0138_hp_s02_0.45_cat_10_n02124075_5449.png
subject-02,1,139,0.654376029968262,bird,bird,inf,0139_hp_s02_inf_bird_10_n01833805_3566.png
subject-02,1,140,0.725175857543945,airplane,airplane,1.5,0140_hp_s02_1.5_airplane_10_n02690373_17307.png
subject-02,1,141,0.63133978843689,car,car,3,0141_hp_s02_3_car_10_n04285008_17092.png
subject-02,1,142,0.772126913070679,boat,clock,0.4,0142_hp_s02_0.4_clock_10_n04548280_3245.png
subject-02,1,143,0.61664891242981,bear,airplane,0.45,0143_hp_s02_0.45_airplane_10_n02690373_5082.png
subject-02,1,144,0.84102988243103,knife,bird,0.45,0144_hp_s02_0.45_bird_10_n02009229_14277.png
subject-02,1,145,0.763692140579224,dog,dog,3,0145_hp_s02_3_dog_10_n02089867_4888.png
subject-02,1,146,0.663884162902832,bottle,dog,0.4,0146_hp_s02_0.4_dog_10_n02109525_4716.png
subject-02,1,147,0.656376123428345,bicycle,bicycle,0.55,0147_hp_s02_0.55_bicycle_10_n02835271_1691.png
subject-02,1,148,0.572819948196411,bottle,bottle,inf,0148_hp_s02_inf_bottle_10_n03983396_22362.png
subject-02,1,149,0.611752033233643,bottle,bottle,0.7,0149_hp_s02_0.7_bottle_10_n04591713_172.png
subject-02,1,150,0.666006088256836,chair,boat,0.4,0150_hp_s02_0.4_boat_10_n03662601_8757.png
subject-02,1,151,0.504698038101196,cat,cat,inf,0151_hp_s02_inf_cat_10_n02123394_8573.png
subject-02,1,152,0.689229965209961,truck,truck,1.5,0152_hp_s02_1.5_truck_10_n03417042_1149.png
subject-02,1,153,0.580247163772583,car,bottle,0.45,0153_hp_s02_0.45_bottle_10_n04591713_3882.png
subject-02,1,154,0.680552959442139,car,knife,0.55,0154_hp_s02_0.55_knife_10_n03041632_18766.png
subject-02,1,155,0.880987167358398,knife,knife,3,0155_hp_s02_3_knife_10_n03041632_49513.png
subject-02,1,156,0.595500946044922,bird,bird,inf,0156_hp_s02_inf_bird_10_n01796340_5846.png
subject-02,1,157,1.16573095321655,airplane,boat,0.4,0157_hp_s02_0.4_boat_10_n02951358_13996.png
subject-02,1,158,1.10415601730347,bottle,knife,1,0158_hp_s02_1_knife_10_n03041632_3079.png
subject-02,1,159,0.542654991149902,airplane,airplane,0.7,0159_hp_s02_0.7_airplane_10_n02690373_5789.png
subject-02,1,160,0.813236951828003,elephant,elephant,inf,0160_hp_s02_inf_elephant_10_n02504013_11033.png
subject-02,1,161,0.579740047454834,keyboard,keyboard,inf,0161_hp_s02_inf_keyboard_10_n04505470_8544.png
subject-02,1,162,1.15839099884033,airplane,airplane,inf,0162_hp_s02_inf_airplane_10_n02690373_4358.png
subject-02,1,163,1.00497722625732,car,bird,0.45,0163_hp_s02_0.45_bird_10_n01601694_16891.png
subject-02,1,164,0.665380954742432,keyboard,keyboard,1,0164_hp_s02_1_keyboard_10_n03085013_24223.png
subject-02,1,165,0.589608907699585,elephant,elephant,3,0165_hp_s02_3_elephant_10_n02504458_4631.png
subject-02,1,166,0.574268102645874,clock,clock,3,0166_hp_s02_3_clock_10_n04548280_8795.png
subject-02,1,167,0.712593078613281,boat,cat,0.55,0167_hp_s02_0.55_cat_10_n02125311_34035.png
subject-02,1,168,0.737262010574341,bicycle,bicycle,1,0168_hp_s02_1_bicycle_10_n03792782_12578.png
subject-02,1,169,0.768028020858765,bear,dog,1,0169_hp_s02_1_dog_10_n02091134_6057.png
subject-02,1,170,0.767800092697144,oven,chair,0.45,0170_hp_s02_0.45_chair_10_n03376595_3195.png
subject-02,1,171,0.676590919494629,bird,dog,0.4,0171_hp_s02_0.4_dog_10_n02093647_79.png
subject-02,1,172,0.88293981552124,cat,bear,0.4,0172_hp_s02_0.4_bear_10_n02134418_1085.png
subject-02,1,173,0.937352180480957,knife,bottle,0.45,0173_hp_s02_0.45_bottle_10_n03983396_8143.png
subject-02,1,174,0.945919036865234,truck,bicycle,0.4,0174_hp_s02_0.4_bicycle_10_n02835271_9310.png
subject-02,1,175,0.722415924072266,bear,bear,inf,0175_hp_s02_inf_bear_10_n02134084_2605.png
subject-02,1,176,0.700801134109497,oven,boat,1,0176_hp_s02_1_boat_10_n02951358_30236.png
subject-02,1,177,0.685240030288696,bear,bear,1,0177_hp_s02_1_bear_10_n02133161_5414.png
subject-02,1,178,0.524061918258667,boat,boat,inf,0178_hp_s02_inf_boat_10_n03662601_27165.png
subject-02,1,179,0.632263898849487,clock,clock,1.5,0179_hp_s02_1.5_clock_10_n04548280_10335.png
subject-02,1,180,0.708871126174927,bicycle,bicycle,0.55,0180_hp_s02_0.55_bicycle_10_n02835271_8105.png
subject-02,1,181,1.0757749080658,boat,bicycle,inf,0181_hp_s02_inf_bicycle_10_n03792782_4521.png
subject-02,1,182,0.784376859664917,cat,airplane,0.55,0182_hp_s02_0.55_airplane_10_n02690373_5628.png
subject-02,1,183,0.890692949295044,oven,clock,0.7,0183_hp_s02_0.7_clock_10_n03196217_3162.png
subject-02,1,184,0.691102027893066,elephant,cat,1,0184_hp_s02_1_cat_10_n02123394_7270.png
subject-02,1,185,0.937525987625122,dog,bottle,0.4,0185_hp_s02_0.4_bottle_10_n03937543_146.png
subject-02,1,186,0.754248142242432,boat,boat,1,0186_hp_s02_1_boat_10_n04273569_22061.png
subject-02,1,187,0.600815057754517,bottle,bottle,1,0187_hp_s02_1_bottle_10_n02823428_11360.png
subject-02,1,188,0.769320011138916,oven,knife,0.55,0188_hp_s02_0.55_knife_10_n03041632_29940.png
subject-02,1,189,1.08571290969849,car,car,0.55,0189_hp_s02_0.55_car_10_n03100240_16325.png
subject-02,1,190,0.846074104309082,car,truck,0.4,0190_hp_s02_0.4_truck_10_n03417042_1658.png
subject-02,1,191,0.732473134994507,knife,knife,1,0191_hp_s02_1_knife_10_n03041632_26989.png
subject-02,1,192,0.789094924926758,elephant,elephant,inf,0192_hp_s02_inf_elephant_10_n02504458_1803.png
subject-02,1,193,0.643595933914185,bird,bird,3,0193_hp_s02_3_bird_10_n02002724_19711.png
subject-02,1,194,0.6440749168396,truck,truck,inf,0194_hp_s02_inf_truck_10_n04467665_679.png
subject-02,1,195,0.866569995880127,bear,chair,0.4,0195_hp_s02_0.4_chair_10_n04099969_7391.png
subject-02,1,196,0.828613996505737,oven,keyboard,0.45,0196_hp_s02_0.45_keyboard_10_n04505470_4770.png
subject-02,1,197,0.582893133163452,car,car,0.7,0197_hp_s02_0.7_car_10_n04285008_11820.png
subject-02,1,198,0.659467935562134,boat,airplane,0.7,0198_hp_s02_0.7_airplane_10_n02690373_10044.png
subject-02,1,199,0.690034151077271,bear,bear,3,0199_hp_s02_3_bear_10_n02134418_819.png
subject-02,1,200,0.752383947372437,chair,chair,0.45,0200_hp_s02_0.45_chair_10_n02791124_4695.png
subject-02,1,201,0.67494797706604,chair,bear,0.45,0201_hp_s02_0.45_bear_10_n02134418_5437.png
subject-02,1,202,0.983339071273804,knife,bicycle,0.45,0202_hp_s02_0.45_bicycle_10_n02835271_262.png
subject-02,1,203,0.935842990875244,keyboard,bird,0.55,0203_hp_s02_0.55_bird_10_n01796340_20277.png
subject-02,1,204,0.660202026367188,elephant,elephant,0.7,0204_hp_s02_0.7_elephant_10_n02504013_1225.png
subject-02,1,205,0.82103419303894,cat,bear,0.55,0205_hp_s02_0.55_bear_10_n02133161_656.png
subject-02,1,206,0.797138929367065,bird,oven,3,0206_hp_s02_3_oven_10_n04111531_14848.png
subject-02,1,207,0.621442079544067,car,bear,0.45,0207_hp_s02_0.45_bear_10_n02134084_6669.png
subject-02,1,208,0.397518873214722,clock,clock,3,0208_hp_s02_3_clock_10_n04548280_4426.png
subject-02,1,209,0.668047904968262,clock,clock,0.7,0209_hp_s02_0.7_clock_10_n03196217_484.png
subject-02,1,210,0.874490976333618,keyboard,keyboard,1,0210_hp_s02_1_keyboard_10_n03085013_18769.png
subject-02,1,211,1.09906196594238,chair,chair,1,0211_hp_s02_1_chair_10_n04099969_5876.png
subject-02,1,212,0.488403081893921,bottle,bottle,1,0212_hp_s02_1_bottle_10_n02823428_12740.png
subject-02,1,213,0.688938140869141,car,airplane,0.55,0213_hp_s02_0.55_airplane_10_n02690373_2293.png
subject-02,1,214,1.11096882820129,keyboard,bird,0.45,0214_hp_s02_0.45_bird_10_n01614925_39377.png
subject-02,1,215,0.735661029815674,bird,bicycle,0.4,0215_hp_s02_0.4_bicycle_10_n02835271_7265.png
subject-02,1,216,0.782093048095703,cat,elephant,inf,0216_hp_s02_inf_elephant_10_n02504458_7621.png
subject-02,1,217,0.790549039840698,airplane,airplane,3,0217_hp_s02_3_airplane_10_n02690373_9626.png
subject-02,1,218,0.498785018920898,bird,bird,1.5,0218_hp_s02_1.5_bird_10_n02028035_10954.png
subject-02,1,219,1.02138304710388,dog,chair,0.55,0219_hp_s02_0.55_chair_10_n03376595_2807.png
subject-02,1,220,0.784017086029053,bear,keyboard,0.45,0220_hp_s02_0.45_keyboard_10_n04505470_4732.png
subject-02,1,221,0.844517946243286,elephant,chair,0.45,0221_hp_s02_0.45_chair_10_n02791124_1824.png
subject-02,1,222,0.646828174591064,oven,oven,0.55,0222_hp_s02_0.55_oven_10_n04111531_3570.png
subject-02,1,223,0.957916975021362,bird,boat,3,0223_hp_s02_3_boat_10_n02951358_15303.png
subject-02,1,224,0.628355979919434,elephant,elephant,inf,0224_hp_s02_inf_elephant_10_n02504013_9476.png
subject-02,1,225,0.48259711265564,bottle,bottle,inf,0225_hp_s02_inf_bottle_10_n04591713_2999.png
subject-02,1,226,0.775595903396606,oven,oven,1.5,0226_hp_s02_1.5_oven_10_n04111531_6609.png
subject-02,1,227,0.72978401184082,truck,elephant,0.4,0227_hp_s02_0.4_elephant_10_n02504458_1816.png
subject-02,1,228,0.652110815048218,bicycle,truck,0.4,0228_hp_s02_0.4_truck_10_n03417042_8175.png
subject-02,1,229,0.552848100662231,keyboard,keyboard,1,0229_hp_s02_1_keyboard_10_n03085013_20805.png
subject-02,1,230,0.807446956634521,bottle,bottle,0.7,0230_hp_s02_0.7_bottle_10_n04560804_5633.png
subject-02,1,231,0.568044900894165,boat,elephant,0.4,0231_hp_s02_0.4_elephant_10_n02504458_8266.png
subject-02,1,232,0.600208044052124,boat,boat,0.55,0232_hp_s02_0.55_boat_10_n04612504_2167.png
subject-02,1,233,0.76134991645813,boat,airplane,1,0233_hp_s02_1_airplane_10_n02690373_3859.png
subject-02,1,234,0.607287168502808,airplane,airplane,0.7,0234_hp_s02_0.7_airplane_10_n02690373_4144.png
subject-02,1,235,0.799825191497803,knife,knife,1.5,0235_hp_s02_1.5_knife_10_n03041632_4057.png
subject-02,1,236,0.592322111129761,airplane,airplane,3,0236_hp_s02_3_airplane_10_n02690373_21731.png
subject-02,1,237,0.538770914077759,bottle,bottle,3,0237_hp_s02_3_bottle_10_n02823428_6063.png
subject-02,1,238,0.609117031097412,keyboard,keyboard,0.7,0238_hp_s02_0.7_keyboard_10_n03085013_23571.png
subject-02,1,239,0.877577781677246,knife,knife,1,0239_hp_s02_1_knife_10_n03041632_4879.png
subject-02,1,240,0.916050910949707,car,car,1.5,0240_hp_s02_1.5_car_10_n03100240_9233.png
subject-02,1,241,0.8005211353302,dog,dog,3,0241_hp_s02_3_dog_10_n02105162_2715.png
subject-02,1,242,0.770954132080078,bear,elephant,0.55,0242_hp_s02_0.55_elephant_10_n02504013_2796.png
subject-02,1,243,0.609256982803345,bicycle,bicycle,inf,0243_hp_s02_inf_bicycle_10_n02835271_14750.png
subject-02,1,244,0.563722848892212,clock,clock,1.5,0244_hp_s02_1.5_clock_10_n02708093_7006.png
subject-02,1,245,0.602153062820435,clock,clock,inf,0245_hp_s02_inf_clock_10_n04548280_8278.png
subject-02,1,246,0.632662057876587,car,bird,0.45,0246_hp_s02_0.45_bird_10_n01534433_9494.png
subject-02,1,247,0.586972951889038,bottle,bottle,1.5,0247_hp_s02_1.5_bottle_10_n02823428_7556.png
subject-02,1,248,1.20149397850037,knife,clock,0.7,0248_hp_s02_0.7_clock_10_n03196217_1172.png
subject-02,1,249,1.09418296813965,truck,truck,3,0249_hp_s02_3_truck_10_n03417042_1668.png
subject-02,1,250,0.464500904083252,keyboard,keyboard,3,0250_hp_s02_3_keyboard_10_n03085013_1129.png
subject-02,1,251,0.449129104614258,airplane,airplane,1,0251_hp_s02_1_airplane_10_n02690373_4591.png
subject-02,1,252,0.633391857147217,cat,bottle,0.7,0252_hp_s02_0.7_bottle_10_n04560804_2014.png
subject-02,1,253,0.703901052474976,bear,elephant,0.4,0253_hp_s02_0.4_elephant_10_n02504013_603.png
subject-02,1,254,0.434473037719727,clock,clock,3,0254_hp_s02_3_clock_10_n03196217_8706.png
subject-02,1,255,0.72663402557373,chair,truck,1,0255_hp_s02_1_truck_10_n03417042_3862.png
subject-02,1,256,0.727044105529785,bird,elephant,0.45,0256_hp_s02_0.45_elephant_10_n02504013_6387.png
subject-02,1,257,1.11146712303162,bottle,bottle,0.55,0257_hp_s02_0.55_bottle_10_n03983396_22979.png
subject-02,1,258,0.526115894317627,bear,bear,1,0258_hp_s02_1_bear_10_n02133161_7390.png
subject-02,1,259,0.442738056182861,oven,boat,0.4,0259_hp_s02_0.4_boat_10_n02951358_30612.png
subject-02,1,260,0.619353055953979,oven,boat,0.55,0260_hp_s02_0.55_boat_10_n02951358_9962.png
subject-02,1,261,0.603677988052368,keyboard,keyboard,0.55,0261_hp_s02_0.55_keyboard_10_n04505470_1719.png
subject-02,1,262,0.736319065093994,truck,truck,inf,0262_hp_s02_inf_truck_10_n04467665_28287.png
subject-02,1,263,1.12647795677185,knife,knife,0.45,0263_hp_s02_0.45_knife_10_n03041632_2058.png
subject-02,1,264,0.650784969329834,oven,oven,1,0264_hp_s02_1_oven_10_n04111531_1798.png
subject-02,1,265,0.497362852096558,chair,chair,1,0265_hp_s02_1_chair_10_n04429376_13233.png
subject-02,1,266,0.759809017181396,truck,truck,1,0266_hp_s02_1_truck_10_n03796401_16425.png
subject-02,1,267,0.506337881088257,clock,clock,inf,0267_hp_s02_inf_clock_10_n02708093_8002.png
subject-02,1,268,0.690578937530518,dog,dog,1,0268_hp_s02_1_dog_10_n02102040_4068.png
subject-02,1,269,0.696752071380615,dog,dog,1,0269_hp_s02_1_dog_10_n02112706_3887.png
subject-02,1,270,0.805395126342773,chair,chair,0.55,0270_hp_s02_0.55_chair_10_n02791124_2212.png
subject-02,1,271,0.590236902236938,bicycle,bicycle,inf,0271_hp_s02_inf_bicycle_10_n02835271_16673.png
subject-02,1,272,0.660358905792236,keyboard,dog,0.4,0272_hp_s02_0.4_dog_10_n02107908_2313.png
subject-02,1,273,0.844710826873779,dog,dog,1.5,0273_hp_s02_1.5_dog_10_n02105251_608.png
subject-02,1,274,0.820729970932007,dog,cat,0.55,0274_hp_s02_0.55_cat_10_n02123159_711.png
subject-02,1,275,0.935557842254639,bird,truck,0.4,0275_hp_s02_0.4_truck_10_n03417042_4883.png
subject-02,1,276,0.722949028015137,bottle,knife,0.45,0276_hp_s02_0.45_knife_10_n03041632_62810.png
subject-02,1,277,0.731688022613525,chair,chair,1,0277_hp_s02_1_chair_10_n02791124_3705.png
subject-02,1,278,0.762036085128784,boat,airplane,1,0278_hp_s02_1_airplane_10_n02690373_4671.png
subject-02,1,279,0.546347141265869,oven,oven,inf,0279_hp_s02_inf_oven_10_n04111531_2150.png
subject-02,1,280,0.630944967269897,car,car,1,0280_hp_s02_1_car_10_n04285008_6030.png
subject-02,1,281,0.593296051025391,airplane,cat,0.45,0281_hp_s02_0.45_cat_10_n02123159_4051.png
subject-02,1,282,0.4617018699646,clock,clock,1,0282_hp_s02_1_clock_10_n04548280_4186.png
subject-02,1,283,0.762614965438843,bird,cat,0.55,0283_hp_s02_0.55_cat_10_n02124075_2690.png
subject-02,1,284,0.678527116775513,bird,bird,3,0284_hp_s02_3_bird_10_n02033041_127.png
subject-02,1,285,0.57125997543335,car,oven,0.45,0285_hp_s02_0.45_oven_10_n04111531_1977.png
subject-02,1,286,0.780013799667358,dog,elephant,0.7,0286_hp_s02_0.7_elephant_10_n02504458_3521.png
subject-02,1,287,0.551604986190796,bird,bird,3,0287_hp_s02_3_bird_10_n01560419_602.png
subject-02,1,288,0.619453907012939,truck,truck,inf,0288_hp_s02_inf_truck_10_n03417042_7335.png
subject-02,1,289,0.936264991760254,elephant,elephant,1,0289_hp_s02_1_elephant_10_n02504013_5404.png
subject-02,1,290,1.18074584007263,truck,truck,0.7,0290_hp_s02_0.7_truck_10_n04467665_28313.png
subject-02,1,291,0.482917070388794,keyboard,keyboard,1.5,0291_hp_s02_1.5_keyboard_10_n03085013_19645.png
subject-02,1,292,0.621656894683838,bottle,bottle,0.55,0292_hp_s02_0.55_bottle_10_n02823428_3362.png
subject-02,1,293,0.48199200630188,chair,chair,inf,0293_hp_s02_inf_chair_10_n04429376_12466.png
subject-02,1,294,0.798633098602295,elephant,elephant,0.55,0294_hp_s02_0.55_elephant_10_n02504458_11596.png
subject-02,1,295,0.47531795501709,car,car,0.55,0295_hp_s02_0.55_car_10_n04285008_7744.png
subject-02,1,296,0.737871885299683,truck,knife,0.55,0296_hp_s02_0.55_knife_10_n03041632_4269.png
subject-02,1,297,0.751967191696167,dog,cat,inf,0297_hp_s02_inf_cat_10_n02125311_32736.png
subject-02,1,298,0.734695911407471,bird,bird,3,0298_hp_s02_3_bird_10_n01824575_5516.png
subject-02,1,299,0.627264976501465,car,airplane,0.4,0299_hp_s02_0.4_airplane_10_n02690373_5961.png
subject-02,1,300,0.566006183624268,car,dog,0.55,0300_hp_s02_0.55_dog_10_n02086240_6911.png
subject-02,1,301,0.549841165542603,car,car,1,0301_hp_s02_1_car_10_n02814533_19620.png
subject-02,1,302,1.03977394104004,knife,bottle,0.45,0302_hp_s02_0.45_bottle_10_n03983396_2472.png
subject-02,1,303,0.642330884933472,airplane,airplane,0.7,0303_hp_s02_0.7_airplane_10_n02690373_7401.png
subject-02,1,304,0.510686874389648,bear,chair,0.4,0304_hp_s02_0.4_chair_10_n04099969_10804.png
subject-02,1,305,0.687268972396851,chair,chair,1.5,0305_hp_s02_1.5_chair_10_n03376595_11839.png
subject-02,1,306,0.587906837463379,bird,bird,1.5,0306_hp_s02_1.5_bird_10_n02013706_5869.png
subject-02,1,307,0.864348173141479,cat,bird,0.55,0307_hp_s02_0.55_bird_10_n01817953_11410.png
subject-02,1,308,0.850657939910889,bicycle,bicycle,3,0308_hp_s02_3_bicycle_10_n03792782_4502.png
subject-02,1,309,0.627660989761353,boat,bear,0.45,0309_hp_s02_0.45_bear_10_n02134084_2953.png
subject-02,1,310,0.581875085830688,keyboard,keyboard,1,0310_hp_s02_1_keyboard_10_n03085013_20825.png
subject-02,1,311,0.574223041534424,car,car,3,0311_hp_s02_3_car_10_n03100240_12065.png
subject-02,1,312,0.582522869110107,bottle,bottle,0.4,0312_hp_s02_0.4_bottle_10_n03937543_11759.png
subject-02,1,313,0.450908184051514,car,car,1.5,0313_hp_s02_1.5_car_10_n03100240_8351.png
subject-02,1,314,0.713490962982178,airplane,airplane,1,0314_hp_s02_1_airplane_10_n02690373_1489.png
subject-02,1,315,0.606374979019165,boat,bird,0.4,0315_hp_s02_0.4_bird_10_n01796340_3074.png
subject-02,1,316,0.636488914489746,dog,dog,1,0316_hp_s02_1_dog_10_n02096294_10.png
subject-02,1,317,0.767172813415527,cat,bottle,0.4,0317_hp_s02_0.4_bottle_10_n02823428_14790.png
subject-02,1,318,0.557348966598511,chair,chair,3,0318_hp_s02_3_chair_10_n04099969_40812.png
subject-02,1,319,0.542109966278076,cat,elephant,0.45,0319_hp_s02_0.45_elephant_10_n02504013_8028.png
subject-02,1,320,0.896275997161865,car,cat,0.55,0320_hp_s02_0.55_cat_10_n02123159_9997.png
subject-02,1,321,0.537584781646729,car,car,1,0321_hp_s02_1_car_10_n02814533_39994.png
subject-02,1,322,0.738377094268799,oven,oven,inf,0322_hp_s02_inf_oven_10_n04111531_121.png
subject-02,1,323,0.600388050079346,boat,dog,0.45,0323_hp_s02_0.45_dog_10_n02099712_6238.png
subject-02,1,324,0.654843807220459,keyboard,bottle,0.7,0324_hp_s02_0.7_bottle_10_n03937543_2083.png
subject-02,1,325,0.585798025131226,chair,knife,3,0325_hp_s02_3_knife_10_n03041632_33424.png
subject-02,1,326,0.769879817962646,bottle,airplane,0.4,0326_hp_s02_0.4_airplane_10_n02690373_8589.png
subject-02,1,327,0.486284971237183,chair,chair,3,0327_hp_s02_3_chair_10_n04429376_3459.png
subject-02,1,328,0.462777853012085,bird,bird,inf,0328_hp_s02_inf_bird_10_n01855032_8188.png
subject-02,1,329,0.587244033813477,bear,bear,3,0329_hp_s02_3_bear_10_n02132136_6664.png
subject-02,1,330,0.902059078216553,knife,knife,0.7,0330_hp_s02_0.7_knife_10_n03041632_99912.png
subject-02,1,331,0.564343929290771,bird,oven,1.5,0331_hp_s02_1.5_oven_10_n04111531_9695.png
subject-02,1,332,0.602744102478027,car,cat,0.4,0332_hp_s02_0.4_cat_10_n02124075_3533.png
subject-02,1,333,0.963490009307861,chair,clock,0.55,0333_hp_s02_0.55_clock_10_n04548280_5096.png
subject-02,1,334,0.63379693031311,bicycle,bicycle,1,0334_hp_s02_1_bicycle_10_n03792782_1712.png
subject-02,1,335,1.13997888565063,dog,bear,0.55,0335_hp_s02_0.55_bear_10_n02134418_2205.png
subject-02,1,336,1.08041000366211,bear,elephant,1,0336_hp_s02_1_elephant_10_n02504458_1210.png
subject-02,1,337,0.849020957946777,bear,bear,3,0337_hp_s02_3_bear_10_n02132136_10624.png
subject-02,1,338,0.619737863540649,chair,chair,inf,0338_hp_s02_inf_chair_10_n04099969_9005.png
subject-02,1,339,1.03410196304321,airplane,boat,0.7,0339_hp_s02_0.7_boat_10_n03344393_7043.png
subject-02,1,340,0.904387950897217,keyboard,keyboard,0.45,0340_hp_s02_0.45_keyboard_10_n04505470_4909.png
subject-02,1,341,0.473035097122192,oven,oven,inf,0341_hp_s02_inf_oven_10_n04111531_23830.png
subject-02,1,342,0.519448041915894,oven,oven,3,0342_hp_s02_3_oven_10_n04111531_9867.png
subject-02,1,343,1.29596400260925,chair,knife,1.5,0343_hp_s02_1.5_knife_10_n03041632_84086.png
subject-02,1,344,0.536399841308594,car,car,1,0344_hp_s02_1_car_10_n04285008_5360.png
subject-02,1,345,1.18903684616089,car,knife,1.5,0345_hp_s02_1.5_knife_10_n03041632_13465.png
subject-02,1,346,0.751632928848267,boat,knife,1,0346_hp_s02_1_knife_10_n03041632_31909.png
subject-02,1,347,0.74384593963623,cat,elephant,0.7,0347_hp_s02_0.7_elephant_10_n02504013_1072.png
subject-02,1,348,0.790323972702026,airplane,boat,0.45,0348_hp_s02_0.45_boat_10_n03662601_1324.png
subject-02,1,349,0.899031162261963,dog,dog,0.7,0349_hp_s02_0.7_dog_10_n02099601_864.png
subject-02,1,350,0.750236988067627,chair,clock,1,0350_hp_s02_1_clock_10_n04548280_5327.png
subject-02,1,351,0.680920124053955,bird,chair,0.4,0351_hp_s02_0.4_chair_10_n04099969_9371.png
subject-02,1,352,0.718912124633789,truck,truck,inf,0352_hp_s02_inf_truck_10_n04467665_37953.png
subject-02,1,353,0.598196029663086,bear,bear,inf,0353_hp_s02_inf_bear_10_n02133161_7332.png
subject-02,1,354,0.622359037399292,chair,oven,1.5,0354_hp_s02_1.5_oven_10_n04111531_15943.png
subject-02,1,355,0.574599981307983,car,car,inf,0355_hp_s02_inf_car_10_n03100240_3955.png
subject-02,1,356,0.875247955322266,cat,keyboard,0.7,0356_hp_s02_0.7_keyboard_10_n03085013_24316.png
subject-02,1,357,0.859635829925537,oven,clock,0.55,0357_hp_s02_0.55_clock_10_n03196217_1790.png
subject-02,1,358,0.784144878387451,bicycle,knife,1.5,0358_hp_s02_1.5_knife_10_n03041632_23546.png
subject-02,1,359,0.654546976089478,clock,clock,1,0359_hp_s02_1_clock_10_n02708093_2843.png
subject-02,1,360,1.21501493453979,knife,knife,0.7,0360_hp_s02_0.7_knife_10_n03041632_22241.png
subject-02,1,361,0.585786104202271,bird,bird,1,0361_hp_s02_1_bird_10_n02009229_7409.png
subject-02,1,362,0.815978050231934,bear,bear,0.55,0362_hp_s02_0.55_bear_10_n02134418_2891.png
subject-02,1,363,0.508407115936279,cat,dog,0.4,0363_hp_s02_0.4_dog_10_n02113624_6009.png
subject-02,1,364,0.824904918670654,boat,chair,0.55,0364_hp_s02_0.55_chair_10_n04099969_20107.png
subject-02,1,365,0.471640110015869,keyboard,keyboard,0.55,0365_hp_s02_0.55_keyboard_10_n04505470_5044.png
subject-02,1,366,0.588441133499146,oven,chair,0.45,0366_hp_s02_0.45_chair_10_n04099969_15760.png
subject-02,1,367,0.780683040618896,chair,chair,1.5,0367_hp_s02_1.5_chair_10_n04429376_9275.png
subject-02,1,368,0.857272863388062,boat,boat,3,0368_hp_s02_3_boat_10_n02951358_12436.png
subject-02,1,369,0.903738021850586,knife,airplane,0.45,0369_hp_s02_0.45_airplane_10_n02690373_8454.png
subject-02,1,370,0.774160146713257,boat,boat,1,0370_hp_s02_1_boat_10_n03662601_10716.png
subject-02,1,371,1.00452899932861,car,bottle,0.7,0371_hp_s02_0.7_bottle_10_n04557648_11291.png
subject-02,1,372,0.842612028121948,cat,oven,0.55,0372_hp_s02_0.55_oven_10_n04111531_14758.png
subject-02,1,373,1.01963186264038,boat,elephant,0.7,0373_hp_s02_0.7_elephant_10_n02504458_5187.png
subject-02,1,374,0.452259063720703,cat,cat,3,0374_hp_s02_3_cat_10_n02123045_567.png
subject-02,1,375,0.598581075668335,boat,truck,0.7,0375_hp_s02_0.7_truck_10_n04467665_7341.png
subject-02,1,376,0.912914037704468,cat,cat,1.5,0376_hp_s02_1.5_cat_10_n02124075_6701.png
subject-02,1,377,0.575421810150146,clock,clock,0.55,0377_hp_s02_0.55_clock_10_n04548280_3804.png
subject-02,1,378,0.836014986038208,oven,clock,0.45,0378_hp_s02_0.45_clock_10_n04548280_9121.png
subject-02,1,379,0.706109046936035,bird,knife,0.55,0379_hp_s02_0.55_knife_10_n03041632_9157.png
subject-02,1,380,0.477061986923218,cat,cat,1.5,0380_hp_s02_1.5_cat_10_n02123045_3342.png
subject-02,1,381,1.2611300945282,oven,truck,0.7,0381_hp_s02_0.7_truck_10_n03417042_28400.png
subject-02,1,382,0.708005905151367,bear,bear,1,0382_hp_s02_1_bear_10_n02133161_7157.png
subject-02,1,383,0.52447509765625,car,bird,0.45,0383_hp_s02_0.45_bird_10_n01798484_2552.png
subject-02,1,384,0.762605905532837,knife,knife,inf,0384_hp_s02_inf_knife_10_n03041632_20517.png
subject-02,1,385,0.609627962112427,clock,clock,1.5,0385_hp_s02_1.5_clock_10_n02708093_145.png
subject-02,1,386,0.694188833236694,bear,bottle,0.45,0386_hp_s02_0.45_bottle_10_n02823428_1493.png
subject-02,1,387,0.954217910766602,dog,knife,0.4,0387_hp_s02_0.4_knife_10_n03041632_7380.png
subject-02,1,388,0.978583097457886,truck,keyboard,0.4,0388_hp_s02_0.4_keyboard_10_n04505470_6638.png
subject-02,1,389,0.792973041534424,knife,knife,inf,0389_hp_s02_inf_knife_10_n03041632_81943.png
subject-02,1,390,1.03175091743469,oven,chair,1,0390_hp_s02_1_chair_10_n04099969_2654.png
subject-02,1,391,0.618028163909912,oven,oven,0.55,0391_hp_s02_0.55_oven_10_n04111531_5350.png
subject-02,1,392,1.15446496009827,knife,chair,0.7,0392_hp_s02_0.7_chair_10_n04099969_51324.png
subject-02,1,393,0.670881986618042,clock,boat,0.4,0393_hp_s02_0.4_boat_10_n04273569_16064.png
subject-02,1,394,0.703469038009644,chair,chair,0.7,0394_hp_s02_0.7_chair_10_n02791124_13752.png
subject-02,1,395,0.533660173416138,elephant,dog,0.45,0395_hp_s02_0.45_dog_10_n02091244_12305.png
subject-02,1,396,0.60227108001709,bicycle,bicycle,3,0396_hp_s02_3_bicycle_10_n03792782_68319.png
subject-02,1,397,0.548964977264404,bicycle,bottle,0.4,0397_hp_s02_0.4_bottle_10_n04560804_9405.png
subject-02,1,398,0.511347055435181,boat,elephant,0.45,0398_hp_s02_0.45_elephant_10_n02504458_1351.png
subject-02,1,399,0.603776931762695,car,cat,0.45,0399_hp_s02_0.45_cat_10_n02123159_7019.png
subject-02,1,400,0.920376062393188,car,truck,0.55,0400_hp_s02_0.55_truck_10_n03796401_1918.png
subject-02,1,401,0.843003034591675,bird,car,0.45,0401_hp_s02_0.45_car_10_n03100240_2932.png
subject-02,1,402,0.797423839569092,dog,dog,0.45,0402_hp_s02_0.45_dog_10_n02112350_9140.png
subject-02,1,403,0.452054977416992,car,car,inf,0403_hp_s02_inf_car_10_n03100240_1717.png
subject-02,1,404,0.620142936706543,truck,bottle,0.45,0404_hp_s02_0.45_bottle_10_n04560804_16067.png
subject-02,1,405,0.504698038101196,bear,bear,inf,0405_hp_s02_inf_bear_10_n02133161_2189.png
subject-02,1,406,0.443474054336548,keyboard,keyboard,inf,0406_hp_s02_inf_keyboard_10_n04505470_5329.png
subject-02,1,407,0.489661931991577,bicycle,bicycle,3,0407_hp_s02_3_bicycle_10_n02835271_13935.png
subject-02,1,408,0.667705059051514,bottle,knife,1,0408_hp_s02_1_knife_10_n03041632_33488.png
subject-02,1,409,0.836426019668579,cat,cat,3,0409_hp_s02_3_cat_10_n02125311_25749.png
subject-02,1,410,0.52083420753479,car,oven,0.45,0410_hp_s02_0.45_oven_10_n04111531_17995.png
subject-02,1,411,1.04362607002258,airplane,truck,0.45,0411_hp_s02_0.45_truck_10_n03796401_5107.png
subject-02,1,412,0.729758977890015,elephant,elephant,inf,0412_hp_s02_inf_elephant_10_n02504013_2340.png
subject-02,1,413,0.828589916229248,dog,dog,1.5,0413_hp_s02_1.5_dog_10_n02098286_4929.png
subject-02,1,414,0.761357069015503,keyboard,oven,0.55,0414_hp_s02_0.55_oven_10_n04111531_15735.png
subject-02,1,415,0.761311054229736,clock,clock,1.5,0415_hp_s02_1.5_clock_10_n03196217_3416.png
subject-02,1,416,0.53815484046936,airplane,airplane,0.55,0416_hp_s02_0.55_airplane_10_n02690373_7647.png
subject-02,1,417,0.522407054901123,oven,oven,3,0417_hp_s02_3_oven_10_n04111531_23068.png
subject-02,1,418,0.665035963058472,bottle,oven,3,0418_hp_s02_3_oven_10_n04111531_6629.png
subject-02,1,419,0.681878089904785,cat,knife,0.55,0419_hp_s02_0.55_knife_10_n03041632_37949.png
subject-02,1,420,0.973786115646362,knife,knife,3,0420_hp_s02_3_knife_10_n03041632_22988.png
subject-02,1,421,0.52831506729126,cat,cat,inf,0421_hp_s02_inf_cat_10_n02123597_10419.png
subject-02,1,422,0.544965028762817,keyboard,keyboard,1.5,0422_hp_s02_1.5_keyboard_10_n03085013_21981.png
subject-02,1,423,NaN,na,airplane,0.4,0423_hp_s02_0.4_airplane_10_n02690373_10131.png
subject-02,1,424,0.543989896774292,cat,cat,1,0424_hp_s02_1_cat_10_n02123045_3029.png
subject-02,1,425,0.47634482383728,bear,keyboard,0.45,0425_hp_s02_0.45_keyboard_10_n03085013_24467.png
subject-02,1,426,0.653043985366821,bottle,bottle,1.5,0426_hp_s02_1.5_bottle_10_n03983396_6011.png
subject-02,1,427,0.591269016265869,bird,cat,0.4,0427_hp_s02_0.4_cat_10_n02123159_4318.png
subject-02,1,428,0.699482917785645,truck,truck,3,0428_hp_s02_3_truck_10_n03796401_24580.png
subject-02,1,429,0.538033008575439,clock,clock,inf,0429_hp_s02_inf_clock_10_n04548280_11597.png
subject-02,1,430,0.692521095275879,bear,cat,0.7,0430_hp_s02_0.7_cat_10_n02123394_6826.png
subject-02,1,431,0.70710015296936,oven,clock,inf,0431_hp_s02_inf_clock_10_n04548280_386.png
subject-02,1,432,0.577391147613525,truck,truck,3,0432_hp_s02_3_truck_10_n03796401_7455.png
subject-02,1,433,0.64005708694458,bird,dog,0.45,0433_hp_s02_0.45_dog_10_n02092339_5136.png
subject-02,1,434,0.678762197494507,airplane,airplane,1.5,0434_hp_s02_1.5_airplane_10_n02690373_7053.png
subject-02,1,435,0.893601894378662,dog,dog,3,0435_hp_s02_3_dog_10_n02107142_1372.png
subject-02,1,436,0.572041034698486,car,car,3,0436_hp_s02_3_car_10_n04285008_757.png
subject-02,1,437,0.472086906433105,clock,clock,3,0437_hp_s02_3_clock_10_n04548280_764.png
subject-02,1,438,0.602659940719604,boat,cat,0.55,0438_hp_s02_0.55_cat_10_n02123394_8679.png
subject-02,1,439,0.718996047973633,airplane,airplane,inf,0439_hp_s02_inf_airplane_10_n02690373_6988.png
subject-02,1,440,0.641591787338257,chair,boat,0.55,0440_hp_s02_0.55_boat_10_n03662601_12483.png
subject-02,1,441,0.649980783462524,dog,dog,inf,0441_hp_s02_inf_dog_10_n02105641_4327.png
subject-02,1,442,0.718040943145752,bicycle,bicycle,0.7,0442_hp_s02_0.7_bicycle_10_n02835271_2570.png
subject-02,1,443,0.880476951599121,car,car,0.45,0443_hp_s02_0.45_car_10_n02814533_1344.png
subject-02,1,444,0.703150033950806,bear,bear,inf,0444_hp_s02_inf_bear_10_n02133161_5274.png
subject-02,1,445,0.497562170028687,cat,truck,0.45,0445_hp_s02_0.45_truck_10_n03417042_3886.png
subject-02,1,446,0.596240997314453,airplane,airplane,0.55,0446_hp_s02_0.55_airplane_10_n02690373_4845.png
subject-02,1,447,0.666815042495728,car,boat,inf,0447_hp_s02_inf_boat_10_n02951358_11450.png
subject-02,1,448,0.543334007263184,bird,bird,1,0448_hp_s02_1_bird_10_n02002724_5061.png
subject-02,1,449,0.665492057800293,boat,boat,1.5,0449_hp_s02_1.5_boat_10_n02951358_31877.png
subject-02,1,450,0.852373838424683,truck,elephant,0.55,0450_hp_s02_0.55_elephant_10_n02504013_6095.png
subject-02,1,451,0.766657829284668,chair,boat,0.7,0451_hp_s02_0.7_boat_10_n02951358_11436.png
subject-02,1,452,0.629175901412964,airplane,airplane,3,0452_hp_s02_3_airplane_10_n02690373_693.png
subject-02,1,453,0.629687070846558,oven,dog,0.7,0453_hp_s02_0.7_dog_10_n02105162_3446.png
subject-02,1,454,0.460300922393799,bicycle,car,0.4,0454_hp_s02_0.4_car_10_n03100240_1711.png
subject-02,1,455,0.698674201965332,bottle,bottle,1.5,0455_hp_s02_1.5_bottle_10_n03937543_3453.png
subject-02,1,456,0.585007905960083,boat,elephant,0.55,0456_hp_s02_0.55_elephant_10_n02504458_4711.png
subject-02,1,457,0.577537059783936,boat,boat,1,0457_hp_s02_1_boat_10_n03662601_2058.png
subject-02,1,458,0.608015060424805,keyboard,keyboard,inf,0458_hp_s02_inf_keyboard_10_n03085013_2625.png
subject-02,1,459,0.808495998382568,airplane,bicycle,0.45,0459_hp_s02_0.45_bicycle_10_n03792782_1642.png
subject-02,1,460,0.801204919815063,elephant,chair,0.4,0460_hp_s02_0.4_chair_10_n04429376_19617.png
subject-02,1,461,0.523520946502686,bear,bear,3,0461_hp_s02_3_bear_10_n02133161_4218.png
subject-02,1,462,0.706265926361084,boat,oven,inf,0462_hp_s02_inf_oven_10_n04111531_7266.png
subject-02,1,463,0.620086908340454,bicycle,bicycle,0.7,0463_hp_s02_0.7_bicycle_10_n03792782_7634.png
subject-02,1,464,0.775285005569458,elephant,elephant,3,0464_hp_s02_3_elephant_10_n02504013_677.png
subject-02,1,465,0.797718048095703,oven,oven,0.55,0465_hp_s02_0.55_oven_10_n04111531_2213.png
subject-02,1,466,0.621853828430176,keyboard,keyboard,1.5,0466_hp_s02_1.5_keyboard_10_n03085013_20330.png
subject-02,1,467,1.0140438079834,keyboard,keyboard,0.55,0467_hp_s02_0.55_keyboard_10_n04505470_5147.png
subject-02,1,468,0.644544124603271,boat,cat,0.45,0468_hp_s02_0.45_cat_10_n02125311_21076.png
subject-02,1,469,0.515253782272339,car,keyboard,0.55,0469_hp_s02_0.55_keyboard_10_n03085013_10035.png
subject-02,1,470,0.737742900848389,cat,cat,0.7,0470_hp_s02_0.7_cat_10_n02125311_2576.png
subject-02,1,471,0.708208084106445,elephant,elephant,1.5,0471_hp_s02_1.5_elephant_10_n02504013_9433.png
subject-02,1,472,1.13072896003723,knife,oven,1.5,0472_hp_s02_1.5_oven_10_n04111531_8077.png
subject-02,1,473,0.793199062347412,bottle,boat,0.7,0473_hp_s02_0.7_boat_10_n03344393_5183.png
subject-02,1,474,0.577749967575073,chair,clock,0.45,0474_hp_s02_0.45_clock_10_n03196217_7401.png
subject-02,1,475,0.555978059768677,chair,airplane,0.4,0475_hp_s02_0.4_airplane_10_n02690373_12756.png
subject-02,1,476,0.70865797996521,bicycle,bear,1,0476_hp_s02_1_bear_10_n02132136_9105.png
subject-02,1,477,0.655165910720825,elephant,elephant,3,0477_hp_s02_3_elephant_10_n02504013_10156.png
subject-02,1,478,0.817800045013428,truck,truck,3,0478_hp_s02_3_truck_10_n03796401_26284.png
subject-02,1,479,0.739807844161987,bear,boat,0.4,0479_hp_s02_0.4_boat_10_n03662601_7915.png
subject-02,1,480,0.494400978088379,clock,clock,1.5,0480_hp_s02_1.5_clock_10_n02708093_1104.png
subject-02,1,481,0.67951512336731,cat,clock,0.45,0481_hp_s02_0.45_clock_10_n04548280_1114.png
subject-02,1,482,0.65814995765686,bottle,bottle,0.7,0482_hp_s02_0.7_bottle_10_n04560804_11601.png
subject-02,1,483,0.542692899703979,car,car,3,0483_hp_s02_3_car_10_n03100240_2332.png
subject-02,1,484,0.480969905853271,clock,clock,3,0484_hp_s02_3_clock_10_n02708093_8155.png
subject-02,1,485,0.819650173187256,airplane,airplane,1,0485_hp_s02_1_airplane_10_n02690373_13021.png
subject-02,1,486,0.590182065963745,boat,bear,0.7,0486_hp_s02_0.7_bear_10_n02134084_34141.png
subject-02,1,487,0.666630029678345,dog,dog,1,0487_hp_s02_1_dog_10_n02085936_3525.png
subject-02,1,488,0.490950107574463,cat,chair,0.4,0488_hp_s02_0.4_chair_10_n02791124_733.png
subject-02,1,489,0.729725122451782,car,clock,1,0489_hp_s02_1_clock_10_n03196217_1021.png
subject-02,1,490,0.638523101806641,bear,bicycle,0.45,0490_hp_s02_0.45_bicycle_10_n03792782_19083.png
subject-02,1,491,0.560640096664429,bird,bird,0.7,0491_hp_s02_0.7_bird_10_n01514859_12292.png
subject-02,1,492,0.975141048431396,cat,bear,1.5,0492_hp_s02_1.5_bear_10_n02134418_8159.png
subject-02,1,493,0.57569694519043,bicycle,car,0.4,0493_hp_s02_0.4_car_10_n02814533_33666.png
subject-02,1,494,0.538137912750244,bicycle,bicycle,1.5,0494_hp_s02_1.5_bicycle_10_n03792782_2701.png
subject-02,1,495,0.622740983963013,bottle,airplane,0.45,0495_hp_s02_0.45_airplane_10_n02690373_8858.png
subject-02,1,496,0.746896982192993,bottle,bottle,1,0496_hp_s02_1_bottle_10_n04591713_3104.png
subject-02,1,497,0.607621192932129,chair,chair,3,0497_hp_s02_3_chair_10_n04099969_49456.png
subject-02,1,498,0.602061986923218,keyboard,oven,0.7,0498_hp_s02_0.7_oven_10_n04111531_10436.png
subject-02,1,499,0.508853912353516,keyboard,oven,0.4,0499_hp_s02_0.4_oven_10_n04111531_14766.png
subject-02,1,500,0.877094030380249,bear,bear,1.5,0500_hp_s02_1.5_bear_10_n02134418_11090.png
subject-02,1,501,0.631539821624756,car,clock,0.45,0501_hp_s02_0.45_clock_10_n04548280_2334.png
subject-02,1,502,0.631781101226807,keyboard,keyboard,0.55,0502_hp_s02_0.55_keyboard_10_n03085013_15081.png
subject-02,1,503,0.546101093292236,clock,clock,0.4,0503_hp_s02_0.4_clock_10_n04548280_3503.png
subject-02,1,504,0.586836099624634,keyboard,keyboard,3,0504_hp_s02_3_keyboard_10_n04505470_3309.png
subject-02,1,505,0.51728081703186,keyboard,keyboard,1,0505_hp_s02_1_keyboard_10_n03085013_23847.png
subject-02,1,506,0.801540851593018,oven,keyboard,0.4,0506_hp_s02_0.4_keyboard_10_n03085013_7009.png
subject-02,1,507,0.478413105010986,clock,bicycle,0.45,0507_hp_s02_0.45_bicycle_10_n02835271_8098.png
subject-02,1,508,0.478692054748535,bird,bird,1.5,0508_hp_s02_1.5_bird_10_n02002724_10727.png
subject-02,1,509,0.879266023635864,airplane,airplane,3,0509_hp_s02_3_airplane_10_n02690373_6536.png
subject-02,1,510,0.655514001846313,boat,clock,0.4,0510_hp_s02_0.4_clock_10_n02708093_1775.png
subject-02,1,511,0.955842971801758,chair,bicycle,0.55,0511_hp_s02_0.55_bicycle_10_n02835271_1653.png
subject-02,1,512,0.532213926315308,cat,bear,0.55,0512_hp_s02_0.55_bear_10_n02133161_741.png
subject-02,1,513,0.478347063064575,car,truck,3,0513_hp_s02_3_truck_10_n03796401_21256.png
subject-02,1,514,0.848905086517334,oven,chair,0.55,0514_hp_s02_0.55_chair_10_n04099969_24041.png
subject-02,1,515,0.741394996643066,bear,dog,1.5,0515_hp_s02_1.5_dog_10_n02097047_1473.png
subject-02,1,516,0.994206190109253,truck,oven,0.45,0516_hp_s02_0.45_oven_10_n04111531_7130.png
subject-02,1,517,0.626379013061523,bicycle,bicycle,0.7,0517_hp_s02_0.7_bicycle_10_n03792782_9987.png
subject-02,1,518,0.625243902206421,truck,truck,1,0518_hp_s02_1_truck_10_n04467665_9833.png
subject-02,1,519,0.465443849563599,cat,cat,inf,0519_hp_s02_inf_cat_10_n02123597_1016.png
subject-02,1,520,0.734062910079956,car,car,0.55,0520_hp_s02_0.55_car_10_n02814533_21807.png
subject-02,1,521,0.926490783691406,bear,bear,0.55,0521_hp_s02_0.55_bear_10_n02133161_1480.png
subject-02,1,522,0.651015996932983,boat,boat,0.7,0522_hp_s02_0.7_boat_10_n03662601_29472.png
subject-02,1,523,0.843568086624146,bird,car,0.55,0523_hp_s02_0.55_car_10_n04285008_6139.png
subject-02,1,524,0.703683853149414,truck,car,0.55,0524_hp_s02_0.55_car_10_n02814533_4244.png
subject-02,1,525,0.996162891387939,elephant,elephant,0.55,0525_hp_s02_0.55_elephant_10_n02504458_5858.png
subject-02,1,526,0.674785137176514,bear,bear,0.55,0526_hp_s02_0.55_bear_10_n02132136_360.png
subject-02,1,527,0.437371015548706,boat,boat,inf,0527_hp_s02_inf_boat_10_n03344393_4702.png
subject-02,1,528,0.805568933486938,airplane,chair,0.4,0528_hp_s02_0.4_chair_10_n04429376_11771.png
subject-02,1,529,0.744009017944336,boat,boat,inf,0529_hp_s02_inf_boat_10_n04273569_11710.png
subject-02,1,530,0.798640966415405,truck,bottle,0.7,0530_hp_s02_0.7_bottle_10_n04557648_11002.png
subject-02,1,531,0.759150981903076,bicycle,truck,0.45,0531_hp_s02_0.45_truck_10_n03796401_2796.png
subject-02,1,532,0.759867906570435,bird,bicycle,0.4,0532_hp_s02_0.4_bicycle_10_n02835271_2228.png
subject-02,1,533,0.722090005874634,chair,chair,inf,0533_hp_s02_inf_chair_10_n04429376_45613.png
subject-02,1,534,0.590648889541626,elephant,elephant,1,0534_hp_s02_1_elephant_10_n02504458_8902.png
subject-02,1,535,0.653143882751465,bicycle,bicycle,0.7,0535_hp_s02_0.7_bicycle_10_n03792782_13735.png
subject-02,1,536,0.453583955764771,cat,cat,inf,0536_hp_s02_inf_cat_10_n02124075_7411.png
subject-02,1,537,0.838220119476318,car,truck,0.55,0537_hp_s02_0.55_truck_10_n03417042_15278.png
subject-02,1,538,0.777312040328979,dog,dog,0.7,0538_hp_s02_0.7_dog_10_n02104029_4863.png
subject-02,1,539,0.792912006378174,dog,bear,0.45,0539_hp_s02_0.45_bear_10_n02132136_1183.png
subject-02,1,540,0.623430013656616,bicycle,bicycle,inf,0540_hp_s02_inf_bicycle_10_n02835271_3575.png
subject-02,1,541,0.623908996582031,bear,bottle,0.4,0541_hp_s02_0.4_bottle_10_n04560804_783.png
subject-02,1,542,0.654198884963989,knife,knife,3,0542_hp_s02_3_knife_10_n03041632_9671.png
subject-02,1,543,0.66254711151123,elephant,elephant,1,0543_hp_s02_1_elephant_10_n02504458_1726.png
subject-02,1,544,0.455097913742065,cat,cat,1,0544_hp_s02_1_cat_10_n02123159_1032.png
subject-02,1,545,0.569827079772949,bird,bird,inf,0545_hp_s02_inf_bird_10_n01795545_3558.png
subject-02,1,546,0.716157913208008,oven,oven,0.7,0546_hp_s02_0.7_oven_10_n04111531_2381.png
subject-02,1,547,0.624856948852539,car,car,0.55,0547_hp_s02_0.55_car_10_n03100240_3386.png
subject-02,1,548,0.685378074645996,clock,clock,0.55,0548_hp_s02_0.55_clock_10_n04548280_1354.png
subject-02,1,549,0.663607835769653,boat,boat,0.7,0549_hp_s02_0.7_boat_10_n03344393_12520.png
subject-02,1,550,0.594236135482788,boat,bird,0.7,0550_hp_s02_0.7_bird_10_n02025239_11023.png
subject-02,1,551,0.948723077774048,bottle,bicycle,0.4,0551_hp_s02_0.4_bicycle_10_n02835271_5705.png
subject-02,1,552,0.687282085418701,clock,clock,1,0552_hp_s02_1_clock_10_n03196217_7971.png
subject-02,1,553,0.72557806968689,bird,bird,1,0553_hp_s02_1_bird_10_n01843383_7927.png
subject-02,1,554,0.663960933685303,airplane,airplane,inf,0554_hp_s02_inf_airplane_10_n02690373_1769.png
subject-02,1,555,0.572596073150635,boat,bird,0.7,0555_hp_s02_0.7_bird_10_n01530575_390.png
subject-02,1,556,0.526731967926025,clock,clock,0.7,0556_hp_s02_0.7_clock_10_n04548280_8914.png
subject-02,1,557,0.88724422454834,knife,oven,0.45,0557_hp_s02_0.45_oven_10_n04111531_11634.png
subject-02,1,558,0.587953090667725,chair,elephant,0.7,0558_hp_s02_0.7_elephant_10_n02504458_7913.png
subject-02,1,559,0.634320020675659,chair,chair,1.5,0559_hp_s02_1.5_chair_10_n04429376_9000.png
subject-02,1,560,0.711037874221802,chair,bird,1.5,0560_hp_s02_1.5_bird_10_n01817953_12434.png
subject-02,1,561,0.457475185394287,oven,clock,0.45,0561_hp_s02_0.45_clock_10_n04548280_353.png
subject-02,1,562,0.550130844116211,boat,boat,1,0562_hp_s02_1_boat_10_n03344393_9732.png
subject-02,1,563,0.896377086639404,keyboard,chair,0.45,0563_hp_s02_0.45_chair_10_n04099969_2098.png
subject-02,1,564,0.742664098739624,truck,truck,0.7,0564_hp_s02_0.7_truck_10_n03417042_6250.png
subject-02,1,565,1.30324387550354,bottle,knife,0.7,0565_hp_s02_0.7_knife_10_n03041632_28129.png
subject-02,1,566,0.6356201171875,bottle,bottle,inf,0566_hp_s02_inf_bottle_10_n03983396_1338.png
subject-02,1,567,0.450459957122803,clock,clock,inf,0567_hp_s02_inf_clock_10_n04548280_6287.png
subject-02,1,568,1.00476098060608,bottle,bottle,0.7,0568_hp_s02_0.7_bottle_10_n03937543_1920.png
subject-02,1,569,0.767346858978271,keyboard,oven,1.5,0569_hp_s02_1.5_oven_10_n04111531_8818.png
subject-02,1,570,0.505944967269897,airplane,airplane,3,0570_hp_s02_3_airplane_10_n02690373_18234.png
subject-02,1,571,0.752079963684082,truck,truck,0.55,0571_hp_s02_0.55_truck_10_n03417042_6489.png
subject-02,1,572,0.598600149154663,truck,truck,1.5,0572_hp_s02_1.5_truck_10_n04467665_3098.png
subject-02,1,573,0.59120512008667,bear,bear,0.45,0573_hp_s02_0.45_bear_10_n02133161_3111.png
subject-02,1,574,0.559503078460693,cat,cat,1,0574_hp_s02_1_cat_10_n02123394_1914.png
subject-02,1,575,0.52201509475708,chair,chair,inf,0575_hp_s02_inf_chair_10_n04099969_4146.png
subject-02,1,576,0.622596979141235,chair,knife,0.7,0576_hp_s02_0.7_knife_10_n03041632_24113.png
subject-02,1,577,0.498975038528442,oven,bird,0.4,0577_hp_s02_0.4_bird_10_n01514859_6231.png
subject-02,1,578,0.853344917297363,knife,oven,0.4,0578_hp_s02_0.4_oven_10_n04111531_1945.png
subject-02,1,579,0.729988098144531,bear,bear,1.5,0579_hp_s02_1.5_bear_10_n02133161_11344.png
subject-02,1,580,0.630291938781738,dog,dog,inf,0580_hp_s02_inf_dog_10_n02091134_1696.png
subject-02,1,581,0.693167924880981,dog,bird,3,0581_hp_s02_3_bird_10_n01818515_39.png
subject-02,1,582,0.885306119918823,truck,boat,1,0582_hp_s02_1_boat_10_n03344393_3188.png
subject-02,1,583,0.815991878509521,bear,bear,inf,0583_hp_s02_inf_bear_10_n02133161_8871.png
subject-02,1,584,1.0005190372467,cat,cat,0.4,0584_hp_s02_0.4_cat_10_n02123159_1660.png
subject-02,1,585,0.639111995697021,car,car,inf,0585_hp_s02_inf_car_10_n04285008_6440.png
subject-02,1,586,0.755430936813354,cat,cat,1.5,0586_hp_s02_1.5_cat_10_n02123394_1200.png
subject-02,1,587,0.669952869415283,dog,dog,inf,0587_hp_s02_inf_dog_10_n02099712_510.png
subject-02,1,588,0.802043914794922,knife,boat,0.7,0588_hp_s02_0.7_boat_10_n02951358_14419.png
subject-02,1,589,0.624773025512695,bird,boat,0.4,0589_hp_s02_0.4_boat_10_n03662601_1524.png
subject-02,1,590,0.854964971542358,car,bird,0.45,0590_hp_s02_0.45_bird_10_n01843065_5515.png
subject-02,1,591,0.58759593963623,bird,bird,3,0591_hp_s02_3_bird_10_n02033041_4997.png
subject-02,1,592,0.626123905181885,bird,truck,0.4,0592_hp_s02_0.4_truck_10_n03417042_7497.png
subject-02,1,593,0.432477951049805,oven,car,0.45,0593_hp_s02_0.45_car_10_n02814533_98315.png
subject-02,1,594,0.503247022628784,keyboard,keyboard,0.7,0594_hp_s02_0.7_keyboard_10_n04505470_1648.png
subject-02,1,595,0.503474950790405,bottle,bottle,inf,0595_hp_s02_inf_bottle_10_n03983396_17006.png
subject-02,1,596,1.486083984375,airplane,cat,0.45,0596_hp_s02_0.45_cat_10_n02123045_16535.png
subject-02,1,597,0.664547204971313,oven,boat,0.45,0597_hp_s02_0.45_boat_10_n02951358_6647.png
subject-02,1,598,0.649161100387573,clock,clock,1,0598_hp_s02_1_clock_10_n02708093_7901.png
subject-02,1,599,0.535606861114502,airplane,boat,1.5,0599_hp_s02_1.5_boat_10_n03344393_2167.png
subject-02,1,600,0.512215852737427,cat,cat,0.7,0600_hp_s02_0.7_cat_10_n02123045_13344.png
subject-02,1,601,0.626708984375,truck,truck,3,0601_hp_s02_3_truck_10_n04467665_40307.png
subject-02,1,602,0.819294929504395,car,car,0.7,0602_hp_s02_0.7_car_10_n02814533_77492.png
subject-02,1,603,0.535665988922119,car,knife,0.4,0603_hp_s02_0.4_knife_10_n03041632_5302.png
subject-02,1,604,0.620003938674927,oven,elephant,0.55,0604_hp_s02_0.55_elephant_10_n02504458_6119.png
subject-02,1,605,0.74251389503479,keyboard,keyboard,3,0605_hp_s02_3_keyboard_10_n04505470_4569.png
subject-02,1,606,0.627140998840332,airplane,airplane,0.7,0606_hp_s02_0.7_airplane_10_n02690373_7944.png
subject-02,1,607,0.451486825942993,car,car,inf,0607_hp_s02_inf_car_10_n03100240_6200.png
subject-02,1,608,0.843654155731201,truck,boat,0.45,0608_hp_s02_0.45_boat_10_n04273569_568.png
subject-02,1,609,0.452088832855225,bear,bear,0.55,0609_hp_s02_0.55_bear_10_n02133161_13139.png
subject-02,1,610,0.812073945999146,chair,chair,0.7,0610_hp_s02_0.7_chair_10_n04099969_15676.png
subject-02,1,611,0.642126083374023,elephant,car,0.4,0611_hp_s02_0.4_car_10_n03100240_3874.png
subject-02,1,612,0.680663108825684,keyboard,keyboard,0.7,0612_hp_s02_0.7_keyboard_10_n03085013_7992.png
subject-02,1,613,0.719390153884888,car,car,0.7,0613_hp_s02_0.7_car_10_n04285008_9774.png
subject-02,1,614,0.419622898101807,oven,car,0.4,0614_hp_s02_0.4_car_10_n03100240_17143.png
subject-02,1,615,0.642077922821045,airplane,airplane,1.5,0615_hp_s02_1.5_airplane_10_n02690373_6812.png
subject-02,1,616,0.826611995697021,knife,airplane,0.45,0616_hp_s02_0.45_airplane_10_n02690373_9401.png
subject-02,1,617,0.781285047531128,bird,bird,1,0617_hp_s02_1_bird_10_n01860187_3329.png
subject-02,1,618,0.651854991912842,cat,knife,0.4,0618_hp_s02_0.4_knife_10_n03041632_2386.png
subject-02,1,619,0.866346836090088,boat,boat,0.55,0619_hp_s02_0.55_boat_10_n02951358_582.png
subject-02,1,620,0.728604793548584,elephant,elephant,inf,0620_hp_s02_inf_elephant_10_n02504458_1439.png
subject-02,1,621,0.55915904045105,car,car,3,0621_hp_s02_3_car_10_n02814533_16431.png
subject-02,1,622,0.9738929271698,cat,boat,0.55,0622_hp_s02_0.55_boat_10_n03344393_6607.png
subject-02,1,623,0.890056133270264,clock,clock,3,0623_hp_s02_3_clock_10_n04548280_17907.png
subject-02,1,624,0.552634000778198,bird,bird,0.55,0624_hp_s02_0.55_bird_10_n01532829_22797.png
subject-02,1,625,0.512983083724976,cat,car,0.45,0625_hp_s02_0.45_car_10_n04285008_14573.png
subject-02,1,626,0.659146070480347,knife,bird,0.45,0626_hp_s02_0.45_bird_10_n02037110_3691.png
subject-02,1,627,0.575634956359863,airplane,airplane,1.5,0627_hp_s02_1.5_airplane_10_n02690373_8765.png
subject-02,1,628,0.444243192672729,keyboard,bear,0.4,0628_hp_s02_0.4_bear_10_n02133161_11796.png
subject-02,1,629,0.514849901199341,dog,dog,inf,0629_hp_s02_inf_dog_10_n02106166_2206.png
subject-02,1,630,0.513365030288696,airplane,airplane,0.7,0630_hp_s02_0.7_airplane_10_n02690373_5838.png
subject-02,1,631,0.599815130233765,boat,oven,0.55,0631_hp_s02_0.55_oven_10_n04111531_21382.png
subject-02,1,632,0.552440881729126,boat,boat,inf,0632_hp_s02_inf_boat_10_n04612504_40672.png
subject-02,1,633,0.974584102630615,bear,elephant,1.5,0633_hp_s02_1.5_elephant_10_n02504013_2369.png
subject-02,1,634,0.899137020111084,bear,bear,3,0634_hp_s02_3_bear_10_n02133161_5325.png
subject-02,1,635,0.867613077163696,elephant,bear,0.7,0635_hp_s02_0.7_bear_10_n02134084_3356.png
subject-02,1,636,0.530365943908691,bird,bird,3,0636_hp_s02_3_bird_10_n01818515_6889.png
subject-02,1,637,0.630659103393555,cat,airplane,0.55,0637_hp_s02_0.55_airplane_10_n02690373_3407.png
subject-02,1,638,0.968915939331055,chair,chair,inf,0638_hp_s02_inf_chair_10_n04099969_15406.png
subject-02,1,639,0.553498983383179,keyboard,keyboard,3,0639_hp_s02_3_keyboard_10_n03085013_20357.png
subject-02,1,640,0.415757894515991,clock,truck,0.45,0640_hp_s02_0.45_truck_10_n03417042_18622.png
subject-02,1,641,0.721961975097656,boat,cat,0.55,0641_hp_s02_0.55_cat_10_n02124075_11022.png
subject-02,1,642,1.10680389404297,boat,boat,1.5,0642_hp_s02_1.5_boat_10_n03662601_6399.png
subject-02,1,643,0.577327013015747,cat,cat,3,0643_hp_s02_3_cat_10_n02123159_1120.png
subject-02,1,644,0.529643058776855,clock,cat,0.4,0644_hp_s02_0.4_cat_10_n02123597_6521.png
subject-02,1,645,0.707959890365601,truck,truck,1,0645_hp_s02_1_truck_10_n04467665_6687.png
subject-02,1,646,0.754885911941528,truck,truck,1.5,0646_hp_s02_1.5_truck_10_n04467665_51519.png
subject-02,1,647,0.669091939926147,elephant,elephant,1.5,0647_hp_s02_1.5_elephant_10_n02504013_6710.png
subject-02,1,648,0.599663972854614,airplane,airplane,0.55,0648_hp_s02_0.55_airplane_10_n02690373_10354.png
subject-02,1,649,0.591892004013062,airplane,airplane,1.5,0649_hp_s02_1.5_airplane_10_n02690373_2750.png
subject-02,1,650,0.868534088134766,bear,bear,3,0650_hp_s02_3_bear_10_n02132136_12401.png
subject-02,1,651,0.885093927383423,bird,bird,0.4,0651_hp_s02_0.4_bird_10_n01601694_3334.png
subject-02,1,652,0.745514869689941,dog,dog,1,0652_hp_s02_1_dog_10_n02107574_2577.png
subject-02,1,653,0.767573833465576,dog,dog,3,0653_hp_s02_3_dog_10_n02104365_3926.png
subject-02,1,654,0.69208812713623,elephant,elephant,3,0654_hp_s02_3_elephant_10_n02504458_2272.png
subject-02,1,655,0.746685028076172,bicycle,bicycle,0.7,0655_hp_s02_0.7_bicycle_10_n02835271_9594.png
subject-02,1,656,0.431128978729248,cat,keyboard,0.45,0656_hp_s02_0.45_keyboard_10_n04505470_2089.png
subject-02,1,657,0.415941953659058,oven,clock,0.45,0657_hp_s02_0.45_clock_10_n03196217_8261.png
subject-02,1,658,0.44637393951416,clock,clock,inf,0658_hp_s02_inf_clock_10_n02708093_2555.png
subject-02,1,659,0.524790048599243,chair,chair,1,0659_hp_s02_1_chair_10_n04099969_18463.png
subject-02,1,660,0.76911187171936,airplane,airplane,1,0660_hp_s02_1_airplane_10_n02690373_10481.png
subject-02,1,661,0.51550817489624,boat,bird,0.55,0661_hp_s02_0.55_bird_10_n01833805_851.png
subject-02,1,662,0.678122997283936,airplane,boat,1,0662_hp_s02_1_boat_10_n02951358_4793.png
subject-02,1,663,0.654926061630249,bird,cat,1,0663_hp_s02_1_cat_10_n02123394_1718.png
subject-02,1,664,0.655096054077148,oven,bear,0.45,0664_hp_s02_0.45_bear_10_n02134084_830.png
subject-02,1,665,0.87741494178772,knife,knife,1,0665_hp_s02_1_knife_10_n03041632_9406.png
subject-02,1,666,0.648077964782715,dog,dog,0.7,0666_hp_s02_0.7_dog_10_n02095889_10116.png
subject-02,1,667,0.746301174163818,boat,boat,3,0667_hp_s02_3_boat_10_n02951358_33277.png
subject-02,1,668,0.930101156234741,truck,truck,0.7,0668_hp_s02_0.7_truck_10_n04467665_42482.png
subject-02,1,669,0.67634916305542,car,bicycle,0.45,0669_hp_s02_0.45_bicycle_10_n03792782_15932.png
subject-02,1,670,0.431067943572998,chair,chair,inf,0670_hp_s02_inf_chair_10_n03376595_15723.png
subject-02,1,671,0.507238864898682,airplane,bird,0.55,0671_hp_s02_0.55_bird_10_n01819313_6984.png
subject-02,1,672,0.75387716293335,bird,knife,1,0672_hp_s02_1_knife_10_n03041632_932.png
subject-02,1,673,0.808454990386963,airplane,airplane,0.7,0673_hp_s02_0.7_airplane_10_n02690373_2837.png
subject-02,1,674,0.746671199798584,boat,clock,0.45,0674_hp_s02_0.45_clock_10_n03196217_5992.png
subject-02,1,675,0.539246082305908,cat,cat,3,0675_hp_s02_3_cat_10_n02123045_13283.png
subject-02,1,676,0.646084070205688,bear,bear,inf,0676_hp_s02_inf_bear_10_n02134084_4853.png
subject-02,1,677,0.50045919418335,chair,chair,inf,0677_hp_s02_inf_chair_10_n03376595_5074.png
subject-02,1,678,0.716728925704956,bird,bird,1,0678_hp_s02_1_bird_10_n02056570_9303.png
subject-02,1,679,0.693164110183716,truck,car,1.5,0679_hp_s02_1.5_car_10_n02814533_58929.png
subject-02,1,680,0.677759885787964,elephant,elephant,inf,0680_hp_s02_inf_elephant_10_n02504013_3083.png
subject-02,1,681,0.432240962982178,car,car,3,0681_hp_s02_3_car_10_n04285008_2603.png
subject-02,1,682,0.702810049057007,elephant,elephant,1,0682_hp_s02_1_elephant_10_n02504458_6898.png
subject-02,1,683,0.563104867935181,car,bottle,0.45,0683_hp_s02_0.45_bottle_10_n04557648_4513.png
subject-02,1,684,0.425765991210938,clock,clock,inf,0684_hp_s02_inf_clock_10_n03196217_3943.png
subject-02,1,685,0.485944986343384,cat,cat,1,0685_hp_s02_1_cat_10_n02123159_6971.png
subject-02,1,686,0.632535934448242,bottle,bottle,1,0686_hp_s02_1_bottle_10_n04591713_335.png
subject-02,1,687,0.865273952484131,dog,bear,1.5,0687_hp_s02_1.5_bear_10_n02134418_6174.png
subject-02,1,688,0.687241077423096,cat,cat,0.55,0688_hp_s02_0.55_cat_10_n02124075_8621.png
subject-02,1,689,0.672116994857788,bird,bird,0.55,0689_hp_s02_0.55_bird_10_n02025239_17368.png
subject-02,1,690,0.51844310760498,bird,bird,1.5,0690_hp_s02_1.5_bird_10_n01616318_3064.png
subject-02,1,691,0.702897787094116,oven,oven,0.45,0691_hp_s02_0.45_oven_10_n04111531_2937.png
subject-02,1,692,0.581511974334717,airplane,airplane,1.5,0692_hp_s02_1.5_airplane_10_n02690373_6114.png
subject-02,1,693,0.619908809661865,chair,bear,0.7,0693_hp_s02_0.7_bear_10_n02134084_8842.png
subject-02,1,694,0.642434120178223,cat,dog,0.55,0694_hp_s02_0.55_dog_10_n02096294_12931.png
subject-02,1,695,0.429018974304199,keyboard,keyboard,3,0695_hp_s02_3_keyboard_10_n03085013_22597.png
subject-02,1,696,0.943272829055786,truck,truck,1.5,0696_hp_s02_1.5_truck_10_n03417042_5249.png
subject-02,1,697,0.643864154815674,knife,airplane,0.45,0697_hp_s02_0.45_airplane_10_n02690373_9535.png
subject-02,1,698,0.704071044921875,truck,truck,inf,0698_hp_s02_inf_truck_10_n03796401_9038.png
subject-02,1,699,0.850462198257446,dog,dog,inf,0699_hp_s02_inf_dog_10_n02102318_11627.png
subject-02,1,700,0.596867084503174,keyboard,bicycle,0.45,0700_hp_s02_0.45_bicycle_10_n02835271_5413.png
subject-02,1,701,0.819292068481445,knife,knife,0.7,0701_hp_s02_0.7_knife_10_n03041632_4037.png
subject-02,1,702,1.16590118408203,boat,airplane,0.55,0702_hp_s02_0.55_airplane_10_n02690373_6825.png
subject-02,1,703,0.936032056808472,boat,airplane,0.55,0703_hp_s02_0.55_airplane_10_n02690373_9802.png
subject-02,1,704,0.620784997940063,airplane,chair,0.55,0704_hp_s02_0.55_chair_10_n03376595_3010.png
subject-02,1,705,0.575068950653076,bird,bird,1,0705_hp_s02_1_bird_10_n02017213_43.png
subject-02,1,706,0.591766834259033,bicycle,bottle,0.4,0706_hp_s02_0.4_bottle_10_n03983396_6116.png
subject-02,1,707,0.636146783828735,bicycle,bicycle,inf,0707_hp_s02_inf_bicycle_10_n03792782_6030.png
subject-02,1,708,0.538645029067993,airplane,car,0.45,0708_hp_s02_0.45_car_10_n03100240_19570.png
subject-02,1,709,0.829142093658447,knife,car,0.4,0709_hp_s02_0.4_car_10_n03100240_5479.png
subject-02,1,710,0.821498870849609,cat,bird,0.7,0710_hp_s02_0.7_bird_10_n02011460_5913.png
subject-02,1,711,0.675629138946533,boat,chair,0.4,0711_hp_s02_0.4_chair_10_n04099969_3600.png
subject-02,1,712,0.814348936080933,dog,dog,3,0712_hp_s02_3_dog_10_n02092002_15393.png
subject-02,1,713,0.707030057907104,cat,clock,0.4,0713_hp_s02_0.4_clock_10_n04548280_1321.png
subject-02,1,714,0.545115947723389,car,car,3,0714_hp_s02_3_car_10_n04285008_15536.png
subject-02,1,715,0.837598085403442,truck,bear,0.4,0715_hp_s02_0.4_bear_10_n02134084_19589.png
subject-02,1,716,0.675814151763916,bottle,bottle,1.5,0716_hp_s02_1.5_bottle_10_n03983396_2763.png
subject-02,1,717,0.354639053344727,oven,oven,0.4,0717_hp_s02_0.4_oven_10_n04111531_4939.png
subject-02,1,718,0.630825042724609,clock,clock,0.7,0718_hp_s02_0.7_clock_10_n02708093_391.png
subject-02,1,719,0.831451892852783,chair,chair,0.55,0719_hp_s02_0.55_chair_10_n04429376_24375.png
subject-02,1,720,0.569688081741333,oven,oven,inf,0720_hp_s02_inf_oven_10_n04111531_688.png
subject-02,1,721,0.608000040054321,chair,keyboard,0.7,0721_hp_s02_0.7_keyboard_10_n03085013_2752.png
subject-02,1,722,0.800525903701782,keyboard,oven,0.55,0722_hp_s02_0.55_oven_10_n04111531_2331.png
subject-02,1,723,0.523212194442749,car,car,1,0723_hp_s02_1_car_10_n03100240_21971.png
subject-02,1,724,0.569497108459473,bear,bear,0.7,0724_hp_s02_0.7_bear_10_n02134084_635.png
subject-02,1,725,0.594111919403076,bird,dog,0.45,0725_hp_s02_0.45_dog_10_n02113624_8158.png
subject-02,1,726,0.648428916931152,keyboard,keyboard,1.5,0726_hp_s02_1.5_keyboard_10_n04505470_3122.png
subject-02,1,727,0.471011161804199,boat,boat,3,0727_hp_s02_3_boat_10_n04612504_771.png
subject-02,1,728,0.855829954147339,car,bicycle,1,0728_hp_s02_1_bicycle_10_n03792782_5232.png
subject-02,1,729,0.664079904556274,oven,oven,inf,0729_hp_s02_inf_oven_10_n04111531_7064.png
subject-02,1,730,0.624626874923706,airplane,airplane,3,0730_hp_s02_3_airplane_10_n02690373_6614.png
subject-02,1,731,0.556925058364868,boat,bird,0.7,0731_hp_s02_0.7_bird_10_n01855672_6119.png
subject-02,1,732,0.433433055877686,clock,knife,0.45,0732_hp_s02_0.45_knife_10_n03041632_13130.png
subject-02,1,733,0.588295936584473,chair,chair,3,0733_hp_s02_3_chair_10_n04429376_3248.png
subject-02,1,734,0.748186111450195,bottle,bottle,1,0734_hp_s02_1_bottle_10_n04591713_3438.png
subject-02,1,735,0.756557941436768,bottle,bottle,3,0735_hp_s02_3_bottle_10_n02823428_3876.png
subject-02,1,736,0.579281091690063,boat,boat,0.7,0736_hp_s02_0.7_boat_10_n03344393_12500.png
subject-02,1,737,0.5416259765625,bottle,knife,0.55,0737_hp_s02_0.55_knife_10_n03041632_362.png
subject-02,1,738,0.910197019577026,truck,truck,1,0738_hp_s02_1_truck_10_n04467665_31539.png
subject-02,1,739,0.640288114547729,bottle,bottle,0.55,0739_hp_s02_0.55_bottle_10_n03983396_13217.png
subject-02,1,740,0.873073101043701,bird,bird,0.55,0740_hp_s02_0.55_bird_10_n01532829_33412.png
subject-02,1,741,0.911240100860596,oven,oven,3,0741_hp_s02_3_oven_10_n04111531_11470.png
subject-02,1,742,0.957736968994141,bicycle,bicycle,inf,0742_hp_s02_inf_bicycle_10_n02835271_3538.png
subject-02,1,743,0.558556795120239,clock,clock,1.5,0743_hp_s02_1.5_clock_10_n04548280_1022.png
subject-02,1,744,0.556493997573853,boat,elephant,0.4,0744_hp_s02_0.4_elephant_10_n02504013_7303.png
subject-02,1,745,0.948872089385986,elephant,bicycle,0.55,0745_hp_s02_0.55_bicycle_10_n03792782_65779.png
subject-02,1,746,0.665475845336914,truck,truck,0.55,0746_hp_s02_0.55_truck_10_n04467665_66772.png
subject-02,1,747,0.671724081039429,bear,keyboard,0.4,0747_hp_s02_0.4_keyboard_10_n03085013_21161.png
subject-02,1,748,0.564139842987061,dog,cat,0.45,0748_hp_s02_0.45_cat_10_n02123159_2087.png
subject-02,1,749,0.650712966918945,cat,cat,1.5,0749_hp_s02_1.5_cat_10_n02125311_4261.png
subject-02,1,750,0.581024885177612,bottle,bottle,3,0750_hp_s02_3_bottle_10_n02823428_446.png
subject-02,1,751,0.487567901611328,chair,chair,3,0751_hp_s02_3_chair_10_n02791124_3708.png
subject-02,1,752,0.474001884460449,cat,cat,3,0752_hp_s02_3_cat_10_n02123159_7928.png
subject-02,1,753,0.466773986816406,bear,bear,inf,0753_hp_s02_inf_bear_10_n02134418_4267.png
subject-02,1,754,0.473294973373413,clock,clock,0.7,0754_hp_s02_0.7_clock_10_n04548280_4306.png
subject-02,1,755,0.749555826187134,clock,clock,3,0755_hp_s02_3_clock_10_n02708093_1144.png
subject-02,1,756,0.820075035095215,bear,bear,1,0756_hp_s02_1_bear_10_n02133161_4348.png
subject-02,1,757,0.826163053512573,airplane,truck,0.45,0757_hp_s02_0.45_truck_10_n03417042_19355.png
subject-02,1,758,0.712930917739868,bottle,keyboard,1,0758_hp_s02_1_keyboard_10_n03085013_21127.png
subject-02,1,759,0.811460018157959,car,oven,0.7,0759_hp_s02_0.7_oven_10_n04111531_5776.png
subject-02,1,760,0.651774883270264,chair,bottle,inf,0760_hp_s02_inf_bottle_10_n04591713_7250.png
subject-02,1,761,0.690443992614746,chair,dog,0.7,0761_hp_s02_0.7_dog_10_n02099267_5102.png
subject-02,1,762,0.574958086013794,cat,dog,0.7,0762_hp_s02_0.7_dog_10_n02097298_8334.png
subject-02,1,763,0.829117059707642,clock,clock,inf,0763_hp_s02_inf_clock_10_n04548280_3644.png
subject-02,1,764,0.789725065231323,bicycle,bicycle,1.5,0764_hp_s02_1.5_bicycle_10_n02835271_5279.png
subject-02,1,765,0.506237030029297,bear,bear,1,0765_hp_s02_1_bear_10_n02134418_2434.png
subject-02,1,766,0.858741044998169,airplane,bird,0.7,0766_hp_s02_0.7_bird_10_n01843065_5927.png
subject-02,1,767,0.721359014511108,oven,boat,0.55,0767_hp_s02_0.55_boat_10_n04612504_15716.png
subject-02,1,768,0.8056960105896,chair,knife,1.5,0768_hp_s02_1.5_knife_10_n03041632_3926.png
subject-02,1,769,0.705842971801758,car,car,1.5,0769_hp_s02_1.5_car_10_n02814533_4768.png
subject-02,1,770,0.590388059616089,chair,chair,0.55,0770_hp_s02_0.55_chair_10_n04099969_2221.png
subject-02,1,771,0.653061866760254,truck,truck,0.7,0771_hp_s02_0.7_truck_10_n03796401_18139.png
subject-02,1,772,0.537131071090698,cat,cat,0.7,0772_hp_s02_0.7_cat_10_n02124075_11526.png
subject-02,1,773,0.759577989578247,bear,bottle,0.45,0773_hp_s02_0.45_bottle_10_n04557648_2525.png
subject-02,1,774,0.728130102157593,boat,boat,1.5,0774_hp_s02_1.5_boat_10_n03662601_34987.png
subject-02,1,775,1.18265295028687,bicycle,clock,0.4,0775_hp_s02_0.4_clock_10_n04548280_23523.png
subject-02,1,776,0.751055955886841,cat,airplane,0.4,0776_hp_s02_0.4_airplane_10_n02690373_3729.png
subject-02,1,777,0.51354193687439,car,car,0.7,0777_hp_s02_0.7_car_10_n03100240_7182.png
subject-02,1,778,0.714133977890015,bicycle,bicycle,inf,0778_hp_s02_inf_bicycle_10_n02835271_22143.png
subject-02,1,779,0.852460861206055,knife,knife,3,0779_hp_s02_3_knife_10_n03041632_33075.png
subject-02,1,780,0.590979099273682,keyboard,oven,0.55,0780_hp_s02_0.55_oven_10_n04111531_13560.png
subject-02,1,781,0.729032039642334,truck,truck,1,0781_hp_s02_1_truck_10_n03417042_27586.png
subject-02,1,782,0.505667924880981,bird,bird,inf,0782_hp_s02_inf_bird_10_n01829413_15125.png
subject-02,1,783,1.50025010108948,bear,elephant,1.5,0783_hp_s02_1.5_elephant_10_n02504458_511.png
subject-02,1,784,0.60473108291626,oven,oven,0.4,0784_hp_s02_0.4_oven_10_n04111531_9370.png
subject-02,1,785,0.437182903289795,cat,cat,3,0785_hp_s02_3_cat_10_n02123394_979.png
subject-02,1,786,0.759733915328979,elephant,airplane,0.4,0786_hp_s02_0.4_airplane_10_n02690373_4191.png
subject-02,1,787,0.674069881439209,bicycle,bicycle,0.55,0787_hp_s02_0.55_bicycle_10_n02835271_14123.png
subject-02,1,788,0.65858006477356,knife,knife,1.5,0788_hp_s02_1.5_knife_10_n03041632_4318.png
subject-02,1,789,0.551347017288208,airplane,dog,0.7,0789_hp_s02_0.7_dog_10_n02099601_5876.png
subject-02,1,790,0.621761083602905,boat,boat,inf,0790_hp_s02_inf_boat_10_n02951358_2588.png
subject-02,1,791,0.736279964447021,knife,knife,inf,0791_hp_s02_inf_knife_10_n03041632_23803.png
subject-02,1,792,1.02873611450195,elephant,elephant,1.5,0792_hp_s02_1.5_elephant_10_n02504458_1996.png
subject-02,1,793,0.537081956863403,keyboard,dog,0.4,0793_hp_s02_0.4_dog_10_n02092339_1130.png
subject-02,1,794,0.551964044570923,car,cat,1.5,0794_hp_s02_1.5_cat_10_n02124075_10948.png
subject-02,1,795,0.568278074264526,keyboard,keyboard,inf,0795_hp_s02_inf_keyboard_10_n03085013_31972.png
subject-02,1,796,0.614730834960938,chair,knife,1.5,0796_hp_s02_1.5_knife_10_n03041632_43506.png
subject-02,1,797,0.805098056793213,cat,bear,0.4,0797_hp_s02_0.4_bear_10_n02133161_1619.png
subject-02,1,798,NaN,na,truck,0.4,0798_hp_s02_0.4_truck_10_n04467665_54079.png
subject-02,1,799,0.659711837768555,chair,chair,0.7,0799_hp_s02_0.7_chair_10_n02791124_6688.png
subject-02,1,800,0.498605966567993,clock,keyboard,0.55,0800_hp_s02_0.55_keyboard_10_n03085013_22585.png
subject-02,1,801,0.685575008392334,oven,dog,0.7,0801_hp_s02_0.7_dog_10_n02107574_1315.png
subject-02,1,802,0.555705070495605,oven,truck,0.7,0802_hp_s02_0.7_truck_10_n03417042_25264.png
subject-02,1,803,0.5244300365448,boat,truck,1.5,0803_hp_s02_1.5_truck_10_n03796401_22128.png
subject-02,1,804,0.486793994903564,car,bear,0.4,0804_hp_s02_0.4_bear_10_n02133161_15682.png
subject-02,1,805,0.571285009384155,bird,cat,0.45,0805_hp_s02_0.45_cat_10_n02123159_284.png
subject-02,1,806,0.409548997879028,clock,clock,inf,0806_hp_s02_inf_clock_10_n03196217_219.png
subject-02,1,807,0.43206787109375,cat,bicycle,0.4,0807_hp_s02_0.4_bicycle_10_n03792782_1475.png
subject-02,1,808,0.532533168792725,boat,keyboard,0.55,0808_hp_s02_0.55_keyboard_10_n03085013_21769.png
subject-02,1,809,0.533159017562866,dog,dog,3,0809_hp_s02_3_dog_10_n02091244_596.png
subject-02,1,810,0.725656986236572,keyboard,cat,1,0810_hp_s02_1_cat_10_n02123045_5123.png
subject-02,1,811,0.748085021972656,airplane,bicycle,0.45,0811_hp_s02_0.45_bicycle_10_n02835271_7284.png
subject-02,1,812,0.970592975616455,truck,knife,0.7,0812_hp_s02_0.7_knife_10_n03041632_32377.png
subject-02,1,813,0.695211172103882,clock,clock,3,0813_hp_s02_3_clock_10_n04548280_3386.png
subject-02,1,814,0.801812887191772,bottle,knife,0.7,0814_hp_s02_0.7_knife_10_n03041632_89391.png
subject-02,1,815,0.347892045974731,boat,bear,0.4,0815_hp_s02_0.4_bear_10_n02133161_7604.png
subject-02,1,816,0.602499008178711,bicycle,dog,0.45,0816_hp_s02_0.45_dog_10_n02093754_7101.png
subject-02,1,817,0.486670970916748,bottle,bottle,1.5,0817_hp_s02_1.5_bottle_10_n02823428_14155.png
subject-02,1,818,0.625471115112305,bicycle,bicycle,3,0818_hp_s02_3_bicycle_10_n03792782_1398.png
subject-02,1,819,0.739650964736938,knife,knife,0.7,0819_hp_s02_0.7_knife_10_n03041632_927.png
subject-02,1,820,0.794153928756714,bicycle,bicycle,0.7,0820_hp_s02_0.7_bicycle_10_n02835271_2620.png
subject-02,1,821,0.894267082214355,knife,knife,0.55,0821_hp_s02_0.55_knife_10_n03041632_86783.png
subject-02,1,822,0.941013097763062,cat,bear,1,0822_hp_s02_1_bear_10_n02132136_8386.png
subject-02,1,823,0.733068943023682,keyboard,keyboard,3,0823_hp_s02_3_keyboard_10_n04505470_4873.png
subject-02,1,824,0.493768930435181,cat,cat,0.7,0824_hp_s02_0.7_cat_10_n02123159_5389.png
subject-02,1,825,0.947667121887207,bottle,bottle,3,0825_hp_s02_3_bottle_10_n04560804_14111.png
subject-02,1,826,1.32424402236938,chair,chair,0.55,0826_hp_s02_0.55_chair_10_n04429376_14967.png
subject-02,1,827,0.655019044876099,clock,clock,3,0827_hp_s02_3_clock_10_n02708093_8051.png
subject-02,1,828,1.10110402107239,knife,knife,inf,0828_hp_s02_inf_knife_10_n03041632_18141.png
subject-02,1,829,0.563688039779663,car,car,1,0829_hp_s02_1_car_10_n03100240_5091.png
subject-02,1,830,0.51829981803894,clock,clock,inf,0830_hp_s02_inf_clock_10_n03196217_781.png
subject-02,1,831,0.786928176879883,bird,cat,1.5,0831_hp_s02_1.5_cat_10_n02123394_10335.png
subject-02,1,832,0.787280082702637,cat,bird,0.4,0832_hp_s02_0.4_bird_10_n01534433_4542.png
subject-02,1,833,0.555364847183228,bicycle,bicycle,1,0833_hp_s02_1_bicycle_10_n02835271_14585.png
subject-02,1,834,0.864197015762329,car,oven,0.7,0834_hp_s02_0.7_oven_10_n04111531_6400.png
subject-02,1,835,1.25447392463684,elephant,bird,1,0835_hp_s02_1_bird_10_n02056570_7336.png
subject-02,1,836,0.703157901763916,car,knife,3,0836_hp_s02_3_knife_10_n03041632_26933.png
subject-02,1,837,0.695499897003174,oven,oven,1,0837_hp_s02_1_oven_10_n04111531_15467.png
subject-02,1,838,0.625984907150269,cat,dog,0.55,0838_hp_s02_0.55_dog_10_n02106382_1707.png
subject-02,1,839,0.656320095062256,bird,bird,3,0839_hp_s02_3_bird_10_n01530575_22707.png
subject-02,1,840,0.632953882217407,truck,truck,inf,0840_hp_s02_inf_truck_10_n04467665_52876.png
subject-02,1,841,0.60348105430603,bird,bird,1.5,0841_hp_s02_1.5_bird_10_n01829413_5669.png
subject-02,1,842,0.550076961517334,clock,clock,0.55,0842_hp_s02_0.55_clock_10_n04548280_21263.png
subject-02,1,843,0.564424991607666,truck,truck,3,0843_hp_s02_3_truck_10_n03796401_1618.png
subject-02,1,844,0.57302713394165,car,chair,0.45,0844_hp_s02_0.45_chair_10_n04099969_47466.png
subject-02,1,845,0.779385089874268,truck,clock,1,0845_hp_s02_1_clock_10_n03196217_1.png
subject-02,1,846,0.550078868865967,bear,airplane,0.4,0846_hp_s02_0.4_airplane_10_n02690373_2579.png
subject-02,1,847,0.634485960006714,boat,chair,1,0847_hp_s02_1_chair_10_n03376595_9658.png
subject-02,1,848,0.556941986083984,airplane,airplane,3,0848_hp_s02_3_airplane_10_n02690373_8417.png
subject-02,1,849,0.543344020843506,bear,bear,3,0849_hp_s02_3_bear_10_n02133161_9978.png
subject-02,1,850,0.67388391494751,car,oven,1,0850_hp_s02_1_oven_10_n04111531_14055.png
subject-02,1,851,0.633967876434326,cat,knife,0.45,0851_hp_s02_0.45_knife_10_n03041632_24461.png
subject-02,1,852,0.466436862945557,car,car,0.7,0852_hp_s02_0.7_car_10_n02814533_92286.png
subject-02,1,853,0.743067979812622,elephant,bird,0.4,0853_hp_s02_0.4_bird_10_n02051845_4724.png
subject-02,1,854,0.611345767974854,chair,bottle,0.45,0854_hp_s02_0.45_bottle_10_n04560804_15572.png
subject-02,1,855,0.574247121810913,bottle,bottle,inf,0855_hp_s02_inf_bottle_10_n03937543_2773.png
subject-02,1,856,0.596578121185303,bottle,oven,0.4,0856_hp_s02_0.4_oven_10_n04111531_7076.png
subject-02,1,857,0.467071056365967,bicycle,bicycle,0.4,0857_hp_s02_0.4_bicycle_10_n03792782_6146.png
subject-02,1,858,0.497609853744507,bottle,bottle,1.5,0858_hp_s02_1.5_bottle_10_n04579145_5755.png
subject-02,1,859,0.551991939544678,car,car,0.7,0859_hp_s02_0.7_car_10_n02814533_17956.png
subject-02,1,860,0.812592029571533,cat,cat,3,0860_hp_s02_3_cat_10_n02123597_6873.png
subject-02,1,861,0.674983024597168,bird,cat,0.7,0861_hp_s02_0.7_cat_10_n02124075_8277.png
subject-02,1,862,1.08974885940552,bear,oven,1.5,0862_hp_s02_1.5_oven_10_n04111531_2209.png
subject-02,1,863,1.05224394798279,dog,bear,1,0863_hp_s02_1_bear_10_n02132136_8637.png
subject-02,1,864,0.744043827056885,elephant,dog,0.45,0864_hp_s02_0.45_dog_10_n02110185_824.png
subject-02,1,865,0.765954971313477,bicycle,bicycle,1.5,0865_hp_s02_1.5_bicycle_10_n03792782_6894.png
subject-02,1,866,0.736384153366089,truck,chair,0.7,0866_hp_s02_0.7_chair_10_n02791124_4192.png
subject-02,1,867,0.635130882263184,truck,truck,0.45,0867_hp_s02_0.45_truck_10_n04467665_55499.png
subject-02,1,868,0.743415117263794,elephant,elephant,1,0868_hp_s02_1_elephant_10_n02504458_4139.png
subject-02,1,869,0.403805017471313,oven,boat,0.55,0869_hp_s02_0.55_boat_10_n02951358_34441.png
subject-02,1,870,0.566190958023071,bird,bird,0.55,0870_hp_s02_0.55_bird_10_n01537544_23945.png
subject-02,1,871,0.666499137878418,elephant,elephant,inf,0871_hp_s02_inf_elephant_10_n02504458_7133.png
subject-02,1,872,0.572922945022583,dog,dog,inf,0872_hp_s02_inf_dog_10_n02105251_7467.png
subject-02,1,873,0.443665981292725,cat,boat,0.4,0873_hp_s02_0.4_boat_10_n03344393_2476.png
subject-02,1,874,0.920069932937622,bird,cat,1,0874_hp_s02_1_cat_10_n02125311_48049.png
subject-02,1,875,0.79052996635437,knife,knife,0.7,0875_hp_s02_0.7_knife_10_n03041632_56172.png
subject-02,1,876,0.521248817443848,boat,truck,0.55,0876_hp_s02_0.55_truck_10_n03417042_6928.png
subject-02,1,877,0.629634141921997,airplane,airplane,1.5,0877_hp_s02_1.5_airplane_10_n02690373_807.png
subject-02,1,878,0.490370035171509,car,car,1.5,0878_hp_s02_1.5_car_10_n02814533_52605.png
subject-02,1,879,0.606659889221191,bird,bird,1.5,0879_hp_s02_1.5_bird_10_n01829413_26.png
subject-02,1,880,0.699136972427368,chair,chair,3,0880_hp_s02_3_chair_10_n04099969_2109.png
subject-02,1,881,0.353312969207764,cat,cat,inf,0881_hp_s02_inf_cat_10_n02123159_6281.png
subject-02,1,882,1.00581502914429,elephant,elephant,inf,0882_hp_s02_inf_elephant_10_n02504458_2946.png
subject-02,1,883,1.0439350605011,oven,clock,0.55,0883_hp_s02_0.55_clock_10_n03196217_10190.png
subject-02,1,884,0.890452861785889,bottle,bottle,inf,0884_hp_s02_inf_bottle_10_n03983396_4250.png
subject-02,1,885,0.605068922042847,bicycle,bicycle,3,0885_hp_s02_3_bicycle_10_n03792782_44296.png
subject-02,1,886,0.759489059448242,boat,boat,0.55,0886_hp_s02_0.55_boat_10_n03344393_8507.png
subject-02,1,887,0.6058189868927,car,car,0.4,0887_hp_s02_0.4_car_10_n03100240_4840.png
subject-02,1,888,0.481898069381714,oven,car,1,0888_hp_s02_1_car_10_n02814533_83492.png
subject-02,1,889,0.811836004257202,car,bottle,0.45,0889_hp_s02_0.45_bottle_10_n04557648_774.png
subject-02,1,890,0.718305826187134,elephant,elephant,3,0890_hp_s02_3_elephant_10_n02504013_1882.png
subject-02,1,891,0.958798170089722,airplane,clock,0.4,0891_hp_s02_0.4_clock_10_n02708093_3213.png
subject-02,1,892,0.735408067703247,bicycle,bicycle,1,0892_hp_s02_1_bicycle_10_n02835271_3804.png
subject-02,1,893,NaN,na,dog,1,0893_hp_s02_1_dog_10_n02094258_6143.png
subject-02,1,894,0.534312009811401,truck,truck,1,0894_hp_s02_1_truck_10_n03796401_599.png
subject-02,1,895,0.766479969024658,knife,knife,inf,0895_hp_s02_inf_knife_10_n03041632_102887.png
subject-02,1,896,0.642673015594482,airplane,airplane,inf,0896_hp_s02_inf_airplane_10_n02690373_757.png
subject-02,1,897,0.887325048446655,boat,airplane,0.55,0897_hp_s02_0.55_airplane_10_n02690373_1363.png
subject-02,1,898,0.765945911407471,cat,elephant,0.7,0898_hp_s02_0.7_elephant_10_n02504013_9982.png
subject-02,1,899,0.58200216293335,chair,chair,1.5,0899_hp_s02_1.5_chair_10_n02791124_713.png
subject-02,1,900,0.550912141799927,bicycle,bicycle,1,0900_hp_s02_1_bicycle_10_n03792782_6614.png
subject-02,1,901,0.835082054138184,chair,chair,inf,0901_hp_s02_inf_chair_10_n02791124_7424.png
subject-02,1,902,0.795454025268555,oven,oven,inf,0902_hp_s02_inf_oven_10_n04111531_7189.png
subject-02,1,903,0.574023962020874,cat,car,0.4,0903_hp_s02_0.4_car_10_n02814533_28847.png
subject-02,1,904,0.642876863479614,boat,boat,1,0904_hp_s02_1_boat_10_n03662601_16577.png
subject-02,1,905,0.59122896194458,car,elephant,0.45,0905_hp_s02_0.45_elephant_10_n02504458_11383.png
subject-02,1,906,0.581849098205566,truck,truck,3,0906_hp_s02_3_truck_10_n03417042_24856.png
subject-02,1,907,0.813966035842896,knife,knife,0.45,0907_hp_s02_0.45_knife_10_n03041632_26314.png
subject-02,1,908,0.444756031036377,boat,car,0.45,0908_hp_s02_0.45_car_10_n04285008_5070.png
subject-02,1,909,0.775001049041748,chair,dog,0.55,0909_hp_s02_0.55_dog_10_n02088238_2708.png
subject-02,1,910,0.667236804962158,keyboard,truck,0.45,0910_hp_s02_0.45_truck_10_n03417042_17624.png
subject-02,1,911,0.64358377456665,dog,bear,inf,0911_hp_s02_inf_bear_10_n02134084_8202.png
subject-02,1,912,0.698358058929443,truck,truck,inf,0912_hp_s02_inf_truck_10_n03417042_28610.png
subject-02,1,913,0.544897794723511,bird,car,0.45,0913_hp_s02_0.45_car_10_n04285008_9553.png
subject-02,1,914,0.629243135452271,car,car,1,0914_hp_s02_1_car_10_n03100240_963.png
subject-02,1,915,0.489668130874634,cat,cat,inf,0915_hp_s02_inf_cat_10_n02123597_2228.png
subject-02,1,916,0.636370897293091,bird,bird,3,0916_hp_s02_3_bird_10_n02006656_10285.png
subject-02,1,917,0.698568820953369,car,airplane,0.7,0917_hp_s02_0.7_airplane_10_n02690373_1704.png
subject-02,1,918,0.559180021286011,keyboard,keyboard,1.5,0918_hp_s02_1.5_keyboard_10_n04505470_6272.png
subject-02,1,919,1.01366090774536,bear,bear,0.7,0919_hp_s02_0.7_bear_10_n02133161_1712.png
subject-02,1,920,0.944240808486938,elephant,elephant,0.45,0920_hp_s02_0.45_elephant_10_n02504458_6155.png
subject-02,1,921,0.858942985534668,oven,boat,3,0921_hp_s02_3_boat_10_n02951358_15412.png
subject-02,1,922,1.04327201843262,knife,bottle,0.7,0922_hp_s02_0.7_bottle_10_n04579145_7403.png
subject-02,1,923,0.389554977416992,boat,elephant,0.4,0923_hp_s02_0.4_elephant_10_n02504013_4300.png
subject-02,1,924,0.506159067153931,chair,chair,0.7,0924_hp_s02_0.7_chair_10_n04099969_9431.png
subject-02,1,925,0.804527044296265,chair,boat,3,0925_hp_s02_3_boat_10_n03662601_23813.png
subject-02,1,926,0.49101996421814,clock,bicycle,0.45,0926_hp_s02_0.45_bicycle_10_n02835271_7400.png
subject-02,1,927,0.821519136428833,dog,dog,3,0927_hp_s02_3_dog_10_n02111500_4241.png
subject-02,1,928,0.951771974563599,oven,bird,inf,0928_hp_s02_inf_bird_10_n01532829_762.png
subject-02,1,929,0.736196041107178,oven,oven,0.45,0929_hp_s02_0.45_oven_10_n04111531_14280.png
subject-02,1,930,0.682793140411377,boat,keyboard,0.4,0930_hp_s02_0.4_keyboard_10_n03085013_23418.png
subject-02,1,931,0.405555963516235,cat,bird,0.45,0931_hp_s02_0.45_bird_10_n02037110_4979.png
subject-02,1,932,1.01991891860962,chair,chair,3,0932_hp_s02_3_chair_10_n02791124_5501.png
subject-02,1,933,0.582531929016113,car,oven,0.4,0933_hp_s02_0.4_oven_10_n04111531_21980.png
subject-02,1,934,0.398800849914551,boat,bear,0.4,0934_hp_s02_0.4_bear_10_n02133161_4573.png
subject-02,1,935,0.553256988525391,chair,knife,0.55,0935_hp_s02_0.55_knife_10_n03041632_18236.png
subject-02,1,936,0.691663980484009,airplane,airplane,inf,0936_hp_s02_inf_airplane_10_n02690373_10231.png
subject-02,1,937,0.598002195358276,bear,bear,inf,0937_hp_s02_inf_bear_10_n02134084_883.png
subject-02,1,938,0.766156911849976,dog,dog,inf,0938_hp_s02_inf_dog_10_n02108551_7313.png
subject-02,1,939,0.650625228881836,boat,dog,0.55,0939_hp_s02_0.55_dog_10_n02105855_5.png
subject-02,1,940,0.49113917350769,cat,cat,3,0940_hp_s02_3_cat_10_n02123597_4028.png
subject-02,1,941,0.797665119171143,truck,truck,0.55,0941_hp_s02_0.55_truck_10_n04467665_46493.png
subject-02,1,942,0.698259115219116,car,bear,0.45,0942_hp_s02_0.45_bear_10_n02133161_5811.png
subject-02,1,943,0.566708087921143,boat,boat,1.5,0943_hp_s02_1.5_boat_10_n03662601_15284.png
subject-02,1,944,0.445080995559692,oven,car,0.4,0944_hp_s02_0.4_car_10_n02814533_45692.png
subject-02,1,945,0.483429908752441,bear,bear,3,0945_hp_s02_3_bear_10_n02132136_10496.png
subject-02,1,946,0.64419412612915,bear,bear,1.5,0946_hp_s02_1.5_bear_10_n02132136_7737.png
subject-02,1,947,0.560703039169312,elephant,oven,0.45,0947_hp_s02_0.45_oven_10_n04111531_20914.png
subject-02,1,948,0.820995807647705,keyboard,oven,1,0948_hp_s02_1_oven_10_n04111531_8269.png
subject-02,1,949,0.819605112075806,boat,boat,1.5,0949_hp_s02_1.5_boat_10_n03344393_4302.png
subject-02,1,950,0.552190065383911,keyboard,truck,0.7,0950_hp_s02_0.7_truck_10_n03417042_4258.png
subject-02,1,951,0.590686082839966,chair,bear,0.4,0951_hp_s02_0.4_bear_10_n02134084_7841.png
subject-02,1,952,0.528672933578491,boat,chair,1.5,0952_hp_s02_1.5_chair_10_n04429376_9740.png
subject-02,1,953,0.659559965133667,truck,truck,3,0953_hp_s02_3_truck_10_n04467665_4894.png
subject-02,1,954,0.566107034683228,car,cat,0.4,0954_hp_s02_0.4_cat_10_n02123159_5500.png
subject-02,1,955,0.62014102935791,keyboard,keyboard,0.55,0955_hp_s02_0.55_keyboard_10_n03085013_29941.png
subject-02,1,956,0.5346360206604,cat,cat,1.5,0956_hp_s02_1.5_cat_10_n02123159_482.png
subject-02,1,957,0.497389078140259,keyboard,keyboard,1.5,0957_hp_s02_1.5_keyboard_10_n04505470_7946.png
subject-02,1,958,0.367807865142822,boat,boat,0.45,0958_hp_s02_0.45_boat_10_n02951358_12866.png
subject-02,1,959,0.490124225616455,oven,boat,0.45,0959_hp_s02_0.45_boat_10_n03344393_3773.png
subject-02,1,960,0.674662828445435,elephant,elephant,1.5,0960_hp_s02_1.5_elephant_10_n02504458_3485.png
subject-02,1,961,0.560567140579224,truck,truck,0.45,0961_hp_s02_0.45_truck_10_n03417042_5381.png
subject-02,1,962,0.90725302696228,bottle,knife,3,0962_hp_s02_3_knife_10_n03041632_91582.png
subject-02,1,963,0.661435842514038,truck,truck,1.5,0963_hp_s02_1.5_truck_10_n03417042_17589.png
subject-02,1,964,0.530362129211426,car,bird,0.4,0964_hp_s02_0.4_bird_10_n02002556_22736.png
subject-02,1,965,0.598500967025757,bear,bear,3,0965_hp_s02_3_bear_10_n02132136_21271.png
subject-02,1,966,0.761303901672363,car,car,0.7,0966_hp_s02_0.7_car_10_n02814533_84536.png
subject-02,1,967,0.361332893371582,car,knife,0.45,0967_hp_s02_0.45_knife_10_n03041632_9635.png
subject-02,1,968,0.875798940658569,knife,keyboard,0.45,0968_hp_s02_0.45_keyboard_10_n03085013_8572.png
subject-02,1,969,0.56844687461853,chair,chair,1.5,0969_hp_s02_1.5_chair_10_n02791124_3857.png
subject-02,1,970,0.522944927215576,oven,oven,3,0970_hp_s02_3_oven_10_n04111531_4418.png
subject-02,1,971,0.661279916763306,bird,chair,0.4,0971_hp_s02_0.4_chair_10_n02791124_3994.png
subject-02,1,972,0.645735025405884,airplane,airplane,0.45,0972_hp_s02_0.45_airplane_10_n02690373_6853.png
subject-02,1,973,0.422412872314453,oven,car,0.4,0973_hp_s02_0.4_car_10_n03100240_947.png
subject-02,1,974,0.438547134399414,clock,knife,0.45,0974_hp_s02_0.45_knife_10_n03041632_11741.png
subject-02,1,975,0.782796144485474,dog,dog,1,0975_hp_s02_1_dog_10_n02107683_1086.png
subject-02,1,976,0.523561954498291,truck,truck,1,0976_hp_s02_1_truck_10_n04467665_1009.png
subject-02,1,977,0.791742086410522,car,car,0.7,0977_hp_s02_0.7_car_10_n04285008_5697.png
subject-02,1,978,0.729918956756592,truck,truck,0.7,0978_hp_s02_0.7_truck_10_n03417042_17839.png
subject-02,1,979,0.490592002868652,keyboard,keyboard,0.7,0979_hp_s02_0.7_keyboard_10_n04505470_1632.png
subject-02,1,980,0.606924057006836,keyboard,bird,0.55,0980_hp_s02_0.55_bird_10_n01592084_6491.png
subject-02,1,981,0.61540699005127,chair,chair,0.55,0981_hp_s02_0.55_chair_10_n04429376_16091.png
subject-02,1,982,0.630252122879028,bear,boat,0.45,0982_hp_s02_0.45_boat_10_n03662601_8681.png
subject-02,1,983,0.600390911102295,bird,bird,3,0983_hp_s02_3_bird_10_n01817953_3394.png
subject-02,1,984,0.64687705039978,bear,airplane,0.4,0984_hp_s02_0.4_airplane_10_n02690373_8515.png
subject-02,1,985,0.623584032058716,dog,cat,0.45,0985_hp_s02_0.45_cat_10_n02124075_12285.png
subject-02,1,986,0.868160963058472,elephant,dog,0.55,0986_hp_s02_0.55_dog_10_n02088466_1058.png
subject-02,1,987,0.522373914718628,elephant,elephant,1,0987_hp_s02_1_elephant_10_n02504013_3086.png
subject-02,1,988,0.538905143737793,cat,elephant,0.4,0988_hp_s02_0.4_elephant_10_n02504013_6150.png
subject-02,1,989,0.585750102996826,airplane,airplane,0.7,0989_hp_s02_0.7_airplane_10_n02690373_10012.png
subject-02,1,990,0.561949014663696,knife,bottle,0.45,0990_hp_s02_0.45_bottle_10_n04560804_15537.png
subject-02,1,991,0.608515977859497,oven,oven,3,0991_hp_s02_3_oven_10_n04111531_9344.png
subject-02,1,992,0.754993915557861,cat,bicycle,3,0992_hp_s02_3_bicycle_10_n03792782_988.png
subject-02,1,993,0.699084997177124,airplane,cat,0.4,0993_hp_s02_0.4_cat_10_n02123597_4664.png
subject-02,1,994,0.915737867355347,bicycle,cat,0.45,0994_hp_s02_0.45_cat_10_n02123159_3330.png
subject-02,1,995,0.562519073486328,boat,bicycle,0.45,0995_hp_s02_0.45_bicycle_10_n02835271_759.png
subject-02,1,996,0.714756011962891,clock,clock,0.55,0996_hp_s02_0.55_clock_10_n02708093_1308.png
subject-02,1,997,0.631340980529785,chair,chair,inf,0997_hp_s02_inf_chair_10_n04099969_1444.png
subject-02,1,998,0.615638971328735,boat,keyboard,0.4,0998_hp_s02_0.4_keyboard_10_n04505470_4742.png
subject-02,1,999,0.69963812828064,chair,chair,0.7,0999_hp_s02_0.7_chair_10_n02791124_5859.png
subject-02,1,1000,0.578781127929688,bird,cat,0.4,1000_hp_s02_0.4_cat_10_n02123394_8250.png
subject-02,1,1001,0.633149862289429,car,car,0.55,1001_hp_s02_0.55_car_10_n04285008_10703.png
subject-02,1,1002,0.593614816665649,elephant,elephant,3,1002_hp_s02_3_elephant_10_n02504458_7076.png
subject-02,1,1003,0.510254859924316,boat,bird,0.45,1003_hp_s02_0.45_bird_10_n01796340_12216.png
subject-02,1,1004,0.516574144363403,oven,car,0.45,1004_hp_s02_0.45_car_10_n02814533_83874.png
subject-02,1,1005,0.449128150939941,chair,chair,1.5,1005_hp_s02_1.5_chair_10_n03376595_14087.png
subject-02,1,1006,0.509479999542236,boat,boat,3,1006_hp_s02_3_boat_10_n04612504_10566.png
subject-02,1,1007,0.786159992218018,bear,bear,0.7,1007_hp_s02_0.7_bear_10_n02133161_2929.png
subject-02,1,1008,1.00865602493286,airplane,boat,0.45,1008_hp_s02_0.45_boat_10_n04612504_15141.png
subject-02,1,1009,0.655050039291382,bottle,bottle,3,1009_hp_s02_3_bottle_10_n04579145_3432.png
subject-02,1,1010,0.89313793182373,bear,bear,3,1010_hp_s02_3_bear_10_n02134418_8775.png
subject-02,1,1011,0.639554023742676,dog,cat,0.55,1011_hp_s02_0.55_cat_10_n02123394_837.png
subject-02,1,1012,0.453176975250244,oven,oven,inf,1012_hp_s02_inf_oven_10_n04111531_3286.png
subject-02,1,1013,0.445540904998779,car,car,0.7,1013_hp_s02_0.7_car_10_n02814533_46401.png
subject-02,1,1014,1.18406820297241,car,bottle,0.55,1014_hp_s02_0.55_bottle_10_n03983396_11883.png
subject-02,1,1015,0.798562049865723,truck,truck,1.5,1015_hp_s02_1.5_truck_10_n03417042_6623.png
subject-02,1,1016,0.668740034103394,bottle,bottle,1,1016_hp_s02_1_bottle_10_n03937543_2662.png
subject-02,1,1017,0.607241868972778,airplane,airplane,inf,1017_hp_s02_inf_airplane_10_n02690373_2632.png
subject-02,1,1018,0.73766016960144,oven,oven,3,1018_hp_s02_3_oven_10_n04111531_11157.png
subject-02,1,1019,0.613899946212769,chair,chair,1,1019_hp_s02_1_chair_10_n03376595_6907.png
subject-02,1,1020,0.660117149353027,boat,knife,0.4,1020_hp_s02_0.4_knife_10_n03041632_8666.png
subject-02,1,1021,0.65256404876709,bird,dog,0.4,1021_hp_s02_0.4_dog_10_n02093256_5883.png
subject-02,1,1022,0.539124011993408,bear,bear,0.7,1022_hp_s02_0.7_bear_10_n02133161_14397.png
subject-02,1,1023,0.607789993286133,oven,oven,1.5,1023_hp_s02_1.5_oven_10_n04111531_14951.png
subject-02,1,1024,1.0521399974823,cat,bear,0.55,1024_hp_s02_0.55_bear_10_n02132136_24725.png
subject-02,1,1025,0.538743019104004,chair,chair,1,1025_hp_s02_1_chair_10_n04099969_25627.png
subject-02,1,1026,0.447340965270996,cat,cat,inf,1026_hp_s02_inf_cat_10_n02123045_15646.png
subject-02,1,1027,0.469966888427734,car,car,inf,1027_hp_s02_inf_car_10_n03100240_16907.png
subject-02,1,1028,0.724327087402344,chair,bicycle,0.55,1028_hp_s02_0.55_bicycle_10_n02835271_13689.png
subject-02,1,1029,1.04654097557068,elephant,truck,0.4,1029_hp_s02_0.4_truck_10_n04467665_1188.png
subject-02,1,1030,1.03112196922302,clock,elephant,0.4,1030_hp_s02_0.4_elephant_10_n02504458_4633.png
subject-02,1,1031,0.623580932617188,keyboard,bottle,0.55,1031_hp_s02_0.55_bottle_10_n02823428_4058.png
subject-02,1,1032,0.724231004714966,chair,chair,3,1032_hp_s02_3_chair_10_n03376595_14970.png
subject-02,1,1033,0.454885005950928,boat,knife,0.45,1033_hp_s02_0.45_knife_10_n03041632_14442.png
subject-02,1,1034,0.409379959106445,chair,chair,3,1034_hp_s02_3_chair_10_n02791124_141.png
subject-02,1,1035,0.509788990020752,cat,airplane,0.4,1035_hp_s02_0.4_airplane_10_n02690373_8641.png
subject-02,1,1036,0.623955011367798,clock,clock,1.5,1036_hp_s02_1.5_clock_10_n04548280_407.png
subject-02,1,1037,0.970362901687622,bear,bear,0.4,1037_hp_s02_0.4_bear_10_n02134084_13339.png
subject-02,1,1038,0.716840982437134,cat,bird,0.7,1038_hp_s02_0.7_bird_10_n02033041_5941.png
subject-02,1,1039,1.07950305938721,car,car,inf,1039_hp_s02_inf_car_10_n04285008_7023.png
subject-02,1,1040,0.693717956542969,boat,bear,0.7,1040_hp_s02_0.7_bear_10_n02133161_11637.png
subject-02,1,1041,0.810611009597778,dog,dog,inf,1041_hp_s02_inf_dog_10_n02090379_3662.png
subject-02,1,1042,0.524835824966431,keyboard,keyboard,1.5,1042_hp_s02_1.5_keyboard_10_n04505470_2275.png
subject-02,1,1043,0.801642894744873,car,car,1.5,1043_hp_s02_1.5_car_10_n04285008_9963.png
subject-02,1,1044,0.6719069480896,car,chair,0.7,1044_hp_s02_0.7_chair_10_n02791124_3936.png
subject-02,1,1045,0.548287868499756,oven,oven,0.4,1045_hp_s02_0.4_oven_10_n04111531_7050.png
subject-02,1,1046,0.695059061050415,bird,bottle,0.4,1046_hp_s02_0.4_bottle_10_n04560804_1417.png
subject-02,1,1047,0.679141044616699,knife,knife,1.5,1047_hp_s02_1.5_knife_10_n03041632_48816.png
subject-02,1,1048,0.855924129486084,knife,knife,1.5,1048_hp_s02_1.5_knife_10_n03041632_14817.png
subject-02,1,1049,0.585886001586914,chair,bottle,0.55,1049_hp_s02_0.55_bottle_10_n04591713_5595.png
subject-02,1,1050,0.678485870361328,elephant,knife,0.45,1050_hp_s02_0.45_knife_10_n03041632_20413.png
subject-02,1,1051,0.579117774963379,truck,truck,inf,1051_hp_s02_inf_truck_10_n03796401_9245.png
subject-02,1,1052,0.517513990402222,boat,elephant,0.55,1052_hp_s02_0.55_elephant_10_n02504013_5757.png
subject-02,1,1053,0.971763849258423,cat,dog,1.5,1053_hp_s02_1.5_dog_10_n02092002_15151.png
subject-02,1,1054,0.610579967498779,airplane,airplane,0.4,1054_hp_s02_0.4_airplane_10_n02690373_5184.png
subject-02,1,1055,0.595041036605835,knife,knife,3,1055_hp_s02_3_knife_10_n03041632_11969.png
subject-02,1,1056,0.857517004013062,elephant,elephant,0.7,1056_hp_s02_0.7_elephant_10_n02504013_1865.png
