subj,session,trial,rt,object_response,category,condition,imagename
subject-05,1,1,0.827800035476685,car,car,inf,0001_hp_s05_inf_car_10_n02814533_42308.png
subject-05,1,2,0.680042028427124,boat,boat,3,0002_hp_s05_3_boat_10_n03344393_7659.png
subject-05,1,3,0.818800926208496,oven,truck,0.4,0003_hp_s05_0.4_truck_10_n03417042_25212.png
subject-05,1,4,0.884745121002197,boat,boat,1,0004_hp_s05_1_boat_10_n02951358_3046.png
subject-05,1,5,0.883155107498169,clock,elephant,0.4,0005_hp_s05_0.4_elephant_10_n02504458_4329.png
subject-05,1,6,1.07903385162354,bear,bear,3,0006_hp_s05_3_bear_10_n02132136_1626.png
subject-05,1,7,0.855288028717041,truck,truck,inf,0007_hp_s05_inf_truck_10_n03796401_1773.png
subject-05,1,8,0.921151876449585,cat,cat,1.5,0008_hp_s05_1.5_cat_10_n02123159_8291.png
subject-05,1,9,1.02578115463257,clock,elephant,0.55,0009_hp_s05_0.55_elephant_10_n02504013_720.png
subject-05,1,10,0.831992149353027,cat,cat,inf,0010_hp_s05_inf_cat_10_n02123597_11804.png
subject-05,1,11,0.897552967071533,boat,knife,0.45,0011_hp_s05_0.45_knife_10_n03041632_31632.png
subject-05,1,12,1.14988994598389,car,cat,0.4,0012_hp_s05_0.4_cat_10_n02123394_461.png
subject-05,1,13,0.994114875793457,cat,cat,1,0013_hp_s05_1_cat_10_n02123045_3477.png
subject-05,1,14,0.822688102722168,bird,bird,1.5,0014_hp_s05_1.5_bird_10_n01818515_3067.png
subject-05,1,15,1.1748948097229,boat,airplane,inf,0015_hp_s05_inf_airplane_10_n02690373_12976.png
subject-05,1,16,0.551280975341797,boat,car,0.7,0016_hp_s05_0.7_car_10_n03100240_8107.png
subject-05,1,17,0.970818042755127,oven,car,0.4,0017_hp_s05_0.4_car_10_n03100240_84.png
subject-05,1,18,NaN,na,chair,1.5,0018_hp_s05_1.5_chair_10_n04429376_4773.png
subject-05,1,19,0.873725891113281,oven,bear,0.4,0019_hp_s05_0.4_bear_10_n02134418_3099.png
subject-05,1,20,0.679971933364868,clock,clock,1,0020_hp_s05_1_clock_10_n04548280_8890.png
subject-05,1,21,0.640022039413452,bottle,bottle,inf,0021_hp_s05_inf_bottle_10_n03937543_277.png
subject-05,1,22,1.48162412643433,car,car,inf,0022_hp_s05_inf_car_10_n04285008_11238.png
subject-05,1,23,1.05631995201111,boat,chair,0.45,0023_hp_s05_0.45_chair_10_n02791124_3746.png
subject-05,1,24,0.808912992477417,boat,airplane,0.7,0024_hp_s05_0.7_airplane_10_n02690373_3035.png
subject-05,1,25,1.09100008010864,bottle,knife,inf,0025_hp_s05_inf_knife_10_n03041632_15174.png
subject-05,1,26,1.04320812225342,bottle,bottle,3,0026_hp_s05_3_bottle_10_n03983396_24628.png
subject-05,1,27,0.911819219589233,elephant,elephant,1.5,0027_hp_s05_1.5_elephant_10_n02504458_6109.png
subject-05,1,28,1.46214699745178,bear,bird,0.7,0028_hp_s05_0.7_bird_10_n01532829_2675.png
subject-05,1,29,1.50030708312988,bear,knife,0.55,0029_hp_s05_0.55_knife_10_n03041632_56454.png
subject-05,1,30,0.736646890640259,boat,car,0.4,0030_hp_s05_0.4_car_10_n04285008_4782.png
subject-05,1,31,0.713227033615112,boat,truck,1,0031_hp_s05_1_truck_10_n04467665_50806.png
subject-05,1,32,1.23346495628357,boat,truck,0.4,0032_hp_s05_0.4_truck_10_n03417042_5923.png
subject-05,1,33,1.18590497970581,airplane,chair,0.4,0033_hp_s05_0.4_chair_10_n03376595_989.png
subject-05,1,34,1.06053996086121,clock,bottle,0.4,0034_hp_s05_0.4_bottle_10_n03983396_168.png
subject-05,1,35,0.791110992431641,oven,bicycle,0.4,0035_hp_s05_0.4_bicycle_10_n02835271_24630.png
subject-05,1,36,0.759757041931152,chair,chair,1,0036_hp_s05_1_chair_10_n02791124_5099.png
subject-05,1,37,1.18545579910278,boat,car,0.55,0037_hp_s05_0.55_car_10_n03100240_4765.png
subject-05,1,38,NaN,na,elephant,1,0038_hp_s05_1_elephant_10_n02504458_3432.png
subject-05,1,39,1.31635999679565,truck,truck,0.7,0039_hp_s05_0.7_truck_10_n03417042_9121.png
subject-05,1,40,0.716904163360596,boat,boat,1.5,0040_hp_s05_1.5_boat_10_n02951358_865.png
subject-05,1,41,1.42933011054993,elephant,elephant,0.7,0041_hp_s05_0.7_elephant_10_n02504013_7518.png
subject-05,1,42,0.889671087265015,keyboard,keyboard,inf,0042_hp_s05_inf_keyboard_10_n03085013_29865.png
subject-05,1,43,0.812536954879761,car,car,0.7,0043_hp_s05_0.7_car_10_n02814533_5190.png
subject-05,1,44,0.748770952224731,car,car,0.7,0044_hp_s05_0.7_car_10_n04285008_10296.png
subject-05,1,45,1.26941108703613,car,bird,0.55,0045_hp_s05_0.55_bird_10_n02011460_4864.png
subject-05,1,46,0.715847969055176,boat,boat,1,0046_hp_s05_1_boat_10_n04612504_32126.png
subject-05,1,47,0.811774969100952,bird,bird,inf,0047_hp_s05_inf_bird_10_n02006656_3693.png
subject-05,1,48,0.986356019973755,bear,bear,3,0048_hp_s05_3_bear_10_n02134084_3144.png
subject-05,1,49,1.0304799079895,boat,oven,0.4,0049_hp_s05_0.4_oven_10_n04111531_2650.png
subject-05,1,50,0.761009931564331,airplane,airplane,inf,0050_hp_s05_inf_airplane_10_n02690373_7053.png
subject-05,1,51,0.797740936279297,clock,clock,0.7,0051_hp_s05_0.7_clock_10_n04548280_4524.png
subject-05,1,52,0.819940805435181,dog,dog,3,0052_hp_s05_3_dog_10_n02093428_19907.png
subject-05,1,53,0.618428945541382,bicycle,bicycle,inf,0053_hp_s05_inf_bicycle_10_n03792782_13835.png
subject-05,1,54,0.793237924575806,keyboard,keyboard,1,0054_hp_s05_1_keyboard_10_n03085013_24626.png
subject-05,1,55,0.829399824142456,oven,car,0.4,0055_hp_s05_0.4_car_10_n03100240_9221.png
subject-05,1,56,1.40373587608337,boat,bottle,0.4,0056_hp_s05_0.4_bottle_10_n03983396_4863.png
subject-05,1,57,1.47778296470642,bottle,airplane,0.4,0057_hp_s05_0.4_airplane_10_n02690373_194.png
subject-05,1,58,0.938531875610352,keyboard,dog,0.55,0058_hp_s05_0.55_dog_10_n02086910_8242.png
subject-05,1,59,1.17053008079529,airplane,airplane,0.4,0059_hp_s05_0.4_airplane_10_n02690373_190.png
subject-05,1,60,0.969012022018433,keyboard,truck,0.55,0060_hp_s05_0.55_truck_10_n03417042_13871.png
subject-05,1,61,1.32937908172607,keyboard,truck,0.7,0061_hp_s05_0.7_truck_10_n03417042_1698.png
subject-05,1,62,1.31209492683411,car,bottle,0.55,0062_hp_s05_0.55_bottle_10_n04591713_4906.png
subject-05,1,63,1.09605503082275,boat,bird,0.4,0063_hp_s05_0.4_bird_10_n02051845_2396.png
subject-05,1,64,NaN,na,airplane,0.55,0064_hp_s05_0.55_airplane_10_n02690373_8613.png
subject-05,1,65,1.11519289016724,cat,cat,0.4,0065_hp_s05_0.4_cat_10_n02124075_2676.png
subject-05,1,66,0.745484113693237,clock,truck,0.4,0066_hp_s05_0.4_truck_10_n04467665_33965.png
subject-05,1,67,1.27377200126648,boat,bird,0.45,0067_hp_s05_0.45_bird_10_n02006656_31529.png
subject-05,1,68,1.3261501789093,cat,bear,1,0068_hp_s05_1_bear_10_n02133161_6983.png
subject-05,1,69,0.907959938049316,oven,clock,0.4,0069_hp_s05_0.4_clock_10_n04548280_2604.png
subject-05,1,70,1.06041216850281,truck,car,0.4,0070_hp_s05_0.4_car_10_n04285008_8666.png
subject-05,1,71,0.834050893783569,truck,truck,inf,0071_hp_s05_inf_truck_10_n03417042_9552.png
subject-05,1,72,1.22447109222412,elephant,bottle,0.7,0072_hp_s05_0.7_bottle_10_n02823428_56.png
subject-05,1,73,0.622852087020874,keyboard,keyboard,inf,0073_hp_s05_inf_keyboard_10_n04505470_5156.png
subject-05,1,74,1.05139303207397,car,car,1,0074_hp_s05_1_car_10_n03100240_855.png
subject-05,1,75,1.01995992660522,bird,bird,3,0075_hp_s05_3_bird_10_n02051845_2018.png
subject-05,1,76,0.688284158706665,boat,bicycle,0.45,0076_hp_s05_0.45_bicycle_10_n03792782_10728.png
subject-05,1,77,1.04866600036621,clock,knife,0.45,0077_hp_s05_0.45_knife_10_n03041632_51617.png
subject-05,1,78,0.671148061752319,chair,chair,1,0078_hp_s05_1_chair_10_n04099969_11280.png
subject-05,1,79,1.29594922065735,knife,dog,0.4,0079_hp_s05_0.4_dog_10_n02094114_7299.png
subject-05,1,80,0.718361854553223,bicycle,bear,0.45,0080_hp_s05_0.45_bear_10_n02134084_13075.png
subject-05,1,81,0.854727983474731,boat,boat,0.55,0081_hp_s05_0.55_boat_10_n02951358_42.png
subject-05,1,82,0.821166038513184,airplane,airplane,inf,0082_hp_s05_inf_airplane_10_n02690373_60.png
subject-05,1,83,NaN,na,knife,0.4,0083_hp_s05_0.4_knife_10_n03041632_22988.png
subject-05,1,84,0.956055879592896,car,elephant,0.4,0084_hp_s05_0.4_elephant_10_n02504013_3640.png
subject-05,1,85,NaN,na,truck,0.4,0085_hp_s05_0.4_truck_10_n03417042_12322.png
subject-05,1,86,0.706384897232056,boat,bicycle,0.45,0086_hp_s05_0.45_bicycle_10_n03792782_1685.png
subject-05,1,87,0.95111608505249,bottle,bottle,0.7,0087_hp_s05_0.7_bottle_10_n03983396_3015.png
subject-05,1,88,1.09505605697632,airplane,car,0.4,0088_hp_s05_0.4_car_10_n02814533_27327.png
subject-05,1,89,0.755428075790405,bottle,bottle,3,0089_hp_s05_3_bottle_10_n04591713_4510.png
subject-05,1,90,0.921803951263428,dog,dog,inf,0090_hp_s05_inf_dog_10_n02091134_3923.png
subject-05,1,91,0.858388900756836,car,car,1.5,0091_hp_s05_1.5_car_10_n04285008_2887.png
subject-05,1,92,0.986419916152954,chair,cat,0.55,0092_hp_s05_0.55_cat_10_n02123597_2323.png
subject-05,1,93,1.19280910491943,bird,car,0.7,0093_hp_s05_0.7_car_10_n04285008_3688.png
subject-05,1,94,0.975437879562378,bottle,bottle,1,0094_hp_s05_1_bottle_10_n04591713_2246.png
subject-05,1,95,1.05950903892517,boat,airplane,1.5,0095_hp_s05_1.5_airplane_10_n02690373_8543.png
subject-05,1,96,0.809525966644287,cat,cat,1.5,0096_hp_s05_1.5_cat_10_n02123045_12100.png
subject-05,1,97,0.794059991836548,elephant,elephant,inf,0097_hp_s05_inf_elephant_10_n02504013_10582.png
subject-05,1,98,0.676760196685791,cat,cat,3,0098_hp_s05_3_cat_10_n02124075_700.png
subject-05,1,99,0.77476692199707,chair,oven,0.7,0099_hp_s05_0.7_oven_10_n04111531_11530.png
subject-05,1,100,0.940898895263672,cat,bear,0.7,0100_hp_s05_0.7_bear_10_n02134418_1202.png
subject-05,1,101,NaN,na,truck,0.4,0101_hp_s05_0.4_truck_10_n03796401_19900.png
subject-05,1,102,0.583442211151123,bird,bird,3,0102_hp_s05_3_bird_10_n01531178_21133.png
subject-05,1,103,0.757603883743286,bicycle,bicycle,3,0103_hp_s05_3_bicycle_10_n02835271_7438.png
subject-05,1,104,0.85582709312439,boat,chair,0.4,0104_hp_s05_0.4_chair_10_n03376595_3021.png
subject-05,1,105,1.01605582237244,chair,chair,0.7,0105_hp_s05_0.7_chair_10_n04099969_30594.png
subject-05,1,106,0.652539014816284,knife,knife,3,0106_hp_s05_3_knife_10_n03041632_11797.png
subject-05,1,107,1.02723479270935,airplane,airplane,0.55,0107_hp_s05_0.55_airplane_10_n02690373_3750.png
subject-05,1,108,0.657454967498779,chair,chair,1.5,0108_hp_s05_1.5_chair_10_n02791124_177.png
subject-05,1,109,0.869767904281616,keyboard,keyboard,inf,0109_hp_s05_inf_keyboard_10_n03085013_2432.png
subject-05,1,110,0.68070387840271,oven,oven,inf,0110_hp_s05_inf_oven_10_n04111531_4955.png
subject-05,1,111,0.765044927597046,cat,bear,0.7,0111_hp_s05_0.7_bear_10_n02132136_22710.png
subject-05,1,112,1.27717113494873,bird,knife,0.4,0112_hp_s05_0.4_knife_10_n03041632_84012.png
subject-05,1,113,0.829587936401367,boat,elephant,0.4,0113_hp_s05_0.4_elephant_10_n02504013_5960.png
subject-05,1,114,0.957444190979004,clock,clock,0.45,0114_hp_s05_0.45_clock_10_n03196217_2312.png
subject-05,1,115,0.877907991409302,bird,bird,0.7,0115_hp_s05_0.7_bird_10_n02025239_8046.png
subject-05,1,116,0.637845039367676,boat,airplane,1,0116_hp_s05_1_airplane_10_n02690373_736.png
subject-05,1,117,0.990577936172485,bird,boat,0.4,0117_hp_s05_0.4_boat_10_n02951358_18655.png
subject-05,1,118,1.12682700157166,oven,bicycle,0.4,0118_hp_s05_0.4_bicycle_10_n02835271_5821.png
subject-05,1,119,1.11937379837036,car,bear,0.45,0119_hp_s05_0.45_bear_10_n02132136_4191.png
subject-05,1,120,1.21560788154602,boat,cat,0.45,0120_hp_s05_0.45_cat_10_n02124075_9291.png
subject-05,1,121,1.07576107978821,bicycle,keyboard,0.4,0121_hp_s05_0.4_keyboard_10_n04505470_312.png
subject-05,1,122,0.866053104400635,bear,bear,1,0122_hp_s05_1_bear_10_n02134084_8623.png
subject-05,1,123,NaN,na,knife,inf,0123_hp_s05_inf_knife_10_n03041632_99875.png
subject-05,1,124,1.03296184539795,car,bottle,0.45,0124_hp_s05_0.45_bottle_10_n03983396_8684.png
subject-05,1,125,0.785676956176758,clock,clock,1,0125_hp_s05_1_clock_10_n04548280_8705.png
subject-05,1,126,0.838181018829346,boat,cat,0.55,0126_hp_s05_0.55_cat_10_n02123159_5487.png
subject-05,1,127,1.19055104255676,airplane,airplane,1.5,0127_hp_s05_1.5_airplane_10_n02690373_2155.png
subject-05,1,128,1.32696795463562,keyboard,oven,0.7,0128_hp_s05_0.7_oven_10_n04111531_8805.png
subject-05,1,129,0.993618011474609,cat,bottle,0.7,0129_hp_s05_0.7_bottle_10_n04560804_23704.png
subject-05,1,130,1.3240180015564,keyboard,bottle,1,0130_hp_s05_1_bottle_10_n04557648_4.png
subject-05,1,131,0.776065826416016,chair,chair,3,0131_hp_s05_3_chair_10_n04429376_7558.png
subject-05,1,132,0.842683076858521,bear,bear,1.5,0132_hp_s05_1.5_bear_10_n02133161_2313.png
subject-05,1,133,0.887099981307983,airplane,airplane,inf,0133_hp_s05_inf_airplane_10_n02690373_8650.png
subject-05,1,134,0.947700977325439,clock,keyboard,0.4,0134_hp_s05_0.4_keyboard_10_n03085013_25864.png
subject-05,1,135,0.976155042648315,bicycle,chair,0.4,0135_hp_s05_0.4_chair_10_n04429376_4341.png
subject-05,1,136,1.01429510116577,car,car,0.4,0136_hp_s05_0.4_car_10_n03100240_7135.png
subject-05,1,137,0.726722955703735,airplane,airplane,inf,0137_hp_s05_inf_airplane_10_n02690373_18506.png
subject-05,1,138,0.902964115142822,bear,elephant,1,0138_hp_s05_1_elephant_10_n02504458_1343.png
subject-05,1,139,1.13158297538757,bicycle,bicycle,0.7,0139_hp_s05_0.7_bicycle_10_n02835271_26639.png
subject-05,1,140,0.621968984603882,bear,elephant,1,0140_hp_s05_1_elephant_10_n02504013_1189.png
subject-05,1,141,0.728012084960938,boat,boat,1.5,0141_hp_s05_1.5_boat_10_n02951358_3222.png
subject-05,1,142,1.02465677261353,cat,dog,0.7,0142_hp_s05_0.7_dog_10_n02105251_1356.png
subject-05,1,143,0.884974956512451,bottle,bottle,1,0143_hp_s05_1_bottle_10_n04560804_989.png
subject-05,1,144,0.775883913040161,clock,boat,0.55,0144_hp_s05_0.55_boat_10_n03662601_12952.png
subject-05,1,145,0.865676879882812,cat,boat,0.4,0145_hp_s05_0.4_boat_10_n02951358_1136.png
subject-05,1,146,1.50012397766113,keyboard,bicycle,0.45,0146_hp_s05_0.45_bicycle_10_n02835271_9410.png
subject-05,1,147,1.18448400497437,keyboard,dog,0.45,0147_hp_s05_0.45_dog_10_n02105855_11245.png
subject-05,1,148,0.844487905502319,clock,knife,0.45,0148_hp_s05_0.45_knife_10_n03041632_24384.png
subject-05,1,149,0.68319296836853,cat,dog,1.5,0149_hp_s05_1.5_dog_10_n02112018_5567.png
subject-05,1,150,NaN,na,bear,0.7,0150_hp_s05_0.7_bear_10_n02134418_4365.png
subject-05,1,151,1.32403802871704,car,knife,0.4,0151_hp_s05_0.4_knife_10_n03041632_10140.png
subject-05,1,152,0.800185918807983,dog,dog,inf,0152_hp_s05_inf_dog_10_n02097130_1548.png
subject-05,1,153,0.666774988174438,clock,clock,1.5,0153_hp_s05_1.5_clock_10_n02708093_1344.png
subject-05,1,154,1.17307901382446,cat,bottle,0.55,0154_hp_s05_0.55_bottle_10_n04579145_4102.png
subject-05,1,155,0.671397924423218,cat,cat,3,0155_hp_s05_3_cat_10_n02124075_862.png
subject-05,1,156,0.823732852935791,boat,bottle,0.45,0156_hp_s05_0.45_bottle_10_n02823428_3188.png
subject-05,1,157,0.852499008178711,bottle,bottle,0.55,0157_hp_s05_0.55_bottle_10_n03983396_11342.png
subject-05,1,158,0.674702167510986,elephant,elephant,3,0158_hp_s05_3_elephant_10_n02504458_9854.png
subject-05,1,159,0.719434976577759,keyboard,keyboard,0.7,0159_hp_s05_0.7_keyboard_10_n04505470_4918.png
subject-05,1,160,0.833948850631714,oven,bear,1,0160_hp_s05_1_bear_10_n02133161_4582.png
subject-05,1,161,0.881362915039062,boat,bear,0.55,0161_hp_s05_0.55_bear_10_n02134418_5530.png
subject-05,1,162,0.703611135482788,clock,chair,0.55,0162_hp_s05_0.55_chair_10_n04099969_1444.png
subject-05,1,163,0.977989912033081,truck,truck,1,0163_hp_s05_1_truck_10_n03417042_26939.png
subject-05,1,164,0.816359043121338,elephant,dog,1.5,0164_hp_s05_1.5_dog_10_n02113023_478.png
subject-05,1,165,0.760824918746948,oven,car,0.45,0165_hp_s05_0.45_car_10_n03100240_1988.png
subject-05,1,166,0.84335994720459,boat,cat,0.45,0166_hp_s05_0.45_cat_10_n02123045_10294.png
subject-05,1,167,0.595561027526855,boat,boat,1.5,0167_hp_s05_1.5_boat_10_n02951358_7112.png
subject-05,1,168,0.899853944778442,clock,knife,0.4,0168_hp_s05_0.4_knife_10_n03041632_1143.png
subject-05,1,169,0.722342014312744,chair,chair,3,0169_hp_s05_3_chair_10_n04099969_1087.png
subject-05,1,170,1.10504984855652,oven,dog,0.4,0170_hp_s05_0.4_dog_10_n02101388_19548.png
subject-05,1,171,1.20283198356628,clock,bicycle,0.4,0171_hp_s05_0.4_bicycle_10_n02835271_3575.png
subject-05,1,172,1.17157411575317,car,car,3,0172_hp_s05_3_car_10_n02814533_14121.png
subject-05,1,173,0.875667810440063,elephant,cat,0.7,0173_hp_s05_0.7_cat_10_n02125311_26190.png
subject-05,1,174,1.27338695526123,keyboard,clock,0.45,0174_hp_s05_0.45_clock_10_n03196217_6237.png
subject-05,1,175,1.2180769443512,clock,knife,0.4,0175_hp_s05_0.4_knife_10_n03041632_93026.png
subject-05,1,176,1.1844630241394,oven,bottle,0.45,0176_hp_s05_0.45_bottle_10_n04560804_20716.png
subject-05,1,177,0.744793891906738,bottle,bottle,inf,0177_hp_s05_inf_bottle_10_n03983396_13300.png
subject-05,1,178,0.804944038391113,bicycle,bicycle,0.7,0178_hp_s05_0.7_bicycle_10_n03792782_72443.png
subject-05,1,179,0.735588073730469,boat,knife,0.7,0179_hp_s05_0.7_knife_10_n03041632_18311.png
subject-05,1,180,1.32365894317627,cat,bird,1,0180_hp_s05_1_bird_10_n02017213_4379.png
subject-05,1,181,0.54606294631958,clock,clock,inf,0181_hp_s05_inf_clock_10_n04548280_3746.png
subject-05,1,182,0.790340185165405,oven,boat,0.45,0182_hp_s05_0.45_boat_10_n03344393_8219.png
subject-05,1,183,0.849087953567505,boat,elephant,0.4,0183_hp_s05_0.4_elephant_10_n02504458_6433.png
subject-05,1,184,0.801213026046753,keyboard,keyboard,3,0184_hp_s05_3_keyboard_10_n03085013_23286.png
subject-05,1,185,0.59974193572998,clock,clock,1.5,0185_hp_s05_1.5_clock_10_n04548280_3245.png
subject-05,1,186,0.867883920669556,knife,knife,inf,0186_hp_s05_inf_knife_10_n03041632_19614.png
subject-05,1,187,1.06636500358582,oven,chair,0.4,0187_hp_s05_0.4_chair_10_n03376595_2420.png
subject-05,1,188,0.894759893417358,keyboard,truck,0.55,0188_hp_s05_0.55_truck_10_n03417042_17545.png
subject-05,1,189,1.19110679626465,elephant,elephant,0.7,0189_hp_s05_0.7_elephant_10_n02504458_801.png
subject-05,1,190,1.28140997886658,car,keyboard,0.45,0190_hp_s05_0.45_keyboard_10_n03085013_21339.png
subject-05,1,191,0.689803123474121,bottle,bottle,1.5,0191_hp_s05_1.5_bottle_10_n02823428_6892.png
subject-05,1,192,0.856303930282593,clock,cat,0.45,0192_hp_s05_0.45_cat_10_n02123597_8267.png
subject-05,1,193,0.678946018218994,oven,oven,inf,0193_hp_s05_inf_oven_10_n04111531_6454.png
subject-05,1,194,0.874990940093994,bicycle,bicycle,3,0194_hp_s05_3_bicycle_10_n02835271_4962.png
subject-05,1,195,NaN,na,elephant,0.45,0195_hp_s05_0.45_elephant_10_n02504013_5956.png
subject-05,1,196,NaN,na,bear,0.7,0196_hp_s05_0.7_bear_10_n02134418_3415.png
subject-05,1,197,0.846550941467285,oven,keyboard,0.55,0197_hp_s05_0.55_keyboard_10_n04505470_7161.png
subject-05,1,198,0.844706058502197,bear,bear,inf,0198_hp_s05_inf_bear_10_n02133161_2733.png
subject-05,1,199,0.883620023727417,clock,clock,0.55,0199_hp_s05_0.55_clock_10_n04548280_183.png
subject-05,1,200,0.933972835540771,cat,clock,0.45,0200_hp_s05_0.45_clock_10_n03196217_1244.png
subject-05,1,201,0.886476993560791,oven,chair,0.7,0201_hp_s05_0.7_chair_10_n02791124_45.png
subject-05,1,202,0.88498592376709,boat,bear,0.55,0202_hp_s05_0.55_bear_10_n02133161_14963.png
subject-05,1,203,0.615279197692871,keyboard,keyboard,3,0203_hp_s05_3_keyboard_10_n03085013_15504.png
subject-05,1,204,0.805354833602905,boat,chair,0.55,0204_hp_s05_0.55_chair_10_n03376595_9624.png
subject-05,1,205,0.917729139328003,bicycle,chair,0.45,0205_hp_s05_0.45_chair_10_n04099969_24495.png
subject-05,1,206,0.732380867004395,truck,truck,inf,0206_hp_s05_inf_truck_10_n03417042_7191.png
subject-05,1,207,0.792840957641602,cat,bicycle,0.4,0207_hp_s05_0.4_bicycle_10_n02835271_20750.png
subject-05,1,208,0.837095022201538,chair,car,0.45,0208_hp_s05_0.45_car_10_n03100240_14018.png
subject-05,1,209,0.979726791381836,keyboard,bicycle,0.45,0209_hp_s05_0.45_bicycle_10_n02835271_42687.png
subject-05,1,210,0.794164180755615,elephant,truck,0.45,0210_hp_s05_0.45_truck_10_n04467665_55848.png
subject-05,1,211,0.838631153106689,bottle,bottle,3,0211_hp_s05_3_bottle_10_n03983396_23944.png
subject-05,1,212,0.606678009033203,boat,dog,0.45,0212_hp_s05_0.45_dog_10_n02107312_4472.png
subject-05,1,213,0.689365863800049,car,chair,0.45,0213_hp_s05_0.45_chair_10_n04099969_1805.png
subject-05,1,214,0.825790882110596,clock,elephant,0.4,0214_hp_s05_0.4_elephant_10_n02504458_2031.png
subject-05,1,215,0.716251850128174,boat,boat,inf,0215_hp_s05_inf_boat_10_n03344393_7779.png
subject-05,1,216,NaN,na,car,inf,0216_hp_s05_inf_car_10_n04285008_7332.png
subject-05,1,217,0.720952033996582,keyboard,clock,1,0217_hp_s05_1_clock_10_n03196217_3292.png
subject-05,1,218,0.811574935913086,chair,chair,1,0218_hp_s05_1_chair_10_n04429376_14741.png
subject-05,1,219,1.20189499855042,bicycle,oven,0.4,0219_hp_s05_0.4_oven_10_n04111531_4671.png
subject-05,1,220,0.799805879592896,truck,truck,3,0220_hp_s05_3_truck_10_n03417042_17589.png
subject-05,1,221,1.19021916389465,bear,boat,0.55,0221_hp_s05_0.55_boat_10_n04273569_7034.png
subject-05,1,222,1.19428491592407,knife,knife,3,0222_hp_s05_3_knife_10_n03041632_21859.png
subject-05,1,223,0.879064798355103,dog,bird,0.55,0223_hp_s05_0.55_bird_10_n01795545_10765.png
subject-05,1,224,0.715370893478394,oven,oven,inf,0224_hp_s05_inf_oven_10_n04111531_21120.png
subject-05,1,225,1.00553703308105,keyboard,oven,1,0225_hp_s05_1_oven_10_n04111531_6923.png
subject-05,1,226,0.842111110687256,knife,chair,0.7,0226_hp_s05_0.7_chair_10_n04099969_25124.png
subject-05,1,227,0.802029848098755,cat,bicycle,1,0227_hp_s05_1_bicycle_10_n03792782_12752.png
subject-05,1,228,1.50024509429932,boat,boat,0.4,0228_hp_s05_0.4_boat_10_n02951358_13449.png
subject-05,1,229,0.813056945800781,bird,bird,3,0229_hp_s05_3_bird_10_n01829413_1392.png
subject-05,1,230,1.08901810646057,boat,boat,inf,0230_hp_s05_inf_boat_10_n03344393_6324.png
subject-05,1,231,1.27151989936829,clock,knife,0.7,0231_hp_s05_0.7_knife_10_n03041632_91582.png
subject-05,1,232,0.607975006103516,boat,boat,0.7,0232_hp_s05_0.7_boat_10_n03662601_19079.png
subject-05,1,233,0.676113843917847,bottle,bottle,1.5,0233_hp_s05_1.5_bottle_10_n04591713_1132.png
subject-05,1,234,0.950610876083374,oven,truck,0.45,0234_hp_s05_0.45_truck_10_n04467665_25097.png
subject-05,1,235,0.873263120651245,oven,bottle,0.4,0235_hp_s05_0.4_bottle_10_n04591713_6730.png
subject-05,1,236,0.939180850982666,car,boat,0.55,0236_hp_s05_0.55_boat_10_n03662601_5169.png
subject-05,1,237,1.09971404075623,cat,bird,1,0237_hp_s05_1_bird_10_n01817953_6514.png
subject-05,1,238,1.09840106964111,cat,elephant,1,0238_hp_s05_1_elephant_10_n02504013_5848.png
subject-05,1,239,0.710598945617676,oven,boat,0.4,0239_hp_s05_0.4_boat_10_n03662601_3145.png
subject-05,1,240,0.800891160964966,elephant,elephant,0.7,0240_hp_s05_0.7_elephant_10_n02504458_7085.png
subject-05,1,241,0.844555854797363,cat,cat,0.55,0241_hp_s05_0.55_cat_10_n02123597_6864.png
subject-05,1,242,0.720983982086182,boat,boat,inf,0242_hp_s05_inf_boat_10_n03662601_3476.png
subject-05,1,243,0.778879880905151,bear,bear,inf,0243_hp_s05_inf_bear_10_n02132136_2279.png
subject-05,1,244,1.47593402862549,car,bear,0.45,0244_hp_s05_0.45_bear_10_n02132136_2248.png
subject-05,1,245,1.36793208122253,oven,cat,1,0245_hp_s05_1_cat_10_n02123045_1329.png
subject-05,1,246,0.644155025482178,oven,car,0.45,0246_hp_s05_0.45_car_10_n04285008_2793.png
subject-05,1,247,0.594277143478394,oven,oven,3,0247_hp_s05_3_oven_10_n04111531_12510.png
subject-05,1,248,0.77895188331604,chair,chair,1.5,0248_hp_s05_1.5_chair_10_n04429376_19553.png
subject-05,1,249,0.858031988143921,boat,dog,0.7,0249_hp_s05_0.7_dog_10_n02104029_2040.png
subject-05,1,250,1.39437890052795,airplane,bear,0.45,0250_hp_s05_0.45_bear_10_n02133161_12868.png
subject-05,1,251,NaN,na,oven,0.55,0251_hp_s05_0.55_oven_10_n04111531_2987.png
subject-05,1,252,0.79918098449707,keyboard,keyboard,1,0252_hp_s05_1_keyboard_10_n03085013_20691.png
subject-05,1,253,0.705223083496094,oven,oven,3,0253_hp_s05_3_oven_10_n04111531_23668.png
subject-05,1,254,1.05001997947693,boat,airplane,0.4,0254_hp_s05_0.4_airplane_10_n02690373_2128.png
subject-05,1,255,0.772352933883667,airplane,airplane,1.5,0255_hp_s05_1.5_airplane_10_n02690373_3669.png
subject-05,1,256,1.17677187919617,clock,bicycle,0.4,0256_hp_s05_0.4_bicycle_10_n03792782_7328.png
subject-05,1,257,NaN,na,bottle,0.7,0257_hp_s05_0.7_bottle_10_n04591713_7041.png
subject-05,1,258,0.76766300201416,car,elephant,0.45,0258_hp_s05_0.45_elephant_10_n02504458_3533.png
subject-05,1,259,1.07952404022217,keyboard,oven,0.7,0259_hp_s05_0.7_oven_10_n04111531_13862.png
subject-05,1,260,1.00825095176697,cat,oven,0.55,0260_hp_s05_0.55_oven_10_n04111531_4795.png
subject-05,1,261,0.960538864135742,dog,dog,3,0261_hp_s05_3_dog_10_n02088364_6956.png
subject-05,1,262,1.07296895980835,bird,bird,0.4,0262_hp_s05_0.4_bird_10_n01558993_19680.png
subject-05,1,263,0.740568876266479,oven,bird,0.4,0263_hp_s05_0.4_bird_10_n01828970_24604.png
subject-05,1,264,0.753284931182861,bottle,bottle,1.5,0264_hp_s05_1.5_bottle_10_n03983396_22896.png
subject-05,1,265,1.15106892585754,boat,bird,0.55,0265_hp_s05_0.55_bird_10_n02025239_2984.png
subject-05,1,266,1.06529402732849,boat,boat,1.5,0266_hp_s05_1.5_boat_10_n03662601_34199.png
subject-05,1,267,1.30981397628784,car,oven,1,0267_hp_s05_1_oven_10_n04111531_11709.png
subject-05,1,268,1.10055303573608,keyboard,keyboard,1.5,0268_hp_s05_1.5_keyboard_10_n04505470_8386.png
subject-05,1,269,NaN,na,keyboard,0.45,0269_hp_s05_0.45_keyboard_10_n04505470_2540.png
subject-05,1,270,0.743392944335938,car,car,1.5,0270_hp_s05_1.5_car_10_n02814533_74394.png
subject-05,1,271,NaN,na,car,0.4,0271_hp_s05_0.4_car_10_n03100240_10641.png
subject-05,1,272,NaN,na,cat,1.5,0272_hp_s05_1.5_cat_10_n02123394_3602.png
subject-05,1,273,1.30100202560425,boat,boat,inf,0273_hp_s05_inf_boat_10_n03662601_20511.png
subject-05,1,274,0.899154901504517,dog,dog,inf,0274_hp_s05_inf_dog_10_n02096294_1911.png
subject-05,1,275,0.705645084381104,elephant,elephant,inf,0275_hp_s05_inf_elephant_10_n02504013_5636.png
subject-05,1,276,0.866111993789673,cat,bird,inf,0276_hp_s05_inf_bird_10_n02011460_4305.png
subject-05,1,277,0.780646085739136,boat,keyboard,0.55,0277_hp_s05_0.55_keyboard_10_n04505470_10026.png
subject-05,1,278,1.22320604324341,oven,keyboard,0.4,0278_hp_s05_0.4_keyboard_10_n03085013_24217.png
subject-05,1,279,0.799371004104614,bird,bird,3,0279_hp_s05_3_bird_10_n01534433_13986.png
subject-05,1,280,1.31919288635254,car,bird,0.45,0280_hp_s05_0.45_bird_10_n01833805_12522.png
subject-05,1,281,0.863649129867554,boat,elephant,0.45,0281_hp_s05_0.45_elephant_10_n02504013_5780.png
subject-05,1,282,0.878306150436401,bear,bear,3,0282_hp_s05_3_bear_10_n02133161_3395.png
subject-05,1,283,1.5000319480896,bicycle,knife,0.45,0283_hp_s05_0.45_knife_10_n03041632_1407.png
subject-05,1,284,1.03440403938293,clock,chair,0.4,0284_hp_s05_0.4_chair_10_n04429376_45669.png
subject-05,1,285,1.23097395896912,keyboard,chair,0.4,0285_hp_s05_0.4_chair_10_n03376595_9099.png
subject-05,1,286,NaN,na,dog,1,0286_hp_s05_1_dog_10_n02105641_5305.png
subject-05,1,287,0.721804141998291,keyboard,keyboard,inf,0287_hp_s05_inf_keyboard_10_n03085013_21089.png
subject-05,1,288,0.888332843780518,keyboard,knife,3,0288_hp_s05_3_knife_10_n03041632_17349.png
subject-05,1,289,0.786158800125122,truck,truck,0.7,0289_hp_s05_0.7_truck_10_n03417042_18268.png
subject-05,1,290,NaN,na,clock,0.4,0290_hp_s05_0.4_clock_10_n03196217_1009.png
subject-05,1,291,0.612303018569946,cat,cat,1.5,0291_hp_s05_1.5_cat_10_n02124075_5613.png
subject-05,1,292,0.908657073974609,chair,bear,0.7,0292_hp_s05_0.7_bear_10_n02133161_10108.png
subject-05,1,293,0.77656102180481,car,car,1.5,0293_hp_s05_1.5_car_10_n04285008_6877.png
subject-05,1,294,0.575135946273804,oven,oven,inf,0294_hp_s05_inf_oven_10_n04111531_11265.png
subject-05,1,295,0.833112001419067,chair,keyboard,1.5,0295_hp_s05_1.5_keyboard_10_n03085013_2752.png
subject-05,1,296,1.50008988380432,oven,airplane,0.45,0296_hp_s05_0.45_airplane_10_n02690373_6676.png
subject-05,1,297,0.913506031036377,oven,clock,0.45,0297_hp_s05_0.45_clock_10_n02708093_544.png
subject-05,1,298,0.935843944549561,oven,bicycle,0.45,0298_hp_s05_0.45_bicycle_10_n02835271_4789.png
subject-05,1,299,0.794118165969849,truck,truck,inf,0299_hp_s05_inf_truck_10_n03796401_407.png
subject-05,1,300,1.07092785835266,clock,boat,1,0300_hp_s05_1_boat_10_n04612504_14699.png
subject-05,1,301,0.85322093963623,bicycle,bicycle,inf,0301_hp_s05_inf_bicycle_10_n03792782_3775.png
subject-05,1,302,0.835426092147827,car,car,inf,0302_hp_s05_inf_car_10_n03100240_6656.png
subject-05,1,303,0.749582052230835,cat,dog,0.7,0303_hp_s05_0.7_dog_10_n02112706_5286.png
subject-05,1,304,1.24554491043091,boat,dog,0.4,0304_hp_s05_0.4_dog_10_n02090622_6976.png
subject-05,1,305,0.836246013641357,bird,bird,inf,0305_hp_s05_inf_bird_10_n01819313_3259.png
subject-05,1,306,1.21875691413879,boat,bear,3,0306_hp_s05_3_bear_10_n02132136_184.png
subject-05,1,307,NaN,na,clock,0.4,0307_hp_s05_0.4_clock_10_n04548280_5629.png
subject-05,1,308,0.947136163711548,cat,airplane,0.55,0308_hp_s05_0.55_airplane_10_n02690373_427.png
subject-05,1,309,1.19767379760742,boat,boat,3,0309_hp_s05_3_boat_10_n02951358_4609.png
subject-05,1,310,1.24182605743408,clock,oven,0.45,0310_hp_s05_0.45_oven_10_n04111531_9289.png
subject-05,1,311,1.21562814712524,bicycle,keyboard,0.7,0311_hp_s05_0.7_keyboard_10_n03085013_1824.png
subject-05,1,312,0.699838876724243,oven,oven,inf,0312_hp_s05_inf_oven_10_n04111531_13277.png
subject-05,1,313,0.728509902954102,car,car,1,0313_hp_s05_1_car_10_n04285008_7897.png
subject-05,1,314,0.824908971786499,bottle,bottle,1,0314_hp_s05_1_bottle_10_n03937543_2069.png
subject-05,1,315,0.799297094345093,cat,bear,1,0315_hp_s05_1_bear_10_n02134084_10206.png
subject-05,1,316,1.15953397750854,cat,bird,1,0316_hp_s05_1_bird_10_n01795545_6865.png
subject-05,1,317,0.765253067016602,keyboard,keyboard,0.7,0317_hp_s05_0.7_keyboard_10_n03085013_22123.png
subject-05,1,318,0.694035053253174,bottle,chair,1,0318_hp_s05_1_chair_10_n04429376_14171.png
subject-05,1,319,0.806213855743408,bicycle,bicycle,3,0319_hp_s05_3_bicycle_10_n02835271_3841.png
subject-05,1,320,0.742393970489502,truck,truck,1,0320_hp_s05_1_truck_10_n03417042_8690.png
subject-05,1,321,0.922824859619141,bottle,bottle,0.7,0321_hp_s05_0.7_bottle_10_n03983396_19635.png
subject-05,1,322,0.589226007461548,clock,clock,inf,0322_hp_s05_inf_clock_10_n04548280_156.png
subject-05,1,323,0.757658004760742,cat,boat,0.45,0323_hp_s05_0.45_boat_10_n04612504_1869.png
subject-05,1,324,0.840103149414062,dog,dog,inf,0324_hp_s05_inf_dog_10_n02091635_8901.png
subject-05,1,325,0.830205917358398,dog,cat,inf,0325_hp_s05_inf_cat_10_n02124075_6783.png
subject-05,1,326,0.704667091369629,dog,bear,inf,0326_hp_s05_inf_bear_10_n02133161_4916.png
subject-05,1,327,0.634954929351807,cat,cat,1,0327_hp_s05_1_cat_10_n02124075_8955.png
subject-05,1,328,0.771393060684204,boat,bicycle,0.45,0328_hp_s05_0.45_bicycle_10_n03792782_67167.png
subject-05,1,329,0.975867033004761,dog,dog,inf,0329_hp_s05_inf_dog_10_n02107142_11840.png
subject-05,1,330,0.974168062210083,airplane,airplane,0.7,0330_hp_s05_0.7_airplane_10_n02690373_7591.png
subject-05,1,331,0.810922145843506,bird,bird,1,0331_hp_s05_1_bird_10_n02006656_6750.png
subject-05,1,332,0.879286050796509,cat,bird,0.55,0332_hp_s05_0.55_bird_10_n02027492_8834.png
subject-05,1,333,0.953390836715698,truck,truck,inf,0333_hp_s05_inf_truck_10_n03417042_7408.png
subject-05,1,334,0.927597045898438,elephant,elephant,1.5,0334_hp_s05_1.5_elephant_10_n02504013_9141.png
subject-05,1,335,0.780021190643311,boat,dog,0.55,0335_hp_s05_0.55_dog_10_n02105855_10888.png
subject-05,1,336,0.686326026916504,boat,boat,0.7,0336_hp_s05_0.7_boat_10_n03344393_3209.png
subject-05,1,337,0.944537878036499,airplane,airplane,3,0337_hp_s05_3_airplane_10_n02690373_4350.png
subject-05,1,338,0.613003969192505,clock,clock,inf,0338_hp_s05_inf_clock_10_n04548280_4341.png
subject-05,1,339,0.98773980140686,car,elephant,0.45,0339_hp_s05_0.45_elephant_10_n02504458_12101.png
subject-05,1,340,1.13144612312317,cat,dog,0.7,0340_hp_s05_0.7_dog_10_n02113624_254.png
subject-05,1,341,1.10617589950562,clock,clock,1.5,0341_hp_s05_1.5_clock_10_n02708093_425.png
subject-05,1,342,1.05042719841003,dog,bear,1.5,0342_hp_s05_1.5_bear_10_n02133161_1973.png
subject-05,1,343,1.50026392936707,car,boat,0.55,0343_hp_s05_0.55_boat_10_n03662601_889.png
subject-05,1,344,0.893372058868408,cat,cat,0.7,0344_hp_s05_0.7_cat_10_n02123597_4389.png
subject-05,1,345,1.28943300247192,oven,truck,0.45,0345_hp_s05_0.45_truck_10_n03417042_19472.png
subject-05,1,346,1.1176700592041,truck,truck,inf,0346_hp_s05_inf_truck_10_n04467665_4639.png
subject-05,1,347,NaN,na,knife,inf,0347_hp_s05_inf_knife_10_n03041632_4494.png
subject-05,1,348,0.710346937179565,bottle,bottle,inf,0348_hp_s05_inf_bottle_10_n03937543_2313.png
subject-05,1,349,1.10634994506836,airplane,airplane,1.5,0349_hp_s05_1.5_airplane_10_n02690373_5055.png
subject-05,1,350,1.09642601013184,car,car,0.45,0350_hp_s05_0.45_car_10_n03100240_2562.png
subject-05,1,351,0.886931180953979,boat,cat,0.55,0351_hp_s05_0.55_cat_10_n02123597_11594.png
subject-05,1,352,0.931503057479858,boat,chair,0.7,0352_hp_s05_0.7_chair_10_n04099969_20390.png
subject-05,1,353,1.06824588775635,bottle,bottle,inf,0353_hp_s05_inf_bottle_10_n02823428_762.png
subject-05,1,354,1.1664981842041,truck,truck,0.7,0354_hp_s05_0.7_truck_10_n03796401_338.png
subject-05,1,355,0.772854089736938,elephant,elephant,1.5,0355_hp_s05_1.5_elephant_10_n02504458_2317.png
subject-05,1,356,1.08495211601257,car,car,1.5,0356_hp_s05_1.5_car_10_n03100240_16218.png
subject-05,1,357,0.85133695602417,boat,boat,0.4,0357_hp_s05_0.4_boat_10_n03344393_8507.png
subject-05,1,358,0.711858987808228,cat,bear,3,0358_hp_s05_3_bear_10_n02133161_457.png
subject-05,1,359,0.75624418258667,knife,knife,1,0359_hp_s05_1_knife_10_n03041632_11816.png
subject-05,1,360,NaN,na,chair,1.5,0360_hp_s05_1.5_chair_10_n03376595_3056.png
subject-05,1,361,0.905081987380981,car,car,0.7,0361_hp_s05_0.7_car_10_n04285008_7542.png
subject-05,1,362,0.927927017211914,bird,bird,0.7,0362_hp_s05_0.7_bird_10_n02009912_4075.png
subject-05,1,363,1.02410292625427,bottle,bottle,3,0363_hp_s05_3_bottle_10_n04560804_13022.png
subject-05,1,364,1.06082081794739,car,airplane,0.7,0364_hp_s05_0.7_airplane_10_n02690373_1547.png
subject-05,1,365,0.797335147857666,bicycle,bicycle,1,0365_hp_s05_1_bicycle_10_n03792782_37794.png
subject-05,1,366,0.941702127456665,bear,bear,inf,0366_hp_s05_inf_bear_10_n02133161_10562.png
subject-05,1,367,1.50024819374084,boat,airplane,0.45,0367_hp_s05_0.45_airplane_10_n02690373_6468.png
subject-05,1,368,0.760710954666138,bicycle,bicycle,inf,0368_hp_s05_inf_bicycle_10_n02835271_9062.png
subject-05,1,369,0.713252067565918,boat,boat,0.4,0369_hp_s05_0.4_boat_10_n03662601_10500.png
subject-05,1,370,NaN,na,chair,0.45,0370_hp_s05_0.45_chair_10_n04099969_14537.png
subject-05,1,371,1.20208692550659,oven,clock,0.55,0371_hp_s05_0.55_clock_10_n03196217_1458.png
subject-05,1,372,0.646801948547363,bird,bird,3,0372_hp_s05_3_bird_10_n01829413_4107.png
subject-05,1,373,0.766785860061646,cat,cat,0.7,0373_hp_s05_0.7_cat_10_n02123159_5294.png
subject-05,1,374,1.08725094795227,boat,boat,0.55,0374_hp_s05_0.55_boat_10_n02951358_34456.png
subject-05,1,375,1.08553695678711,bicycle,bicycle,0.55,0375_hp_s05_0.55_bicycle_10_n03792782_52540.png
subject-05,1,376,1.09216904640198,car,boat,0.45,0376_hp_s05_0.45_boat_10_n03344393_4333.png
subject-05,1,377,1.25838994979858,cat,dog,1,0377_hp_s05_1_dog_10_n02086079_18769.png
subject-05,1,378,1.02500700950623,truck,truck,1,0378_hp_s05_1_truck_10_n03796401_20093.png
subject-05,1,379,1.35328412055969,car,boat,0.55,0379_hp_s05_0.55_boat_10_n04273569_10922.png
subject-05,1,380,1.49011182785034,cat,cat,1.5,0380_hp_s05_1.5_cat_10_n02123394_8821.png
subject-05,1,381,1.12074494361877,boat,bottle,0.55,0381_hp_s05_0.55_bottle_10_n03983396_24827.png
subject-05,1,382,1.07878398895264,chair,oven,1,0382_hp_s05_1_oven_10_n04111531_13456.png
subject-05,1,383,0.976991891860962,airplane,airplane,1.5,0383_hp_s05_1.5_airplane_10_n02690373_6853.png
subject-05,1,384,0.889310836791992,oven,oven,1.5,0384_hp_s05_1.5_oven_10_n04111531_16583.png
subject-05,1,385,1.16388916969299,chair,knife,1.5,0385_hp_s05_1.5_knife_10_n03041632_84086.png
subject-05,1,386,0.786240100860596,cat,oven,0.55,0386_hp_s05_0.55_oven_10_n04111531_14959.png
subject-05,1,387,0.860092163085938,cat,cat,inf,0387_hp_s05_inf_cat_10_n02123597_13064.png
subject-05,1,388,1.50023508071899,clock,chair,1.5,0388_hp_s05_1.5_chair_10_n04429376_3883.png
subject-05,1,389,0.955312013626099,boat,dog,0.55,0389_hp_s05_0.55_dog_10_n02086240_6882.png
subject-05,1,390,0.799751996994019,car,car,3,0390_hp_s05_3_car_10_n03100240_651.png
subject-05,1,391,0.776160001754761,boat,bicycle,0.7,0391_hp_s05_0.7_bicycle_10_n02835271_6779.png
subject-05,1,392,0.950898885726929,boat,bottle,0.45,0392_hp_s05_0.45_bottle_10_n04557648_27253.png
subject-05,1,393,0.771157026290894,oven,oven,1.5,0393_hp_s05_1.5_oven_10_n04111531_10339.png
subject-05,1,394,1.04597997665405,car,bicycle,0.7,0394_hp_s05_0.7_bicycle_10_n02835271_3285.png
subject-05,1,395,1.0277259349823,car,car,1,0395_hp_s05_1_car_10_n04285008_6013.png
subject-05,1,396,1.40211606025696,car,elephant,0.4,0396_hp_s05_0.4_elephant_10_n02504458_9835.png
subject-05,1,397,0.662432909011841,clock,clock,1,0397_hp_s05_1_clock_10_n04548280_1119.png
subject-05,1,398,0.968999147415161,knife,knife,3,0398_hp_s05_3_knife_10_n03041632_45270.png
subject-05,1,399,0.919384002685547,dog,bear,inf,0399_hp_s05_inf_bear_10_n02134084_1410.png
subject-05,1,400,0.917556047439575,oven,boat,0.7,0400_hp_s05_0.7_boat_10_n04273569_1600.png
subject-05,1,401,0.70008111000061,airplane,airplane,1.5,0401_hp_s05_1.5_airplane_10_n02690373_3617.png
subject-05,1,402,1.4665219783783,clock,boat,inf,0402_hp_s05_inf_boat_10_n03344393_8399.png
subject-05,1,403,1.09672498703003,car,car,0.55,0403_hp_s05_0.55_car_10_n02814533_6576.png
subject-05,1,404,0.587363958358765,oven,oven,1,0404_hp_s05_1_oven_10_n04111531_17433.png
subject-05,1,405,0.75393009185791,bicycle,bicycle,1.5,0405_hp_s05_1.5_bicycle_10_n03792782_51679.png
subject-05,1,406,1.06024312973022,bear,bear,1.5,0406_hp_s05_1.5_bear_10_n02134084_21170.png
subject-05,1,407,1.25196385383606,bear,truck,0.45,0407_hp_s05_0.45_truck_10_n04467665_3109.png
subject-05,1,408,0.917719841003418,clock,clock,0.55,0408_hp_s05_0.55_clock_10_n03196217_82.png
subject-05,1,409,0.864360809326172,oven,airplane,0.4,0409_hp_s05_0.4_airplane_10_n02690373_1469.png
subject-05,1,410,0.990952968597412,boat,car,0.45,0410_hp_s05_0.45_car_10_n04285008_6102.png
subject-05,1,411,1.38943099975586,airplane,dog,0.4,0411_hp_s05_0.4_dog_10_n02099849_2389.png
subject-05,1,412,1.02002000808716,keyboard,oven,1.5,0412_hp_s05_1.5_oven_10_n04111531_16270.png
subject-05,1,413,0.740532875061035,bear,dog,3,0413_hp_s05_3_dog_10_n02088094_10669.png
subject-05,1,414,0.77708101272583,clock,clock,3,0414_hp_s05_3_clock_10_n02708093_7941.png
subject-05,1,415,0.712974071502686,keyboard,keyboard,0.55,0415_hp_s05_0.55_keyboard_10_n04505470_943.png
subject-05,1,416,0.873517036437988,bird,bird,3,0416_hp_s05_3_bird_10_n02056570_9302.png
subject-05,1,417,0.98583984375,keyboard,cat,0.45,0417_hp_s05_0.45_cat_10_n02123159_7891.png
subject-05,1,418,0.921986103057861,bird,bear,1,0418_hp_s05_1_bear_10_n02133161_10329.png
subject-05,1,419,0.842514038085938,car,car,inf,0419_hp_s05_inf_car_10_n02814533_5888.png
subject-05,1,420,1.29499101638794,keyboard,keyboard,1.5,0420_hp_s05_1.5_keyboard_10_n04505470_6165.png
subject-05,1,421,0.709402084350586,boat,bird,0.45,0421_hp_s05_0.45_bird_10_n01560419_14207.png
subject-05,1,422,0.959805965423584,bicycle,bicycle,1.5,0422_hp_s05_1.5_bicycle_10_n03792782_17193.png
subject-05,1,423,NaN,na,car,0.45,0423_hp_s05_0.45_car_10_n04285008_11763.png
subject-05,1,424,NaN,na,knife,inf,0424_hp_s05_inf_knife_10_n03041632_43634.png
subject-05,1,425,0.844043016433716,boat,cat,0.45,0425_hp_s05_0.45_cat_10_n02123159_7390.png
subject-05,1,426,1.10441017150879,boat,boat,1.5,0426_hp_s05_1.5_boat_10_n03344393_5920.png
subject-05,1,427,1.18278193473816,boat,bird,0.55,0427_hp_s05_0.55_bird_10_n01592084_3011.png
subject-05,1,428,0.951370000839233,car,elephant,0.55,0428_hp_s05_0.55_elephant_10_n02504013_4145.png
subject-05,1,429,0.671841144561768,clock,clock,inf,0429_hp_s05_inf_clock_10_n02708093_6631.png
subject-05,1,430,0.753724098205566,cat,bear,0.7,0430_hp_s05_0.7_bear_10_n02132136_10134.png
subject-05,1,431,1.04986786842346,truck,truck,1.5,0431_hp_s05_1.5_truck_10_n03417042_6407.png
subject-05,1,432,NaN,na,elephant,0.45,0432_hp_s05_0.45_elephant_10_n02504013_6181.png
subject-05,1,433,0.679005861282349,clock,clock,1.5,0433_hp_s05_1.5_clock_10_n04548280_7588.png
subject-05,1,434,0.8454749584198,dog,dog,inf,0434_hp_s05_inf_dog_10_n02106550_6482.png
subject-05,1,435,0.919994831085205,elephant,chair,1,0435_hp_s05_1_chair_10_n04429376_21014.png
subject-05,1,436,0.818407773971558,oven,knife,0.45,0436_hp_s05_0.45_knife_10_n03041632_46914.png
subject-05,1,437,1.16306900978088,dog,dog,1.5,0437_hp_s05_1.5_dog_10_n02085936_7645.png
subject-05,1,438,NaN,na,keyboard,0.45,0438_hp_s05_0.45_keyboard_10_n03085013_7399.png
subject-05,1,439,0.889803171157837,airplane,airplane,inf,0439_hp_s05_inf_airplane_10_n02690373_2217.png
subject-05,1,440,1.26444792747498,car,dog,1,0440_hp_s05_1_dog_10_n02093754_2397.png
subject-05,1,441,0.771007061004639,bird,bird,inf,0441_hp_s05_inf_bird_10_n01855032_5089.png
subject-05,1,442,0.991143941879272,elephant,chair,0.55,0442_hp_s05_0.55_chair_10_n04429376_28621.png
subject-05,1,443,0.750976085662842,boat,bottle,0.4,0443_hp_s05_0.4_bottle_10_n04560804_6546.png
subject-05,1,444,0.971436023712158,car,truck,0.4,0444_hp_s05_0.4_truck_10_n03417042_14645.png
subject-05,1,445,1.16211104393005,airplane,car,0.4,0445_hp_s05_0.4_car_10_n04285008_4811.png
subject-05,1,446,1.48873496055603,car,car,0.55,0446_hp_s05_0.55_car_10_n03100240_5456.png
subject-05,1,447,0.889201164245605,car,knife,0.55,0447_hp_s05_0.55_knife_10_n03041632_24561.png
subject-05,1,448,0.739560842514038,bicycle,bicycle,1,0448_hp_s05_1_bicycle_10_n02835271_13748.png
subject-05,1,449,1.50005602836609,truck,knife,0.7,0449_hp_s05_0.7_knife_10_n03041632_19971.png
subject-05,1,450,0.898467063903809,bear,dog,1,0450_hp_s05_1_dog_10_n02113712_8388.png
subject-05,1,451,0.74897289276123,car,car,3,0451_hp_s05_3_car_10_n04285008_7375.png
subject-05,1,452,1.43915510177612,boat,airplane,3,0452_hp_s05_3_airplane_10_n02690373_1538.png
subject-05,1,453,0.888492107391357,airplane,bird,0.45,0453_hp_s05_0.45_bird_10_n01833805_5396.png
subject-05,1,454,0.773038148880005,airplane,airplane,3,0454_hp_s05_3_airplane_10_n02690373_2521.png
subject-05,1,455,0.731173992156982,boat,clock,0.55,0455_hp_s05_0.55_clock_10_n04548280_11597.png
subject-05,1,456,0.951850891113281,clock,clock,3,0456_hp_s05_3_clock_10_n04548280_3994.png
subject-05,1,457,0.965973854064941,oven,elephant,0.55,0457_hp_s05_0.55_elephant_10_n02504458_9516.png
subject-05,1,458,0.656473159790039,boat,boat,3,0458_hp_s05_3_boat_10_n04273569_11530.png
subject-05,1,459,0.763053178787231,clock,bottle,0.55,0459_hp_s05_0.55_bottle_10_n02823428_3970.png
subject-05,1,460,0.78322696685791,car,clock,0.7,0460_hp_s05_0.7_clock_10_n02708093_3368.png
subject-05,1,461,1.50006294250488,truck,knife,1,0461_hp_s05_1_knife_10_n03041632_10136.png
subject-05,1,462,0.915673971176147,boat,keyboard,0.45,0462_hp_s05_0.45_keyboard_10_n03085013_6424.png
subject-05,1,463,0.689957857131958,car,car,1.5,0463_hp_s05_1.5_car_10_n02814533_1754.png
subject-05,1,464,0.956199884414673,elephant,knife,0.55,0464_hp_s05_0.55_knife_10_n03041632_86783.png
subject-05,1,465,0.824734926223755,bear,elephant,0.55,0465_hp_s05_0.55_elephant_10_n02504458_952.png
subject-05,1,466,0.707342863082886,chair,chair,3,0466_hp_s05_3_chair_10_n02791124_4969.png
subject-05,1,467,1.00328397750854,knife,bicycle,1,0467_hp_s05_1_bicycle_10_n03792782_11169.png
subject-05,1,468,1.16405606269836,knife,knife,inf,0468_hp_s05_inf_knife_10_n03041632_751.png
subject-05,1,469,1.36809110641479,bear,dog,1,0469_hp_s05_1_dog_10_n02088238_5975.png
subject-05,1,470,0.766765832901001,bicycle,bicycle,1.5,0470_hp_s05_1.5_bicycle_10_n02835271_10863.png
subject-05,1,471,1.50000905990601,car,dog,1.5,0471_hp_s05_1.5_dog_10_n02090721_6761.png
subject-05,1,472,0.868880033493042,clock,oven,0.4,0472_hp_s05_0.4_oven_10_n04111531_172.png
subject-05,1,473,0.865251064300537,boat,keyboard,0.45,0473_hp_s05_0.45_keyboard_10_n03085013_22669.png
subject-05,1,474,0.839446067810059,car,car,1,0474_hp_s05_1_car_10_n03100240_9633.png
subject-05,1,475,1.38974404335022,bear,oven,0.45,0475_hp_s05_0.45_oven_10_n04111531_15267.png
subject-05,1,476,1.10428404808044,clock,car,0.45,0476_hp_s05_0.45_car_10_n04285008_13722.png
subject-05,1,477,0.740579843521118,clock,oven,0.45,0477_hp_s05_0.45_oven_10_n04111531_1220.png
subject-05,1,478,NaN,na,cat,0.7,0478_hp_s05_0.7_cat_10_n02125311_10230.png
subject-05,1,479,0.829263210296631,boat,dog,0.45,0479_hp_s05_0.45_dog_10_n02109961_1034.png
subject-05,1,480,0.78745698928833,bicycle,bicycle,3,0480_hp_s05_3_bicycle_10_n03792782_46560.png
subject-05,1,481,0.881982088088989,boat,boat,inf,0481_hp_s05_inf_boat_10_n04612504_18192.png
subject-05,1,482,0.710427045822144,airplane,airplane,inf,0482_hp_s05_inf_airplane_10_n02690373_7093.png
subject-05,1,483,NaN,na,bird,0.7,0483_hp_s05_0.7_bird_10_n01818515_2892.png
subject-05,1,484,1.2593150138855,clock,oven,0.45,0484_hp_s05_0.45_oven_10_n04111531_21404.png
subject-05,1,485,0.911928176879883,boat,elephant,0.7,0485_hp_s05_0.7_elephant_10_n02504013_218.png
subject-05,1,486,0.932403087615967,airplane,airplane,1,0486_hp_s05_1_airplane_10_n02690373_6576.png
subject-05,1,487,0.968401908874512,elephant,elephant,inf,0487_hp_s05_inf_elephant_10_n02504013_10492.png
subject-05,1,488,0.696624994277954,bicycle,bicycle,inf,0488_hp_s05_inf_bicycle_10_n03792782_1802.png
subject-05,1,489,0.856979131698608,boat,bottle,0.4,0489_hp_s05_0.4_bottle_10_n04579145_6697.png
subject-05,1,490,0.577491044998169,airplane,airplane,3,0490_hp_s05_3_airplane_10_n02690373_7908.png
subject-05,1,491,0.767969131469727,bicycle,bicycle,inf,0491_hp_s05_inf_bicycle_10_n02835271_19955.png
subject-05,1,492,0.96434211730957,keyboard,oven,0.7,0492_hp_s05_0.7_oven_10_n04111531_22886.png
subject-05,1,493,0.654819011688232,oven,boat,0.55,0493_hp_s05_0.55_boat_10_n03344393_14208.png
subject-05,1,494,1.06105399131775,car,clock,0.45,0494_hp_s05_0.45_clock_10_n04548280_98.png
subject-05,1,495,NaN,na,knife,0.7,0495_hp_s05_0.7_knife_10_n03041632_102828.png
subject-05,1,496,1.20962500572205,bear,bear,1.5,0496_hp_s05_1.5_bear_10_n02133161_765.png
subject-05,1,497,0.891925096511841,bicycle,bicycle,1,0497_hp_s05_1_bicycle_10_n03792782_7696.png
subject-05,1,498,0.758275032043457,bird,bird,1.5,0498_hp_s05_1.5_bird_10_n02002556_10696.png
subject-05,1,499,0.686293840408325,clock,clock,inf,0499_hp_s05_inf_clock_10_n02708093_3609.png
subject-05,1,500,1.09050989151001,bicycle,bicycle,3,0500_hp_s05_3_bicycle_10_n02835271_1499.png
subject-05,1,501,0.788713932037354,keyboard,bear,0.45,0501_hp_s05_0.45_bear_10_n02133161_2236.png
subject-05,1,502,0.732945919036865,car,car,3,0502_hp_s05_3_car_10_n04285008_16604.png
subject-05,1,503,0.807673931121826,boat,truck,0.55,0503_hp_s05_0.55_truck_10_n04467665_66047.png
subject-05,1,504,1.08991503715515,airplane,elephant,0.55,0504_hp_s05_0.55_elephant_10_n02504013_293.png
subject-05,1,505,0.804208993911743,boat,dog,0.45,0505_hp_s05_0.45_dog_10_n02086646_5715.png
subject-05,1,506,0.954807043075562,boat,boat,1.5,0506_hp_s05_1.5_boat_10_n03662601_1010.png
subject-05,1,507,1.41285109519958,car,dog,0.45,0507_hp_s05_0.45_dog_10_n02110958_358.png
subject-05,1,508,1.0895049571991,knife,cat,0.4,0508_hp_s05_0.4_cat_10_n02123597_11906.png
subject-05,1,509,0.655845880508423,clock,clock,1,0509_hp_s05_1_clock_10_n04548280_6388.png
subject-05,1,510,0.662475109100342,cat,cat,0.55,0510_hp_s05_0.55_cat_10_n02124075_4551.png
subject-05,1,511,1.01255393028259,airplane,airplane,1,0511_hp_s05_1_airplane_10_n02690373_1386.png
subject-05,1,512,0.726792097091675,clock,clock,1.5,0512_hp_s05_1.5_clock_10_n04548280_10476.png
subject-05,1,513,1.05502200126648,clock,knife,1.5,0513_hp_s05_1.5_knife_10_n03041632_50423.png
subject-05,1,514,1.11387205123901,bear,bear,1.5,0514_hp_s05_1.5_bear_10_n02134418_4670.png
subject-05,1,515,0.987961053848267,bicycle,bicycle,1,0515_hp_s05_1_bicycle_10_n02835271_24679.png
subject-05,1,516,NaN,na,oven,3,0516_hp_s05_3_oven_10_n04111531_1674.png
subject-05,1,517,0.990435123443604,keyboard,oven,1.5,0517_hp_s05_1.5_oven_10_n04111531_2752.png
subject-05,1,518,0.867156982421875,boat,airplane,0.55,0518_hp_s05_0.55_airplane_10_n02690373_4144.png
subject-05,1,519,0.850306034088135,clock,chair,0.45,0519_hp_s05_0.45_chair_10_n02791124_244.png
subject-05,1,520,1.02712106704712,car,car,0.7,0520_hp_s05_0.7_car_10_n02814533_2236.png
subject-05,1,521,NaN,na,bicycle,0.4,0521_hp_s05_0.4_bicycle_10_n03792782_11043.png
subject-05,1,522,1.03798294067383,truck,truck,3,0522_hp_s05_3_truck_10_n03417042_7849.png
subject-05,1,523,1.18060612678528,boat,truck,1,0523_hp_s05_1_truck_10_n03417042_29444.png
subject-05,1,524,0.908504962921143,cat,bottle,1.5,0524_hp_s05_1.5_bottle_10_n04579145_3874.png
subject-05,1,525,0.797899961471558,cat,oven,0.4,0525_hp_s05_0.4_oven_10_n04111531_10011.png
subject-05,1,526,1.31814789772034,truck,boat,0.7,0526_hp_s05_0.7_boat_10_n03662601_2793.png
subject-05,1,527,NaN,na,bear,0.55,0527_hp_s05_0.55_bear_10_n02134418_3462.png
subject-05,1,528,1.19117903709412,keyboard,keyboard,1.5,0528_hp_s05_1.5_keyboard_10_n04505470_407.png
subject-05,1,529,NaN,na,boat,1,0529_hp_s05_1_boat_10_n03344393_3790.png
subject-05,1,530,0.656349182128906,boat,knife,0.55,0530_hp_s05_0.55_knife_10_n03041632_32459.png
subject-05,1,531,0.884903907775879,boat,bear,0.55,0531_hp_s05_0.55_bear_10_n02134084_7722.png
subject-05,1,532,1.03674697875977,car,chair,0.45,0532_hp_s05_0.45_chair_10_n03376595_5396.png
subject-05,1,533,0.957062959671021,bird,bird,3,0533_hp_s05_3_bird_10_n02056570_8561.png
subject-05,1,534,1.04713082313538,bird,dog,0.4,0534_hp_s05_0.4_dog_10_n02101006_2292.png
subject-05,1,535,1.23575592041016,elephant,elephant,0.7,0535_hp_s05_0.7_elephant_10_n02504013_13384.png
subject-05,1,536,0.841734170913696,bicycle,bicycle,1.5,0536_hp_s05_1.5_bicycle_10_n02835271_12097.png
subject-05,1,537,0.991939067840576,boat,bird,0.4,0537_hp_s05_0.4_bird_10_n01614925_37018.png
subject-05,1,538,1.04430985450745,truck,truck,3,0538_hp_s05_3_truck_10_n03417042_10442.png
subject-05,1,539,1.03955888748169,boat,boat,1.5,0539_hp_s05_1.5_boat_10_n04273569_3990.png
subject-05,1,540,1.03015303611755,elephant,elephant,3,0540_hp_s05_3_elephant_10_n02504458_7708.png
subject-05,1,541,0.758800983428955,bird,bird,1.5,0541_hp_s05_1.5_bird_10_n01614925_15460.png
subject-05,1,542,0.826837062835693,cat,knife,0.55,0542_hp_s05_0.55_knife_10_n03041632_27709.png
subject-05,1,543,0.701328992843628,boat,boat,0.7,0543_hp_s05_0.7_boat_10_n03344393_15919.png
subject-05,1,544,1.50029683113098,cat,oven,3,0544_hp_s05_3_oven_10_n04111531_10358.png
subject-05,1,545,0.795794010162354,truck,truck,inf,0545_hp_s05_inf_truck_10_n03417042_12614.png
subject-05,1,546,0.810222864151001,keyboard,chair,0.7,0546_hp_s05_0.7_chair_10_n02791124_6178.png
subject-05,1,547,0.854745149612427,oven,elephant,0.55,0547_hp_s05_0.55_elephant_10_n02504013_3567.png
subject-05,1,548,1.31930208206177,oven,airplane,inf,0548_hp_s05_inf_airplane_10_n02690373_3047.png
subject-05,1,549,0.895796060562134,boat,clock,1,0549_hp_s05_1_clock_10_n03196217_5636.png
subject-05,1,550,0.886298894882202,cat,cat,inf,0550_hp_s05_inf_cat_10_n02125311_22042.png
subject-05,1,551,1.06829595565796,bear,bear,0.55,0551_hp_s05_0.55_bear_10_n02133161_10184.png
subject-05,1,552,0.696897983551025,boat,truck,0.55,0552_hp_s05_0.55_truck_10_n03796401_16337.png
subject-05,1,553,0.909194946289062,car,cat,0.45,0553_hp_s05_0.45_cat_10_n02124075_9889.png
subject-05,1,554,0.677659034729004,keyboard,keyboard,1,0554_hp_s05_1_keyboard_10_n03085013_20784.png
subject-05,1,555,0.744097948074341,cat,cat,inf,0555_hp_s05_inf_cat_10_n02123159_3534.png
subject-05,1,556,0.858172178268433,bird,bird,0.7,0556_hp_s05_0.7_bird_10_n02002724_2205.png
subject-05,1,557,0.908499002456665,cat,cat,3,0557_hp_s05_3_cat_10_n02123597_298.png
subject-05,1,558,0.869230031967163,boat,bicycle,0.45,0558_hp_s05_0.45_bicycle_10_n03792782_3696.png
subject-05,1,559,0.822952032089233,keyboard,oven,0.55,0559_hp_s05_0.55_oven_10_n04111531_5727.png
subject-05,1,560,1.04361605644226,keyboard,keyboard,1.5,0560_hp_s05_1.5_keyboard_10_n03085013_20492.png
subject-05,1,561,0.956187009811401,cat,truck,1.5,0561_hp_s05_1.5_truck_10_n03796401_2569.png
subject-05,1,562,0.686645984649658,oven,car,0.45,0562_hp_s05_0.45_car_10_n04285008_4753.png
subject-05,1,563,0.653013944625854,boat,dog,0.7,0563_hp_s05_0.7_dog_10_n02099849_3506.png
subject-05,1,564,0.821732997894287,boat,airplane,0.4,0564_hp_s05_0.4_airplane_10_n02690373_19152.png
subject-05,1,565,1.40206694602966,bear,bear,3,0565_hp_s05_3_bear_10_n02134418_781.png
subject-05,1,566,1.50033402442932,cat,dog,1,0566_hp_s05_1_dog_10_n02091467_1328.png
subject-05,1,567,0.852218866348267,boat,boat,0.45,0567_hp_s05_0.45_boat_10_n02951358_2070.png
subject-05,1,568,0.802893161773682,bird,bear,3,0568_hp_s05_3_bear_10_n02134084_6005.png
subject-05,1,569,0.692807912826538,bicycle,bicycle,inf,0569_hp_s05_inf_bicycle_10_n02835271_13542.png
subject-05,1,570,0.674767017364502,bottle,bottle,inf,0570_hp_s05_inf_bottle_10_n04591713_7637.png
subject-05,1,571,0.686918020248413,airplane,airplane,inf,0571_hp_s05_inf_airplane_10_n02690373_152.png
subject-05,1,572,1.08564782142639,elephant,cat,0.7,0572_hp_s05_0.7_cat_10_n02123159_6721.png
subject-05,1,573,0.822127819061279,boat,dog,0.4,0573_hp_s05_0.4_dog_10_n02109525_175.png
subject-05,1,574,0.55053186416626,boat,truck,0.4,0574_hp_s05_0.4_truck_10_n04467665_23867.png
subject-05,1,575,0.992594957351685,bird,cat,0.45,0575_hp_s05_0.45_cat_10_n02123597_13529.png
subject-05,1,576,1.00679779052734,clock,clock,1,0576_hp_s05_1_clock_10_n02708093_2650.png
subject-05,1,577,0.667454957962036,car,car,inf,0577_hp_s05_inf_car_10_n03100240_11542.png
subject-05,1,578,1.08565306663513,car,car,3,0578_hp_s05_3_car_10_n03100240_2477.png
subject-05,1,579,1.50025200843811,bird,cat,0.55,0579_hp_s05_0.55_cat_10_n02123045_1030.png
subject-05,1,580,1.2486720085144,keyboard,bicycle,1,0580_hp_s05_1_bicycle_10_n02835271_3246.png
subject-05,1,581,0.754788875579834,chair,chair,3,0581_hp_s05_3_chair_10_n04429376_5159.png
subject-05,1,582,0.820825099945068,bottle,knife,0.7,0582_hp_s05_0.7_knife_10_n03041632_47743.png
subject-05,1,583,0.954790830612183,boat,boat,0.45,0583_hp_s05_0.45_boat_10_n03344393_10023.png
subject-05,1,584,1.32026290893555,boat,truck,3,0584_hp_s05_3_truck_10_n04467665_52709.png
subject-05,1,585,0.710361957550049,bottle,bottle,inf,0585_hp_s05_inf_bottle_10_n04560804_28528.png
subject-05,1,586,1.12270402908325,airplane,airplane,0.4,0586_hp_s05_0.4_airplane_10_n02690373_1986.png
subject-05,1,587,0.72091007232666,car,car,inf,0587_hp_s05_inf_car_10_n03100240_11867.png
subject-05,1,588,0.887501001358032,bottle,bottle,1,0588_hp_s05_1_bottle_10_n03937543_4315.png
subject-05,1,589,0.907965898513794,bird,bird,1,0589_hp_s05_1_bird_10_n01796340_17640.png
subject-05,1,590,1.01411700248718,clock,dog,0.7,0590_hp_s05_0.7_dog_10_n02088466_5182.png
subject-05,1,591,0.888622045516968,clock,boat,3,0591_hp_s05_3_boat_10_n03344393_7357.png
subject-05,1,592,0.633090019226074,cat,cat,0.7,0592_hp_s05_0.7_cat_10_n02124075_12904.png
subject-05,1,593,0.660948038101196,oven,oven,1.5,0593_hp_s05_1.5_oven_10_n04111531_12702.png
subject-05,1,594,1.31927394866943,keyboard,keyboard,0.55,0594_hp_s05_0.55_keyboard_10_n04505470_4458.png
subject-05,1,595,1.30769014358521,dog,dog,inf,0595_hp_s05_inf_dog_10_n02101006_6973.png
subject-05,1,596,1.01390194892883,bird,elephant,0.45,0596_hp_s05_0.45_elephant_10_n02504013_2385.png
subject-05,1,597,1.13444399833679,car,dog,0.4,0597_hp_s05_0.4_dog_10_n02097130_4613.png
subject-05,1,598,0.941032886505127,truck,bird,0.45,0598_hp_s05_0.45_bird_10_n02007558_515.png
subject-05,1,599,0.877336025238037,truck,truck,3,0599_hp_s05_3_truck_10_n03417042_4095.png
subject-05,1,600,1.44938182830811,elephant,bear,1.5,0600_hp_s05_1.5_bear_10_n02132136_10775.png
subject-05,1,601,0.915741920471191,boat,cat,0.55,0601_hp_s05_0.55_cat_10_n02124075_8693.png
subject-05,1,602,0.767736911773682,bicycle,bicycle,1.5,0602_hp_s05_1.5_bicycle_10_n02835271_357.png
subject-05,1,603,0.92619800567627,bear,bird,0.55,0603_hp_s05_0.55_bird_10_n01797886_12770.png
subject-05,1,604,0.579055070877075,oven,oven,3,0604_hp_s05_3_oven_10_n04111531_22563.png
subject-05,1,605,1.03132200241089,car,cat,0.4,0605_hp_s05_0.4_cat_10_n02123159_3420.png
subject-05,1,606,0.997532844543457,boat,bottle,1,0606_hp_s05_1_bottle_10_n02823428_2535.png
subject-05,1,607,1.04759001731873,airplane,bear,0.7,0607_hp_s05_0.7_bear_10_n02134084_11993.png
subject-05,1,608,1.12478613853455,bear,oven,1.5,0608_hp_s05_1.5_oven_10_n04111531_20056.png
subject-05,1,609,0.691390037536621,chair,chair,3,0609_hp_s05_3_chair_10_n02791124_4334.png
subject-05,1,610,1.01969313621521,cat,truck,0.4,0610_hp_s05_0.4_truck_10_n03796401_9472.png
subject-05,1,611,0.777155876159668,bird,bird,0.7,0611_hp_s05_0.7_bird_10_n01592084_814.png
subject-05,1,612,1.22965312004089,elephant,elephant,0.7,0612_hp_s05_0.7_elephant_10_n02504013_1225.png
subject-05,1,613,0.974378108978271,car,clock,0.45,0613_hp_s05_0.45_clock_10_n04548280_9217.png
subject-05,1,614,1.11667108535767,clock,bicycle,0.4,0614_hp_s05_0.4_bicycle_10_n02835271_14940.png
subject-05,1,615,1.26149916648865,boat,bottle,0.55,0615_hp_s05_0.55_bottle_10_n04557648_3385.png
subject-05,1,616,0.883300065994263,cat,bottle,1.5,0616_hp_s05_1.5_bottle_10_n03937543_50.png
subject-05,1,617,1.19555616378784,elephant,elephant,3,0617_hp_s05_3_elephant_10_n02504013_3087.png
subject-05,1,618,0.809983015060425,airplane,airplane,inf,0618_hp_s05_inf_airplane_10_n02690373_4434.png
subject-05,1,619,1.01457405090332,car,elephant,0.4,0619_hp_s05_0.4_elephant_10_n02504458_4316.png
subject-05,1,620,1.02655291557312,elephant,elephant,inf,0620_hp_s05_inf_elephant_10_n02504013_3023.png
subject-05,1,621,1.27102589607239,keyboard,keyboard,1.5,0621_hp_s05_1.5_keyboard_10_n03085013_18907.png
subject-05,1,622,NaN,na,knife,0.4,0622_hp_s05_0.4_knife_10_n03041632_29037.png
subject-05,1,623,0.743383884429932,cat,bottle,0.55,0623_hp_s05_0.55_bottle_10_n04591713_4038.png
subject-05,1,624,1.13197088241577,clock,keyboard,0.55,0624_hp_s05_0.55_keyboard_10_n03085013_3795.png
subject-05,1,625,1.36735200881958,car,airplane,0.4,0625_hp_s05_0.4_airplane_10_n02690373_9218.png
subject-05,1,626,0.773964166641235,bear,oven,0.45,0626_hp_s05_0.45_oven_10_n04111531_5168.png
subject-05,1,627,1.06984496116638,car,truck,0.7,0627_hp_s05_0.7_truck_10_n03417042_5346.png
subject-05,1,628,1.2243800163269,bear,car,0.55,0628_hp_s05_0.55_car_10_n02814533_31872.png
subject-05,1,629,0.998613834381104,bottle,boat,0.4,0629_hp_s05_0.4_boat_10_n03344393_9777.png
subject-05,1,630,0.788861036300659,knife,knife,inf,0630_hp_s05_inf_knife_10_n03041632_28135.png
subject-05,1,631,1.30929279327393,keyboard,clock,3,0631_hp_s05_3_clock_10_n03196217_5845.png
subject-05,1,632,0.753820896148682,oven,oven,0.55,0632_hp_s05_0.55_oven_10_n04111531_4327.png
subject-05,1,633,0.75846004486084,boat,chair,0.55,0633_hp_s05_0.55_chair_10_n02791124_5501.png
subject-05,1,634,0.80318808555603,clock,oven,0.4,0634_hp_s05_0.4_oven_10_n04111531_15943.png
subject-05,1,635,0.993563175201416,cat,bird,1,0635_hp_s05_1_bird_10_n01819313_10353.png
subject-05,1,636,0.859882116317749,elephant,elephant,3,0636_hp_s05_3_elephant_10_n02504458_66.png
subject-05,1,637,0.726001977920532,car,car,1.5,0637_hp_s05_1.5_car_10_n03100240_15795.png
subject-05,1,638,0.654473066329956,boat,dog,0.45,0638_hp_s05_0.45_dog_10_n02086646_8361.png
subject-05,1,639,0.783033132553101,truck,truck,1.5,0639_hp_s05_1.5_truck_10_n04467665_18234.png
subject-05,1,640,0.713255167007446,clock,keyboard,0.45,0640_hp_s05_0.45_keyboard_10_n03085013_19065.png
subject-05,1,641,0.900955200195312,bicycle,truck,1.5,0641_hp_s05_1.5_truck_10_n04467665_71055.png
subject-05,1,642,0.815587997436523,boat,bear,0.45,0642_hp_s05_0.45_bear_10_n02134084_6518.png
subject-05,1,643,0.668145895004272,cat,cat,1,0643_hp_s05_1_cat_10_n02123159_4396.png
subject-05,1,644,0.510478973388672,clock,clock,1,0644_hp_s05_1_clock_10_n04548280_3999.png
subject-05,1,645,0.600614070892334,cat,cat,inf,0645_hp_s05_inf_cat_10_n02123045_9404.png
subject-05,1,646,0.728971004486084,boat,chair,0.7,0646_hp_s05_0.7_chair_10_n04429376_14519.png
subject-05,1,647,0.695312023162842,bicycle,bicycle,0.7,0647_hp_s05_0.7_bicycle_10_n03792782_1751.png
subject-05,1,648,1.00786900520325,keyboard,keyboard,1,0648_hp_s05_1_keyboard_10_n03085013_21769.png
subject-05,1,649,1.04434084892273,boat,elephant,1.5,0649_hp_s05_1.5_elephant_10_n02504458_568.png
subject-05,1,650,0.796488046646118,keyboard,keyboard,1,0650_hp_s05_1_keyboard_10_n03085013_35084.png
subject-05,1,651,1.05524110794067,car,bicycle,0.45,0651_hp_s05_0.45_bicycle_10_n03792782_19288.png
subject-05,1,652,0.837260007858276,chair,chair,inf,0652_hp_s05_inf_chair_10_n03376595_6865.png
subject-05,1,653,1.04953408241272,oven,oven,0.7,0653_hp_s05_0.7_oven_10_n04111531_1230.png
subject-05,1,654,0.801693916320801,car,truck,1.5,0654_hp_s05_1.5_truck_10_n04467665_46263.png
subject-05,1,655,0.762331008911133,boat,clock,0.4,0655_hp_s05_0.4_clock_10_n04548280_4397.png
subject-05,1,656,0.720694065093994,cat,dog,1,0656_hp_s05_1_dog_10_n02105162_5206.png
subject-05,1,657,0.903311967849731,truck,truck,3,0657_hp_s05_3_truck_10_n03417042_3163.png
subject-05,1,658,0.685971021652222,car,dog,0.45,0658_hp_s05_0.45_dog_10_n02113978_5825.png
subject-05,1,659,0.722396850585938,boat,boat,inf,0659_hp_s05_inf_boat_10_n03344393_7786.png
subject-05,1,660,0.766808032989502,bottle,bottle,3,0660_hp_s05_3_bottle_10_n04560804_4863.png
subject-05,1,661,0.870873928070068,elephant,elephant,3,0661_hp_s05_3_elephant_10_n02504458_1969.png
subject-05,1,662,0.652978897094727,knife,knife,1,0662_hp_s05_1_knife_10_n03041632_22286.png
subject-05,1,663,0.727298974990845,keyboard,keyboard,0.55,0663_hp_s05_0.55_keyboard_10_n03085013_20247.png
subject-05,1,664,0.967387914657593,clock,cat,0.4,0664_hp_s05_0.4_cat_10_n02125311_18185.png
subject-05,1,665,0.733649015426636,bird,bird,1,0665_hp_s05_1_bird_10_n01828970_11546.png
subject-05,1,666,0.862115144729614,clock,clock,inf,0666_hp_s05_inf_clock_10_n03196217_9786.png
subject-05,1,667,0.728374004364014,oven,chair,0.55,0667_hp_s05_0.55_chair_10_n04429376_10247.png
subject-05,1,668,0.672905921936035,oven,boat,0.55,0668_hp_s05_0.55_boat_10_n03662601_8398.png
subject-05,1,669,0.978929042816162,airplane,airplane,0.7,0669_hp_s05_0.7_airplane_10_n02690373_3511.png
subject-05,1,670,0.745398044586182,bicycle,bicycle,0.55,0670_hp_s05_0.55_bicycle_10_n02835271_24131.png
subject-05,1,671,0.857490062713623,car,clock,0.45,0671_hp_s05_0.45_clock_10_n03196217_2462.png
subject-05,1,672,0.739893913269043,car,truck,0.55,0672_hp_s05_0.55_truck_10_n03417042_6662.png
subject-05,1,673,0.892508029937744,bird,bird,inf,0673_hp_s05_inf_bird_10_n01819313_3055.png
subject-05,1,674,0.721097946166992,knife,knife,1.5,0674_hp_s05_1.5_knife_10_n03041632_3101.png
subject-05,1,675,0.803339004516602,boat,bird,0.4,0675_hp_s05_0.4_bird_10_n01860187_1003.png
subject-05,1,676,1.34614706039429,bottle,car,0.55,0676_hp_s05_0.55_car_10_n03100240_5356.png
subject-05,1,677,0.868419885635376,car,car,1,0677_hp_s05_1_car_10_n02814533_25129.png
subject-05,1,678,0.90465784072876,cat,clock,0.55,0678_hp_s05_0.55_clock_10_n04548280_5405.png
subject-05,1,679,0.908349990844727,chair,chair,inf,0679_hp_s05_inf_chair_10_n02791124_2597.png
subject-05,1,680,0.845267057418823,cat,cat,1,0680_hp_s05_1_cat_10_n02123159_4442.png
subject-05,1,681,1.05762100219727,car,oven,0.4,0681_hp_s05_0.4_oven_10_n04111531_11079.png
subject-05,1,682,NaN,na,truck,0.7,0682_hp_s05_0.7_truck_10_n04467665_1054.png
subject-05,1,683,NaN,na,bottle,3,0683_hp_s05_3_bottle_10_n04557648_8985.png
subject-05,1,684,NaN,na,bird,0.45,0684_hp_s05_0.45_bird_10_n01829413_5670.png
subject-05,1,685,1.50025391578674,dog,dog,3,0685_hp_s05_3_dog_10_n02105855_13888.png
subject-05,1,686,0.826284170150757,truck,truck,1,0686_hp_s05_1_truck_10_n04467665_41076.png
subject-05,1,687,0.822465181350708,car,keyboard,0.7,0687_hp_s05_0.7_keyboard_10_n03085013_2143.png
subject-05,1,688,0.828779935836792,cat,cat,0.7,0688_hp_s05_0.7_cat_10_n02123597_1645.png
subject-05,1,689,0.735413074493408,boat,airplane,0.4,0689_hp_s05_0.4_airplane_10_n02690373_17764.png
subject-05,1,690,0.785853147506714,bird,cat,0.45,0690_hp_s05_0.45_cat_10_n02123159_3850.png
subject-05,1,691,1.16587996482849,bird,cat,0.4,0691_hp_s05_0.4_cat_10_n02123159_3164.png
subject-05,1,692,0.712064981460571,bicycle,bicycle,1,0692_hp_s05_1_bicycle_10_n02835271_11995.png
subject-05,1,693,0.892781019210815,clock,clock,0.55,0693_hp_s05_0.55_clock_10_n04548280_5525.png
subject-05,1,694,0.812440872192383,boat,airplane,0.55,0694_hp_s05_0.55_airplane_10_n02690373_2882.png
subject-05,1,695,0.735208034515381,bottle,bottle,1,0695_hp_s05_1_bottle_10_n02823428_10417.png
subject-05,1,696,1.13092589378357,airplane,keyboard,0.4,0696_hp_s05_0.4_keyboard_10_n03085013_22585.png
subject-05,1,697,1.04356098175049,car,boat,1,0697_hp_s05_1_boat_10_n02951358_20379.png
subject-05,1,698,1.00430703163147,oven,bicycle,0.4,0698_hp_s05_0.4_bicycle_10_n03792782_1831.png
subject-05,1,699,1.30043315887451,bicycle,bicycle,0.55,0699_hp_s05_0.55_bicycle_10_n02835271_7355.png
subject-05,1,700,0.977092981338501,clock,clock,3,0700_hp_s05_3_clock_10_n02708093_151.png
subject-05,1,701,0.973333120346069,car,elephant,0.4,0701_hp_s05_0.4_elephant_10_n02504013_6097.png
subject-05,1,702,1.36158800125122,cat,cat,3,0702_hp_s05_3_cat_10_n02125311_17266.png
subject-05,1,703,1.38169097900391,elephant,elephant,1,0703_hp_s05_1_elephant_10_n02504013_156.png
subject-05,1,704,1.10006713867188,oven,dog,1,0704_hp_s05_1_dog_10_n02093859_1166.png
subject-05,1,705,1.2965681552887,boat,bottle,3,0705_hp_s05_3_bottle_10_n03937543_64.png
subject-05,1,706,0.873167037963867,car,car,3,0706_hp_s05_3_car_10_n02814533_13601.png
subject-05,1,707,1.07141399383545,bird,bottle,0.45,0707_hp_s05_0.45_bottle_10_n04591713_4270.png
subject-05,1,708,1.22172498703003,keyboard,keyboard,inf,0708_hp_s05_inf_keyboard_10_n04505470_2518.png
subject-05,1,709,1.02004098892212,bear,bear,1.5,0709_hp_s05_1.5_bear_10_n02132136_3090.png
subject-05,1,710,1.16188216209412,car,car,1.5,0710_hp_s05_1.5_car_10_n03100240_2425.png
subject-05,1,711,1.12214112281799,car,knife,0.55,0711_hp_s05_0.55_knife_10_n03041632_95293.png
subject-05,1,712,1.11868906021118,cat,keyboard,1.5,0712_hp_s05_1.5_keyboard_10_n03085013_22217.png
subject-05,1,713,0.963162183761597,bird,bird,1.5,0713_hp_s05_1.5_bird_10_n02013706_2490.png
subject-05,1,714,1.30743002891541,car,boat,0.45,0714_hp_s05_0.45_boat_10_n04612504_2167.png
subject-05,1,715,NaN,na,knife,0.7,0715_hp_s05_0.7_knife_10_n03041632_32896.png
subject-05,1,716,0.774070978164673,clock,keyboard,0.4,0716_hp_s05_0.4_keyboard_10_n03085013_23439.png
subject-05,1,717,1.00059604644775,elephant,elephant,0.7,0717_hp_s05_0.7_elephant_10_n02504013_5734.png
subject-05,1,718,0.585082054138184,boat,boat,0.55,0718_hp_s05_0.55_boat_10_n03344393_8787.png
subject-05,1,719,0.689128875732422,boat,boat,1,0719_hp_s05_1_boat_10_n04612504_454.png
subject-05,1,720,0.987797021865845,boat,bird,0.55,0720_hp_s05_0.55_bird_10_n01860187_257.png
subject-05,1,721,1.09193706512451,keyboard,chair,3,0721_hp_s05_3_chair_10_n04429376_24679.png
subject-05,1,722,1.03624606132507,truck,cat,0.55,0722_hp_s05_0.55_cat_10_n02123045_2896.png
subject-05,1,723,0.964617013931274,bird,bird,inf,0723_hp_s05_inf_bird_10_n02009229_9470.png
subject-05,1,724,0.767536163330078,airplane,airplane,0.55,0724_hp_s05_0.55_airplane_10_n02690373_462.png
subject-05,1,725,1.02600193023682,dog,dog,1,0725_hp_s05_1_dog_10_n02107312_5290.png
subject-05,1,726,1.05467510223389,boat,airplane,0.45,0726_hp_s05_0.45_airplane_10_n02690373_10657.png
subject-05,1,727,0.906674861907959,clock,keyboard,0.4,0727_hp_s05_0.4_keyboard_10_n03085013_2190.png
subject-05,1,728,0.918763875961304,dog,dog,3,0728_hp_s05_3_dog_10_n02105162_2029.png
subject-05,1,729,0.955142974853516,car,clock,0.7,0729_hp_s05_0.7_clock_10_n04548280_12615.png
subject-05,1,730,0.99968409538269,boat,chair,0.4,0730_hp_s05_0.4_chair_10_n03376595_1731.png
subject-05,1,731,0.798187971115112,keyboard,keyboard,3,0731_hp_s05_3_keyboard_10_n03085013_23519.png
subject-05,1,732,0.618566036224365,boat,cat,0.4,0732_hp_s05_0.4_cat_10_n02123045_7780.png
subject-05,1,733,0.907135963439941,dog,dog,1.5,0733_hp_s05_1.5_dog_10_n02111277_47839.png
subject-05,1,734,0.737170934677124,keyboard,keyboard,inf,0734_hp_s05_inf_keyboard_10_n04505470_3824.png
subject-05,1,735,0.603162050247192,car,oven,1.5,0735_hp_s05_1.5_oven_10_n04111531_537.png
subject-05,1,736,0.69377613067627,cat,cat,1.5,0736_hp_s05_1.5_cat_10_n02123597_7946.png
subject-05,1,737,0.798288106918335,keyboard,airplane,0.7,0737_hp_s05_0.7_airplane_10_n02690373_5624.png
subject-05,1,738,0.826946020126343,car,dog,0.55,0738_hp_s05_0.55_dog_10_n02099712_2527.png
subject-05,1,739,0.801393032073975,bird,bird,0.7,0739_hp_s05_0.7_bird_10_n01560419_3954.png
subject-05,1,740,1.12166213989258,car,oven,0.55,0740_hp_s05_0.55_oven_10_n04111531_9910.png
subject-05,1,741,NaN,na,truck,inf,0741_hp_s05_inf_truck_10_n03796401_5729.png
subject-05,1,742,1.50013899803162,oven,boat,0.45,0742_hp_s05_0.45_boat_10_n04273569_21577.png
subject-05,1,743,1.14542293548584,car,car,0.7,0743_hp_s05_0.7_car_10_n02814533_6626.png
subject-05,1,744,0.865383863449097,clock,clock,3,0744_hp_s05_3_clock_10_n04548280_8717.png
subject-05,1,745,1.15572786331177,boat,dog,0.45,0745_hp_s05_0.45_dog_10_n02109525_30692.png
subject-05,1,746,1.46788120269775,elephant,bear,1.5,0746_hp_s05_1.5_bear_10_n02134418_832.png
subject-05,1,747,0.833590984344482,boat,dog,0.45,0747_hp_s05_0.45_dog_10_n02089867_4028.png
subject-05,1,748,1.09186291694641,keyboard,clock,3,0748_hp_s05_3_clock_10_n03196217_4232.png
subject-05,1,749,1.25789213180542,boat,dog,0.4,0749_hp_s05_0.4_dog_10_n02105162_6459.png
subject-05,1,750,1.4103798866272,boat,airplane,3,0750_hp_s05_3_airplane_10_n02690373_10006.png
subject-05,1,751,1.16255187988281,clock,dog,0.55,0751_hp_s05_0.55_dog_10_n02093754_339.png
subject-05,1,752,0.753424167633057,cat,cat,1,0752_hp_s05_1_cat_10_n02123159_495.png
subject-05,1,753,1.08741307258606,bear,bear,3,0753_hp_s05_3_bear_10_n02134084_5888.png
subject-05,1,754,1.05580401420593,oven,keyboard,1,0754_hp_s05_1_keyboard_10_n04505470_6051.png
subject-05,1,755,1.23595809936523,boat,knife,0.55,0755_hp_s05_0.55_knife_10_n03041632_13225.png
subject-05,1,756,0.733988046646118,keyboard,keyboard,0.7,0756_hp_s05_0.7_keyboard_10_n04505470_2909.png
subject-05,1,757,1.25431299209595,car,truck,1,0757_hp_s05_1_truck_10_n03796401_10208.png
subject-05,1,758,0.584820985794067,chair,chair,3,0758_hp_s05_3_chair_10_n04099969_4662.png
subject-05,1,759,0.734918117523193,car,car,1,0759_hp_s05_1_car_10_n02814533_52045.png
subject-05,1,760,0.839225053787231,boat,boat,3,0760_hp_s05_3_boat_10_n02951358_16055.png
subject-05,1,761,0.845345020294189,clock,clock,1,0761_hp_s05_1_clock_10_n02708093_4267.png
subject-05,1,762,0.643632173538208,boat,bottle,0.55,0762_hp_s05_0.55_bottle_10_n04560804_7638.png
subject-05,1,763,0.732642889022827,boat,chair,0.55,0763_hp_s05_0.55_chair_10_n02791124_472.png
subject-05,1,764,1.02233719825745,bird,bird,3,0764_hp_s05_3_bird_10_n01616318_3724.png
subject-05,1,765,0.904469966888428,bear,bear,inf,0765_hp_s05_inf_bear_10_n02133161_5712.png
subject-05,1,766,1.06334400177002,bird,bird,1.5,0766_hp_s05_1.5_bird_10_n01616318_13099.png
subject-05,1,767,1.25340509414673,clock,boat,1.5,0767_hp_s05_1.5_boat_10_n03344393_4916.png
subject-05,1,768,1.4262900352478,oven,bird,0.7,0768_hp_s05_0.7_bird_10_n01860187_952.png
subject-05,1,769,NaN,na,elephant,0.45,0769_hp_s05_0.45_elephant_10_n02504458_7369.png
subject-05,1,770,0.830834865570068,boat,boat,inf,0770_hp_s05_inf_boat_10_n04273569_22495.png
subject-05,1,771,0.935672998428345,boat,dog,0.7,0771_hp_s05_0.7_dog_10_n02104029_7440.png
subject-05,1,772,0.94766902923584,bicycle,bear,0.4,0772_hp_s05_0.4_bear_10_n02134084_10316.png
subject-05,1,773,1.11784482002258,bear,knife,1,0773_hp_s05_1_knife_10_n03041632_37618.png
subject-05,1,774,1.04634690284729,truck,truck,inf,0774_hp_s05_inf_truck_10_n04467665_1275.png
subject-05,1,775,0.858850955963135,bear,elephant,0.55,0775_hp_s05_0.55_elephant_10_n02504458_2862.png
subject-05,1,776,1.39472103118896,car,clock,0.4,0776_hp_s05_0.4_clock_10_n02708093_2530.png
subject-05,1,777,1.49906611442566,oven,bottle,1.5,0777_hp_s05_1.5_bottle_10_n04591713_7091.png
subject-05,1,778,1.05159997940063,boat,bottle,0.4,0778_hp_s05_0.4_bottle_10_n03983396_12232.png
subject-05,1,779,0.772176027297974,cat,bottle,0.7,0779_hp_s05_0.7_bottle_10_n03937543_3373.png
subject-05,1,780,1.10857510566711,knife,bear,0.4,0780_hp_s05_0.4_bear_10_n02132136_2235.png
subject-05,1,781,0.899151086807251,bicycle,bicycle,0.7,0781_hp_s05_0.7_bicycle_10_n02835271_696.png
subject-05,1,782,0.865429162979126,car,cat,0.7,0782_hp_s05_0.7_cat_10_n02125311_31231.png
subject-05,1,783,0.856003046035767,truck,truck,0.7,0783_hp_s05_0.7_truck_10_n03796401_17723.png
subject-05,1,784,1.36653208732605,dog,dog,3,0784_hp_s05_3_dog_10_n02112350_3654.png
subject-05,1,785,1.0351448059082,cat,cat,0.4,0785_hp_s05_0.4_cat_10_n02125311_5985.png
subject-05,1,786,0.787500143051147,boat,truck,0.4,0786_hp_s05_0.4_truck_10_n04467665_22358.png
subject-05,1,787,1.13789701461792,car,bottle,3,0787_hp_s05_3_bottle_10_n04591713_3879.png
subject-05,1,788,0.76673412322998,dog,dog,inf,0788_hp_s05_inf_dog_10_n02095314_5899.png
subject-05,1,789,1.27058100700378,knife,bottle,0.4,0789_hp_s05_0.4_bottle_10_n04557648_16525.png
subject-05,1,790,1.19896721839905,boat,boat,3,0790_hp_s05_3_boat_10_n03662601_25492.png
subject-05,1,791,1.20355701446533,bird,airplane,0.55,0791_hp_s05_0.55_airplane_10_n02690373_4412.png
subject-05,1,792,1.20736503601074,boat,car,0.55,0792_hp_s05_0.55_car_10_n03100240_22882.png
subject-05,1,793,1.02595996856689,oven,knife,0.4,0793_hp_s05_0.4_knife_10_n03041632_24181.png
subject-05,1,794,0.946550846099854,boat,boat,3,0794_hp_s05_3_boat_10_n03344393_456.png
subject-05,1,795,1.25882816314697,boat,dog,0.7,0795_hp_s05_0.7_dog_10_n02097474_14230.png
subject-05,1,796,0.979465961456299,airplane,boat,0.4,0796_hp_s05_0.4_boat_10_n04273569_4330.png
subject-05,1,797,0.794105052947998,chair,chair,inf,0797_hp_s05_inf_chair_10_n04099969_34351.png
subject-05,1,798,1.00634503364563,truck,oven,0.4,0798_hp_s05_0.4_oven_10_n04111531_19157.png
subject-05,1,799,0.926705121994019,bottle,bottle,inf,0799_hp_s05_inf_bottle_10_n03937543_2083.png
subject-05,1,800,0.700958013534546,bicycle,bicycle,1.5,0800_hp_s05_1.5_bicycle_10_n03792782_9651.png
subject-05,1,801,1.03296279907227,boat,oven,0.45,0801_hp_s05_0.45_oven_10_n04111531_15052.png
subject-05,1,802,1.15372204780579,boat,bird,0.45,0802_hp_s05_0.45_bird_10_n01829413_1960.png
subject-05,1,803,0.912076950073242,truck,truck,0.7,0803_hp_s05_0.7_truck_10_n04467665_3433.png
subject-05,1,804,0.772276878356934,elephant,elephant,1,0804_hp_s05_1_elephant_10_n02504458_2109.png
subject-05,1,805,1.12284398078918,clock,chair,1,0805_hp_s05_1_chair_10_n04429376_11771.png
subject-05,1,806,0.889046907424927,elephant,elephant,1,0806_hp_s05_1_elephant_10_n02504458_6644.png
subject-05,1,807,0.9114089012146,knife,knife,0.7,0807_hp_s05_0.7_knife_10_n03041632_48149.png
subject-05,1,808,0.937343120574951,oven,chair,0.55,0808_hp_s05_0.55_chair_10_n04429376_16378.png
subject-05,1,809,0.585024833679199,car,car,inf,0809_hp_s05_inf_car_10_n02814533_3528.png
subject-05,1,810,0.781179904937744,keyboard,keyboard,1.5,0810_hp_s05_1.5_keyboard_10_n03085013_28741.png
subject-05,1,811,1.50029182434082,elephant,elephant,0.7,0811_hp_s05_0.7_elephant_10_n02504013_4438.png
subject-05,1,812,1.08417296409607,cat,clock,0.7,0812_hp_s05_0.7_clock_10_n03196217_1376.png
subject-05,1,813,0.882633924484253,bear,bear,0.7,0813_hp_s05_0.7_bear_10_n02133161_15769.png
subject-05,1,814,1.07158207893372,oven,keyboard,0.45,0814_hp_s05_0.45_keyboard_10_n03085013_24464.png
subject-05,1,815,0.63188910484314,clock,clock,3,0815_hp_s05_3_clock_10_n04548280_22842.png
subject-05,1,816,0.768564939498901,boat,bird,0.45,0816_hp_s05_0.45_bird_10_n01514859_12573.png
subject-05,1,817,0.54615306854248,boat,bird,0.4,0817_hp_s05_0.4_bird_10_n01616318_21353.png
subject-05,1,818,0.966662883758545,cat,cat,1,0818_hp_s05_1_cat_10_n02124075_10088.png
subject-05,1,819,0.732787132263184,boat,clock,0.4,0819_hp_s05_0.4_clock_10_n03196217_10384.png
subject-05,1,820,0.953380107879639,elephant,elephant,1.5,0820_hp_s05_1.5_elephant_10_n02504013_5027.png
subject-05,1,821,1.1578381061554,boat,chair,1.5,0821_hp_s05_1.5_chair_10_n03376595_8915.png
subject-05,1,822,1.04844403266907,boat,cat,0.4,0822_hp_s05_0.4_cat_10_n02125311_3742.png
subject-05,1,823,1.17679619789124,keyboard,bottle,3,0823_hp_s05_3_bottle_10_n04591713_2549.png
subject-05,1,824,0.843477964401245,bottle,bottle,inf,0824_hp_s05_inf_bottle_10_n03937543_4810.png
subject-05,1,825,0.909242153167725,oven,oven,3,0825_hp_s05_3_oven_10_n04111531_30110.png
subject-05,1,826,1.50000691413879,clock,boat,3,0826_hp_s05_3_boat_10_n03344393_6661.png
subject-05,1,827,0.957883834838867,boat,bicycle,0.55,0827_hp_s05_0.55_bicycle_10_n03792782_18496.png
subject-05,1,828,0.840057134628296,elephant,elephant,1.5,0828_hp_s05_1.5_elephant_10_n02504458_3283.png
subject-05,1,829,0.852423906326294,truck,truck,3,0829_hp_s05_3_truck_10_n03417042_5670.png
subject-05,1,830,1.38891005516052,airplane,clock,0.45,0830_hp_s05_0.45_clock_10_n03196217_9176.png
subject-05,1,831,1.43949103355408,dog,cat,3,0831_hp_s05_3_cat_10_n02123597_10648.png
subject-05,1,832,0.867460012435913,bottle,bottle,inf,0832_hp_s05_inf_bottle_10_n03983396_10714.png
subject-05,1,833,0.720202922821045,boat,elephant,0.55,0833_hp_s05_0.55_elephant_10_n02504013_6793.png
subject-05,1,834,0.894041061401367,car,car,1,0834_hp_s05_1_car_10_n02814533_6498.png
subject-05,1,835,0.84450101852417,bicycle,bicycle,1.5,0835_hp_s05_1.5_bicycle_10_n03792782_7913.png
subject-05,1,836,0.742705106735229,boat,truck,0.55,0836_hp_s05_0.55_truck_10_n03417042_28552.png
subject-05,1,837,0.859754085540771,dog,dog,inf,0837_hp_s05_inf_dog_10_n02108000_1445.png
subject-05,1,838,1.20138216018677,dog,dog,3,0838_hp_s05_3_dog_10_n02094114_8115.png
subject-05,1,839,1.5002429485321,boat,elephant,0.45,0839_hp_s05_0.45_elephant_10_n02504013_6148.png
subject-05,1,840,0.849868059158325,cat,cat,inf,0840_hp_s05_inf_cat_10_n02124075_12170.png
subject-05,1,841,0.71003794670105,chair,chair,inf,0841_hp_s05_inf_chair_10_n04099969_19736.png
subject-05,1,842,1.08471989631653,oven,oven,1.5,0842_hp_s05_1.5_oven_10_n04111531_1298.png
subject-05,1,843,0.674619197845459,chair,chair,1,0843_hp_s05_1_chair_10_n03376595_9610.png
subject-05,1,844,1.10865902900696,keyboard,bottle,0.55,0844_hp_s05_0.55_bottle_10_n04591713_7573.png
subject-05,1,845,1.36724305152893,car,bird,0.4,0845_hp_s05_0.4_bird_10_n01833805_4784.png
subject-05,1,846,0.865823984146118,chair,oven,0.7,0846_hp_s05_0.7_oven_10_n04111531_6094.png
subject-05,1,847,0.961489915847778,car,cat,0.45,0847_hp_s05_0.45_cat_10_n02125311_58017.png
subject-05,1,848,0.835928916931152,bicycle,bicycle,1,0848_hp_s05_1_bicycle_10_n03792782_7518.png
subject-05,1,849,0.772361040115356,keyboard,keyboard,0.55,0849_hp_s05_0.55_keyboard_10_n03085013_24591.png
subject-05,1,850,0.746773958206177,knife,knife,1.5,0850_hp_s05_1.5_knife_10_n03041632_992.png
subject-05,1,851,1.21353697776794,boat,boat,0.7,0851_hp_s05_0.7_boat_10_n04612504_13515.png
subject-05,1,852,0.917811870574951,cat,oven,3,0852_hp_s05_3_oven_10_n04111531_4227.png
subject-05,1,853,0.678383827209473,chair,chair,1.5,0853_hp_s05_1.5_chair_10_n04099969_18182.png
subject-05,1,854,0.798640012741089,bottle,bottle,0.7,0854_hp_s05_0.7_bottle_10_n03937543_1812.png
subject-05,1,855,0.856863021850586,cat,cat,inf,0855_hp_s05_inf_cat_10_n02123597_8505.png
subject-05,1,856,1.30682587623596,airplane,bicycle,0.7,0856_hp_s05_0.7_bicycle_10_n03792782_1222.png
subject-05,1,857,0.997510194778442,elephant,elephant,inf,0857_hp_s05_inf_elephant_10_n02504013_1254.png
subject-05,1,858,0.844220876693726,boat,bicycle,0.45,0858_hp_s05_0.45_bicycle_10_n02835271_10556.png
subject-05,1,859,0.650933980941772,boat,boat,0.45,0859_hp_s05_0.45_boat_10_n04612504_10878.png
subject-05,1,860,1.49277210235596,knife,knife,inf,0860_hp_s05_inf_knife_10_n03041632_24817.png
subject-05,1,861,0.753119945526123,oven,chair,1.5,0861_hp_s05_1.5_chair_10_n03376595_18148.png
subject-05,1,862,1.24106311798096,bottle,knife,1,0862_hp_s05_1_knife_10_n03041632_29343.png
subject-05,1,863,0.745962858200073,boat,airplane,0.7,0863_hp_s05_0.7_airplane_10_n02690373_6031.png
subject-05,1,864,0.768311023712158,chair,chair,inf,0864_hp_s05_inf_chair_10_n04099969_6781.png
subject-05,1,865,0.702633857727051,elephant,elephant,3,0865_hp_s05_3_elephant_10_n02504458_5982.png
subject-05,1,866,0.954951047897339,bicycle,bicycle,0.55,0866_hp_s05_0.55_bicycle_10_n03792782_14531.png
subject-05,1,867,0.975404977798462,elephant,elephant,1.5,0867_hp_s05_1.5_elephant_10_n02504013_6413.png
subject-05,1,868,0.742189884185791,boat,bottle,0.55,0868_hp_s05_0.55_bottle_10_n04560804_6456.png
subject-05,1,869,0.832663059234619,bottle,bottle,1.5,0869_hp_s05_1.5_bottle_10_n03983396_2339.png
subject-05,1,870,0.823122978210449,knife,knife,1.5,0870_hp_s05_1.5_knife_10_n03041632_96345.png
subject-05,1,871,0.789600133895874,boat,bear,0.7,0871_hp_s05_0.7_bear_10_n02134084_8216.png
subject-05,1,872,0.64220404624939,boat,bottle,0.4,0872_hp_s05_0.4_bottle_10_n04560804_15176.png
subject-05,1,873,0.746558904647827,car,car,1,0873_hp_s05_1_car_10_n03100240_21334.png
subject-05,1,874,1.23520112037659,knife,knife,0.7,0874_hp_s05_0.7_knife_10_n03041632_33424.png
subject-05,1,875,0.79325008392334,cat,cat,3,0875_hp_s05_3_cat_10_n02123394_8592.png
subject-05,1,876,0.575281858444214,boat,dog,0.55,0876_hp_s05_0.55_dog_10_n02094258_1595.png
subject-05,1,877,1.07972502708435,oven,bird,1,0877_hp_s05_1_bird_10_n01829413_5804.png
subject-05,1,878,0.919372081756592,boat,bear,0.4,0878_hp_s05_0.4_bear_10_n02132136_10309.png
subject-05,1,879,0.961627960205078,boat,airplane,0.45,0879_hp_s05_0.45_airplane_10_n02690373_464.png
subject-05,1,880,1.18223309516907,cat,bicycle,0.55,0880_hp_s05_0.55_bicycle_10_n03792782_5284.png
subject-05,1,881,0.702178001403809,bird,bird,0.55,0881_hp_s05_0.55_bird_10_n02051845_3974.png
subject-05,1,882,0.684557199478149,cat,cat,0.7,0882_hp_s05_0.7_cat_10_n02123394_7310.png
subject-05,1,883,0.820794820785522,keyboard,keyboard,1,0883_hp_s05_1_keyboard_10_n04505470_84.png
subject-05,1,884,0.648994922637939,clock,clock,0.7,0884_hp_s05_0.7_clock_10_n03196217_4821.png
subject-05,1,885,0.853669166564941,bicycle,bicycle,1,0885_hp_s05_1_bicycle_10_n03792782_1030.png
subject-05,1,886,0.996056079864502,boat,knife,0.4,0886_hp_s05_0.4_knife_10_n03041632_2546.png
subject-05,1,887,1.50034117698669,cat,elephant,inf,0887_hp_s05_inf_elephant_10_n02504013_6465.png
subject-05,1,888,0.884737014770508,bicycle,bicycle,0.7,0888_hp_s05_0.7_bicycle_10_n03792782_25191.png
subject-05,1,889,0.813552856445312,boat,boat,0.4,0889_hp_s05_0.4_boat_10_n04612504_29275.png
subject-05,1,890,0.717607975006104,bird,bird,1.5,0890_hp_s05_1.5_bird_10_n01843383_8650.png
subject-05,1,891,1.2438759803772,boat,bird,3,0891_hp_s05_3_bird_10_n01829413_1826.png
subject-05,1,892,0.720123052597046,boat,boat,1,0892_hp_s05_1_boat_10_n03662601_15223.png
subject-05,1,893,1.38434600830078,knife,dog,3,0893_hp_s05_3_dog_10_n02106382_6936.png
subject-05,1,894,0.636664867401123,boat,car,0.55,0894_hp_s05_0.55_car_10_n04285008_5013.png
subject-05,1,895,0.841196060180664,boat,bear,3,0895_hp_s05_3_bear_10_n02133161_185.png
subject-05,1,896,1.50032091140747,car,knife,0.45,0896_hp_s05_0.45_knife_10_n03041632_15444.png
subject-05,1,897,0.989744186401367,keyboard,keyboard,inf,0897_hp_s05_inf_keyboard_10_n03085013_914.png
subject-05,1,898,0.71898889541626,boat,bear,0.45,0898_hp_s05_0.45_bear_10_n02134084_218.png
subject-05,1,899,1.00978899002075,boat,airplane,1,0899_hp_s05_1_airplane_10_n02690373_4225.png
subject-05,1,900,0.876112937927246,airplane,airplane,3,0900_hp_s05_3_airplane_10_n02690373_3435.png
subject-05,1,901,0.834703922271729,bicycle,boat,1,0901_hp_s05_1_boat_10_n02951358_31517.png
subject-05,1,902,0.800582885742188,bicycle,bicycle,3,0902_hp_s05_3_bicycle_10_n02835271_14383.png
subject-05,1,903,1.25135707855225,bird,chair,0.55,0903_hp_s05_0.55_chair_10_n04429376_17185.png
subject-05,1,904,0.79551100730896,boat,truck,0.55,0904_hp_s05_0.55_truck_10_n03417042_27113.png
subject-05,1,905,0.677925109863281,cat,cat,inf,0905_hp_s05_inf_cat_10_n02123159_3560.png
subject-05,1,906,1.42046499252319,car,car,0.55,0906_hp_s05_0.55_car_10_n02814533_51485.png
subject-05,1,907,1.19469809532166,car,truck,0.55,0907_hp_s05_0.55_truck_10_n04467665_41421.png
subject-05,1,908,1.34556078910828,truck,truck,0.7,0908_hp_s05_0.7_truck_10_n03417042_6493.png
subject-05,1,909,1.12790679931641,boat,chair,0.45,0909_hp_s05_0.45_chair_10_n02791124_2515.png
subject-05,1,910,1.11032605171204,knife,chair,inf,0910_hp_s05_inf_chair_10_n02791124_291.png
subject-05,1,911,0.898589134216309,dog,bear,1,0911_hp_s05_1_bear_10_n02134418_4513.png
subject-05,1,912,0.834777116775513,car,oven,3,0912_hp_s05_3_oven_10_n04111531_1855.png
subject-05,1,913,1.02303194999695,cat,cat,1,0913_hp_s05_1_cat_10_n02123045_5775.png
subject-05,1,914,1.35740280151367,dog,clock,0.4,0914_hp_s05_0.4_clock_10_n04548280_9340.png
subject-05,1,915,1.10951399803162,bird,bird,0.7,0915_hp_s05_0.7_bird_10_n02025239_10853.png
subject-05,1,916,0.58381199836731,cat,cat,3,0916_hp_s05_3_cat_10_n02123159_4621.png
subject-05,1,917,1.11803603172302,boat,chair,0.45,0917_hp_s05_0.45_chair_10_n04429376_27637.png
subject-05,1,918,0.733808994293213,oven,oven,1.5,0918_hp_s05_1.5_oven_10_n04111531_4785.png
subject-05,1,919,0.837918996810913,airplane,airplane,1.5,0919_hp_s05_1.5_airplane_10_n02690373_4706.png
subject-05,1,920,0.882699012756348,boat,boat,0.4,0920_hp_s05_0.4_boat_10_n03662601_10262.png
subject-05,1,921,0.618748903274536,clock,clock,3,0921_hp_s05_3_clock_10_n04548280_1112.png
subject-05,1,922,0.977190017700195,dog,dog,1.5,0922_hp_s05_1.5_dog_10_n02105855_17357.png
subject-05,1,923,0.965591907501221,boat,keyboard,0.4,0923_hp_s05_0.4_keyboard_10_n04505470_2056.png
subject-05,1,924,0.956408977508545,bird,bird,1.5,0924_hp_s05_1.5_bird_10_n01817953_9621.png
subject-05,1,925,0.936890840530396,boat,oven,0.55,0925_hp_s05_0.55_oven_10_n04111531_15367.png
subject-05,1,926,0.905663967132568,chair,chair,1,0926_hp_s05_1_chair_10_n03376595_2398.png
subject-05,1,927,0.796191930770874,knife,knife,3,0927_hp_s05_3_knife_10_n03041632_39840.png
subject-05,1,928,1.12254905700684,bear,elephant,1,0928_hp_s05_1_elephant_10_n02504013_6303.png
subject-05,1,929,0.604542970657349,boat,knife,0.4,0929_hp_s05_0.4_knife_10_n03041632_22214.png
subject-05,1,930,1.29877305030823,bird,bird,1.5,0930_hp_s05_1.5_bird_10_n02013706_1563.png
subject-05,1,931,0.545018911361694,clock,clock,inf,0931_hp_s05_inf_clock_10_n03196217_11320.png
subject-05,1,932,0.679194927215576,boat,keyboard,0.4,0932_hp_s05_0.4_keyboard_10_n04505470_2421.png
subject-05,1,933,1.01567411422729,elephant,elephant,3,0933_hp_s05_3_elephant_10_n02504013_174.png
subject-05,1,934,0.573943138122559,boat,boat,3,0934_hp_s05_3_boat_10_n03662601_2439.png
subject-05,1,935,1.27862501144409,airplane,airplane,0.55,0935_hp_s05_0.55_airplane_10_n02690373_6798.png
subject-05,1,936,0.552551031112671,oven,oven,3,0936_hp_s05_3_oven_10_n04111531_14488.png
subject-05,1,937,0.613237142562866,boat,oven,0.4,0937_hp_s05_0.4_oven_10_n04111531_9939.png
subject-05,1,938,0.879832029342651,bird,bird,1.5,0938_hp_s05_1.5_bird_10_n02002556_15649.png
subject-05,1,939,0.624433994293213,boat,bear,0.4,0939_hp_s05_0.4_bear_10_n02132136_19995.png
subject-05,1,940,0.720242023468018,boat,knife,0.4,0940_hp_s05_0.4_knife_10_n03041632_51339.png
subject-05,1,941,0.708636999130249,keyboard,knife,3,0941_hp_s05_3_knife_10_n03041632_30565.png
subject-05,1,942,0.829341173171997,bird,knife,1,0942_hp_s05_1_knife_10_n03041632_14801.png
subject-05,1,943,0.786713123321533,elephant,elephant,3,0943_hp_s05_3_elephant_10_n02504013_4560.png
subject-05,1,944,0.79889702796936,keyboard,keyboard,0.7,0944_hp_s05_0.7_keyboard_10_n04505470_1581.png
subject-05,1,945,0.819271087646484,airplane,airplane,1,0945_hp_s05_1_airplane_10_n02690373_6854.png
subject-05,1,946,0.885276079177856,boat,bottle,0.7,0946_hp_s05_0.7_bottle_10_n04579145_5818.png
subject-05,1,947,0.755939960479736,bird,bird,1,0947_hp_s05_1_bird_10_n01855032_3381.png
subject-05,1,948,0.716056823730469,boat,boat,inf,0948_hp_s05_inf_boat_10_n02951358_33817.png
subject-05,1,949,NaN,na,car,1.5,0949_hp_s05_1.5_car_10_n04285008_473.png
subject-05,1,950,0.794919013977051,boat,clock,0.45,0950_hp_s05_0.45_clock_10_n02708093_2857.png
subject-05,1,951,0.692935943603516,clock,clock,1.5,0951_hp_s05_1.5_clock_10_n03196217_5347.png
subject-05,1,952,0.935636043548584,boat,dog,0.55,0952_hp_s05_0.55_dog_10_n02087046_19686.png
subject-05,1,953,1.39398789405823,bird,car,0.4,0953_hp_s05_0.4_car_10_n02814533_82664.png
subject-05,1,954,1.04426503181458,boat,airplane,0.4,0954_hp_s05_0.4_airplane_10_n02690373_1442.png
subject-05,1,955,0.796742916107178,boat,dog,0.45,0955_hp_s05_0.45_dog_10_n02110958_2446.png
subject-05,1,956,0.838773965835571,truck,truck,1.5,0956_hp_s05_1.5_truck_10_n03796401_3488.png
subject-05,1,957,0.891286134719849,oven,knife,1,0957_hp_s05_1_knife_10_n03041632_4787.png
subject-05,1,958,0.673589944839478,boat,bicycle,0.4,0958_hp_s05_0.4_bicycle_10_n03792782_3410.png
subject-05,1,959,0.777943134307861,clock,clock,0.7,0959_hp_s05_0.7_clock_10_n04548280_8480.png
subject-05,1,960,1.09027409553528,boat,bottle,0.45,0960_hp_s05_0.45_bottle_10_n04591713_2344.png
subject-05,1,961,0.62183403968811,keyboard,keyboard,0.7,0961_hp_s05_0.7_keyboard_10_n04505470_3937.png
subject-05,1,962,1.27851605415344,clock,oven,0.45,0962_hp_s05_0.45_oven_10_n04111531_12053.png
subject-05,1,963,0.654721021652222,clock,bird,0.4,0963_hp_s05_0.4_bird_10_n02006656_577.png
subject-05,1,964,0.775017023086548,elephant,elephant,1.5,0964_hp_s05_1.5_elephant_10_n02504458_4143.png
subject-05,1,965,0.503432989120483,clock,knife,0.45,0965_hp_s05_0.45_knife_10_n03041632_29276.png
subject-05,1,966,0.539952039718628,clock,truck,0.45,0966_hp_s05_0.45_truck_10_n03796401_28656.png
subject-05,1,967,0.598387956619263,keyboard,keyboard,0.7,0967_hp_s05_0.7_keyboard_10_n03085013_4935.png
subject-05,1,968,0.756916046142578,clock,chair,0.45,0968_hp_s05_0.45_chair_10_n02791124_622.png
subject-05,1,969,1.06939315795898,elephant,truck,1,0969_hp_s05_1_truck_10_n03417042_16370.png
subject-05,1,970,0.768032073974609,elephant,dog,0.7,0970_hp_s05_0.7_dog_10_n02101388_6394.png
subject-05,1,971,0.812268018722534,elephant,car,0.7,0971_hp_s05_0.7_car_10_n03100240_24129.png
subject-05,1,972,0.694727182388306,clock,clock,0.4,0972_hp_s05_0.4_clock_10_n02708093_6657.png
subject-05,1,973,0.97724986076355,keyboard,knife,1,0973_hp_s05_1_knife_10_n03041632_45264.png
subject-05,1,974,0.874091863632202,clock,keyboard,1,0974_hp_s05_1_keyboard_10_n03085013_23418.png
subject-05,1,975,0.680069923400879,clock,boat,0.45,0975_hp_s05_0.45_boat_10_n03344393_5300.png
subject-05,1,976,0.906246900558472,clock,knife,1,0976_hp_s05_1_knife_10_n03041632_14442.png
subject-05,1,977,0.726609945297241,clock,bottle,0.45,0977_hp_s05_0.45_bottle_10_n03983396_3584.png
subject-05,1,978,0.879162073135376,clock,knife,0.55,0978_hp_s05_0.55_knife_10_n03041632_1964.png
subject-05,1,979,0.661792039871216,cat,cat,3,0979_hp_s05_3_cat_10_n02123597_4627.png
subject-05,1,980,1.41796183586121,clock,bird,0.4,0980_hp_s05_0.4_bird_10_n01855672_15182.png
subject-05,1,981,NaN,na,bicycle,0.45,0981_hp_s05_0.45_bicycle_10_n02835271_15344.png
subject-05,1,982,0.752947807312012,bottle,bottle,1,0982_hp_s05_1_bottle_10_n04560804_2288.png
subject-05,1,983,0.880855083465576,keyboard,car,0.7,0983_hp_s05_0.7_car_10_n04285008_885.png
subject-05,1,984,1.07145023345947,keyboard,boat,1.5,0984_hp_s05_1.5_boat_10_n02951358_4819.png
subject-05,1,985,0.775912046432495,boat,boat,0.7,0985_hp_s05_0.7_boat_10_n03662601_8631.png
subject-05,1,986,0.590258121490479,clock,keyboard,0.45,0986_hp_s05_0.45_keyboard_10_n03085013_21447.png
subject-05,1,987,0.925008058547974,knife,knife,3,0987_hp_s05_3_knife_10_n03041632_2184.png
subject-05,1,988,0.747488975524902,clock,bird,0.45,0988_hp_s05_0.45_bird_10_n01833805_8559.png
subject-05,1,989,0.575818061828613,clock,clock,0.45,0989_hp_s05_0.45_clock_10_n04548280_8024.png
subject-05,1,990,1.04255890846252,clock,clock,inf,0990_hp_s05_inf_clock_10_n03196217_4915.png
subject-05,1,991,0.600836992263794,clock,airplane,0.45,0991_hp_s05_0.45_airplane_10_n02690373_5177.png
subject-05,1,992,0.591456890106201,chair,car,1,0992_hp_s05_1_car_10_n02814533_92110.png
subject-05,1,993,0.789969205856323,clock,cat,0.55,0993_hp_s05_0.55_cat_10_n02123597_2299.png
subject-05,1,994,0.618282079696655,clock,bear,0.4,0994_hp_s05_0.4_bear_10_n02134418_1898.png
subject-05,1,995,0.76087498664856,bird,bird,inf,0995_hp_s05_inf_bird_10_n01532829_7402.png
subject-05,1,996,0.834857940673828,bear,bear,inf,0996_hp_s05_inf_bear_10_n02134084_4192.png
subject-05,1,997,1.0152862071991,boat,clock,0.55,0997_hp_s05_0.55_clock_10_n03196217_5120.png
subject-05,1,998,0.64544415473938,keyboard,keyboard,0.7,0998_hp_s05_0.7_keyboard_10_n04505470_1518.png
subject-05,1,999,0.8038330078125,clock,cat,0.4,0999_hp_s05_0.4_cat_10_n02124075_1226.png
subject-05,1,1000,0.732410907745361,elephant,elephant,1.5,1000_hp_s05_1.5_elephant_10_n02504013_6476.png
subject-05,1,1001,0.723275184631348,bicycle,bicycle,inf,1001_hp_s05_inf_bicycle_10_n02835271_7794.png
subject-05,1,1002,0.651365041732788,clock,bear,0.45,1002_hp_s05_0.45_bear_10_n02132136_9690.png
subject-05,1,1003,0.747797966003418,bird,bird,0.55,1003_hp_s05_0.55_bird_10_n01582220_12085.png
subject-05,1,1004,1.21453881263733,chair,chair,3,1004_hp_s05_3_chair_10_n04429376_4296.png
subject-05,1,1005,0.542781114578247,clock,clock,0.7,1005_hp_s05_0.7_clock_10_n02708093_670.png
subject-05,1,1006,0.749116897583008,clock,knife,0.45,1006_hp_s05_0.45_knife_10_n03041632_25479.png
subject-05,1,1007,0.907554864883423,chair,chair,1,1007_hp_s05_1_chair_10_n03376595_10507.png
subject-05,1,1008,0.744155883789062,bicycle,bicycle,1.5,1008_hp_s05_1.5_bicycle_10_n02835271_21672.png
subject-05,1,1009,0.74023699760437,bear,elephant,1,1009_hp_s05_1_elephant_10_n02504013_3232.png
subject-05,1,1010,0.53867506980896,clock,clock,inf,1010_hp_s05_inf_clock_10_n02708093_1119.png
subject-05,1,1011,0.842984914779663,elephant,elephant,inf,1011_hp_s05_inf_elephant_10_n02504013_2545.png
subject-05,1,1012,0.77143406867981,clock,truck,0.45,1012_hp_s05_0.45_truck_10_n03796401_3318.png
subject-05,1,1013,0.537901878356934,oven,oven,1,1013_hp_s05_1_oven_10_n04111531_12468.png
subject-05,1,1014,0.666394948959351,clock,bottle,0.45,1014_hp_s05_0.45_bottle_10_n02823428_9624.png
subject-05,1,1015,1.16252398490906,keyboard,oven,1,1015_hp_s05_1_oven_10_n04111531_1599.png
subject-05,1,1016,0.474931001663208,boat,boat,3,1016_hp_s05_3_boat_10_n03344393_6260.png
subject-05,1,1017,0.572884082794189,clock,bear,0.55,1017_hp_s05_0.55_bear_10_n02134418_2432.png
subject-05,1,1018,0.77729606628418,dog,dog,1.5,1018_hp_s05_1.5_dog_10_n02099601_2257.png
subject-05,1,1019,0.869081020355225,bear,bear,inf,1019_hp_s05_inf_bear_10_n02132136_10324.png
subject-05,1,1020,1.01924300193787,keyboard,oven,inf,1020_hp_s05_inf_oven_10_n04111531_9178.png
subject-05,1,1021,0.463361978530884,clock,clock,3,1021_hp_s05_3_clock_10_n04548280_9965.png
subject-05,1,1022,0.529456853866577,keyboard,chair,1.5,1022_hp_s05_1.5_chair_10_n03376595_6419.png
subject-05,1,1023,0.917948007583618,car,car,3,1023_hp_s05_3_car_10_n02814533_1061.png
subject-05,1,1024,0.624267101287842,clock,oven,0.7,1024_hp_s05_0.7_oven_10_n04111531_17576.png
subject-05,1,1025,0.944841146469116,boat,oven,0.45,1025_hp_s05_0.45_oven_10_n04111531_10420.png
subject-05,1,1026,0.634891033172607,elephant,elephant,1.5,1026_hp_s05_1.5_elephant_10_n02504013_10346.png
subject-05,1,1027,1.00720810890198,cat,oven,1,1027_hp_s05_1_oven_10_n04111531_10446.png
subject-05,1,1028,0.797852993011475,boat,chair,0.55,1028_hp_s05_0.55_chair_10_n02791124_13568.png
subject-05,1,1029,0.834208011627197,clock,bird,0.55,1029_hp_s05_0.55_bird_10_n01537544_8859.png
subject-05,1,1030,0.530147075653076,clock,airplane,0.45,1030_hp_s05_0.45_airplane_10_n02690373_9622.png
subject-05,1,1031,0.78063178062439,dog,bear,0.7,1031_hp_s05_0.7_bear_10_n02134084_3888.png
subject-05,1,1032,0.716450929641724,airplane,airplane,1.5,1032_hp_s05_1.5_airplane_10_n02690373_20090.png
subject-05,1,1033,0.522989988327026,bicycle,bicycle,1.5,1033_hp_s05_1.5_bicycle_10_n03792782_4704.png
subject-05,1,1034,0.664530992507935,keyboard,keyboard,0.55,1034_hp_s05_0.55_keyboard_10_n04505470_2040.png
subject-05,1,1035,0.950216770172119,boat,bear,1,1035_hp_s05_1_bear_10_n02134418_102.png
subject-05,1,1036,0.894487142562866,keyboard,oven,0.7,1036_hp_s05_0.7_oven_10_n04111531_10749.png
subject-05,1,1037,0.938930988311768,clock,oven,0.4,1037_hp_s05_0.4_oven_10_n04111531_9314.png
subject-05,1,1038,0.85164999961853,clock,elephant,0.4,1038_hp_s05_0.4_elephant_10_n02504458_4954.png
subject-05,1,1039,1.28590607643127,cat,knife,1.5,1039_hp_s05_1.5_knife_10_n03041632_3516.png
subject-05,1,1040,0.775999069213867,boat,bear,1,1040_hp_s05_1_bear_10_n02134418_557.png
subject-05,1,1041,0.650260925292969,car,car,1.5,1041_hp_s05_1.5_car_10_n04285008_5247.png
subject-05,1,1042,0.600598812103271,clock,bird,0.45,1042_hp_s05_0.45_bird_10_n01795545_1949.png
subject-05,1,1043,1.42687296867371,truck,truck,1.5,1043_hp_s05_1.5_truck_10_n04467665_66797.png
subject-05,1,1044,0.84874415397644,bottle,bottle,inf,1044_hp_s05_inf_bottle_10_n03983396_3516.png
subject-05,1,1045,1.02104783058167,elephant,dog,3,1045_hp_s05_3_dog_10_n02086079_4422.png
subject-05,1,1046,0.919271945953369,knife,knife,1.5,1046_hp_s05_1.5_knife_10_n03041632_104379.png
subject-05,1,1047,0.579882860183716,chair,chair,inf,1047_hp_s05_inf_chair_10_n04429376_10928.png
subject-05,1,1048,0.686102151870728,bird,bird,inf,1048_hp_s05_inf_bird_10_n01798484_883.png
subject-05,1,1049,0.930438995361328,cat,cat,1.5,1049_hp_s05_1.5_cat_10_n02123597_11037.png
subject-05,1,1050,0.759025812149048,cat,cat,1.5,1050_hp_s05_1.5_cat_10_n02123597_17857.png
subject-05,1,1051,0.82534122467041,clock,bear,0.4,1051_hp_s05_0.4_bear_10_n02134418_4303.png
subject-05,1,1052,0.616132020950317,clock,bicycle,0.55,1052_hp_s05_0.55_bicycle_10_n02835271_12981.png
subject-05,1,1053,0.528438091278076,boat,boat,1.5,1053_hp_s05_1.5_boat_10_n03344393_14288.png
subject-05,1,1054,0.770591020584106,knife,knife,inf,1054_hp_s05_inf_knife_10_n03041632_22734.png
subject-05,1,1055,1.03698182106018,truck,truck,3,1055_hp_s05_3_truck_10_n04467665_72661.png
subject-05,1,1056,0.833799839019775,truck,truck,inf,1056_hp_s05_inf_truck_10_n03796401_17504.png
subject-05,1,1057,0.886203050613403,clock,clock,0.4,1057_hp_s05_0.4_clock_10_n04548280_7813.png
subject-05,1,1058,0.722613096237183,boat,bicycle,3,1058_hp_s05_3_bicycle_10_n03792782_7475.png
subject-05,1,1059,1.10281705856323,truck,clock,1,1059_hp_s05_1_clock_10_n03196217_5916.png
subject-05,1,1060,0.576895952224731,clock,knife,0.55,1060_hp_s05_0.55_knife_10_n03041632_102887.png
subject-05,1,1061,0.651489019393921,keyboard,keyboard,1,1061_hp_s05_1_keyboard_10_n03085013_24087.png
subject-05,1,1062,0.72583794593811,cat,elephant,0.55,1062_hp_s05_0.55_elephant_10_n02504458_2511.png
subject-05,1,1063,0.621712923049927,clock,bicycle,0.55,1063_hp_s05_0.55_bicycle_10_n02835271_2505.png
subject-05,1,1064,0.809816122055054,airplane,airplane,1,1064_hp_s05_1_airplane_10_n02690373_9535.png
subject-05,1,1065,NaN,na,oven,inf,1065_hp_s05_inf_oven_10_n04111531_2826.png
subject-05,1,1066,0.788809061050415,clock,keyboard,0.45,1066_hp_s05_0.45_keyboard_10_n03085013_19233.png
