subj,session,trial,rt,object_response,category,condition,imagename
subject-05,1,1,0.533288955688477,clock,chair,c01,0001_cop_s05_c01_chair_10_n02791124_356.png
subject-05,1,2,0.701326847076416,truck,truck,c100,0002_cop_s05_c100_truck_10_n03417042_2155.png
subject-05,1,3,0.861207962036133,chair,chair,c50,0003_cop_s05_c50_chair_10_n04429376_5593.png
subject-05,1,4,0.844820022583008,cat,elephant,c03,0004_cop_s05_c03_elephant_10_n02504458_63.png
subject-05,1,5,0.91356897354126,bear,elephant,c100,0005_cop_s05_c100_elephant_10_n02504013_9099.png
subject-05,1,6,0.911113023757935,airplane,bear,c01,0006_cop_s05_c01_bear_10_n02134084_10386.png
subject-05,1,7,0.474000930786133,boat,truck,c01,0007_cop_s05_c01_truck_10_n04467665_3220.png
subject-05,1,8,1.14230704307556,bottle,bottle,c30,0008_cop_s05_c30_bottle_10_n04557648_31733.png
subject-05,1,9,1.05635094642639,car,car,c03,0009_cop_s05_c03_car_10_n02814533_47406.png
subject-05,1,10,0.616065979003906,knife,knife,c100,0010_cop_s05_c100_knife_10_n03041632_54732.png
subject-05,1,11,0.871073961257935,car,car,c03,0011_cop_s05_c03_car_10_n02814533_32693.png
subject-05,1,12,1.00975513458252,car,car,c10,0012_cop_s05_c10_car_10_n03100240_6797.png
subject-05,1,13,0.699481964111328,bottle,bottle,c10,0013_cop_s05_c10_bottle_10_n03983396_4829.png
subject-05,1,14,0.567840814590454,cat,cat,c15,0014_cop_s05_c15_cat_10_n02124075_4027.png
subject-05,1,15,1.38968896865845,bear,bear,c10,0015_cop_s05_c10_bear_10_n02132136_6995.png
subject-05,1,16,0.641983985900879,cat,oven,c05,0016_cop_s05_c05_oven_10_n04111531_3286.png
subject-05,1,17,0.642193078994751,car,car,c100,0017_cop_s05_c100_car_10_n03100240_278.png
subject-05,1,18,0.986164093017578,elephant,car,c01,0018_cop_s05_c01_car_10_n04285008_5838.png
subject-05,1,19,0.899696111679077,chair,knife,c05,0019_cop_s05_c05_knife_10_n03041632_8563.png
subject-05,1,20,0.630364894866943,boat,bird,c01,0020_cop_s05_c01_bird_10_n02028035_23375.png
subject-05,1,21,0.72815990447998,airplane,airplane,c03,0021_cop_s05_c03_airplane_10_n02690373_2525.png
subject-05,1,22,0.896027088165283,cat,dog,c100,0022_cop_s05_c100_dog_10_n02089867_218.png
subject-05,1,23,NaN,na,oven,c05,0023_cop_s05_c05_oven_10_n04111531_4332.png
subject-05,1,24,1.06242084503174,cat,car,c10,0024_cop_s05_c10_car_10_n02814533_52627.png
subject-05,1,25,0.886965990066528,keyboard,keyboard,c05,0025_cop_s05_c05_keyboard_10_n03085013_11359.png
subject-05,1,26,0.514755964279175,boat,boat,c100,0026_cop_s05_c100_boat_10_n04273569_1678.png
subject-05,1,27,0.744812965393066,airplane,boat,c05,0027_cop_s05_c05_boat_10_n02951358_14598.png
subject-05,1,28,0.751183986663818,oven,oven,c15,0028_cop_s05_c15_oven_10_n04111531_7283.png
subject-05,1,29,0.727530002593994,clock,clock,c50,0029_cop_s05_c50_clock_10_n04548280_3153.png
subject-05,1,30,0.566226959228516,cat,cat,c05,0030_cop_s05_c05_cat_10_n02123159_3850.png
subject-05,1,31,1.44776606559753,keyboard,truck,c10,0031_cop_s05_c10_truck_10_n03417042_3327.png
subject-05,1,32,0.663547992706299,airplane,airplane,c15,0032_cop_s05_c15_airplane_10_n02690373_20242.png
subject-05,1,33,0.799635887145996,chair,chair,c50,0033_cop_s05_c50_chair_10_n04429376_619.png
subject-05,1,34,0.522491931915283,boat,truck,c01,0034_cop_s05_c01_truck_10_n03796401_10576.png
subject-05,1,35,0.601457118988037,keyboard,keyboard,c30,0035_cop_s05_c30_keyboard_10_n04505470_3824.png
subject-05,1,36,0.628576993942261,clock,bird,c15,0036_cop_s05_c15_bird_10_n01534433_5696.png
subject-05,1,37,0.694334983825684,bird,bird,c100,0037_cop_s05_c100_bird_10_n02009912_22409.png
subject-05,1,38,0.625010967254639,cat,bicycle,c03,0038_cop_s05_c03_bicycle_10_n03792782_11959.png
subject-05,1,39,1.12329816818237,truck,truck,c15,0039_cop_s05_c15_truck_10_n03417042_2143.png
subject-05,1,40,0.730951070785522,airplane,chair,c03,0040_cop_s05_c03_chair_10_n02791124_1174.png
subject-05,1,41,0.629043102264404,car,bear,c30,0041_cop_s05_c30_bear_10_n02134418_557.png
subject-05,1,42,0.567108154296875,clock,truck,c05,0042_cop_s05_c05_truck_10_n04467665_60862.png
subject-05,1,43,0.881595134735107,truck,truck,c05,0043_cop_s05_c05_truck_10_n04467665_27899.png
subject-05,1,44,0.925235033035278,elephant,elephant,c50,0044_cop_s05_c50_elephant_10_n02504013_8162.png
subject-05,1,45,0.955589056015015,dog,dog,c30,0045_cop_s05_c30_dog_10_n02086240_6032.png
subject-05,1,46,0.5452880859375,bicycle,bicycle,c50,0046_cop_s05_c50_bicycle_10_n02835271_8170.png
subject-05,1,47,0.599393844604492,boat,knife,c03,0047_cop_s05_c03_knife_10_n03041632_37274.png
subject-05,1,48,0.575991153717041,oven,dog,c15,0048_cop_s05_c15_dog_10_n02088238_2385.png
subject-05,1,49,0.552639007568359,cat,cat,c10,0049_cop_s05_c10_cat_10_n02123045_5913.png
subject-05,1,50,0.674623966217041,bear,bear,c15,0050_cop_s05_c15_bear_10_n02134084_1080.png
subject-05,1,51,0.794156789779663,keyboard,keyboard,c05,0051_cop_s05_c05_keyboard_10_n03085013_11968.png
subject-05,1,52,1.06298303604126,boat,dog,c01,0052_cop_s05_c01_dog_10_n02102040_5778.png
subject-05,1,53,0.693328857421875,keyboard,knife,c30,0053_cop_s05_c30_knife_10_n03041632_49363.png
subject-05,1,54,0.923808097839355,boat,boat,c30,0054_cop_s05_c30_boat_10_n03662601_18641.png
subject-05,1,55,0.608114957809448,clock,airplane,c03,0055_cop_s05_c03_airplane_10_n02690373_1489.png
subject-05,1,56,0.876941919326782,dog,dog,c10,0056_cop_s05_c10_dog_10_n02109525_74463.png
subject-05,1,57,0.547558069229126,cat,oven,c03,0057_cop_s05_c03_oven_10_n04111531_7266.png
subject-05,1,58,0.599857091903687,boat,dog,c01,0058_cop_s05_c01_dog_10_n02093859_5873.png
subject-05,1,59,0.697649955749512,bear,cat,c05,0059_cop_s05_c05_cat_10_n02123045_6572.png
subject-05,1,60,0.71410608291626,car,car,c15,0060_cop_s05_c15_car_10_n02814533_12126.png
subject-05,1,61,0.642021894454956,clock,oven,c01,0061_cop_s05_c01_oven_10_n04111531_274.png
subject-05,1,62,0.728975057601929,airplane,airplane,c03,0062_cop_s05_c03_airplane_10_n02690373_10207.png
subject-05,1,63,0.919342041015625,dog,dog,c100,0063_cop_s05_c100_dog_10_n02090721_1580.png
subject-05,1,64,0.949769973754883,cat,cat,c100,0064_cop_s05_c100_cat_10_n02123597_13752.png
subject-05,1,65,0.910360097885132,boat,keyboard,c01,0065_cop_s05_c01_keyboard_10_n03085013_21707.png
subject-05,1,66,0.753416061401367,bottle,bottle,c30,0066_cop_s05_c30_bottle_10_n03937543_8262.png
subject-05,1,67,0.540219783782959,clock,bear,c15,0067_cop_s05_c15_bear_10_n02134084_8153.png
subject-05,1,68,0.654598951339722,keyboard,keyboard,c30,0068_cop_s05_c30_keyboard_10_n03085013_16636.png
subject-05,1,69,0.628461122512817,airplane,airplane,c03,0069_cop_s05_c03_airplane_10_n02690373_4412.png
subject-05,1,70,0.829041004180908,bear,elephant,c50,0070_cop_s05_c50_elephant_10_n02504458_696.png
subject-05,1,71,0.734662055969238,chair,chair,c30,0071_cop_s05_c30_chair_10_n04429376_39408.png
subject-05,1,72,0.711230039596558,car,car,c100,0072_cop_s05_c100_car_10_n03100240_6432.png
subject-05,1,73,0.595777988433838,boat,boat,c100,0073_cop_s05_c100_boat_10_n04612504_12857.png
subject-05,1,74,0.731534957885742,bear,elephant,c03,0074_cop_s05_c03_elephant_10_n02504013_10965.png
subject-05,1,75,0.586131811141968,bicycle,bicycle,c15,0075_cop_s05_c15_bicycle_10_n03792782_19003.png
subject-05,1,76,0.93854808807373,oven,oven,c30,0076_cop_s05_c30_oven_10_n04111531_8812.png
subject-05,1,77,1.29857206344604,chair,chair,c15,0077_cop_s05_c15_chair_10_n02791124_461.png
subject-05,1,78,0.623008966445923,keyboard,keyboard,c50,0078_cop_s05_c50_keyboard_10_n03085013_7520.png
subject-05,1,79,0.475483894348145,boat,dog,c01,0079_cop_s05_c01_dog_10_n02109525_533.png
subject-05,1,80,0.530202150344849,clock,clock,c30,0080_cop_s05_c30_clock_10_n02708093_864.png
subject-05,1,81,0.620738983154297,cat,cat,c100,0081_cop_s05_c100_cat_10_n02123597_3036.png
subject-05,1,82,0.826251029968262,bird,bird,c15,0082_cop_s05_c15_bird_10_n01843065_5602.png
subject-05,1,83,0.464838981628418,boat,cat,c01,0083_cop_s05_c01_cat_10_n02124075_11778.png
subject-05,1,84,0.579277992248535,car,car,c50,0084_cop_s05_c50_car_10_n03100240_4032.png
subject-05,1,85,0.83168888092041,oven,bicycle,c15,0085_cop_s05_c15_bicycle_10_n02835271_9904.png
subject-05,1,86,1.03933000564575,truck,truck,c50,0086_cop_s05_c50_truck_10_n03417042_6247.png
subject-05,1,87,0.859838008880615,car,car,c03,0087_cop_s05_c03_car_10_n02814533_34734.png
subject-05,1,88,0.838372945785522,car,car,c30,0088_cop_s05_c30_car_10_n02814533_517.png
subject-05,1,89,0.58222508430481,airplane,airplane,c100,0089_cop_s05_c100_airplane_10_n02690373_3827.png
subject-05,1,90,0.674937009811401,airplane,airplane,c10,0090_cop_s05_c10_airplane_10_n02690373_3407.png
subject-05,1,91,0.927685022354126,elephant,elephant,c10,0091_cop_s05_c10_elephant_10_n02504458_2939.png
subject-05,1,92,0.790172100067139,elephant,elephant,c100,0092_cop_s05_c100_elephant_10_n02504013_5271.png
subject-05,1,93,0.871878147125244,keyboard,keyboard,c30,0093_cop_s05_c30_keyboard_10_n03085013_23445.png
subject-05,1,94,0.519206047058105,boat,dog,c01,0094_cop_s05_c01_dog_10_n02093754_5408.png
subject-05,1,95,0.719758987426758,elephant,elephant,c15,0095_cop_s05_c15_elephant_10_n02504013_4166.png
subject-05,1,96,0.496318817138672,clock,clock,c30,0096_cop_s05_c30_clock_10_n02708093_2353.png
subject-05,1,97,0.962393045425415,bicycle,bicycle,c30,0097_cop_s05_c30_bicycle_10_n02835271_8502.png
subject-05,1,98,0.624666929244995,bicycle,bicycle,c50,0098_cop_s05_c50_bicycle_10_n03792782_65868.png
subject-05,1,99,0.738887071609497,bottle,bottle,c100,0099_cop_s05_c100_bottle_10_n03983396_8411.png
subject-05,1,100,0.828711986541748,bird,bird,c15,0100_cop_s05_c15_bird_10_n02025239_2155.png
subject-05,1,101,0.813509941101074,boat,airplane,c01,0101_cop_s05_c01_airplane_10_n02690373_2268.png
subject-05,1,102,0.644366979598999,airplane,airplane,c10,0102_cop_s05_c10_airplane_10_n02690373_4763.png
subject-05,1,103,0.804672002792358,bird,bird,c05,0103_cop_s05_c05_bird_10_n01860187_357.png
subject-05,1,104,1.04276990890503,truck,boat,c05,0104_cop_s05_c05_boat_10_n03344393_4419.png
subject-05,1,105,1.33342695236206,boat,boat,c03,0105_cop_s05_c03_boat_10_n04273569_7733.png
subject-05,1,106,0.963195085525513,chair,oven,c10,0106_cop_s05_c10_oven_10_n04111531_550.png
subject-05,1,107,0.585824966430664,boat,boat,c100,0107_cop_s05_c100_boat_10_n04273569_15308.png
subject-05,1,108,0.602359056472778,bicycle,bicycle,c50,0108_cop_s05_c50_bicycle_10_n02835271_7771.png
subject-05,1,109,0.646955013275146,clock,boat,c01,0109_cop_s05_c01_boat_10_n03662601_2024.png
subject-05,1,110,0.955856800079346,truck,truck,c15,0110_cop_s05_c15_truck_10_n03796401_22137.png
subject-05,1,111,0.685482025146484,airplane,elephant,c01,0111_cop_s05_c01_elephant_10_n02504458_6424.png
subject-05,1,112,0.660140037536621,boat,car,c01,0112_cop_s05_c01_car_10_n03100240_7936.png
subject-05,1,113,0.690842866897583,cat,bear,c100,0113_cop_s05_c100_bear_10_n02134418_1961.png
subject-05,1,114,0.80751895904541,bird,knife,c05,0114_cop_s05_c05_knife_10_n03041632_7448.png
subject-05,1,115,0.730288028717041,cat,cat,c50,0115_cop_s05_c50_cat_10_n02123597_2822.png
subject-05,1,116,0.795650959014893,truck,truck,c100,0116_cop_s05_c100_truck_10_n04467665_54161.png
subject-05,1,117,0.772068023681641,bicycle,bicycle,c50,0117_cop_s05_c50_bicycle_10_n03792782_9280.png
subject-05,1,118,0.740776062011719,chair,bird,c03,0118_cop_s05_c03_bird_10_n01833805_8554.png
subject-05,1,119,0.656783103942871,keyboard,keyboard,c50,0119_cop_s05_c50_keyboard_10_n03085013_21243.png
subject-05,1,120,0.692564010620117,cat,dog,c03,0120_cop_s05_c03_dog_10_n02112706_311.png
subject-05,1,121,0.566981077194214,boat,dog,c03,0121_cop_s05_c03_dog_10_n02097130_11410.png
subject-05,1,122,0.82115912437439,bear,airplane,c01,0122_cop_s05_c01_airplane_10_n02690373_4506.png
subject-05,1,123,1.45025205612183,bird,bird,c50,0123_cop_s05_c50_bird_10_n01558993_36172.png
subject-05,1,124,0.85114598274231,cat,bird,c15,0124_cop_s05_c15_bird_10_n01843383_1698.png
subject-05,1,125,0.667952060699463,bear,bear,c50,0125_cop_s05_c50_bear_10_n02132136_2111.png
subject-05,1,126,0.652350187301636,keyboard,keyboard,c50,0126_cop_s05_c50_keyboard_10_n03085013_688.png
subject-05,1,127,0.950870990753174,knife,knife,c15,0127_cop_s05_c15_knife_10_n03041632_17349.png
subject-05,1,128,0.759443044662476,elephant,elephant,c30,0128_cop_s05_c30_elephant_10_n02504013_6078.png
subject-05,1,129,0.613614082336426,bear,bear,c15,0129_cop_s05_c15_bear_10_n02133161_13169.png
subject-05,1,130,0.558139085769653,clock,chair,c01,0130_cop_s05_c01_chair_10_n03376595_10690.png
subject-05,1,131,1.08058309555054,elephant,elephant,c100,0131_cop_s05_c100_elephant_10_n02504013_9491.png
subject-05,1,132,1.23250198364258,dog,dog,c10,0132_cop_s05_c10_dog_10_n02087394_35503.png
subject-05,1,133,1.24922800064087,knife,cat,c15,0133_cop_s05_c15_cat_10_n02124075_5453.png
subject-05,1,134,0.5795578956604,cat,cat,c50,0134_cop_s05_c50_cat_10_n02123394_2124.png
subject-05,1,135,0.655314922332764,cat,cat,c50,0135_cop_s05_c50_cat_10_n02123394_4789.png
subject-05,1,136,0.792106151580811,keyboard,keyboard,c05,0136_cop_s05_c05_keyboard_10_n04505470_4366.png
subject-05,1,137,0.667679071426392,car,car,c50,0137_cop_s05_c50_car_10_n02814533_31821.png
subject-05,1,138,0.95775580406189,keyboard,keyboard,c15,0138_cop_s05_c15_keyboard_10_n04505470_3107.png
subject-05,1,139,0.657994985580444,boat,boat,c10,0139_cop_s05_c10_boat_10_n02951358_31470.png
subject-05,1,140,0.510067939758301,clock,clock,c01,0140_cop_s05_c01_clock_10_n04548280_3341.png
subject-05,1,141,0.540832996368408,clock,bicycle,c05,0141_cop_s05_c05_bicycle_10_n02835271_1453.png
subject-05,1,142,0.655220031738281,cat,dog,c15,0142_cop_s05_c15_dog_10_n02111277_16103.png
subject-05,1,143,0.547892093658447,bottle,bottle,c50,0143_cop_s05_c50_bottle_10_n04591713_4585.png
subject-05,1,144,1.413743019104,airplane,chair,c03,0144_cop_s05_c03_chair_10_n04099969_7227.png
subject-05,1,145,0.659968852996826,chair,chair,c30,0145_cop_s05_c30_chair_10_n04099969_18016.png
subject-05,1,146,0.628267049789429,airplane,airplane,c30,0146_cop_s05_c30_airplane_10_n02690373_18936.png
subject-05,1,147,1.47801184654236,elephant,elephant,c30,0147_cop_s05_c30_elephant_10_n02504458_9957.png
subject-05,1,148,0.424137115478516,boat,cat,c01,0148_cop_s05_c01_cat_10_n02123045_12826.png
subject-05,1,149,1.40613508224487,cat,elephant,c10,0149_cop_s05_c10_elephant_10_n02504013_22633.png
subject-05,1,150,0.574617862701416,airplane,airplane,c15,0150_cop_s05_c15_airplane_10_n02690373_16620.png
subject-05,1,151,1.39706301689148,dog,dog,c15,0151_cop_s05_c15_dog_10_n02102040_6081.png
subject-05,1,152,0.911919832229614,knife,knife,c10,0152_cop_s05_c10_knife_10_n03041632_48149.png
subject-05,1,153,0.901339054107666,truck,truck,c50,0153_cop_s05_c50_truck_10_n03417042_17817.png
subject-05,1,154,1.30757284164429,cat,bird,c03,0154_cop_s05_c03_bird_10_n02006656_27533.png
subject-05,1,155,0.599447965621948,airplane,airplane,c10,0155_cop_s05_c10_airplane_10_n02690373_18506.png
subject-05,1,156,0.689378023147583,bicycle,bicycle,c15,0156_cop_s05_c15_bicycle_10_n03792782_8832.png
subject-05,1,157,0.794774055480957,airplane,airplane,c05,0157_cop_s05_c05_airplane_10_n02690373_12505.png
subject-05,1,158,0.955726146697998,car,car,c100,0158_cop_s05_c100_car_10_n02814533_45150.png
subject-05,1,159,0.555925130844116,boat,keyboard,c01,0159_cop_s05_c01_keyboard_10_n03085013_4053.png
subject-05,1,160,0.561758041381836,oven,boat,c01,0160_cop_s05_c01_boat_10_n03662601_27770.png
subject-05,1,161,1.04972791671753,dog,bear,c15,0161_cop_s05_c15_bear_10_n02134418_2553.png
subject-05,1,162,0.811519145965576,knife,knife,c30,0162_cop_s05_c30_knife_10_n03041632_5916.png
subject-05,1,163,1.06127691268921,clock,clock,c03,0163_cop_s05_c03_clock_10_n04548280_289.png
subject-05,1,164,NaN,na,airplane,c15,0164_cop_s05_c15_airplane_10_n02690373_3696.png
subject-05,1,165,0.64344310760498,cat,cat,c10,0165_cop_s05_c10_cat_10_n02123045_6441.png
subject-05,1,166,0.965720891952515,clock,truck,c03,0166_cop_s05_c03_truck_10_n03417042_28610.png
subject-05,1,167,0.89650297164917,knife,knife,c30,0167_cop_s05_c30_knife_10_n03041632_24883.png
subject-05,1,168,0.695096015930176,clock,keyboard,c01,0168_cop_s05_c01_keyboard_10_n04505470_4104.png
subject-05,1,169,0.587677001953125,boat,clock,c01,0169_cop_s05_c01_clock_10_n02708093_3213.png
subject-05,1,170,0.863754034042358,dog,dog,c10,0170_cop_s05_c10_dog_10_n02096294_9077.png
subject-05,1,171,0.800153017044067,clock,airplane,c01,0171_cop_s05_c01_airplane_10_n02690373_5462.png
subject-05,1,172,0.94402003288269,oven,chair,c10,0172_cop_s05_c10_chair_10_n04429376_1161.png
subject-05,1,173,0.781750202178955,oven,oven,c50,0173_cop_s05_c50_oven_10_n04111531_13101.png
subject-05,1,174,0.812310934066772,cat,chair,c03,0174_cop_s05_c03_chair_10_n03376595_3678.png
subject-05,1,175,1.0951509475708,car,car,c05,0175_cop_s05_c05_car_10_n04285008_7546.png
subject-05,1,176,0.629986047744751,boat,elephant,c03,0176_cop_s05_c03_elephant_10_n02504013_6671.png
subject-05,1,177,0.544548034667969,oven,car,c01,0177_cop_s05_c01_car_10_n04285008_2625.png
subject-05,1,178,0.945375919342041,elephant,elephant,c50,0178_cop_s05_c50_elephant_10_n02504458_1056.png
subject-05,1,179,0.667590856552124,bird,bird,c30,0179_cop_s05_c30_bird_10_n02037110_2992.png
subject-05,1,180,0.594813108444214,airplane,airplane,c100,0180_cop_s05_c100_airplane_10_n02690373_3620.png
subject-05,1,181,0.685184001922607,oven,boat,c01,0181_cop_s05_c01_boat_10_n04612504_3899.png
subject-05,1,182,0.55593204498291,boat,bear,c05,0182_cop_s05_c05_bear_10_n02132136_1338.png
subject-05,1,183,0.676251888275146,airplane,airplane,c50,0183_cop_s05_c50_airplane_10_n02690373_1538.png
subject-05,1,184,0.706273078918457,elephant,elephant,c50,0184_cop_s05_c50_elephant_10_n02504458_1127.png
subject-05,1,185,0.92060399055481,oven,oven,c10,0185_cop_s05_c10_oven_10_n04111531_23264.png
subject-05,1,186,0.910672903060913,bear,bear,c30,0186_cop_s05_c30_bear_10_n02132136_3207.png
subject-05,1,187,1.17949509620667,oven,keyboard,c01,0187_cop_s05_c01_keyboard_10_n03085013_22447.png
subject-05,1,188,0.98020601272583,knife,knife,c30,0188_cop_s05_c30_knife_10_n03041632_3247.png
subject-05,1,189,1.27904582023621,cat,cat,c50,0189_cop_s05_c50_cat_10_n02123394_684.png
subject-05,1,190,0.592596054077148,clock,clock,c50,0190_cop_s05_c50_clock_10_n03196217_2128.png
subject-05,1,191,0.539222955703735,boat,bottle,c01,0191_cop_s05_c01_bottle_10_n04557648_4460.png
subject-05,1,192,1.35070586204529,dog,bear,c10,0192_cop_s05_c10_bear_10_n02134084_16430.png
subject-05,1,193,0.848819971084595,car,car,c50,0193_cop_s05_c50_car_10_n03100240_1093.png
subject-05,1,194,NaN,na,truck,c50,0194_cop_s05_c50_truck_10_n04467665_1511.png
subject-05,1,195,0.685657024383545,car,car,c05,0195_cop_s05_c05_car_10_n04285008_15194.png
subject-05,1,196,0.737326145172119,airplane,airplane,c05,0196_cop_s05_c05_airplane_10_n02690373_961.png
subject-05,1,197,0.881722211837769,knife,knife,c30,0197_cop_s05_c30_knife_10_n03041632_49163.png
subject-05,1,198,1.1801860332489,knife,knife,c03,0198_cop_s05_c03_knife_10_n03041632_38610.png
subject-05,1,199,0.872835874557495,boat,bear,c03,0199_cop_s05_c03_bear_10_n02134418_2070.png
subject-05,1,200,0.711941003799438,clock,keyboard,c01,0200_cop_s05_c01_keyboard_10_n03085013_14643.png
subject-05,1,201,0.764089107513428,dog,dog,c03,0201_cop_s05_c03_dog_10_n02106166_10459.png
subject-05,1,202,0.78631591796875,airplane,airplane,c100,0202_cop_s05_c100_airplane_10_n02690373_3000.png
subject-05,1,203,0.984150886535645,bicycle,bicycle,c100,0203_cop_s05_c100_bicycle_10_n03792782_4708.png
subject-05,1,204,0.928057909011841,truck,truck,c50,0204_cop_s05_c50_truck_10_n04467665_61522.png
subject-05,1,205,0.904429912567139,cat,cat,c10,0205_cop_s05_c10_cat_10_n02123394_3143.png
subject-05,1,206,1.06438493728638,bicycle,bicycle,c30,0206_cop_s05_c30_bicycle_10_n02835271_2068.png
subject-05,1,207,1.20102691650391,cat,bear,c03,0207_cop_s05_c03_bear_10_n02133161_2428.png
subject-05,1,208,0.647423028945923,oven,oven,c01,0208_cop_s05_c01_oven_10_n04111531_2042.png
subject-05,1,209,0.837862968444824,elephant,elephant,c50,0209_cop_s05_c50_elephant_10_n02504458_8084.png
subject-05,1,210,0.73047399520874,oven,knife,c50,0210_cop_s05_c50_knife_10_n03041632_14442.png
subject-05,1,211,NaN,na,airplane,c30,0211_cop_s05_c30_airplane_10_n02690373_19733.png
subject-05,1,212,0.559553146362305,clock,bicycle,c05,0212_cop_s05_c05_bicycle_10_n02835271_1188.png
subject-05,1,213,0.833249807357788,boat,boat,c50,0213_cop_s05_c50_boat_10_n03344393_5308.png
subject-05,1,214,1.21487379074097,car,elephant,c01,0214_cop_s05_c01_elephant_10_n02504458_2030.png
subject-05,1,215,0.876065969467163,boat,boat,c100,0215_cop_s05_c100_boat_10_n03344393_5868.png
subject-05,1,216,1.00206398963928,clock,dog,c05,0216_cop_s05_c05_dog_10_n02102973_6071.png
subject-05,1,217,0.9079909324646,truck,truck,c15,0217_cop_s05_c15_truck_10_n03796401_4013.png
subject-05,1,218,1.0526430606842,boat,boat,c10,0218_cop_s05_c10_boat_10_n03344393_13302.png
subject-05,1,219,1.02870488166809,chair,chair,c30,0219_cop_s05_c30_chair_10_n04099969_14127.png
subject-05,1,220,0.696949005126953,airplane,elephant,c03,0220_cop_s05_c03_elephant_10_n02504458_6172.png
subject-05,1,221,0.681582927703857,truck,truck,c30,0221_cop_s05_c30_truck_10_n04467665_67078.png
subject-05,1,222,0.695924997329712,bear,bear,c30,0222_cop_s05_c30_bear_10_n02134084_23974.png
subject-05,1,223,0.894670963287354,bicycle,bicycle,c10,0223_cop_s05_c10_bicycle_10_n03792782_85.png
subject-05,1,224,0.755000114440918,bicycle,bicycle,c50,0224_cop_s05_c50_bicycle_10_n03792782_3883.png
subject-05,1,225,0.614845991134644,oven,chair,c01,0225_cop_s05_c01_chair_10_n03376595_2666.png
subject-05,1,226,0.48339319229126,boat,boat,c30,0226_cop_s05_c30_boat_10_n03344393_9806.png
subject-05,1,227,0.581357002258301,clock,dog,c01,0227_cop_s05_c01_dog_10_n02095570_3981.png
subject-05,1,228,0.863281011581421,oven,oven,c15,0228_cop_s05_c15_oven_10_n04111531_7923.png
subject-05,1,229,1.23192191123962,keyboard,knife,c05,0229_cop_s05_c05_knife_10_n03041632_76163.png
subject-05,1,230,0.700013160705566,cat,dog,c01,0230_cop_s05_c01_dog_10_n02090721_5265.png
subject-05,1,231,0.476400136947632,boat,boat,c01,0231_cop_s05_c01_boat_10_n04612504_2479.png
subject-05,1,232,0.491184949874878,clock,clock,c50,0232_cop_s05_c50_clock_10_n02708093_4912.png
subject-05,1,233,1.1055760383606,bottle,bottle,c100,0233_cop_s05_c100_bottle_10_n04591713_3687.png
subject-05,1,234,0.875931978225708,keyboard,knife,c100,0234_cop_s05_c100_knife_10_n03041632_14817.png
subject-05,1,235,1.20167589187622,knife,dog,c05,0235_cop_s05_c05_dog_10_n02107312_282.png
subject-05,1,236,0.744533061981201,knife,knife,c05,0236_cop_s05_c05_knife_10_n03041632_9406.png
subject-05,1,237,1.0186460018158,bottle,clock,c30,0237_cop_s05_c30_clock_10_n03196217_5992.png
subject-05,1,238,0.579074144363403,boat,bicycle,c01,0238_cop_s05_c01_bicycle_10_n03792782_33649.png
subject-05,1,239,0.815195083618164,bird,bird,c10,0239_cop_s05_c10_bird_10_n01796340_9401.png
subject-05,1,240,0.907037973403931,bear,elephant,c03,0240_cop_s05_c03_elephant_10_n02504458_7016.png
subject-05,1,241,1.1275200843811,knife,knife,c10,0241_cop_s05_c10_knife_10_n03041632_33739.png
subject-05,1,242,1.34214806556702,cat,cat,c100,0242_cop_s05_c100_cat_10_n02123394_5835.png
subject-05,1,243,0.81005597114563,oven,keyboard,c50,0243_cop_s05_c50_keyboard_10_n04505470_4569.png
subject-05,1,244,0.924274921417236,airplane,airplane,c15,0244_cop_s05_c15_airplane_10_n02690373_7535.png
subject-05,1,245,1.33904719352722,bicycle,bicycle,c15,0245_cop_s05_c15_bicycle_10_n03792782_6160.png
subject-05,1,246,0.716078042984009,cat,cat,c15,0246_cop_s05_c15_cat_10_n02123159_13211.png
subject-05,1,247,0.437577962875366,clock,car,c01,0247_cop_s05_c01_car_10_n02814533_51701.png
subject-05,1,248,1.48791193962097,bicycle,bicycle,c10,0248_cop_s05_c10_bicycle_10_n03792782_14670.png
subject-05,1,249,0.704071044921875,knife,knife,c50,0249_cop_s05_c50_knife_10_n03041632_29276.png
subject-05,1,250,0.69384503364563,oven,chair,c10,0250_cop_s05_c10_chair_10_n04429376_12100.png
subject-05,1,251,1.28161787986755,oven,oven,c30,0251_cop_s05_c30_oven_10_n04111531_9411.png
subject-05,1,252,0.53604793548584,bicycle,bicycle,c30,0252_cop_s05_c30_bicycle_10_n02835271_15639.png
subject-05,1,253,0.490656137466431,boat,bicycle,c03,0253_cop_s05_c03_bicycle_10_n03792782_435.png
subject-05,1,254,0.572960138320923,oven,oven,c15,0254_cop_s05_c15_oven_10_n04111531_4189.png
subject-05,1,255,1.09555292129517,oven,oven,c05,0255_cop_s05_c05_oven_10_n04111531_4662.png
subject-05,1,256,1.50016808509827,keyboard,keyboard,c100,0256_cop_s05_c100_keyboard_10_n03085013_6904.png
subject-05,1,257,0.643378973007202,car,bear,c03,0257_cop_s05_c03_bear_10_n02134418_1081.png
subject-05,1,258,0.878813028335571,clock,clock,c05,0258_cop_s05_c05_clock_10_n03196217_4051.png
subject-05,1,259,0.557265043258667,boat,clock,c01,0259_cop_s05_c01_clock_10_n03196217_6094.png
subject-05,1,260,0.841707944869995,car,boat,c100,0260_cop_s05_c100_boat_10_n02951358_8569.png
subject-05,1,261,0.917971849441528,oven,oven,c30,0261_cop_s05_c30_oven_10_n04111531_3977.png
subject-05,1,262,0.78676700592041,clock,clock,c01,0262_cop_s05_c01_clock_10_n03196217_5995.png
subject-05,1,263,0.502992153167725,cat,bottle,c15,0263_cop_s05_c15_bottle_10_n04557648_1819.png
subject-05,1,264,0.871684074401855,car,car,c05,0264_cop_s05_c05_car_10_n03100240_1992.png
subject-05,1,265,0.839462995529175,clock,chair,c50,0265_cop_s05_c50_chair_10_n02791124_5754.png
subject-05,1,266,0.786139965057373,boat,bicycle,c03,0266_cop_s05_c03_bicycle_10_n03792782_8357.png
subject-05,1,267,0.684176921844482,boat,boat,c15,0267_cop_s05_c15_boat_10_n04273569_10899.png
subject-05,1,268,0.967963933944702,airplane,bottle,c15,0268_cop_s05_c15_bottle_10_n04579145_1407.png
subject-05,1,269,0.897320985794067,clock,bottle,c03,0269_cop_s05_c03_bottle_10_n04579145_5836.png
subject-05,1,270,0.612177848815918,boat,knife,c01,0270_cop_s05_c01_knife_10_n03041632_86251.png
subject-05,1,271,0.625936031341553,cat,dog,c05,0271_cop_s05_c05_dog_10_n02091032_69.png
subject-05,1,272,0.748111009597778,bird,bird,c15,0272_cop_s05_c15_bird_10_n01531178_22646.png
subject-05,1,273,0.618304014205933,bird,bird,c50,0273_cop_s05_c50_bird_10_n01532829_34883.png
subject-05,1,274,0.702672004699707,cat,knife,c05,0274_cop_s05_c05_knife_10_n03041632_23678.png
subject-05,1,275,0.540927886962891,oven,oven,c10,0275_cop_s05_c10_oven_10_n04111531_5290.png
subject-05,1,276,0.479490995407104,clock,keyboard,c05,0276_cop_s05_c05_keyboard_10_n03085013_19586.png
subject-05,1,277,1.14536714553833,dog,dog,c30,0277_cop_s05_c30_dog_10_n02101556_5366.png
subject-05,1,278,1.09119510650635,knife,knife,c100,0278_cop_s05_c100_knife_10_n03041632_15250.png
subject-05,1,279,0.613560199737549,boat,bicycle,c03,0279_cop_s05_c03_bicycle_10_n02835271_3250.png
subject-05,1,280,0.684777021408081,clock,airplane,c01,0280_cop_s05_c01_airplane_10_n02690373_4282.png
subject-05,1,281,0.844908952713013,keyboard,keyboard,c03,0281_cop_s05_c03_keyboard_10_n03085013_23683.png
subject-05,1,282,0.674655914306641,clock,clock,c100,0282_cop_s05_c100_clock_10_n02708093_2619.png
subject-05,1,283,0.612540006637573,airplane,airplane,c100,0283_cop_s05_c100_airplane_10_n02690373_6212.png
subject-05,1,284,0.673402786254883,truck,truck,c10,0284_cop_s05_c10_truck_10_n03796401_4119.png
subject-05,1,285,0.466310024261475,clock,clock,c03,0285_cop_s05_c03_clock_10_n03196217_3292.png
subject-05,1,286,0.436791181564331,boat,boat,c03,0286_cop_s05_c03_boat_10_n03344393_8672.png
subject-05,1,287,0.475319862365723,clock,clock,c100,0287_cop_s05_c100_clock_10_n04548280_7258.png
subject-05,1,288,0.535805940628052,cat,dog,c30,0288_cop_s05_c30_dog_10_n02093859_2564.png
subject-05,1,289,0.75819206237793,bicycle,bicycle,c100,0289_cop_s05_c100_bicycle_10_n03792782_12844.png
subject-05,1,290,0.48851203918457,clock,clock,c15,0290_cop_s05_c15_clock_10_n04548280_7733.png
subject-05,1,291,0.442484140396118,boat,bird,c05,0291_cop_s05_c05_bird_10_n01795545_6074.png
subject-05,1,292,1.11571002006531,truck,truck,c30,0292_cop_s05_c30_truck_10_n03417042_104.png
subject-05,1,293,0.57851505279541,boat,bear,c03,0293_cop_s05_c03_bear_10_n02133161_3766.png
subject-05,1,294,0.516951084136963,cat,cat,c15,0294_cop_s05_c15_cat_10_n02123045_2076.png
subject-05,1,295,0.693440198898315,keyboard,keyboard,c100,0295_cop_s05_c100_keyboard_10_n04505470_2606.png
subject-05,1,296,0.632217168807983,airplane,airplane,c05,0296_cop_s05_c05_airplane_10_n02690373_9812.png
subject-05,1,297,0.72985315322876,elephant,elephant,c50,0297_cop_s05_c50_elephant_10_n02504013_7538.png
subject-05,1,298,0.89854097366333,boat,boat,c10,0298_cop_s05_c10_boat_10_n03344393_2487.png
subject-05,1,299,0.798923969268799,chair,chair,c05,0299_cop_s05_c05_chair_10_n04099969_8021.png
subject-05,1,300,0.599432945251465,clock,cat,c01,0300_cop_s05_c01_cat_10_n02123045_7423.png
subject-05,1,301,1.09790515899658,airplane,knife,c10,0301_cop_s05_c10_knife_10_n03041632_131.png
subject-05,1,302,0.828310012817383,elephant,elephant,c10,0302_cop_s05_c10_elephant_10_n02504013_5919.png
subject-05,1,303,0.805032014846802,car,car,c05,0303_cop_s05_c05_car_10_n02814533_74702.png
subject-05,1,304,0.704545974731445,clock,clock,c15,0304_cop_s05_c15_clock_10_n03196217_3007.png
subject-05,1,305,0.702719926834106,truck,truck,c100,0305_cop_s05_c100_truck_10_n03417042_6981.png
subject-05,1,306,0.787248849868774,bird,bird,c05,0306_cop_s05_c05_bird_10_n02009229_6504.png
subject-05,1,307,0.509788036346436,boat,dog,c03,0307_cop_s05_c03_dog_10_n02091134_12017.png
subject-05,1,308,0.85637092590332,bird,bird,c30,0308_cop_s05_c30_bird_10_n01820546_1323.png
subject-05,1,309,0.564992189407349,oven,oven,c50,0309_cop_s05_c50_oven_10_n04111531_1938.png
subject-05,1,310,1.3632390499115,truck,truck,c15,0310_cop_s05_c15_truck_10_n03417042_9620.png
subject-05,1,311,1.35580587387085,boat,boat,c100,0311_cop_s05_c100_boat_10_n03662601_7177.png
subject-05,1,312,0.518186092376709,cat,car,c01,0312_cop_s05_c01_car_10_n03100240_17364.png
subject-05,1,313,0.917227029800415,car,car,c05,0313_cop_s05_c05_car_10_n04285008_903.png
subject-05,1,314,0.76350998878479,bicycle,bicycle,c05,0314_cop_s05_c05_bicycle_10_n02835271_5986.png
subject-05,1,315,0.818090915679932,boat,elephant,c03,0315_cop_s05_c03_elephant_10_n02504458_3364.png
subject-05,1,316,0.510807991027832,clock,clock,c50,0316_cop_s05_c50_clock_10_n04548280_2283.png
subject-05,1,317,1.25464296340942,truck,truck,c15,0317_cop_s05_c15_truck_10_n04467665_5665.png
subject-05,1,318,0.739726066589355,clock,clock,c03,0318_cop_s05_c03_clock_10_n04548280_199.png
subject-05,1,319,0.845314025878906,chair,chair,c10,0319_cop_s05_c10_chair_10_n04429376_33426.png
subject-05,1,320,0.946062088012695,airplane,airplane,c50,0320_cop_s05_c50_airplane_10_n02690373_5177.png
subject-05,1,321,0.798596858978271,dog,dog,c30,0321_cop_s05_c30_dog_10_n02099712_1227.png
subject-05,1,322,0.812288999557495,bear,bear,c10,0322_cop_s05_c10_bear_10_n02132136_19136.png
subject-05,1,323,0.666884899139404,airplane,airplane,c30,0323_cop_s05_c30_airplane_10_n02690373_9441.png
subject-05,1,324,0.666557788848877,oven,oven,c05,0324_cop_s05_c05_oven_10_n04111531_17781.png
subject-05,1,325,0.80259895324707,clock,bicycle,c03,0325_cop_s05_c03_bicycle_10_n03792782_1288.png
subject-05,1,326,0.671108961105347,bear,elephant,c05,0326_cop_s05_c05_elephant_10_n02504013_9130.png
subject-05,1,327,1.03343987464905,elephant,chair,c01,0327_cop_s05_c01_chair_10_n02791124_2035.png
subject-05,1,328,1.47804808616638,elephant,elephant,c100,0328_cop_s05_c100_elephant_10_n02504013_3708.png
subject-05,1,329,0.556524991989136,boat,bicycle,c03,0329_cop_s05_c03_bicycle_10_n03792782_6667.png
subject-05,1,330,0.616668224334717,cat,cat,c100,0330_cop_s05_c100_cat_10_n02123045_13884.png
subject-05,1,331,1.2067768573761,bottle,bottle,c50,0331_cop_s05_c50_bottle_10_n04560804_5459.png
subject-05,1,332,0.51543116569519,cat,cat,c30,0332_cop_s05_c30_cat_10_n02123045_471.png
subject-05,1,333,0.4670569896698,boat,bear,c05,0333_cop_s05_c05_bear_10_n02132136_11149.png
subject-05,1,334,0.510281085968018,clock,bicycle,c05,0334_cop_s05_c05_bicycle_10_n02835271_9602.png
subject-05,1,335,0.678071975708008,oven,bottle,c03,0335_cop_s05_c03_bottle_10_n03937543_7477.png
subject-05,1,336,1.0924551486969,elephant,elephant,c30,0336_cop_s05_c30_elephant_10_n02504458_3920.png
subject-05,1,337,0.546140909194946,boat,elephant,c01,0337_cop_s05_c01_elephant_10_n02504458_2100.png
subject-05,1,338,0.714539051055908,airplane,airplane,c15,0338_cop_s05_c15_airplane_10_n02690373_7072.png
subject-05,1,339,0.945054054260254,bear,elephant,c03,0339_cop_s05_c03_elephant_10_n02504458_4180.png
subject-05,1,340,1.02704000473022,airplane,airplane,c30,0340_cop_s05_c30_airplane_10_n02690373_6999.png
subject-05,1,341,0.62701678276062,boat,elephant,c01,0341_cop_s05_c01_elephant_10_n02504458_11158.png
subject-05,1,342,0.649312973022461,clock,keyboard,c05,0342_cop_s05_c05_keyboard_10_n04505470_3981.png
subject-05,1,343,0.555353879928589,cat,cat,c50,0343_cop_s05_c50_cat_10_n02124075_9096.png
subject-05,1,344,0.571714162826538,boat,knife,c01,0344_cop_s05_c01_knife_10_n03041632_24384.png
subject-05,1,345,0.502300977706909,cat,cat,c10,0345_cop_s05_c10_cat_10_n02123394_817.png
subject-05,1,346,0.770720958709717,bear,bear,c03,0346_cop_s05_c03_bear_10_n02133161_8677.png
subject-05,1,347,0.517205953598022,oven,oven,c100,0347_cop_s05_c100_oven_10_n04111531_6783.png
subject-05,1,348,0.923866033554077,bear,bear,c05,0348_cop_s05_c05_bear_10_n02134418_11830.png
subject-05,1,349,0.830062866210938,bird,bird,c30,0349_cop_s05_c30_bird_10_n01824575_5311.png
subject-05,1,350,1.13698792457581,dog,dog,c100,0350_cop_s05_c100_dog_10_n02110063_5561.png
subject-05,1,351,0.896757841110229,car,car,c100,0351_cop_s05_c100_car_10_n03100240_4420.png
subject-05,1,352,0.567038059234619,bear,bear,c03,0352_cop_s05_c03_bear_10_n02134418_781.png
subject-05,1,353,0.573780059814453,keyboard,keyboard,c100,0353_cop_s05_c100_keyboard_10_n03085013_23268.png
subject-05,1,354,0.573616027832031,bicycle,bicycle,c30,0354_cop_s05_c30_bicycle_10_n02835271_4681.png
subject-05,1,355,0.509960889816284,boat,bird,c01,0355_cop_s05_c01_bird_10_n01592084_3405.png
subject-05,1,356,0.815922975540161,bird,bird,c10,0356_cop_s05_c10_bird_10_n01531178_25944.png
subject-05,1,357,0.824052810668945,bottle,bottle,c50,0357_cop_s05_c50_bottle_10_n04557648_12541.png
subject-05,1,358,1.0435791015625,dog,dog,c100,0358_cop_s05_c100_dog_10_n02113624_1293.png
subject-05,1,359,0.835926055908203,keyboard,keyboard,c50,0359_cop_s05_c50_keyboard_10_n04505470_3273.png
subject-05,1,360,0.755491971969604,oven,oven,c100,0360_cop_s05_c100_oven_10_n04111531_14126.png
subject-05,1,361,0.542220830917358,boat,clock,c10,0361_cop_s05_c10_clock_10_n03196217_2009.png
subject-05,1,362,1.17867398262024,truck,truck,c10,0362_cop_s05_c10_truck_10_n04467665_53416.png
subject-05,1,363,0.763138055801392,bottle,bottle,c10,0363_cop_s05_c10_bottle_10_n03983396_8968.png
subject-05,1,364,0.625993013381958,clock,clock,c50,0364_cop_s05_c50_clock_10_n03196217_3762.png
subject-05,1,365,1.38670611381531,dog,bear,c05,0365_cop_s05_c05_bear_10_n02134418_1974.png
subject-05,1,366,0.630191087722778,truck,truck,c50,0366_cop_s05_c50_truck_10_n04467665_69171.png
subject-05,1,367,0.644120931625366,oven,boat,c100,0367_cop_s05_c100_boat_10_n02951358_15269.png
subject-05,1,368,0.766902923583984,bird,bird,c50,0368_cop_s05_c50_bird_10_n02011460_3599.png
subject-05,1,369,0.388962984085083,clock,car,c01,0369_cop_s05_c01_car_10_n02814533_2828.png
subject-05,1,370,0.697208881378174,oven,oven,c15,0370_cop_s05_c15_oven_10_n04111531_22020.png
subject-05,1,371,0.694962024688721,bear,bear,c01,0371_cop_s05_c01_bear_10_n02132136_1278.png
subject-05,1,372,1.48576617240906,bear,bear,c50,0372_cop_s05_c50_bear_10_n02132136_10030.png
subject-05,1,373,0.810096979141235,airplane,bottle,c01,0373_cop_s05_c01_bottle_10_n03937543_2507.png
subject-05,1,374,0.916863918304443,keyboard,keyboard,c10,0374_cop_s05_c10_keyboard_10_n03085013_21488.png
subject-05,1,375,1.33045291900635,bear,bear,c30,0375_cop_s05_c30_bear_10_n02133161_11853.png
subject-05,1,376,1.02831602096558,clock,clock,c100,0376_cop_s05_c100_clock_10_n04548280_5899.png
subject-05,1,377,0.767632961273193,bird,bird,c10,0377_cop_s05_c10_bird_10_n01855672_14115.png
subject-05,1,378,0.835763931274414,elephant,elephant,c100,0378_cop_s05_c100_elephant_10_n02504458_3143.png
subject-05,1,379,0.660519123077393,car,car,c05,0379_cop_s05_c05_car_10_n03100240_605.png
subject-05,1,380,0.841661214828491,bottle,bottle,c100,0380_cop_s05_c100_bottle_10_n04557648_3507.png
subject-05,1,381,0.772123098373413,bottle,boat,c03,0381_cop_s05_c03_boat_10_n04273569_19699.png
subject-05,1,382,0.634912014007568,car,car,c50,0382_cop_s05_c50_car_10_n02814533_3811.png
subject-05,1,383,0.733664989471436,airplane,airplane,c50,0383_cop_s05_c50_airplane_10_n02690373_4133.png
subject-05,1,384,0.788266897201538,truck,truck,c10,0384_cop_s05_c10_truck_10_n03796401_1001.png
subject-05,1,385,1.37209105491638,keyboard,knife,c100,0385_cop_s05_c100_knife_10_n03041632_19614.png
subject-05,1,386,NaN,na,chair,c50,0386_cop_s05_c50_chair_10_n02791124_15564.png
subject-05,1,387,0.603610992431641,clock,clock,c01,0387_cop_s05_c01_clock_10_n04548280_6022.png
subject-05,1,388,0.502120018005371,chair,chair,c50,0388_cop_s05_c50_chair_10_n04099969_7571.png
subject-05,1,389,0.756743907928467,clock,clock,c10,0389_cop_s05_c10_clock_10_n04548280_1339.png
subject-05,1,390,0.54900598526001,boat,elephant,c05,0390_cop_s05_c05_elephant_10_n02504458_2676.png
subject-05,1,391,0.688150882720947,chair,chair,c30,0391_cop_s05_c30_chair_10_n02791124_13620.png
subject-05,1,392,0.994395971298218,cat,knife,c30,0392_cop_s05_c30_knife_10_n03041632_13225.png
subject-05,1,393,0.609056949615479,boat,bird,c30,0393_cop_s05_c30_bird_10_n02025239_9304.png
subject-05,1,394,0.509382009506226,clock,clock,c10,0394_cop_s05_c10_clock_10_n02708093_8255.png
subject-05,1,395,0.585834980010986,bicycle,bicycle,c100,0395_cop_s05_c100_bicycle_10_n02835271_1691.png
subject-05,1,396,0.569601058959961,cat,cat,c30,0396_cop_s05_c30_cat_10_n02123159_6419.png
subject-05,1,397,0.775695085525513,keyboard,keyboard,c10,0397_cop_s05_c10_keyboard_10_n03085013_21444.png
subject-05,1,398,0.906102895736694,boat,boat,c10,0398_cop_s05_c10_boat_10_n03344393_923.png
subject-05,1,399,0.637179851531982,boat,chair,c15,0399_cop_s05_c15_chair_10_n04429376_41983.png
subject-05,1,400,0.597424030303955,keyboard,keyboard,c15,0400_cop_s05_c15_keyboard_10_n04505470_112.png
subject-05,1,401,0.752322912216187,knife,knife,c100,0401_cop_s05_c100_knife_10_n03041632_15431.png
subject-05,1,402,0.674446105957031,car,car,c30,0402_cop_s05_c30_car_10_n04285008_1716.png
subject-05,1,403,0.804301977157593,bear,elephant,c100,0403_cop_s05_c100_elephant_10_n02504013_5383.png
subject-05,1,404,0.802948951721191,truck,truck,c05,0404_cop_s05_c05_truck_10_n03796401_10784.png
subject-05,1,405,0.457236051559448,clock,cat,c03,0405_cop_s05_c03_cat_10_n02123045_843.png
subject-05,1,406,0.671783924102783,knife,knife,c50,0406_cop_s05_c50_knife_10_n03041632_40887.png
subject-05,1,407,0.672039031982422,truck,truck,c100,0407_cop_s05_c100_truck_10_n03417042_27022.png
subject-05,1,408,0.640326976776123,airplane,boat,c15,0408_cop_s05_c15_boat_10_n02951358_15149.png
subject-05,1,409,0.833092927932739,bottle,bottle,c15,0409_cop_s05_c15_bottle_10_n04557648_9809.png
subject-05,1,410,0.723957061767578,cat,cat,c100,0410_cop_s05_c100_cat_10_n02125311_30629.png
subject-05,1,411,0.746328115463257,clock,keyboard,c10,0411_cop_s05_c10_keyboard_10_n03085013_21602.png
subject-05,1,412,0.687648057937622,bicycle,bicycle,c10,0412_cop_s05_c10_bicycle_10_n03792782_565.png
subject-05,1,413,0.781990051269531,dog,dog,c15,0413_cop_s05_c15_dog_10_n02106382_5857.png
subject-05,1,414,0.666857957839966,keyboard,oven,c01,0414_cop_s05_c01_oven_10_n04111531_13486.png
subject-05,1,415,0.929626941680908,chair,chair,c50,0415_cop_s05_c50_chair_10_n03376595_6071.png
subject-05,1,416,0.827978134155273,bottle,bottle,c15,0416_cop_s05_c15_bottle_10_n04557648_17011.png
subject-05,1,417,0.612678050994873,boat,dog,c05,0417_cop_s05_c05_dog_10_n02091032_9401.png
subject-05,1,418,0.43000602722168,clock,truck,c03,0418_cop_s05_c03_truck_10_n03417042_803.png
subject-05,1,419,0.745013952255249,dog,dog,c50,0419_cop_s05_c50_dog_10_n02113023_11465.png
subject-05,1,420,0.758827924728394,bottle,bottle,c15,0420_cop_s05_c15_bottle_10_n04591713_3022.png
subject-05,1,421,1.3354070186615,elephant,dog,c50,0421_cop_s05_c50_dog_10_n02091032_6118.png
subject-05,1,422,0.665787935256958,keyboard,keyboard,c100,0422_cop_s05_c100_keyboard_10_n04505470_4484.png
subject-05,1,423,0.858151912689209,boat,boat,c03,0423_cop_s05_c03_boat_10_n03662601_1536.png
subject-05,1,424,0.672645092010498,knife,airplane,c01,0424_cop_s05_c01_airplane_10_n02690373_4110.png
subject-05,1,425,0.648871898651123,cat,dog,c30,0425_cop_s05_c30_dog_10_n02098286_4945.png
subject-05,1,426,0.617976903915405,oven,oven,c10,0426_cop_s05_c10_oven_10_n04111531_17507.png
subject-05,1,427,0.518602132797241,boat,cat,c01,0427_cop_s05_c01_cat_10_n02123159_7193.png
subject-05,1,428,0.667670965194702,clock,clock,c15,0428_cop_s05_c15_clock_10_n02708093_468.png
subject-05,1,429,1.48141002655029,airplane,oven,c15,0429_cop_s05_c15_oven_10_n04111531_7045.png
subject-05,1,430,1.50004386901855,elephant,elephant,c15,0430_cop_s05_c15_elephant_10_n02504458_3731.png
subject-05,1,431,1.13431715965271,bicycle,bicycle,c100,0431_cop_s05_c100_bicycle_10_n03792782_9651.png
subject-05,1,432,0.827085018157959,dog,dog,c10,0432_cop_s05_c10_dog_10_n02088238_3805.png
subject-05,1,433,0.51683783531189,cat,dog,c10,0433_cop_s05_c10_dog_10_n02098105_9078.png
subject-05,1,434,0.441426038742065,boat,bird,c01,0434_cop_s05_c01_bird_10_n01820546_751.png
subject-05,1,435,0.639595985412598,bird,bird,c100,0435_cop_s05_c100_bird_10_n01537544_4008.png
subject-05,1,436,0.791080951690674,dog,dog,c100,0436_cop_s05_c100_dog_10_n02105162_2193.png
subject-05,1,437,0.98042893409729,truck,truck,c10,0437_cop_s05_c10_truck_10_n04467665_2.png
subject-05,1,438,0.534948825836182,cat,cat,c100,0438_cop_s05_c100_cat_10_n02123597_13357.png
subject-05,1,439,0.579424142837524,bird,bird,c100,0439_cop_s05_c100_bird_10_n02028035_15248.png
subject-05,1,440,0.809952974319458,bottle,bottle,c15,0440_cop_s05_c15_bottle_10_n04591713_5973.png
subject-05,1,441,0.648437023162842,bird,bird,c10,0441_cop_s05_c10_bird_10_n02007558_3579.png
subject-05,1,442,0.669908046722412,airplane,airplane,c30,0442_cop_s05_c30_airplane_10_n02690373_1441.png
subject-05,1,443,1.17661499977112,boat,boat,c30,0443_cop_s05_c30_boat_10_n04273569_7034.png
subject-05,1,444,1.17531609535217,bird,bird,c50,0444_cop_s05_c50_bird_10_n01592084_8927.png
subject-05,1,445,0.629522085189819,car,car,c15,0445_cop_s05_c15_car_10_n03100240_6481.png
subject-05,1,446,0.630615949630737,car,car,c15,0446_cop_s05_c15_car_10_n03100240_19223.png
subject-05,1,447,1.12099289894104,clock,clock,c30,0447_cop_s05_c30_clock_10_n04548280_1004.png
subject-05,1,448,0.649285793304443,bird,dog,c05,0448_cop_s05_c05_dog_10_n02111500_8302.png
subject-05,1,449,0.663933992385864,bear,bear,c50,0449_cop_s05_c50_bear_10_n02134418_13673.png
subject-05,1,450,0.54030704498291,boat,boat,c05,0450_cop_s05_c05_boat_10_n03344393_7352.png
subject-05,1,451,0.676846981048584,airplane,airplane,c10,0451_cop_s05_c10_airplane_10_n02690373_7676.png
subject-05,1,452,0.652958869934082,clock,bottle,c05,0452_cop_s05_c05_bottle_10_n04560804_20067.png
subject-05,1,453,0.707634925842285,boat,chair,c15,0453_cop_s05_c15_chair_10_n03376595_6012.png
subject-05,1,454,1.43550896644592,cat,cat,c30,0454_cop_s05_c30_cat_10_n02123394_2793.png
subject-05,1,455,1.04397106170654,clock,chair,c05,0455_cop_s05_c05_chair_10_n04429376_57985.png
subject-05,1,456,0.666567087173462,truck,truck,c05,0456_cop_s05_c05_truck_10_n04467665_34297.png
subject-05,1,457,0.497060060501099,boat,bottle,c01,0457_cop_s05_c01_bottle_10_n03983396_11716.png
subject-05,1,458,0.857170820236206,bird,bird,c05,0458_cop_s05_c05_bird_10_n02002556_4423.png
subject-05,1,459,0.565881013870239,cat,truck,c03,0459_cop_s05_c03_truck_10_n04467665_69582.png
subject-05,1,460,0.880100011825562,truck,truck,c30,0460_cop_s05_c30_truck_10_n04467665_857.png
subject-05,1,461,0.524451017379761,boat,bottle,c01,0461_cop_s05_c01_bottle_10_n03983396_20197.png
subject-05,1,462,0.525407075881958,clock,clock,c05,0462_cop_s05_c05_clock_10_n03196217_1337.png
subject-05,1,463,0.9617600440979,bird,bear,c100,0463_cop_s05_c100_bear_10_n02133161_2112.png
subject-05,1,464,1.03028893470764,truck,truck,c100,0464_cop_s05_c100_truck_10_n03796401_25021.png
subject-05,1,465,0.876909017562866,oven,oven,c30,0465_cop_s05_c30_oven_10_n04111531_15052.png
subject-05,1,466,0.607544183731079,cat,elephant,c05,0466_cop_s05_c05_elephant_10_n02504013_23912.png
subject-05,1,467,0.938080072402954,airplane,keyboard,c03,0467_cop_s05_c03_keyboard_10_n03085013_18858.png
subject-05,1,468,0.952072858810425,truck,truck,c15,0468_cop_s05_c15_truck_10_n03796401_1918.png
subject-05,1,469,1.21314311027527,boat,bicycle,c30,0469_cop_s05_c30_bicycle_10_n03792782_922.png
subject-05,1,470,0.605726957321167,boat,boat,c100,0470_cop_s05_c100_boat_10_n02951358_35095.png
subject-05,1,471,0.519888162612915,boat,boat,c50,0471_cop_s05_c50_boat_10_n03344393_11480.png
subject-05,1,472,1.11838793754578,bottle,bottle,c15,0472_cop_s05_c15_bottle_10_n04591713_5250.png
subject-05,1,473,0.795027017593384,chair,chair,c15,0473_cop_s05_c15_chair_10_n04429376_7593.png
subject-05,1,474,0.502700805664062,boat,boat,c30,0474_cop_s05_c30_boat_10_n04273569_2685.png
subject-05,1,475,0.709278106689453,knife,knife,c100,0475_cop_s05_c100_knife_10_n03041632_26340.png
subject-05,1,476,0.707859039306641,bicycle,bicycle,c100,0476_cop_s05_c100_bicycle_10_n02835271_13396.png
subject-05,1,477,0.88427209854126,knife,knife,c05,0477_cop_s05_c05_knife_10_n03041632_24060.png
subject-05,1,478,0.868863105773926,elephant,elephant,c15,0478_cop_s05_c15_elephant_10_n02504458_9423.png
subject-05,1,479,0.615392923355103,boat,bird,c03,0479_cop_s05_c03_bird_10_n01843383_469.png
subject-05,1,480,0.583563089370728,boat,boat,c10,0480_cop_s05_c10_boat_10_n03344393_5943.png
subject-05,1,481,0.689136028289795,clock,cat,c01,0481_cop_s05_c01_cat_10_n02123394_3173.png
subject-05,1,482,0.541780948638916,boat,truck,c05,0482_cop_s05_c05_truck_10_n03417042_6272.png
subject-05,1,483,1.08560299873352,boat,oven,c50,0483_cop_s05_c50_oven_10_n04111531_8959.png
subject-05,1,484,0.566630125045776,cat,airplane,c03,0484_cop_s05_c03_airplane_10_n02690373_7002.png
subject-05,1,485,0.543200969696045,oven,bear,c03,0485_cop_s05_c03_bear_10_n02134084_24354.png
subject-05,1,486,0.811690092086792,airplane,airplane,c100,0486_cop_s05_c100_airplane_10_n02690373_8583.png
subject-05,1,487,0.817431926727295,boat,chair,c03,0487_cop_s05_c03_chair_10_n02791124_1541.png
subject-05,1,488,0.7481369972229,clock,clock,c15,0488_cop_s05_c15_clock_10_n04548280_5270.png
subject-05,1,489,0.870746850967407,dog,bear,c05,0489_cop_s05_c05_bear_10_n02132136_9991.png
subject-05,1,490,0.677175998687744,airplane,airplane,c05,0490_cop_s05_c05_airplane_10_n02690373_9328.png
subject-05,1,491,0.769434928894043,dog,dog,c10,0491_cop_s05_c10_dog_10_n02092002_9413.png
subject-05,1,492,0.683322906494141,cat,oven,c15,0492_cop_s05_c15_oven_10_n04111531_6933.png
subject-05,1,493,0.949748992919922,airplane,airplane,c100,0493_cop_s05_c100_airplane_10_n02690373_4335.png
subject-05,1,494,1.11224508285522,airplane,clock,c15,0494_cop_s05_c15_clock_10_n04548280_7159.png
subject-05,1,495,1.2944700717926,dog,knife,c03,0495_cop_s05_c03_knife_10_n03041632_23546.png
subject-05,1,496,0.662573099136353,cat,cat,c50,0496_cop_s05_c50_cat_10_n02125311_28469.png
subject-05,1,497,0.455717086791992,clock,clock,c30,0497_cop_s05_c30_clock_10_n04548280_7839.png
subject-05,1,498,0.992597818374634,boat,keyboard,c05,0498_cop_s05_c05_keyboard_10_n03085013_3910.png
subject-05,1,499,0.47698712348938,boat,boat,c30,0499_cop_s05_c30_boat_10_n02951358_4538.png
subject-05,1,500,1.21335220336914,boat,knife,c15,0500_cop_s05_c15_knife_10_n03041632_3079.png
subject-05,1,501,0.605998992919922,oven,bicycle,c01,0501_cop_s05_c01_bicycle_10_n02835271_8747.png
subject-05,1,502,0.904867172241211,knife,knife,c10,0502_cop_s05_c10_knife_10_n03041632_2184.png
subject-05,1,503,0.475502014160156,clock,bird,c01,0503_cop_s05_c01_bird_10_n02002724_6556.png
subject-05,1,504,0.979251146316528,dog,dog,c15,0504_cop_s05_c15_dog_10_n02091032_9482.png
subject-05,1,505,0.718289852142334,car,car,c10,0505_cop_s05_c10_car_10_n03100240_14873.png
subject-05,1,506,0.518950939178467,boat,airplane,c01,0506_cop_s05_c01_airplane_10_n02690373_10354.png
subject-05,1,507,1.03150916099548,dog,dog,c50,0507_cop_s05_c50_dog_10_n02110958_1689.png
subject-05,1,508,0.490460157394409,clock,clock,c05,0508_cop_s05_c05_clock_10_n02708093_3996.png
subject-05,1,509,1.00501108169556,dog,bear,c50,0509_cop_s05_c50_bear_10_n02134418_12822.png
subject-05,1,510,1.34937906265259,airplane,airplane,c05,0510_cop_s05_c05_airplane_10_n02690373_2379.png
subject-05,1,511,0.610030174255371,bottle,bottle,c50,0511_cop_s05_c50_bottle_10_n04591713_832.png
subject-05,1,512,1.0481379032135,boat,bottle,c05,0512_cop_s05_c05_bottle_10_n04557648_2095.png
subject-05,1,513,1.15544199943542,dog,dog,c50,0513_cop_s05_c50_dog_10_n02097130_8004.png
subject-05,1,514,0.595860004425049,boat,oven,c10,0514_cop_s05_c10_oven_10_n04111531_9781.png
subject-05,1,515,0.47023606300354,clock,truck,c01,0515_cop_s05_c01_truck_10_n03417042_12002.png
subject-05,1,516,0.847016096115112,car,car,c30,0516_cop_s05_c30_car_10_n03100240_21833.png
subject-05,1,517,1.01559090614319,bird,bird,c03,0517_cop_s05_c03_bird_10_n01614925_472.png
subject-05,1,518,0.4810631275177,boat,elephant,c01,0518_cop_s05_c01_elephant_10_n02504458_349.png
subject-05,1,519,0.578866004943848,clock,clock,c30,0519_cop_s05_c30_clock_10_n04548280_1298.png
subject-05,1,520,0.776771783828735,clock,bear,c01,0520_cop_s05_c01_bear_10_n02133161_15585.png
subject-05,1,521,0.791239976882935,bottle,bottle,c30,0521_cop_s05_c30_bottle_10_n03937543_7554.png
subject-05,1,522,0.721451044082642,bottle,bottle,c50,0522_cop_s05_c50_bottle_10_n02823428_3111.png
subject-05,1,523,1.09570503234863,bear,bear,c100,0523_cop_s05_c100_bear_10_n02134084_6817.png
subject-05,1,524,0.57713508605957,oven,oven,c50,0524_cop_s05_c50_oven_10_n04111531_6567.png
subject-05,1,525,1.03749704360962,truck,truck,c05,0525_cop_s05_c05_truck_10_n04467665_5951.png
subject-05,1,526,0.945904970169067,truck,chair,c05,0526_cop_s05_c05_chair_10_n04099969_416.png
subject-05,1,527,0.728534936904907,keyboard,keyboard,c10,0527_cop_s05_c10_keyboard_10_n04505470_4422.png
subject-05,1,528,0.942453145980835,bottle,bottle,c05,0528_cop_s05_c05_bottle_10_n04579145_3924.png
subject-05,1,529,0.581073045730591,cat,knife,c01,0529_cop_s05_c01_knife_10_n03041632_19866.png
subject-05,1,530,0.584805011749268,bear,bear,c15,0530_cop_s05_c15_bear_10_n02132136_2765.png
subject-05,1,531,0.65291690826416,clock,clock,c05,0531_cop_s05_c05_clock_10_n02708093_3564.png
subject-05,1,532,1.18359422683716,bottle,bottle,c100,0532_cop_s05_c100_bottle_10_n04560804_13232.png
subject-05,1,533,0.995424032211304,keyboard,oven,c10,0533_cop_s05_c10_oven_10_n04111531_20914.png
subject-05,1,534,0.664026021957397,clock,bicycle,c01,0534_cop_s05_c01_bicycle_10_n02835271_2315.png
subject-05,1,535,0.494493007659912,cat,dog,c01,0535_cop_s05_c01_dog_10_n02107574_1277.png
subject-05,1,536,1.09198594093323,bear,bear,c30,0536_cop_s05_c30_bear_10_n02133161_2399.png
subject-05,1,537,0.523240804672241,oven,oven,c01,0537_cop_s05_c01_oven_10_n04111531_523.png
subject-05,1,538,0.58350682258606,boat,boat,c15,0538_cop_s05_c15_boat_10_n02951358_5863.png
subject-05,1,539,0.735460042953491,car,truck,c10,0539_cop_s05_c10_truck_10_n03796401_4454.png
subject-05,1,540,0.725337028503418,clock,clock,c100,0540_cop_s05_c100_clock_10_n02708093_1461.png
subject-05,1,541,0.785763025283813,dog,dog,c15,0541_cop_s05_c15_dog_10_n02087046_3439.png
subject-05,1,542,0.846346139907837,car,clock,c03,0542_cop_s05_c03_clock_10_n03196217_3323.png
subject-05,1,543,0.520140886306763,boat,boat,c03,0543_cop_s05_c03_boat_10_n03344393_3633.png
subject-05,1,544,0.917326927185059,airplane,airplane,c50,0544_cop_s05_c50_airplane_10_n02690373_5217.png
subject-05,1,545,1.22410702705383,bird,bird,c100,0545_cop_s05_c100_bird_10_n01833805_6528.png
subject-05,1,546,0.654500961303711,knife,knife,c50,0546_cop_s05_c50_knife_10_n03041632_22570.png
subject-05,1,547,0.728116035461426,keyboard,keyboard,c50,0547_cop_s05_c50_keyboard_10_n04505470_4965.png
subject-05,1,548,1.23422288894653,bottle,bottle,c10,0548_cop_s05_c10_bottle_10_n03937543_9863.png
subject-05,1,549,0.735072135925293,car,car,c50,0549_cop_s05_c50_car_10_n03100240_5488.png
subject-05,1,550,NaN,na,bear,c10,0550_cop_s05_c10_bear_10_n02133161_16064.png
subject-05,1,551,1.21168112754822,bird,bird,c05,0551_cop_s05_c05_bird_10_n01537544_6198.png
subject-05,1,552,0.717073202133179,knife,knife,c50,0552_cop_s05_c50_knife_10_n03041632_1607.png
subject-05,1,553,0.739392042160034,car,car,c15,0553_cop_s05_c15_car_10_n03100240_6577.png
subject-05,1,554,0.567614078521729,clock,bottle,c01,0554_cop_s05_c01_bottle_10_n04579145_3622.png
subject-05,1,555,1.49999904632568,airplane,airplane,c30,0555_cop_s05_c30_airplane_10_n02690373_5126.png
subject-05,1,556,0.872904062271118,clock,clock,c50,0556_cop_s05_c50_clock_10_n03196217_5103.png
subject-05,1,557,0.594779968261719,truck,truck,c30,0557_cop_s05_c30_truck_10_n04467665_1009.png
subject-05,1,558,0.617426156997681,bicycle,bicycle,c100,0558_cop_s05_c100_bicycle_10_n02835271_12608.png
subject-05,1,559,0.539891958236694,cat,truck,c01,0559_cop_s05_c01_truck_10_n04467665_68764.png
subject-05,1,560,0.660161972045898,airplane,airplane,c50,0560_cop_s05_c50_airplane_10_n02690373_9471.png
subject-05,1,561,0.682367086410522,bicycle,bicycle,c100,0561_cop_s05_c100_bicycle_10_n03792782_17324.png
subject-05,1,562,0.534897089004517,boat,bird,c03,0562_cop_s05_c03_bird_10_n01534433_14717.png
subject-05,1,563,0.756744861602783,bird,bird,c30,0563_cop_s05_c30_bird_10_n02007558_13051.png
subject-05,1,564,0.65543007850647,boat,truck,c01,0564_cop_s05_c01_truck_10_n03417042_6327.png
subject-05,1,565,0.839942932128906,car,car,c15,0565_cop_s05_c15_car_10_n02814533_2271.png
subject-05,1,566,0.700398206710815,keyboard,keyboard,c03,0566_cop_s05_c03_keyboard_10_n03085013_19055.png
subject-05,1,567,0.644016981124878,clock,clock,c10,0567_cop_s05_c10_clock_10_n02708093_4798.png
subject-05,1,568,0.679826974868774,car,car,c10,0568_cop_s05_c10_car_10_n02814533_12185.png
subject-05,1,569,0.594918966293335,boat,bird,c05,0569_cop_s05_c05_bird_10_n02002556_783.png
subject-05,1,570,0.485075950622559,clock,dog,c01,0570_cop_s05_c01_dog_10_n02093647_3335.png
subject-05,1,571,0.8229660987854,elephant,elephant,c10,0571_cop_s05_c10_elephant_10_n02504013_93.png
subject-05,1,572,0.459424018859863,boat,oven,c03,0572_cop_s05_c03_oven_10_n04111531_7603.png
subject-05,1,573,1.02023005485535,cat,cat,c30,0573_cop_s05_c30_cat_10_n02123597_11198.png
subject-05,1,574,0.680731058120728,car,truck,c10,0574_cop_s05_c10_truck_10_n04467665_37526.png
subject-05,1,575,1.15515303611755,truck,truck,c100,0575_cop_s05_c100_truck_10_n03417042_4126.png
subject-05,1,576,0.652652978897095,bicycle,bicycle,c10,0576_cop_s05_c10_bicycle_10_n02835271_25744.png
subject-05,1,577,0.741964101791382,car,car,c05,0577_cop_s05_c05_car_10_n04285008_1803.png
subject-05,1,578,0.471692800521851,boat,bottle,c01,0578_cop_s05_c01_bottle_10_n03983396_2856.png
subject-05,1,579,0.587949991226196,bicycle,bicycle,c50,0579_cop_s05_c50_bicycle_10_n03792782_44296.png
subject-05,1,580,0.693881034851074,elephant,elephant,c30,0580_cop_s05_c30_elephant_10_n02504013_3704.png
subject-05,1,581,0.502753019332886,cat,cat,c50,0581_cop_s05_c50_cat_10_n02125311_31318.png
subject-05,1,582,0.468408823013306,clock,clock,c100,0582_cop_s05_c100_clock_10_n04548280_9743.png
subject-05,1,583,0.828228950500488,knife,knife,c15,0583_cop_s05_c15_knife_10_n03041632_84869.png
subject-05,1,584,0.926814079284668,bottle,bottle,c05,0584_cop_s05_c05_bottle_10_n03937543_1143.png
subject-05,1,585,0.579165935516357,clock,clock,c10,0585_cop_s05_c10_clock_10_n02708093_4722.png
subject-05,1,586,0.593760013580322,knife,knife,c100,0586_cop_s05_c100_knife_10_n03041632_13509.png
subject-05,1,587,0.638047933578491,boat,bottle,c03,0587_cop_s05_c03_bottle_10_n03983396_4774.png
subject-05,1,588,0.430768013000488,clock,truck,c03,0588_cop_s05_c03_truck_10_n04467665_63487.png
subject-05,1,589,0.591222047805786,boat,cat,c03,0589_cop_s05_c03_cat_10_n02123597_6854.png
subject-05,1,590,0.467943906784058,cat,bicycle,c01,0590_cop_s05_c01_bicycle_10_n02835271_10932.png
subject-05,1,591,0.726477861404419,bottle,bottle,c05,0591_cop_s05_c05_bottle_10_n02823428_8257.png
subject-05,1,592,0.626703023910522,bear,bear,c100,0592_cop_s05_c100_bear_10_n02134418_3420.png
subject-05,1,593,0.787331819534302,oven,oven,c50,0593_cop_s05_c50_oven_10_n04111531_13479.png
subject-05,1,594,0.87797999382019,car,truck,c15,0594_cop_s05_c15_truck_10_n03796401_5323.png
subject-05,1,595,0.514318943023682,clock,clock,c100,0595_cop_s05_c100_clock_10_n03196217_5833.png
subject-05,1,596,0.966577053070068,bear,elephant,c50,0596_cop_s05_c50_elephant_10_n02504013_3602.png
subject-05,1,597,0.567373037338257,clock,chair,c30,0597_cop_s05_c30_chair_10_n02791124_3198.png
subject-05,1,598,0.549643039703369,boat,boat,c30,0598_cop_s05_c30_boat_10_n03344393_9852.png
subject-05,1,599,0.542277097702026,bear,bear,c100,0599_cop_s05_c100_bear_10_n02134418_4570.png
subject-05,1,600,0.810834169387817,knife,knife,c30,0600_cop_s05_c30_knife_10_n03041632_32785.png
subject-05,1,601,0.762682914733887,keyboard,car,c03,0601_cop_s05_c03_car_10_n03100240_7085.png
subject-05,1,602,0.499211072921753,boat,chair,c01,0602_cop_s05_c01_chair_10_n03376595_7065.png
subject-05,1,603,1.15161991119385,keyboard,keyboard,c03,0603_cop_s05_c03_keyboard_10_n03085013_19065.png
subject-05,1,604,0.641469955444336,clock,boat,c01,0604_cop_s05_c01_boat_10_n04273569_26151.png
subject-05,1,605,0.625850915908813,bicycle,bicycle,c15,0605_cop_s05_c15_bicycle_10_n03792782_21178.png
subject-05,1,606,0.891893863677979,truck,truck,c15,0606_cop_s05_c15_truck_10_n03417042_17862.png
subject-05,1,607,1.29028415679932,car,truck,c50,0607_cop_s05_c50_truck_10_n03796401_23550.png
subject-05,1,608,0.717101097106934,chair,chair,c100,0608_cop_s05_c100_chair_10_n02791124_7140.png
subject-05,1,609,0.645465850830078,oven,knife,c15,0609_cop_s05_c15_knife_10_n03041632_54191.png
subject-05,1,610,0.765352010726929,cat,truck,c03,0610_cop_s05_c03_truck_10_n03417042_19958.png
subject-05,1,611,1.22024989128113,bird,bird,c10,0611_cop_s05_c10_bird_10_n01531178_16413.png
subject-05,1,612,0.602743864059448,boat,oven,c01,0612_cop_s05_c01_oven_10_n04111531_8398.png
subject-05,1,613,0.71157693862915,chair,chair,c15,0613_cop_s05_c15_chair_10_n04099969_7342.png
subject-05,1,614,0.83144998550415,oven,chair,c05,0614_cop_s05_c05_chair_10_n02791124_10783.png
subject-05,1,615,0.553909063339233,boat,boat,c03,0615_cop_s05_c03_boat_10_n03344393_13937.png
subject-05,1,616,0.94412899017334,knife,knife,c30,0616_cop_s05_c30_knife_10_n03041632_10802.png
subject-05,1,617,0.696931838989258,bear,bear,c30,0617_cop_s05_c30_bear_10_n02133161_4830.png
subject-05,1,618,0.764593124389648,keyboard,keyboard,c03,0618_cop_s05_c03_keyboard_10_n04505470_4534.png
subject-05,1,619,0.871335029602051,car,car,c15,0619_cop_s05_c15_car_10_n04285008_10736.png
subject-05,1,620,0.631705045700073,boat,car,c01,0620_cop_s05_c01_car_10_n04285008_8296.png
subject-05,1,621,0.790138006210327,elephant,elephant,c30,0621_cop_s05_c30_elephant_10_n02504458_3463.png
subject-05,1,622,0.628931045532227,cat,oven,c50,0622_cop_s05_c50_oven_10_n04111531_21973.png
subject-05,1,623,0.803171157836914,oven,chair,c05,0623_cop_s05_c05_chair_10_n04429376_36830.png
subject-05,1,624,0.77158784866333,bicycle,bicycle,c10,0624_cop_s05_c10_bicycle_10_n02835271_18887.png
subject-05,1,625,0.82367205619812,airplane,airplane,c50,0625_cop_s05_c50_airplane_10_n02690373_6978.png
subject-05,1,626,0.707972049713135,boat,boat,c15,0626_cop_s05_c15_boat_10_n04273569_32341.png
subject-05,1,627,0.468677043914795,clock,truck,c01,0627_cop_s05_c01_truck_10_n04467665_64792.png
subject-05,1,628,0.521256923675537,oven,cat,c03,0628_cop_s05_c03_cat_10_n02123045_12084.png
subject-05,1,629,0.548991203308105,cat,cat,c05,0629_cop_s05_c05_cat_10_n02123045_15835.png
subject-05,1,630,0.49531102180481,boat,boat,c50,0630_cop_s05_c50_boat_10_n04612504_972.png
subject-05,1,631,0.494438886642456,clock,truck,c01,0631_cop_s05_c01_truck_10_n03417042_28394.png
subject-05,1,632,0.960933923721313,dog,dog,c30,0632_cop_s05_c30_dog_10_n02105855_10355.png
subject-05,1,633,0.56657600402832,oven,bottle,c01,0633_cop_s05_c01_bottle_10_n03983396_5873.png
subject-05,1,634,0.572201013565063,boat,boat,c50,0634_cop_s05_c50_boat_10_n03344393_9077.png
subject-05,1,635,0.693027973175049,bear,bear,c100,0635_cop_s05_c100_bear_10_n02132136_3759.png
subject-05,1,636,0.615885972976685,oven,chair,c05,0636_cop_s05_c05_chair_10_n04429376_28372.png
subject-05,1,637,0.478488206863403,clock,bird,c03,0637_cop_s05_c03_bird_10_n01530575_686.png
subject-05,1,638,1.19877290725708,dog,dog,c10,0638_cop_s05_c10_dog_10_n02101388_4978.png
subject-05,1,639,0.850528001785278,cat,boat,c15,0639_cop_s05_c15_boat_10_n03344393_5072.png
subject-05,1,640,0.77920389175415,keyboard,keyboard,c15,0640_cop_s05_c15_keyboard_10_n04505470_430.png
subject-05,1,641,0.60600209236145,truck,truck,c15,0641_cop_s05_c15_truck_10_n04467665_40171.png
subject-05,1,642,0.880552053451538,chair,chair,c50,0642_cop_s05_c50_chair_10_n04099969_16273.png
subject-05,1,643,0.848950147628784,elephant,elephant,c30,0643_cop_s05_c30_elephant_10_n02504458_3283.png
subject-05,1,644,0.585438966751099,boat,bear,c01,0644_cop_s05_c01_bear_10_n02132136_22701.png
subject-05,1,645,0.845837831497192,clock,chair,c03,0645_cop_s05_c03_chair_10_n02791124_1964.png
subject-05,1,646,1.0278959274292,bird,bird,c03,0646_cop_s05_c03_bird_10_n01601694_13018.png
subject-05,1,647,0.674206972122192,boat,elephant,c03,0647_cop_s05_c03_elephant_10_n02504013_6287.png
subject-05,1,648,0.856929063796997,car,car,c05,0648_cop_s05_c05_car_10_n04285008_6576.png
subject-05,1,649,1.13144898414612,boat,boat,c30,0649_cop_s05_c30_boat_10_n04612504_15875.png
subject-05,1,650,0.916065216064453,boat,boat,c30,0650_cop_s05_c30_boat_10_n03344393_7556.png
subject-05,1,651,0.424443960189819,boat,car,c01,0651_cop_s05_c01_car_10_n03100240_319.png
subject-05,1,652,0.606003999710083,car,car,c30,0652_cop_s05_c30_car_10_n03100240_5959.png
subject-05,1,653,0.626677989959717,boat,cat,c03,0653_cop_s05_c03_cat_10_n02124075_10849.png
subject-05,1,654,0.979027986526489,cat,bear,c15,0654_cop_s05_c15_bear_10_n02133161_2813.png
subject-05,1,655,0.654886960983276,clock,bottle,c03,0655_cop_s05_c03_bottle_10_n02823428_6034.png
subject-05,1,656,0.591842889785767,clock,clock,c05,0656_cop_s05_c05_clock_10_n03196217_5559.png
subject-05,1,657,1.34166598320007,keyboard,keyboard,c03,0657_cop_s05_c03_keyboard_10_n04505470_8512.png
subject-05,1,658,0.596537113189697,cat,cat,c100,0658_cop_s05_c100_cat_10_n02125311_8522.png
subject-05,1,659,0.564782857894897,boat,airplane,c01,0659_cop_s05_c01_airplane_10_n02690373_1492.png
subject-05,1,660,0.671289920806885,bicycle,bicycle,c15,0660_cop_s05_c15_bicycle_10_n03792782_19840.png
subject-05,1,661,1.09939002990723,car,chair,c50,0661_cop_s05_c50_chair_10_n03376595_13544.png
subject-05,1,662,0.596752882003784,keyboard,keyboard,c10,0662_cop_s05_c10_keyboard_10_n04505470_4206.png
subject-05,1,663,0.825146913528442,cat,dog,c05,0663_cop_s05_c05_dog_10_n02105855_19746.png
subject-05,1,664,0.622612953186035,car,car,c30,0664_cop_s05_c30_car_10_n02814533_88659.png
subject-05,1,665,0.729737997055054,car,car,c15,0665_cop_s05_c15_car_10_n02814533_2216.png
subject-05,1,666,0.719746112823486,cat,oven,c01,0666_cop_s05_c01_oven_10_n04111531_2960.png
subject-05,1,667,0.60447096824646,boat,knife,c01,0667_cop_s05_c01_knife_10_n03041632_13612.png
subject-05,1,668,0.656109094619751,bottle,bottle,c05,0668_cop_s05_c05_bottle_10_n03983396_2863.png
subject-05,1,669,0.576785087585449,cat,bear,c100,0669_cop_s05_c100_bear_10_n02134418_2967.png
subject-05,1,670,0.669160127639771,boat,elephant,c01,0670_cop_s05_c01_elephant_10_n02504458_242.png
subject-05,1,671,0.743658065795898,bicycle,bicycle,c05,0671_cop_s05_c05_bicycle_10_n03792782_1432.png
subject-05,1,672,0.550030946731567,boat,dog,c05,0672_cop_s05_c05_dog_10_n02112350_9951.png
subject-05,1,673,0.632402181625366,clock,clock,c50,0673_cop_s05_c50_clock_10_n04548280_7795.png
subject-05,1,674,0.43344521522522,cat,keyboard,c03,0674_cop_s05_c03_keyboard_10_n03085013_4553.png
subject-05,1,675,0.731909990310669,bear,bear,c10,0675_cop_s05_c10_bear_10_n02133161_292.png
subject-05,1,676,0.644258975982666,airplane,airplane,c10,0676_cop_s05_c10_airplane_10_n02690373_4042.png
subject-05,1,677,0.588038206100464,oven,truck,c03,0677_cop_s05_c03_truck_10_n03796401_15240.png
subject-05,1,678,0.494585037231445,clock,clock,c05,0678_cop_s05_c05_clock_10_n02708093_2394.png
subject-05,1,679,0.48443603515625,boat,cat,c05,0679_cop_s05_c05_cat_10_n02123159_6696.png
subject-05,1,680,0.799434185028076,chair,chair,c15,0680_cop_s05_c15_chair_10_n04099969_36418.png
subject-05,1,681,0.629696846008301,clock,clock,c03,0681_cop_s05_c03_clock_10_n02708093_2622.png
subject-05,1,682,0.865859031677246,airplane,airplane,c05,0682_cop_s05_c05_airplane_10_n02690373_18234.png
subject-05,1,683,0.670107841491699,bird,bird,c10,0683_cop_s05_c10_bird_10_n02027492_1484.png
subject-05,1,684,0.800297021865845,bicycle,bicycle,c15,0684_cop_s05_c15_bicycle_10_n02835271_19213.png
subject-05,1,685,0.850162029266357,airplane,airplane,c10,0685_cop_s05_c10_airplane_10_n02690373_6891.png
subject-05,1,686,0.78852105140686,airplane,truck,c30,0686_cop_s05_c30_truck_10_n04467665_29863.png
subject-05,1,687,0.938717842102051,car,truck,c03,0687_cop_s05_c03_truck_10_n04467665_68475.png
subject-05,1,688,0.67725682258606,clock,clock,c30,0688_cop_s05_c30_clock_10_n04548280_8156.png
subject-05,1,689,0.483831167221069,cat,cat,c10,0689_cop_s05_c10_cat_10_n02124075_14241.png
subject-05,1,690,0.674274921417236,dog,dog,c30,0690_cop_s05_c30_dog_10_n02102177_2666.png
subject-05,1,691,0.679980993270874,keyboard,keyboard,c100,0691_cop_s05_c100_keyboard_10_n04505470_1236.png
subject-05,1,692,0.808434963226318,knife,knife,c15,0692_cop_s05_c15_knife_10_n03041632_45312.png
subject-05,1,693,0.530068159103394,boat,bicycle,c01,0693_cop_s05_c01_bicycle_10_n02835271_1309.png
subject-05,1,694,0.658190011978149,clock,clock,c15,0694_cop_s05_c15_clock_10_n03196217_4361.png
subject-05,1,695,0.82401704788208,elephant,elephant,c10,0695_cop_s05_c10_elephant_10_n02504458_43.png
subject-05,1,696,0.530716896057129,boat,oven,c03,0696_cop_s05_c03_oven_10_n04111531_5216.png
subject-05,1,697,0.561017990112305,oven,oven,c50,0697_cop_s05_c50_oven_10_n04111531_6695.png
subject-05,1,698,0.59001612663269,cat,bear,c50,0698_cop_s05_c50_bear_10_n02133161_823.png
subject-05,1,699,0.596441984176636,bear,bear,c30,0699_cop_s05_c30_bear_10_n02132136_760.png
subject-05,1,700,0.680990934371948,keyboard,keyboard,c30,0700_cop_s05_c30_keyboard_10_n04505470_3666.png
subject-05,1,701,0.617290019989014,cat,cat,c10,0701_cop_s05_c10_cat_10_n02123394_2086.png
subject-05,1,702,1.07566690444946,bottle,bottle,c15,0702_cop_s05_c15_bottle_10_n02823428_3923.png
subject-05,1,703,0.982355117797852,oven,oven,c30,0703_cop_s05_c30_oven_10_n04111531_14325.png
subject-05,1,704,0.736959934234619,knife,knife,c100,0704_cop_s05_c100_knife_10_n03041632_23087.png
subject-05,1,705,0.673407077789307,knife,knife,c15,0705_cop_s05_c15_knife_10_n03041632_29684.png
subject-05,1,706,1.03374290466309,cat,bottle,c50,0706_cop_s05_c50_bottle_10_n04560804_15379.png
subject-05,1,707,0.616350889205933,clock,bear,c01,0707_cop_s05_c01_bear_10_n02134418_3330.png
subject-05,1,708,0.522255182266235,boat,airplane,c01,0708_cop_s05_c01_airplane_10_n02690373_4198.png
subject-05,1,709,NaN,na,elephant,c50,0709_cop_s05_c50_elephant_10_n02504458_7913.png
subject-05,1,710,1.14901781082153,keyboard,keyboard,c30,0710_cop_s05_c30_keyboard_10_n04505470_3193.png
subject-05,1,711,0.84782600402832,car,bicycle,c03,0711_cop_s05_c03_bicycle_10_n02835271_2015.png
subject-05,1,712,0.907947063446045,truck,truck,c50,0712_cop_s05_c50_truck_10_n03417042_12322.png
subject-05,1,713,0.692715883255005,bottle,bottle,c15,0713_cop_s05_c15_bottle_10_n04557648_3772.png
subject-05,1,714,1.24340009689331,dog,dog,c30,0714_cop_s05_c30_dog_10_n02097130_3704.png
subject-05,1,715,0.882143974304199,boat,knife,c01,0715_cop_s05_c01_knife_10_n03041632_4057.png
subject-05,1,716,0.634411811828613,clock,boat,c10,0716_cop_s05_c10_boat_10_n02951358_8806.png
subject-05,1,717,0.840369939804077,airplane,airplane,c10,0717_cop_s05_c10_airplane_10_n02690373_3984.png
subject-05,1,718,0.515359163284302,cat,oven,c05,0718_cop_s05_c05_oven_10_n04111531_9289.png
subject-05,1,719,0.561812162399292,oven,truck,c03,0719_cop_s05_c03_truck_10_n03796401_3391.png
subject-05,1,720,0.603667020797729,cat,cat,c10,0720_cop_s05_c10_cat_10_n02123045_4252.png
subject-05,1,721,0.487684965133667,cat,cat,c10,0721_cop_s05_c10_cat_10_n02123159_2598.png
subject-05,1,722,0.593606948852539,airplane,airplane,c30,0722_cop_s05_c30_airplane_10_n02690373_4486.png
subject-05,1,723,0.867547988891602,bird,bird,c50,0723_cop_s05_c50_bird_10_n01828970_10939.png
subject-05,1,724,0.457895040512085,cat,cat,c100,0724_cop_s05_c100_cat_10_n02125311_26547.png
subject-05,1,725,0.497020959854126,boat,knife,c03,0725_cop_s05_c03_knife_10_n03041632_49570.png
subject-05,1,726,0.587429046630859,bicycle,bicycle,c50,0726_cop_s05_c50_bicycle_10_n03792782_6250.png
subject-05,1,727,0.739979028701782,boat,boat,c15,0727_cop_s05_c15_boat_10_n02951358_34456.png
subject-05,1,728,0.84427809715271,car,car,c10,0728_cop_s05_c10_car_10_n03100240_10078.png
subject-05,1,729,0.499489784240723,boat,elephant,c05,0729_cop_s05_c05_elephant_10_n02504013_344.png
subject-05,1,730,0.956899881362915,elephant,elephant,c30,0730_cop_s05_c30_elephant_10_n02504458_1998.png
subject-05,1,731,0.687883138656616,bottle,bottle,c50,0731_cop_s05_c50_bottle_10_n04591713_2176.png
subject-05,1,732,0.653550863265991,chair,chair,c30,0732_cop_s05_c30_chair_10_n04099969_8961.png
subject-05,1,733,0.459763050079346,boat,bicycle,c05,0733_cop_s05_c05_bicycle_10_n03792782_11995.png
subject-05,1,734,0.758630037307739,bicycle,bicycle,c100,0734_cop_s05_c100_bicycle_10_n03792782_5639.png
subject-05,1,735,0.727082014083862,bear,bear,c15,0735_cop_s05_c15_bear_10_n02134418_2591.png
subject-05,1,736,0.947662115097046,chair,chair,c50,0736_cop_s05_c50_chair_10_n04429376_33792.png
subject-05,1,737,0.615512132644653,chair,chair,c100,0737_cop_s05_c100_chair_10_n04429376_16091.png
subject-05,1,738,0.65701699256897,boat,bottle,c01,0738_cop_s05_c01_bottle_10_n04557648_10455.png
subject-05,1,739,0.441165924072266,clock,boat,c05,0739_cop_s05_c05_boat_10_n03344393_5091.png
subject-05,1,740,0.463840961456299,cat,cat,c15,0740_cop_s05_c15_cat_10_n02123159_3507.png
subject-05,1,741,0.568291187286377,boat,bear,c05,0741_cop_s05_c05_bear_10_n02134084_1802.png
subject-05,1,742,0.674616098403931,airplane,airplane,c30,0742_cop_s05_c30_airplane_10_n02690373_7300.png
subject-05,1,743,0.572762012481689,clock,oven,c30,0743_cop_s05_c30_oven_10_n04111531_6622.png
subject-05,1,744,0.64127516746521,oven,elephant,c01,0744_cop_s05_c01_elephant_10_n02504458_237.png
subject-05,1,745,0.785176038742065,airplane,airplane,c50,0745_cop_s05_c50_airplane_10_n02690373_813.png
subject-05,1,746,0.514180898666382,boat,boat,c01,0746_cop_s05_c01_boat_10_n02951358_34441.png
subject-05,1,747,0.560363054275513,clock,chair,c15,0747_cop_s05_c15_chair_10_n02791124_3245.png
subject-05,1,748,0.715139865875244,chair,chair,c30,0748_cop_s05_c30_chair_10_n04429376_2311.png
subject-05,1,749,0.5833899974823,oven,boat,c05,0749_cop_s05_c05_boat_10_n02951358_4700.png
subject-05,1,750,0.497772932052612,boat,boat,c15,0750_cop_s05_c15_boat_10_n04612504_19983.png
subject-05,1,751,0.788213968276978,knife,knife,c10,0751_cop_s05_c10_knife_10_n03041632_31271.png
subject-05,1,752,0.618725061416626,clock,clock,c50,0752_cop_s05_c50_clock_10_n02708093_8309.png
subject-05,1,753,0.655464887619019,oven,oven,c100,0753_cop_s05_c100_oven_10_n04111531_2433.png
subject-05,1,754,0.637859106063843,keyboard,keyboard,c15,0754_cop_s05_c15_keyboard_10_n04505470_1529.png
subject-05,1,755,0.459680080413818,clock,clock,c30,0755_cop_s05_c30_clock_10_n02708093_603.png
subject-05,1,756,0.541672945022583,cat,bird,c01,0756_cop_s05_c01_bird_10_n01616318_12494.png
subject-05,1,757,0.807951927185059,knife,knife,c10,0757_cop_s05_c10_knife_10_n03041632_4214.png
subject-05,1,758,0.614729166030884,cat,cat,c50,0758_cop_s05_c50_cat_10_n02123159_5629.png
subject-05,1,759,0.667041063308716,knife,knife,c100,0759_cop_s05_c100_knife_10_n03041632_16172.png
subject-05,1,760,0.89767599105835,dog,dog,c10,0760_cop_s05_c10_dog_10_n02093859_221.png
subject-05,1,761,1.43205499649048,airplane,airplane,c10,0761_cop_s05_c10_airplane_10_n02690373_13591.png
subject-05,1,762,0.71658992767334,cat,bear,c15,0762_cop_s05_c15_bear_10_n02134084_7012.png
subject-05,1,763,0.62244701385498,boat,bottle,c10,0763_cop_s05_c10_bottle_10_n03937543_7230.png
subject-05,1,764,0.628228902816772,clock,clock,c03,0764_cop_s05_c03_clock_10_n04548280_3234.png
subject-05,1,765,1.28655600547791,elephant,elephant,c100,0765_cop_s05_c100_elephant_10_n02504458_4939.png
subject-05,1,766,0.733165979385376,keyboard,keyboard,c50,0766_cop_s05_c50_keyboard_10_n03085013_20460.png
subject-05,1,767,0.620773077011108,boat,cat,c05,0767_cop_s05_c05_cat_10_n02123597_543.png
subject-05,1,768,0.835232019424438,bear,bear,c100,0768_cop_s05_c100_bear_10_n02134084_18582.png
subject-05,1,769,0.558713912963867,cat,cat,c50,0769_cop_s05_c50_cat_10_n02125311_18349.png
subject-05,1,770,0.697378158569336,bicycle,bicycle,c10,0770_cop_s05_c10_bicycle_10_n03792782_34271.png
subject-05,1,771,0.816766977310181,car,car,c10,0771_cop_s05_c10_car_10_n03100240_17505.png
subject-05,1,772,0.666365146636963,cat,elephant,c05,0772_cop_s05_c05_elephant_10_n02504013_3640.png
subject-05,1,773,1.25673413276672,clock,chair,c01,0773_cop_s05_c01_chair_10_n03376595_14595.png
subject-05,1,774,0.655412912368774,chair,chair,c100,0774_cop_s05_c100_chair_10_n02791124_4475.png
subject-05,1,775,0.862035036087036,bottle,bottle,c30,0775_cop_s05_c30_bottle_10_n02823428_4994.png
subject-05,1,776,0.760215997695923,cat,elephant,c10,0776_cop_s05_c10_elephant_10_n02504458_277.png
subject-05,1,777,0.634110927581787,bicycle,bicycle,c100,0777_cop_s05_c100_bicycle_10_n03792782_4796.png
subject-05,1,778,0.816603183746338,bottle,bottle,c100,0778_cop_s05_c100_bottle_10_n04579145_1174.png
subject-05,1,779,0.663048982620239,bear,bear,c10,0779_cop_s05_c10_bear_10_n02132136_27682.png
subject-05,1,780,1.25101208686829,bottle,bottle,c10,0780_cop_s05_c10_bottle_10_n04560804_15390.png
subject-05,1,781,0.703089952468872,airplane,airplane,c100,0781_cop_s05_c100_airplane_10_n02690373_4183.png
subject-05,1,782,0.739799022674561,boat,oven,c01,0782_cop_s05_c01_oven_10_n04111531_2024.png
subject-05,1,783,0.708009958267212,car,car,c50,0783_cop_s05_c50_car_10_n04285008_3274.png
subject-05,1,784,0.567754030227661,clock,clock,c05,0784_cop_s05_c05_clock_10_n04548280_1474.png
subject-05,1,785,0.642838001251221,boat,bottle,c01,0785_cop_s05_c01_bottle_10_n04560804_8076.png
subject-05,1,786,0.581519842147827,clock,chair,c05,0786_cop_s05_c05_chair_10_n03376595_3043.png
subject-05,1,787,0.755509853363037,bird,bird,c15,0787_cop_s05_c15_bird_10_n02027492_2818.png
subject-05,1,788,0.584083080291748,boat,truck,c01,0788_cop_s05_c01_truck_10_n04467665_67592.png
subject-05,1,789,1.47185111045837,bottle,bottle,c05,0789_cop_s05_c05_bottle_10_n03983396_4361.png
subject-05,1,790,0.694023847579956,keyboard,keyboard,c50,0790_cop_s05_c50_keyboard_10_n04505470_5036.png
subject-05,1,791,1.42797088623047,airplane,airplane,c10,0791_cop_s05_c10_airplane_10_n02690373_6492.png
subject-05,1,792,0.558493137359619,boat,truck,c05,0792_cop_s05_c05_truck_10_n04467665_1956.png
subject-05,1,793,0.908438920974731,car,car,c15,0793_cop_s05_c15_car_10_n04285008_5114.png
subject-05,1,794,0.800797939300537,cat,elephant,c05,0794_cop_s05_c05_elephant_10_n02504013_3459.png
subject-05,1,795,1.31332015991211,chair,chair,c15,0795_cop_s05_c15_chair_10_n02791124_16085.png
subject-05,1,796,0.64156699180603,clock,cat,c01,0796_cop_s05_c01_cat_10_n02125311_6502.png
subject-05,1,797,0.526059150695801,cat,bicycle,c01,0797_cop_s05_c01_bicycle_10_n03792782_13608.png
subject-05,1,798,1.24639201164246,knife,knife,c15,0798_cop_s05_c15_knife_10_n03041632_45775.png
subject-05,1,799,0.77431321144104,chair,chair,c100,0799_cop_s05_c100_chair_10_n02791124_8604.png
subject-05,1,800,0.756645917892456,bottle,bottle,c50,0800_cop_s05_c50_bottle_10_n03983396_9901.png
subject-05,1,801,0.847445011138916,boat,airplane,c01,0801_cop_s05_c01_airplane_10_n02690373_20350.png
subject-05,1,802,0.79065203666687,knife,knife,c05,0802_cop_s05_c05_knife_10_n03041632_11613.png
subject-05,1,803,0.819205045700073,clock,knife,c01,0803_cop_s05_c01_knife_10_n03041632_24541.png
subject-05,1,804,1.0317850112915,clock,chair,c100,0804_cop_s05_c100_chair_10_n04429376_20935.png
subject-05,1,805,0.984225988388062,bottle,knife,c50,0805_cop_s05_c50_knife_10_n03041632_86118.png
subject-05,1,806,1.49876999855042,car,car,c10,0806_cop_s05_c10_car_10_n04285008_10703.png
subject-05,1,807,0.434315919876099,clock,knife,c03,0807_cop_s05_c03_knife_10_n03041632_39883.png
subject-05,1,808,0.464629888534546,boat,clock,c03,0808_cop_s05_c03_clock_10_n03196217_8792.png
subject-05,1,809,0.546742916107178,truck,truck,c50,0809_cop_s05_c50_truck_10_n03417042_24020.png
subject-05,1,810,0.691218137741089,clock,chair,c03,0810_cop_s05_c03_chair_10_n03376595_13364.png
subject-05,1,811,0.848772048950195,chair,chair,c30,0811_cop_s05_c30_chair_10_n02791124_5893.png
subject-05,1,812,1.26898097991943,bear,dog,c05,0812_cop_s05_c05_dog_10_n02100735_5131.png
subject-05,1,813,0.850255966186523,car,car,c10,0813_cop_s05_c10_car_10_n03100240_2052.png
subject-05,1,814,0.624653100967407,cat,cat,c30,0814_cop_s05_c30_cat_10_n02123394_1858.png
subject-05,1,815,0.684556007385254,chair,chair,c30,0815_cop_s05_c30_chair_10_n04429376_15534.png
subject-05,1,816,0.642942905426025,bicycle,bicycle,c15,0816_cop_s05_c15_bicycle_10_n02835271_173.png
subject-05,1,817,1.0720100402832,bird,bird,c05,0817_cop_s05_c05_bird_10_n01855672_4879.png
subject-05,1,818,0.877591133117676,dog,dog,c100,0818_cop_s05_c100_dog_10_n02101006_8237.png
subject-05,1,819,0.897475957870483,dog,dog,c15,0819_cop_s05_c15_dog_10_n02086079_30372.png
subject-05,1,820,0.710139036178589,bird,bird,c100,0820_cop_s05_c100_bird_10_n01582220_8303.png
subject-05,1,821,0.510580062866211,cat,chair,c01,0821_cop_s05_c01_chair_10_n03376595_652.png
subject-05,1,822,0.714958906173706,chair,chair,c100,0822_cop_s05_c100_chair_10_n03376595_6171.png
subject-05,1,823,0.559513092041016,boat,chair,c03,0823_cop_s05_c03_chair_10_n04429376_2936.png
subject-05,1,824,0.481580972671509,clock,cat,c01,0824_cop_s05_c01_cat_10_n02123159_215.png
subject-05,1,825,0.56400203704834,bottle,bottle,c100,0825_cop_s05_c100_bottle_10_n04579145_2809.png
subject-05,1,826,0.583956003189087,chair,chair,c100,0826_cop_s05_c100_chair_10_n02791124_16237.png
subject-05,1,827,0.712340831756592,knife,knife,c50,0827_cop_s05_c50_knife_10_n03041632_40652.png
subject-05,1,828,0.632961988449097,chair,chair,c15,0828_cop_s05_c15_chair_10_n03376595_9658.png
subject-05,1,829,0.630557775497437,clock,chair,c03,0829_cop_s05_c03_chair_10_n04429376_1326.png
subject-05,1,830,0.937457084655762,truck,truck,c15,0830_cop_s05_c15_truck_10_n03417042_11603.png
subject-05,1,831,1.04169607162476,bear,bear,c01,0831_cop_s05_c01_bear_10_n02134418_2539.png
subject-05,1,832,0.818222999572754,clock,clock,c15,0832_cop_s05_c15_clock_10_n02708093_2823.png
subject-05,1,833,1.05217695236206,dog,dog,c50,0833_cop_s05_c50_dog_10_n02097209_2793.png
subject-05,1,834,1.09607601165771,cat,bear,c30,0834_cop_s05_c30_bear_10_n02134418_5915.png
subject-05,1,835,0.502307891845703,boat,car,c01,0835_cop_s05_c01_car_10_n04285008_9234.png
subject-05,1,836,0.646793127059937,airplane,airplane,c03,0836_cop_s05_c03_airplane_10_n02690373_4148.png
subject-05,1,837,0.474644899368286,boat,boat,c03,0837_cop_s05_c03_boat_10_n04612504_488.png
subject-05,1,838,0.873046875,oven,keyboard,c30,0838_cop_s05_c30_keyboard_10_n03085013_6963.png
subject-05,1,839,0.679616928100586,clock,bear,c01,0839_cop_s05_c01_bear_10_n02134084_67.png
subject-05,1,840,0.399574041366577,boat,bird,c01,0840_cop_s05_c01_bird_10_n01622779_6209.png
subject-05,1,841,0.489435911178589,clock,clock,c15,0841_cop_s05_c15_clock_10_n04548280_5127.png
subject-05,1,842,0.633635997772217,oven,bird,c01,0842_cop_s05_c01_bird_10_n01819313_1154.png
subject-05,1,843,0.978602170944214,keyboard,bottle,c03,0843_cop_s05_c03_bottle_10_n02823428_1401.png
subject-05,1,844,0.544633150100708,cat,bird,c10,0844_cop_s05_c10_bird_10_n02007558_11399.png
subject-05,1,845,0.566803932189941,clock,knife,c15,0845_cop_s05_c15_knife_10_n03041632_16020.png
subject-05,1,846,0.68678092956543,bird,bird,c100,0846_cop_s05_c100_bird_10_n01592084_4864.png
subject-05,1,847,0.899111986160278,keyboard,keyboard,c50,0847_cop_s05_c50_keyboard_10_n03085013_22698.png
subject-05,1,848,0.805811882019043,truck,truck,c30,0848_cop_s05_c30_truck_10_n03796401_932.png
subject-05,1,849,0.795762062072754,boat,dog,c03,0849_cop_s05_c03_dog_10_n02106382_14250.png
subject-05,1,850,0.70728588104248,clock,bear,c10,0850_cop_s05_c10_bear_10_n02133161_4820.png
subject-05,1,851,0.710294008255005,oven,bird,c01,0851_cop_s05_c01_bird_10_n02025239_2482.png
subject-05,1,852,0.569884061813354,cat,bird,c05,0852_cop_s05_c05_bird_10_n01843383_3074.png
subject-05,1,853,0.598132133483887,oven,oven,c30,0853_cop_s05_c30_oven_10_n04111531_23668.png
subject-05,1,854,0.726058959960938,bottle,bottle,c100,0854_cop_s05_c100_bottle_10_n03937543_1433.png
subject-05,1,855,0.499674081802368,boat,bicycle,c01,0855_cop_s05_c01_bicycle_10_n02835271_64.png
subject-05,1,856,0.957918882369995,bicycle,truck,c01,0856_cop_s05_c01_truck_10_n03796401_4605.png
subject-05,1,857,0.555513143539429,bear,oven,c03,0857_cop_s05_c03_oven_10_n04111531_3575.png
subject-05,1,858,0.675900936126709,keyboard,keyboard,c15,0858_cop_s05_c15_keyboard_10_n03085013_20736.png
subject-05,1,859,0.957886934280396,bird,cat,c30,0859_cop_s05_c30_cat_10_n02123045_8581.png
subject-05,1,860,0.840468168258667,boat,boat,c50,0860_cop_s05_c50_boat_10_n02951358_218.png
subject-05,1,861,0.715966939926147,clock,clock,c30,0861_cop_s05_c30_clock_10_n04548280_7436.png
subject-05,1,862,0.482437133789062,clock,clock,c100,0862_cop_s05_c100_clock_10_n03196217_12131.png
subject-05,1,863,0.68093204498291,airplane,airplane,c15,0863_cop_s05_c15_airplane_10_n02690373_7099.png
subject-05,1,864,0.68812108039856,dog,dog,c100,0864_cop_s05_c100_dog_10_n02097047_2350.png
subject-05,1,865,0.702422142028809,oven,oven,c100,0865_cop_s05_c100_oven_10_n04111531_766.png
subject-05,1,866,0.638969898223877,cat,elephant,c10,0866_cop_s05_c10_elephant_10_n02504458_1575.png
subject-05,1,867,1.15173482894897,oven,oven,c100,0867_cop_s05_c100_oven_10_n04111531_9370.png
subject-05,1,868,0.504215002059937,oven,oven,c10,0868_cop_s05_c10_oven_10_n04111531_11279.png
subject-05,1,869,0.862013101577759,bicycle,bicycle,c100,0869_cop_s05_c100_bicycle_10_n02835271_10931.png
subject-05,1,870,0.592400074005127,boat,boat,c50,0870_cop_s05_c50_boat_10_n02951358_11707.png
subject-05,1,871,0.513323068618774,clock,bicycle,c01,0871_cop_s05_c01_bicycle_10_n02835271_2620.png
subject-05,1,872,0.820235967636108,car,car,c30,0872_cop_s05_c30_car_10_n04285008_3351.png
subject-05,1,873,0.756131887435913,boat,cat,c05,0873_cop_s05_c05_cat_10_n02125311_23076.png
subject-05,1,874,0.860258102416992,car,car,c30,0874_cop_s05_c30_car_10_n04285008_6775.png
subject-05,1,875,0.705099105834961,cat,dog,c03,0875_cop_s05_c03_dog_10_n02091134_3340.png
subject-05,1,876,0.86561107635498,oven,oven,c15,0876_cop_s05_c15_oven_10_n04111531_2458.png
subject-05,1,877,0.772234916687012,boat,oven,c03,0877_cop_s05_c03_oven_10_n04111531_5126.png
subject-05,1,878,0.892505884170532,oven,knife,c10,0878_cop_s05_c10_knife_10_n03041632_33225.png
subject-05,1,879,1.0049090385437,cat,chair,c05,0879_cop_s05_c05_chair_10_n04099969_14176.png
subject-05,1,880,0.689391136169434,cat,knife,c10,0880_cop_s05_c10_knife_10_n03041632_2973.png
subject-05,1,881,0.509206771850586,clock,cat,c03,0881_cop_s05_c03_cat_10_n02123159_4014.png
subject-05,1,882,0.631910085678101,boat,cat,c03,0882_cop_s05_c03_cat_10_n02123045_12060.png
subject-05,1,883,0.790235042572021,knife,knife,c05,0883_cop_s05_c05_knife_10_n03041632_47759.png
subject-05,1,884,0.664249897003174,bird,bird,c50,0884_cop_s05_c50_bird_10_n02011460_29.png
subject-05,1,885,0.616631984710693,clock,clock,c10,0885_cop_s05_c10_clock_10_n02708093_1908.png
subject-05,1,886,0.644372940063477,airplane,airplane,c50,0886_cop_s05_c50_airplane_10_n02690373_1815.png
subject-05,1,887,0.691226005554199,clock,bird,c05,0887_cop_s05_c05_bird_10_n02018207_3273.png
subject-05,1,888,0.865910053253174,car,car,c30,0888_cop_s05_c30_car_10_n02814533_31430.png
subject-05,1,889,1.16438508033752,dog,dog,c50,0889_cop_s05_c50_dog_10_n02091134_10545.png
subject-05,1,890,1.06864404678345,truck,truck,c05,0890_cop_s05_c05_truck_10_n03417042_10362.png
subject-05,1,891,1.35932207107544,boat,oven,c10,0891_cop_s05_c10_oven_10_n04111531_1009.png
subject-05,1,892,1.09539699554443,car,car,c03,0892_cop_s05_c03_car_10_n04285008_5040.png
subject-05,1,893,0.650527954101562,cat,elephant,c01,0893_cop_s05_c01_elephant_10_n02504458_5853.png
subject-05,1,894,0.611166000366211,bicycle,bicycle,c10,0894_cop_s05_c10_bicycle_10_n02835271_6919.png
subject-05,1,895,0.531538963317871,cat,chair,c100,0895_cop_s05_c100_chair_10_n02791124_7232.png
subject-05,1,896,0.700520038604736,airplane,airplane,c10,0896_cop_s05_c10_airplane_10_n02690373_5344.png
subject-05,1,897,0.607099056243896,boat,dog,c03,0897_cop_s05_c03_dog_10_n02091467_218.png
subject-05,1,898,0.429322004318237,cat,bicycle,c03,0898_cop_s05_c03_bicycle_10_n03792782_9991.png
subject-05,1,899,0.695997953414917,car,car,c03,0899_cop_s05_c03_car_10_n02814533_20788.png
subject-05,1,900,0.988401889801025,keyboard,keyboard,c10,0900_cop_s05_c10_keyboard_10_n03085013_23649.png
subject-05,1,901,0.616557836532593,bottle,bottle,c10,0901_cop_s05_c10_bottle_10_n04579145_1436.png
subject-05,1,902,0.522762060165405,bicycle,bicycle,c50,0902_cop_s05_c50_bicycle_10_n03792782_23535.png
subject-05,1,903,0.897150993347168,boat,keyboard,c05,0903_cop_s05_c05_keyboard_10_n03085013_18966.png
subject-05,1,904,0.443594932556152,clock,bird,c01,0904_cop_s05_c01_bird_10_n01614925_13227.png
subject-05,1,905,0.496443033218384,boat,boat,c50,0905_cop_s05_c50_boat_10_n03344393_4482.png
subject-05,1,906,0.486639022827148,clock,clock,c100,0906_cop_s05_c100_clock_10_n02708093_3385.png
subject-05,1,907,0.69887113571167,bird,bird,c15,0907_cop_s05_c15_bird_10_n01829413_3340.png
subject-05,1,908,0.475220918655396,boat,clock,c10,0908_cop_s05_c10_clock_10_n03196217_9589.png
subject-05,1,909,0.574327945709229,bicycle,bicycle,c50,0909_cop_s05_c50_bicycle_10_n03792782_6504.png
subject-05,1,910,0.601933002471924,bottle,bottle,c30,0910_cop_s05_c30_bottle_10_n04591713_2194.png
subject-05,1,911,0.830249786376953,car,truck,c30,0911_cop_s05_c30_truck_10_n03796401_2784.png
subject-05,1,912,0.536734104156494,boat,boat,c50,0912_cop_s05_c50_boat_10_n03662601_13282.png
subject-05,1,913,0.550816059112549,boat,boat,c30,0913_cop_s05_c30_boat_10_n03662601_5639.png
subject-05,1,914,0.678853034973145,boat,knife,c03,0914_cop_s05_c03_knife_10_n03041632_32292.png
subject-05,1,915,0.614677906036377,cat,cat,c100,0915_cop_s05_c100_cat_10_n02123045_3144.png
subject-05,1,916,0.907815933227539,bicycle,bicycle,c30,0916_cop_s05_c30_bicycle_10_n03792782_5040.png
subject-05,1,917,0.789328098297119,chair,chair,c10,0917_cop_s05_c10_chair_10_n03376595_15468.png
subject-05,1,918,0.487925052642822,car,car,c100,0918_cop_s05_c100_car_10_n02814533_2905.png
subject-05,1,919,0.762415170669556,knife,knife,c50,0919_cop_s05_c50_knife_10_n03041632_34676.png
subject-05,1,920,0.822636842727661,bicycle,bicycle,c01,0920_cop_s05_c01_bicycle_10_n02835271_840.png
subject-05,1,921,1.17511796951294,keyboard,keyboard,c15,0921_cop_s05_c15_keyboard_10_n03085013_3148.png
subject-05,1,922,0.573940992355347,cat,cat,c15,0922_cop_s05_c15_cat_10_n02123159_2096.png
subject-05,1,923,1.36442589759827,bicycle,bicycle,c30,0923_cop_s05_c30_bicycle_10_n02835271_2075.png
subject-05,1,924,0.70027494430542,keyboard,keyboard,c50,0924_cop_s05_c50_keyboard_10_n04505470_4669.png
subject-05,1,925,0.569055795669556,boat,truck,c03,0925_cop_s05_c03_truck_10_n03417042_1907.png
subject-05,1,926,0.829159021377563,elephant,elephant,c05,0926_cop_s05_c05_elephant_10_n02504458_6917.png
subject-05,1,927,1.50038504600525,cat,bird,c10,0927_cop_s05_c10_bird_10_n01817953_1656.png
subject-05,1,928,0.986273765563965,dog,dog,c50,0928_cop_s05_c50_dog_10_n02104029_339.png
subject-05,1,929,0.440582036972046,boat,oven,c05,0929_cop_s05_c05_oven_10_n04111531_21963.png
subject-05,1,930,0.70729398727417,keyboard,keyboard,c10,0930_cop_s05_c10_keyboard_10_n03085013_22980.png
subject-05,1,931,0.789386034011841,car,car,c15,0931_cop_s05_c15_car_10_n04285008_8099.png
subject-05,1,932,0.933225154876709,bear,bear,c15,0932_cop_s05_c15_bear_10_n02133161_8662.png
subject-05,1,933,0.885172128677368,elephant,elephant,c10,0933_cop_s05_c10_elephant_10_n02504013_3418.png
subject-05,1,934,1.08898901939392,knife,knife,c03,0934_cop_s05_c03_knife_10_n03041632_28009.png
subject-05,1,935,0.667881011962891,boat,knife,c01,0935_cop_s05_c01_knife_10_n03041632_11700.png
subject-05,1,936,0.996118068695068,dog,dog,c30,0936_cop_s05_c30_dog_10_n02104365_9602.png
subject-05,1,937,0.648628950119019,bird,bird,c30,0937_cop_s05_c30_bird_10_n02027492_8765.png
subject-05,1,938,0.513274908065796,cat,bicycle,c10,0938_cop_s05_c10_bicycle_10_n03792782_2905.png
subject-05,1,939,0.957808971405029,cat,cat,c15,0939_cop_s05_c15_cat_10_n02124075_4346.png
subject-05,1,940,0.723286151885986,airplane,airplane,c100,0940_cop_s05_c100_airplane_10_n02690373_17011.png
subject-05,1,941,0.645838022232056,oven,boat,c15,0941_cop_s05_c15_boat_10_n02951358_5321.png
subject-05,1,942,0.781991958618164,boat,oven,c03,0942_cop_s05_c03_oven_10_n04111531_19742.png
subject-05,1,943,1.08860301971436,cat,chair,c01,0943_cop_s05_c01_chair_10_n04429376_12691.png
subject-05,1,944,0.803313016891479,dog,dog,c15,0944_cop_s05_c15_dog_10_n02092002_7360.png
subject-05,1,945,0.722711086273193,bear,bear,c50,0945_cop_s05_c50_bear_10_n02134084_23227.png
subject-05,1,946,0.675027132034302,bottle,bottle,c100,0946_cop_s05_c100_bottle_10_n04591713_5476.png
subject-05,1,947,0.635040998458862,truck,truck,c30,0947_cop_s05_c30_truck_10_n04467665_24190.png
subject-05,1,948,0.586910963058472,oven,oven,c15,0948_cop_s05_c15_oven_10_n04111531_8984.png
subject-05,1,949,0.568637847900391,cat,bear,c03,0949_cop_s05_c03_bear_10_n02133161_5606.png
subject-05,1,950,0.537307024002075,clock,oven,c05,0950_cop_s05_c05_oven_10_n04111531_2074.png
subject-05,1,951,1.42505192756653,car,car,c05,0951_cop_s05_c05_car_10_n02814533_4687.png
subject-05,1,952,0.947443962097168,boat,boat,c05,0952_cop_s05_c05_boat_10_n02951358_17403.png
subject-05,1,953,0.877488136291504,car,car,c03,0953_cop_s05_c03_car_10_n02814533_13150.png
subject-05,1,954,0.729883909225464,bottle,bottle,c100,0954_cop_s05_c100_bottle_10_n03983396_5828.png
subject-05,1,955,0.444849967956543,boat,boat,c01,0955_cop_s05_c01_boat_10_n02951358_30612.png
subject-05,1,956,0.526808977127075,clock,knife,c01,0956_cop_s05_c01_knife_10_n03041632_22734.png
subject-05,1,957,0.641337871551514,oven,oven,c15,0957_cop_s05_c15_oven_10_n04111531_9342.png
subject-05,1,958,0.871926069259644,cat,dog,c05,0958_cop_s05_c05_dog_10_n02098105_3444.png
subject-05,1,959,1.4295060634613,bicycle,bicycle,c03,0959_cop_s05_c03_bicycle_10_n02835271_8324.png
subject-05,1,960,0.513351917266846,clock,clock,c10,0960_cop_s05_c10_clock_10_n03196217_6999.png
subject-05,1,961,0.825845956802368,car,car,c10,0961_cop_s05_c10_car_10_n03100240_15382.png
subject-05,1,962,1.24616599082947,bear,bear,c30,0962_cop_s05_c30_bear_10_n02134418_3211.png
subject-05,1,963,1.16791009902954,oven,oven,c10,0963_cop_s05_c10_oven_10_n04111531_5093.png
subject-05,1,964,0.966264963150024,knife,knife,c10,0964_cop_s05_c10_knife_10_n03041632_383.png
subject-05,1,965,0.866791963577271,truck,truck,c100,0965_cop_s05_c100_truck_10_n04467665_3193.png
subject-05,1,966,1.50029897689819,car,car,c03,0966_cop_s05_c03_car_10_n02814533_58929.png
subject-05,1,967,0.659329175949097,keyboard,keyboard,c100,0967_cop_s05_c100_keyboard_10_n04505470_1120.png
subject-05,1,968,0.833959817886353,dog,dog,c15,0968_cop_s05_c15_dog_10_n02086910_8012.png
subject-05,1,969,0.863805055618286,keyboard,keyboard,c05,0969_cop_s05_c05_keyboard_10_n03085013_4600.png
subject-05,1,970,0.823881149291992,airplane,airplane,c15,0970_cop_s05_c15_airplane_10_n02690373_10112.png
subject-05,1,971,0.543663024902344,boat,keyboard,c01,0971_cop_s05_c01_keyboard_10_n03085013_23312.png
subject-05,1,972,1.06631898880005,bottle,bottle,c100,0972_cop_s05_c100_bottle_10_n04560804_1785.png
subject-05,1,973,1.32481789588928,truck,truck,c50,0973_cop_s05_c50_truck_10_n03417042_5659.png
subject-05,1,974,0.954463958740234,bird,bird,c10,0974_cop_s05_c10_bird_10_n02027492_10113.png
subject-05,1,975,0.960984945297241,dog,dog,c10,0975_cop_s05_c10_dog_10_n02097047_3429.png
subject-05,1,976,1.02939796447754,bottle,bottle,c10,0976_cop_s05_c10_bottle_10_n04591713_5377.png
subject-05,1,977,0.635208129882812,bottle,bottle,c10,0977_cop_s05_c10_bottle_10_n04591713_6874.png
subject-05,1,978,0.709005832672119,airplane,airplane,c15,0978_cop_s05_c15_airplane_10_n02690373_19286.png
subject-05,1,979,0.532136917114258,bicycle,bicycle,c30,0979_cop_s05_c30_bicycle_10_n02835271_2753.png
subject-05,1,980,0.500185966491699,boat,keyboard,c03,0980_cop_s05_c03_keyboard_10_n03085013_23731.png
subject-05,1,981,0.528211116790771,cat,chair,c03,0981_cop_s05_c03_chair_10_n04429376_19617.png
subject-05,1,982,0.942279100418091,truck,truck,c30,0982_cop_s05_c30_truck_10_n03796401_6966.png
subject-05,1,983,0.840620040893555,cat,dog,c50,0983_cop_s05_c50_dog_10_n02091134_917.png
subject-05,1,984,0.538594961166382,clock,keyboard,c03,0984_cop_s05_c03_keyboard_10_n03085013_5738.png
subject-05,1,985,1.43674206733704,car,car,c05,0985_cop_s05_c05_car_10_n02814533_3890.png
subject-05,1,986,0.980489015579224,boat,chair,c10,0986_cop_s05_c10_chair_10_n03376595_407.png
subject-05,1,987,0.739120960235596,clock,knife,c01,0987_cop_s05_c01_knife_10_n03041632_22330.png
subject-05,1,988,0.484270811080933,oven,knife,c03,0988_cop_s05_c03_knife_10_n03041632_46112.png
subject-05,1,989,1.32000803947449,boat,oven,c100,0989_cop_s05_c100_oven_10_n04111531_6428.png
subject-05,1,990,0.518522024154663,clock,bear,c03,0990_cop_s05_c03_bear_10_n02134418_2228.png
subject-05,1,991,1.13291501998901,bottle,bottle,c05,0991_cop_s05_c05_bottle_10_n03937543_984.png
subject-05,1,992,0.7307288646698,chair,chair,c15,0992_cop_s05_c15_chair_10_n04099969_5075.png
subject-05,1,993,0.507261037826538,cat,cat,c30,0993_cop_s05_c30_cat_10_n02123159_1339.png
subject-05,1,994,0.759245872497559,elephant,elephant,c05,0994_cop_s05_c05_elephant_10_n02504458_480.png
subject-05,1,995,0.5784912109375,boat,oven,c03,0995_cop_s05_c03_oven_10_n04111531_17006.png
subject-05,1,996,1.11542296409607,bicycle,bicycle,c10,0996_cop_s05_c10_bicycle_10_n02835271_7900.png
subject-05,1,997,0.761177062988281,car,car,c100,0997_cop_s05_c100_car_10_n02814533_2856.png
subject-05,1,998,1.49572706222534,elephant,elephant,c10,0998_cop_s05_c10_elephant_10_n02504458_11214.png
subject-05,1,999,0.474059104919434,boat,boat,c10,0999_cop_s05_c10_boat_10_n04273569_4348.png
subject-05,1,1000,0.618802070617676,boat,clock,c01,1000_cop_s05_c01_clock_10_n02708093_1209.png
subject-05,1,1001,0.495262145996094,cat,bird,c15,1001_cop_s05_c15_bird_10_n01820546_6912.png
subject-05,1,1002,0.539400815963745,cat,boat,c05,1002_cop_s05_c05_boat_10_n03344393_8705.png
subject-05,1,1003,1.45183491706848,dog,dog,c15,1003_cop_s05_c15_dog_10_n02093754_693.png
subject-05,1,1004,0.519829988479614,airplane,airplane,c50,1004_cop_s05_c50_airplane_10_n02690373_1837.png
subject-05,1,1005,0.512366056442261,boat,bicycle,c05,1005_cop_s05_c05_bicycle_10_n03792782_52708.png
subject-05,1,1006,0.871117115020752,truck,truck,c100,1006_cop_s05_c100_truck_10_n04467665_3561.png
subject-05,1,1007,0.684138059616089,keyboard,keyboard,c05,1007_cop_s05_c05_keyboard_10_n04505470_2669.png
subject-05,1,1008,0.482320070266724,boat,dog,c03,1008_cop_s05_c03_dog_10_n02099849_3166.png
subject-05,1,1009,1.07051801681519,dog,bear,c50,1009_cop_s05_c50_bear_10_n02134418_4352.png
subject-05,1,1010,0.684630155563354,cat,oven,c03,1010_cop_s05_c03_oven_10_n04111531_7821.png
subject-05,1,1011,0.798985004425049,chair,chair,c100,1011_cop_s05_c100_chair_10_n04429376_17705.png
subject-05,1,1012,0.937640905380249,truck,truck,c100,1012_cop_s05_c100_truck_10_n03417042_7077.png
subject-05,1,1013,0.603227138519287,oven,cat,c03,1013_cop_s05_c03_cat_10_n02123597_11271.png
subject-05,1,1014,0.495882034301758,boat,elephant,c03,1014_cop_s05_c03_elephant_10_n02504013_2498.png
subject-05,1,1015,0.712600946426392,cat,oven,c03,1015_cop_s05_c03_oven_10_n04111531_18648.png
subject-05,1,1016,0.639486074447632,cat,cat,c10,1016_cop_s05_c10_cat_10_n02123394_6382.png
subject-05,1,1017,0.746201038360596,truck,truck,c30,1017_cop_s05_c30_truck_10_n03417042_11072.png
subject-05,1,1018,0.829873085021973,bicycle,bicycle,c30,1018_cop_s05_c30_bicycle_10_n02835271_3406.png
subject-05,1,1019,0.728473901748657,elephant,elephant,c100,1019_cop_s05_c100_elephant_10_n02504013_1254.png
subject-05,1,1020,0.688838958740234,elephant,elephant,c100,1020_cop_s05_c100_elephant_10_n02504013_3747.png
subject-05,1,1021,0.979336977005005,airplane,keyboard,c10,1021_cop_s05_c10_keyboard_10_n03085013_23561.png
subject-05,1,1022,0.739784955978394,clock,clock,c100,1022_cop_s05_c100_clock_10_n03196217_9197.png
subject-05,1,1023,0.74653697013855,bird,bird,c15,1023_cop_s05_c15_bird_10_n02002556_8724.png
subject-05,1,1024,0.69101095199585,cat,bottle,c03,1024_cop_s05_c03_bottle_10_n03983396_4815.png
subject-05,1,1025,0.68299412727356,boat,boat,c01,1025_cop_s05_c01_boat_10_n02951358_456.png
subject-05,1,1026,1.11951613426208,keyboard,keyboard,c30,1026_cop_s05_c30_keyboard_10_n03085013_20363.png
subject-05,1,1027,0.834425926208496,dog,dog,c100,1027_cop_s05_c100_dog_10_n02106550_3887.png
subject-05,1,1028,1.50020217895508,bottle,bottle,c30,1028_cop_s05_c30_bottle_10_n04579145_6285.png
subject-05,1,1029,0.831269979476929,oven,oven,c03,1029_cop_s05_c03_oven_10_n04111531_17923.png
subject-05,1,1030,0.876039028167725,elephant,elephant,c15,1030_cop_s05_c15_elephant_10_n02504013_4099.png
subject-05,1,1031,0.535711050033569,bear,knife,c05,1031_cop_s05_c05_knife_10_n03041632_43975.png
subject-05,1,1032,0.988441944122314,elephant,clock,c10,1032_cop_s05_c10_clock_10_n03196217_10578.png
subject-05,1,1033,0.480621099472046,clock,oven,c01,1033_cop_s05_c01_oven_10_n04111531_21232.png
subject-05,1,1034,0.616381883621216,cat,cat,c30,1034_cop_s05_c30_cat_10_n02123394_2567.png
subject-05,1,1035,0.527930021286011,clock,clock,c10,1035_cop_s05_c10_clock_10_n04548280_7221.png
subject-05,1,1036,0.610165119171143,boat,knife,c10,1036_cop_s05_c10_knife_10_n03041632_37949.png
subject-05,1,1037,0.89208197593689,oven,elephant,c15,1037_cop_s05_c15_elephant_10_n02504013_2394.png
subject-05,1,1038,1.44477009773254,bottle,knife,c50,1038_cop_s05_c50_knife_10_n03041632_7090.png
subject-05,1,1039,0.537633895874023,boat,bird,c01,1039_cop_s05_c01_bird_10_n02007558_10685.png
