subj,session,trial,rt,object_response,category,condition,imagename
subject-06,1,1,0.734248161315918,airplane,airplane,c03,0001_cop_s06_c03_airplane_10_n02690373_10079.png
subject-06,1,2,0.802281856536865,airplane,chair,c01,0002_cop_s06_c01_chair_10_n04429376_7982.png
subject-06,1,3,0.650773048400879,car,car,c03,0003_cop_s06_c03_car_10_n04285008_6439.png
subject-06,1,4,0.606206178665161,oven,cat,c01,0004_cop_s06_c01_cat_10_n02123159_7950.png
subject-06,1,5,0.55823802947998,cat,oven,c01,0005_cop_s06_c01_oven_10_n04111531_11157.png
subject-06,1,6,0.681688070297241,cat,cat,c30,0006_cop_s06_c30_cat_10_n02123597_14535.png
subject-06,1,7,0.53286600112915,boat,boat,c30,0007_cop_s06_c30_boat_10_n02951358_30629.png
subject-06,1,8,0.519404888153076,keyboard,keyboard,c50,0008_cop_s06_c50_keyboard_10_n03085013_23546.png
subject-06,1,9,0.839967012405396,airplane,truck,c01,0009_cop_s06_c01_truck_10_n03417042_5449.png
subject-06,1,10,0.862358093261719,bird,bicycle,c05,0010_cop_s06_c05_bicycle_10_n03792782_6613.png
subject-06,1,11,0.540788888931274,oven,oven,c01,0011_cop_s06_c01_oven_10_n04111531_669.png
subject-06,1,12,1.12428402900696,elephant,bottle,c03,0012_cop_s06_c03_bottle_10_n04560804_15958.png
subject-06,1,13,1.1950478553772,dog,bear,c05,0013_cop_s06_c05_bear_10_n02134084_18494.png
subject-06,1,14,0.605298042297363,boat,boat,c30,0014_cop_s06_c30_boat_10_n03662601_20059.png
subject-06,1,15,0.581269979476929,airplane,airplane,c03,0015_cop_s06_c03_airplane_10_n02690373_2128.png
subject-06,1,16,0.535034894943237,cat,cat,c50,0016_cop_s06_c50_cat_10_n02123159_1214.png
subject-06,1,17,0.885929107666016,clock,bottle,c100,0017_cop_s06_c100_bottle_10_n04557648_9352.png
subject-06,1,18,0.685583114624023,truck,truck,c50,0018_cop_s06_c50_truck_10_n03796401_7249.png
subject-06,1,19,NaN,na,bear,c03,0019_cop_s06_c03_bear_10_n02134084_3306.png
subject-06,1,20,0.856091022491455,bottle,bottle,c10,0020_cop_s06_c10_bottle_10_n04560804_1557.png
subject-06,1,21,0.909816980361938,boat,knife,c05,0021_cop_s06_c05_knife_10_n03041632_7119.png
subject-06,1,22,0.60460901260376,keyboard,knife,c01,0022_cop_s06_c01_knife_10_n03041632_1201.png
subject-06,1,23,0.583724021911621,bottle,bottle,c03,0023_cop_s06_c03_bottle_10_n03983396_13070.png
subject-06,1,24,0.66752290725708,truck,truck,c30,0024_cop_s06_c30_truck_10_n04467665_74008.png
subject-06,1,25,1.04603099822998,boat,boat,c50,0025_cop_s06_c50_boat_10_n03344393_1467.png
subject-06,1,26,1.18392109870911,keyboard,truck,c30,0026_cop_s06_c30_truck_10_n04467665_31621.png
subject-06,1,27,0.99186897277832,boat,bear,c05,0027_cop_s06_c05_bear_10_n02132136_2807.png
subject-06,1,28,0.754376173019409,knife,knife,c01,0028_cop_s06_c01_knife_10_n03041632_30565.png
subject-06,1,29,0.861992835998535,boat,chair,c01,0029_cop_s06_c01_chair_10_n03376595_10579.png
subject-06,1,30,0.869966983795166,airplane,keyboard,c01,0030_cop_s06_c01_keyboard_10_n03085013_14764.png
subject-06,1,31,0.708131074905396,bird,bird,c30,0031_cop_s06_c30_bird_10_n01829413_561.png
subject-06,1,32,0.692209959030151,car,car,c10,0032_cop_s06_c10_car_10_n04285008_10905.png
subject-06,1,33,0.753258943557739,knife,knife,c10,0033_cop_s06_c10_knife_10_n03041632_21818.png
subject-06,1,34,0.875216960906982,bear,bear,c15,0034_cop_s06_c15_bear_10_n02132136_33682.png
subject-06,1,35,0.877691984176636,chair,chair,c05,0035_cop_s06_c05_chair_10_n02791124_3854.png
subject-06,1,36,1.19158601760864,boat,dog,c01,0036_cop_s06_c01_dog_10_n02101388_5562.png
subject-06,1,37,1.2401430606842,car,bicycle,c03,0037_cop_s06_c03_bicycle_10_n03792782_3696.png
subject-06,1,38,0.761842966079712,bird,bird,c03,0038_cop_s06_c03_bird_10_n01843383_9762.png
subject-06,1,39,0.564334154129028,keyboard,oven,c03,0039_cop_s06_c03_oven_10_n04111531_326.png
subject-06,1,40,1.38918995857239,dog,bear,c05,0040_cop_s06_c05_bear_10_n02133161_11313.png
subject-06,1,41,NaN,na,knife,c50,0041_cop_s06_c50_knife_10_n03041632_23129.png
subject-06,1,42,1.31903195381165,oven,bottle,c10,0042_cop_s06_c10_bottle_10_n03937543_4020.png
subject-06,1,43,0.76753306388855,cat,elephant,c10,0043_cop_s06_c10_elephant_10_n02504013_6712.png
subject-06,1,44,0.636368036270142,dog,dog,c30,0044_cop_s06_c30_dog_10_n02109525_27626.png
subject-06,1,45,1.02276301383972,chair,chair,c100,0045_cop_s06_c100_chair_10_n04099969_4100.png
subject-06,1,46,0.593031883239746,cat,dog,c100,0046_cop_s06_c100_dog_10_n02096294_4180.png
subject-06,1,47,0.602680921554565,car,car,c30,0047_cop_s06_c30_car_10_n02814533_99123.png
subject-06,1,48,1.07254600524902,elephant,elephant,c100,0048_cop_s06_c100_elephant_10_n02504458_3105.png
subject-06,1,49,0.681865930557251,truck,truck,c10,0049_cop_s06_c10_truck_10_n03417042_8297.png
subject-06,1,50,0.706224203109741,knife,knife,c30,0050_cop_s06_c30_knife_10_n03041632_37618.png
subject-06,1,51,1.02265000343323,clock,oven,c100,0051_cop_s06_c100_oven_10_n04111531_12308.png
subject-06,1,52,0.606451988220215,bird,bird,c15,0052_cop_s06_c15_bird_10_n02013706_3523.png
subject-06,1,53,0.760583162307739,bear,bear,c30,0053_cop_s06_c30_bear_10_n02133161_2771.png
subject-06,1,54,0.484393119812012,cat,cat,c15,0054_cop_s06_c15_cat_10_n02123597_4443.png
subject-06,1,55,0.562786102294922,oven,oven,c15,0055_cop_s06_c15_oven_10_n04111531_12702.png
subject-06,1,56,0.733437061309814,clock,oven,c01,0056_cop_s06_c01_oven_10_n04111531_2209.png
subject-06,1,57,0.84994101524353,airplane,airplane,c30,0057_cop_s06_c30_airplane_10_n02690373_8743.png
subject-06,1,58,1.12551212310791,truck,chair,c03,0058_cop_s06_c03_chair_10_n02791124_5795.png
subject-06,1,59,0.895783185958862,cat,bear,c03,0059_cop_s06_c03_bear_10_n02134418_819.png
subject-06,1,60,0.674246072769165,car,car,c30,0060_cop_s06_c30_car_10_n04285008_8555.png
subject-06,1,61,1.23442506790161,knife,cat,c03,0061_cop_s06_c03_cat_10_n02124075_11142.png
subject-06,1,62,0.696922063827515,bicycle,bicycle,c03,0062_cop_s06_c03_bicycle_10_n03792782_30962.png
subject-06,1,63,0.715825080871582,bear,bear,c100,0063_cop_s06_c100_bear_10_n02133161_12901.png
subject-06,1,64,0.961881875991821,clock,clock,c05,0064_cop_s06_c05_clock_10_n04548280_5305.png
subject-06,1,65,0.716150045394897,airplane,airplane,c100,0065_cop_s06_c100_airplane_10_n02690373_5885.png
subject-06,1,66,0.723802089691162,knife,knife,c100,0066_cop_s06_c100_knife_10_n03041632_22286.png
subject-06,1,67,0.71328592300415,bicycle,bicycle,c03,0067_cop_s06_c03_bicycle_10_n02835271_10542.png
subject-06,1,68,0.591760873794556,clock,clock,c10,0068_cop_s06_c10_clock_10_n04548280_9513.png
subject-06,1,69,0.7380690574646,keyboard,oven,c15,0069_cop_s06_c15_oven_10_n04111531_8537.png
subject-06,1,70,0.646090030670166,clock,clock,c05,0070_cop_s06_c05_clock_10_n04548280_503.png
subject-06,1,71,0.778503179550171,bicycle,clock,c01,0071_cop_s06_c01_clock_10_n03196217_1746.png
subject-06,1,72,0.824865102767944,bird,bird,c15,0072_cop_s06_c15_bird_10_n01843065_9685.png
subject-06,1,73,0.919862031936646,boat,bottle,c01,0073_cop_s06_c01_bottle_10_n04591713_3955.png
subject-06,1,74,0.636747121810913,truck,truck,c15,0074_cop_s06_c15_truck_10_n03417042_27613.png
subject-06,1,75,0.611968040466309,airplane,chair,c05,0075_cop_s06_c05_chair_10_n02791124_7625.png
subject-06,1,76,0.896695137023926,knife,knife,c03,0076_cop_s06_c03_knife_10_n03041632_206.png
subject-06,1,77,0.674247026443481,boat,bird,c01,0077_cop_s06_c01_bird_10_n01534433_1061.png
subject-06,1,78,0.920691967010498,airplane,airplane,c100,0078_cop_s06_c100_airplane_10_n02690373_4107.png
subject-06,1,79,0.767333984375,cat,elephant,c03,0079_cop_s06_c03_elephant_10_n02504458_776.png
subject-06,1,80,0.645336151123047,bottle,bottle,c15,0080_cop_s06_c15_bottle_10_n02823428_7556.png
subject-06,1,81,0.616138935089111,cat,truck,c01,0081_cop_s06_c01_truck_10_n03417042_1182.png
subject-06,1,82,0.838603973388672,keyboard,keyboard,c10,0082_cop_s06_c10_keyboard_10_n03085013_6432.png
subject-06,1,83,1.02257800102234,truck,truck,c03,0083_cop_s06_c03_truck_10_n03417042_25212.png
subject-06,1,84,0.862529039382935,bear,clock,c01,0084_cop_s06_c01_clock_10_n02708093_7935.png
subject-06,1,85,0.624515056610107,bicycle,bicycle,c05,0085_cop_s06_c05_bicycle_10_n03792782_7165.png
subject-06,1,86,0.686726093292236,bicycle,bird,c03,0086_cop_s06_c03_bird_10_n02002556_434.png
subject-06,1,87,0.641335964202881,bird,airplane,c01,0087_cop_s06_c01_airplane_10_n02690373_9605.png
subject-06,1,88,0.70340895652771,bear,bear,c10,0088_cop_s06_c10_bear_10_n02132136_22313.png
subject-06,1,89,0.557955026626587,airplane,airplane,c15,0089_cop_s06_c15_airplane_10_n02690373_8274.png
subject-06,1,90,0.920800924301147,bicycle,bicycle,c03,0090_cop_s06_c03_bicycle_10_n02835271_12346.png
subject-06,1,91,1.40414309501648,dog,dog,c50,0091_cop_s06_c50_dog_10_n02110958_8916.png
subject-06,1,92,0.97462010383606,knife,knife,c10,0092_cop_s06_c10_knife_10_n03041632_32177.png
subject-06,1,93,0.851451873779297,keyboard,keyboard,c15,0093_cop_s06_c15_keyboard_10_n04505470_4262.png
subject-06,1,94,0.745780944824219,car,boat,c15,0094_cop_s06_c15_boat_10_n03662601_11920.png
subject-06,1,95,0.616201877593994,airplane,airplane,c03,0095_cop_s06_c03_airplane_10_n02690373_12436.png
subject-06,1,96,0.58483099937439,truck,truck,c50,0096_cop_s06_c50_truck_10_n04467665_3710.png
subject-06,1,97,0.814713954925537,truck,truck,c10,0097_cop_s06_c10_truck_10_n03417042_7187.png
subject-06,1,98,0.721695899963379,airplane,airplane,c10,0098_cop_s06_c10_airplane_10_n02690373_7735.png
subject-06,1,99,0.889646053314209,bear,bear,c15,0099_cop_s06_c15_bear_10_n02134084_1369.png
subject-06,1,100,0.58406400680542,keyboard,keyboard,c05,0100_cop_s06_c05_keyboard_10_n04505470_5145.png
subject-06,1,101,0.676225900650024,car,elephant,c01,0101_cop_s06_c01_elephant_10_n02504013_6645.png
subject-06,1,102,0.777075052261353,knife,knife,c100,0102_cop_s06_c100_knife_10_n03041632_96345.png
subject-06,1,103,0.87718677520752,dog,dog,c05,0103_cop_s06_c05_dog_10_n02099429_4289.png
subject-06,1,104,0.894129991531372,bear,elephant,c03,0104_cop_s06_c03_elephant_10_n02504458_2200.png
subject-06,1,105,0.864275932312012,keyboard,dog,c01,0105_cop_s06_c01_dog_10_n02087046_568.png
subject-06,1,106,0.878770112991333,knife,bicycle,c01,0106_cop_s06_c01_bicycle_10_n02835271_23680.png
subject-06,1,107,1.33284211158752,chair,chair,c50,0107_cop_s06_c50_chair_10_n02791124_15845.png
subject-06,1,108,0.694962978363037,airplane,boat,c03,0108_cop_s06_c03_boat_10_n02951358_13490.png
subject-06,1,109,0.633278846740723,boat,bottle,c01,0109_cop_s06_c01_bottle_10_n03983396_2154.png
subject-06,1,110,0.771798133850098,airplane,airplane,c05,0110_cop_s06_c05_airplane_10_n02690373_8175.png
subject-06,1,111,0.849133014678955,bottle,bottle,c05,0111_cop_s06_c05_bottle_10_n04557648_3624.png
subject-06,1,112,0.679657936096191,bear,cat,c10,0112_cop_s06_c10_cat_10_n02123045_8724.png
subject-06,1,113,0.590333938598633,cat,knife,c03,0113_cop_s06_c03_knife_10_n03041632_42526.png
subject-06,1,114,0.52020001411438,keyboard,keyboard,c15,0114_cop_s06_c15_keyboard_10_n03085013_21084.png
subject-06,1,115,0.996556043624878,chair,chair,c03,0115_cop_s06_c03_chair_10_n02791124_3671.png
subject-06,1,116,0.583552122116089,boat,elephant,c03,0116_cop_s06_c03_elephant_10_n02504013_4622.png
subject-06,1,117,0.705205917358398,boat,boat,c30,0117_cop_s06_c30_boat_10_n03344393_4739.png
subject-06,1,118,0.851094007492065,cat,bird,c03,0118_cop_s06_c03_bird_10_n01855032_3534.png
subject-06,1,119,0.75956392288208,dog,dog,c10,0119_cop_s06_c10_dog_10_n02107908_7407.png
subject-06,1,120,0.638098955154419,bottle,knife,c100,0120_cop_s06_c100_knife_10_n03041632_11741.png
subject-06,1,121,0.800015926361084,boat,boat,c30,0121_cop_s06_c30_boat_10_n03344393_7109.png
subject-06,1,122,0.776237010955811,bicycle,bicycle,c03,0122_cop_s06_c03_bicycle_10_n03792782_27435.png
subject-06,1,123,0.821707010269165,bird,bird,c50,0123_cop_s06_c50_bird_10_n01843383_11674.png
subject-06,1,124,1.0900399684906,car,car,c100,0124_cop_s06_c100_car_10_n04285008_7428.png
subject-06,1,125,0.884300947189331,bird,bird,c01,0125_cop_s06_c01_bird_10_n02037110_5010.png
subject-06,1,126,0.860131978988647,bear,bear,c10,0126_cop_s06_c10_bear_10_n02134418_3458.png
subject-06,1,127,0.922093152999878,airplane,boat,c03,0127_cop_s06_c03_boat_10_n04612504_8077.png
subject-06,1,128,0.467933177947998,boat,boat,c50,0128_cop_s06_c50_boat_10_n03344393_6455.png
subject-06,1,129,0.501776933670044,car,car,c100,0129_cop_s06_c100_car_10_n02814533_38308.png
subject-06,1,130,0.693889141082764,bicycle,cat,c03,0130_cop_s06_c03_cat_10_n02123045_10339.png
subject-06,1,131,1.29970502853394,boat,boat,c100,0131_cop_s06_c100_boat_10_n03662601_10262.png
subject-06,1,132,0.540106773376465,bicycle,bicycle,c10,0132_cop_s06_c10_bicycle_10_n02835271_29653.png
subject-06,1,133,0.772657155990601,bird,bird,c30,0133_cop_s06_c30_bird_10_n01843065_5848.png
subject-06,1,134,0.841442108154297,elephant,elephant,c50,0134_cop_s06_c50_elephant_10_n02504458_885.png
subject-06,1,135,0.536067962646484,bird,bird,c15,0135_cop_s06_c15_bird_10_n01843383_331.png
subject-06,1,136,0.857271909713745,bear,bird,c30,0136_cop_s06_c30_bird_10_n01820546_11754.png
subject-06,1,137,0.611237049102783,oven,oven,c50,0137_cop_s06_c50_oven_10_n04111531_2872.png
subject-06,1,138,0.640964984893799,clock,truck,c01,0138_cop_s06_c01_truck_10_n03417042_3288.png
subject-06,1,139,0.727299928665161,bear,bear,c15,0139_cop_s06_c15_bear_10_n02133161_14031.png
subject-06,1,140,0.796045064926147,bird,elephant,c10,0140_cop_s06_c10_elephant_10_n02504013_3384.png
subject-06,1,141,0.520605087280273,oven,car,c01,0141_cop_s06_c01_car_10_n04285008_476.png
subject-06,1,142,0.590090990066528,clock,bear,c01,0142_cop_s06_c01_bear_10_n02132136_4696.png
subject-06,1,143,0.565882921218872,airplane,airplane,c50,0143_cop_s06_c50_airplane_10_n02690373_166.png
subject-06,1,144,1.21130299568176,keyboard,keyboard,c50,0144_cop_s06_c50_keyboard_10_n04505470_5044.png
subject-06,1,145,0.666256904602051,car,boat,c03,0145_cop_s06_c03_boat_10_n02951358_33722.png
subject-06,1,146,1.35739803314209,keyboard,keyboard,c10,0146_cop_s06_c10_keyboard_10_n04505470_2250.png
subject-06,1,147,0.510962009429932,cat,elephant,c01,0147_cop_s06_c01_elephant_10_n02504013_22813.png
subject-06,1,148,0.581412076950073,chair,bottle,c01,0148_cop_s06_c01_bottle_10_n04557648_2817.png
subject-06,1,149,0.736215829849243,bicycle,bicycle,c05,0149_cop_s06_c05_bicycle_10_n03792782_47426.png
subject-06,1,150,0.643852949142456,oven,oven,c50,0150_cop_s06_c50_oven_10_n04111531_7106.png
subject-06,1,151,0.80390191078186,boat,elephant,c05,0151_cop_s06_c05_elephant_10_n02504013_7487.png
subject-06,1,152,0.841345071792603,knife,knife,c15,0152_cop_s06_c15_knife_10_n03041632_4975.png
subject-06,1,153,0.79549503326416,airplane,airplane,c50,0153_cop_s06_c50_airplane_10_n02690373_2758.png
subject-06,1,154,0.611614942550659,car,car,c30,0154_cop_s06_c30_car_10_n02814533_16767.png
subject-06,1,155,0.825993061065674,dog,dog,c05,0155_cop_s06_c05_dog_10_n02095889_14547.png
subject-06,1,156,0.988111972808838,airplane,airplane,c50,0156_cop_s06_c50_airplane_10_n02690373_4358.png
subject-06,1,157,0.643171072006226,boat,truck,c01,0157_cop_s06_c01_truck_10_n03417042_8030.png
subject-06,1,158,1.50026106834412,cat,knife,c03,0158_cop_s06_c03_knife_10_n03041632_3101.png
subject-06,1,159,0.630835056304932,car,clock,c01,0159_cop_s06_c01_clock_10_n02708093_3114.png
subject-06,1,160,0.587292909622192,clock,elephant,c01,0160_cop_s06_c01_elephant_10_n02504013_6466.png
subject-06,1,161,0.417762994766235,cat,cat,c100,0161_cop_s06_c100_cat_10_n02123597_14191.png
subject-06,1,162,0.701585054397583,keyboard,keyboard,c50,0162_cop_s06_c50_keyboard_10_n04505470_262.png
subject-06,1,163,0.54754900932312,clock,clock,c30,0163_cop_s06_c30_clock_10_n03196217_7121.png
subject-06,1,164,1.15556001663208,knife,knife,c30,0164_cop_s06_c30_knife_10_n03041632_105081.png
subject-06,1,165,0.939495086669922,knife,clock,c03,0165_cop_s06_c03_clock_10_n04548280_23221.png
subject-06,1,166,0.886297941207886,bird,bird,c10,0166_cop_s06_c10_bird_10_n01824575_12664.png
subject-06,1,167,0.581058025360107,cat,cat,c50,0167_cop_s06_c50_cat_10_n02123159_2663.png
subject-06,1,168,0.605303049087524,bear,elephant,c10,0168_cop_s06_c10_elephant_10_n02504458_4280.png
subject-06,1,169,0.751806974411011,car,car,c03,0169_cop_s06_c03_car_10_n02814533_27504.png
subject-06,1,170,0.590260028839111,airplane,knife,c03,0170_cop_s06_c03_knife_10_n03041632_21590.png
subject-06,1,171,0.744271039962769,keyboard,dog,c05,0171_cop_s06_c05_dog_10_n02102973_7074.png
subject-06,1,172,NaN,na,elephant,c03,0172_cop_s06_c03_elephant_10_n02504458_8190.png
subject-06,1,173,0.722762107849121,car,car,c15,0173_cop_s06_c15_car_10_n04285008_4556.png
subject-06,1,174,0.747299909591675,keyboard,keyboard,c30,0174_cop_s06_c30_keyboard_10_n03085013_24109.png
subject-06,1,175,0.645219087600708,cat,oven,c01,0175_cop_s06_c01_oven_10_n04111531_2342.png
subject-06,1,176,0.807397127151489,chair,chair,c100,0176_cop_s06_c100_chair_10_n04429376_24615.png
subject-06,1,177,0.769229173660278,oven,boat,c03,0177_cop_s06_c03_boat_10_n03344393_7542.png
subject-06,1,178,0.528947114944458,clock,clock,c10,0178_cop_s06_c10_clock_10_n03196217_7274.png
subject-06,1,179,0.583413124084473,bicycle,bicycle,c10,0179_cop_s06_c10_bicycle_10_n03792782_54350.png
subject-06,1,180,0.670104026794434,knife,knife,c100,0180_cop_s06_c100_knife_10_n03041632_8528.png
subject-06,1,181,0.892109870910645,truck,truck,c15,0181_cop_s06_c15_truck_10_n03417042_2110.png
subject-06,1,182,0.692559003829956,boat,boat,c05,0182_cop_s06_c05_boat_10_n04612504_3904.png
subject-06,1,183,0.586788177490234,cat,cat,c30,0183_cop_s06_c30_cat_10_n02125311_54015.png
subject-06,1,184,0.771492004394531,dog,bird,c30,0184_cop_s06_c30_bird_10_n01796340_14749.png
subject-06,1,185,1.48816299438477,car,truck,c03,0185_cop_s06_c03_truck_10_n03796401_322.png
subject-06,1,186,0.766711950302124,airplane,chair,c01,0186_cop_s06_c01_chair_10_n04429376_18649.png
subject-06,1,187,0.693243980407715,cat,cat,c03,0187_cop_s06_c03_cat_10_n02124075_183.png
subject-06,1,188,0.568870067596436,clock,bird,c05,0188_cop_s06_c05_bird_10_n02033041_2031.png
subject-06,1,189,0.609308004379272,cat,cat,c10,0189_cop_s06_c10_cat_10_n02123394_89.png
subject-06,1,190,0.617817878723145,boat,boat,c03,0190_cop_s06_c03_boat_10_n02951358_11480.png
subject-06,1,191,0.818462133407593,cat,cat,c10,0191_cop_s06_c10_cat_10_n02123159_6719.png
subject-06,1,192,0.77289891242981,bear,bear,c03,0192_cop_s06_c03_bear_10_n02132136_20422.png
subject-06,1,193,0.589353084564209,clock,clock,c05,0193_cop_s06_c05_clock_10_n04548280_8071.png
subject-06,1,194,0.781821012496948,airplane,airplane,c03,0194_cop_s06_c03_airplane_10_n02690373_2837.png
subject-06,1,195,1.41122198104858,truck,truck,c30,0195_cop_s06_c30_truck_10_n03796401_10766.png
subject-06,1,196,0.570948123931885,oven,oven,c100,0196_cop_s06_c100_oven_10_n04111531_1220.png
subject-06,1,197,0.649346113204956,keyboard,keyboard,c05,0197_cop_s06_c05_keyboard_10_n04505470_6656.png
subject-06,1,198,1.12497210502625,knife,knife,c05,0198_cop_s06_c05_knife_10_n03041632_14766.png
subject-06,1,199,0.578973770141602,car,car,c15,0199_cop_s06_c15_car_10_n02814533_89559.png
subject-06,1,200,0.592267036437988,cat,bottle,c01,0200_cop_s06_c01_bottle_10_n03937543_7520.png
subject-06,1,201,0.470314979553223,clock,keyboard,c01,0201_cop_s06_c01_keyboard_10_n04505470_1649.png
subject-06,1,202,0.630681991577148,keyboard,oven,c05,0202_cop_s06_c05_oven_10_n04111531_11589.png
subject-06,1,203,0.571208953857422,oven,oven,c50,0203_cop_s06_c50_oven_10_n04111531_538.png
subject-06,1,204,0.470845937728882,car,car,c10,0204_cop_s06_c10_car_10_n02814533_82879.png
subject-06,1,205,0.752321004867554,airplane,bear,c03,0205_cop_s06_c03_bear_10_n02132136_11933.png
subject-06,1,206,0.701176881790161,bird,bird,c10,0206_cop_s06_c10_bird_10_n01560419_8948.png
subject-06,1,207,0.64717698097229,clock,clock,c50,0207_cop_s06_c50_clock_10_n03196217_1275.png
subject-06,1,208,0.769750833511353,keyboard,chair,c03,0208_cop_s06_c03_chair_10_n04099969_250.png
subject-06,1,209,0.747658967971802,car,truck,c03,0209_cop_s06_c03_truck_10_n03417042_234.png
subject-06,1,210,0.572582006454468,bear,bear,c50,0210_cop_s06_c50_bear_10_n02134418_4505.png
subject-06,1,211,0.543089151382446,bottle,bottle,c30,0211_cop_s06_c30_bottle_10_n04560804_21795.png
subject-06,1,212,0.689721822738647,truck,truck,c05,0212_cop_s06_c05_truck_10_n03796401_27963.png
subject-06,1,213,0.68730092048645,bicycle,bicycle,c30,0213_cop_s06_c30_bicycle_10_n02835271_1974.png
subject-06,1,214,0.649286031723022,elephant,elephant,c50,0214_cop_s06_c50_elephant_10_n02504458_7331.png
subject-06,1,215,0.787642955780029,bird,bird,c50,0215_cop_s06_c50_bird_10_n02033041_2971.png
subject-06,1,216,0.541798830032349,bird,bird,c30,0216_cop_s06_c30_bird_10_n02033041_16258.png
subject-06,1,217,0.67966103553772,dog,dog,c30,0217_cop_s06_c30_dog_10_n02096585_3216.png
subject-06,1,218,0.663037061691284,airplane,airplane,c30,0218_cop_s06_c30_airplane_10_n02690373_5524.png
subject-06,1,219,0.563644170761108,boat,boat,c15,0219_cop_s06_c15_boat_10_n04612504_10005.png
subject-06,1,220,0.601652145385742,car,car,c10,0220_cop_s06_c10_car_10_n03100240_1696.png
subject-06,1,221,1.13980388641357,elephant,elephant,c05,0221_cop_s06_c05_elephant_10_n02504013_4211.png
subject-06,1,222,0.610104084014893,bear,bear,c15,0222_cop_s06_c15_bear_10_n02132136_2203.png
subject-06,1,223,0.732447862625122,bear,bear,c100,0223_cop_s06_c100_bear_10_n02134084_833.png
subject-06,1,224,0.526749849319458,boat,bottle,c01,0224_cop_s06_c01_bottle_10_n03983396_9355.png
subject-06,1,225,0.565525054931641,bicycle,bicycle,c10,0225_cop_s06_c10_bicycle_10_n02835271_22996.png
subject-06,1,226,0.66527795791626,bear,bear,c10,0226_cop_s06_c10_bear_10_n02134084_18810.png
subject-06,1,227,0.619681835174561,bear,bear,c30,0227_cop_s06_c30_bear_10_n02133161_12674.png
subject-06,1,228,0.857972860336304,truck,oven,c03,0228_cop_s06_c03_oven_10_n04111531_21068.png
subject-06,1,229,0.817452907562256,truck,oven,c03,0229_cop_s06_c03_oven_10_n04111531_2381.png
subject-06,1,230,0.879131078720093,dog,dog,c10,0230_cop_s06_c10_dog_10_n02091831_5654.png
subject-06,1,231,0.739120960235596,keyboard,clock,c30,0231_cop_s06_c30_clock_10_n02708093_3790.png
subject-06,1,232,0.562845945358276,clock,clock,c100,0232_cop_s06_c100_clock_10_n04548280_6430.png
subject-06,1,233,0.639225006103516,dog,dog,c30,0233_cop_s06_c30_dog_10_n02105855_10309.png
subject-06,1,234,0.732132911682129,bird,bird,c05,0234_cop_s06_c05_bird_10_n01820546_12715.png
subject-06,1,235,0.532032012939453,clock,bicycle,c01,0235_cop_s06_c01_bicycle_10_n02835271_1016.png
subject-06,1,236,0.555564880371094,airplane,airplane,c100,0236_cop_s06_c100_airplane_10_n02690373_8350.png
subject-06,1,237,1.35286092758179,bird,elephant,c05,0237_cop_s06_c05_elephant_10_n02504458_1693.png
subject-06,1,238,0.606906890869141,clock,clock,c10,0238_cop_s06_c10_clock_10_n02708093_6688.png
subject-06,1,239,0.624439001083374,boat,boat,c30,0239_cop_s06_c30_boat_10_n04612504_79.png
subject-06,1,240,0.916905879974365,dog,elephant,c03,0240_cop_s06_c03_elephant_10_n02504458_6171.png
subject-06,1,241,0.749208927154541,airplane,oven,c01,0241_cop_s06_c01_oven_10_n04111531_10375.png
subject-06,1,242,0.741679906845093,car,car,c100,0242_cop_s06_c100_car_10_n03100240_1813.png
subject-06,1,243,0.739648103713989,bear,bear,c15,0243_cop_s06_c15_bear_10_n02134084_1821.png
subject-06,1,244,0.725697040557861,car,car,c30,0244_cop_s06_c30_car_10_n02814533_19745.png
subject-06,1,245,1.15362000465393,elephant,elephant,c100,0245_cop_s06_c100_elephant_10_n02504013_4220.png
subject-06,1,246,1.21010994911194,keyboard,keyboard,c10,0246_cop_s06_c10_keyboard_10_n04505470_2040.png
subject-06,1,247,0.624182224273682,dog,dog,c30,0247_cop_s06_c30_dog_10_n02094433_2214.png
subject-06,1,248,0.518203020095825,airplane,boat,c10,0248_cop_s06_c10_boat_10_n03344393_3473.png
subject-06,1,249,0.494417905807495,keyboard,keyboard,c30,0249_cop_s06_c30_keyboard_10_n03085013_23354.png
subject-06,1,250,0.611261129379272,chair,chair,c15,0250_cop_s06_c15_chair_10_n03376595_642.png
subject-06,1,251,0.954519987106323,airplane,airplane,c30,0251_cop_s06_c30_airplane_10_n02690373_9322.png
subject-06,1,252,0.741048097610474,cat,cat,c30,0252_cop_s06_c30_cat_10_n02123045_9647.png
subject-06,1,253,0.641577005386353,car,car,c10,0253_cop_s06_c10_car_10_n02814533_76739.png
subject-06,1,254,0.818189144134521,clock,truck,c03,0254_cop_s06_c03_truck_10_n03417042_4994.png
subject-06,1,255,0.634798049926758,car,car,c15,0255_cop_s06_c15_car_10_n03100240_5479.png
subject-06,1,256,0.835103988647461,clock,clock,c15,0256_cop_s06_c15_clock_10_n04548280_4713.png
subject-06,1,257,0.630254030227661,bicycle,bicycle,c15,0257_cop_s06_c15_bicycle_10_n02835271_3529.png
subject-06,1,258,0.553802967071533,oven,oven,c15,0258_cop_s06_c15_oven_10_n04111531_2771.png
subject-06,1,259,1.1363639831543,airplane,knife,c05,0259_cop_s06_c05_knife_10_n03041632_102764.png
subject-06,1,260,0.584250926971436,chair,bottle,c100,0260_cop_s06_c100_bottle_10_n04560804_8188.png
subject-06,1,261,0.722404003143311,bird,bird,c50,0261_cop_s06_c50_bird_10_n01828970_5075.png
subject-06,1,262,0.752737998962402,boat,bear,c01,0262_cop_s06_c01_bear_10_n02134418_5730.png
subject-06,1,263,0.577203035354614,chair,chair,c30,0263_cop_s06_c30_chair_10_n04099969_7527.png
subject-06,1,264,0.861040830612183,car,car,c15,0264_cop_s06_c15_car_10_n04285008_12018.png
subject-06,1,265,0.540234804153442,cat,cat,c30,0265_cop_s06_c30_cat_10_n02123159_5553.png
subject-06,1,266,0.607944011688232,truck,truck,c30,0266_cop_s06_c30_truck_10_n03796401_17318.png
subject-06,1,267,1.05441904067993,chair,dog,c30,0267_cop_s06_c30_dog_10_n02110958_4299.png
subject-06,1,268,0.562697172164917,car,car,c100,0268_cop_s06_c100_car_10_n04285008_12169.png
subject-06,1,269,0.733407974243164,car,keyboard,c10,0269_cop_s06_c10_keyboard_10_n04505470_4902.png
subject-06,1,270,0.96381688117981,clock,chair,c03,0270_cop_s06_c03_chair_10_n04429376_9053.png
subject-06,1,271,0.888652801513672,dog,dog,c05,0271_cop_s06_c05_dog_10_n02096437_6074.png
subject-06,1,272,1.44062113761902,boat,boat,c03,0272_cop_s06_c03_boat_10_n03662601_34987.png
subject-06,1,273,0.711169958114624,keyboard,keyboard,c10,0273_cop_s06_c10_keyboard_10_n03085013_23022.png
subject-06,1,274,0.597743034362793,chair,chair,c15,0274_cop_s06_c15_chair_10_n03376595_5503.png
subject-06,1,275,0.650120973587036,bird,bird,c15,0275_cop_s06_c15_bird_10_n01819313_7394.png
subject-06,1,276,0.566390991210938,bicycle,bicycle,c100,0276_cop_s06_c100_bicycle_10_n03792782_71904.png
subject-06,1,277,0.636543989181519,oven,oven,c30,0277_cop_s06_c30_oven_10_n04111531_1229.png
subject-06,1,278,0.834882974624634,bicycle,bicycle,c05,0278_cop_s06_c05_bicycle_10_n03792782_90.png
subject-06,1,279,0.680862903594971,bicycle,truck,c03,0279_cop_s06_c03_truck_10_n04467665_2557.png
subject-06,1,280,0.689957141876221,boat,boat,c50,0280_cop_s06_c50_boat_10_n02951358_35150.png
subject-06,1,281,0.406453132629395,cat,cat,c30,0281_cop_s06_c30_cat_10_n02123045_10938.png
subject-06,1,282,1.10417294502258,elephant,elephant,c10,0282_cop_s06_c10_elephant_10_n02504458_4143.png
subject-06,1,283,0.690917015075684,cat,bottle,c01,0283_cop_s06_c01_bottle_10_n04579145_6435.png
subject-06,1,284,0.450479030609131,clock,clock,c10,0284_cop_s06_c10_clock_10_n03196217_2983.png
subject-06,1,285,0.688524007797241,bear,car,c03,0285_cop_s06_c03_car_10_n03100240_6035.png
subject-06,1,286,0.542539834976196,bird,bear,c05,0286_cop_s06_c05_bear_10_n02134084_17302.png
subject-06,1,287,1.04844903945923,bicycle,bicycle,c01,0287_cop_s06_c01_bicycle_10_n03792782_586.png
subject-06,1,288,0.548666954040527,truck,truck,c50,0288_cop_s06_c50_truck_10_n03796401_34.png
subject-06,1,289,0.74826979637146,bird,knife,c10,0289_cop_s06_c10_knife_10_n03041632_31037.png
subject-06,1,290,0.532835960388184,bear,bear,c15,0290_cop_s06_c15_bear_10_n02133161_1728.png
subject-06,1,291,0.616596937179565,airplane,boat,c100,0291_cop_s06_c100_boat_10_n04273569_247.png
subject-06,1,292,0.592514991760254,oven,cat,c01,0292_cop_s06_c01_cat_10_n02125311_34817.png
subject-06,1,293,0.531324863433838,bottle,bottle,c15,0293_cop_s06_c15_bottle_10_n04579145_4971.png
subject-06,1,294,0.577781915664673,keyboard,keyboard,c15,0294_cop_s06_c15_keyboard_10_n04505470_3002.png
subject-06,1,295,1.13158392906189,elephant,elephant,c15,0295_cop_s06_c15_elephant_10_n02504458_1231.png
subject-06,1,296,0.507902860641479,truck,truck,c10,0296_cop_s06_c10_truck_10_n03417042_6241.png
subject-06,1,297,1.153883934021,knife,knife,c10,0297_cop_s06_c10_knife_10_n03041632_51339.png
subject-06,1,298,0.768457889556885,airplane,airplane,c05,0298_cop_s06_c05_airplane_10_n02690373_5032.png
subject-06,1,299,0.509353876113892,bird,bird,c50,0299_cop_s06_c50_bird_10_n01829413_506.png
subject-06,1,300,0.606415987014771,airplane,airplane,c15,0300_cop_s06_c15_airplane_10_n02690373_4866.png
subject-06,1,301,0.745225191116333,bird,bear,c03,0301_cop_s06_c03_bear_10_n02134418_2521.png
subject-06,1,302,0.536911964416504,airplane,airplane,c30,0302_cop_s06_c30_airplane_10_n02690373_6665.png
subject-06,1,303,1.1134660243988,boat,oven,c03,0303_cop_s06_c03_oven_10_n04111531_15635.png
subject-06,1,304,0.622180938720703,car,car,c05,0304_cop_s06_c05_car_10_n02814533_74915.png
subject-06,1,305,0.543667078018188,cat,cat,c10,0305_cop_s06_c10_cat_10_n02123045_3477.png
subject-06,1,306,0.460002899169922,oven,boat,c01,0306_cop_s06_c01_boat_10_n03662601_989.png
subject-06,1,307,0.522619009017944,keyboard,keyboard,c10,0307_cop_s06_c10_keyboard_10_n03085013_3178.png
subject-06,1,308,0.736028909683228,elephant,elephant,c100,0308_cop_s06_c100_elephant_10_n02504458_7472.png
subject-06,1,309,0.658329010009766,airplane,airplane,c50,0309_cop_s06_c50_airplane_10_n02690373_5055.png
subject-06,1,310,0.850484132766724,knife,knife,c03,0310_cop_s06_c03_knife_10_n03041632_42472.png
subject-06,1,311,0.559010028839111,cat,truck,c01,0311_cop_s06_c01_truck_10_n03417042_5235.png
subject-06,1,312,0.926364898681641,bear,elephant,c03,0312_cop_s06_c03_elephant_10_n02504013_3473.png
subject-06,1,313,0.73547101020813,chair,chair,c100,0313_cop_s06_c100_chair_10_n02791124_3306.png
subject-06,1,314,0.581125020980835,boat,dog,c01,0314_cop_s06_c01_dog_10_n02107312_29.png
subject-06,1,315,0.498976230621338,bicycle,bicycle,c03,0315_cop_s06_c03_bicycle_10_n03792782_5035.png
subject-06,1,316,0.61534595489502,car,car,c30,0316_cop_s06_c30_car_10_n04285008_13104.png
subject-06,1,317,1.1540048122406,car,bottle,c100,0317_cop_s06_c100_bottle_10_n04557648_25201.png
subject-06,1,318,0.483811855316162,oven,oven,c50,0318_cop_s06_c50_oven_10_n04111531_4750.png
subject-06,1,319,0.600200891494751,knife,knife,c15,0319_cop_s06_c15_knife_10_n03041632_43975.png
subject-06,1,320,0.659677982330322,bear,bear,c50,0320_cop_s06_c50_bear_10_n02134418_9848.png
subject-06,1,321,1.04916095733643,elephant,dog,c03,0321_cop_s06_c03_dog_10_n02088094_5927.png
subject-06,1,322,0.565948963165283,boat,bicycle,c01,0322_cop_s06_c01_bicycle_10_n02835271_4480.png
subject-06,1,323,0.727902173995972,car,car,c30,0323_cop_s06_c30_car_10_n04285008_7375.png
subject-06,1,324,0.58202600479126,bear,bear,c30,0324_cop_s06_c30_bear_10_n02133161_6394.png
subject-06,1,325,0.620458841323853,airplane,airplane,c03,0325_cop_s06_c03_airplane_10_n02690373_5838.png
subject-06,1,326,0.604285001754761,cat,keyboard,c30,0326_cop_s06_c30_keyboard_10_n03085013_23254.png
subject-06,1,327,0.994205951690674,dog,dog,c100,0327_cop_s06_c100_dog_10_n02093991_5397.png
subject-06,1,328,0.480705976486206,keyboard,keyboard,c50,0328_cop_s06_c50_keyboard_10_n03085013_17884.png
subject-06,1,329,0.765359878540039,oven,bottle,c15,0329_cop_s06_c15_bottle_10_n03983396_1487.png
subject-06,1,330,0.92595386505127,bottle,bottle,c10,0330_cop_s06_c10_bottle_10_n04591713_3575.png
subject-06,1,331,1.02044606208801,knife,bicycle,c01,0331_cop_s06_c01_bicycle_10_n02835271_15617.png
subject-06,1,332,0.609855890274048,keyboard,keyboard,c15,0332_cop_s06_c15_keyboard_10_n03085013_4856.png
subject-06,1,333,0.810575008392334,bicycle,bicycle,c15,0333_cop_s06_c15_bicycle_10_n02835271_8764.png
subject-06,1,334,0.756761074066162,truck,truck,c15,0334_cop_s06_c15_truck_10_n03417042_29408.png
subject-06,1,335,0.533118009567261,chair,chair,c50,0335_cop_s06_c50_chair_10_n02791124_3370.png
subject-06,1,336,0.640897035598755,boat,boat,c30,0336_cop_s06_c30_boat_10_n04612504_2255.png
subject-06,1,337,0.370738983154297,clock,clock,c30,0337_cop_s06_c30_clock_10_n04548280_9755.png
subject-06,1,338,0.968514919281006,clock,oven,c03,0338_cop_s06_c03_oven_10_n04111531_8255.png
subject-06,1,339,0.484652996063232,bicycle,bicycle,c05,0339_cop_s06_c05_bicycle_10_n02835271_12782.png
subject-06,1,340,0.561043977737427,cat,boat,c01,0340_cop_s06_c01_boat_10_n03662601_6085.png
subject-06,1,341,0.653393030166626,airplane,truck,c03,0341_cop_s06_c03_truck_10_n04467665_57380.png
subject-06,1,342,0.791822195053101,knife,knife,c50,0342_cop_s06_c50_knife_10_n03041632_1964.png
subject-06,1,343,0.907734155654907,knife,bottle,c15,0343_cop_s06_c15_bottle_10_n03983396_971.png
subject-06,1,344,0.675856828689575,keyboard,keyboard,c100,0344_cop_s06_c100_keyboard_10_n03085013_18779.png
subject-06,1,345,0.721969127655029,bird,bottle,c10,0345_cop_s06_c10_bottle_10_n04560804_22719.png
subject-06,1,346,0.806164026260376,knife,knife,c03,0346_cop_s06_c03_knife_10_n03041632_26405.png
subject-06,1,347,0.676693916320801,airplane,airplane,c01,0347_cop_s06_c01_airplane_10_n02690373_1005.png
subject-06,1,348,0.623365879058838,bicycle,bicycle,c30,0348_cop_s06_c30_bicycle_10_n02835271_845.png
subject-06,1,349,0.490701913833618,bottle,bottle,c100,0349_cop_s06_c100_bottle_10_n02823428_10584.png
subject-06,1,350,0.7830650806427,bottle,bottle,c100,0350_cop_s06_c100_bottle_10_n03983396_4439.png
subject-06,1,351,0.659249067306519,keyboard,keyboard,c05,0351_cop_s06_c05_keyboard_10_n04505470_4487.png
subject-06,1,352,0.752103090286255,truck,truck,c15,0352_cop_s06_c15_truck_10_n03796401_8206.png
subject-06,1,353,0.681742191314697,keyboard,keyboard,c50,0353_cop_s06_c50_keyboard_10_n03085013_22254.png
subject-06,1,354,0.720417976379395,chair,chair,c15,0354_cop_s06_c15_chair_10_n04099969_5364.png
subject-06,1,355,0.682775020599365,keyboard,keyboard,c100,0355_cop_s06_c100_keyboard_10_n04505470_4751.png
subject-06,1,356,0.659058094024658,keyboard,keyboard,c50,0356_cop_s06_c50_keyboard_10_n03085013_22260.png
subject-06,1,357,0.551074981689453,bird,bird,c30,0357_cop_s06_c30_bird_10_n02013706_298.png
subject-06,1,358,0.773658037185669,boat,boat,c100,0358_cop_s06_c100_boat_10_n02951358_11729.png
subject-06,1,359,0.57337498664856,clock,car,c01,0359_cop_s06_c01_car_10_n03100240_234.png
subject-06,1,360,0.589127779006958,bear,airplane,c03,0360_cop_s06_c03_airplane_10_n02690373_1350.png
subject-06,1,361,0.727177858352661,bird,bird,c03,0361_cop_s06_c03_bird_10_n01622779_303.png
subject-06,1,362,0.665875911712646,airplane,airplane,c10,0362_cop_s06_c10_airplane_10_n02690373_4671.png
subject-06,1,363,0.550763130187988,car,car,c100,0363_cop_s06_c100_car_10_n02814533_10971.png
subject-06,1,364,0.780193090438843,bird,bird,c50,0364_cop_s06_c50_bird_10_n01829413_9190.png
subject-06,1,365,0.971606969833374,car,car,c50,0365_cop_s06_c50_car_10_n02814533_26180.png
subject-06,1,366,0.725466966629028,keyboard,bottle,c10,0366_cop_s06_c10_bottle_10_n03983396_1866.png
subject-06,1,367,0.525840044021606,cat,cat,c50,0367_cop_s06_c50_cat_10_n02124075_9953.png
subject-06,1,368,0.747886896133423,bicycle,oven,c05,0368_cop_s06_c05_oven_10_n04111531_10216.png
subject-06,1,369,0.60844898223877,clock,clock,c30,0369_cop_s06_c30_clock_10_n03196217_3558.png
subject-06,1,370,0.662966012954712,airplane,oven,c05,0370_cop_s06_c05_oven_10_n04111531_6934.png
subject-06,1,371,0.846946001052856,bear,bear,c03,0371_cop_s06_c03_bear_10_n02133161_1271.png
subject-06,1,372,0.793546915054321,dog,dog,c05,0372_cop_s06_c05_dog_10_n02097047_2534.png
subject-06,1,373,0.630268096923828,car,car,c05,0373_cop_s06_c05_car_10_n02814533_10815.png
subject-06,1,374,0.728057861328125,oven,knife,c01,0374_cop_s06_c01_knife_10_n03041632_30821.png
subject-06,1,375,0.482160091400146,keyboard,keyboard,c100,0375_cop_s06_c100_keyboard_10_n03085013_28150.png
subject-06,1,376,0.475103139877319,cat,cat,c15,0376_cop_s06_c15_cat_10_n02123045_12100.png
subject-06,1,377,0.874297142028809,oven,oven,c100,0377_cop_s06_c100_oven_10_n04111531_11993.png
subject-06,1,378,1.04218912124634,chair,airplane,c05,0378_cop_s06_c05_airplane_10_n02690373_9432.png
subject-06,1,379,0.526663064956665,cat,cat,c50,0379_cop_s06_c50_cat_10_n02124075_13216.png
subject-06,1,380,0.656697988510132,airplane,airplane,c100,0380_cop_s06_c100_airplane_10_n02690373_7686.png
subject-06,1,381,0.657349109649658,chair,chair,c50,0381_cop_s06_c50_chair_10_n02791124_14021.png
subject-06,1,382,0.79521107673645,knife,clock,c03,0382_cop_s06_c03_clock_10_n04548280_8303.png
subject-06,1,383,0.925365924835205,bird,bird,c100,0383_cop_s06_c100_bird_10_n01833805_1979.png
subject-06,1,384,0.83169412612915,keyboard,clock,c03,0384_cop_s06_c03_clock_10_n03196217_1850.png
subject-06,1,385,0.661015033721924,bird,bird,c100,0385_cop_s06_c100_bird_10_n01558993_5122.png
subject-06,1,386,0.507643222808838,clock,clock,c15,0386_cop_s06_c15_clock_10_n04548280_1222.png
subject-06,1,387,1.02999806404114,cat,cat,c05,0387_cop_s06_c05_cat_10_n02124075_5874.png
subject-06,1,388,0.843878984451294,clock,bottle,c50,0388_cop_s06_c50_bottle_10_n04557648_14704.png
subject-06,1,389,0.551793098449707,chair,chair,c50,0389_cop_s06_c50_chair_10_n02791124_958.png
subject-06,1,390,0.798140048980713,bicycle,bicycle,c100,0390_cop_s06_c100_bicycle_10_n02835271_6746.png
subject-06,1,391,0.57361912727356,airplane,airplane,c10,0391_cop_s06_c10_airplane_10_n02690373_7210.png
subject-06,1,392,0.525391817092896,cat,cat,c50,0392_cop_s06_c50_cat_10_n02124075_10190.png
subject-06,1,393,0.511667966842651,chair,chair,c15,0393_cop_s06_c15_chair_10_n03376595_5773.png
subject-06,1,394,0.85539698600769,car,car,c10,0394_cop_s06_c10_car_10_n02814533_2170.png
subject-06,1,395,1.06349110603333,oven,oven,c100,0395_cop_s06_c100_oven_10_n04111531_81.png
subject-06,1,396,0.87824010848999,cat,chair,c03,0396_cop_s06_c03_chair_10_n03376595_1652.png
subject-06,1,397,0.564289808273315,clock,car,c01,0397_cop_s06_c01_car_10_n02814533_13079.png
subject-06,1,398,0.678926944732666,car,car,c50,0398_cop_s06_c50_car_10_n04285008_1579.png
subject-06,1,399,0.525094032287598,bottle,bottle,c50,0399_cop_s06_c50_bottle_10_n03983396_6330.png
subject-06,1,400,0.541818857192993,airplane,airplane,c30,0400_cop_s06_c30_airplane_10_n02690373_10723.png
subject-06,1,401,0.612504005432129,cat,dog,c01,0401_cop_s06_c01_dog_10_n02112350_9656.png
subject-06,1,402,1.03443193435669,truck,truck,c30,0402_cop_s06_c30_truck_10_n03417042_28657.png
subject-06,1,403,0.51860785484314,bicycle,bicycle,c50,0403_cop_s06_c50_bicycle_10_n02835271_5554.png
subject-06,1,404,0.648745059967041,car,boat,c05,0404_cop_s06_c05_boat_10_n02951358_11450.png
subject-06,1,405,0.495464086532593,clock,clock,c30,0405_cop_s06_c30_clock_10_n02708093_3454.png
subject-06,1,406,0.627519845962524,car,car,c30,0406_cop_s06_c30_car_10_n02814533_84523.png
subject-06,1,407,0.503520965576172,bicycle,bicycle,c100,0407_cop_s06_c100_bicycle_10_n03792782_11609.png
subject-06,1,408,0.666317939758301,truck,truck,c30,0408_cop_s06_c30_truck_10_n03417042_4560.png
subject-06,1,409,0.92043399810791,boat,boat,c10,0409_cop_s06_c10_boat_10_n03662601_2576.png
subject-06,1,410,0.620521783828735,car,car,c50,0410_cop_s06_c50_car_10_n03100240_7342.png
subject-06,1,411,0.804918050765991,knife,bottle,c05,0411_cop_s06_c05_bottle_10_n04591713_5501.png
subject-06,1,412,1.03505706787109,bird,keyboard,c05,0412_cop_s06_c05_keyboard_10_n04505470_5156.png
subject-06,1,413,0.702999114990234,bear,bear,c10,0413_cop_s06_c10_bear_10_n02132136_4817.png
subject-06,1,414,0.710089921951294,car,car,c05,0414_cop_s06_c05_car_10_n04285008_4037.png
subject-06,1,415,1.09148597717285,oven,truck,c05,0415_cop_s06_c05_truck_10_n03417042_3952.png
subject-06,1,416,0.71594500541687,bear,bear,c05,0416_cop_s06_c05_bear_10_n02133161_4493.png
subject-06,1,417,0.592385053634644,chair,chair,c100,0417_cop_s06_c100_chair_10_n04099969_6828.png
subject-06,1,418,1.21706104278564,chair,chair,c10,0418_cop_s06_c10_chair_10_n04429376_39754.png
subject-06,1,419,0.762923002243042,airplane,clock,c01,0419_cop_s06_c01_clock_10_n02708093_6619.png
subject-06,1,420,0.661313056945801,keyboard,airplane,c01,0420_cop_s06_c01_airplane_10_n02690373_6682.png
subject-06,1,421,0.885907888412476,car,car,c10,0421_cop_s06_c10_car_10_n02814533_3055.png
subject-06,1,422,0.578391075134277,cat,bear,c05,0422_cop_s06_c05_bear_10_n02134418_5067.png
subject-06,1,423,0.862253904342651,elephant,elephant,c50,0423_cop_s06_c50_elephant_10_n02504013_2012.png
subject-06,1,424,0.7377769947052,airplane,airplane,c50,0424_cop_s06_c50_airplane_10_n02690373_9404.png
subject-06,1,425,0.851861953735352,truck,truck,c05,0425_cop_s06_c05_truck_10_n04467665_59509.png
subject-06,1,426,0.805469989776611,knife,oven,c15,0426_cop_s06_c15_oven_10_n04111531_1855.png
subject-06,1,427,0.622047901153564,keyboard,bottle,c03,0427_cop_s06_c03_bottle_10_n03983396_2763.png
subject-06,1,428,0.598017930984497,bird,knife,c05,0428_cop_s06_c05_knife_10_n03041632_18748.png
subject-06,1,429,0.712518930435181,car,car,c05,0429_cop_s06_c05_car_10_n02814533_39618.png
subject-06,1,430,0.804188013076782,car,car,c15,0430_cop_s06_c15_car_10_n04285008_12508.png
subject-06,1,431,0.742097854614258,airplane,truck,c01,0431_cop_s06_c01_truck_10_n03796401_1899.png
subject-06,1,432,1.01842498779297,bird,bird,c05,0432_cop_s06_c05_bird_10_n02027492_1554.png
subject-06,1,433,0.602918148040771,keyboard,keyboard,c100,0433_cop_s06_c100_keyboard_10_n04505470_4706.png
subject-06,1,434,0.771117925643921,chair,chair,c30,0434_cop_s06_c30_chair_10_n03376595_10318.png
subject-06,1,435,0.738611936569214,car,car,c05,0435_cop_s06_c05_car_10_n03100240_5595.png
subject-06,1,436,0.892087936401367,cat,cat,c30,0436_cop_s06_c30_cat_10_n02123394_1832.png
subject-06,1,437,0.738499164581299,chair,bottle,c03,0437_cop_s06_c03_bottle_10_n04591713_4927.png
subject-06,1,438,0.514396190643311,airplane,airplane,c30,0438_cop_s06_c30_airplane_10_n02690373_9376.png
subject-06,1,439,0.531049013137817,boat,bear,c01,0439_cop_s06_c01_bear_10_n02134084_12428.png
subject-06,1,440,0.61520791053772,car,truck,c05,0440_cop_s06_c05_truck_10_n03417042_8707.png
subject-06,1,441,0.6318199634552,airplane,chair,c05,0441_cop_s06_c05_chair_10_n03376595_7172.png
subject-06,1,442,0.769759893417358,bicycle,airplane,c01,0442_cop_s06_c01_airplane_10_n02690373_7200.png
subject-06,1,443,0.683593034744263,clock,oven,c03,0443_cop_s06_c03_oven_10_n04111531_6500.png
subject-06,1,444,0.68344783782959,bicycle,bicycle,c50,0444_cop_s06_c50_bicycle_10_n03792782_15752.png
subject-06,1,445,0.98143196105957,keyboard,keyboard,c15,0445_cop_s06_c15_keyboard_10_n03085013_23118.png
subject-06,1,446,0.927130937576294,elephant,elephant,c100,0446_cop_s06_c100_elephant_10_n02504458_1661.png
subject-06,1,447,0.689882040023804,bottle,bottle,c100,0447_cop_s06_c100_bottle_10_n04560804_1487.png
subject-06,1,448,0.566133975982666,chair,chair,c10,0448_cop_s06_c10_chair_10_n04429376_17336.png
subject-06,1,449,0.942015886306763,boat,boat,c05,0449_cop_s06_c05_boat_10_n04273569_6637.png
subject-06,1,450,0.645222902297974,bear,oven,c15,0450_cop_s06_c15_oven_10_n04111531_9123.png
subject-06,1,451,0.558998823165894,chair,chair,c50,0451_cop_s06_c50_chair_10_n02791124_2463.png
subject-06,1,452,0.685001134872437,car,car,c15,0452_cop_s06_c15_car_10_n03100240_24327.png
subject-06,1,453,0.693455934524536,dog,dog,c15,0453_cop_s06_c15_dog_10_n02093256_1566.png
subject-06,1,454,0.599774837493896,airplane,airplane,c01,0454_cop_s06_c01_airplane_10_n02690373_971.png
subject-06,1,455,0.686979055404663,cat,truck,c01,0455_cop_s06_c01_truck_10_n03417042_1279.png
subject-06,1,456,0.517638921737671,keyboard,keyboard,c15,0456_cop_s06_c15_keyboard_10_n03085013_20898.png
subject-06,1,457,0.68540096282959,chair,oven,c30,0457_cop_s06_c30_oven_10_n04111531_172.png
subject-06,1,458,1.01798605918884,truck,oven,c10,0458_cop_s06_c10_oven_10_n04111531_18520.png
subject-06,1,459,1.13185477256775,keyboard,clock,c15,0459_cop_s06_c15_clock_10_n03196217_3063.png
subject-06,1,460,0.769400835037231,airplane,truck,c15,0460_cop_s06_c15_truck_10_n03417042_28552.png
subject-06,1,461,0.777927160263062,bear,bear,c15,0461_cop_s06_c15_bear_10_n02134084_2929.png
subject-06,1,462,0.662406921386719,airplane,knife,c05,0462_cop_s06_c05_knife_10_n03041632_47410.png
subject-06,1,463,0.547153949737549,cat,cat,c03,0463_cop_s06_c03_cat_10_n02124075_13719.png
subject-06,1,464,0.863775968551636,keyboard,keyboard,c30,0464_cop_s06_c30_keyboard_10_n03085013_25559.png
subject-06,1,465,0.615792989730835,boat,chair,c01,0465_cop_s06_c01_chair_10_n04429376_5220.png
subject-06,1,466,0.477965831756592,bear,bear,c100,0466_cop_s06_c100_bear_10_n02133161_5412.png
subject-06,1,467,0.770497798919678,cat,elephant,c15,0467_cop_s06_c15_elephant_10_n02504013_3433.png
subject-06,1,468,0.637969970703125,airplane,airplane,c05,0468_cop_s06_c05_airplane_10_n02690373_7748.png
subject-06,1,469,0.622375965118408,keyboard,keyboard,c03,0469_cop_s06_c03_keyboard_10_n04505470_5172.png
subject-06,1,470,0.874156951904297,car,clock,c30,0470_cop_s06_c30_clock_10_n04548280_821.png
subject-06,1,471,1.01966500282288,knife,bottle,c05,0471_cop_s06_c05_bottle_10_n03983396_11885.png
subject-06,1,472,0.750169992446899,keyboard,oven,c05,0472_cop_s06_c05_oven_10_n04111531_1826.png
subject-06,1,473,0.59650182723999,cat,boat,c01,0473_cop_s06_c01_boat_10_n02951358_6414.png
subject-06,1,474,0.710253000259399,boat,boat,c15,0474_cop_s06_c15_boat_10_n03662601_17483.png
subject-06,1,475,0.610527038574219,boat,boat,c10,0475_cop_s06_c10_boat_10_n03344393_3845.png
subject-06,1,476,0.640210151672363,airplane,bottle,c05,0476_cop_s06_c05_bottle_10_n04557648_5127.png
subject-06,1,477,1.15513110160828,dog,dog,c100,0477_cop_s06_c100_dog_10_n02088094_10882.png
subject-06,1,478,0.90162205696106,airplane,bird,c03,0478_cop_s06_c03_bird_10_n01855672_13410.png
subject-06,1,479,0.57244610786438,boat,dog,c01,0479_cop_s06_c01_dog_10_n02094258_1592.png
subject-06,1,480,0.818575859069824,dog,dog,c100,0480_cop_s06_c100_dog_10_n02104029_4727.png
subject-06,1,481,1.01910996437073,knife,knife,c05,0481_cop_s06_c05_knife_10_n03041632_12130.png
subject-06,1,482,0.641039848327637,bear,bear,c50,0482_cop_s06_c50_bear_10_n02134084_23332.png
subject-06,1,483,0.549190044403076,bottle,bottle,c50,0483_cop_s06_c50_bottle_10_n02823428_3985.png
subject-06,1,484,0.555637836456299,keyboard,keyboard,c30,0484_cop_s06_c30_keyboard_10_n03085013_3539.png
subject-06,1,485,0.602362871170044,truck,truck,c10,0485_cop_s06_c10_truck_10_n03417042_8912.png
subject-06,1,486,0.848566055297852,oven,oven,c10,0486_cop_s06_c10_oven_10_n04111531_9429.png
subject-06,1,487,0.602182149887085,bicycle,bicycle,c100,0487_cop_s06_c100_bicycle_10_n03792782_3410.png
subject-06,1,488,0.737905979156494,cat,cat,c15,0488_cop_s06_c15_cat_10_n02123159_1365.png
subject-06,1,489,0.71366810798645,bicycle,bicycle,c15,0489_cop_s06_c15_bicycle_10_n02835271_24851.png
subject-06,1,490,0.892078161239624,airplane,airplane,c03,0490_cop_s06_c03_airplane_10_n02690373_3728.png
subject-06,1,491,0.730484008789062,bear,cat,c30,0491_cop_s06_c30_cat_10_n02123045_6440.png
subject-06,1,492,0.536830902099609,cat,bear,c01,0492_cop_s06_c01_bear_10_n02132136_1405.png
subject-06,1,493,0.636773109436035,oven,oven,c100,0493_cop_s06_c100_oven_10_n04111531_2189.png
subject-06,1,494,0.599342823028564,bear,bear,c30,0494_cop_s06_c30_bear_10_n02134084_14754.png
subject-06,1,495,0.858960866928101,bird,bird,c100,0495_cop_s06_c100_bird_10_n01582220_32242.png
subject-06,1,496,0.90491509437561,knife,oven,c10,0496_cop_s06_c10_oven_10_n04111531_4189.png
subject-06,1,497,0.627861976623535,airplane,airplane,c05,0497_cop_s06_c05_airplane_10_n02690373_6223.png
subject-06,1,498,0.93635892868042,truck,truck,c30,0498_cop_s06_c30_truck_10_n04467665_40162.png
subject-06,1,499,0.599526166915894,cat,cat,c50,0499_cop_s06_c50_cat_10_n02123597_10950.png
subject-06,1,500,1.1350839138031,dog,bird,c15,0500_cop_s06_c15_bird_10_n02017213_7608.png
subject-06,1,501,0.651103019714355,boat,boat,c50,0501_cop_s06_c50_boat_10_n04273569_1771.png
subject-06,1,502,0.635634899139404,truck,keyboard,c05,0502_cop_s06_c05_keyboard_10_n04505470_2326.png
subject-06,1,503,0.656780004501343,cat,bicycle,c05,0503_cop_s06_c05_bicycle_10_n03792782_15431.png
subject-06,1,504,0.654855966567993,bear,bear,c30,0504_cop_s06_c30_bear_10_n02132136_9199.png
subject-06,1,505,0.638568878173828,oven,keyboard,c01,0505_cop_s06_c01_keyboard_10_n03085013_15432.png
subject-06,1,506,0.893401861190796,car,car,c03,0506_cop_s06_c03_car_10_n03100240_5573.png
subject-06,1,507,0.768852949142456,bicycle,bird,c01,0507_cop_s06_c01_bird_10_n01582220_3769.png
subject-06,1,508,0.774834871292114,boat,bird,c01,0508_cop_s06_c01_bird_10_n02018207_6697.png
subject-06,1,509,0.675175905227661,keyboard,keyboard,c01,0509_cop_s06_c01_keyboard_10_n04505470_1687.png
subject-06,1,510,0.989567041397095,cat,dog,c03,0510_cop_s06_c03_dog_10_n02088466_11318.png
subject-06,1,511,0.627439975738525,car,car,c100,0511_cop_s06_c100_car_10_n03100240_18547.png
subject-06,1,512,0.782099008560181,elephant,elephant,c10,0512_cop_s06_c10_elephant_10_n02504458_11216.png
subject-06,1,513,1.02278304100037,bird,cat,c15,0513_cop_s06_c15_cat_10_n02123159_3495.png
subject-06,1,514,0.652473926544189,clock,clock,c10,0514_cop_s06_c10_clock_10_n02708093_2260.png
subject-06,1,515,0.728530883789062,truck,truck,c50,0515_cop_s06_c50_truck_10_n03796401_1149.png
subject-06,1,516,0.597115039825439,clock,keyboard,c01,0516_cop_s06_c01_keyboard_10_n03085013_2464.png
subject-06,1,517,1.21083998680115,bicycle,bicycle,c50,0517_cop_s06_c50_bicycle_10_n03792782_48449.png
subject-06,1,518,0.635417222976685,chair,chair,c05,0518_cop_s06_c05_chair_10_n02791124_1126.png
subject-06,1,519,0.458081007003784,clock,clock,c05,0519_cop_s06_c05_clock_10_n02708093_6768.png
subject-06,1,520,0.566161870956421,boat,elephant,c01,0520_cop_s06_c01_elephant_10_n02504458_1996.png
subject-06,1,521,0.642813920974731,knife,knife,c30,0521_cop_s06_c30_knife_10_n03041632_3005.png
subject-06,1,522,0.581216096878052,car,car,c100,0522_cop_s06_c100_car_10_n03100240_20185.png
subject-06,1,523,0.718945026397705,dog,dog,c100,0523_cop_s06_c100_dog_10_n02109961_21386.png
subject-06,1,524,0.625481128692627,bear,bear,c30,0524_cop_s06_c30_bear_10_n02133161_1976.png
subject-06,1,525,1.02504801750183,airplane,bird,c03,0525_cop_s06_c03_bird_10_n02056570_8865.png
subject-06,1,526,0.638739109039307,cat,clock,c01,0526_cop_s06_c01_clock_10_n04548280_3323.png
subject-06,1,527,0.7691650390625,oven,oven,c100,0527_cop_s06_c100_oven_10_n04111531_1004.png
subject-06,1,528,0.639723062515259,bear,bear,c05,0528_cop_s06_c05_bear_10_n02133161_334.png
subject-06,1,529,0.724238157272339,chair,clock,c10,0529_cop_s06_c10_clock_10_n03196217_3862.png
subject-06,1,530,0.670529842376709,airplane,airplane,c10,0530_cop_s06_c10_airplane_10_n02690373_8950.png
subject-06,1,531,0.770886898040771,airplane,oven,c03,0531_cop_s06_c03_oven_10_n04111531_2803.png
subject-06,1,532,0.723630905151367,dog,dog,c100,0532_cop_s06_c100_dog_10_n02085936_4474.png
subject-06,1,533,0.686212778091431,chair,chair,c15,0533_cop_s06_c15_chair_10_n04099969_10014.png
subject-06,1,534,1.22986888885498,boat,boat,c10,0534_cop_s06_c10_boat_10_n03662601_1604.png
subject-06,1,535,0.491796016693115,clock,clock,c15,0535_cop_s06_c15_clock_10_n04548280_8037.png
subject-06,1,536,1.06384301185608,knife,oven,c50,0536_cop_s06_c50_oven_10_n04111531_7076.png
subject-06,1,537,0.963844060897827,bird,knife,c05,0537_cop_s06_c05_knife_10_n03041632_9635.png
subject-06,1,538,0.656639099121094,oven,bottle,c01,0538_cop_s06_c01_bottle_10_n03983396_899.png
subject-06,1,539,0.895052909851074,cat,bear,c05,0539_cop_s06_c05_bear_10_n02133161_12304.png
subject-06,1,540,0.801297903060913,bear,bear,c10,0540_cop_s06_c10_bear_10_n02134418_2488.png
subject-06,1,541,0.626221895217896,dog,dog,c100,0541_cop_s06_c100_dog_10_n02099601_1323.png
subject-06,1,542,0.824306011199951,airplane,truck,c03,0542_cop_s06_c03_truck_10_n03417042_7521.png
subject-06,1,543,0.671032190322876,airplane,airplane,c15,0543_cop_s06_c15_airplane_10_n02690373_8846.png
subject-06,1,544,0.847342967987061,elephant,elephant,c05,0544_cop_s06_c05_elephant_10_n02504013_7303.png
subject-06,1,545,1.09395217895508,knife,bottle,c05,0545_cop_s06_c05_bottle_10_n04579145_1597.png
subject-06,1,546,0.547034025192261,clock,clock,c50,0546_cop_s06_c50_clock_10_n02708093_2295.png
subject-06,1,547,0.677479982376099,chair,chair,c30,0547_cop_s06_c30_chair_10_n04099969_32019.png
subject-06,1,548,1.03741478919983,bicycle,chair,c05,0548_cop_s06_c05_chair_10_n04099969_4675.png
subject-06,1,549,0.675364971160889,bear,bear,c10,0549_cop_s06_c10_bear_10_n02134084_1921.png
subject-06,1,550,0.821597814559937,truck,truck,c15,0550_cop_s06_c15_truck_10_n03417042_6685.png
subject-06,1,551,0.706214904785156,oven,oven,c10,0551_cop_s06_c10_oven_10_n04111531_25647.png
subject-06,1,552,1.07395887374878,truck,truck,c100,0552_cop_s06_c100_truck_10_n04467665_33086.png
subject-06,1,553,0.858699083328247,boat,bird,c01,0553_cop_s06_c01_bird_10_n01820546_663.png
subject-06,1,554,0.666517019271851,chair,chair,c10,0554_cop_s06_c10_chair_10_n04429376_7181.png
subject-06,1,555,0.537101030349731,knife,knife,c50,0555_cop_s06_c50_knife_10_n03041632_2338.png
subject-06,1,556,1.14939904212952,elephant,elephant,c05,0556_cop_s06_c05_elephant_10_n02504458_5331.png
subject-06,1,557,0.565119028091431,bicycle,bicycle,c10,0557_cop_s06_c10_bicycle_10_n02835271_18453.png
subject-06,1,558,0.879703044891357,dog,dog,c10,0558_cop_s06_c10_dog_10_n02086646_4148.png
subject-06,1,559,0.520241975784302,airplane,airplane,c30,0559_cop_s06_c30_airplane_10_n02690373_181.png
subject-06,1,560,0.695802927017212,oven,oven,c30,0560_cop_s06_c30_oven_10_n04111531_892.png
subject-06,1,561,1.3479471206665,car,clock,c100,0561_cop_s06_c100_clock_10_n02708093_279.png
subject-06,1,562,1.24655914306641,truck,bird,c10,0562_cop_s06_c10_bird_10_n01820546_2172.png
subject-06,1,563,0.640866994857788,bicycle,elephant,c15,0563_cop_s06_c15_elephant_10_n02504458_3843.png
subject-06,1,564,0.678717136383057,dog,dog,c15,0564_cop_s06_c15_dog_10_n02099267_6480.png
subject-06,1,565,0.664561986923218,chair,chair,c50,0565_cop_s06_c50_chair_10_n02791124_13072.png
subject-06,1,566,0.870269060134888,elephant,elephant,c50,0566_cop_s06_c50_elephant_10_n02504013_645.png
subject-06,1,567,0.648672819137573,knife,knife,c30,0567_cop_s06_c30_knife_10_n03041632_10000.png
subject-06,1,568,0.587437868118286,car,car,c10,0568_cop_s06_c10_car_10_n03100240_2335.png
subject-06,1,569,0.900990009307861,chair,chair,c100,0569_cop_s06_c100_chair_10_n02791124_17001.png
subject-06,1,570,0.56867504119873,clock,clock,c30,0570_cop_s06_c30_clock_10_n03196217_1687.png
subject-06,1,571,0.768499851226807,cat,dog,c15,0571_cop_s06_c15_dog_10_n02101556_4112.png
subject-06,1,572,0.683235883712769,car,bird,c01,0572_cop_s06_c01_bird_10_n02017213_4796.png
subject-06,1,573,0.506925106048584,bicycle,bicycle,c30,0573_cop_s06_c30_bicycle_10_n03792782_30354.png
subject-06,1,574,0.521072864532471,car,car,c50,0574_cop_s06_c50_car_10_n03100240_4519.png
subject-06,1,575,0.520430088043213,bicycle,bicycle,c05,0575_cop_s06_c05_bicycle_10_n03792782_975.png
subject-06,1,576,0.657354116439819,cat,boat,c01,0576_cop_s06_c01_boat_10_n02951358_17867.png
subject-06,1,577,0.56554388999939,airplane,truck,c01,0577_cop_s06_c01_truck_10_n03796401_12028.png
subject-06,1,578,0.541700124740601,car,car,c30,0578_cop_s06_c30_car_10_n02814533_9634.png
subject-06,1,579,0.863943099975586,dog,dog,c15,0579_cop_s06_c15_dog_10_n02096437_1926.png
subject-06,1,580,0.541862010955811,clock,chair,c01,0580_cop_s06_c01_chair_10_n02791124_15754.png
subject-06,1,581,0.840323925018311,knife,knife,c50,0581_cop_s06_c50_knife_10_n03041632_8468.png
subject-06,1,582,0.79457688331604,knife,knife,c10,0582_cop_s06_c10_knife_10_n03041632_87380.png
subject-06,1,583,0.533460855484009,clock,clock,c15,0583_cop_s06_c15_clock_10_n02708093_6982.png
subject-06,1,584,0.579744100570679,keyboard,keyboard,c05,0584_cop_s06_c05_keyboard_10_n04505470_709.png
subject-06,1,585,0.594188928604126,bear,bear,c100,0585_cop_s06_c100_bear_10_n02134084_8112.png
subject-06,1,586,0.731522083282471,truck,truck,c10,0586_cop_s06_c10_truck_10_n03417042_7547.png
subject-06,1,587,0.700051069259644,car,car,c10,0587_cop_s06_c10_car_10_n02814533_12010.png
subject-06,1,588,1.33081102371216,oven,truck,c03,0588_cop_s06_c03_truck_10_n04467665_54349.png
subject-06,1,589,0.839157819747925,elephant,elephant,c03,0589_cop_s06_c03_elephant_10_n02504013_8980.png
subject-06,1,590,0.614855051040649,bird,dog,c01,0590_cop_s06_c01_dog_10_n02105251_2328.png
subject-06,1,591,0.569401979446411,bear,bear,c50,0591_cop_s06_c50_bear_10_n02134418_873.png
subject-06,1,592,0.999482870101929,bicycle,bird,c15,0592_cop_s06_c15_bird_10_n01817953_2714.png
subject-06,1,593,0.792226076126099,bird,bird,c05,0593_cop_s06_c05_bird_10_n01843383_4503.png
subject-06,1,594,0.592535972595215,bottle,bottle,c30,0594_cop_s06_c30_bottle_10_n02823428_198.png
subject-06,1,595,0.75278902053833,keyboard,keyboard,c100,0595_cop_s06_c100_keyboard_10_n04505470_989.png
subject-06,1,596,0.612782955169678,car,cat,c03,0596_cop_s06_c03_cat_10_n02123597_9110.png
subject-06,1,597,0.613639116287231,knife,knife,c10,0597_cop_s06_c10_knife_10_n03041632_42156.png
subject-06,1,598,1.28151798248291,bird,oven,c01,0598_cop_s06_c01_oven_10_n04111531_4050.png
subject-06,1,599,0.597973108291626,truck,truck,c100,0599_cop_s06_c100_truck_10_n03417042_4574.png
subject-06,1,600,0.758397102355957,bear,bear,c100,0600_cop_s06_c100_bear_10_n02134084_8962.png
subject-06,1,601,0.950928926467896,cat,cat,c15,0601_cop_s06_c15_cat_10_n02124075_2565.png
subject-06,1,602,0.574229001998901,airplane,airplane,c100,0602_cop_s06_c100_airplane_10_n02690373_9743.png
subject-06,1,603,0.668944120407104,bottle,bottle,c30,0603_cop_s06_c30_bottle_10_n04591713_18281.png
subject-06,1,604,0.47661304473877,keyboard,keyboard,c30,0604_cop_s06_c30_keyboard_10_n03085013_22949.png
subject-06,1,605,0.760942935943604,car,boat,c01,0605_cop_s06_c01_boat_10_n02951358_15271.png
subject-06,1,606,0.736402034759521,knife,knife,c30,0606_cop_s06_c30_knife_10_n03041632_24883.png
subject-06,1,607,0.588958024978638,keyboard,keyboard,c50,0607_cop_s06_c50_keyboard_10_n03085013_23571.png
subject-06,1,608,0.735809803009033,cat,dog,c03,0608_cop_s06_c03_dog_10_n02105641_14112.png
subject-06,1,609,0.565322875976562,boat,knife,c01,0609_cop_s06_c01_knife_10_n03041632_51766.png
subject-06,1,610,0.849725008010864,elephant,elephant,c100,0610_cop_s06_c100_elephant_10_n02504458_609.png
subject-06,1,611,1.05826807022095,knife,car,c01,0611_cop_s06_c01_car_10_n03100240_3461.png
subject-06,1,612,0.612033843994141,truck,truck,c100,0612_cop_s06_c100_truck_10_n03796401_14186.png
subject-06,1,613,1.03986120223999,truck,truck,c50,0613_cop_s06_c50_truck_10_n04467665_80493.png
subject-06,1,614,0.618331909179688,airplane,knife,c01,0614_cop_s06_c01_knife_10_n03041632_11475.png
subject-06,1,615,0.654179811477661,cat,dog,c10,0615_cop_s06_c10_dog_10_n02106550_5768.png
subject-06,1,616,0.870863914489746,car,boat,c03,0616_cop_s06_c03_boat_10_n04273569_3437.png
subject-06,1,617,0.617109060287476,boat,boat,c15,0617_cop_s06_c15_boat_10_n03344393_806.png
subject-06,1,618,0.763704061508179,elephant,elephant,c05,0618_cop_s06_c05_elephant_10_n02504013_24680.png
subject-06,1,619,0.808203935623169,bird,elephant,c05,0619_cop_s06_c05_elephant_10_n02504458_1933.png
subject-06,1,620,0.640708923339844,boat,boat,c10,0620_cop_s06_c10_boat_10_n04612504_1336.png
subject-06,1,621,1.04680705070496,car,car,c15,0621_cop_s06_c15_car_10_n03100240_22466.png
subject-06,1,622,0.855057954788208,bird,bird,c100,0622_cop_s06_c100_bird_10_n01819313_1378.png
subject-06,1,623,1.24562191963196,bird,chair,c05,0623_cop_s06_c05_chair_10_n04099969_13105.png
subject-06,1,624,1.14538097381592,boat,boat,c100,0624_cop_s06_c100_boat_10_n04273569_8114.png
subject-06,1,625,0.707808971405029,elephant,elephant,c50,0625_cop_s06_c50_elephant_10_n02504458_1431.png
subject-06,1,626,0.781529903411865,bicycle,bicycle,c03,0626_cop_s06_c03_bicycle_10_n02835271_269.png
subject-06,1,627,0.581768035888672,oven,bird,c01,0627_cop_s06_c01_bird_10_n02027492_6463.png
subject-06,1,628,0.925434827804565,knife,knife,c30,0628_cop_s06_c30_knife_10_n03041632_22330.png
subject-06,1,629,0.925800085067749,boat,boat,c01,0629_cop_s06_c01_boat_10_n02951358_5673.png
subject-06,1,630,1.30181097984314,dog,dog,c50,0630_cop_s06_c50_dog_10_n02100877_16887.png
subject-06,1,631,0.824673891067505,elephant,elephant,c50,0631_cop_s06_c50_elephant_10_n02504458_8296.png
subject-06,1,632,0.761139154434204,boat,bear,c01,0632_cop_s06_c01_bear_10_n02133161_4051.png
subject-06,1,633,0.996746063232422,keyboard,bird,c01,0633_cop_s06_c01_bird_10_n02027492_10740.png
subject-06,1,634,0.545492887496948,car,car,c50,0634_cop_s06_c50_car_10_n03100240_7139.png
subject-06,1,635,0.588989019393921,bottle,bottle,c30,0635_cop_s06_c30_bottle_10_n04579145_749.png
subject-06,1,636,0.66569995880127,knife,knife,c10,0636_cop_s06_c10_knife_10_n03041632_25512.png
subject-06,1,637,0.643706083297729,cat,cat,c01,0637_cop_s06_c01_cat_10_n02123597_14821.png
subject-06,1,638,0.465593814849854,oven,bear,c05,0638_cop_s06_c05_bear_10_n02134084_17358.png
subject-06,1,639,0.650439023971558,bottle,bottle,c03,0639_cop_s06_c03_bottle_10_n04591713_2362.png
subject-06,1,640,0.903059959411621,elephant,elephant,c10,0640_cop_s06_c10_elephant_10_n02504458_14537.png
subject-06,1,641,0.729584932327271,keyboard,keyboard,c15,0641_cop_s06_c15_keyboard_10_n03085013_5539.png
subject-06,1,642,0.668151140213013,dog,boat,c05,0642_cop_s06_c05_boat_10_n03344393_2118.png
subject-06,1,643,0.527963876724243,keyboard,keyboard,c15,0643_cop_s06_c15_keyboard_10_n04505470_3068.png
subject-06,1,644,0.457674026489258,boat,boat,c05,0644_cop_s06_c05_boat_10_n03662601_2577.png
subject-06,1,645,0.572013854980469,bicycle,bicycle,c100,0645_cop_s06_c100_bicycle_10_n03792782_4629.png
subject-06,1,646,0.818506956100464,clock,clock,c50,0646_cop_s06_c50_clock_10_n02708093_616.png
subject-06,1,647,0.611248016357422,cat,clock,c05,0647_cop_s06_c05_clock_10_n02708093_8047.png
subject-06,1,648,0.995528936386108,knife,boat,c03,0648_cop_s06_c03_boat_10_n04612504_2471.png
subject-06,1,649,0.419674158096313,cat,keyboard,c15,0649_cop_s06_c15_keyboard_10_n03085013_23005.png
subject-06,1,650,0.671705007553101,boat,boat,c01,0650_cop_s06_c01_boat_10_n02951358_12636.png
subject-06,1,651,0.618196964263916,boat,boat,c50,0651_cop_s06_c50_boat_10_n04612504_11079.png
subject-06,1,652,0.54075813293457,car,car,c50,0652_cop_s06_c50_car_10_n02814533_61004.png
subject-06,1,653,0.742033958435059,knife,clock,c03,0653_cop_s06_c03_clock_10_n02708093_3621.png
subject-06,1,654,0.586952924728394,keyboard,keyboard,c100,0654_cop_s06_c100_keyboard_10_n03085013_18832.png
subject-06,1,655,0.568989992141724,clock,clock,c100,0655_cop_s06_c100_clock_10_n04548280_4295.png
subject-06,1,656,0.631103992462158,bird,bird,c15,0656_cop_s06_c15_bird_10_n01592084_261.png
subject-06,1,657,0.552839040756226,clock,cat,c03,0657_cop_s06_c03_cat_10_n02125311_19878.png
subject-06,1,658,0.62952184677124,chair,chair,c30,0658_cop_s06_c30_chair_10_n02791124_15934.png
subject-06,1,659,0.675980091094971,bird,bird,c10,0659_cop_s06_c10_bird_10_n01797886_5845.png
subject-06,1,660,1.33655595779419,bird,chair,c50,0660_cop_s06_c50_chair_10_n04429376_30921.png
subject-06,1,661,0.413882970809937,cat,cat,c10,0661_cop_s06_c10_cat_10_n02123394_4186.png
subject-06,1,662,0.619609117507935,bear,dog,c30,0662_cop_s06_c30_dog_10_n02094114_6771.png
subject-06,1,663,0.680022001266479,keyboard,keyboard,c10,0663_cop_s06_c10_keyboard_10_n03085013_20753.png
subject-06,1,664,0.555808067321777,clock,clock,c30,0664_cop_s06_c30_clock_10_n03196217_9432.png
subject-06,1,665,0.94015908241272,bird,cat,c05,0665_cop_s06_c05_cat_10_n02123159_1157.png
subject-06,1,666,0.664528846740723,car,car,c30,0666_cop_s06_c30_car_10_n04285008_11658.png
subject-06,1,667,0.732736110687256,car,car,c05,0667_cop_s06_c05_car_10_n03100240_13601.png
subject-06,1,668,0.792212009429932,bear,elephant,c50,0668_cop_s06_c50_elephant_10_n02504013_1970.png
subject-06,1,669,0.546874046325684,cat,cat,c100,0669_cop_s06_c100_cat_10_n02125311_30036.png
subject-06,1,670,0.552702188491821,bird,bird,c50,0670_cop_s06_c50_bird_10_n02037110_16468.png
subject-06,1,671,0.936738014221191,cat,cat,c03,0671_cop_s06_c03_cat_10_n02123159_4098.png
subject-06,1,672,0.675284862518311,clock,knife,c15,0672_cop_s06_c15_knife_10_n03041632_13424.png
subject-06,1,673,0.867638111114502,chair,cat,c05,0673_cop_s06_c05_cat_10_n02124075_13142.png
subject-06,1,674,0.689052820205688,bear,bear,c30,0674_cop_s06_c30_bear_10_n02133161_10342.png
subject-06,1,675,1.01073598861694,elephant,clock,c01,0675_cop_s06_c01_clock_10_n03196217_8251.png
subject-06,1,676,0.679274082183838,boat,boat,c30,0676_cop_s06_c30_boat_10_n02951358_31181.png
subject-06,1,677,1.05765414237976,elephant,oven,c15,0677_cop_s06_c15_oven_10_n04111531_21208.png
subject-06,1,678,0.680341958999634,car,car,c05,0678_cop_s06_c05_car_10_n04285008_16321.png
subject-06,1,679,0.664021015167236,car,car,c30,0679_cop_s06_c30_car_10_n04285008_10901.png
subject-06,1,680,0.940487861633301,airplane,keyboard,c03,0680_cop_s06_c03_keyboard_10_n03085013_23693.png
subject-06,1,681,0.675992965698242,bicycle,bicycle,c50,0681_cop_s06_c50_bicycle_10_n03792782_18884.png
subject-06,1,682,0.767405986785889,boat,bird,c01,0682_cop_s06_c01_bird_10_n02025239_7501.png
subject-06,1,683,0.597356081008911,cat,bicycle,c01,0683_cop_s06_c01_bicycle_10_n03792782_2358.png
subject-06,1,684,0.743748903274536,bicycle,bicycle,c05,0684_cop_s06_c05_bicycle_10_n02835271_23624.png
subject-06,1,685,0.795751094818115,elephant,elephant,c50,0685_cop_s06_c50_elephant_10_n02504458_10326.png
subject-06,1,686,0.655431985855103,cat,bird,c10,0686_cop_s06_c10_bird_10_n01558993_9277.png
subject-06,1,687,0.631659984588623,car,car,c100,0687_cop_s06_c100_car_10_n02814533_29367.png
subject-06,1,688,0.81552791595459,car,car,c03,0688_cop_s06_c03_car_10_n02814533_39933.png
subject-06,1,689,0.653950929641724,elephant,elephant,c10,0689_cop_s06_c10_elephant_10_n02504013_3087.png
subject-06,1,690,0.546331882476807,car,car,c15,0690_cop_s06_c15_car_10_n04285008_3185.png
subject-06,1,691,1.0530571937561,knife,bottle,c30,0691_cop_s06_c30_bottle_10_n03937543_10438.png
subject-06,1,692,0.539555072784424,bottle,bottle,c05,0692_cop_s06_c05_bottle_10_n02823428_7792.png
subject-06,1,693,0.469380855560303,boat,knife,c01,0693_cop_s06_c01_knife_10_n03041632_18859.png
subject-06,1,694,0.736907005310059,bicycle,bicycle,c15,0694_cop_s06_c15_bicycle_10_n03792782_70690.png
subject-06,1,695,0.659687995910645,keyboard,clock,c10,0695_cop_s06_c10_clock_10_n03196217_3283.png
subject-06,1,696,0.668753862380981,cat,elephant,c01,0696_cop_s06_c01_elephant_10_n02504013_7005.png
subject-06,1,697,0.44753098487854,bicycle,bicycle,c50,0697_cop_s06_c50_bicycle_10_n02835271_1345.png
subject-06,1,698,0.669688940048218,bear,bear,c50,0698_cop_s06_c50_bear_10_n02134418_12172.png
subject-06,1,699,0.71298623085022,dog,dog,c10,0699_cop_s06_c10_dog_10_n02105162_5613.png
subject-06,1,700,0.85505485534668,bottle,bottle,c50,0700_cop_s06_c50_bottle_10_n04560804_3555.png
subject-06,1,701,0.593323945999146,clock,dog,c01,0701_cop_s06_c01_dog_10_n02091244_743.png
subject-06,1,702,0.469291925430298,cat,cat,c30,0702_cop_s06_c30_cat_10_n02125311_12428.png
subject-06,1,703,0.90785813331604,bear,bird,c05,0703_cop_s06_c05_bird_10_n02028035_32046.png
subject-06,1,704,0.508232116699219,boat,boat,c100,0704_cop_s06_c100_boat_10_n04612504_17854.png
subject-06,1,705,0.798627138137817,bottle,bottle,c50,0705_cop_s06_c50_bottle_10_n02823428_4234.png
subject-06,1,706,0.536407947540283,keyboard,keyboard,c50,0706_cop_s06_c50_keyboard_10_n04505470_10690.png
subject-06,1,707,1.02895712852478,truck,truck,c100,0707_cop_s06_c100_truck_10_n03417042_1651.png
subject-06,1,708,0.567424058914185,oven,oven,c30,0708_cop_s06_c30_oven_10_n04111531_18052.png
subject-06,1,709,0.459450006484985,boat,boat,c10,0709_cop_s06_c10_boat_10_n03662601_8285.png
subject-06,1,710,0.643777847290039,bicycle,bicycle,c50,0710_cop_s06_c50_bicycle_10_n02835271_17238.png
subject-06,1,711,0.828583002090454,clock,clock,c05,0711_cop_s06_c05_clock_10_n03196217_3903.png
subject-06,1,712,0.558846950531006,oven,oven,c50,0712_cop_s06_c50_oven_10_n04111531_4845.png
subject-06,1,713,0.72738790512085,bird,bird,c30,0713_cop_s06_c30_bird_10_n02013706_4014.png
subject-06,1,714,1.01190090179443,elephant,dog,c03,0714_cop_s06_c03_dog_10_n02112018_6691.png
subject-06,1,715,0.549775838851929,airplane,airplane,c15,0715_cop_s06_c15_airplane_10_n02690373_3617.png
subject-06,1,716,0.726141929626465,bottle,bottle,c50,0716_cop_s06_c50_bottle_10_n02823428_14023.png
subject-06,1,717,0.549293041229248,boat,keyboard,c03,0717_cop_s06_c03_keyboard_10_n03085013_19483.png
subject-06,1,718,0.665696859359741,clock,boat,c01,0718_cop_s06_c01_boat_10_n03662601_10021.png
subject-06,1,719,0.750983953475952,cat,cat,c10,0719_cop_s06_c10_cat_10_n02123159_7485.png
subject-06,1,720,0.480891942977905,clock,oven,c05,0720_cop_s06_c05_oven_10_n04111531_3689.png
subject-06,1,721,0.688768148422241,bird,bird,c30,0721_cop_s06_c30_bird_10_n01558993_10575.png
subject-06,1,722,0.679205894470215,dog,dog,c100,0722_cop_s06_c100_dog_10_n02100735_1680.png
subject-06,1,723,0.5868239402771,airplane,chair,c03,0723_cop_s06_c03_chair_10_n04429376_5891.png
subject-06,1,724,0.823312997817993,clock,bottle,c03,0724_cop_s06_c03_bottle_10_n03983396_2102.png
subject-06,1,725,0.740121126174927,car,bear,c05,0725_cop_s06_c05_bear_10_n02134084_2004.png
subject-06,1,726,0.632524013519287,boat,boat,c15,0726_cop_s06_c15_boat_10_n02951358_30092.png
subject-06,1,727,0.53839111328125,car,car,c10,0727_cop_s06_c10_car_10_n02814533_89837.png
subject-06,1,728,0.668215990066528,elephant,elephant,c100,0728_cop_s06_c100_elephant_10_n02504013_6405.png
subject-06,1,729,0.568799018859863,truck,truck,c05,0729_cop_s06_c05_truck_10_n04467665_67922.png
subject-06,1,730,0.707609891891479,cat,cat,c05,0730_cop_s06_c05_cat_10_n02123394_2269.png
subject-06,1,731,0.80011510848999,bird,bird,c15,0731_cop_s06_c15_bird_10_n02027492_8404.png
subject-06,1,732,0.560821056365967,chair,chair,c30,0732_cop_s06_c30_chair_10_n03376595_9099.png
subject-06,1,733,0.885387182235718,elephant,elephant,c100,0733_cop_s06_c100_elephant_10_n02504013_4373.png
subject-06,1,734,0.582669973373413,clock,keyboard,c01,0734_cop_s06_c01_keyboard_10_n03085013_21166.png
subject-06,1,735,0.591274976730347,bird,cat,c01,0735_cop_s06_c01_cat_10_n02123597_7584.png
subject-06,1,736,0.629729986190796,oven,keyboard,c01,0736_cop_s06_c01_keyboard_10_n03085013_24653.png
subject-06,1,737,0.714554071426392,bear,bear,c03,0737_cop_s06_c03_bear_10_n02134084_645.png
subject-06,1,738,0.451966047286987,cat,elephant,c10,0738_cop_s06_c10_elephant_10_n02504013_8992.png
subject-06,1,739,0.444055080413818,keyboard,keyboard,c15,0739_cop_s06_c15_keyboard_10_n04505470_2109.png
subject-06,1,740,0.974313020706177,cat,dog,c05,0740_cop_s06_c05_dog_10_n02088094_1506.png
subject-06,1,741,0.474900960922241,car,car,c50,0741_cop_s06_c50_car_10_n04285008_8101.png
subject-06,1,742,0.726738929748535,keyboard,knife,c15,0742_cop_s06_c15_knife_10_n03041632_55953.png
subject-06,1,743,0.811089038848877,airplane,airplane,c10,0743_cop_s06_c10_airplane_10_n02690373_3151.png
subject-06,1,744,0.595956087112427,clock,clock,c15,0744_cop_s06_c15_clock_10_n02708093_2943.png
subject-06,1,745,0.558804035186768,boat,keyboard,c03,0745_cop_s06_c03_keyboard_10_n03085013_8912.png
subject-06,1,746,0.672206163406372,oven,chair,c03,0746_cop_s06_c03_chair_10_n02791124_3211.png
subject-06,1,747,0.540199995040894,cat,cat,c100,0747_cop_s06_c100_cat_10_n02123159_1038.png
subject-06,1,748,0.57023811340332,cat,cat,c05,0748_cop_s06_c05_cat_10_n02123159_716.png
subject-06,1,749,0.578835964202881,elephant,elephant,c30,0749_cop_s06_c30_elephant_10_n02504013_3916.png
subject-06,1,750,0.492483854293823,cat,cat,c10,0750_cop_s06_c10_cat_10_n02123597_5764.png
subject-06,1,751,0.500581979751587,bird,bird,c05,0751_cop_s06_c05_bird_10_n02011460_4506.png
subject-06,1,752,0.576893091201782,airplane,elephant,c01,0752_cop_s06_c01_elephant_10_n02504458_7070.png
subject-06,1,753,0.436657905578613,cat,cat,c10,0753_cop_s06_c10_cat_10_n02123045_12761.png
subject-06,1,754,0.542911052703857,boat,keyboard,c01,0754_cop_s06_c01_keyboard_10_n03085013_22729.png
subject-06,1,755,0.443610191345215,elephant,elephant,c15,0755_cop_s06_c15_elephant_10_n02504458_4359.png
subject-06,1,756,0.6978440284729,elephant,elephant,c30,0756_cop_s06_c30_elephant_10_n02504013_23998.png
subject-06,1,757,0.48961615562439,bear,bear,c15,0757_cop_s06_c15_bear_10_n02134084_18382.png
subject-06,1,758,0.563467025756836,cat,dog,c03,0758_cop_s06_c03_dog_10_n02093647_524.png
subject-06,1,759,0.496068954467773,airplane,airplane,c15,0759_cop_s06_c15_airplane_10_n02690373_12964.png
subject-06,1,760,0.563731908798218,chair,chair,c100,0760_cop_s06_c100_chair_10_n04429376_602.png
subject-06,1,761,1.23849201202393,elephant,elephant,c15,0761_cop_s06_c15_elephant_10_n02504458_4997.png
subject-06,1,762,0.875845909118652,bottle,bottle,c30,0762_cop_s06_c30_bottle_10_n03983396_18508.png
subject-06,1,763,1.09024310112,bird,bird,c100,0763_cop_s06_c100_bird_10_n02025239_4888.png
subject-06,1,764,0.6978440284729,dog,dog,c50,0764_cop_s06_c50_dog_10_n02095570_3095.png
subject-06,1,765,0.734458923339844,truck,truck,c100,0765_cop_s06_c100_truck_10_n03417042_1149.png
subject-06,1,766,0.588962078094482,clock,car,c01,0766_cop_s06_c01_car_10_n04285008_1680.png
subject-06,1,767,0.643352031707764,elephant,elephant,c30,0767_cop_s06_c30_elephant_10_n02504458_1715.png
subject-06,1,768,0.460134983062744,clock,clock,c50,0768_cop_s06_c50_clock_10_n04548280_1810.png
subject-06,1,769,0.837108850479126,keyboard,clock,c05,0769_cop_s06_c05_clock_10_n02708093_695.png
subject-06,1,770,0.859334945678711,oven,oven,c30,0770_cop_s06_c30_oven_10_n04111531_8414.png
subject-06,1,771,0.519994020462036,cat,cat,c05,0771_cop_s06_c05_cat_10_n02124075_1123.png
subject-06,1,772,0.57436203956604,cat,cat,c05,0772_cop_s06_c05_cat_10_n02124075_13437.png
subject-06,1,773,0.490734815597534,airplane,boat,c50,0773_cop_s06_c50_boat_10_n03344393_8747.png
subject-06,1,774,0.591409921646118,airplane,bird,c03,0774_cop_s06_c03_bird_10_n01530575_10597.png
subject-06,1,775,0.713551998138428,boat,airplane,c01,0775_cop_s06_c01_airplane_10_n02690373_7409.png
subject-06,1,776,0.665929079055786,airplane,airplane,c10,0776_cop_s06_c10_airplane_10_n02690373_8123.png
subject-06,1,777,0.535889863967896,bicycle,bicycle,c30,0777_cop_s06_c30_bicycle_10_n02835271_6309.png
subject-06,1,778,0.550413131713867,elephant,elephant,c15,0778_cop_s06_c15_elephant_10_n02504013_4892.png
subject-06,1,779,0.534323930740356,bottle,bottle,c05,0779_cop_s06_c05_bottle_10_n02823428_8160.png
subject-06,1,780,1.3538978099823,oven,oven,c50,0780_cop_s06_c50_oven_10_n04111531_4331.png
subject-06,1,781,1.13278293609619,boat,chair,c03,0781_cop_s06_c03_chair_10_n02791124_13026.png
subject-06,1,782,0.700889110565186,knife,knife,c30,0782_cop_s06_c30_knife_10_n03041632_992.png
subject-06,1,783,0.792963027954102,truck,truck,c30,0783_cop_s06_c30_truck_10_n04467665_45202.png
subject-06,1,784,0.636312007904053,dog,dog,c100,0784_cop_s06_c100_dog_10_n02108915_12955.png
subject-06,1,785,0.542387962341309,airplane,airplane,c05,0785_cop_s06_c05_airplane_10_n02690373_3589.png
subject-06,1,786,0.396420001983643,clock,clock,c100,0786_cop_s06_c100_clock_10_n04548280_7639.png
subject-06,1,787,0.534086942672729,bird,bird,c50,0787_cop_s06_c50_bird_10_n01582220_3156.png
subject-06,1,788,0.853811979293823,oven,oven,c100,0788_cop_s06_c100_oven_10_n04111531_8681.png
subject-06,1,789,0.624637126922607,airplane,airplane,c10,0789_cop_s06_c10_airplane_10_n02690373_1706.png
subject-06,1,790,0.514910936355591,keyboard,keyboard,c30,0790_cop_s06_c30_keyboard_10_n03085013_21231.png
subject-06,1,791,0.685494184494019,car,car,c03,0791_cop_s06_c03_car_10_n04285008_11973.png
subject-06,1,792,1.09251594543457,cat,dog,c03,0792_cop_s06_c03_dog_10_n02099601_10666.png
subject-06,1,793,0.600757837295532,bear,bear,c50,0793_cop_s06_c50_bear_10_n02134084_22684.png
subject-06,1,794,0.547444820404053,boat,boat,c05,0794_cop_s06_c05_boat_10_n02951358_10834.png
subject-06,1,795,0.728825807571411,bicycle,oven,c100,0795_cop_s06_c100_oven_10_n04111531_690.png
subject-06,1,796,0.767544984817505,dog,dog,c50,0796_cop_s06_c50_dog_10_n02092002_6041.png
subject-06,1,797,1.4822690486908,dog,dog,c03,0797_cop_s06_c03_dog_10_n02109047_10022.png
subject-06,1,798,1.24401807785034,bottle,oven,c30,0798_cop_s06_c30_oven_10_n04111531_3191.png
subject-06,1,799,0.633807897567749,elephant,elephant,c100,0799_cop_s06_c100_elephant_10_n02504458_1726.png
subject-06,1,800,0.425819158554077,boat,boat,c100,0800_cop_s06_c100_boat_10_n02951358_3155.png
subject-06,1,801,0.622565031051636,chair,chair,c50,0801_cop_s06_c50_chair_10_n04099969_2233.png
subject-06,1,802,0.714459896087646,airplane,boat,c05,0802_cop_s06_c05_boat_10_n02951358_3451.png
subject-06,1,803,0.559209823608398,bear,bear,c30,0803_cop_s06_c30_bear_10_n02134084_16084.png
subject-06,1,804,0.964545011520386,oven,oven,c10,0804_cop_s06_c10_oven_10_n04111531_16251.png
subject-06,1,805,0.580838918685913,boat,boat,c100,0805_cop_s06_c100_boat_10_n04273569_216.png
subject-06,1,806,0.878955125808716,bicycle,truck,c05,0806_cop_s06_c05_truck_10_n03417042_7111.png
subject-06,1,807,0.487792015075684,cat,cat,c15,0807_cop_s06_c15_cat_10_n02123394_5104.png
subject-06,1,808,0.810218095779419,airplane,oven,c03,0808_cop_s06_c03_oven_10_n04111531_9939.png
subject-06,1,809,0.564998865127563,chair,chair,c30,0809_cop_s06_c30_chair_10_n02791124_5071.png
subject-06,1,810,0.570639848709106,clock,clock,c05,0810_cop_s06_c05_clock_10_n03196217_8740.png
subject-06,1,811,0.746086120605469,cat,dog,c15,0811_cop_s06_c15_dog_10_n02105162_6459.png
subject-06,1,812,0.690739870071411,knife,knife,c50,0812_cop_s06_c50_knife_10_n03041632_94470.png
subject-06,1,813,0.674586057662964,bird,bird,c30,0813_cop_s06_c30_bird_10_n02028035_20039.png
subject-06,1,814,0.843086957931519,airplane,airplane,c50,0814_cop_s06_c50_airplane_10_n02690373_5149.png
subject-06,1,815,0.736097097396851,cat,airplane,c01,0815_cop_s06_c01_airplane_10_n02690373_1071.png
subject-06,1,816,0.77400803565979,bird,bird,c15,0816_cop_s06_c15_bird_10_n01798484_13611.png
subject-06,1,817,0.842235088348389,cat,cat,c50,0817_cop_s06_c50_cat_10_n02123159_6745.png
subject-06,1,818,0.642531871795654,knife,knife,c05,0818_cop_s06_c05_knife_10_n03041632_27960.png
subject-06,1,819,0.580886125564575,cat,elephant,c03,0819_cop_s06_c03_elephant_10_n02504458_13406.png
subject-06,1,820,0.68169116973877,truck,truck,c05,0820_cop_s06_c05_truck_10_n04467665_68841.png
subject-06,1,821,1.23355007171631,chair,chair,c100,0821_cop_s06_c100_chair_10_n03376595_120.png
subject-06,1,822,0.594074964523315,clock,clock,c15,0822_cop_s06_c15_clock_10_n02708093_7251.png
subject-06,1,823,0.532244920730591,airplane,airplane,c30,0823_cop_s06_c30_airplane_10_n02690373_15966.png
subject-06,1,824,1.21590709686279,clock,oven,c10,0824_cop_s06_c10_oven_10_n04111531_5582.png
subject-06,1,825,0.545839071273804,airplane,airplane,c100,0825_cop_s06_c100_airplane_10_n02690373_5724.png
subject-06,1,826,0.560656070709229,cat,cat,c100,0826_cop_s06_c100_cat_10_n02123597_9648.png
subject-06,1,827,0.791136026382446,bicycle,bicycle,c50,0827_cop_s06_c50_bicycle_10_n03792782_485.png
subject-06,1,828,0.696917057037354,elephant,elephant,c30,0828_cop_s06_c30_elephant_10_n02504458_5851.png
subject-06,1,829,1.1433789730072,cat,dog,c05,0829_cop_s06_c05_dog_10_n02086079_3493.png
subject-06,1,830,0.877164125442505,bicycle,dog,c05,0830_cop_s06_c05_dog_10_n02092002_9696.png
subject-06,1,831,0.691318988800049,bicycle,chair,c05,0831_cop_s06_c05_chair_10_n04099969_21106.png
subject-06,1,832,0.775454998016357,boat,boat,c50,0832_cop_s06_c50_boat_10_n04612504_23408.png
subject-06,1,833,0.727228164672852,elephant,elephant,c05,0833_cop_s06_c05_elephant_10_n02504458_2719.png
subject-06,1,834,0.627612829208374,knife,knife,c05,0834_cop_s06_c05_knife_10_n03041632_11495.png
subject-06,1,835,1.28005504608154,car,car,c15,0835_cop_s06_c15_car_10_n04285008_15637.png
subject-06,1,836,0.795919895172119,cat,cat,c50,0836_cop_s06_c50_cat_10_n02123394_5753.png
subject-06,1,837,0.556544065475464,boat,boat,c10,0837_cop_s06_c10_boat_10_n03662601_12300.png
subject-06,1,838,0.724742889404297,dog,dog,c15,0838_cop_s06_c15_dog_10_n02107312_4383.png
subject-06,1,839,1.16311502456665,clock,clock,c100,0839_cop_s06_c100_clock_10_n03196217_2346.png
subject-06,1,840,1.35254001617432,airplane,airplane,c30,0840_cop_s06_c30_airplane_10_n02690373_5628.png
subject-06,1,841,0.812520980834961,bicycle,bottle,c05,0841_cop_s06_c05_bottle_10_n03983396_6073.png
subject-06,1,842,0.758459091186523,knife,knife,c15,0842_cop_s06_c15_knife_10_n03041632_27022.png
subject-06,1,843,0.880996942520142,truck,truck,c50,0843_cop_s06_c50_truck_10_n04467665_33099.png
subject-06,1,844,0.819377183914185,chair,chair,c10,0844_cop_s06_c10_chair_10_n02791124_10108.png
subject-06,1,845,0.686785936355591,bear,bear,c100,0845_cop_s06_c100_bear_10_n02134084_3479.png
subject-06,1,846,0.576613903045654,clock,clock,c100,0846_cop_s06_c100_clock_10_n03196217_5165.png
subject-06,1,847,0.853371858596802,car,dog,c10,0847_cop_s06_c10_dog_10_n02088466_5212.png
subject-06,1,848,0.653723001480103,bicycle,bicycle,c100,0848_cop_s06_c100_bicycle_10_n02835271_5189.png
subject-06,1,849,0.559775829315186,car,car,c05,0849_cop_s06_c05_car_10_n04285008_10884.png
subject-06,1,850,0.430598974227905,oven,oven,c30,0850_cop_s06_c30_oven_10_n04111531_10358.png
subject-06,1,851,0.599494934082031,clock,boat,c03,0851_cop_s06_c03_boat_10_n03344393_4485.png
subject-06,1,852,1.50003004074097,truck,truck,c100,0852_cop_s06_c100_truck_10_n03796401_6574.png
subject-06,1,853,0.691651821136475,clock,dog,c01,0853_cop_s06_c01_dog_10_n02087046_11684.png
subject-06,1,854,0.513263940811157,chair,chair,c15,0854_cop_s06_c15_chair_10_n02791124_1137.png
subject-06,1,855,0.88744592666626,dog,dog,c100,0855_cop_s06_c100_dog_10_n02090622_9693.png
subject-06,1,856,0.565592050552368,clock,oven,c01,0856_cop_s06_c01_oven_10_n04111531_891.png
subject-06,1,857,0.872268915176392,knife,bottle,c03,0857_cop_s06_c03_bottle_10_n02823428_13746.png
subject-06,1,858,0.723662853240967,clock,clock,c05,0858_cop_s06_c05_clock_10_n02708093_6560.png
subject-06,1,859,0.623026847839355,bird,bird,c30,0859_cop_s06_c30_bird_10_n01829413_8418.png
subject-06,1,860,1.22930407524109,elephant,elephant,c15,0860_cop_s06_c15_elephant_10_n02504013_7725.png
subject-06,1,861,1.04292583465576,chair,chair,c10,0861_cop_s06_c10_chair_10_n03376595_2657.png
subject-06,1,862,0.589411020278931,bird,bird,c05,0862_cop_s06_c05_bird_10_n01614925_1994.png
subject-06,1,863,0.887166976928711,chair,chair,c15,0863_cop_s06_c15_chair_10_n02791124_13720.png
subject-06,1,864,0.578842163085938,elephant,elephant,c30,0864_cop_s06_c30_elephant_10_n02504458_10603.png
subject-06,1,865,0.839502096176147,oven,oven,c100,0865_cop_s06_c100_oven_10_n04111531_7340.png
subject-06,1,866,0.910094976425171,boat,bird,c10,0866_cop_s06_c10_bird_10_n01622779_3603.png
subject-06,1,867,0.978259086608887,bicycle,bicycle,c01,0867_cop_s06_c01_bicycle_10_n02835271_6032.png
subject-06,1,868,0.754845857620239,chair,bottle,c15,0868_cop_s06_c15_bottle_10_n04557648_777.png
subject-06,1,869,0.723015069961548,dog,dog,c30,0869_cop_s06_c30_dog_10_n02104029_7869.png
subject-06,1,870,0.607409000396729,elephant,elephant,c50,0870_cop_s06_c50_elephant_10_n02504013_10304.png
subject-06,1,871,0.707528114318848,bear,bear,c100,0871_cop_s06_c100_bear_10_n02132136_234.png
subject-06,1,872,0.667135000228882,airplane,boat,c15,0872_cop_s06_c15_boat_10_n03344393_3558.png
subject-06,1,873,0.667771100997925,oven,oven,c30,0873_cop_s06_c30_oven_10_n04111531_7741.png
subject-06,1,874,0.644439935684204,boat,truck,c01,0874_cop_s06_c01_truck_10_n03417042_19862.png
subject-06,1,875,0.812772035598755,car,bottle,c01,0875_cop_s06_c01_bottle_10_n04557648_3766.png
subject-06,1,876,0.68113899230957,airplane,knife,c01,0876_cop_s06_c01_knife_10_n03041632_27898.png
subject-06,1,877,0.719563007354736,car,car,c05,0877_cop_s06_c05_car_10_n04285008_8866.png
subject-06,1,878,1.45833492279053,bottle,bottle,c10,0878_cop_s06_c10_bottle_10_n04591713_5928.png
subject-06,1,879,0.542603015899658,bear,cat,c05,0879_cop_s06_c05_cat_10_n02123597_3498.png
subject-06,1,880,0.989183902740479,boat,boat,c15,0880_cop_s06_c15_boat_10_n04273569_16515.png
subject-06,1,881,0.748868942260742,bicycle,bicycle,c15,0881_cop_s06_c15_bicycle_10_n03792782_16443.png
subject-06,1,882,0.79532790184021,airplane,bottle,c01,0882_cop_s06_c01_bottle_10_n03983396_10087.png
subject-06,1,883,0.526189088821411,airplane,airplane,c50,0883_cop_s06_c50_airplane_10_n02690373_3493.png
subject-06,1,884,0.610782146453857,boat,elephant,c01,0884_cop_s06_c01_elephant_10_n02504458_7322.png
subject-06,1,885,0.40379810333252,cat,cat,c15,0885_cop_s06_c15_cat_10_n02123159_7972.png
subject-06,1,886,1.3469557762146,knife,bicycle,c10,0886_cop_s06_c10_bicycle_10_n03792782_7344.png
subject-06,1,887,0.831244945526123,cat,cat,c10,0887_cop_s06_c10_cat_10_n02123045_2033.png
subject-06,1,888,0.623715877532959,chair,bird,c01,0888_cop_s06_c01_bird_10_n01534433_4886.png
subject-06,1,889,0.678745031356812,boat,boat,c03,0889_cop_s06_c03_boat_10_n04612504_22060.png
subject-06,1,890,0.731415033340454,bottle,bottle,c50,0890_cop_s06_c50_bottle_10_n04560804_5222.png
subject-06,1,891,0.815554141998291,bottle,bottle,c30,0891_cop_s06_c30_bottle_10_n04560804_15111.png
subject-06,1,892,0.670056104660034,bottle,bottle,c10,0892_cop_s06_c10_bottle_10_n04579145_2290.png
subject-06,1,893,0.700949192047119,boat,airplane,c01,0893_cop_s06_c01_airplane_10_n02690373_7239.png
subject-06,1,894,0.860634088516235,truck,truck,c100,0894_cop_s06_c100_truck_10_n03796401_3222.png
subject-06,1,895,0.952908992767334,bird,bird,c15,0895_cop_s06_c15_bird_10_n02018795_3702.png
subject-06,1,896,0.551354885101318,clock,boat,c01,0896_cop_s06_c01_boat_10_n02951358_30635.png
subject-06,1,897,1.36966705322266,knife,knife,c100,0897_cop_s06_c100_knife_10_n03041632_24646.png
subject-06,1,898,0.87020206451416,car,car,c03,0898_cop_s06_c03_car_10_n02814533_428.png
subject-06,1,899,0.896222114562988,boat,clock,c03,0899_cop_s06_c03_clock_10_n03196217_2639.png
subject-06,1,900,0.571913957595825,oven,keyboard,c01,0900_cop_s06_c01_keyboard_10_n03085013_21325.png
subject-06,1,901,0.818212032318115,elephant,elephant,c15,0901_cop_s06_c15_elephant_10_n02504013_6999.png
subject-06,1,902,0.510638952255249,bicycle,bicycle,c10,0902_cop_s06_c10_bicycle_10_n03792782_1831.png
subject-06,1,903,0.541327953338623,keyboard,keyboard,c100,0903_cop_s06_c100_keyboard_10_n04505470_186.png
subject-06,1,904,0.625480175018311,bottle,knife,c50,0904_cop_s06_c50_knife_10_n03041632_10796.png
subject-06,1,905,1.15639114379883,chair,chair,c100,0905_cop_s06_c100_chair_10_n03376595_2654.png
subject-06,1,906,0.932682037353516,bottle,bottle,c30,0906_cop_s06_c30_bottle_10_n02823428_5798.png
subject-06,1,907,0.678969144821167,bicycle,bicycle,c10,0907_cop_s06_c10_bicycle_10_n02835271_785.png
subject-06,1,908,0.554790019989014,cat,bear,c01,0908_cop_s06_c01_bear_10_n02132136_6155.png
subject-06,1,909,0.692821979522705,bottle,knife,c10,0909_cop_s06_c10_knife_10_n03041632_17091.png
subject-06,1,910,0.663428068161011,chair,chair,c100,0910_cop_s06_c100_chair_10_n03376595_7041.png
subject-06,1,911,0.685612201690674,boat,boat,c10,0911_cop_s06_c10_boat_10_n02951358_12357.png
subject-06,1,912,0.83992600440979,keyboard,keyboard,c03,0912_cop_s06_c03_keyboard_10_n03085013_20843.png
subject-06,1,913,0.798630952835083,bear,bear,c10,0913_cop_s06_c10_bear_10_n02133161_12944.png
subject-06,1,914,0.699053049087524,bottle,bottle,c100,0914_cop_s06_c100_bottle_10_n04557648_10221.png
subject-06,1,915,0.697393894195557,bottle,bottle,c50,0915_cop_s06_c50_bottle_10_n04579145_2004.png
subject-06,1,916,0.675948143005371,bear,bear,c50,0916_cop_s06_c50_bear_10_n02133161_13139.png
subject-06,1,917,0.868458986282349,clock,knife,c30,0917_cop_s06_c30_knife_10_n03041632_932.png
subject-06,1,918,0.561363935470581,cat,bottle,c01,0918_cop_s06_c01_bottle_10_n04579145_3078.png
subject-06,1,919,0.698585033416748,truck,truck,c15,0919_cop_s06_c15_truck_10_n03796401_7495.png
subject-06,1,920,0.558547973632812,clock,clock,c30,0920_cop_s06_c30_clock_10_n04548280_5957.png
subject-06,1,921,1.23512411117554,bottle,bottle,c15,0921_cop_s06_c15_bottle_10_n04557648_928.png
subject-06,1,922,1.09800910949707,bird,bottle,c03,0922_cop_s06_c03_bottle_10_n04557648_7956.png
subject-06,1,923,0.682382822036743,truck,truck,c50,0923_cop_s06_c50_truck_10_n04467665_34406.png
subject-06,1,924,0.612507820129395,bear,bear,c10,0924_cop_s06_c10_bear_10_n02132136_1621.png
subject-06,1,925,0.743534088134766,knife,bird,c03,0925_cop_s06_c03_bird_10_n01592084_7772.png
subject-06,1,926,0.851278066635132,bicycle,bicycle,c30,0926_cop_s06_c30_bicycle_10_n03792782_13950.png
subject-06,1,927,0.80583119392395,cat,cat,c01,0927_cop_s06_c01_cat_10_n02123159_6002.png
subject-06,1,928,0.746038198471069,bird,bird,c100,0928_cop_s06_c100_bird_10_n02007558_8815.png
subject-06,1,929,0.769604921340942,clock,elephant,c01,0929_cop_s06_c01_elephant_10_n02504458_5379.png
subject-06,1,930,0.624282121658325,airplane,elephant,c01,0930_cop_s06_c01_elephant_10_n02504458_6906.png
subject-06,1,931,1.10636901855469,bear,oven,c05,0931_cop_s06_c05_oven_10_n04111531_4227.png
subject-06,1,932,0.66094708442688,cat,cat,c05,0932_cop_s06_c05_cat_10_n02123159_3307.png
subject-06,1,933,0.669142007827759,airplane,airplane,c15,0933_cop_s06_c15_airplane_10_n02690373_464.png
subject-06,1,934,0.701997995376587,bottle,bottle,c15,0934_cop_s06_c15_bottle_10_n04560804_5048.png
subject-06,1,935,0.594582796096802,bicycle,chair,c01,0935_cop_s06_c01_chair_10_n02791124_1685.png
subject-06,1,936,0.753973007202148,dog,dog,c50,0936_cop_s06_c50_dog_10_n02108422_2814.png
subject-06,1,937,0.967720031738281,elephant,elephant,c30,0937_cop_s06_c30_elephant_10_n02504013_9791.png
subject-06,1,938,0.82006311416626,knife,knife,c50,0938_cop_s06_c50_knife_10_n03041632_19866.png
subject-06,1,939,0.644145965576172,bird,bird,c100,0939_cop_s06_c100_bird_10_n02018207_853.png
subject-06,1,940,0.536041975021362,knife,knife,c100,0940_cop_s06_c100_knife_10_n03041632_54732.png
subject-06,1,941,0.763782978057861,truck,truck,c03,0941_cop_s06_c03_truck_10_n03417042_18329.png
subject-06,1,942,0.725511074066162,elephant,elephant,c15,0942_cop_s06_c15_elephant_10_n02504013_7035.png
subject-06,1,943,0.978265047073364,cat,cat,c03,0943_cop_s06_c03_cat_10_n02123394_2129.png
subject-06,1,944,0.553932905197144,bicycle,bicycle,c10,0944_cop_s06_c10_bicycle_10_n02835271_14504.png
subject-06,1,945,0.578517913818359,airplane,elephant,c01,0945_cop_s06_c01_elephant_10_n02504013_21215.png
subject-06,1,946,0.555063962936401,bicycle,bicycle,c15,0946_cop_s06_c15_bicycle_10_n02835271_358.png
subject-06,1,947,0.93063497543335,truck,truck,c05,0947_cop_s06_c05_truck_10_n03417042_19668.png
subject-06,1,948,0.907064914703369,oven,knife,c50,0948_cop_s06_c50_knife_10_n03041632_28129.png
subject-06,1,949,0.767040967941284,truck,chair,c15,0949_cop_s06_c15_chair_10_n02791124_2233.png
subject-06,1,950,0.804737091064453,cat,cat,c100,0950_cop_s06_c100_cat_10_n02125311_25814.png
subject-06,1,951,0.634788036346436,bottle,bottle,c30,0951_cop_s06_c30_bottle_10_n03983396_1157.png
subject-06,1,952,0.712767839431763,car,boat,c30,0952_cop_s06_c30_boat_10_n02951358_15422.png
subject-06,1,953,0.64341402053833,airplane,knife,c01,0953_cop_s06_c01_knife_10_n03041632_23736.png
subject-06,1,954,0.749194860458374,truck,truck,c05,0954_cop_s06_c05_truck_10_n03417042_7621.png
subject-06,1,955,0.881827116012573,bottle,bottle,c100,0955_cop_s06_c100_bottle_10_n03983396_5026.png
subject-06,1,956,0.473417997360229,airplane,airplane,c100,0956_cop_s06_c100_airplane_10_n02690373_848.png
subject-06,1,957,0.871701955795288,truck,truck,c03,0957_cop_s06_c03_truck_10_n03417042_15179.png
subject-06,1,958,0.693397998809814,clock,clock,c01,0958_cop_s06_c01_clock_10_n04548280_7872.png
subject-06,1,959,0.755996942520142,knife,knife,c100,0959_cop_s06_c100_knife_10_n03041632_4808.png
subject-06,1,960,0.572364091873169,truck,truck,c50,0960_cop_s06_c50_truck_10_n03417042_2253.png
subject-06,1,961,0.510185956954956,boat,boat,c10,0961_cop_s06_c10_boat_10_n02951358_3898.png
subject-06,1,962,0.479249954223633,oven,car,c01,0962_cop_s06_c01_car_10_n02814533_1120.png
subject-06,1,963,0.517788887023926,keyboard,keyboard,c100,0963_cop_s06_c100_keyboard_10_n03085013_2300.png
subject-06,1,964,0.517697095870972,boat,boat,c50,0964_cop_s06_c50_boat_10_n04273569_8888.png
subject-06,1,965,0.910655975341797,elephant,elephant,c50,0965_cop_s06_c50_elephant_10_n02504013_1333.png
subject-06,1,966,1.23251891136169,truck,truck,c50,0966_cop_s06_c50_truck_10_n04467665_42414.png
subject-06,1,967,0.57281494140625,bear,bear,c30,0967_cop_s06_c30_bear_10_n02132136_5715.png
subject-06,1,968,0.824999094009399,car,car,c15,0968_cop_s06_c15_car_10_n04285008_12457.png
subject-06,1,969,0.494815111160278,cat,cat,c30,0969_cop_s06_c30_cat_10_n02123597_6972.png
subject-06,1,970,0.533689975738525,clock,bear,c03,0970_cop_s06_c03_bear_10_n02134418_2019.png
subject-06,1,971,0.993891954421997,bird,bird,c05,0971_cop_s06_c05_bird_10_n01622779_2991.png
subject-06,1,972,0.710417032241821,bird,bird,c10,0972_cop_s06_c10_bird_10_n02018207_924.png
subject-06,1,973,1.01632785797119,oven,oven,c15,0973_cop_s06_c15_oven_10_n04111531_1815.png
subject-06,1,974,0.670665979385376,truck,truck,c15,0974_cop_s06_c15_truck_10_n04467665_8443.png
subject-06,1,975,1.06868290901184,airplane,airplane,c10,0975_cop_s06_c10_airplane_10_n02690373_10006.png
subject-06,1,976,0.931184053421021,keyboard,dog,c10,0976_cop_s06_c10_dog_10_n02093991_2860.png
subject-06,1,977,0.868655920028687,truck,truck,c15,0977_cop_s06_c15_truck_10_n03417042_15045.png
subject-06,1,978,0.768954992294312,keyboard,keyboard,c30,0978_cop_s06_c30_keyboard_10_n03085013_22942.png
subject-06,1,979,0.921095132827759,keyboard,bottle,c05,0979_cop_s06_c05_bottle_10_n04557648_5308.png
subject-06,1,980,0.958713054656982,chair,oven,c10,0980_cop_s06_c10_oven_10_n04111531_15943.png
subject-06,1,981,0.983609199523926,knife,dog,c01,0981_cop_s06_c01_dog_10_n02097474_537.png
subject-06,1,982,1.18164801597595,boat,clock,c01,0982_cop_s06_c01_clock_10_n04548280_1199.png
subject-06,1,983,0.559543132781982,oven,oven,c50,0983_cop_s06_c50_oven_10_n04111531_663.png
subject-06,1,984,0.606341123580933,car,car,c100,0984_cop_s06_c100_car_10_n02814533_22824.png
subject-06,1,985,1.03373408317566,bear,bear,c15,0985_cop_s06_c15_bear_10_n02134084_15157.png
subject-06,1,986,0.820740938186646,bicycle,bicycle,c30,0986_cop_s06_c30_bicycle_10_n03792782_16122.png
subject-06,1,987,1.08078289031982,truck,oven,c05,0987_cop_s06_c05_oven_10_n04111531_13590.png
subject-06,1,988,0.735255002975464,airplane,airplane,c100,0988_cop_s06_c100_airplane_10_n02690373_20071.png
subject-06,1,989,1.12773108482361,clock,clock,c30,0989_cop_s06_c30_clock_10_n03196217_3289.png
subject-06,1,990,0.489506006240845,bird,bird,c100,0990_cop_s06_c100_bird_10_n02009912_278.png
subject-06,1,991,0.487626075744629,airplane,airplane,c30,0991_cop_s06_c30_airplane_10_n02690373_19742.png
subject-06,1,992,0.958214044570923,bear,bicycle,c03,0992_cop_s06_c03_bicycle_10_n03792782_66837.png
subject-06,1,993,0.610483884811401,elephant,elephant,c30,0993_cop_s06_c30_elephant_10_n02504458_6702.png
subject-06,1,994,0.513155937194824,boat,boat,c05,0994_cop_s06_c05_boat_10_n04612504_4199.png
subject-06,1,995,0.887373924255371,bird,oven,c100,0995_cop_s06_c100_oven_10_n04111531_615.png
subject-06,1,996,0.581468105316162,truck,truck,c30,0996_cop_s06_c30_truck_10_n03417042_12588.png
subject-06,1,997,0.60021710395813,bear,bear,c10,0997_cop_s06_c10_bear_10_n02133161_14423.png
subject-06,1,998,0.600918054580688,bottle,bottle,c15,0998_cop_s06_c15_bottle_10_n02823428_1767.png
subject-06,1,999,0.97716498374939,dog,dog,c15,0999_cop_s06_c15_dog_10_n02096294_7299.png
subject-06,1,1000,0.585062026977539,clock,oven,c01,1000_cop_s06_c01_oven_10_n04111531_585.png
subject-06,1,1001,0.540204048156738,bear,elephant,c10,1001_cop_s06_c10_elephant_10_n02504013_945.png
subject-06,1,1002,0.570596933364868,keyboard,keyboard,c30,1002_cop_s06_c30_keyboard_10_n03085013_8325.png
subject-06,1,1003,0.678392887115479,knife,knife,c10,1003_cop_s06_c10_knife_10_n03041632_17338.png
subject-06,1,1004,0.624891042709351,airplane,airplane,c10,1004_cop_s06_c10_airplane_10_n02690373_3736.png
subject-06,1,1005,0.59263801574707,bird,bird,c10,1005_cop_s06_c10_bird_10_n02009229_2304.png
subject-06,1,1006,0.485457181930542,airplane,airplane,c15,1006_cop_s06_c15_airplane_10_n02690373_7355.png
subject-06,1,1007,0.963889122009277,chair,dog,c03,1007_cop_s06_c03_dog_10_n02099849_3705.png
subject-06,1,1008,1.07047891616821,bird,cat,c01,1008_cop_s06_c01_cat_10_n02125311_47461.png
subject-06,1,1009,0.686057090759277,bicycle,bicycle,c30,1009_cop_s06_c30_bicycle_10_n03792782_17796.png
subject-06,1,1010,0.954219818115234,knife,knife,c15,1010_cop_s06_c15_knife_10_n03041632_965.png
subject-06,1,1011,0.537943124771118,keyboard,keyboard,c100,1011_cop_s06_c100_keyboard_10_n04505470_5161.png
subject-06,1,1012,0.537791013717651,car,bird,c03,1012_cop_s06_c03_bird_10_n01798484_17541.png
subject-06,1,1013,0.792394876480103,bicycle,bicycle,c15,1013_cop_s06_c15_bicycle_10_n02835271_12597.png
subject-06,1,1014,0.744278192520142,dog,dog,c10,1014_cop_s06_c10_dog_10_n02107908_1520.png
subject-06,1,1015,0.774044990539551,keyboard,oven,c50,1015_cop_s06_c50_oven_10_n04111531_10064.png
subject-06,1,1016,0.798814058303833,car,car,c03,1016_cop_s06_c03_car_10_n02814533_40531.png
subject-06,1,1017,0.699318170547485,bicycle,bicycle,c10,1017_cop_s06_c10_bicycle_10_n03792782_7878.png
subject-06,1,1018,0.507426023483276,bottle,bottle,c10,1018_cop_s06_c10_bottle_10_n04557648_6523.png
subject-06,1,1019,0.545123815536499,chair,chair,c10,1019_cop_s06_c10_chair_10_n02791124_1443.png
subject-06,1,1020,0.943733930587769,car,car,c03,1020_cop_s06_c03_car_10_n04285008_6271.png
subject-06,1,1021,1.03591299057007,bottle,bottle,c15,1021_cop_s06_c15_bottle_10_n04557648_376.png
subject-06,1,1022,1.13578391075134,airplane,truck,c10,1022_cop_s06_c10_truck_10_n04467665_23112.png
subject-06,1,1023,0.560134887695312,keyboard,keyboard,c03,1023_cop_s06_c03_keyboard_10_n04505470_9570.png
subject-06,1,1024,0.520103931427002,bicycle,bicycle,c100,1024_cop_s06_c100_bicycle_10_n02835271_8689.png
subject-06,1,1025,0.625084161758423,boat,bear,c01,1025_cop_s06_c01_bear_10_n02134084_41194.png
subject-06,1,1026,0.401504993438721,clock,clock,c15,1026_cop_s06_c15_clock_10_n03196217_7867.png
subject-06,1,1027,0.779414892196655,boat,boat,c100,1027_cop_s06_c100_boat_10_n04273569_8985.png
subject-06,1,1028,0.731282949447632,cat,cat,c05,1028_cop_s06_c05_cat_10_n02123597_8866.png
subject-06,1,1029,0.564089059829712,cat,cat,c100,1029_cop_s06_c100_cat_10_n02123159_7856.png
subject-06,1,1030,0.991456985473633,bicycle,bicycle,c05,1030_cop_s06_c05_bicycle_10_n02835271_9670.png
subject-06,1,1031,0.662003040313721,elephant,elephant,c05,1031_cop_s06_c05_elephant_10_n02504013_4295.png
subject-06,1,1032,0.805485010147095,boat,boat,c05,1032_cop_s06_c05_boat_10_n03344393_11870.png
subject-06,1,1033,0.898002862930298,bottle,bottle,c100,1033_cop_s06_c100_bottle_10_n03937543_10147.png
subject-06,1,1034,0.722050905227661,oven,bicycle,c01,1034_cop_s06_c01_bicycle_10_n02835271_11921.png
subject-06,1,1035,0.751801013946533,cat,knife,c15,1035_cop_s06_c15_knife_10_n03041632_19098.png
