subj,session,trial,rt,object_response,category,condition,imagename
subject-01,1,1,0.809489965438843,oven,oven,c50,0001_cop_s01_c50_oven_10_n04111531_23046.png
subject-01,1,2,0.741667985916138,boat,boat,c05,0002_cop_s01_c05_boat_10_n04612504_17854.png
subject-01,1,3,0.841970920562744,bicycle,bottle,c10,0003_cop_s01_c10_bottle_10_n03937543_2494.png
subject-01,1,4,1.15904402732849,chair,chair,c03,0004_cop_s01_c03_chair_10_n04429376_31331.png
subject-01,1,5,0.50562596321106,cat,cat,c50,0005_cop_s01_c50_cat_10_n02123597_13272.png
subject-01,1,6,0.798054933547974,knife,knife,c15,0006_cop_s01_c15_knife_10_n03041632_45090.png
subject-01,1,7,0.56865382194519,oven,oven,c100,0007_cop_s01_c100_oven_10_n04111531_9113.png
subject-01,1,8,0.630361795425415,cat,bottle,c05,0008_cop_s01_c05_bottle_10_n03983396_11137.png
subject-01,1,9,1.39851593971252,bear,bear,c50,0009_cop_s01_c50_bear_10_n02133161_4954.png
subject-01,1,10,1.07820796966553,oven,elephant,c05,0010_cop_s01_c05_elephant_10_n02504013_7633.png
subject-01,1,11,1.12396311759949,elephant,elephant,c15,0011_cop_s01_c15_elephant_10_n02504013_1792.png
subject-01,1,12,0.764782190322876,bird,boat,c01,0012_cop_s01_c01_boat_10_n02951358_20960.png
subject-01,1,13,0.623994112014771,cat,cat,c50,0013_cop_s01_c50_cat_10_n02123394_8592.png
subject-01,1,14,0.823485136032104,car,car,c100,0014_cop_s01_c100_car_10_n02814533_35760.png
subject-01,1,15,0.853858947753906,knife,knife,c03,0015_cop_s01_c03_knife_10_n03041632_89912.png
subject-01,1,16,0.53778600692749,clock,clock,c30,0016_cop_s01_c30_clock_10_n02708093_4976.png
subject-01,1,17,0.829571962356567,knife,knife,c30,0017_cop_s01_c30_knife_10_n03041632_44269.png
subject-01,1,18,0.662558078765869,keyboard,keyboard,c50,0018_cop_s01_c50_keyboard_10_n03085013_19161.png
subject-01,1,19,0.937803983688354,keyboard,keyboard,c100,0019_cop_s01_c100_keyboard_10_n04505470_3825.png
subject-01,1,20,0.616680860519409,boat,boat,c100,0020_cop_s01_c100_boat_10_n03344393_1131.png
subject-01,1,21,0.83808708190918,bear,bear,c100,0021_cop_s01_c100_bear_10_n02132136_10833.png
subject-01,1,22,0.901243925094604,truck,truck,c30,0022_cop_s01_c30_truck_10_n03417042_26885.png
subject-01,1,23,0.662907123565674,cat,truck,c03,0023_cop_s01_c03_truck_10_n03796401_23550.png
subject-01,1,24,1.23918080329895,chair,chair,c30,0024_cop_s01_c30_chair_10_n02791124_4109.png
subject-01,1,25,0.847151041030884,boat,boat,c15,0025_cop_s01_c15_boat_10_n03344393_6467.png
subject-01,1,26,0.477585077285767,cat,cat,c03,0026_cop_s01_c03_cat_10_n02123597_1965.png
subject-01,1,27,0.931762933731079,airplane,bicycle,c01,0027_cop_s01_c01_bicycle_10_n03792782_19040.png
subject-01,1,28,1.06963300704956,knife,knife,c03,0028_cop_s01_c03_knife_10_n03041632_36390.png
subject-01,1,29,0.585575103759766,keyboard,keyboard,c50,0029_cop_s01_c50_keyboard_10_n04505470_1047.png
subject-01,1,30,0.753458976745605,bird,bird,c01,0030_cop_s01_c01_bird_10_n02013706_3748.png
subject-01,1,31,0.660593032836914,bear,bear,c50,0031_cop_s01_c50_bear_10_n02132136_1132.png
subject-01,1,32,0.631734132766724,bear,bear,c15,0032_cop_s01_c15_bear_10_n02132136_11339.png
subject-01,1,33,0.945119857788086,bear,dog,c100,0033_cop_s01_c100_dog_10_n02090622_5881.png
subject-01,1,34,0.484133005142212,car,boat,c01,0034_cop_s01_c01_boat_10_n04273569_3112.png
subject-01,1,35,0.954713106155396,bear,elephant,c05,0035_cop_s01_c05_elephant_10_n02504458_1816.png
subject-01,1,36,0.600239992141724,oven,oven,c10,0036_cop_s01_c10_oven_10_n04111531_14279.png
subject-01,1,37,0.646708965301514,oven,oven,c100,0037_cop_s01_c100_oven_10_n04111531_887.png
subject-01,1,38,0.806953907012939,car,car,c50,0038_cop_s01_c50_car_10_n03100240_4971.png
subject-01,1,39,0.684424161911011,bottle,bottle,c05,0039_cop_s01_c05_bottle_10_n03937543_6014.png
subject-01,1,40,0.66085410118103,cat,cat,c03,0040_cop_s01_c03_cat_10_n02124075_12430.png
subject-01,1,41,0.814785003662109,cat,dog,c100,0041_cop_s01_c100_dog_10_n02107312_7422.png
subject-01,1,42,1.04713201522827,clock,bicycle,c05,0042_cop_s01_c05_bicycle_10_n03792782_10129.png
subject-01,1,43,0.745177984237671,elephant,elephant,c30,0043_cop_s01_c30_elephant_10_n02504013_5237.png
subject-01,1,44,0.814720869064331,clock,clock,c100,0044_cop_s01_c100_clock_10_n04548280_2383.png
subject-01,1,45,0.714585065841675,car,oven,c01,0045_cop_s01_c01_oven_10_n04111531_5102.png
subject-01,1,46,0.45991587638855,cat,clock,c03,0046_cop_s01_c03_clock_10_n02708093_1546.png
subject-01,1,47,0.414652109146118,oven,keyboard,c03,0047_cop_s01_c03_keyboard_10_n03085013_21447.png
subject-01,1,48,0.577063798904419,clock,clock,c100,0048_cop_s01_c100_clock_10_n03196217_8618.png
subject-01,1,49,0.991750001907349,cat,cat,c100,0049_cop_s01_c100_cat_10_n02125311_21377.png
subject-01,1,50,0.686115026473999,bird,bird,c30,0050_cop_s01_c30_bird_10_n01796340_10024.png
subject-01,1,51,0.640610933303833,car,car,c15,0051_cop_s01_c15_car_10_n03100240_11107.png
subject-01,1,52,0.6011061668396,bicycle,bicycle,c50,0052_cop_s01_c50_bicycle_10_n03792782_66048.png
subject-01,1,53,0.655574083328247,car,car,c10,0053_cop_s01_c10_car_10_n02814533_1480.png
subject-01,1,54,0.52608585357666,bottle,bottle,c30,0054_cop_s01_c30_bottle_10_n03983396_9090.png
subject-01,1,55,0.840446949005127,chair,chair,c15,0055_cop_s01_c15_chair_10_n02791124_5706.png
subject-01,1,56,0.764189004898071,car,keyboard,c01,0056_cop_s01_c01_keyboard_10_n04505470_1904.png
subject-01,1,57,0.640949964523315,boat,boat,c03,0057_cop_s01_c03_boat_10_n02951358_10488.png
subject-01,1,58,0.849221229553223,airplane,clock,c01,0058_cop_s01_c01_clock_10_n04548280_2343.png
subject-01,1,59,0.819442987442017,elephant,elephant,c100,0059_cop_s01_c100_elephant_10_n02504458_99.png
subject-01,1,60,1.2736918926239,oven,oven,c03,0060_cop_s01_c03_oven_10_n04111531_14611.png
subject-01,1,61,1.04268097877502,bear,bear,c15,0061_cop_s01_c15_bear_10_n02132136_1574.png
subject-01,1,62,0.434591054916382,clock,clock,c100,0062_cop_s01_c100_clock_10_n04548280_5773.png
subject-01,1,63,0.605188131332397,car,knife,c05,0063_cop_s01_c05_knife_10_n03041632_30602.png
subject-01,1,64,0.667902946472168,bear,bear,c30,0064_cop_s01_c30_bear_10_n02132136_4157.png
subject-01,1,65,1.13540005683899,elephant,elephant,c15,0065_cop_s01_c15_elephant_10_n02504013_1028.png
subject-01,1,66,0.928331851959229,knife,knife,c05,0066_cop_s01_c05_knife_10_n03041632_13509.png
subject-01,1,67,1.01204013824463,dog,dog,c30,0067_cop_s01_c30_dog_10_n02101388_8775.png
subject-01,1,68,0.836732149124146,elephant,elephant,c100,0068_cop_s01_c100_elephant_10_n02504458_8615.png
subject-01,1,69,0.752593994140625,bicycle,bicycle,c30,0069_cop_s01_c30_bicycle_10_n03792782_5426.png
subject-01,1,70,1.13711595535278,knife,knife,c30,0070_cop_s01_c30_knife_10_n03041632_92637.png
subject-01,1,71,0.913504123687744,airplane,dog,c03,0071_cop_s01_c03_dog_10_n02091467_9499.png
subject-01,1,72,0.670477151870728,elephant,elephant,c05,0072_cop_s01_c05_elephant_10_n02504013_8162.png
subject-01,1,73,0.615955829620361,car,car,c30,0073_cop_s01_c30_car_10_n02814533_18148.png
subject-01,1,74,0.55453085899353,oven,oven,c01,0074_cop_s01_c01_oven_10_n04111531_20953.png
subject-01,1,75,0.836185932159424,elephant,elephant,c05,0075_cop_s01_c05_elephant_10_n02504458_6029.png
subject-01,1,76,0.760606050491333,chair,chair,c10,0076_cop_s01_c10_chair_10_n04429376_56624.png
subject-01,1,77,0.885031938552856,oven,oven,c03,0077_cop_s01_c03_oven_10_n04111531_7619.png
subject-01,1,78,1.3456859588623,dog,dog,c50,0078_cop_s01_c50_dog_10_n02113023_4391.png
subject-01,1,79,0.753189086914062,chair,chair,c50,0079_cop_s01_c50_chair_10_n03376595_4669.png
subject-01,1,80,0.739662170410156,bird,dog,c01,0080_cop_s01_c01_dog_10_n02104365_1123.png
subject-01,1,81,0.754776954650879,keyboard,bird,c03,0081_cop_s01_c03_bird_10_n02017213_689.png
subject-01,1,82,1.17869997024536,car,clock,c03,0082_cop_s01_c03_clock_10_n02708093_3761.png
subject-01,1,83,0.647254943847656,cat,clock,c03,0083_cop_s01_c03_clock_10_n04548280_4582.png
subject-01,1,84,0.825411081314087,dog,dog,c15,0084_cop_s01_c15_dog_10_n02102318_11746.png
subject-01,1,85,1.49353098869324,bird,bird,c100,0085_cop_s01_c100_bird_10_n01616318_5417.png
subject-01,1,86,0.980247974395752,bird,bird,c03,0086_cop_s01_c03_bird_10_n02025239_660.png
subject-01,1,87,0.940515041351318,knife,knife,c100,0087_cop_s01_c100_knife_10_n03041632_86338.png
subject-01,1,88,0.981257915496826,chair,bicycle,c01,0088_cop_s01_c01_bicycle_10_n02835271_5437.png
subject-01,1,89,0.878691911697388,chair,chair,c100,0089_cop_s01_c100_chair_10_n04429376_10597.png
subject-01,1,90,0.765701055526733,car,car,c100,0090_cop_s01_c100_car_10_n03100240_15647.png
subject-01,1,91,0.766206026077271,elephant,elephant,c50,0091_cop_s01_c50_elephant_10_n02504458_4580.png
subject-01,1,92,0.666770935058594,boat,boat,c05,0092_cop_s01_c05_boat_10_n04273569_7312.png
subject-01,1,93,1.24356198310852,bird,cat,c50,0093_cop_s01_c50_cat_10_n02124075_10976.png
subject-01,1,94,0.967358827590942,chair,chair,c15,0094_cop_s01_c15_chair_10_n02791124_11404.png
subject-01,1,95,0.689800024032593,knife,knife,c15,0095_cop_s01_c15_knife_10_n03041632_51766.png
subject-01,1,96,0.844156980514526,knife,knife,c05,0096_cop_s01_c05_knife_10_n03041632_46112.png
subject-01,1,97,0.898375988006592,knife,knife,c10,0097_cop_s01_c10_knife_10_n03041632_24646.png
subject-01,1,98,0.882944107055664,keyboard,knife,c01,0098_cop_s01_c01_knife_10_n03041632_18126.png
subject-01,1,99,0.507819890975952,boat,boat,c10,0099_cop_s01_c10_boat_10_n03662601_4844.png
subject-01,1,100,0.71655011177063,oven,oven,c50,0100_cop_s01_c50_oven_10_n04111531_22388.png
subject-01,1,101,0.730265855789185,keyboard,keyboard,c50,0101_cop_s01_c50_keyboard_10_n03085013_661.png
subject-01,1,102,1.08495593070984,oven,oven,c30,0102_cop_s01_c30_oven_10_n04111531_467.png
subject-01,1,103,1.50044512748718,bird,bird,c50,0103_cop_s01_c50_bird_10_n02033041_6046.png
subject-01,1,104,0.439188003540039,airplane,airplane,c100,0104_cop_s01_c100_airplane_10_n02690373_9720.png
subject-01,1,105,0.810594081878662,knife,knife,c30,0105_cop_s01_c30_knife_10_n03041632_30565.png
subject-01,1,106,0.570230007171631,chair,chair,c03,0106_cop_s01_c03_chair_10_n04099969_3536.png
subject-01,1,107,0.629907131195068,car,car,c10,0107_cop_s01_c10_car_10_n04285008_10073.png
subject-01,1,108,0.838270902633667,keyboard,cat,c03,0108_cop_s01_c03_cat_10_n02123394_2632.png
subject-01,1,109,0.800620079040527,chair,clock,c01,0109_cop_s01_c01_clock_10_n02708093_7929.png
subject-01,1,110,0.647060871124268,oven,oven,c05,0110_cop_s01_c05_oven_10_n04111531_2923.png
subject-01,1,111,0.555331230163574,boat,boat,c03,0111_cop_s01_c03_boat_10_n02951358_34234.png
subject-01,1,112,0.647485971450806,oven,boat,c01,0112_cop_s01_c01_boat_10_n03344393_8761.png
subject-01,1,113,0.6024329662323,bottle,boat,c03,0113_cop_s01_c03_boat_10_n03344393_2676.png
subject-01,1,114,0.9568030834198,dog,dog,c10,0114_cop_s01_c10_dog_10_n02108422_2739.png
subject-01,1,115,0.563486099243164,car,car,c50,0115_cop_s01_c50_car_10_n03100240_21982.png
subject-01,1,116,0.504060029983521,oven,oven,c100,0116_cop_s01_c100_oven_10_n04111531_4685.png
subject-01,1,117,0.626090049743652,chair,chair,c10,0117_cop_s01_c10_chair_10_n04099969_4009.png
subject-01,1,118,0.817543983459473,elephant,elephant,c15,0118_cop_s01_c15_elephant_10_n02504458_2607.png
subject-01,1,119,0.861881017684937,keyboard,keyboard,c50,0119_cop_s01_c50_keyboard_10_n03085013_20682.png
subject-01,1,120,0.624140977859497,car,dog,c01,0120_cop_s01_c01_dog_10_n02098105_2086.png
subject-01,1,121,1.02980494499207,oven,oven,c05,0121_cop_s01_c05_oven_10_n04111531_22886.png
subject-01,1,122,0.923980951309204,knife,knife,c15,0122_cop_s01_c15_knife_10_n03041632_27709.png
subject-01,1,123,0.909044027328491,bicycle,truck,c01,0123_cop_s01_c01_truck_10_n03796401_2226.png
subject-01,1,124,0.48468279838562,boat,oven,c01,0124_cop_s01_c01_oven_10_n04111531_797.png
subject-01,1,125,0.668014049530029,oven,bicycle,c03,0125_cop_s01_c03_bicycle_10_n03792782_27510.png
subject-01,1,126,0.419355869293213,clock,clock,c30,0126_cop_s01_c30_clock_10_n03196217_6814.png
subject-01,1,127,0.927788019180298,clock,clock,c10,0127_cop_s01_c10_clock_10_n03196217_1271.png
subject-01,1,128,0.703901052474976,car,car,c15,0128_cop_s01_c15_car_10_n03100240_10096.png
subject-01,1,129,0.839305877685547,dog,dog,c10,0129_cop_s01_c10_dog_10_n02110806_642.png
subject-01,1,130,0.576948881149292,cat,elephant,c01,0130_cop_s01_c01_elephant_10_n02504458_7207.png
subject-01,1,131,0.638468980789185,oven,knife,c05,0131_cop_s01_c05_knife_10_n03041632_37618.png
subject-01,1,132,0.669533014297485,knife,knife,c03,0132_cop_s01_c03_knife_10_n03041632_48151.png
subject-01,1,133,0.67687201499939,dog,dog,c100,0133_cop_s01_c100_dog_10_n02109047_14207.png
subject-01,1,134,0.639945030212402,clock,clock,c50,0134_cop_s01_c50_clock_10_n02708093_596.png
subject-01,1,135,0.662818908691406,car,cat,c01,0135_cop_s01_c01_cat_10_n02125311_28331.png
subject-01,1,136,0.717159032821655,bicycle,bicycle,c15,0136_cop_s01_c15_bicycle_10_n03792782_7165.png
subject-01,1,137,0.479372024536133,boat,boat,c30,0137_cop_s01_c30_boat_10_n04273569_10099.png
subject-01,1,138,0.677201986312866,car,car,c03,0138_cop_s01_c03_car_10_n02814533_87871.png
subject-01,1,139,0.736408948898315,bird,bird,c50,0139_cop_s01_c50_bird_10_n01860187_810.png
subject-01,1,140,0.820981025695801,oven,keyboard,c50,0140_cop_s01_c50_keyboard_10_n03085013_24111.png
subject-01,1,141,0.591532945632935,oven,oven,c100,0141_cop_s01_c100_oven_10_n04111531_5991.png
subject-01,1,142,0.876039028167725,bottle,bottle,c50,0142_cop_s01_c50_bottle_10_n04560804_2942.png
subject-01,1,143,0.767749071121216,truck,boat,c01,0143_cop_s01_c01_boat_10_n04612504_19983.png
subject-01,1,144,0.684417009353638,bottle,chair,c03,0144_cop_s01_c03_chair_10_n03376595_6540.png
subject-01,1,145,0.69882607460022,clock,clock,c05,0145_cop_s01_c05_clock_10_n04548280_4758.png
subject-01,1,146,0.445384979248047,cat,cat,c100,0146_cop_s01_c100_cat_10_n02123394_2755.png
subject-01,1,147,0.482572078704834,boat,boat,c30,0147_cop_s01_c30_boat_10_n03662601_3823.png
subject-01,1,148,0.52900505065918,clock,clock,c100,0148_cop_s01_c100_clock_10_n04548280_7539.png
subject-01,1,149,0.735229015350342,cat,dog,c10,0149_cop_s01_c10_dog_10_n02111129_932.png
subject-01,1,150,0.697000980377197,truck,truck,c05,0150_cop_s01_c05_truck_10_n03417042_13806.png
subject-01,1,151,0.828223943710327,bear,bear,c10,0151_cop_s01_c10_bear_10_n02134084_1346.png
subject-01,1,152,0.490997791290283,clock,clock,c10,0152_cop_s01_c10_clock_10_n03196217_11471.png
subject-01,1,153,0.912729978561401,bear,elephant,c10,0153_cop_s01_c10_elephant_10_n02504458_7817.png
subject-01,1,154,1.18357110023499,knife,knife,c10,0154_cop_s01_c10_knife_10_n03041632_31037.png
subject-01,1,155,1.18213486671448,chair,boat,c100,0155_cop_s01_c100_boat_10_n02951358_3087.png
subject-01,1,156,0.585026979446411,bottle,bottle,c100,0156_cop_s01_c100_bottle_10_n03983396_2182.png
subject-01,1,157,1.25351810455322,car,car,c30,0157_cop_s01_c30_car_10_n02814533_5183.png
subject-01,1,158,0.661362886428833,keyboard,keyboard,c05,0158_cop_s01_c05_keyboard_10_n04505470_6080.png
subject-01,1,159,0.845513105392456,chair,truck,c01,0159_cop_s01_c01_truck_10_n04467665_3720.png
subject-01,1,160,0.927265882492065,airplane,airplane,c30,0160_cop_s01_c30_airplane_10_n02690373_8789.png
subject-01,1,161,1.27431297302246,boat,bird,c03,0161_cop_s01_c03_bird_10_n02006656_2496.png
subject-01,1,162,0.998122930526733,elephant,clock,c01,0162_cop_s01_c01_clock_10_n02708093_7998.png
subject-01,1,163,0.904419183731079,oven,boat,c03,0163_cop_s01_c03_boat_10_n03662601_18803.png
subject-01,1,164,0.70412802696228,dog,dog,c10,0164_cop_s01_c10_dog_10_n02109961_14816.png
subject-01,1,165,0.85793399810791,airplane,boat,c50,0165_cop_s01_c50_boat_10_n03662601_20110.png
subject-01,1,166,0.680114030838013,dog,dog,c100,0166_cop_s01_c100_dog_10_n02091831_4110.png
subject-01,1,167,0.78872013092041,chair,keyboard,c01,0167_cop_s01_c01_keyboard_10_n04505470_763.png
subject-01,1,168,0.542831897735596,bottle,bear,c01,0168_cop_s01_c01_bear_10_n02133161_789.png
subject-01,1,169,0.887179136276245,bird,bird,c30,0169_cop_s01_c30_bird_10_n01514859_8317.png
subject-01,1,170,0.512098789215088,car,elephant,c01,0170_cop_s01_c01_elephant_10_n02504458_4244.png
subject-01,1,171,0.371531009674072,cat,airplane,c01,0171_cop_s01_c01_airplane_10_n02690373_13591.png
subject-01,1,172,0.813331842422485,bear,bear,c15,0172_cop_s01_c15_bear_10_n02134084_1689.png
subject-01,1,173,1.11090087890625,airplane,airplane,c03,0173_cop_s01_c03_airplane_10_n02690373_891.png
subject-01,1,174,0.519545078277588,clock,clock,c15,0174_cop_s01_c15_clock_10_n02708093_6696.png
subject-01,1,175,0.557746171951294,car,car,c30,0175_cop_s01_c30_car_10_n03100240_3499.png
subject-01,1,176,0.625809192657471,keyboard,keyboard,c15,0176_cop_s01_c15_keyboard_10_n03085013_3665.png
subject-01,1,177,0.587980985641479,oven,knife,c03,0177_cop_s01_c03_knife_10_n03041632_4260.png
subject-01,1,178,1.50023698806763,airplane,bird,c30,0178_cop_s01_c30_bird_10_n01592084_1228.png
subject-01,1,179,0.880323886871338,knife,knife,c10,0179_cop_s01_c10_knife_10_n03041632_11741.png
subject-01,1,180,1.26214098930359,bottle,knife,c50,0180_cop_s01_c50_knife_10_n03041632_15174.png
subject-01,1,181,0.709289073944092,bird,dog,c01,0181_cop_s01_c01_dog_10_n02097658_6391.png
subject-01,1,182,1.33373594284058,chair,chair,c10,0182_cop_s01_c10_chair_10_n04429376_4391.png
subject-01,1,183,0.988286972045898,keyboard,keyboard,c30,0183_cop_s01_c30_keyboard_10_n04505470_4803.png
subject-01,1,184,0.510406970977783,clock,clock,c15,0184_cop_s01_c15_clock_10_n03196217_2447.png
subject-01,1,185,0.739824056625366,bicycle,bicycle,c10,0185_cop_s01_c10_bicycle_10_n02835271_12764.png
subject-01,1,186,0.994726896286011,airplane,airplane,c15,0186_cop_s01_c15_airplane_10_n02690373_9712.png
subject-01,1,187,0.693067073822021,boat,boat,c50,0187_cop_s01_c50_boat_10_n03662601_12226.png
subject-01,1,188,0.746766090393066,chair,car,c03,0188_cop_s01_c03_car_10_n04285008_1453.png
subject-01,1,189,0.514556884765625,cat,dog,c05,0189_cop_s01_c05_dog_10_n02111129_2245.png
subject-01,1,190,0.831584930419922,oven,elephant,c05,0190_cop_s01_c05_elephant_10_n02504013_648.png
subject-01,1,191,0.637530088424683,dog,dog,c05,0191_cop_s01_c05_dog_10_n02108422_4529.png
subject-01,1,192,0.645509958267212,truck,truck,c15,0192_cop_s01_c15_truck_10_n04467665_80098.png
subject-01,1,193,0.538269996643066,clock,clock,c15,0193_cop_s01_c15_clock_10_n02708093_2025.png
subject-01,1,194,0.992979049682617,dog,cat,c100,0194_cop_s01_c100_cat_10_n02125311_1127.png
subject-01,1,195,0.915390968322754,car,chair,c15,0195_cop_s01_c15_chair_10_n02791124_15853.png
subject-01,1,196,1.1460599899292,oven,chair,c100,0196_cop_s01_c100_chair_10_n04099969_1490.png
subject-01,1,197,0.592711925506592,bear,bear,c50,0197_cop_s01_c50_bear_10_n02134084_21462.png
subject-01,1,198,1.24765491485596,keyboard,chair,c01,0198_cop_s01_c01_chair_10_n03376595_1364.png
subject-01,1,199,0.710156202316284,bird,bird,c50,0199_cop_s01_c50_bird_10_n01616318_603.png
subject-01,1,200,0.656431913375854,car,car,c100,0200_cop_s01_c100_car_10_n03100240_1794.png
subject-01,1,201,1.50061011314392,bottle,bottle,c05,0201_cop_s01_c05_bottle_10_n03937543_2873.png
subject-01,1,202,0.57912802696228,airplane,airplane,c100,0202_cop_s01_c100_airplane_10_n02690373_9322.png
subject-01,1,203,0.525760889053345,oven,oven,c05,0203_cop_s01_c05_oven_10_n04111531_13822.png
subject-01,1,204,0.4772789478302,bird,bird,c15,0204_cop_s01_c15_bird_10_n02009229_6149.png
subject-01,1,205,0.685702085494995,chair,chair,c03,0205_cop_s01_c03_chair_10_n04099969_3804.png
subject-01,1,206,0.545845031738281,chair,bottle,c15,0206_cop_s01_c15_bottle_10_n04557648_1634.png
subject-01,1,207,0.829393863677979,knife,bicycle,c01,0207_cop_s01_c01_bicycle_10_n02835271_1436.png
subject-01,1,208,0.568793058395386,bird,bird,c100,0208_cop_s01_c100_bird_10_n01797886_465.png
subject-01,1,209,0.538605928421021,boat,boat,c30,0209_cop_s01_c30_boat_10_n03662601_5575.png
subject-01,1,210,0.720187902450562,dog,dog,c100,0210_cop_s01_c100_dog_10_n02090622_4585.png
subject-01,1,211,0.728693962097168,chair,chair,c30,0211_cop_s01_c30_chair_10_n03376595_1024.png
subject-01,1,212,0.545597791671753,oven,oven,c01,0212_cop_s01_c01_oven_10_n04111531_22120.png
subject-01,1,213,0.922706127166748,dog,dog,c15,0213_cop_s01_c15_dog_10_n02085782_6792.png
subject-01,1,214,1.12008810043335,bear,bear,c30,0214_cop_s01_c30_bear_10_n02134418_76.png
subject-01,1,215,0.643806934356689,boat,boat,c50,0215_cop_s01_c50_boat_10_n02951358_8285.png
subject-01,1,216,0.958125114440918,bicycle,bicycle,c100,0216_cop_s01_c100_bicycle_10_n03792782_1586.png
subject-01,1,217,0.680840015411377,knife,boat,c03,0217_cop_s01_c03_boat_10_n02951358_15072.png
subject-01,1,218,0.596457004547119,car,car,c05,0218_cop_s01_c05_car_10_n03100240_8591.png
subject-01,1,219,0.802807092666626,keyboard,airplane,c01,0219_cop_s01_c01_airplane_10_n02690373_1797.png
subject-01,1,220,0.610787868499756,bottle,bottle,c100,0220_cop_s01_c100_bottle_10_n02823428_6050.png
subject-01,1,221,0.90888500213623,truck,cat,c03,0221_cop_s01_c03_cat_10_n02124075_12797.png
subject-01,1,222,0.41737699508667,boat,boat,c100,0222_cop_s01_c100_boat_10_n04273569_24747.png
subject-01,1,223,0.840174913406372,bottle,bottle,c50,0223_cop_s01_c50_bottle_10_n03983396_105.png
subject-01,1,224,1.47003984451294,bicycle,chair,c03,0224_cop_s01_c03_chair_10_n04099969_27865.png
subject-01,1,225,0.432631969451904,clock,clock,c100,0225_cop_s01_c100_clock_10_n03196217_1275.png
subject-01,1,226,0.922643899917603,oven,clock,c05,0226_cop_s01_c05_clock_10_n02708093_1559.png
subject-01,1,227,1.19868493080139,bear,bear,c30,0227_cop_s01_c30_bear_10_n02132136_1338.png
subject-01,1,228,0.644291162490845,boat,boat,c30,0228_cop_s01_c30_boat_10_n03344393_4583.png
subject-01,1,229,0.853171825408936,clock,keyboard,c50,0229_cop_s01_c50_keyboard_10_n03085013_18907.png
subject-01,1,230,0.980495929718018,elephant,elephant,c100,0230_cop_s01_c100_elephant_10_n02504013_2340.png
subject-01,1,231,0.726846933364868,bear,bear,c50,0231_cop_s01_c50_bear_10_n02134084_7250.png
subject-01,1,232,0.559430837631226,bicycle,bicycle,c15,0232_cop_s01_c15_bicycle_10_n03792782_20193.png
subject-01,1,233,0.752218961715698,truck,truck,c05,0233_cop_s01_c05_truck_10_n03417042_19958.png
subject-01,1,234,0.89657998085022,bicycle,elephant,c05,0234_cop_s01_c05_elephant_10_n02504458_6018.png
subject-01,1,235,0.459488868713379,keyboard,keyboard,c100,0235_cop_s01_c100_keyboard_10_n04505470_361.png
subject-01,1,236,0.598045110702515,airplane,airplane,c30,0236_cop_s01_c30_airplane_10_n02690373_12984.png
subject-01,1,237,0.928073883056641,truck,truck,c100,0237_cop_s01_c100_truck_10_n04467665_52409.png
subject-01,1,238,0.8526611328125,airplane,airplane,c03,0238_cop_s01_c03_airplane_10_n02690373_9317.png
subject-01,1,239,0.842203855514526,car,car,c05,0239_cop_s01_c05_car_10_n04285008_12539.png
subject-01,1,240,0.580729961395264,chair,chair,c05,0240_cop_s01_c05_chair_10_n03376595_8953.png
subject-01,1,241,0.811229944229126,airplane,truck,c03,0241_cop_s01_c03_truck_10_n03417042_751.png
subject-01,1,242,0.979270935058594,truck,oven,c03,0242_cop_s01_c03_oven_10_n04111531_5659.png
subject-01,1,243,0.717334985733032,cat,cat,c15,0243_cop_s01_c15_cat_10_n02123045_20719.png
subject-01,1,244,0.718262910842896,keyboard,keyboard,c10,0244_cop_s01_c10_keyboard_10_n03085013_8325.png
subject-01,1,245,0.802654981613159,airplane,airplane,c03,0245_cop_s01_c03_airplane_10_n02690373_8743.png
subject-01,1,246,0.661852121353149,keyboard,keyboard,c03,0246_cop_s01_c03_keyboard_10_n04505470_9663.png
subject-01,1,247,0.749254941940308,bicycle,bicycle,c15,0247_cop_s01_c15_bicycle_10_n03792782_7331.png
subject-01,1,248,1.02302002906799,airplane,oven,c05,0248_cop_s01_c05_oven_10_n04111531_9297.png
subject-01,1,249,0.798651933670044,oven,bird,c03,0249_cop_s01_c03_bird_10_n01860187_728.png
subject-01,1,250,1.02925992012024,keyboard,bicycle,c01,0250_cop_s01_c01_bicycle_10_n02835271_10283.png
subject-01,1,251,0.72173810005188,bird,bird,c05,0251_cop_s01_c05_bird_10_n02027492_3072.png
subject-01,1,252,0.568123817443848,clock,clock,c30,0252_cop_s01_c30_clock_10_n02708093_442.png
subject-01,1,253,1.2286069393158,bear,bear,c100,0253_cop_s01_c100_bear_10_n02132136_14778.png
subject-01,1,254,0.606595039367676,dog,dog,c30,0254_cop_s01_c30_dog_10_n02094258_1334.png
subject-01,1,255,0.758790016174316,airplane,airplane,c100,0255_cop_s01_c100_airplane_10_n02690373_2268.png
subject-01,1,256,1.02994799613953,truck,bear,c01,0256_cop_s01_c01_bear_10_n02134084_4477.png
subject-01,1,257,1.2124969959259,bottle,bottle,c50,0257_cop_s01_c50_bottle_10_n03937543_4425.png
subject-01,1,258,0.559348821640015,airplane,airplane,c30,0258_cop_s01_c30_airplane_10_n02690373_5146.png
subject-01,1,259,1.15235304832458,airplane,boat,c10,0259_cop_s01_c10_boat_10_n03344393_6638.png
subject-01,1,260,0.782794952392578,truck,bear,c05,0260_cop_s01_c05_bear_10_n02134084_13014.png
subject-01,1,261,0.928354978561401,clock,knife,c05,0261_cop_s01_c05_knife_10_n03041632_9302.png
subject-01,1,262,0.643651962280273,keyboard,keyboard,c50,0262_cop_s01_c50_keyboard_10_n03085013_14279.png
subject-01,1,263,0.751819849014282,oven,clock,c05,0263_cop_s01_c05_clock_10_n02708093_4391.png
subject-01,1,264,0.481986999511719,boat,boat,c30,0264_cop_s01_c30_boat_10_n04273569_3085.png
subject-01,1,265,0.966867923736572,oven,elephant,c15,0265_cop_s01_c15_elephant_10_n02504458_1891.png
subject-01,1,266,0.913363933563232,knife,knife,c10,0266_cop_s01_c10_knife_10_n03041632_14916.png
subject-01,1,267,0.844031810760498,bird,bicycle,c01,0267_cop_s01_c01_bicycle_10_n02835271_10839.png
subject-01,1,268,0.712337970733643,clock,clock,c05,0268_cop_s01_c05_clock_10_n02708093_3750.png
subject-01,1,269,0.858992099761963,chair,chair,c30,0269_cop_s01_c30_chair_10_n02791124_7207.png
subject-01,1,270,0.643087863922119,car,dog,c03,0270_cop_s01_c03_dog_10_n02094433_9787.png
subject-01,1,271,0.54831600189209,boat,boat,c15,0271_cop_s01_c15_boat_10_n03662601_1667.png
subject-01,1,272,0.462118864059448,clock,clock,c30,0272_cop_s01_c30_clock_10_n02708093_6595.png
subject-01,1,273,0.838903903961182,bicycle,bird,c100,0273_cop_s01_c100_bird_10_n01558993_5185.png
subject-01,1,274,1.39941000938416,airplane,airplane,c05,0274_cop_s01_c05_airplane_10_n02690373_2607.png
subject-01,1,275,0.531958818435669,keyboard,keyboard,c50,0275_cop_s01_c50_keyboard_10_n03085013_6644.png
subject-01,1,276,0.708575963973999,truck,truck,c100,0276_cop_s01_c100_truck_10_n03796401_3608.png
subject-01,1,277,0.831004858016968,bear,boat,c01,0277_cop_s01_c01_boat_10_n03344393_2838.png
subject-01,1,278,1.1769871711731,chair,chair,c100,0278_cop_s01_c100_chair_10_n04099969_28072.png
subject-01,1,279,0.645522832870483,oven,oven,c15,0279_cop_s01_c15_oven_10_n04111531_6094.png
subject-01,1,280,0.829539775848389,boat,boat,c03,0280_cop_s01_c03_boat_10_n03344393_4213.png
subject-01,1,281,1.36010718345642,elephant,elephant,c03,0281_cop_s01_c03_elephant_10_n02504013_11033.png
subject-01,1,282,0.636852025985718,bicycle,knife,c01,0282_cop_s01_c01_knife_10_n03041632_31483.png
subject-01,1,283,0.674530029296875,clock,clock,c15,0283_cop_s01_c15_clock_10_n04548280_5087.png
subject-01,1,284,0.534963130950928,bottle,bottle,c100,0284_cop_s01_c100_bottle_10_n03983396_11519.png
subject-01,1,285,1.25681900978088,bottle,chair,c05,0285_cop_s01_c05_chair_10_n02791124_1371.png
subject-01,1,286,1.30980110168457,truck,truck,c03,0286_cop_s01_c03_truck_10_n04467665_28988.png
subject-01,1,287,0.809960126876831,chair,chair,c30,0287_cop_s01_c30_chair_10_n02791124_3370.png
subject-01,1,288,0.64773416519165,truck,truck,c10,0288_cop_s01_c10_truck_10_n03417042_14261.png
subject-01,1,289,0.962242126464844,bottle,clock,c05,0289_cop_s01_c05_clock_10_n03196217_127.png
subject-01,1,290,0.616695165634155,bear,bear,c100,0290_cop_s01_c100_bear_10_n02134418_4372.png
subject-01,1,291,0.860943078994751,car,bear,c01,0291_cop_s01_c01_bear_10_n02132136_10428.png
subject-01,1,292,0.727841138839722,bicycle,bicycle,c50,0292_cop_s01_c50_bicycle_10_n02835271_5751.png
subject-01,1,293,1.44216108322144,bird,bird,c50,0293_cop_s01_c50_bird_10_n01855032_1815.png
subject-01,1,294,0.975183010101318,bicycle,dog,c15,0294_cop_s01_c15_dog_10_n02108000_4202.png
subject-01,1,295,0.698099851608276,truck,truck,c03,0295_cop_s01_c03_truck_10_n04467665_9266.png
subject-01,1,296,0.803611993789673,elephant,elephant,c10,0296_cop_s01_c10_elephant_10_n02504013_3821.png
subject-01,1,297,0.826317071914673,bicycle,bicycle,c10,0297_cop_s01_c10_bicycle_10_n03792782_68259.png
subject-01,1,298,0.718156814575195,knife,knife,c30,0298_cop_s01_c30_knife_10_n03041632_11495.png
subject-01,1,299,0.610883951187134,keyboard,bird,c03,0299_cop_s01_c03_bird_10_n01855672_14214.png
subject-01,1,300,0.632735967636108,car,car,c15,0300_cop_s01_c15_car_10_n04285008_628.png
subject-01,1,301,0.631133079528809,bottle,bottle,c05,0301_cop_s01_c05_bottle_10_n04591713_6975.png
subject-01,1,302,0.715715169906616,keyboard,chair,c01,0302_cop_s01_c01_chair_10_n04099969_6913.png
subject-01,1,303,0.607449054718018,airplane,airplane,c01,0303_cop_s01_c01_airplane_10_n02690373_5266.png
subject-01,1,304,0.967087030410767,keyboard,oven,c50,0304_cop_s01_c50_oven_10_n04111531_8658.png
subject-01,1,305,0.951706886291504,oven,car,c01,0305_cop_s01_c01_car_10_n04285008_7325.png
subject-01,1,306,0.612285852432251,elephant,elephant,c30,0306_cop_s01_c30_elephant_10_n02504458_3225.png
subject-01,1,307,0.888140916824341,elephant,elephant,c50,0307_cop_s01_c50_elephant_10_n02504013_6552.png
subject-01,1,308,1.17267608642578,bear,cat,c05,0308_cop_s01_c05_cat_10_n02123045_15474.png
subject-01,1,309,0.811699151992798,bear,bear,c10,0309_cop_s01_c10_bear_10_n02134418_128.png
subject-01,1,310,0.795197010040283,bicycle,bicycle,c05,0310_cop_s01_c05_bicycle_10_n03792782_18294.png
subject-01,1,311,0.755400896072388,bottle,car,c01,0311_cop_s01_c01_car_10_n03100240_3289.png
subject-01,1,312,0.61781907081604,keyboard,keyboard,c05,0312_cop_s01_c05_keyboard_10_n04505470_8822.png
subject-01,1,313,0.693917989730835,boat,clock,c03,0313_cop_s01_c03_clock_10_n03196217_813.png
subject-01,1,314,0.71359395980835,bird,knife,c01,0314_cop_s01_c01_knife_10_n03041632_2338.png
subject-01,1,315,1.50030088424683,clock,clock,c50,0315_cop_s01_c50_clock_10_n03196217_4526.png
subject-01,1,316,1.02034211158752,oven,bottle,c30,0316_cop_s01_c30_bottle_10_n04579145_466.png
subject-01,1,317,0.537574052810669,bird,bird,c50,0317_cop_s01_c50_bird_10_n01829413_14594.png
subject-01,1,318,0.842847108840942,car,chair,c01,0318_cop_s01_c01_chair_10_n03376595_9603.png
subject-01,1,319,0.672857046127319,truck,truck,c05,0319_cop_s01_c05_truck_10_n04467665_11609.png
subject-01,1,320,0.962486028671265,chair,chair,c30,0320_cop_s01_c30_chair_10_n02791124_3850.png
subject-01,1,321,0.652194023132324,oven,oven,c30,0321_cop_s01_c30_oven_10_n04111531_4331.png
subject-01,1,322,1.11227989196777,car,car,c03,0322_cop_s01_c03_car_10_n02814533_2236.png
subject-01,1,323,1.2961118221283,truck,truck,c05,0323_cop_s01_c05_truck_10_n03796401_21407.png
subject-01,1,324,0.612890958786011,cat,cat,c15,0324_cop_s01_c15_cat_10_n02123045_11224.png
subject-01,1,325,0.643964052200317,dog,dog,c50,0325_cop_s01_c50_dog_10_n02093991_6192.png
subject-01,1,326,0.820288181304932,keyboard,dog,c01,0326_cop_s01_c01_dog_10_n02090622_1126.png
subject-01,1,327,1.24864387512207,clock,bird,c01,0327_cop_s01_c01_bird_10_n01820546_1616.png
subject-01,1,328,0.549492120742798,keyboard,keyboard,c15,0328_cop_s01_c15_keyboard_10_n04505470_5057.png
subject-01,1,329,0.972164154052734,elephant,dog,c01,0329_cop_s01_c01_dog_10_n02111500_8079.png
subject-01,1,330,0.540015935897827,car,car,c05,0330_cop_s01_c05_car_10_n02814533_4491.png
subject-01,1,331,0.899739027023315,keyboard,keyboard,c05,0331_cop_s01_c05_keyboard_10_n04505470_1929.png
subject-01,1,332,0.784333944320679,elephant,elephant,c100,0332_cop_s01_c100_elephant_10_n02504458_12217.png
subject-01,1,333,0.523072957992554,chair,car,c01,0333_cop_s01_c01_car_10_n02814533_32835.png
subject-01,1,334,0.882791042327881,dog,dog,c30,0334_cop_s01_c30_dog_10_n02110958_15843.png
subject-01,1,335,0.721390962600708,elephant,elephant,c30,0335_cop_s01_c30_elephant_10_n02504458_3409.png
subject-01,1,336,0.614287853240967,boat,boat,c15,0336_cop_s01_c15_boat_10_n02951358_4972.png
subject-01,1,337,0.866872787475586,airplane,elephant,c03,0337_cop_s01_c03_elephant_10_n02504013_7467.png
subject-01,1,338,0.499234914779663,oven,oven,c50,0338_cop_s01_c50_oven_10_n04111531_7106.png
subject-01,1,339,1.01180100440979,oven,cat,c05,0339_cop_s01_c05_cat_10_n02123045_390.png
subject-01,1,340,1.10338807106018,cat,cat,c10,0340_cop_s01_c10_cat_10_n02123159_6932.png
subject-01,1,341,0.495558023452759,cat,cat,c100,0341_cop_s01_c100_cat_10_n02123045_9583.png
subject-01,1,342,0.963639974594116,bird,oven,c03,0342_cop_s01_c03_oven_10_n04111531_5967.png
subject-01,1,343,0.938152074813843,car,chair,c03,0343_cop_s01_c03_chair_10_n02791124_5868.png
subject-01,1,344,0.546519994735718,keyboard,keyboard,c30,0344_cop_s01_c30_keyboard_10_n03085013_24103.png
subject-01,1,345,0.500964879989624,cat,cat,c15,0345_cop_s01_c15_cat_10_n02124075_2392.png
subject-01,1,346,1.26149797439575,bicycle,bicycle,c100,0346_cop_s01_c100_bicycle_10_n03792782_15557.png
subject-01,1,347,1.13716101646423,boat,truck,c01,0347_cop_s01_c01_truck_10_n04467665_13193.png
subject-01,1,348,0.843276023864746,elephant,elephant,c05,0348_cop_s01_c05_elephant_10_n02504013_8347.png
subject-01,1,349,1.24086499214172,elephant,bear,c10,0349_cop_s01_c10_bear_10_n02132136_8975.png
subject-01,1,350,0.684414148330688,cat,bird,c03,0350_cop_s01_c03_bird_10_n01592084_5936.png
subject-01,1,351,0.668749094009399,car,knife,c03,0351_cop_s01_c03_knife_10_n03041632_31932.png
subject-01,1,352,1.26119804382324,cat,dog,c50,0352_cop_s01_c50_dog_10_n02104029_2132.png
subject-01,1,353,0.689090967178345,airplane,airplane,c100,0353_cop_s01_c100_airplane_10_n02690373_220.png
subject-01,1,354,0.860651969909668,car,truck,c03,0354_cop_s01_c03_truck_10_n04467665_22358.png
subject-01,1,355,0.598331928253174,oven,knife,c01,0355_cop_s01_c01_knife_10_n03041632_50332.png
subject-01,1,356,0.550672054290771,car,car,c05,0356_cop_s01_c05_car_10_n03100240_9011.png
subject-01,1,357,0.705371141433716,boat,boat,c10,0357_cop_s01_c10_boat_10_n03344393_5511.png
subject-01,1,358,0.603902101516724,bicycle,bicycle,c15,0358_cop_s01_c15_bicycle_10_n02835271_5193.png
subject-01,1,359,0.558353185653687,boat,boat,c100,0359_cop_s01_c100_boat_10_n02951358_1541.png
subject-01,1,360,0.632261037826538,boat,keyboard,c30,0360_cop_s01_c30_keyboard_10_n03085013_18945.png
subject-01,1,361,0.562823057174683,cat,truck,c01,0361_cop_s01_c01_truck_10_n04467665_32090.png
subject-01,1,362,0.626416206359863,elephant,elephant,c30,0362_cop_s01_c30_elephant_10_n02504013_5537.png
subject-01,1,363,0.703315019607544,bottle,knife,c01,0363_cop_s01_c01_knife_10_n03041632_206.png
subject-01,1,364,0.939162969589233,chair,dog,c03,0364_cop_s01_c03_dog_10_n02097474_9129.png
subject-01,1,365,0.794036865234375,oven,oven,c05,0365_cop_s01_c05_oven_10_n04111531_6628.png
subject-01,1,366,0.640568971633911,oven,knife,c05,0366_cop_s01_c05_knife_10_n03041632_96345.png
subject-01,1,367,0.517135143280029,cat,elephant,c03,0367_cop_s01_c03_elephant_10_n02504458_5320.png
subject-01,1,368,0.710767030715942,cat,cat,c10,0368_cop_s01_c10_cat_10_n02125311_32129.png
subject-01,1,369,0.748302936553955,boat,chair,c01,0369_cop_s01_c01_chair_10_n03376595_6173.png
subject-01,1,370,0.554961204528809,airplane,airplane,c30,0370_cop_s01_c30_airplane_10_n02690373_8350.png
subject-01,1,371,0.677567958831787,bird,bird,c100,0371_cop_s01_c100_bird_10_n01819313_7109.png
subject-01,1,372,0.822070121765137,car,bear,c01,0372_cop_s01_c01_bear_10_n02132136_17669.png
subject-01,1,373,0.676291942596436,dog,dog,c50,0373_cop_s01_c50_dog_10_n02102177_5341.png
subject-01,1,374,0.728710174560547,airplane,airplane,c05,0374_cop_s01_c05_airplane_10_n02690373_6114.png
subject-01,1,375,0.942497968673706,truck,truck,c30,0375_cop_s01_c30_truck_10_n03796401_15097.png
subject-01,1,376,0.85721492767334,cat,bear,c10,0376_cop_s01_c10_bear_10_n02133161_546.png
subject-01,1,377,1.09351015090942,cat,bear,c30,0377_cop_s01_c30_bear_10_n02134418_4717.png
subject-01,1,378,0.576869964599609,airplane,airplane,c10,0378_cop_s01_c10_airplane_10_n02690373_7408.png
subject-01,1,379,0.537389039993286,cat,cat,c30,0379_cop_s01_c30_cat_10_n02123159_5257.png
subject-01,1,380,0.490775108337402,oven,oven,c50,0380_cop_s01_c50_oven_10_n04111531_5126.png
subject-01,1,381,0.551472902297974,airplane,airplane,c50,0381_cop_s01_c50_airplane_10_n02690373_3589.png
subject-01,1,382,0.733851909637451,car,car,c03,0382_cop_s01_c03_car_10_n04285008_11922.png
subject-01,1,383,1.38605093955994,bicycle,bird,c03,0383_cop_s01_c03_bird_10_n02011460_2886.png
subject-01,1,384,0.778690099716187,boat,keyboard,c05,0384_cop_s01_c05_keyboard_10_n03085013_2227.png
subject-01,1,385,0.749722957611084,bear,bear,c100,0385_cop_s01_c100_bear_10_n02134084_16084.png
subject-01,1,386,0.764182090759277,cat,cat,c50,0386_cop_s01_c50_cat_10_n02123159_6132.png
subject-01,1,387,1.01585698127747,elephant,elephant,c30,0387_cop_s01_c30_elephant_10_n02504013_476.png
subject-01,1,388,0.914415121078491,bicycle,bottle,c30,0388_cop_s01_c30_bottle_10_n04591713_7476.png
subject-01,1,389,0.631477117538452,keyboard,oven,c03,0389_cop_s01_c03_oven_10_n04111531_1798.png
subject-01,1,390,0.60838508605957,oven,elephant,c03,0390_cop_s01_c03_elephant_10_n02504458_6972.png
subject-01,1,391,0.831318855285645,bird,bird,c10,0391_cop_s01_c10_bird_10_n01622779_684.png
subject-01,1,392,0.631700038909912,chair,bird,c01,0392_cop_s01_c01_bird_10_n02037110_12288.png
subject-01,1,393,0.554673194885254,boat,boat,c100,0393_cop_s01_c100_boat_10_n02951358_14528.png
subject-01,1,394,1.15246605873108,bird,bird,c100,0394_cop_s01_c100_bird_10_n01530575_34173.png
subject-01,1,395,1.04282903671265,car,car,c50,0395_cop_s01_c50_car_10_n03100240_977.png
subject-01,1,396,0.714299917221069,bird,bird,c30,0396_cop_s01_c30_bird_10_n01534433_3428.png
subject-01,1,397,0.790517091751099,car,car,c50,0397_cop_s01_c50_car_10_n02814533_71838.png
subject-01,1,398,0.483154058456421,keyboard,keyboard,c30,0398_cop_s01_c30_keyboard_10_n03085013_21399.png
subject-01,1,399,1.22818517684937,knife,keyboard,c100,0399_cop_s01_c100_keyboard_10_n03085013_2808.png
subject-01,1,400,1.34846591949463,elephant,dog,c50,0400_cop_s01_c50_dog_10_n02097209_1658.png
subject-01,1,401,0.635684013366699,bear,bear,c30,0401_cop_s01_c30_bear_10_n02133161_4091.png
subject-01,1,402,0.78788685798645,chair,oven,c01,0402_cop_s01_c01_oven_10_n04111531_14690.png
subject-01,1,403,0.626299858093262,bird,bird,c100,0403_cop_s01_c100_bird_10_n02027492_10246.png
subject-01,1,404,0.594856977462769,bird,bird,c05,0404_cop_s01_c05_bird_10_n02025239_3669.png
subject-01,1,405,1.00121712684631,bicycle,bicycle,c30,0405_cop_s01_c30_bicycle_10_n03792782_3481.png
subject-01,1,406,0.677016973495483,cat,cat,c05,0406_cop_s01_c05_cat_10_n02123159_6590.png
subject-01,1,407,0.515607118606567,clock,clock,c100,0407_cop_s01_c100_clock_10_n03196217_7199.png
subject-01,1,408,0.8195481300354,clock,clock,c15,0408_cop_s01_c15_clock_10_n03196217_5165.png
subject-01,1,409,0.565387010574341,boat,boat,c50,0409_cop_s01_c50_boat_10_n04273569_4380.png
subject-01,1,410,1.27192091941833,elephant,chair,c05,0410_cop_s01_c05_chair_10_n02791124_3531.png
subject-01,1,411,1.04026389122009,cat,bottle,c03,0411_cop_s01_c03_bottle_10_n04560804_722.png
subject-01,1,412,0.692281007766724,airplane,airplane,c05,0412_cop_s01_c05_airplane_10_n02690373_5729.png
subject-01,1,413,0.460399866104126,oven,oven,c05,0413_cop_s01_c05_oven_10_n04111531_8688.png
subject-01,1,414,0.796507835388184,car,bottle,c03,0414_cop_s01_c03_bottle_10_n03983396_7378.png
subject-01,1,415,0.58940315246582,chair,dog,c01,0415_cop_s01_c01_dog_10_n02106550_660.png
subject-01,1,416,0.874366998672485,bottle,car,c01,0416_cop_s01_c01_car_10_n04285008_4868.png
subject-01,1,417,NaN,na,dog,c50,0417_cop_s01_c50_dog_10_n02087046_4421.png
subject-01,1,418,1.17798590660095,elephant,elephant,c100,0418_cop_s01_c100_elephant_10_n02504458_5561.png
subject-01,1,419,0.716655015945435,keyboard,knife,c03,0419_cop_s01_c03_knife_10_n03041632_25479.png
subject-01,1,420,0.752254009246826,airplane,cat,c03,0420_cop_s01_c03_cat_10_n02124075_2751.png
subject-01,1,421,0.607156038284302,oven,knife,c01,0421_cop_s01_c01_knife_10_n03041632_21590.png
subject-01,1,422,1.14408707618713,oven,clock,c01,0422_cop_s01_c01_clock_10_n02708093_3484.png
subject-01,1,423,0.444080829620361,oven,oven,c10,0423_cop_s01_c10_oven_10_n04111531_8309.png
subject-01,1,424,0.764456033706665,elephant,elephant,c50,0424_cop_s01_c50_elephant_10_n02504458_209.png
subject-01,1,425,0.564723968505859,chair,knife,c03,0425_cop_s01_c03_knife_10_n03041632_29684.png
subject-01,1,426,0.587886095046997,car,car,c05,0426_cop_s01_c05_car_10_n03100240_5718.png
subject-01,1,427,0.772258043289185,bear,bear,c100,0427_cop_s01_c100_bear_10_n02133161_741.png
subject-01,1,428,0.708585023880005,bicycle,bicycle,c50,0428_cop_s01_c50_bicycle_10_n02835271_7958.png
subject-01,1,429,0.64698314666748,bottle,bottle,c50,0429_cop_s01_c50_bottle_10_n02823428_5288.png
subject-01,1,430,0.6997230052948,car,car,c30,0430_cop_s01_c30_car_10_n02814533_5155.png
subject-01,1,431,0.867402076721191,airplane,boat,c10,0431_cop_s01_c10_boat_10_n03344393_8869.png
subject-01,1,432,0.627971887588501,airplane,airplane,c10,0432_cop_s01_c10_airplane_10_n02690373_2724.png
subject-01,1,433,0.88769006729126,keyboard,elephant,c01,0433_cop_s01_c01_elephant_10_n02504458_5483.png
subject-01,1,434,0.556050062179565,oven,elephant,c03,0434_cop_s01_c03_elephant_10_n02504458_1328.png
subject-01,1,435,0.678373098373413,cat,cat,c05,0435_cop_s01_c05_cat_10_n02123597_13769.png
subject-01,1,436,0.744091987609863,airplane,airplane,c15,0436_cop_s01_c15_airplane_10_n02690373_2643.png
subject-01,1,437,0.850886106491089,bottle,bottle,c05,0437_cop_s01_c05_bottle_10_n04560804_21795.png
subject-01,1,438,0.843415021896362,knife,knife,c30,0438_cop_s01_c30_knife_10_n03041632_4590.png
subject-01,1,439,0.866214036941528,chair,chair,c50,0439_cop_s01_c50_chair_10_n03376595_9247.png
subject-01,1,440,0.896746158599854,keyboard,elephant,c03,0440_cop_s01_c03_elephant_10_n02504013_3739.png
subject-01,1,441,0.678503036499023,cat,dog,c05,0441_cop_s01_c05_dog_10_n02086079_37199.png
subject-01,1,442,0.747088193893433,bear,dog,c03,0442_cop_s01_c03_dog_10_n02088632_747.png
subject-01,1,443,0.890785932540894,dog,dog,c100,0443_cop_s01_c100_dog_10_n02107908_3490.png
subject-01,1,444,0.691349029541016,cat,elephant,c10,0444_cop_s01_c10_elephant_10_n02504013_2128.png
subject-01,1,445,0.443166017532349,airplane,airplane,c30,0445_cop_s01_c30_airplane_10_n02690373_7401.png
subject-01,1,446,0.456830978393555,cat,cat,c15,0446_cop_s01_c15_cat_10_n02123045_5200.png
subject-01,1,447,0.768518924713135,elephant,elephant,c100,0447_cop_s01_c100_elephant_10_n02504013_7248.png
subject-01,1,448,0.488852977752686,boat,boat,c15,0448_cop_s01_c15_boat_10_n02951358_10912.png
subject-01,1,449,1.1172080039978,car,car,c50,0449_cop_s01_c50_car_10_n04285008_507.png
subject-01,1,450,0.876909017562866,keyboard,bottle,c05,0450_cop_s01_c05_bottle_10_n04591713_4019.png
subject-01,1,451,0.637465000152588,keyboard,keyboard,c100,0451_cop_s01_c100_keyboard_10_n03085013_21534.png
subject-01,1,452,1.1218159198761,cat,chair,c03,0452_cop_s01_c03_chair_10_n04099969_2610.png
subject-01,1,453,0.660579919815063,oven,bear,c01,0453_cop_s01_c01_bear_10_n02133161_16808.png
subject-01,1,454,0.651237010955811,chair,car,c03,0454_cop_s01_c03_car_10_n02814533_33602.png
subject-01,1,455,0.910356044769287,elephant,bear,c15,0455_cop_s01_c15_bear_10_n02134418_2175.png
subject-01,1,456,1.42313313484192,bird,bird,c05,0456_cop_s01_c05_bird_10_n01797886_12811.png
subject-01,1,457,0.861263036727905,chair,truck,c30,0457_cop_s01_c30_truck_10_n03796401_7699.png
subject-01,1,458,0.913134098052979,bottle,bird,c01,0458_cop_s01_c01_bird_10_n01601694_11888.png
subject-01,1,459,0.81416916847229,chair,chair,c100,0459_cop_s01_c100_chair_10_n03376595_11049.png
subject-01,1,460,0.549664974212646,keyboard,keyboard,c15,0460_cop_s01_c15_keyboard_10_n04505470_4761.png
subject-01,1,461,0.856189966201782,airplane,airplane,c10,0461_cop_s01_c10_airplane_10_n02690373_8804.png
subject-01,1,462,0.916563034057617,bicycle,bicycle,c100,0462_cop_s01_c100_bicycle_10_n03792782_5966.png
subject-01,1,463,0.898659944534302,cat,cat,c05,0463_cop_s01_c05_cat_10_n02125311_22459.png
subject-01,1,464,0.636386871337891,airplane,airplane,c10,0464_cop_s01_c10_airplane_10_n02690373_5344.png
subject-01,1,465,0.621624946594238,cat,cat,c15,0465_cop_s01_c15_cat_10_n02123159_7607.png
subject-01,1,466,0.828029870986938,chair,chair,c05,0466_cop_s01_c05_chair_10_n04099969_3686.png
subject-01,1,467,1.50008511543274,oven,knife,c05,0467_cop_s01_c05_knife_10_n03041632_18859.png
subject-01,1,468,0.681010007858276,bird,elephant,c03,0468_cop_s01_c03_elephant_10_n02504013_6426.png
subject-01,1,469,0.716371059417725,keyboard,keyboard,c05,0469_cop_s01_c05_keyboard_10_n03085013_12399.png
subject-01,1,470,1.15292906761169,truck,truck,c05,0470_cop_s01_c05_truck_10_n04467665_70237.png
subject-01,1,471,1.00788879394531,bottle,bicycle,c50,0471_cop_s01_c50_bicycle_10_n03792782_15138.png
subject-01,1,472,0.71393609046936,car,car,c15,0472_cop_s01_c15_car_10_n02814533_3117.png
subject-01,1,473,0.657854080200195,chair,chair,c10,0473_cop_s01_c10_chair_10_n04429376_5337.png
subject-01,1,474,1.28584003448486,dog,bear,c100,0474_cop_s01_c100_bear_10_n02134084_19791.png
subject-01,1,475,0.554149150848389,car,clock,c50,0475_cop_s01_c50_clock_10_n02708093_404.png
subject-01,1,476,1.3236289024353,bird,bird,c15,0476_cop_s01_c15_bird_10_n01860187_38598.png
subject-01,1,477,0.448130130767822,boat,boat,c50,0477_cop_s01_c50_boat_10_n03344393_4243.png
subject-01,1,478,0.533145904541016,bicycle,bicycle,c10,0478_cop_s01_c10_bicycle_10_n02835271_19143.png
subject-01,1,479,0.936832189559937,truck,truck,c15,0479_cop_s01_c15_truck_10_n04467665_66065.png
subject-01,1,480,0.436359167098999,boat,cat,c01,0480_cop_s01_c01_cat_10_n02123394_7700.png
subject-01,1,481,1.07268404960632,boat,oven,c01,0481_cop_s01_c01_oven_10_n04111531_12702.png
subject-01,1,482,0.787202835083008,bird,bird,c05,0482_cop_s01_c05_bird_10_n02056570_13462.png
subject-01,1,483,0.968579053878784,elephant,elephant,c15,0483_cop_s01_c15_elephant_10_n02504013_5439.png
subject-01,1,484,0.553031921386719,bottle,bottle,c30,0484_cop_s01_c30_bottle_10_n04591713_1652.png
subject-01,1,485,0.776386022567749,airplane,bear,c05,0485_cop_s01_c05_bear_10_n02134418_3579.png
subject-01,1,486,0.506861209869385,oven,oven,c10,0486_cop_s01_c10_oven_10_n04111531_10077.png
subject-01,1,487,0.80116081237793,knife,truck,c01,0487_cop_s01_c01_truck_10_n03417042_23038.png
subject-01,1,488,1.00806093215942,bear,bear,c10,0488_cop_s01_c10_bear_10_n02132136_26027.png
subject-01,1,489,0.776572942733765,keyboard,keyboard,c10,0489_cop_s01_c10_keyboard_10_n03085013_19630.png
subject-01,1,490,0.699095964431763,oven,bear,c05,0490_cop_s01_c05_bear_10_n02132136_1726.png
subject-01,1,491,0.599360942840576,airplane,airplane,c05,0491_cop_s01_c05_airplane_10_n02690373_1773.png
subject-01,1,492,0.82213306427002,elephant,elephant,c10,0492_cop_s01_c10_elephant_10_n02504458_4997.png
subject-01,1,493,0.912362098693848,oven,chair,c10,0493_cop_s01_c10_chair_10_n04429376_311.png
subject-01,1,494,0.647647857666016,oven,bear,c05,0494_cop_s01_c05_bear_10_n02133161_313.png
subject-01,1,495,0.508744955062866,airplane,airplane,c30,0495_cop_s01_c30_airplane_10_n02690373_7004.png
subject-01,1,496,0.601128101348877,cat,cat,c03,0496_cop_s01_c03_cat_10_n02123045_840.png
subject-01,1,497,0.929857015609741,cat,cat,c01,0497_cop_s01_c01_cat_10_n02123597_8052.png
subject-01,1,498,1.34420704841614,bicycle,truck,c05,0498_cop_s01_c05_truck_10_n03417042_708.png
subject-01,1,499,1.19619917869568,truck,truck,c100,0499_cop_s01_c100_truck_10_n03417042_23815.png
subject-01,1,500,1.21076512336731,truck,clock,c01,0500_cop_s01_c01_clock_10_n02708093_2574.png
subject-01,1,501,0.487308025360107,oven,oven,c15,0501_cop_s01_c15_oven_10_n04111531_7034.png
subject-01,1,502,0.654844045639038,airplane,airplane,c05,0502_cop_s01_c05_airplane_10_n02690373_4402.png
subject-01,1,503,0.720669031143188,clock,cat,c30,0503_cop_s01_c30_cat_10_n02123045_11032.png
subject-01,1,504,0.783432006835938,bottle,bottle,c100,0504_cop_s01_c100_bottle_10_n04557648_988.png
subject-01,1,505,1.4956750869751,knife,keyboard,c01,0505_cop_s01_c01_keyboard_10_n03085013_23005.png
subject-01,1,506,0.509876012802124,bottle,knife,c10,0506_cop_s01_c10_knife_10_n03041632_14817.png
subject-01,1,507,0.461596965789795,oven,oven,c01,0507_cop_s01_c01_oven_10_n04111531_4901.png
subject-01,1,508,0.630453824996948,airplane,dog,c03,0508_cop_s01_c03_dog_10_n02102480_7875.png
subject-01,1,509,1.25055909156799,car,car,c100,0509_cop_s01_c100_car_10_n03100240_6773.png
subject-01,1,510,0.450811147689819,airplane,airplane,c50,0510_cop_s01_c50_airplane_10_n02690373_4964.png
subject-01,1,511,1.45008897781372,knife,knife,c10,0511_cop_s01_c10_knife_10_n03041632_10140.png
subject-01,1,512,0.65852689743042,clock,clock,c15,0512_cop_s01_c15_clock_10_n02708093_3743.png
subject-01,1,513,0.479465007781982,airplane,airplane,c100,0513_cop_s01_c100_airplane_10_n02690373_736.png
subject-01,1,514,0.929486989974976,knife,knife,c100,0514_cop_s01_c100_knife_10_n03041632_10263.png
subject-01,1,515,0.829974889755249,keyboard,keyboard,c03,0515_cop_s01_c03_keyboard_10_n04505470_4797.png
subject-01,1,516,1.01991987228394,airplane,airplane,c15,0516_cop_s01_c15_airplane_10_n02690373_1837.png
subject-01,1,517,0.755874872207642,clock,clock,c50,0517_cop_s01_c50_clock_10_n03196217_3475.png
subject-01,1,518,0.662177085876465,boat,bear,c50,0518_cop_s01_c50_bear_10_n02133161_13461.png
subject-01,1,519,0.613954067230225,bear,bear,c15,0519_cop_s01_c15_bear_10_n02132136_6352.png
subject-01,1,520,0.99591588973999,knife,chair,c50,0520_cop_s01_c50_chair_10_n02791124_5824.png
subject-01,1,521,0.701520919799805,car,car,c30,0521_cop_s01_c30_car_10_n03100240_11693.png
subject-01,1,522,0.891371011734009,bottle,bottle,c10,0522_cop_s01_c10_bottle_10_n04557648_818.png
subject-01,1,523,0.681427955627441,boat,bear,c03,0523_cop_s01_c03_bear_10_n02134084_169.png
subject-01,1,524,0.511031866073608,oven,truck,c50,0524_cop_s01_c50_truck_10_n03417042_3952.png
subject-01,1,525,0.709553003311157,knife,knife,c100,0525_cop_s01_c100_knife_10_n03041632_3101.png
subject-01,1,526,0.57225513458252,airplane,bird,c05,0526_cop_s01_c05_bird_10_n01534433_14198.png
subject-01,1,527,0.592680931091309,bicycle,bicycle,c30,0527_cop_s01_c30_bicycle_10_n02835271_4677.png
subject-01,1,528,0.51517915725708,bottle,bottle,c15,0528_cop_s01_c15_bottle_10_n02823428_780.png
subject-01,1,529,1.31009697914124,car,car,c100,0529_cop_s01_c100_car_10_n04285008_12446.png
subject-01,1,530,0.64880895614624,keyboard,keyboard,c30,0530_cop_s01_c30_keyboard_10_n04505470_709.png
subject-01,1,531,0.538624048233032,car,car,c10,0531_cop_s01_c10_car_10_n03100240_3373.png
subject-01,1,532,0.752830028533936,elephant,elephant,c10,0532_cop_s01_c10_elephant_10_n02504013_1833.png
subject-01,1,533,0.55881404876709,clock,clock,c05,0533_cop_s01_c05_clock_10_n02708093_4798.png
subject-01,1,534,0.86501407623291,elephant,elephant,c30,0534_cop_s01_c30_elephant_10_n02504013_1258.png
subject-01,1,535,0.588021993637085,keyboard,keyboard,c30,0535_cop_s01_c30_keyboard_10_n03085013_2272.png
subject-01,1,536,0.580744981765747,bottle,bottle,c30,0536_cop_s01_c30_bottle_10_n02823428_4468.png
subject-01,1,537,0.787252187728882,oven,bottle,c03,0537_cop_s01_c03_bottle_10_n03937543_5257.png
subject-01,1,538,0.877890110015869,keyboard,keyboard,c10,0538_cop_s01_c10_keyboard_10_n03085013_18649.png
subject-01,1,539,1.14640212059021,elephant,elephant,c30,0539_cop_s01_c30_elephant_10_n02504458_2994.png
subject-01,1,540,0.623428106307983,keyboard,keyboard,c03,0540_cop_s01_c03_keyboard_10_n04505470_5022.png
subject-01,1,541,1.07625603675842,bird,bird,c30,0541_cop_s01_c30_bird_10_n01843383_296.png
subject-01,1,542,0.781870126724243,truck,truck,c50,0542_cop_s01_c50_truck_10_n04467665_30901.png
subject-01,1,543,0.94704794883728,truck,truck,c10,0543_cop_s01_c10_truck_10_n03796401_3158.png
subject-01,1,544,0.570104122161865,bicycle,bicycle,c50,0544_cop_s01_c50_bicycle_10_n03792782_17571.png
subject-01,1,545,0.535615205764771,cat,cat,c100,0545_cop_s01_c100_cat_10_n02123394_2034.png
subject-01,1,546,0.958079099655151,airplane,chair,c01,0546_cop_s01_c01_chair_10_n04099969_4577.png
subject-01,1,547,0.518921136856079,boat,boat,c15,0547_cop_s01_c15_boat_10_n04612504_18954.png
subject-01,1,548,0.695404052734375,oven,oven,c15,0548_cop_s01_c15_oven_10_n04111531_22403.png
subject-01,1,549,1.29917287826538,dog,dog,c03,0549_cop_s01_c03_dog_10_n02099429_1992.png
subject-01,1,550,0.806368112564087,dog,dog,c30,0550_cop_s01_c30_dog_10_n02093991_9672.png
subject-01,1,551,0.782157897949219,truck,truck,c05,0551_cop_s01_c05_truck_10_n03417042_2230.png
subject-01,1,552,0.520742893218994,bicycle,bicycle,c100,0552_cop_s01_c100_bicycle_10_n02835271_2885.png
subject-01,1,553,0.995344161987305,keyboard,keyboard,c15,0553_cop_s01_c15_keyboard_10_n04505470_725.png
subject-01,1,554,0.564136981964111,cat,cat,c100,0554_cop_s01_c100_cat_10_n02123597_9444.png
subject-01,1,555,0.591730117797852,airplane,airplane,c100,0555_cop_s01_c100_airplane_10_n02690373_6046.png
subject-01,1,556,0.806169986724854,knife,knife,c100,0556_cop_s01_c100_knife_10_n03041632_7279.png
subject-01,1,557,1.07176208496094,airplane,bear,c15,0557_cop_s01_c15_bear_10_n02134084_24140.png
subject-01,1,558,1.06259989738464,car,chair,c10,0558_cop_s01_c10_chair_10_n04429376_30621.png
subject-01,1,559,0.82511305809021,car,car,c01,0559_cop_s01_c01_car_10_n02814533_3590.png
subject-01,1,560,0.723497152328491,bird,cat,c01,0560_cop_s01_c01_cat_10_n02124075_13792.png
subject-01,1,561,0.721909999847412,dog,dog,c15,0561_cop_s01_c15_dog_10_n02094114_8231.png
subject-01,1,562,0.59827995300293,bottle,bottle,c10,0562_cop_s01_c10_bottle_10_n04579145_784.png
subject-01,1,563,1.03488397598267,bottle,elephant,c01,0563_cop_s01_c01_elephant_10_n02504458_5331.png
subject-01,1,564,0.749458074569702,chair,bird,c01,0564_cop_s01_c01_bird_10_n02017213_2183.png
subject-01,1,565,0.672034978866577,chair,cat,c01,0565_cop_s01_c01_cat_10_n02123045_6066.png
subject-01,1,566,0.808525085449219,dog,dog,c100,0566_cop_s01_c100_dog_10_n02102177_988.png
subject-01,1,567,0.793745040893555,elephant,dog,c10,0567_cop_s01_c10_dog_10_n02105251_7686.png
subject-01,1,568,0.991883039474487,bear,bear,c03,0568_cop_s01_c03_bear_10_n02134418_1102.png
subject-01,1,569,0.738638162612915,bird,bird,c10,0569_cop_s01_c10_bird_10_n02009229_263.png
subject-01,1,570,0.612859010696411,bicycle,bicycle,c10,0570_cop_s01_c10_bicycle_10_n03792782_7182.png
subject-01,1,571,1.11144280433655,elephant,bear,c05,0571_cop_s01_c05_bear_10_n02133161_9949.png
subject-01,1,572,0.72617506980896,knife,knife,c15,0572_cop_s01_c15_knife_10_n03041632_11700.png
subject-01,1,573,0.677937030792236,knife,knife,c50,0573_cop_s01_c50_knife_10_n03041632_6557.png
subject-01,1,574,0.983546018600464,boat,truck,c01,0574_cop_s01_c01_truck_10_n03796401_21335.png
subject-01,1,575,0.590294122695923,chair,chair,c50,0575_cop_s01_c50_chair_10_n03376595_12602.png
subject-01,1,576,0.720690965652466,cat,cat,c15,0576_cop_s01_c15_cat_10_n02125311_24985.png
subject-01,1,577,0.981234073638916,cat,dog,c15,0577_cop_s01_c15_dog_10_n02091032_3390.png
subject-01,1,578,0.679816007614136,truck,truck,c10,0578_cop_s01_c10_truck_10_n04467665_56815.png
subject-01,1,579,0.764551877975464,knife,knife,c30,0579_cop_s01_c30_knife_10_n03041632_1671.png
subject-01,1,580,0.716121196746826,cat,cat,c100,0580_cop_s01_c100_cat_10_n02123045_9845.png
subject-01,1,581,1.15203619003296,keyboard,bicycle,c03,0581_cop_s01_c03_bicycle_10_n02835271_3832.png
subject-01,1,582,0.504183053970337,keyboard,clock,c10,0582_cop_s01_c10_clock_10_n04548280_183.png
subject-01,1,583,0.656208038330078,keyboard,keyboard,c30,0583_cop_s01_c30_keyboard_10_n03085013_20462.png
subject-01,1,584,0.992219924926758,airplane,airplane,c03,0584_cop_s01_c03_airplane_10_n02690373_12929.png
subject-01,1,585,0.652294158935547,cat,cat,c50,0585_cop_s01_c50_cat_10_n02124075_10241.png
subject-01,1,586,0.604403972625732,cat,dog,c03,0586_cop_s01_c03_dog_10_n02096437_6849.png
subject-01,1,587,0.835114002227783,cat,dog,c15,0587_cop_s01_c15_dog_10_n02102177_835.png
subject-01,1,588,0.938709020614624,elephant,elephant,c30,0588_cop_s01_c30_elephant_10_n02504013_7539.png
subject-01,1,589,0.463773965835571,chair,chair,c50,0589_cop_s01_c50_chair_10_n04099969_25664.png
subject-01,1,590,0.475644111633301,boat,boat,c100,0590_cop_s01_c100_boat_10_n02951358_14624.png
subject-01,1,591,0.51953911781311,oven,boat,c01,0591_cop_s01_c01_boat_10_n04273569_15906.png
subject-01,1,592,1.28541898727417,clock,bottle,c10,0592_cop_s01_c10_bottle_10_n04557648_2904.png
subject-01,1,593,0.732284069061279,airplane,airplane,c01,0593_cop_s01_c01_airplane_10_n02690373_4243.png
subject-01,1,594,0.892117023468018,bicycle,bottle,c01,0594_cop_s01_c01_bottle_10_n03983396_751.png
subject-01,1,595,0.436776876449585,oven,oven,c100,0595_cop_s01_c100_oven_10_n04111531_23264.png
subject-01,1,596,0.612770080566406,chair,chair,c30,0596_cop_s01_c30_chair_10_n04099969_9891.png
subject-01,1,597,0.519175052642822,oven,truck,c03,0597_cop_s01_c03_truck_10_n04467665_276.png
subject-01,1,598,0.887658834457397,knife,knife,c50,0598_cop_s01_c50_knife_10_n03041632_1006.png
subject-01,1,599,0.432025194168091,oven,bottle,c01,0599_cop_s01_c01_bottle_10_n03937543_10092.png
subject-01,1,600,0.730770111083984,clock,clock,c30,0600_cop_s01_c30_clock_10_n03196217_3877.png
subject-01,1,601,0.628326892852783,cat,cat,c30,0601_cop_s01_c30_cat_10_n02123045_1484.png
subject-01,1,602,1.21084904670715,bicycle,bicycle,c05,0602_cop_s01_c05_bicycle_10_n03792782_5284.png
subject-01,1,603,0.765518188476562,airplane,airplane,c100,0603_cop_s01_c100_airplane_10_n02690373_5007.png
subject-01,1,604,0.564104080200195,truck,truck,c30,0604_cop_s01_c30_truck_10_n04467665_2199.png
subject-01,1,605,0.561899900436401,car,bear,c01,0605_cop_s01_c01_bear_10_n02133161_9134.png
subject-01,1,606,0.475822925567627,oven,oven,c30,0606_cop_s01_c30_oven_10_n04111531_1442.png
subject-01,1,607,0.5954430103302,bicycle,bicycle,c50,0607_cop_s01_c50_bicycle_10_n03792782_4826.png
subject-01,1,608,0.725420951843262,car,bear,c01,0608_cop_s01_c01_bear_10_n02134084_5031.png
subject-01,1,609,0.86943793296814,boat,chair,c15,0609_cop_s01_c15_chair_10_n03376595_9482.png
subject-01,1,610,0.545829057693481,chair,clock,c01,0610_cop_s01_c01_clock_10_n02708093_2710.png
subject-01,1,611,0.590904951095581,bicycle,bicycle,c100,0611_cop_s01_c100_bicycle_10_n03792782_19937.png
subject-01,1,612,0.488588094711304,oven,oven,c15,0612_cop_s01_c15_oven_10_n04111531_1752.png
subject-01,1,613,0.631505012512207,airplane,airplane,c50,0613_cop_s01_c50_airplane_10_n02690373_2544.png
subject-01,1,614,0.592606067657471,cat,oven,c03,0614_cop_s01_c03_oven_10_n04111531_14951.png
subject-01,1,615,0.574402093887329,oven,oven,c100,0615_cop_s01_c100_oven_10_n04111531_6567.png
subject-01,1,616,1.21632313728333,truck,truck,c100,0616_cop_s01_c100_truck_10_n04467665_27096.png
subject-01,1,617,0.584360122680664,elephant,elephant,c100,0617_cop_s01_c100_elephant_10_n02504458_1138.png
subject-01,1,618,0.776677131652832,clock,clock,c30,0618_cop_s01_c30_clock_10_n03196217_2307.png
subject-01,1,619,0.788647890090942,dog,bird,c15,0619_cop_s01_c15_bird_10_n02013706_8336.png
subject-01,1,620,0.521573066711426,bird,bird,c30,0620_cop_s01_c30_bird_10_n02011460_11838.png
subject-01,1,621,0.788302183151245,airplane,airplane,c50,0621_cop_s01_c50_airplane_10_n02690373_4649.png
subject-01,1,622,0.918507099151611,airplane,airplane,c03,0622_cop_s01_c03_airplane_10_n02690373_10203.png
subject-01,1,623,0.584423065185547,boat,boat,c50,0623_cop_s01_c50_boat_10_n04273569_26139.png
subject-01,1,624,1.09092688560486,knife,knife,c100,0624_cop_s01_c100_knife_10_n03041632_4044.png
subject-01,1,625,0.483658075332642,keyboard,keyboard,c100,0625_cop_s01_c100_keyboard_10_n04505470_5068.png
subject-01,1,626,0.405987024307251,boat,boat,c10,0626_cop_s01_c10_boat_10_n04273569_14373.png
subject-01,1,627,1.35655093193054,dog,bear,c10,0627_cop_s01_c10_bear_10_n02133161_15177.png
subject-01,1,628,0.641671180725098,truck,truck,c10,0628_cop_s01_c10_truck_10_n03796401_2060.png
subject-01,1,629,0.880329132080078,cat,bear,c05,0629_cop_s01_c05_bear_10_n02132136_22602.png
subject-01,1,630,0.494107961654663,oven,bicycle,c01,0630_cop_s01_c01_bicycle_10_n02835271_8212.png
subject-01,1,631,0.74383282661438,airplane,airplane,c10,0631_cop_s01_c10_airplane_10_n02690373_9642.png
subject-01,1,632,0.681546926498413,knife,knife,c50,0632_cop_s01_c50_knife_10_n03041632_41310.png
subject-01,1,633,0.680237054824829,boat,dog,c03,0633_cop_s01_c03_dog_10_n02093991_247.png
subject-01,1,634,1.12478113174438,elephant,bicycle,c05,0634_cop_s01_c05_bicycle_10_n03792782_8057.png
subject-01,1,635,0.931140899658203,elephant,elephant,c15,0635_cop_s01_c15_elephant_10_n02504013_2479.png
subject-01,1,636,0.945465803146362,knife,bottle,c15,0636_cop_s01_c15_bottle_10_n04557648_6060.png
subject-01,1,637,1.41224789619446,truck,truck,c15,0637_cop_s01_c15_truck_10_n04467665_67969.png
subject-01,1,638,1.21742606163025,keyboard,chair,c100,0638_cop_s01_c100_chair_10_n02791124_12707.png
subject-01,1,639,0.623004913330078,boat,boat,c100,0639_cop_s01_c100_boat_10_n04273569_12214.png
subject-01,1,640,0.87585711479187,oven,oven,c10,0640_cop_s01_c10_oven_10_n04111531_13862.png
subject-01,1,641,1.02796792984009,airplane,airplane,c10,0641_cop_s01_c10_airplane_10_n02690373_6549.png
subject-01,1,642,0.511719942092896,clock,clock,c30,0642_cop_s01_c30_clock_10_n04548280_8646.png
subject-01,1,643,1.02328395843506,bear,bear,c05,0643_cop_s01_c05_bear_10_n02134084_6223.png
subject-01,1,644,1.02953791618347,dog,dog,c30,0644_cop_s01_c30_dog_10_n02107312_860.png
subject-01,1,645,0.87397289276123,bear,elephant,c10,0645_cop_s01_c10_elephant_10_n02504013_1970.png
subject-01,1,646,0.49790096282959,boat,boat,c100,0646_cop_s01_c100_boat_10_n03344393_646.png
subject-01,1,647,0.880291938781738,airplane,airplane,c50,0647_cop_s01_c50_airplane_10_n02690373_2675.png
subject-01,1,648,0.73300313949585,chair,chair,c100,0648_cop_s01_c100_chair_10_n04099969_2502.png
subject-01,1,649,0.701824903488159,bird,bottle,c01,0649_cop_s01_c01_bottle_10_n04560804_24166.png
subject-01,1,650,0.685935974121094,truck,truck,c30,0650_cop_s01_c30_truck_10_n03417042_5346.png
subject-01,1,651,0.476385116577148,oven,oven,c100,0651_cop_s01_c100_oven_10_n04111531_6536.png
subject-01,1,652,0.658860921859741,airplane,boat,c05,0652_cop_s01_c05_boat_10_n02951358_15858.png
subject-01,1,653,0.718978881835938,keyboard,chair,c01,0653_cop_s01_c01_chair_10_n02791124_2773.png
subject-01,1,654,0.572296142578125,chair,chair,c15,0654_cop_s01_c15_chair_10_n02791124_9757.png
subject-01,1,655,0.903085947036743,chair,knife,c10,0655_cop_s01_c10_knife_10_n03041632_13108.png
subject-01,1,656,1.40087389945984,chair,bottle,c03,0656_cop_s01_c03_bottle_10_n04560804_15840.png
subject-01,1,657,0.388475894927979,boat,boat,c50,0657_cop_s01_c50_boat_10_n04612504_11939.png
subject-01,1,658,0.792824983596802,oven,knife,c50,0658_cop_s01_c50_knife_10_n03041632_24326.png
subject-01,1,659,1.04496288299561,bird,elephant,c10,0659_cop_s01_c10_elephant_10_n02504013_4654.png
subject-01,1,660,1.07545685768127,bottle,bottle,c10,0660_cop_s01_c10_bottle_10_n04557648_2426.png
subject-01,1,661,1.2119140625,bicycle,bicycle,c100,0661_cop_s01_c100_bicycle_10_n03792782_11297.png
subject-01,1,662,0.957741022109985,airplane,dog,c10,0662_cop_s01_c10_dog_10_n02093428_592.png
subject-01,1,663,0.83487606048584,elephant,bear,c10,0663_cop_s01_c10_bear_10_n02133161_14945.png
subject-01,1,664,1.23282814025879,truck,truck,c15,0664_cop_s01_c15_truck_10_n03796401_4154.png
subject-01,1,665,1.12349796295166,oven,keyboard,c03,0665_cop_s01_c03_keyboard_10_n03085013_24306.png
subject-01,1,666,0.992476940155029,keyboard,keyboard,c15,0666_cop_s01_c15_keyboard_10_n04505470_1236.png
subject-01,1,667,0.584020137786865,car,car,c30,0667_cop_s01_c30_car_10_n03100240_17245.png
subject-01,1,668,1.29674100875854,knife,bottle,c100,0668_cop_s01_c100_bottle_10_n03937543_2123.png
subject-01,1,669,1.40306186676025,truck,truck,c15,0669_cop_s01_c15_truck_10_n03796401_20373.png
subject-01,1,670,0.749626874923706,bird,bird,c50,0670_cop_s01_c50_bird_10_n01614925_1908.png
subject-01,1,671,0.525403022766113,bird,bird,c30,0671_cop_s01_c30_bird_10_n02013706_19220.png
subject-01,1,672,1.31293702125549,dog,dog,c10,0672_cop_s01_c10_dog_10_n02087394_9693.png
subject-01,1,673,0.634881973266602,dog,dog,c100,0673_cop_s01_c100_dog_10_n02101556_2504.png
subject-01,1,674,0.671167135238647,boat,boat,c15,0674_cop_s01_c15_boat_10_n03662601_6289.png
subject-01,1,675,0.723772048950195,boat,oven,c30,0675_cop_s01_c30_oven_10_n04111531_6500.png
subject-01,1,676,0.592292070388794,boat,boat,c30,0676_cop_s01_c30_boat_10_n04273569_1709.png
subject-01,1,677,0.814452171325684,car,car,c05,0677_cop_s01_c05_car_10_n03100240_159.png
subject-01,1,678,0.858736991882324,bear,bear,c30,0678_cop_s01_c30_bear_10_n02134084_10839.png
subject-01,1,679,0.748435020446777,oven,bicycle,c03,0679_cop_s01_c03_bicycle_10_n03792782_12908.png
subject-01,1,680,0.478968143463135,cat,bicycle,c03,0680_cop_s01_c03_bicycle_10_n02835271_12405.png
subject-01,1,681,0.623093128204346,boat,boat,c10,0681_cop_s01_c10_boat_10_n03344393_4485.png
subject-01,1,682,0.674727916717529,airplane,airplane,c30,0682_cop_s01_c30_airplane_10_n02690373_8876.png
subject-01,1,683,0.619593858718872,bottle,bottle,c15,0683_cop_s01_c15_bottle_10_n03937543_3726.png
subject-01,1,684,1.28496885299683,oven,keyboard,c10,0684_cop_s01_c10_keyboard_10_n03085013_16359.png
subject-01,1,685,1.25391292572021,airplane,oven,c03,0685_cop_s01_c03_oven_10_n04111531_13795.png
subject-01,1,686,0.437191009521484,boat,boat,c10,0686_cop_s01_c10_boat_10_n04273569_10292.png
subject-01,1,687,0.79499888420105,car,car,c100,0687_cop_s01_c100_car_10_n03100240_5569.png
subject-01,1,688,0.755746126174927,oven,oven,c100,0688_cop_s01_c100_oven_10_n04111531_9411.png
subject-01,1,689,0.77840518951416,truck,elephant,c05,0689_cop_s01_c05_elephant_10_n02504458_1496.png
subject-01,1,690,0.522246122360229,boat,boat,c05,0690_cop_s01_c05_boat_10_n03344393_5636.png
subject-01,1,691,1.22907996177673,boat,knife,c100,0691_cop_s01_c100_knife_10_n03041632_29037.png
subject-01,1,692,0.72181510925293,bottle,bottle,c15,0692_cop_s01_c15_bottle_10_n03983396_5559.png
subject-01,1,693,0.742315053939819,boat,boat,c30,0693_cop_s01_c30_boat_10_n02951358_29825.png
subject-01,1,694,1.50012898445129,bottle,knife,c15,0694_cop_s01_c15_knife_10_n03041632_11773.png
subject-01,1,695,0.857733011245728,bird,bird,c15,0695_cop_s01_c15_bird_10_n01592084_4764.png
subject-01,1,696,0.763678789138794,bird,elephant,c15,0696_cop_s01_c15_elephant_10_n02504458_4010.png
subject-01,1,697,1.39222002029419,knife,knife,c03,0697_cop_s01_c03_knife_10_n03041632_11932.png
subject-01,1,698,0.584875822067261,boat,chair,c05,0698_cop_s01_c05_chair_10_n04429376_55163.png
subject-01,1,699,0.699108839035034,bottle,bottle,c100,0699_cop_s01_c100_bottle_10_n04557648_14715.png
subject-01,1,700,1.4195921421051,knife,knife,c50,0700_cop_s01_c50_knife_10_n03041632_13612.png
subject-01,1,701,0.771275043487549,bird,bird,c10,0701_cop_s01_c10_bird_10_n02007558_45529.png
subject-01,1,702,0.615540981292725,dog,dog,c30,0702_cop_s01_c30_dog_10_n02097474_5234.png
subject-01,1,703,0.599688053131104,knife,knife,c50,0703_cop_s01_c50_knife_10_n03041632_27575.png
subject-01,1,704,0.614313125610352,airplane,airplane,c30,0704_cop_s01_c30_airplane_10_n02690373_7676.png
subject-01,1,705,0.651154041290283,bird,bird,c100,0705_cop_s01_c100_bird_10_n02028035_15091.png
subject-01,1,706,0.889982938766479,car,car,c05,0706_cop_s01_c05_car_10_n02814533_872.png
subject-01,1,707,0.910193920135498,bicycle,bicycle,c05,0707_cop_s01_c05_bicycle_10_n02835271_4220.png
subject-01,1,708,1.09471893310547,airplane,airplane,c100,0708_cop_s01_c100_airplane_10_n02690373_871.png
subject-01,1,709,0.685415983200073,boat,chair,c05,0709_cop_s01_c05_chair_10_n02791124_5995.png
subject-01,1,710,0.883397102355957,airplane,airplane,c03,0710_cop_s01_c03_airplane_10_n02690373_13318.png
subject-01,1,711,0.903314113616943,bird,bird,c50,0711_cop_s01_c50_bird_10_n01592084_9643.png
subject-01,1,712,1.35584092140198,car,car,c15,0712_cop_s01_c15_car_10_n03100240_1856.png
subject-01,1,713,0.848894119262695,chair,chair,c100,0713_cop_s01_c100_chair_10_n03376595_7824.png
subject-01,1,714,0.549714088439941,truck,truck,c15,0714_cop_s01_c15_truck_10_n04467665_1015.png
subject-01,1,715,0.808403015136719,truck,truck,c100,0715_cop_s01_c100_truck_10_n04467665_4239.png
subject-01,1,716,0.568140029907227,bear,bear,c10,0716_cop_s01_c10_bear_10_n02132136_10514.png
subject-01,1,717,0.820647001266479,car,truck,c50,0717_cop_s01_c50_truck_10_n03796401_296.png
subject-01,1,718,0.696952819824219,bottle,bottle,c05,0718_cop_s01_c05_bottle_10_n04579145_2910.png
subject-01,1,719,0.519662141799927,keyboard,keyboard,c100,0719_cop_s01_c100_keyboard_10_n03085013_12175.png
subject-01,1,720,0.878453969955444,dog,dog,c100,0720_cop_s01_c100_dog_10_n02104029_4704.png
subject-01,1,721,0.576830148696899,airplane,airplane,c05,0721_cop_s01_c05_airplane_10_n02690373_8650.png
subject-01,1,722,0.407170057296753,cat,cat,c30,0722_cop_s01_c30_cat_10_n02124075_11970.png
subject-01,1,723,0.676059007644653,bottle,bottle,c15,0723_cop_s01_c15_bottle_10_n04579145_6880.png
subject-01,1,724,0.995289087295532,elephant,elephant,c50,0724_cop_s01_c50_elephant_10_n02504458_3684.png
subject-01,1,725,0.612862110137939,bicycle,bicycle,c50,0725_cop_s01_c50_bicycle_10_n02835271_1701.png
subject-01,1,726,0.695281028747559,keyboard,keyboard,c10,0726_cop_s01_c10_keyboard_10_n04505470_6638.png
subject-01,1,727,0.53389310836792,truck,truck,c50,0727_cop_s01_c50_truck_10_n03417042_10993.png
subject-01,1,728,0.62482213973999,boat,bear,c30,0728_cop_s01_c30_bear_10_n02134084_14775.png
subject-01,1,729,0.784641027450562,bottle,bottle,c15,0729_cop_s01_c15_bottle_10_n04591713_6842.png
subject-01,1,730,0.896509170532227,keyboard,keyboard,c05,0730_cop_s01_c05_keyboard_10_n03085013_1824.png
subject-01,1,731,0.459336996078491,airplane,airplane,c50,0731_cop_s01_c50_airplane_10_n02690373_1436.png
subject-01,1,732,0.671988964080811,clock,clock,c15,0732_cop_s01_c15_clock_10_n02708093_118.png
subject-01,1,733,0.81660008430481,knife,boat,c05,0733_cop_s01_c05_boat_10_n04273569_6586.png
subject-01,1,734,0.731186151504517,truck,truck,c10,0734_cop_s01_c10_truck_10_n03417042_7530.png
subject-01,1,735,1.1125819683075,bird,bird,c10,0735_cop_s01_c10_bird_10_n01532829_560.png
subject-01,1,736,0.650495052337646,cat,cat,c30,0736_cop_s01_c30_cat_10_n02123394_2285.png
subject-01,1,737,0.670536041259766,bicycle,bicycle,c15,0737_cop_s01_c15_bicycle_10_n03792782_14642.png
subject-01,1,738,0.546695947647095,chair,chair,c50,0738_cop_s01_c50_chair_10_n04099969_48172.png
subject-01,1,739,0.834856986999512,oven,car,c03,0739_cop_s01_c03_car_10_n04285008_3193.png
subject-01,1,740,0.589155197143555,truck,truck,c30,0740_cop_s01_c30_truck_10_n04467665_56527.png
subject-01,1,741,0.625860929489136,truck,truck,c100,0741_cop_s01_c100_truck_10_n04467665_52762.png
subject-01,1,742,0.487223863601685,clock,clock,c10,0742_cop_s01_c10_clock_10_n03196217_4527.png
subject-01,1,743,1.08515286445618,bird,dog,c01,0743_cop_s01_c01_dog_10_n02107908_12294.png
subject-01,1,744,0.936739921569824,airplane,airplane,c05,0744_cop_s01_c05_airplane_10_n02690373_8746.png
subject-01,1,745,0.806519031524658,dog,dog,c30,0745_cop_s01_c30_dog_10_n02113799_18413.png
subject-01,1,746,0.670558214187622,boat,boat,c03,0746_cop_s01_c03_boat_10_n03662601_6462.png
subject-01,1,747,0.6353440284729,cat,dog,c05,0747_cop_s01_c05_dog_10_n02099849_6384.png
subject-01,1,748,0.617805004119873,clock,clock,c50,0748_cop_s01_c50_clock_10_n02708093_3759.png
subject-01,1,749,1.16205096244812,truck,truck,c05,0749_cop_s01_c05_truck_10_n03796401_20641.png
subject-01,1,750,0.892513990402222,cat,cat,c15,0750_cop_s01_c15_cat_10_n02125311_17613.png
subject-01,1,751,0.814639091491699,airplane,boat,c01,0751_cop_s01_c01_boat_10_n03344393_8143.png
subject-01,1,752,0.780454158782959,boat,oven,c05,0752_cop_s01_c05_oven_10_n04111531_2156.png
subject-01,1,753,0.640262842178345,dog,dog,c15,0753_cop_s01_c15_dog_10_n02090379_4952.png
subject-01,1,754,1.0010929107666,truck,bear,c05,0754_cop_s01_c05_bear_10_n02134418_6252.png
subject-01,1,755,0.74494481086731,keyboard,keyboard,c03,0755_cop_s01_c03_keyboard_10_n03085013_4673.png
subject-01,1,756,1.02679586410522,knife,bottle,c10,0756_cop_s01_c10_bottle_10_n03937543_2336.png
subject-01,1,757,0.457239866256714,oven,cat,c05,0757_cop_s01_c05_cat_10_n02125311_37322.png
subject-01,1,758,0.647377967834473,car,car,c03,0758_cop_s01_c03_car_10_n04285008_2460.png
subject-01,1,759,0.799737930297852,elephant,elephant,c30,0759_cop_s01_c30_elephant_10_n02504458_5055.png
subject-01,1,760,0.635396957397461,chair,chair,c03,0760_cop_s01_c03_chair_10_n04099969_9713.png
subject-01,1,761,0.679291009902954,bottle,bottle,c01,0761_cop_s01_c01_bottle_10_n02823428_4245.png
subject-01,1,762,0.607616901397705,chair,chair,c15,0762_cop_s01_c15_chair_10_n03376595_1961.png
subject-01,1,763,1.02238416671753,chair,oven,c10,0763_cop_s01_c10_oven_10_n04111531_13006.png
subject-01,1,764,0.765925884246826,chair,cat,c03,0764_cop_s01_c03_cat_10_n02123394_4164.png
subject-01,1,765,1.46262407302856,oven,oven,c100,0765_cop_s01_c100_oven_10_n04111531_14095.png
subject-01,1,766,0.979162931442261,chair,dog,c05,0766_cop_s01_c05_dog_10_n02105162_8899.png
subject-01,1,767,1.35356593132019,airplane,bottle,c03,0767_cop_s01_c03_bottle_10_n03937543_1840.png
subject-01,1,768,0.359502077102661,bottle,bottle,c100,0768_cop_s01_c100_bottle_10_n02823428_10933.png
subject-01,1,769,0.572792053222656,boat,boat,c15,0769_cop_s01_c15_boat_10_n03662601_16412.png
subject-01,1,770,0.502751111984253,car,car,c15,0770_cop_s01_c15_car_10_n04285008_8323.png
subject-01,1,771,0.693400144577026,keyboard,knife,c01,0771_cop_s01_c01_knife_10_n03041632_36235.png
subject-01,1,772,0.600029945373535,chair,oven,c01,0772_cop_s01_c01_oven_10_n04111531_9963.png
subject-01,1,773,0.614565849304199,boat,car,c03,0773_cop_s01_c03_car_10_n04285008_296.png
subject-01,1,774,0.858128070831299,bird,bird,c15,0774_cop_s01_c15_bird_10_n02011460_2417.png
subject-01,1,775,0.518839836120605,boat,boat,c05,0775_cop_s01_c05_boat_10_n04273569_20587.png
subject-01,1,776,0.87918496131897,bear,bear,c50,0776_cop_s01_c50_bear_10_n02132136_27823.png
subject-01,1,777,0.548022031784058,airplane,airplane,c15,0777_cop_s01_c15_airplane_10_n02690373_4728.png
subject-01,1,778,0.954623937606812,bottle,bottle,c30,0778_cop_s01_c30_bottle_10_n03983396_5545.png
subject-01,1,779,0.498528003692627,car,car,c30,0779_cop_s01_c30_car_10_n02814533_5147.png
subject-01,1,780,0.520349979400635,boat,oven,c05,0780_cop_s01_c05_oven_10_n04111531_2201.png
subject-01,1,781,0.579775094985962,keyboard,keyboard,c05,0781_cop_s01_c05_keyboard_10_n04505470_3207.png
subject-01,1,782,0.540498971939087,cat,clock,c03,0782_cop_s01_c03_clock_10_n04548280_3161.png
subject-01,1,783,0.668699979782104,clock,clock,c50,0783_cop_s01_c50_clock_10_n02708093_616.png
subject-01,1,784,0.56640100479126,keyboard,keyboard,c03,0784_cop_s01_c03_keyboard_10_n04505470_432.png
subject-01,1,785,0.672172069549561,truck,truck,c15,0785_cop_s01_c15_truck_10_n03796401_14189.png
subject-01,1,786,1.27087712287903,bird,airplane,c03,0786_cop_s01_c03_airplane_10_n02690373_10006.png
subject-01,1,787,0.523338079452515,cat,cat,c10,0787_cop_s01_c10_cat_10_n02124075_1576.png
subject-01,1,788,0.667319059371948,truck,truck,c100,0788_cop_s01_c100_truck_10_n03417042_3338.png
subject-01,1,789,0.571386098861694,cat,bear,c01,0789_cop_s01_c01_bear_10_n02132136_27682.png
subject-01,1,790,0.483075857162476,boat,boat,c15,0790_cop_s01_c15_boat_10_n03662601_3011.png
subject-01,1,791,1.20331907272339,truck,bird,c05,0791_cop_s01_c05_bird_10_n01616318_57023.png
subject-01,1,792,1.01756596565247,bottle,clock,c10,0792_cop_s01_c10_clock_10_n03196217_4232.png
subject-01,1,793,0.96940803527832,airplane,bicycle,c03,0793_cop_s01_c03_bicycle_10_n02835271_7969.png
subject-01,1,794,0.692950963973999,truck,truck,c15,0794_cop_s01_c15_truck_10_n03417042_8654.png
subject-01,1,795,1.09865307807922,oven,oven,c15,0795_cop_s01_c15_oven_10_n04111531_8255.png
subject-01,1,796,1.28115200996399,bear,elephant,c15,0796_cop_s01_c15_elephant_10_n02504013_3459.png
subject-01,1,797,0.697777986526489,cat,cat,c10,0797_cop_s01_c10_cat_10_n02123597_4357.png
subject-01,1,798,0.825777053833008,elephant,oven,c03,0798_cop_s01_c03_oven_10_n04111531_584.png
subject-01,1,799,0.82418417930603,airplane,airplane,c15,0799_cop_s01_c15_airplane_10_n02690373_1933.png
subject-01,1,800,0.875746011734009,chair,chair,c100,0800_cop_s01_c100_chair_10_n04429376_6308.png
subject-01,1,801,0.882188081741333,boat,boat,c50,0801_cop_s01_c50_boat_10_n02951358_22332.png
subject-01,1,802,0.764204978942871,boat,airplane,c03,0802_cop_s01_c03_airplane_10_n02690373_5524.png
subject-01,1,803,0.516123056411743,bottle,airplane,c01,0803_cop_s01_c01_airplane_10_n02690373_5917.png
subject-01,1,804,0.868259191513062,chair,boat,c05,0804_cop_s01_c05_boat_10_n03662601_4246.png
subject-01,1,805,0.947777986526489,elephant,bear,c30,0805_cop_s01_c30_bear_10_n02133161_12157.png
subject-01,1,806,1.09433913230896,airplane,bird,c03,0806_cop_s01_c03_bird_10_n01798484_8189.png
subject-01,1,807,0.42190408706665,oven,oven,c50,0807_cop_s01_c50_oven_10_n04111531_4963.png
subject-01,1,808,0.781804084777832,bicycle,bicycle,c03,0808_cop_s01_c03_bicycle_10_n02835271_3841.png
subject-01,1,809,0.831040143966675,truck,truck,c100,0809_cop_s01_c100_truck_10_n03417042_4420.png
subject-01,1,810,1.13013100624084,boat,boat,c05,0810_cop_s01_c05_boat_10_n02951358_33807.png
subject-01,1,811,0.976563930511475,keyboard,keyboard,c100,0811_cop_s01_c100_keyboard_10_n03085013_19065.png
subject-01,1,812,0.796933174133301,oven,bicycle,c01,0812_cop_s01_c01_bicycle_10_n03792782_19053.png
subject-01,1,813,0.943502902984619,airplane,knife,c03,0813_cop_s01_c03_knife_10_n03041632_99799.png
subject-01,1,814,0.62602686882019,bicycle,bicycle,c15,0814_cop_s01_c15_bicycle_10_n03792782_5557.png
subject-01,1,815,0.749117136001587,chair,chair,c30,0815_cop_s01_c30_chair_10_n02791124_5401.png
subject-01,1,816,0.579050064086914,clock,clock,c05,0816_cop_s01_c05_clock_10_n04548280_2559.png
subject-01,1,817,0.547203063964844,bicycle,bicycle,c03,0817_cop_s01_c03_bicycle_10_n02835271_7355.png
subject-01,1,818,0.851440906524658,oven,cat,c03,0818_cop_s01_c03_cat_10_n02123597_14713.png
subject-01,1,819,0.529879093170166,airplane,airplane,c15,0819_cop_s01_c15_airplane_10_n02690373_10181.png
subject-01,1,820,0.34495997428894,clock,clock,c50,0820_cop_s01_c50_clock_10_n03196217_3006.png
subject-01,1,821,1.24087905883789,chair,chair,c30,0821_cop_s01_c30_chair_10_n04099969_34525.png
subject-01,1,822,0.571569919586182,oven,bird,c01,0822_cop_s01_c01_bird_10_n02002724_627.png
subject-01,1,823,1.10434603691101,dog,dog,c10,0823_cop_s01_c10_dog_10_n02096294_1043.png
subject-01,1,824,0.734312057495117,bicycle,bicycle,c10,0824_cop_s01_c10_bicycle_10_n03792782_77949.png
subject-01,1,825,0.610894918441772,cat,cat,c10,0825_cop_s01_c10_cat_10_n02124075_9716.png
subject-01,1,826,0.779636144638062,bicycle,bicycle,c30,0826_cop_s01_c30_bicycle_10_n03792782_20190.png
subject-01,1,827,0.731119155883789,bicycle,car,c03,0827_cop_s01_c03_car_10_n04285008_7950.png
subject-01,1,828,1.07581090927124,car,car,c05,0828_cop_s01_c05_car_10_n02814533_45594.png
subject-01,1,829,0.574335813522339,cat,cat,c10,0829_cop_s01_c10_cat_10_n02123597_488.png
subject-01,1,830,0.64338207244873,cat,cat,c05,0830_cop_s01_c05_cat_10_n02125311_46330.png
subject-01,1,831,0.489842176437378,bicycle,bicycle,c30,0831_cop_s01_c30_bicycle_10_n03792782_8847.png
subject-01,1,832,0.826629877090454,bottle,bottle,c50,0832_cop_s01_c50_bottle_10_n04557648_10265.png
subject-01,1,833,0.456395149230957,bicycle,bicycle,c10,0833_cop_s01_c10_bicycle_10_n02835271_2553.png
subject-01,1,834,0.608519077301025,bear,bear,c100,0834_cop_s01_c100_bear_10_n02134084_21207.png
subject-01,1,835,0.644554138183594,car,bottle,c01,0835_cop_s01_c01_bottle_10_n03937543_986.png
subject-01,1,836,0.789048910140991,bicycle,elephant,c50,0836_cop_s01_c50_elephant_10_n02504458_3182.png
subject-01,1,837,0.443969011306763,car,car,c15,0837_cop_s01_c15_car_10_n04285008_12909.png
subject-01,1,838,0.533556938171387,boat,boat,c10,0838_cop_s01_c10_boat_10_n04612504_17514.png
subject-01,1,839,0.924238920211792,bear,truck,c03,0839_cop_s01_c03_truck_10_n04467665_52595.png
subject-01,1,840,0.554322004318237,car,car,c15,0840_cop_s01_c15_car_10_n04285008_5208.png
subject-01,1,841,0.828916788101196,cat,oven,c30,0841_cop_s01_c30_oven_10_n04111531_10710.png
subject-01,1,842,0.750853061676025,boat,chair,c10,0842_cop_s01_c10_chair_10_n02791124_1018.png
subject-01,1,843,0.633261919021606,bear,dog,c05,0843_cop_s01_c05_dog_10_n02105641_416.png
subject-01,1,844,0.585767030715942,airplane,airplane,c15,0844_cop_s01_c15_airplane_10_n02690373_4921.png
subject-01,1,845,0.608266115188599,clock,cat,c05,0845_cop_s01_c05_cat_10_n02123394_8524.png
subject-01,1,846,0.855461835861206,bird,elephant,c30,0846_cop_s01_c30_elephant_10_n02504458_5337.png
subject-01,1,847,0.791007995605469,knife,knife,c50,0847_cop_s01_c50_knife_10_n03041632_4714.png
subject-01,1,848,0.75652289390564,airplane,airplane,c100,0848_cop_s01_c100_airplane_10_n02690373_13078.png
subject-01,1,849,0.632098913192749,bird,bird,c10,0849_cop_s01_c10_bird_10_n02018207_9697.png
subject-01,1,850,0.629878044128418,elephant,elephant,c100,0850_cop_s01_c100_elephant_10_n02504458_5652.png
subject-01,1,851,1.11231803894043,truck,truck,c50,0851_cop_s01_c50_truck_10_n03796401_1681.png
subject-01,1,852,0.543606996536255,keyboard,keyboard,c05,0852_cop_s01_c05_keyboard_10_n04505470_5155.png
subject-01,1,853,0.56348991394043,bicycle,bicycle,c30,0853_cop_s01_c30_bicycle_10_n02835271_2764.png
subject-01,1,854,0.5020592212677,oven,elephant,c50,0854_cop_s01_c50_elephant_10_n02504458_5600.png
subject-01,1,855,0.454819917678833,airplane,airplane,c10,0855_cop_s01_c10_airplane_10_n02690373_4298.png
subject-01,1,856,1.16152000427246,car,car,c50,0856_cop_s01_c50_car_10_n03100240_2528.png
subject-01,1,857,0.546115875244141,elephant,elephant,c50,0857_cop_s01_c50_elephant_10_n02504458_2875.png
subject-01,1,858,0.568469047546387,car,car,c10,0858_cop_s01_c10_car_10_n03100240_52.png
subject-01,1,859,0.666465997695923,oven,cat,c01,0859_cop_s01_c01_cat_10_n02123045_7334.png
subject-01,1,860,0.489281177520752,cat,bird,c03,0860_cop_s01_c03_bird_10_n02002724_13195.png
subject-01,1,861,0.603766918182373,bird,bird,c50,0861_cop_s01_c50_bird_10_n01560419_6583.png
subject-01,1,862,0.496134996414185,cat,bicycle,c01,0862_cop_s01_c01_bicycle_10_n03792782_5437.png
subject-01,1,863,1.12991786003113,bottle,dog,c03,0863_cop_s01_c03_dog_10_n02113799_653.png
subject-01,1,864,0.859829902648926,boat,boat,c50,0864_cop_s01_c50_boat_10_n03662601_28046.png
subject-01,1,865,0.582156181335449,elephant,elephant,c15,0865_cop_s01_c15_elephant_10_n02504458_8923.png
subject-01,1,866,0.464656829833984,chair,chair,c15,0866_cop_s01_c15_chair_10_n04099969_13811.png
subject-01,1,867,0.841478824615479,bird,bird,c10,0867_cop_s01_c10_bird_10_n01843065_4020.png
subject-01,1,868,0.917816877365112,bottle,bear,c01,0868_cop_s01_c01_bear_10_n02134084_6113.png
subject-01,1,869,1.10805797576904,cat,dog,c05,0869_cop_s01_c05_dog_10_n02108551_3425.png
subject-01,1,870,0.867833852767944,boat,bear,c03,0870_cop_s01_c03_bear_10_n02134084_6840.png
subject-01,1,871,0.628647089004517,bottle,bottle,c50,0871_cop_s01_c50_bottle_10_n03937543_8197.png
subject-01,1,872,0.765102863311768,chair,chair,c03,0872_cop_s01_c03_chair_10_n02791124_3245.png
subject-01,1,873,0.495498895645142,boat,elephant,c03,0873_cop_s01_c03_elephant_10_n02504013_1879.png
subject-01,1,874,0.885847091674805,bear,dog,c50,0874_cop_s01_c50_dog_10_n02105056_951.png
subject-01,1,875,0.683790922164917,truck,truck,c100,0875_cop_s01_c100_truck_10_n03417042_7365.png
subject-01,1,876,1.25217008590698,boat,knife,c03,0876_cop_s01_c03_knife_10_n03041632_55083.png
subject-01,1,877,0.727998018264771,keyboard,elephant,c01,0877_cop_s01_c01_elephant_10_n02504013_3599.png
subject-01,1,878,0.772271871566772,bicycle,bicycle,c50,0878_cop_s01_c50_bicycle_10_n02835271_3383.png
subject-01,1,879,0.525054216384888,boat,boat,c30,0879_cop_s01_c30_boat_10_n04612504_14669.png
subject-01,1,880,0.785574913024902,bottle,bottle,c10,0880_cop_s01_c10_bottle_10_n02823428_2504.png
subject-01,1,881,0.746315002441406,dog,dog,c50,0881_cop_s01_c50_dog_10_n02092002_1139.png
subject-01,1,882,1.13081383705139,cat,cat,c30,0882_cop_s01_c30_cat_10_n02123394_5466.png
subject-01,1,883,0.942723989486694,car,boat,c01,0883_cop_s01_c01_boat_10_n03662601_5639.png
subject-01,1,884,0.605422019958496,cat,cat,c50,0884_cop_s01_c50_cat_10_n02123159_7647.png
subject-01,1,885,0.650115966796875,bird,bird,c10,0885_cop_s01_c10_bird_10_n02002556_9804.png
subject-01,1,886,0.978388071060181,elephant,chair,c15,0886_cop_s01_c15_chair_10_n02791124_5268.png
subject-01,1,887,1.03028392791748,knife,knife,c100,0887_cop_s01_c100_knife_10_n03041632_1143.png
subject-01,1,888,0.61395788192749,oven,chair,c01,0888_cop_s01_c01_chair_10_n02791124_3204.png
subject-01,1,889,0.974666118621826,bird,bird,c30,0889_cop_s01_c30_bird_10_n01855032_7567.png
subject-01,1,890,0.642765998840332,airplane,airplane,c100,0890_cop_s01_c100_airplane_10_n02690373_139.png
subject-01,1,891,1.00108695030212,clock,clock,c10,0891_cop_s01_c10_clock_10_n02708093_8340.png
subject-01,1,892,0.409718990325928,boat,chair,c10,0892_cop_s01_c10_chair_10_n02791124_880.png
subject-01,1,893,0.553500890731812,oven,knife,c50,0893_cop_s01_c50_knife_10_n03041632_37274.png
subject-01,1,894,0.527338027954102,bottle,bottle,c100,0894_cop_s01_c100_bottle_10_n04560804_14130.png
subject-01,1,895,0.725045919418335,keyboard,bear,c03,0895_cop_s01_c03_bear_10_n02133161_14164.png
subject-01,1,896,0.863996028900146,keyboard,truck,c01,0896_cop_s01_c01_truck_10_n04467665_22414.png
subject-01,1,897,1.12363386154175,chair,clock,c01,0897_cop_s01_c01_clock_10_n02708093_2318.png
subject-01,1,898,0.60834813117981,car,car,c30,0898_cop_s01_c30_car_10_n04285008_11323.png
subject-01,1,899,1.13655018806458,truck,truck,c05,0899_cop_s01_c05_truck_10_n04467665_8955.png
subject-01,1,900,0.742734909057617,bear,bear,c30,0900_cop_s01_c30_bear_10_n02132136_915.png
subject-01,1,901,1.49519896507263,bird,bicycle,c05,0901_cop_s01_c05_bicycle_10_n02835271_10104.png
subject-01,1,902,0.755036115646362,airplane,knife,c01,0902_cop_s01_c01_knife_10_n03041632_81630.png
subject-01,1,903,0.661767959594727,truck,clock,c05,0903_cop_s01_c05_clock_10_n03196217_3605.png
subject-01,1,904,0.63768196105957,bear,dog,c30,0904_cop_s01_c30_dog_10_n02102480_3679.png
subject-01,1,905,0.985680818557739,cat,dog,c15,0905_cop_s01_c15_dog_10_n02111129_6267.png
subject-01,1,906,0.516182899475098,keyboard,keyboard,c100,0906_cop_s01_c100_keyboard_10_n03085013_11332.png
subject-01,1,907,0.69044303894043,chair,cat,c01,0907_cop_s01_c01_cat_10_n02123597_23389.png
subject-01,1,908,0.750607013702393,chair,chair,c05,0908_cop_s01_c05_chair_10_n02791124_1737.png
subject-01,1,909,0.480507135391235,airplane,airplane,c15,0909_cop_s01_c15_airplane_10_n02690373_1952.png
subject-01,1,910,0.479328155517578,bottle,bottle,c50,0910_cop_s01_c50_bottle_10_n04591713_3284.png
subject-01,1,911,0.70539116859436,dog,dog,c10,0911_cop_s01_c10_dog_10_n02108422_9533.png
subject-01,1,912,0.479436874389648,bottle,bottle,c50,0912_cop_s01_c50_bottle_10_n03983396_11506.png
subject-01,1,913,1.02841401100159,truck,clock,c10,0913_cop_s01_c10_clock_10_n03196217_8020.png
subject-01,1,914,0.783236026763916,chair,car,c01,0914_cop_s01_c01_car_10_n02814533_83665.png
subject-01,1,915,1.01115012168884,dog,elephant,c10,0915_cop_s01_c10_elephant_10_n02504458_6470.png
subject-01,1,916,0.565482139587402,cat,clock,c03,0916_cop_s01_c03_clock_10_n04548280_4286.png
subject-01,1,917,0.76432991027832,clock,clock,c10,0917_cop_s01_c10_clock_10_n03196217_1814.png
subject-01,1,918,0.808600187301636,airplane,airplane,c15,0918_cop_s01_c15_airplane_10_n02690373_10399.png
subject-01,1,919,0.544405937194824,oven,bottle,c03,0919_cop_s01_c03_bottle_10_n04557648_10944.png
subject-01,1,920,0.812491893768311,car,car,c50,0920_cop_s01_c50_car_10_n04285008_2483.png
subject-01,1,921,0.802556037902832,bottle,clock,c01,0921_cop_s01_c01_clock_10_n04548280_2374.png
subject-01,1,922,0.724670171737671,keyboard,keyboard,c30,0922_cop_s01_c30_keyboard_10_n04505470_8754.png
subject-01,1,923,0.836469888687134,bicycle,bicycle,c30,0923_cop_s01_c30_bicycle_10_n03792782_10526.png
subject-01,1,924,1.02086400985718,bird,bird,c100,0924_cop_s01_c100_bird_10_n02025239_10194.png
subject-01,1,925,0.656033992767334,truck,truck,c50,0925_cop_s01_c50_truck_10_n03796401_10519.png
subject-01,1,926,0.516616106033325,bottle,bottle,c30,0926_cop_s01_c30_bottle_10_n04560804_1010.png
subject-01,1,927,0.74468207359314,bird,bird,c100,0927_cop_s01_c100_bird_10_n01855672_9451.png
subject-01,1,928,0.549497127532959,chair,chair,c50,0928_cop_s01_c50_chair_10_n02791124_2173.png
subject-01,1,929,0.580290079116821,car,car,c50,0929_cop_s01_c50_car_10_n04285008_12662.png
subject-01,1,930,0.562249898910522,car,car,c50,0930_cop_s01_c50_car_10_n04285008_3010.png
subject-01,1,931,0.605895042419434,cat,bicycle,c01,0931_cop_s01_c01_bicycle_10_n02835271_10741.png
subject-01,1,932,0.558620929718018,oven,oven,c50,0932_cop_s01_c50_oven_10_n04111531_452.png
subject-01,1,933,0.834486961364746,oven,cat,c10,0933_cop_s01_c10_cat_10_n02125311_14569.png
subject-01,1,934,0.80872106552124,cat,cat,c30,0934_cop_s01_c30_cat_10_n02123597_29513.png
subject-01,1,935,0.639314889907837,keyboard,car,c01,0935_cop_s01_c01_car_10_n03100240_17587.png
subject-01,1,936,0.629610061645508,boat,chair,c50,0936_cop_s01_c50_chair_10_n03376595_13018.png
subject-01,1,937,1.01426720619202,keyboard,keyboard,c03,0937_cop_s01_c03_keyboard_10_n03085013_29941.png
subject-01,1,938,0.980565071105957,airplane,cat,c03,0938_cop_s01_c03_cat_10_n02124075_11759.png
subject-01,1,939,0.556957006454468,oven,bird,c01,0939_cop_s01_c01_bird_10_n01829413_6393.png
subject-01,1,940,0.454206943511963,keyboard,keyboard,c15,0940_cop_s01_c15_keyboard_10_n04505470_5161.png
subject-01,1,941,0.822305917739868,knife,knife,c05,0941_cop_s01_c05_knife_10_n03041632_34676.png
subject-01,1,942,0.628902912139893,bottle,bottle,c15,0942_cop_s01_c15_bottle_10_n03983396_1629.png
subject-01,1,943,1.07876396179199,bear,bear,c05,0943_cop_s01_c05_bear_10_n02132136_22835.png
subject-01,1,944,0.516526937484741,bicycle,bicycle,c15,0944_cop_s01_c15_bicycle_10_n03792782_43279.png
subject-01,1,945,1.02886080741882,keyboard,boat,c01,0945_cop_s01_c01_boat_10_n04273569_661.png
subject-01,1,946,0.512778043746948,truck,truck,c15,0946_cop_s01_c15_truck_10_n03796401_7381.png
subject-01,1,947,0.664607048034668,bird,bear,c01,0947_cop_s01_c01_bear_10_n02134418_4114.png
subject-01,1,948,0.624635934829712,boat,knife,c05,0948_cop_s01_c05_knife_10_n03041632_27022.png
subject-01,1,949,0.891349077224731,bottle,keyboard,c01,0949_cop_s01_c01_keyboard_10_n03085013_24442.png
subject-01,1,950,0.751769065856934,chair,airplane,c01,0950_cop_s01_c01_airplane_10_n02690373_4793.png
subject-01,1,951,0.587538957595825,truck,truck,c50,0951_cop_s01_c50_truck_10_n04467665_69176.png
subject-01,1,952,0.802232980728149,boat,bird,c05,0952_cop_s01_c05_bird_10_n02002556_1437.png
subject-01,1,953,0.762021064758301,bear,bear,c10,0953_cop_s01_c10_bear_10_n02132136_4101.png
subject-01,1,954,NaN,na,bird,c05,0954_cop_s01_c05_bird_10_n01616318_2700.png
subject-01,1,955,1.0044059753418,bird,bird,c50,0955_cop_s01_c50_bird_10_n02002724_7019.png
subject-01,1,956,0.459061861038208,cat,elephant,c03,0956_cop_s01_c03_elephant_10_n02504013_3634.png
subject-01,1,957,0.886519908905029,keyboard,chair,c10,0957_cop_s01_c10_chair_10_n04099969_8993.png
subject-01,1,958,0.555002927780151,chair,truck,c01,0958_cop_s01_c01_truck_10_n03796401_15046.png
subject-01,1,959,0.945596933364868,chair,chair,c15,0959_cop_s01_c15_chair_10_n04429376_16378.png
subject-01,1,960,0.37594199180603,oven,airplane,c03,0960_cop_s01_c03_airplane_10_n02690373_6621.png
subject-01,1,961,0.874993085861206,dog,chair,c03,0961_cop_s01_c03_chair_10_n02791124_1333.png
subject-01,1,962,0.834959030151367,clock,clock,c100,0962_cop_s01_c100_clock_10_n03196217_9197.png
subject-01,1,963,0.540764808654785,car,keyboard,c01,0963_cop_s01_c01_keyboard_10_n04505470_2787.png
subject-01,1,964,0.521955966949463,boat,boat,c30,0964_cop_s01_c30_boat_10_n04273569_17045.png
subject-01,1,965,0.466529846191406,keyboard,keyboard,c15,0965_cop_s01_c15_keyboard_10_n03085013_13615.png
subject-01,1,966,1.01932811737061,boat,boat,c30,0966_cop_s01_c30_boat_10_n03662601_3741.png
subject-01,1,967,0.71793794631958,bird,bird,c10,0967_cop_s01_c10_bird_10_n01820546_2924.png
subject-01,1,968,0.472018957138062,boat,boat,c10,0968_cop_s01_c10_boat_10_n04612504_2472.png
subject-01,1,969,0.762376070022583,cat,cat,c100,0969_cop_s01_c100_cat_10_n02123597_6972.png
subject-01,1,970,0.490458011627197,bicycle,bicycle,c100,0970_cop_s01_c100_bicycle_10_n02835271_22549.png
subject-01,1,971,0.634752035140991,keyboard,bicycle,c03,0971_cop_s01_c03_bicycle_10_n03792782_4844.png
subject-01,1,972,0.427363872528076,bird,bird,c30,0972_cop_s01_c30_bird_10_n02007558_2518.png
subject-01,1,973,0.617451906204224,airplane,airplane,c30,0973_cop_s01_c30_airplane_10_n02690373_5247.png
subject-01,1,974,0.747888088226318,cat,bottle,c05,0974_cop_s01_c05_bottle_10_n04591713_105.png
subject-01,1,975,0.668416976928711,clock,clock,c100,0975_cop_s01_c100_clock_10_n02708093_579.png
subject-01,1,976,0.519164800643921,boat,boat,c15,0976_cop_s01_c15_boat_10_n04273569_28333.png
subject-01,1,977,0.817223787307739,clock,clock,c50,0977_cop_s01_c50_clock_10_n02708093_6835.png
subject-01,1,978,1.10798597335815,chair,elephant,c01,0978_cop_s01_c01_elephant_10_n02504458_4864.png
subject-01,1,979,0.60030198097229,clock,clock,c15,0979_cop_s01_c15_clock_10_n02708093_5429.png
subject-01,1,980,0.506315946578979,bottle,bird,c01,0980_cop_s01_c01_bird_10_n01592084_9625.png
subject-01,1,981,0.680907964706421,bicycle,keyboard,c01,0981_cop_s01_c01_keyboard_10_n03085013_18674.png
subject-01,1,982,0.570614099502563,truck,oven,c10,0982_cop_s01_c10_oven_10_n04111531_9026.png
subject-01,1,983,0.663372039794922,boat,car,c01,0983_cop_s01_c01_car_10_n03100240_3205.png
subject-01,1,984,0.775382041931152,bear,bear,c100,0984_cop_s01_c100_bear_10_n02134418_1218.png
subject-01,1,985,1.12441420555115,bear,bear,c15,0985_cop_s01_c15_bear_10_n02132136_2791.png
subject-01,1,986,0.970448970794678,knife,keyboard,c10,0986_cop_s01_c10_keyboard_10_n03085013_30073.png
subject-01,1,987,0.723031997680664,car,keyboard,c01,0987_cop_s01_c01_keyboard_10_n04505470_4440.png
subject-01,1,988,0.483491182327271,airplane,airplane,c05,0988_cop_s01_c05_airplane_10_n02690373_4108.png
subject-01,1,989,0.643829107284546,knife,knife,c15,0989_cop_s01_c15_knife_10_n03041632_51225.png
subject-01,1,990,0.680880069732666,clock,bird,c01,0990_cop_s01_c01_bird_10_n01537544_22049.png
subject-01,1,991,0.678084850311279,car,car,c10,0991_cop_s01_c10_car_10_n03100240_13929.png
subject-01,1,992,0.476279020309448,keyboard,keyboard,c100,0992_cop_s01_c100_keyboard_10_n04505470_9395.png
subject-01,1,993,1.00668883323669,cat,cat,c10,0993_cop_s01_c10_cat_10_n02123159_5945.png
subject-01,1,994,0.526953935623169,clock,clock,c30,0994_cop_s01_c30_clock_10_n03196217_4537.png
subject-01,1,995,0.587312936782837,cat,bear,c03,0995_cop_s01_c03_bear_10_n02132136_10309.png
subject-01,1,996,0.571199893951416,bear,bear,c100,0996_cop_s01_c100_bear_10_n02133161_223.png
subject-01,1,997,0.88331413269043,bicycle,bicycle,c15,0997_cop_s01_c15_bicycle_10_n02835271_26158.png
subject-01,1,998,0.789155006408691,keyboard,keyboard,c10,0998_cop_s01_c10_keyboard_10_n04505470_4061.png
subject-01,1,999,0.603600978851318,boat,dog,c01,0999_cop_s01_c01_dog_10_n02110627_20194.png
subject-01,1,1000,1.09977698326111,knife,knife,c10,1000_cop_s01_c10_knife_10_n03041632_16020.png
subject-01,1,1001,0.478457927703857,cat,cat,c10,1001_cop_s01_c10_cat_10_n02123159_4856.png
subject-01,1,1002,1.19013786315918,boat,bottle,c03,1002_cop_s01_c03_bottle_10_n04560804_13157.png
subject-01,1,1003,0.796016216278076,chair,chair,c100,1003_cop_s01_c100_chair_10_n04099969_3929.png
subject-01,1,1004,1.37830901145935,airplane,clock,c03,1004_cop_s01_c03_clock_10_n04548280_750.png
subject-01,1,1005,1.10856914520264,knife,bicycle,c50,1005_cop_s01_c50_bicycle_10_n02835271_25718.png
subject-01,1,1006,0.515017986297607,oven,oven,c50,1006_cop_s01_c50_oven_10_n04111531_15852.png
subject-01,1,1007,0.7133469581604,truck,truck,c30,1007_cop_s01_c30_truck_10_n03417042_3659.png
subject-01,1,1008,0.69008207321167,cat,bird,c01,1008_cop_s01_c01_bird_10_n01601694_10802.png
subject-01,1,1009,0.541493892669678,cat,cat,c50,1009_cop_s01_c50_cat_10_n02123045_455.png
subject-01,1,1010,0.601809978485107,car,bottle,c01,1010_cop_s01_c01_bottle_10_n04591713_5364.png
subject-01,1,1011,0.868205070495605,bird,oven,c01,1011_cop_s01_c01_oven_10_n04111531_21248.png
subject-01,1,1012,0.782799959182739,elephant,elephant,c05,1012_cop_s01_c05_elephant_10_n02504013_7005.png
subject-01,1,1013,0.689203977584839,keyboard,bottle,c01,1013_cop_s01_c01_bottle_10_n02823428_8696.png
subject-01,1,1014,0.873603820800781,bear,bear,c15,1014_cop_s01_c15_bear_10_n02134418_1259.png
subject-01,1,1015,0.793686151504517,boat,car,c03,1015_cop_s01_c03_car_10_n04285008_8213.png
subject-01,1,1016,0.516592025756836,oven,oven,c30,1016_cop_s01_c30_oven_10_n04111531_14269.png
subject-01,1,1017,1.16819596290588,chair,chair,c05,1017_cop_s01_c05_chair_10_n02791124_5939.png
subject-01,1,1018,0.642723083496094,truck,truck,c100,1018_cop_s01_c100_truck_10_n03796401_8100.png
subject-01,1,1019,0.527199029922485,bottle,bottle,c30,1019_cop_s01_c30_bottle_10_n03983396_6287.png
subject-01,1,1020,0.770630121231079,chair,chair,c05,1020_cop_s01_c05_chair_10_n02791124_4519.png
subject-01,1,1021,0.555787086486816,car,car,c10,1021_cop_s01_c10_car_10_n04285008_1619.png
subject-01,1,1022,0.799668073654175,airplane,airplane,c10,1022_cop_s01_c10_airplane_10_n02690373_4115.png
subject-01,1,1023,0.442934036254883,oven,oven,c30,1023_cop_s01_c30_oven_10_n04111531_9692.png
subject-01,1,1024,1.11762404441833,bottle,car,c01,1024_cop_s01_c01_car_10_n03100240_5825.png
subject-01,1,1025,0.590778112411499,bicycle,bicycle,c100,1025_cop_s01_c100_bicycle_10_n02835271_4887.png
subject-01,1,1026,1.04343008995056,bicycle,bicycle,c100,1026_cop_s01_c100_bicycle_10_n03792782_1363.png
subject-01,1,1027,0.543830871582031,cat,elephant,c01,1027_cop_s01_c01_elephant_10_n02504013_7351.png
subject-01,1,1028,0.856093883514404,knife,knife,c30,1028_cop_s01_c30_knife_10_n03041632_77022.png
subject-01,1,1029,1.03274607658386,bicycle,cat,c30,1029_cop_s01_c30_cat_10_n02125311_5717.png
subject-01,1,1030,0.723095893859863,car,elephant,c03,1030_cop_s01_c03_elephant_10_n02504013_3028.png
subject-01,1,1031,0.545428991317749,bicycle,bicycle,c30,1031_cop_s01_c30_bicycle_10_n03792782_19253.png
subject-01,1,1032,0.721781015396118,truck,truck,c50,1032_cop_s01_c50_truck_10_n04467665_7110.png
subject-01,1,1033,0.91211199760437,clock,clock,c50,1033_cop_s01_c50_clock_10_n02708093_7081.png
subject-01,1,1034,0.788851976394653,cat,bear,c15,1034_cop_s01_c15_bear_10_n02134084_4859.png
subject-01,1,1035,0.717005968093872,chair,chair,c15,1035_cop_s01_c15_chair_10_n04429376_43275.png
