subj,session,trial,rt,object_response,category,condition,imagename
subject-08,1,1,1.14483690261841,cat,chair,0,0001_scg_s08_0_chair_00_chair5-cat3.png
subject-08,1,2,1.11301898956299,bottle,bottle,0,0002_scg_s08_0_bottle_00_bottle6-oven3.png
subject-08,1,3,0.926375865936279,bicycle,bicycle,0,0003_scg_s08_0_bicycle_00_bicycle1-knife3.png
subject-08,1,4,1.02453589439392,bird,bird,0,0004_scg_s08_0_bird_00_bird2-bird2.png
subject-08,1,5,0.695008039474487,bicycle,bicycle,0,0005_scg_s08_0_bicycle_00_bicycle7-truck3.png
subject-08,1,6,0.906390905380249,car,car,0,0006_scg_s08_0_car_00_car10-bicycle2.png
subject-08,1,7,1.13032197952271,bicycle,bird,0,0007_scg_s08_0_bird_00_bird6-truck2.png
subject-08,1,8,1.45801401138306,keyboard,car,0,0008_scg_s08_0_car_00_car9-bird1.png
subject-08,1,9,1.30168509483337,chair,knife,0,0009_scg_s08_0_knife_00_knife7-chair2.png
subject-08,1,10,1.50034689903259,bottle,boat,0,0010_scg_s08_0_boat_00_boat6-bear1.png
subject-08,1,11,1.19146394729614,knife,boat,0,0011_scg_s08_0_boat_00_boat2-bear3.png
subject-08,1,12,1.11317300796509,knife,knife,0,0012_scg_s08_0_knife_00_knife1-car3.png
subject-08,1,13,1.50033688545227,oven,airplane,0,0013_scg_s08_0_airplane_00_airplane3-dog1.png
subject-08,1,14,0.991822004318237,car,car,0,0014_scg_s08_0_car_00_car5-bear3.png
subject-08,1,15,0.806277990341187,bottle,knife,0,0015_scg_s08_0_knife_00_knife2-bottle2.png
subject-08,1,16,0.935465097427368,keyboard,keyboard,0,0016_scg_s08_0_keyboard_00_keyboard4-keyboard2.png
subject-08,1,17,1.07940888404846,clock,clock,0,0017_scg_s08_0_clock_00_clock8-oven3.png
subject-08,1,18,0.755446195602417,chair,chair,0,0018_scg_s08_0_chair_00_chair8-bicycle3.png
subject-08,1,19,0.990411996841431,keyboard,keyboard,0,0019_scg_s08_0_keyboard_00_keyboard1-clock1.png
subject-08,1,20,0.673693895339966,boat,boat,0,0020_scg_s08_0_boat_00_boat1-bicycle2.png
subject-08,1,21,1.00998187065125,car,dog,0,0021_scg_s08_0_dog_00_dog4-airplane3.png
subject-08,1,22,1.06863689422607,chair,chair,0,0022_scg_s08_0_chair_00_chair5-car1.png
subject-08,1,23,0.836461067199707,cat,cat,0,0023_scg_s08_0_cat_00_cat8-bicycle3.png
subject-08,1,24,0.688081979751587,clock,clock,0,0024_scg_s08_0_clock_00_clock5-oven1.png
subject-08,1,25,NaN,na,airplane,0,0025_scg_s08_0_airplane_00_airplane3-car1.png
subject-08,1,26,0.837031126022339,clock,clock,0,0026_scg_s08_0_clock_00_clock9-bird2.png
subject-08,1,27,1.23543190956116,car,car,0,0027_scg_s08_0_car_00_car7-keyboard3.png
subject-08,1,28,1.05301904678345,truck,truck,0,0028_scg_s08_0_truck_00_truck7-chair2.png
subject-08,1,29,0.828999996185303,clock,clock,0,0029_scg_s08_0_clock_00_clock8-truck2.png
subject-08,1,30,0.86643385887146,bird,bird,0,0030_scg_s08_0_bird_00_bird8-knife2.png
subject-08,1,31,0.893891096115112,car,car,0,0031_scg_s08_0_car_00_car9-cat1.png
subject-08,1,32,0.983631134033203,airplane,airplane,0,0032_scg_s08_0_airplane_00_airplane7-keyboard1.png
subject-08,1,33,1.10545206069946,dog,dog,0,0033_scg_s08_0_dog_00_dog1-bear1.png
subject-08,1,34,1.01925420761108,airplane,airplane,0,0034_scg_s08_0_airplane_00_airplane1-elephant1.png
subject-08,1,35,0.878861904144287,keyboard,keyboard,0,0035_scg_s08_0_keyboard_00_keyboard10-boat2.png
subject-08,1,36,0.76742696762085,truck,truck,0,0036_scg_s08_0_truck_00_truck5-car1.png
subject-08,1,37,1.00577187538147,truck,truck,0,0037_scg_s08_0_truck_00_truck5-cat3.png
subject-08,1,38,1.09596991539001,dog,dog,0,0038_scg_s08_0_dog_00_dog4-cat3.png
subject-08,1,39,0.704328060150146,knife,knife,0,0039_scg_s08_0_knife_00_knife8-bicycle1.png
subject-08,1,40,0.932374954223633,car,car,0,0040_scg_s08_0_car_00_car6-knife1.png
subject-08,1,41,0.870137929916382,truck,truck,0,0041_scg_s08_0_truck_00_truck3-knife2.png
subject-08,1,42,0.792442083358765,bird,bird,0,0042_scg_s08_0_bird_00_bird1-clock3.png
subject-08,1,43,1.27373600006104,bottle,bottle,0,0043_scg_s08_0_bottle_00_bottle7-elephant2.png
subject-08,1,44,1.21710300445557,knife,elephant,0,0044_scg_s08_0_elephant_00_elephant10-elephant1.png
subject-08,1,45,0.800849914550781,keyboard,keyboard,0,0045_scg_s08_0_keyboard_00_keyboard6-chair1.png
subject-08,1,46,0.890312194824219,bear,bear,0,0046_scg_s08_0_bear_00_bear3-car2.png
subject-08,1,47,0.828161001205444,keyboard,oven,0,0047_scg_s08_0_oven_00_oven8-keyboard3.png
subject-08,1,48,0.971542119979858,oven,knife,0,0048_scg_s08_0_knife_00_knife4-airplane3.png
subject-08,1,49,0.799063920974731,bird,bird,0,0049_scg_s08_0_bird_00_bird5-dog2.png
subject-08,1,50,1.00473594665527,bird,bird,0,0050_scg_s08_0_bird_00_bird2-car3.png
subject-08,1,51,0.756223917007446,knife,knife,0,0051_scg_s08_0_knife_00_knife7-airplane3.png
subject-08,1,52,0.7864670753479,clock,clock,0,0052_scg_s08_0_clock_00_clock7-keyboard2.png
subject-08,1,53,0.745972156524658,clock,clock,0,0053_scg_s08_0_clock_00_clock10-knife3.png
subject-08,1,54,0.940423011779785,bear,bear,0,0054_scg_s08_0_bear_00_bear4-clock3.png
subject-08,1,55,0.85377311706543,oven,oven,0,0055_scg_s08_0_oven_00_oven5-bicycle1.png
subject-08,1,56,1.21408200263977,airplane,airplane,0,0056_scg_s08_0_airplane_00_airplane4-car1.png
subject-08,1,57,0.871730089187622,clock,clock,0,0057_scg_s08_0_clock_00_clock7-car1.png
subject-08,1,58,0.763423919677734,chair,chair,0,0058_scg_s08_0_chair_00_chair7-chair1.png
subject-08,1,59,0.861852169036865,elephant,elephant,0,0059_scg_s08_0_elephant_00_elephant7-clock2.png
subject-08,1,60,1.25057601928711,knife,knife,0,0060_scg_s08_0_knife_00_knife6-knife1.png
subject-08,1,61,1.24861478805542,truck,truck,0,0061_scg_s08_0_truck_00_truck5-truck1.png
subject-08,1,62,0.876028060913086,bottle,bottle,0,0062_scg_s08_0_bottle_00_bottle1-dog2.png
subject-08,1,63,0.775686979293823,bicycle,bicycle,0,0063_scg_s08_0_bicycle_00_bicycle1-chair1.png
subject-08,1,64,1.09484696388245,truck,truck,0,0064_scg_s08_0_truck_00_truck4-bear1.png
subject-08,1,65,1.11691093444824,car,car,0,0065_scg_s08_0_car_00_car7-boat3.png
subject-08,1,66,1.01441812515259,boat,cat,0,0066_scg_s08_0_cat_00_cat4-truck3.png
subject-08,1,67,0.974291086196899,truck,car,0,0067_scg_s08_0_car_00_car5-knife2.png
subject-08,1,68,1.50047183036804,bird,chair,0,0068_scg_s08_0_chair_00_chair4-keyboard2.png
subject-08,1,69,1.50000810623169,bicycle,cat,0,0069_scg_s08_0_cat_00_cat4-car2.png
subject-08,1,70,0.999636888504028,knife,knife,0,0070_scg_s08_0_knife_00_knife8-boat1.png
subject-08,1,71,0.789882898330688,bear,bear,0,0071_scg_s08_0_bear_00_bear9-bottle2.png
subject-08,1,72,0.825325965881348,bear,bear,0,0072_scg_s08_0_bear_00_bear5-oven3.png
subject-08,1,73,0.917474985122681,bottle,bottle,0,0073_scg_s08_0_bottle_00_bottle1-keyboard3.png
subject-08,1,74,0.874981164932251,boat,boat,0,0074_scg_s08_0_boat_00_boat5-car3.png
subject-08,1,75,0.596621036529541,clock,clock,0,0075_scg_s08_0_clock_00_clock4-airplane1.png
subject-08,1,76,1.30812621116638,bird,cat,0,0076_scg_s08_0_cat_00_cat4-knife1.png
subject-08,1,77,0.892311096191406,bottle,bottle,0,0077_scg_s08_0_bottle_00_bottle3-chair3.png
subject-08,1,78,0.965640068054199,bear,bear,0,0078_scg_s08_0_bear_00_bear8-knife3.png
subject-08,1,79,0.663159132003784,bicycle,bicycle,0,0079_scg_s08_0_bicycle_00_bicycle1-elephant2.png
subject-08,1,80,0.676799058914185,clock,clock,0,0080_scg_s08_0_clock_00_clock1-clock2.png
subject-08,1,81,0.70441198348999,cat,cat,0,0081_scg_s08_0_cat_00_cat5-bottle1.png
subject-08,1,82,1.15538311004639,oven,keyboard,0,0082_scg_s08_0_keyboard_00_keyboard2-elephant1.png
subject-08,1,83,0.753362894058228,car,car,0,0083_scg_s08_0_car_00_car2-chair1.png
subject-08,1,84,0.642232894897461,chair,chair,0,0084_scg_s08_0_chair_00_chair3-airplane2.png
subject-08,1,85,1.11008810997009,knife,knife,0,0085_scg_s08_0_knife_00_knife5-cat2.png
subject-08,1,86,1.50008320808411,knife,airplane,0,0086_scg_s08_0_airplane_00_airplane9-keyboard2.png
subject-08,1,87,0.897976160049438,dog,dog,0,0087_scg_s08_0_dog_00_dog4-clock1.png
subject-08,1,88,0.881862163543701,cat,cat,0,0088_scg_s08_0_cat_00_cat1-airplane1.png
subject-08,1,89,0.679240942001343,car,car,0,0089_scg_s08_0_car_00_car8-knife2.png
subject-08,1,90,0.977281093597412,bird,bird,0,0090_scg_s08_0_bird_00_bird10-bicycle1.png
subject-08,1,91,0.928680896759033,keyboard,keyboard,0,0091_scg_s08_0_keyboard_00_keyboard6-bear2.png
subject-08,1,92,0.734522104263306,bear,bear,0,0092_scg_s08_0_bear_00_bear5-boat2.png
subject-08,1,93,0.816437959671021,chair,chair,0,0093_scg_s08_0_chair_00_chair7-car2.png
subject-08,1,94,0.759530067443848,bicycle,bicycle,0,0094_scg_s08_0_bicycle_00_bicycle1-clock3.png
subject-08,1,95,1.31114888191223,knife,airplane,0,0095_scg_s08_0_airplane_00_airplane4-elephant1.png
subject-08,1,96,0.763149976730347,cat,airplane,0,0096_scg_s08_0_airplane_00_airplane4-bear3.png
subject-08,1,97,1.11539483070374,car,car,0,0097_scg_s08_0_car_00_car3-truck1.png
subject-08,1,98,0.93713903427124,bird,bird,0,0098_scg_s08_0_bird_00_bird5-chair1.png
subject-08,1,99,1.01359891891479,keyboard,keyboard,0,0099_scg_s08_0_keyboard_00_keyboard9-elephant2.png
subject-08,1,100,1.41681694984436,bicycle,dog,0,0100_scg_s08_0_dog_00_dog7-knife3.png
subject-08,1,101,0.976117134094238,oven,clock,0,0101_scg_s08_0_clock_00_clock10-oven2.png
subject-08,1,102,1.31148290634155,knife,knife,0,0102_scg_s08_0_knife_00_knife9-elephant2.png
subject-08,1,103,1.50009512901306,bottle,bottle,0,0103_scg_s08_0_bottle_00_bottle7-airplane3.png
subject-08,1,104,1.00602602958679,elephant,elephant,0,0104_scg_s08_0_elephant_00_elephant7-bear3.png
subject-08,1,105,NaN,na,boat,0,0105_scg_s08_0_boat_00_boat6-clock2.png
subject-08,1,106,0.767670154571533,bicycle,bicycle,0,0106_scg_s08_0_bicycle_00_bicycle5-chair2.png
subject-08,1,107,0.727195024490356,elephant,elephant,0,0107_scg_s08_0_elephant_00_elephant3-oven1.png
subject-08,1,108,1.24397110939026,elephant,elephant,0,0108_scg_s08_0_elephant_00_elephant8-knife2.png
subject-08,1,109,0.820248126983643,dog,dog,0,0109_scg_s08_0_dog_00_dog7-bird3.png
subject-08,1,110,0.708566904067993,bicycle,bicycle,0,0110_scg_s08_0_bicycle_00_bicycle5-bear1.png
subject-08,1,111,1.05303907394409,oven,oven,0,0111_scg_s08_0_oven_00_oven10-cat2.png
subject-08,1,112,0.736832857131958,clock,clock,0,0112_scg_s08_0_clock_00_clock6-car2.png
subject-08,1,113,0.934170007705688,car,boat,0,0113_scg_s08_0_boat_00_boat1-car2.png
subject-08,1,114,1.06146097183228,car,car,0,0114_scg_s08_0_car_00_car3-dog2.png
subject-08,1,115,0.783330917358398,keyboard,keyboard,0,0115_scg_s08_0_keyboard_00_keyboard10-keyboard1.png
subject-08,1,116,0.827539920806885,elephant,elephant,0,0116_scg_s08_0_elephant_00_elephant9-dog3.png
subject-08,1,117,1.43425107002258,elephant,elephant,0,0117_scg_s08_0_elephant_00_elephant2-clock1.png
subject-08,1,118,1.17862820625305,boat,airplane,0,0118_scg_s08_0_airplane_00_airplane5-chair3.png
subject-08,1,119,0.892543077468872,dog,dog,0,0119_scg_s08_0_dog_00_dog2-dog3.png
subject-08,1,120,1.24365711212158,dog,knife,0,0120_scg_s08_0_knife_00_knife7-bird3.png
subject-08,1,121,1.11165499687195,elephant,bear,0,0121_scg_s08_0_bear_00_bear10-elephant1.png
subject-08,1,122,0.793090105056763,oven,oven,0,0122_scg_s08_0_oven_00_oven10-oven3.png
subject-08,1,123,0.598916053771973,cat,cat,0,0123_scg_s08_0_cat_00_cat3-bear2.png
subject-08,1,124,0.942806959152222,chair,keyboard,0,0124_scg_s08_0_keyboard_00_keyboard7-chair3.png
subject-08,1,125,0.609399080276489,clock,clock,0,0125_scg_s08_0_clock_00_clock3-car2.png
subject-08,1,126,1.14294695854187,truck,truck,0,0126_scg_s08_0_truck_00_truck2-bird2.png
subject-08,1,127,0.810944080352783,boat,boat,0,0127_scg_s08_0_boat_00_boat2-keyboard1.png
subject-08,1,128,0.875161170959473,elephant,elephant,0,0128_scg_s08_0_elephant_00_elephant9-airplane2.png
subject-08,1,129,0.896963834762573,bird,bird,0,0129_scg_s08_0_bird_00_bird6-airplane2.png
subject-08,1,130,1.14156293869019,car,car,0,0130_scg_s08_0_car_00_car10-bottle3.png
subject-08,1,131,0.684912919998169,oven,oven,0,0131_scg_s08_0_oven_00_oven3-airplane1.png
subject-08,1,132,0.952178955078125,knife,knife,0,0132_scg_s08_0_knife_00_knife3-keyboard3.png
subject-08,1,133,0.820991992950439,oven,oven,0,0133_scg_s08_0_oven_00_oven2-bicycle1.png
subject-08,1,134,0.756370067596436,chair,chair,0,0134_scg_s08_0_chair_00_chair1-truck3.png
subject-08,1,135,1.10031199455261,bottle,bottle,0,0135_scg_s08_0_bottle_00_bottle2-knife3.png
subject-08,1,136,1.05209589004517,bear,bear,0,0136_scg_s08_0_bear_00_bear4-car3.png
subject-08,1,137,0.606016159057617,oven,oven,0,0137_scg_s08_0_oven_00_oven4-elephant3.png
subject-08,1,138,1.17756605148315,truck,truck,0,0138_scg_s08_0_truck_00_truck10-clock1.png
subject-08,1,139,0.769256830215454,clock,clock,0,0139_scg_s08_0_clock_00_clock6-chair3.png
subject-08,1,140,0.988647937774658,truck,truck,0,0140_scg_s08_0_truck_00_truck10-bicycle1.png
subject-08,1,141,1.14784908294678,bird,bird,0,0141_scg_s08_0_bird_00_bird6-elephant2.png
subject-08,1,142,1.13799500465393,chair,keyboard,0,0142_scg_s08_0_keyboard_00_keyboard4-oven2.png
subject-08,1,143,1.50041699409485,bird,airplane,0,0143_scg_s08_0_airplane_00_airplane4-cat3.png
subject-08,1,144,1.38356709480286,bird,boat,0,0144_scg_s08_0_boat_00_boat1-keyboard3.png
subject-08,1,145,1.18724203109741,chair,boat,0,0145_scg_s08_0_boat_00_boat3-airplane2.png
subject-08,1,146,0.708947896957397,oven,oven,0,0146_scg_s08_0_oven_00_oven4-bicycle2.png
subject-08,1,147,0.65503191947937,bear,bear,0,0147_scg_s08_0_bear_00_bear1-bear3.png
subject-08,1,148,1.50024795532227,cat,boat,0,0148_scg_s08_0_boat_00_boat6-elephant2.png
subject-08,1,149,1.47818493843079,bird,bird,0,0149_scg_s08_0_bird_00_bird5-bird1.png
subject-08,1,150,0.886123895645142,bear,bottle,0,0150_scg_s08_0_bottle_00_bottle6-dog3.png
subject-08,1,151,0.812659025192261,bear,bear,0,0151_scg_s08_0_bear_00_bear10-chair2.png
subject-08,1,152,0.664454936981201,bottle,bottle,0,0152_scg_s08_0_bottle_00_bottle8-elephant3.png
subject-08,1,153,0.721333026885986,airplane,airplane,0,0153_scg_s08_0_airplane_00_airplane6-knife1.png
subject-08,1,154,1.0243980884552,truck,truck,0,0154_scg_s08_0_truck_00_truck8-cat2.png
subject-08,1,155,1.09219789505005,bear,bear,0,0155_scg_s08_0_bear_00_bear7-bear2.png
subject-08,1,156,0.9147629737854,bear,bear,0,0156_scg_s08_0_bear_00_bear2-knife2.png
subject-08,1,157,0.774823904037476,chair,chair,0,0157_scg_s08_0_chair_00_chair3-car3.png
subject-08,1,158,1.36966395378113,bird,cat,0,0158_scg_s08_0_cat_00_cat10-bicycle1.png
subject-08,1,159,0.992000818252563,chair,chair,0,0159_scg_s08_0_chair_00_chair10-oven1.png
subject-08,1,160,0.919792175292969,truck,truck,0,0160_scg_s08_0_truck_00_truck4-airplane3.png
subject-08,1,161,0.724781036376953,keyboard,keyboard,0,0161_scg_s08_0_keyboard_00_keyboard1-bear2.png
subject-08,1,162,0.806708812713623,oven,oven,0,0162_scg_s08_0_oven_00_oven6-truck1.png
subject-08,1,163,0.96056604385376,chair,boat,0,0163_scg_s08_0_boat_00_boat1-chair3.png
subject-08,1,164,1.28189396858215,clock,clock,0,0164_scg_s08_0_clock_00_clock6-bird3.png
subject-08,1,165,0.641784191131592,bird,bird,0,0165_scg_s08_0_bird_00_bird10-bear2.png
subject-08,1,166,0.715653896331787,bird,bird,0,0166_scg_s08_0_bird_00_bird4-dog3.png
subject-08,1,167,0.718938112258911,chair,chair,0,0167_scg_s08_0_chair_00_chair8-airplane1.png
subject-08,1,168,0.891836881637573,car,car,0,0168_scg_s08_0_car_00_car2-bird3.png
subject-08,1,169,1.14420104026794,truck,truck,0,0169_scg_s08_0_truck_00_truck3-bird2.png
subject-08,1,170,0.765666007995605,bottle,bottle,0,0170_scg_s08_0_bottle_00_bottle5-knife1.png
subject-08,1,171,1.50050592422485,car,car,0,0171_scg_s08_0_car_00_car2-car3.png
subject-08,1,172,1.38882303237915,knife,clock,0,0172_scg_s08_0_clock_00_clock1-elephant2.png
subject-08,1,173,0.918904066085815,elephant,elephant,0,0173_scg_s08_0_elephant_00_elephant5-bottle2.png
subject-08,1,174,0.930635929107666,dog,dog,0,0174_scg_s08_0_dog_00_dog1-dog2.png
subject-08,1,175,0.811517000198364,cat,cat,0,0175_scg_s08_0_cat_00_cat7-knife2.png
subject-08,1,176,0.733507871627808,elephant,elephant,0,0176_scg_s08_0_elephant_00_elephant7-airplane3.png
subject-08,1,177,0.653755903244019,boat,boat,0,0177_scg_s08_0_boat_00_boat9-bird1.png
subject-08,1,178,0.921504020690918,car,car,0,0178_scg_s08_0_car_00_car10-elephant2.png
subject-08,1,179,0.717030048370361,keyboard,keyboard,0,0179_scg_s08_0_keyboard_00_keyboard6-bicycle1.png
subject-08,1,180,0.859292030334473,keyboard,keyboard,0,0180_scg_s08_0_keyboard_00_keyboard7-dog1.png
subject-08,1,181,1.05450201034546,bird,bird,0,0181_scg_s08_0_bird_00_bird2-airplane3.png
subject-08,1,182,1.44960594177246,elephant,elephant,0,0182_scg_s08_0_elephant_00_elephant6-cat2.png
subject-08,1,183,0.693273067474365,bottle,bottle,0,0183_scg_s08_0_bottle_00_bottle7-clock1.png
subject-08,1,184,1.08264303207397,cat,airplane,0,0184_scg_s08_0_airplane_00_airplane10-elephant1.png
subject-08,1,185,0.672874927520752,cat,cat,0,0185_scg_s08_0_cat_00_cat7-airplane2.png
subject-08,1,186,0.941079139709473,bird,bird,0,0186_scg_s08_0_bird_00_bird3-truck3.png
subject-08,1,187,1.31048607826233,keyboard,keyboard,0,0187_scg_s08_0_keyboard_00_keyboard3-elephant2.png
subject-08,1,188,0.78414511680603,keyboard,keyboard,0,0188_scg_s08_0_keyboard_00_keyboard5-bird3.png
subject-08,1,189,1.21157908439636,dog,bear,0,0189_scg_s08_0_bear_00_bear9-keyboard3.png
subject-08,1,190,0.714840888977051,cat,cat,0,0190_scg_s08_0_cat_00_cat1-chair2.png
subject-08,1,191,0.69677996635437,bottle,bottle,0,0191_scg_s08_0_bottle_00_bottle6-knife3.png
subject-08,1,192,0.795095920562744,bird,bird,0,0192_scg_s08_0_bird_00_bird5-keyboard2.png
subject-08,1,193,0.616343975067139,boat,boat,0,0193_scg_s08_0_boat_00_boat9-airplane2.png
subject-08,1,194,0.866559982299805,dog,dog,0,0194_scg_s08_0_dog_00_dog3-keyboard1.png
subject-08,1,195,1.33225703239441,bottle,bottle,0,0195_scg_s08_0_bottle_00_bottle5-chair1.png
subject-08,1,196,0.820157766342163,dog,bear,0,0196_scg_s08_0_bear_00_bear6-bear1.png
subject-08,1,197,1.10152697563171,car,car,0,0197_scg_s08_0_car_00_car7-clock1.png
subject-08,1,198,0.907846212387085,airplane,airplane,0,0198_scg_s08_0_airplane_00_airplane3-oven1.png
subject-08,1,199,0.874414920806885,dog,dog,0,0199_scg_s08_0_dog_00_dog10-bottle1.png
subject-08,1,200,1.26404809951782,car,car,0,0200_scg_s08_0_car_00_car4-bottle1.png
subject-08,1,201,0.696170091629028,bottle,bottle,0,0201_scg_s08_0_bottle_00_bottle1-bear1.png
subject-08,1,202,0.763691902160645,keyboard,oven,0,0202_scg_s08_0_oven_00_oven1-bird3.png
subject-08,1,203,0.694333076477051,airplane,airplane,0,0203_scg_s08_0_airplane_00_airplane6-bottle2.png
subject-08,1,204,0.981760025024414,bird,bird,0,0204_scg_s08_0_bird_00_bird1-elephant2.png
subject-08,1,205,0.841683864593506,knife,knife,0,0205_scg_s08_0_knife_00_knife8-bottle3.png
subject-08,1,206,1.12320899963379,elephant,elephant,0,0206_scg_s08_0_elephant_00_elephant6-dog2.png
subject-08,1,207,1.01899409294128,oven,oven,0,0207_scg_s08_0_oven_00_oven6-bird1.png
subject-08,1,208,1.032958984375,bird,bird,0,0208_scg_s08_0_bird_00_bird1-chair2.png
subject-08,1,209,0.77305793762207,car,car,0,0209_scg_s08_0_car_00_car4-elephant3.png
subject-08,1,210,1.23868417739868,car,car,0,0210_scg_s08_0_car_00_car4-boat1.png
subject-08,1,211,0.928615093231201,bear,bear,0,0211_scg_s08_0_bear_00_bear7-oven3.png
subject-08,1,212,0.725803852081299,clock,clock,0,0212_scg_s08_0_clock_00_clock2-elephant2.png
subject-08,1,213,0.793620109558105,boat,boat,0,0213_scg_s08_0_boat_00_boat9-bear3.png
subject-08,1,214,0.767918109893799,elephant,elephant,0,0214_scg_s08_0_elephant_00_elephant4-oven1.png
subject-08,1,215,0.611907958984375,clock,clock,0,0215_scg_s08_0_clock_00_clock6-clock2.png
subject-08,1,216,1.05320191383362,truck,truck,0,0216_scg_s08_0_truck_00_truck9-elephant1.png
subject-08,1,217,0.959527969360352,bicycle,bicycle,0,0217_scg_s08_0_bicycle_00_bicycle3-oven3.png
subject-08,1,218,1.04044103622437,oven,oven,0,0218_scg_s08_0_oven_00_oven3-cat2.png
subject-08,1,219,0.674782037734985,chair,chair,0,0219_scg_s08_0_chair_00_chair9-bicycle3.png
subject-08,1,220,0.778331995010376,keyboard,oven,0,0220_scg_s08_0_oven_00_oven1-cat1.png
subject-08,1,221,1.50002694129944,keyboard,keyboard,0,0221_scg_s08_0_keyboard_00_keyboard5-knife2.png
subject-08,1,222,1.04220700263977,dog,dog,0,0222_scg_s08_0_dog_00_dog3-boat1.png
subject-08,1,223,0.755496025085449,keyboard,keyboard,0,0223_scg_s08_0_keyboard_00_keyboard1-chair2.png
subject-08,1,224,0.859265089035034,bird,airplane,0,0224_scg_s08_0_airplane_00_airplane3-cat1.png
subject-08,1,225,0.752107858657837,car,car,0,0225_scg_s08_0_car_00_car4-clock1.png
subject-08,1,226,0.801438093185425,truck,truck,0,0226_scg_s08_0_truck_00_truck1-bicycle3.png
subject-08,1,227,0.645147085189819,cat,cat,0,0227_scg_s08_0_cat_00_cat6-clock3.png
subject-08,1,228,1.44889497756958,airplane,airplane,0,0228_scg_s08_0_airplane_00_airplane4-dog2.png
subject-08,1,229,0.778704166412354,bird,bird,0,0229_scg_s08_0_bird_00_bird5-bear3.png
subject-08,1,230,0.84407901763916,keyboard,keyboard,0,0230_scg_s08_0_keyboard_00_keyboard3-car2.png
subject-08,1,231,0.779597997665405,keyboard,keyboard,0,0231_scg_s08_0_keyboard_00_keyboard5-oven2.png
subject-08,1,232,1.19211792945862,bottle,bottle,0,0232_scg_s08_0_bottle_00_bottle6-bird1.png
subject-08,1,233,0.973657846450806,bear,bear,0,0233_scg_s08_0_bear_00_bear3-cat1.png
subject-08,1,234,1.04748296737671,boat,airplane,0,0234_scg_s08_0_airplane_00_airplane9-car2.png
subject-08,1,235,0.83168888092041,elephant,elephant,0,0235_scg_s08_0_elephant_00_elephant5-bear2.png
subject-08,1,236,0.775919198989868,cat,cat,0,0236_scg_s08_0_cat_00_cat1-dog1.png
subject-08,1,237,1.10983204841614,bottle,bottle,0,0237_scg_s08_0_bottle_00_bottle3-boat3.png
subject-08,1,238,0.561105966567993,boat,boat,0,0238_scg_s08_0_boat_00_boat2-airplane1.png
subject-08,1,239,0.796839952468872,car,car,0,0239_scg_s08_0_car_00_car8-clock2.png
subject-08,1,240,0.840673208236694,boat,boat,0,0240_scg_s08_0_boat_00_boat7-elephant3.png
subject-08,1,241,0.707190990447998,dog,dog,0,0241_scg_s08_0_dog_00_dog5-car3.png
subject-08,1,242,1.1970648765564,cat,cat,0,0242_scg_s08_0_cat_00_cat4-keyboard2.png
subject-08,1,243,0.800198078155518,bird,bird,0,0243_scg_s08_0_bird_00_bird7-bird2.png
subject-08,1,244,0.902732849121094,bottle,bottle,0,0244_scg_s08_0_bottle_00_bottle1-bird3.png
subject-08,1,245,0.973850965499878,chair,bird,0,0245_scg_s08_0_bird_00_bird3-oven1.png
subject-08,1,246,0.885177135467529,bear,bear,0,0246_scg_s08_0_bear_00_bear7-clock1.png
subject-08,1,247,1.07569479942322,truck,truck,0,0247_scg_s08_0_truck_00_truck1-car3.png
subject-08,1,248,0.679602146148682,cat,cat,0,0248_scg_s08_0_cat_00_cat10-airplane3.png
subject-08,1,249,0.87735390663147,elephant,elephant,0,0249_scg_s08_0_elephant_00_elephant4-clock3.png
subject-08,1,250,0.766999006271362,bicycle,bicycle,0,0250_scg_s08_0_bicycle_00_bicycle9-bird3.png
subject-08,1,251,1.14071702957153,elephant,bear,0,0251_scg_s08_0_bear_00_bear10-bear2.png
subject-08,1,252,0.706285953521729,keyboard,keyboard,0,0252_scg_s08_0_keyboard_00_keyboard8-dog3.png
subject-08,1,253,1.06366682052612,knife,knife,0,0253_scg_s08_0_knife_00_knife1-elephant1.png
subject-08,1,254,0.783036947250366,dog,dog,0,0254_scg_s08_0_dog_00_dog4-bicycle1.png
subject-08,1,255,0.767643928527832,keyboard,keyboard,0,0255_scg_s08_0_keyboard_00_keyboard1-dog3.png
subject-08,1,256,0.841015100479126,bicycle,bicycle,0,0256_scg_s08_0_bicycle_00_bicycle5-bottle3.png
subject-08,1,257,1.4980149269104,chair,chair,0,0257_scg_s08_0_chair_00_chair7-bird1.png
subject-08,1,258,0.673187017440796,bicycle,bicycle,0,0258_scg_s08_0_bicycle_00_bicycle9-bear1.png
subject-08,1,259,0.806945085525513,knife,knife,0,0259_scg_s08_0_knife_00_knife3-cat1.png
subject-08,1,260,1.50036811828613,truck,truck,0,0260_scg_s08_0_truck_00_truck8-dog3.png
subject-08,1,261,0.799875020980835,bottle,bottle,0,0261_scg_s08_0_bottle_00_bottle3-knife3.png
subject-08,1,262,0.819372892379761,chair,chair,0,0262_scg_s08_0_chair_00_chair9-dog2.png
subject-08,1,263,1.00123906135559,oven,keyboard,0,0263_scg_s08_0_keyboard_00_keyboard1-airplane2.png
subject-08,1,264,0.813235998153687,keyboard,knife,0,0264_scg_s08_0_knife_00_knife7-boat3.png
subject-08,1,265,1.01868200302124,dog,dog,0,0265_scg_s08_0_dog_00_dog3-clock1.png
subject-08,1,266,0.808377981185913,cat,cat,0,0266_scg_s08_0_cat_00_cat10-bear1.png
subject-08,1,267,0.904757976531982,airplane,airplane,0,0267_scg_s08_0_airplane_00_airplane7-boat2.png
subject-08,1,268,1.17040395736694,oven,oven,0,0268_scg_s08_0_oven_00_oven2-bird2.png
subject-08,1,269,0.94390082359314,truck,truck,0,0269_scg_s08_0_truck_00_truck7-truck2.png
subject-08,1,270,0.941835165023804,knife,knife,0,0270_scg_s08_0_knife_00_knife4-clock3.png
subject-08,1,271,0.569156885147095,oven,oven,0,0271_scg_s08_0_oven_00_oven2-car1.png
subject-08,1,272,1.08060884475708,elephant,elephant,0,0272_scg_s08_0_elephant_00_elephant2-truck2.png
subject-08,1,273,1.1301429271698,elephant,elephant,0,0273_scg_s08_0_elephant_00_elephant5-elephant1.png
subject-08,1,274,0.687198162078857,clock,clock,0,0274_scg_s08_0_clock_00_clock6-bicycle1.png
subject-08,1,275,0.976798057556152,boat,airplane,0,0275_scg_s08_0_airplane_00_airplane9-oven2.png
subject-08,1,276,0.81344199180603,airplane,airplane,0,0276_scg_s08_0_airplane_00_airplane10-truck1.png
subject-08,1,277,0.833168983459473,truck,truck,0,0277_scg_s08_0_truck_00_truck7-elephant2.png
subject-08,1,278,0.944571018218994,bear,bear,0,0278_scg_s08_0_bear_00_bear3-bird3.png
subject-08,1,279,0.736897945404053,clock,clock,0,0279_scg_s08_0_clock_00_clock5-chair3.png
subject-08,1,280,0.93314790725708,bottle,bottle,0,0280_scg_s08_0_bottle_00_bottle5-keyboard2.png
subject-08,1,281,0.715025186538696,bicycle,bicycle,0,0281_scg_s08_0_bicycle_00_bicycle10-airplane2.png
subject-08,1,282,0.980613946914673,airplane,airplane,0,0282_scg_s08_0_airplane_00_airplane1-clock1.png
subject-08,1,283,0.73271107673645,bottle,bottle,0,0283_scg_s08_0_bottle_00_bottle6-bottle3.png
subject-08,1,284,0.844022989273071,bear,bear,0,0284_scg_s08_0_bear_00_bear10-keyboard3.png
subject-08,1,285,0.809874057769775,bottle,boat,0,0285_scg_s08_0_boat_00_boat7-boat2.png
subject-08,1,286,0.723990917205811,oven,oven,0,0286_scg_s08_0_oven_00_oven2-dog3.png
subject-08,1,287,0.930445909500122,bear,bear,0,0287_scg_s08_0_bear_00_bear7-truck1.png
subject-08,1,288,0.8718581199646,bottle,cat,0,0288_scg_s08_0_cat_00_cat9-bottle2.png
subject-08,1,289,0.945832967758179,airplane,airplane,0,0289_scg_s08_0_airplane_00_airplane5-bottle3.png
subject-08,1,290,0.965306997299194,bear,bear,0,0290_scg_s08_0_bear_00_bear4-elephant2.png
subject-08,1,291,0.884891986846924,oven,oven,0,0291_scg_s08_0_oven_00_oven4-chair1.png
subject-08,1,292,1.25843620300293,bird,bird,0,0292_scg_s08_0_bird_00_bird10-chair1.png
subject-08,1,293,0.70793604850769,keyboard,keyboard,0,0293_scg_s08_0_keyboard_00_keyboard7-clock3.png
subject-08,1,294,0.760357141494751,bottle,bottle,0,0294_scg_s08_0_bottle_00_bottle5-oven2.png
subject-08,1,295,0.687941074371338,bottle,bottle,0,0295_scg_s08_0_bottle_00_bottle6-boat3.png
subject-08,1,296,1.31635689735413,dog,dog,0,0296_scg_s08_0_dog_00_dog1-bird1.png
subject-08,1,297,0.535658836364746,clock,clock,0,0297_scg_s08_0_clock_00_clock7-cat2.png
subject-08,1,298,1.49387311935425,car,car,0,0298_scg_s08_0_car_00_car5-cat1.png
subject-08,1,299,1.15926504135132,oven,oven,0,0299_scg_s08_0_oven_00_oven9-bear2.png
subject-08,1,300,0.702935934066772,bear,bear,0,0300_scg_s08_0_bear_00_bear5-chair1.png
subject-08,1,301,1.09263110160828,bicycle,dog,0,0301_scg_s08_0_dog_00_dog9-bicycle3.png
subject-08,1,302,0.728353977203369,clock,knife,0,0302_scg_s08_0_knife_00_knife3-clock2.png
subject-08,1,303,1.19869899749756,boat,boat,0,0303_scg_s08_0_boat_00_boat1-elephant3.png
subject-08,1,304,0.872205018997192,bottle,truck,0,0304_scg_s08_0_truck_00_truck6-dog2.png
subject-08,1,305,0.769979000091553,boat,boat,0,0305_scg_s08_0_boat_00_boat5-knife2.png
subject-08,1,306,0.965513944625854,car,car,0,0306_scg_s08_0_car_00_car10-chair1.png
subject-08,1,307,0.801696062088013,oven,oven,0,0307_scg_s08_0_oven_00_oven6-elephant2.png
subject-08,1,308,0.921108961105347,bottle,bottle,0,0308_scg_s08_0_bottle_00_bottle3-bird1.png
subject-08,1,309,1.2788679599762,chair,chair,0,0309_scg_s08_0_chair_00_chair5-keyboard2.png
subject-08,1,310,NaN,na,bottle,0,0310_scg_s08_0_bottle_00_bottle5-truck1.png
subject-08,1,311,1.07161498069763,boat,airplane,0,0311_scg_s08_0_airplane_00_airplane9-truck1.png
subject-08,1,312,0.664885997772217,keyboard,keyboard,0,0312_scg_s08_0_keyboard_00_keyboard9-cat1.png
subject-08,1,313,1.19872212409973,chair,car,0,0313_scg_s08_0_car_00_car6-chair3.png
subject-08,1,314,0.814137935638428,bicycle,bicycle,0,0314_scg_s08_0_bicycle_00_bicycle6-boat2.png
subject-08,1,315,0.80455207824707,elephant,elephant,0,0315_scg_s08_0_elephant_00_elephant1-dog2.png
subject-08,1,316,1.01703596115112,elephant,elephant,0,0316_scg_s08_0_elephant_00_elephant6-car3.png
subject-08,1,317,1.32840490341187,elephant,elephant,0,0317_scg_s08_0_elephant_00_elephant2-elephant3.png
subject-08,1,318,1.0884861946106,bottle,bottle,0,0318_scg_s08_0_bottle_00_bottle7-keyboard2.png
subject-08,1,319,1.09200501441956,chair,airplane,0,0319_scg_s08_0_airplane_00_airplane3-airplane2.png
subject-08,1,320,0.889961004257202,car,car,0,0320_scg_s08_0_car_00_car4-cat3.png
subject-08,1,321,1.00944399833679,car,car,0,0321_scg_s08_0_car_00_car6-bottle1.png
subject-08,1,322,1.38106489181519,knife,knife,0,0322_scg_s08_0_knife_00_knife10-elephant3.png
subject-08,1,323,0.871141910552979,dog,dog,0,0323_scg_s08_0_dog_00_dog4-bottle2.png
subject-08,1,324,0.8766028881073,bear,bear,0,0324_scg_s08_0_bear_00_bear9-dog1.png
subject-08,1,325,0.718256950378418,oven,oven,0,0325_scg_s08_0_oven_00_oven9-oven1.png
subject-08,1,326,0.658850908279419,keyboard,keyboard,0,0326_scg_s08_0_keyboard_00_keyboard2-bicycle3.png
subject-08,1,327,0.970736026763916,bicycle,bicycle,0,0327_scg_s08_0_bicycle_00_bicycle9-bottle1.png
subject-08,1,328,0.898475170135498,keyboard,keyboard,0,0328_scg_s08_0_keyboard_00_keyboard4-clock2.png
subject-08,1,329,0.872422933578491,dog,dog,0,0329_scg_s08_0_dog_00_dog5-elephant1.png
subject-08,1,330,0.816653966903687,cat,cat,0,0330_scg_s08_0_cat_00_cat4-dog3.png
subject-08,1,331,1.0122709274292,cat,cat,0,0331_scg_s08_0_cat_00_cat5-elephant2.png
subject-08,1,332,0.647695064544678,boat,boat,0,0332_scg_s08_0_boat_00_boat4-boat3.png
subject-08,1,333,1.17583417892456,knife,knife,0,0333_scg_s08_0_knife_00_knife1-dog1.png
subject-08,1,334,0.857435941696167,bear,bear,0,0334_scg_s08_0_bear_00_bear5-bicycle3.png
subject-08,1,335,1.22097992897034,bird,bird,0,0335_scg_s08_0_bird_00_bird3-bird2.png
subject-08,1,336,0.926369190216064,knife,knife,0,0336_scg_s08_0_knife_00_knife10-keyboard3.png
subject-08,1,337,0.954696178436279,car,car,0,0337_scg_s08_0_car_00_car10-dog1.png
subject-08,1,338,1.12852811813354,bicycle,bicycle,0,0338_scg_s08_0_bicycle_00_bicycle4-truck3.png
subject-08,1,339,1.19424796104431,chair,cat,0,0339_scg_s08_0_cat_00_cat3-truck3.png
subject-08,1,340,1.42252397537231,bird,airplane,0,0340_scg_s08_0_airplane_00_airplane7-cat3.png
subject-08,1,341,1.40996289253235,knife,knife,0,0341_scg_s08_0_knife_00_knife5-truck3.png
subject-08,1,342,0.755656003952026,bear,bear,0,0342_scg_s08_0_bear_00_bear1-elephant1.png
subject-08,1,343,1.24331498146057,airplane,airplane,0,0343_scg_s08_0_airplane_00_airplane2-cat1.png
subject-08,1,344,0.970676898956299,airplane,airplane,0,0344_scg_s08_0_airplane_00_airplane7-truck1.png
subject-08,1,345,0.721162080764771,cat,cat,0,0345_scg_s08_0_cat_00_cat4-chair2.png
subject-08,1,346,1.24117684364319,bird,boat,0,0346_scg_s08_0_boat_00_boat6-airplane2.png
subject-08,1,347,0.884718894958496,oven,oven,0,0347_scg_s08_0_oven_00_oven10-truck2.png
subject-08,1,348,0.904852867126465,bottle,bottle,0,0348_scg_s08_0_bottle_00_bottle4-bicycle1.png
subject-08,1,349,1.10025715827942,elephant,elephant,0,0349_scg_s08_0_elephant_00_elephant2-airplane3.png
subject-08,1,350,1.11960101127625,bicycle,dog,0,0350_scg_s08_0_dog_00_dog7-oven2.png
subject-08,1,351,1.23901987075806,bird,bird,0,0351_scg_s08_0_bird_00_bird7-knife2.png
subject-08,1,352,1.37496900558472,cat,dog,0,0352_scg_s08_0_dog_00_dog3-truck2.png
subject-08,1,353,1.09484791755676,knife,knife,0,0353_scg_s08_0_knife_00_knife8-car2.png
subject-08,1,354,0.998362064361572,truck,truck,0,0354_scg_s08_0_truck_00_truck9-boat3.png
subject-08,1,355,1.04196095466614,bottle,bottle,0,0355_scg_s08_0_bottle_00_bottle1-car1.png
subject-08,1,356,0.915649890899658,elephant,elephant,0,0356_scg_s08_0_elephant_00_elephant4-chair3.png
subject-08,1,357,0.965447187423706,bear,bear,0,0357_scg_s08_0_bear_00_bear10-bottle1.png
subject-08,1,358,0.931717872619629,knife,knife,0,0358_scg_s08_0_knife_00_knife4-cat2.png
subject-08,1,359,1.12145400047302,bicycle,bicycle,0,0359_scg_s08_0_bicycle_00_bicycle2-bird3.png
subject-08,1,360,1.10349488258362,elephant,bear,0,0360_scg_s08_0_bear_00_bear3-chair2.png
subject-08,1,361,0.660605907440186,keyboard,keyboard,0,0361_scg_s08_0_keyboard_00_keyboard5-keyboard1.png
subject-08,1,362,1.01031184196472,dog,dog,0,0362_scg_s08_0_dog_00_dog10-dog1.png
subject-08,1,363,0.845714092254639,chair,car,0,0363_scg_s08_0_car_00_car1-chair3.png
subject-08,1,364,0.995604991912842,chair,chair,0,0364_scg_s08_0_chair_00_chair1-elephant1.png
subject-08,1,365,0.622998952865601,bear,bear,0,0365_scg_s08_0_bear_00_bear5-bird1.png
subject-08,1,366,0.86465311050415,car,car,0,0366_scg_s08_0_car_00_car10-car1.png
subject-08,1,367,0.808921098709106,keyboard,keyboard,0,0367_scg_s08_0_keyboard_00_keyboard3-bird3.png
subject-08,1,368,1.11233305931091,car,dog,0,0368_scg_s08_0_dog_00_dog9-car1.png
subject-08,1,369,NaN,na,truck,0,0369_scg_s08_0_truck_00_truck4-boat3.png
subject-08,1,370,0.597132921218872,car,car,0,0370_scg_s08_0_car_00_car8-airplane3.png
subject-08,1,371,1.05527997016907,keyboard,keyboard,0,0371_scg_s08_0_keyboard_00_keyboard3-bicycle2.png
subject-08,1,372,1.12915897369385,airplane,bird,0,0372_scg_s08_0_bird_00_bird6-car3.png
subject-08,1,373,0.918967962265015,clock,clock,0,0373_scg_s08_0_clock_00_clock5-clock2.png
subject-08,1,374,0.747057914733887,bottle,boat,0,0374_scg_s08_0_boat_00_boat4-bottle2.png
subject-08,1,375,NaN,na,cat,0,0375_scg_s08_0_cat_00_cat3-elephant2.png
subject-08,1,376,0.762014865875244,keyboard,keyboard,0,0376_scg_s08_0_keyboard_00_keyboard6-dog2.png
subject-08,1,377,1.02833008766174,chair,boat,0,0377_scg_s08_0_boat_00_boat7-keyboard3.png
subject-08,1,378,0.756031036376953,chair,chair,0,0378_scg_s08_0_chair_00_chair8-car1.png
subject-08,1,379,0.791857957839966,bicycle,bicycle,0,0379_scg_s08_0_bicycle_00_bicycle8-truck1.png
subject-08,1,380,0.865854024887085,chair,chair,0,0380_scg_s08_0_chair_00_chair5-bird1.png
subject-08,1,381,1.04766583442688,airplane,airplane,0,0381_scg_s08_0_airplane_00_airplane1-bicycle2.png
subject-08,1,382,1.12729692459106,bird,bird,0,0382_scg_s08_0_bird_00_bird4-cat3.png
subject-08,1,383,0.754648923873901,oven,oven,0,0383_scg_s08_0_oven_00_oven3-knife1.png
subject-08,1,384,0.605765104293823,clock,clock,0,0384_scg_s08_0_clock_00_clock4-car2.png
subject-08,1,385,0.847774982452393,bottle,bottle,0,0385_scg_s08_0_bottle_00_bottle1-cat3.png
subject-08,1,386,0.537019968032837,clock,clock,0,0386_scg_s08_0_clock_00_clock10-bottle1.png
subject-08,1,387,0.686846017837524,keyboard,keyboard,0,0387_scg_s08_0_keyboard_00_keyboard8-keyboard2.png
subject-08,1,388,1.41485595703125,bear,bear,0,0388_scg_s08_0_bear_00_bear7-dog3.png
subject-08,1,389,0.634331941604614,chair,chair,0,0389_scg_s08_0_chair_00_chair3-bottle3.png
subject-08,1,390,0.724749803543091,oven,oven,0,0390_scg_s08_0_oven_00_oven5-dog3.png
subject-08,1,391,1.1444718837738,bottle,bottle,0,0391_scg_s08_0_bottle_00_bottle4-airplane1.png
subject-08,1,392,0.926223993301392,car,cat,0,0392_scg_s08_0_cat_00_cat3-oven2.png
subject-08,1,393,0.975371837615967,bicycle,bicycle,0,0393_scg_s08_0_bicycle_00_bicycle4-airplane1.png
subject-08,1,394,0.889432907104492,clock,clock,0,0394_scg_s08_0_clock_00_clock2-dog1.png
subject-08,1,395,1.43611907958984,truck,truck,0,0395_scg_s08_0_truck_00_truck2-car3.png
subject-08,1,396,1.28572487831116,dog,dog,0,0396_scg_s08_0_dog_00_dog5-boat3.png
subject-08,1,397,1.05867791175842,elephant,elephant,0,0397_scg_s08_0_elephant_00_elephant3-truck1.png
subject-08,1,398,0.873204946517944,dog,dog,0,0398_scg_s08_0_dog_00_dog1-knife3.png
subject-08,1,399,1.02316117286682,chair,chair,0,0399_scg_s08_0_chair_00_chair10-bottle3.png
subject-08,1,400,0.782956123352051,keyboard,keyboard,0,0400_scg_s08_0_keyboard_00_keyboard5-bottle1.png
subject-08,1,401,0.956533908843994,dog,bear,0,0401_scg_s08_0_bear_00_bear4-keyboard3.png
subject-08,1,402,0.814637899398804,keyboard,keyboard,0,0402_scg_s08_0_keyboard_00_keyboard2-bottle1.png
subject-08,1,403,1.15889286994934,chair,cat,0,0403_scg_s08_0_cat_00_cat1-keyboard3.png
subject-08,1,404,0.695279121398926,bear,bear,0,0404_scg_s08_0_bear_00_bear9-knife2.png
subject-08,1,405,1.10682415962219,dog,dog,0,0405_scg_s08_0_dog_00_dog5-knife2.png
subject-08,1,406,0.704433917999268,bottle,bottle,0,0406_scg_s08_0_bottle_00_bottle2-elephant1.png
subject-08,1,407,0.753633975982666,cat,cat,0,0407_scg_s08_0_cat_00_cat7-elephant1.png
subject-08,1,408,0.6356360912323,clock,clock,0,0408_scg_s08_0_clock_00_clock5-bicycle1.png
subject-08,1,409,1.04420685768127,cat,cat,0,0409_scg_s08_0_cat_00_cat1-oven1.png
subject-08,1,410,0.901666164398193,knife,knife,0,0410_scg_s08_0_knife_00_knife9-bird1.png
subject-08,1,411,0.737560033798218,cat,cat,0,0411_scg_s08_0_cat_00_cat9-bicycle1.png
subject-08,1,412,0.7570641040802,car,car,0,0412_scg_s08_0_car_00_car6-bicycle3.png
subject-08,1,413,0.846856117248535,car,car,0,0413_scg_s08_0_car_00_car5-bottle1.png
subject-08,1,414,0.903995990753174,elephant,elephant,0,0414_scg_s08_0_elephant_00_elephant10-bear1.png
subject-08,1,415,0.81562614440918,bird,bird,0,0415_scg_s08_0_bird_00_bird9-dog2.png
subject-08,1,416,0.735286951065063,boat,boat,0,0416_scg_s08_0_boat_00_boat9-dog2.png
subject-08,1,417,0.895216941833496,car,car,0,0417_scg_s08_0_car_00_car6-bear1.png
subject-08,1,418,1.18312215805054,bottle,bottle,0,0418_scg_s08_0_bottle_00_bottle9-cat2.png
subject-08,1,419,0.778138160705566,clock,clock,0,0419_scg_s08_0_clock_00_clock6-bottle1.png
subject-08,1,420,0.789782047271729,bicycle,bicycle,0,0420_scg_s08_0_bicycle_00_bicycle8-chair2.png
subject-08,1,421,0.803662061691284,car,car,0,0421_scg_s08_0_car_00_car8-dog1.png
subject-08,1,422,0.845669984817505,knife,knife,0,0422_scg_s08_0_knife_00_knife6-bird1.png
subject-08,1,423,1.27319693565369,bear,bear,0,0423_scg_s08_0_bear_00_bear2-airplane1.png
subject-08,1,424,1.30695414543152,knife,knife,0,0424_scg_s08_0_knife_00_knife5-clock1.png
subject-08,1,425,1.32152891159058,knife,knife,0,0425_scg_s08_0_knife_00_knife2-cat3.png
subject-08,1,426,0.936424970626831,clock,clock,0,0426_scg_s08_0_clock_00_clock2-knife1.png
subject-08,1,427,1.02433609962463,bicycle,bicycle,0,0427_scg_s08_0_bicycle_00_bicycle4-keyboard3.png
subject-08,1,428,1.09741592407227,elephant,elephant,0,0428_scg_s08_0_elephant_00_elephant8-clock2.png
subject-08,1,429,1.00942587852478,chair,chair,0,0429_scg_s08_0_chair_00_chair1-chair1.png
subject-08,1,430,0.829292058944702,airplane,bird,0,0430_scg_s08_0_bird_00_bird7-boat1.png
subject-08,1,431,0.918684959411621,elephant,elephant,0,0431_scg_s08_0_elephant_00_elephant2-boat1.png
subject-08,1,432,0.792639017105103,chair,chair,0,0432_scg_s08_0_chair_00_chair10-cat1.png
subject-08,1,433,0.995741128921509,chair,knife,0,0433_scg_s08_0_knife_00_knife6-truck1.png
subject-08,1,434,1.13224601745605,car,car,0,0434_scg_s08_0_car_00_car8-boat3.png
subject-08,1,435,1.48206210136414,truck,truck,0,0435_scg_s08_0_truck_00_truck4-bottle2.png
subject-08,1,436,0.779135227203369,oven,oven,0,0436_scg_s08_0_oven_00_oven8-cat3.png
subject-08,1,437,1.0372109413147,bottle,bottle,0,0437_scg_s08_0_bottle_00_bottle2-chair3.png
subject-08,1,438,0.734846830368042,oven,oven,0,0438_scg_s08_0_oven_00_oven9-car2.png
subject-08,1,439,0.663398027420044,clock,airplane,0,0439_scg_s08_0_airplane_00_airplane3-clock1.png
subject-08,1,440,0.74550986289978,keyboard,keyboard,0,0440_scg_s08_0_keyboard_00_keyboard5-bear3.png
subject-08,1,441,1.07891607284546,dog,bear,0,0441_scg_s08_0_bear_00_bear6-clock1.png
subject-08,1,442,0.868801832199097,truck,truck,0,0442_scg_s08_0_truck_00_truck2-bicycle2.png
subject-08,1,443,1.15651512145996,bicycle,bicycle,0,0443_scg_s08_0_bicycle_00_bicycle6-car2.png
subject-08,1,444,0.929380893707275,airplane,airplane,0,0444_scg_s08_0_airplane_00_airplane6-bear3.png
subject-08,1,445,0.710896015167236,oven,oven,0,0445_scg_s08_0_oven_00_oven3-clock3.png
subject-08,1,446,0.828299045562744,car,car,0,0446_scg_s08_0_car_00_car6-elephant3.png
subject-08,1,447,0.833841800689697,chair,chair,0,0447_scg_s08_0_chair_00_chair5-truck3.png
subject-08,1,448,0.959468841552734,keyboard,keyboard,0,0448_scg_s08_0_keyboard_00_keyboard10-airplane3.png
subject-08,1,449,1.32524585723877,bicycle,bicycle,0,0449_scg_s08_0_bicycle_00_bicycle7-bicycle2.png
subject-08,1,450,1.06931185722351,dog,dog,0,0450_scg_s08_0_dog_00_dog8-dog3.png
subject-08,1,451,0.859619140625,boat,boat,0,0451_scg_s08_0_boat_00_boat1-oven1.png
subject-08,1,452,0.619527101516724,elephant,elephant,0,0452_scg_s08_0_elephant_00_elephant7-bottle3.png
subject-08,1,453,0.509611129760742,boat,boat,0,0453_scg_s08_0_boat_00_boat9-clock1.png
subject-08,1,454,0.689470052719116,bear,bear,0,0454_scg_s08_0_bear_00_bear1-bird2.png
subject-08,1,455,1.08714294433594,oven,oven,0,0455_scg_s08_0_oven_00_oven10-airplane2.png
subject-08,1,456,1.19151186943054,knife,knife,0,0456_scg_s08_0_knife_00_knife9-bear3.png
subject-08,1,457,0.873022079467773,keyboard,keyboard,0,0457_scg_s08_0_keyboard_00_keyboard1-elephant3.png
subject-08,1,458,1.07725191116333,boat,truck,0,0458_scg_s08_0_truck_00_truck6-truck2.png
subject-08,1,459,1.21020603179932,airplane,airplane,0,0459_scg_s08_0_airplane_00_airplane9-boat1.png
subject-08,1,460,1.13808107376099,bicycle,bicycle,0,0460_scg_s08_0_bicycle_00_bicycle8-bear2.png
subject-08,1,461,0.858038902282715,bicycle,bicycle,0,0461_scg_s08_0_bicycle_00_bicycle4-bicycle3.png
subject-08,1,462,0.677824020385742,clock,clock,0,0462_scg_s08_0_clock_00_clock7-boat3.png
subject-08,1,463,0.767737865447998,car,car,0,0463_scg_s08_0_car_00_car3-bottle3.png
subject-08,1,464,1.11739993095398,truck,truck,0,0464_scg_s08_0_truck_00_truck2-elephant1.png
subject-08,1,465,0.798326015472412,chair,chair,0,0465_scg_s08_0_chair_00_chair7-cat1.png
subject-08,1,466,0.880375146865845,oven,oven,0,0466_scg_s08_0_oven_00_oven5-airplane1.png
subject-08,1,467,0.699906826019287,knife,knife,0,0467_scg_s08_0_knife_00_knife4-keyboard1.png
subject-08,1,468,1.1260359287262,bicycle,bicycle,0,0468_scg_s08_0_bicycle_00_bicycle2-dog1.png
subject-08,1,469,1.01608610153198,bird,boat,0,0469_scg_s08_0_boat_00_boat6-truck3.png
subject-08,1,470,0.745805978775024,chair,chair,0,0470_scg_s08_0_chair_00_chair9-elephant1.png
subject-08,1,471,0.987365007400513,truck,truck,0,0471_scg_s08_0_truck_00_truck6-oven3.png
subject-08,1,472,0.814423799514771,knife,truck,0,0472_scg_s08_0_truck_00_truck7-keyboard3.png
subject-08,1,473,0.733842134475708,oven,oven,0,0473_scg_s08_0_oven_00_oven4-truck3.png
subject-08,1,474,0.979096174240112,knife,boat,0,0474_scg_s08_0_boat_00_boat4-bird1.png
subject-08,1,475,0.890424966812134,bicycle,bicycle,0,0475_scg_s08_0_bicycle_00_bicycle7-bear2.png
subject-08,1,476,0.626683950424194,cat,cat,0,0476_scg_s08_0_cat_00_cat3-cat1.png
subject-08,1,477,0.634205102920532,bicycle,bicycle,0,0477_scg_s08_0_bicycle_00_bicycle2-keyboard2.png
subject-08,1,478,1.22143721580505,truck,truck,0,0478_scg_s08_0_truck_00_truck2-clock1.png
subject-08,1,479,0.979046106338501,truck,truck,0,0479_scg_s08_0_truck_00_truck2-boat3.png
subject-08,1,480,0.714601993560791,oven,clock,0,0480_scg_s08_0_clock_00_clock9-keyboard2.png
subject-08,1,481,0.612854957580566,bicycle,bicycle,0,0481_scg_s08_0_bicycle_00_bicycle6-bicycle3.png
subject-08,1,482,1.40832901000977,dog,dog,0,0482_scg_s08_0_dog_00_dog10-bicycle1.png
subject-08,1,483,0.657054901123047,clock,clock,0,0483_scg_s08_0_clock_00_clock8-keyboard1.png
subject-08,1,484,0.801069021224976,knife,knife,0,0484_scg_s08_0_knife_00_knife10-bear3.png
subject-08,1,485,0.562913179397583,bottle,bottle,0,0485_scg_s08_0_bottle_00_bottle3-bicycle3.png
subject-08,1,486,0.868868112564087,knife,airplane,0,0486_scg_s08_0_airplane_00_airplane2-bear1.png
subject-08,1,487,1.18040609359741,boat,boat,0,0487_scg_s08_0_boat_00_boat8-knife1.png
subject-08,1,488,0.75420618057251,chair,chair,0,0488_scg_s08_0_chair_00_chair8-knife2.png
subject-08,1,489,0.69592022895813,bicycle,bicycle,0,0489_scg_s08_0_bicycle_00_bicycle9-chair1.png
subject-08,1,490,1.50022387504578,dog,dog,0,0490_scg_s08_0_dog_00_dog6-truck2.png
subject-08,1,491,0.763473987579346,bottle,bottle,0,0491_scg_s08_0_bottle_00_bottle9-elephant2.png
subject-08,1,492,0.999630928039551,chair,chair,0,0492_scg_s08_0_chair_00_chair7-truck3.png
subject-08,1,493,0.810802936553955,truck,truck,0,0493_scg_s08_0_truck_00_truck3-bear3.png
subject-08,1,494,0.784497976303101,truck,truck,0,0494_scg_s08_0_truck_00_truck3-dog3.png
subject-08,1,495,0.582970857620239,oven,oven,0,0495_scg_s08_0_oven_00_oven5-bird1.png
subject-08,1,496,0.932353973388672,knife,knife,0,0496_scg_s08_0_knife_00_knife6-oven3.png
subject-08,1,497,0.814560174942017,bottle,boat,0,0497_scg_s08_0_boat_00_boat7-oven3.png
subject-08,1,498,1.07221221923828,elephant,elephant,0,0498_scg_s08_0_elephant_00_elephant9-boat3.png
subject-08,1,499,0.771013021469116,bear,bear,0,0499_scg_s08_0_bear_00_bear2-oven1.png
subject-08,1,500,1.24472093582153,bottle,bear,0,0500_scg_s08_0_bear_00_bear6-bottle3.png
subject-08,1,501,0.888338088989258,elephant,elephant,0,0501_scg_s08_0_elephant_00_elephant8-elephant1.png
subject-08,1,502,0.72486400604248,oven,oven,0,0502_scg_s08_0_oven_00_oven9-keyboard1.png
subject-08,1,503,0.927932977676392,bird,bird,0,0503_scg_s08_0_bird_00_bird1-boat1.png
subject-08,1,504,0.748099803924561,bicycle,bicycle,0,0504_scg_s08_0_bicycle_00_bicycle6-airplane2.png
subject-08,1,505,1.02967214584351,knife,knife,0,0505_scg_s08_0_knife_00_knife3-bear2.png
subject-08,1,506,1.1256411075592,elephant,elephant,0,0506_scg_s08_0_elephant_00_elephant5-truck1.png
subject-08,1,507,NaN,na,clock,0,0507_scg_s08_0_clock_00_clock3-keyboard3.png
subject-08,1,508,1.09672784805298,cat,elephant,0,0508_scg_s08_0_elephant_00_elephant6-bird1.png
subject-08,1,509,0.846701145172119,airplane,airplane,0,0509_scg_s08_0_airplane_00_airplane2-bottle1.png
subject-08,1,510,0.812603950500488,cat,cat,0,0510_scg_s08_0_cat_00_cat6-chair3.png
subject-08,1,511,0.602149963378906,bicycle,bicycle,0,0511_scg_s08_0_bicycle_00_bicycle9-airplane2.png
subject-08,1,512,0.959963083267212,truck,truck,0,0512_scg_s08_0_truck_00_truck1-knife1.png
subject-08,1,513,NaN,na,chair,0,0513_scg_s08_0_chair_00_chair6-truck2.png
subject-08,1,514,0.691088914871216,keyboard,keyboard,0,0514_scg_s08_0_keyboard_00_keyboard6-elephant1.png
subject-08,1,515,1.04868912696838,elephant,elephant,0,0515_scg_s08_0_elephant_00_elephant6-knife2.png
subject-08,1,516,1.06798410415649,oven,keyboard,0,0516_scg_s08_0_keyboard_00_keyboard4-knife2.png
subject-08,1,517,0.666478157043457,bottle,bottle,0,0517_scg_s08_0_bottle_00_bottle6-airplane1.png
subject-08,1,518,1.28582906723022,keyboard,keyboard,0,0518_scg_s08_0_keyboard_00_keyboard9-bicycle2.png
subject-08,1,519,0.943055152893066,truck,truck,0,0519_scg_s08_0_truck_00_truck5-dog3.png
subject-08,1,520,0.825416803359985,clock,clock,0,0520_scg_s08_0_clock_00_clock3-elephant3.png
subject-08,1,521,0.969904899597168,dog,dog,0,0521_scg_s08_0_dog_00_dog8-oven3.png
subject-08,1,522,0.96582293510437,knife,knife,0,0522_scg_s08_0_knife_00_knife5-bicycle2.png
subject-08,1,523,0.961432218551636,car,car,0,0523_scg_s08_0_car_00_car9-truck3.png
subject-08,1,524,0.691291093826294,oven,oven,0,0524_scg_s08_0_oven_00_oven3-elephant3.png
subject-08,1,525,0.833418846130371,keyboard,keyboard,0,0525_scg_s08_0_keyboard_00_keyboard4-bird1.png
subject-08,1,526,1.00730991363525,bottle,bottle,0,0526_scg_s08_0_bottle_00_bottle5-boat1.png
subject-08,1,527,1.01901793479919,cat,cat,0,0527_scg_s08_0_cat_00_cat10-clock1.png
subject-08,1,528,0.738648176193237,oven,oven,0,0528_scg_s08_0_oven_00_oven6-bicycle1.png
subject-08,1,529,0.973790168762207,clock,clock,0,0529_scg_s08_0_clock_00_clock1-car1.png
subject-08,1,530,1.13712596893311,knife,knife,0,0530_scg_s08_0_knife_00_knife10-dog1.png
subject-08,1,531,1.35705590248108,clock,clock,0,0531_scg_s08_0_clock_00_clock4-oven1.png
subject-08,1,532,0.879181861877441,bottle,bottle,0,0532_scg_s08_0_bottle_00_bottle8-bicycle1.png
subject-08,1,533,0.728754997253418,cat,cat,0,0533_scg_s08_0_cat_00_cat5-airplane2.png
subject-08,1,534,1.14883303642273,dog,dog,0,0534_scg_s08_0_dog_00_dog8-clock2.png
subject-08,1,535,0.662528038024902,oven,oven,0,0535_scg_s08_0_oven_00_oven4-knife2.png
subject-08,1,536,0.858135938644409,bird,bird,0,0536_scg_s08_0_bird_00_bird5-truck2.png
subject-08,1,537,0.618101119995117,clock,clock,0,0537_scg_s08_0_clock_00_clock8-chair2.png
subject-08,1,538,0.659532070159912,clock,clock,0,0538_scg_s08_0_clock_00_clock4-bottle3.png
subject-08,1,539,1.33939003944397,bear,bear,0,0539_scg_s08_0_bear_00_bear5-bottle1.png
subject-08,1,540,1.45926403999329,airplane,airplane,0,0540_scg_s08_0_airplane_00_airplane10-airplane1.png
subject-08,1,541,0.92665696144104,cat,cat,0,0541_scg_s08_0_cat_00_cat4-airplane1.png
subject-08,1,542,1.32265901565552,bird,bird,0,0542_scg_s08_0_bird_00_bird1-knife3.png
subject-08,1,543,1.04992485046387,car,car,0,0543_scg_s08_0_car_00_car3-elephant3.png
subject-08,1,544,0.982278108596802,dog,dog,0,0544_scg_s08_0_dog_00_dog5-bear3.png
subject-08,1,545,0.831682920455933,bear,bear,0,0545_scg_s08_0_bear_00_bear3-dog3.png
subject-08,1,546,1.18087816238403,bicycle,bicycle,0,0546_scg_s08_0_bicycle_00_bicycle7-knife2.png
subject-08,1,547,0.840918064117432,elephant,elephant,0,0547_scg_s08_0_elephant_00_elephant7-knife2.png
subject-08,1,548,1.03713512420654,truck,truck,0,0548_scg_s08_0_truck_00_truck2-bottle3.png
subject-08,1,549,1.21071696281433,bear,bear,0,0549_scg_s08_0_bear_00_bear1-airplane3.png
subject-08,1,550,0.914827823638916,bottle,keyboard,0,0550_scg_s08_0_keyboard_00_keyboard4-bottle2.png
subject-08,1,551,0.836915016174316,keyboard,keyboard,0,0551_scg_s08_0_keyboard_00_keyboard9-truck3.png
subject-08,1,552,1.50011706352234,airplane,airplane,0,0552_scg_s08_0_airplane_00_airplane2-dog1.png
subject-08,1,553,0.685209989547729,clock,clock,0,0553_scg_s08_0_clock_00_clock2-bicycle1.png
subject-08,1,554,0.788451194763184,keyboard,keyboard,0,0554_scg_s08_0_keyboard_00_keyboard7-bear2.png
subject-08,1,555,0.983896017074585,airplane,boat,0,0555_scg_s08_0_boat_00_boat4-car3.png
subject-08,1,556,1.44514799118042,dog,elephant,0,0556_scg_s08_0_elephant_00_elephant4-bird1.png
subject-08,1,557,0.881165027618408,car,car,0,0557_scg_s08_0_car_00_car7-bear1.png
subject-08,1,558,0.910313129425049,bottle,bottle,0,0558_scg_s08_0_bottle_00_bottle10-boat3.png
subject-08,1,559,0.908704042434692,car,car,0,0559_scg_s08_0_car_00_car6-truck3.png
subject-08,1,560,1.02666115760803,car,car,0,0560_scg_s08_0_car_00_car2-knife3.png
subject-08,1,561,0.97767186164856,bird,bird,0,0561_scg_s08_0_bird_00_bird2-dog2.png
subject-08,1,562,1.05157899856567,clock,clock,0,0562_scg_s08_0_clock_00_clock10-bird3.png
subject-08,1,563,1.15579390525818,cat,cat,0,0563_scg_s08_0_cat_00_cat2-knife3.png
subject-08,1,564,0.953870058059692,clock,clock,0,0564_scg_s08_0_clock_00_clock10-clock3.png
subject-08,1,565,0.719754934310913,cat,cat,0,0565_scg_s08_0_cat_00_cat10-elephant3.png
subject-08,1,566,0.807756185531616,oven,oven,0,0566_scg_s08_0_oven_00_oven4-bottle2.png
subject-08,1,567,0.691997051239014,elephant,elephant,0,0567_scg_s08_0_elephant_00_elephant9-elephant3.png
subject-08,1,568,0.795830965042114,keyboard,keyboard,0,0568_scg_s08_0_keyboard_00_keyboard7-knife1.png
subject-08,1,569,1.22180795669556,car,truck,0,0569_scg_s08_0_truck_00_truck6-cat2.png
subject-08,1,570,0.627559900283813,clock,clock,0,0570_scg_s08_0_clock_00_clock8-boat1.png
subject-08,1,571,0.655522108078003,keyboard,keyboard,0,0571_scg_s08_0_keyboard_00_keyboard6-bottle2.png
subject-08,1,572,0.990117073059082,chair,chair,0,0572_scg_s08_0_chair_00_chair9-boat2.png
subject-08,1,573,0.779888868331909,knife,knife,0,0573_scg_s08_0_knife_00_knife2-elephant2.png
subject-08,1,574,0.729694128036499,keyboard,keyboard,0,0574_scg_s08_0_keyboard_00_keyboard9-keyboard2.png
subject-08,1,575,0.803424835205078,bird,bird,0,0575_scg_s08_0_bird_00_bird9-bicycle3.png
subject-08,1,576,0.901122808456421,car,car,0,0576_scg_s08_0_car_00_car1-car2.png
subject-08,1,577,0.896084070205688,car,car,0,0577_scg_s08_0_car_00_car7-dog3.png
subject-08,1,578,1.05953311920166,dog,dog,0,0578_scg_s08_0_dog_00_dog10-car3.png
subject-08,1,579,0.9254150390625,bottle,bottle,0,0579_scg_s08_0_bottle_00_bottle2-bottle3.png
subject-08,1,580,1.24521398544312,dog,dog,0,0580_scg_s08_0_dog_00_dog9-bear3.png
subject-08,1,581,0.705309867858887,car,car,0,0581_scg_s08_0_car_00_car3-oven3.png
subject-08,1,582,0.730401039123535,boat,boat,0,0582_scg_s08_0_boat_00_boat5-clock3.png
subject-08,1,583,0.612045049667358,oven,oven,0,0583_scg_s08_0_oven_00_oven2-oven3.png
subject-08,1,584,0.853917121887207,bottle,boat,0,0584_scg_s08_0_boat_00_boat6-bottle2.png
subject-08,1,585,0.973108053207397,car,car,0,0585_scg_s08_0_car_00_car8-bicycle2.png
subject-08,1,586,0.661028146743774,chair,chair,0,0586_scg_s08_0_chair_00_chair8-chair3.png
subject-08,1,587,1.36518692970276,chair,knife,0,0587_scg_s08_0_knife_00_knife10-chair1.png
subject-08,1,588,0.725194931030273,bear,bear,0,0588_scg_s08_0_bear_00_bear1-clock2.png
subject-08,1,589,0.966697931289673,dog,dog,0,0589_scg_s08_0_dog_00_dog9-boat1.png
subject-08,1,590,0.986175060272217,cat,cat,0,0590_scg_s08_0_cat_00_cat9-boat2.png
subject-08,1,591,1.24107480049133,boat,boat,0,0591_scg_s08_0_boat_00_boat8-bottle1.png
subject-08,1,592,0.985397100448608,car,car,0,0592_scg_s08_0_car_00_car4-bird1.png
subject-08,1,593,0.642935991287231,airplane,airplane,0,0593_scg_s08_0_airplane_00_airplane2-bird3.png
subject-08,1,594,0.892343997955322,chair,oven,0,0594_scg_s08_0_oven_00_oven6-chair3.png
subject-08,1,595,0.95255708694458,truck,truck,0,0595_scg_s08_0_truck_00_truck6-bicycle1.png
subject-08,1,596,1.06430196762085,bird,bird,0,0596_scg_s08_0_bird_00_bird2-knife1.png
subject-08,1,597,0.998307943344116,knife,knife,0,0597_scg_s08_0_knife_00_knife9-airplane2.png
subject-08,1,598,1.33411717414856,dog,dog,0,0598_scg_s08_0_dog_00_dog9-bottle1.png
subject-08,1,599,0.824426174163818,bird,bird,0,0599_scg_s08_0_bird_00_bird8-elephant1.png
subject-08,1,600,1.03612494468689,knife,knife,0,0600_scg_s08_0_knife_00_knife6-dog2.png
subject-08,1,601,0.818559885025024,chair,chair,0,0601_scg_s08_0_chair_00_chair1-clock2.png
subject-08,1,602,0.930716991424561,bird,boat,0,0602_scg_s08_0_boat_00_boat6-knife2.png
subject-08,1,603,0.904140949249268,elephant,elephant,0,0603_scg_s08_0_elephant_00_elephant6-bottle2.png
subject-08,1,604,0.88412618637085,car,car,0,0604_scg_s08_0_car_00_car9-clock2.png
subject-08,1,605,0.728055000305176,knife,knife,0,0605_scg_s08_0_knife_00_knife3-knife1.png
subject-08,1,606,1.05654001235962,bird,bird,0,0606_scg_s08_0_bird_00_bird3-cat1.png
subject-08,1,607,0.810052156448364,chair,airplane,0,0607_scg_s08_0_airplane_00_airplane3-chair3.png
subject-08,1,608,0.705180883407593,bicycle,bicycle,0,0608_scg_s08_0_bicycle_00_bicycle5-elephant1.png
subject-08,1,609,0.862930059432983,elephant,bear,0,0609_scg_s08_0_bear_00_bear3-truck3.png
subject-08,1,610,0.77734112739563,knife,airplane,0,0610_scg_s08_0_airplane_00_airplane3-keyboard2.png
subject-08,1,611,0.811196088790894,cat,cat,0,0611_scg_s08_0_cat_00_cat7-bottle1.png
subject-08,1,612,0.869143009185791,keyboard,keyboard,0,0612_scg_s08_0_keyboard_00_keyboard8-cat3.png
subject-08,1,613,0.737812042236328,bicycle,bicycle,0,0613_scg_s08_0_bicycle_00_bicycle1-bear1.png
subject-08,1,614,1.08512210845947,boat,airplane,0,0614_scg_s08_0_airplane_00_airplane4-bottle1.png
subject-08,1,615,0.820507049560547,bicycle,bicycle,0,0615_scg_s08_0_bicycle_00_bicycle2-bicycle1.png
subject-08,1,616,0.794617891311646,chair,chair,0,0616_scg_s08_0_chair_00_chair4-truck2.png
subject-08,1,617,0.752097129821777,oven,oven,0,0617_scg_s08_0_oven_00_oven2-bear3.png
subject-08,1,618,0.618288993835449,bottle,bottle,0,0618_scg_s08_0_bottle_00_bottle1-clock1.png
subject-08,1,619,0.830705165863037,bird,bird,0,0619_scg_s08_0_bird_00_bird8-car2.png
subject-08,1,620,0.812885046005249,cat,cat,0,0620_scg_s08_0_cat_00_cat1-cat3.png
subject-08,1,621,0.703155994415283,car,car,0,0621_scg_s08_0_car_00_car4-bicycle3.png
subject-08,1,622,0.761277914047241,bicycle,bicycle,0,0622_scg_s08_0_bicycle_00_bicycle4-oven3.png
subject-08,1,623,1.25995278358459,bird,bird,0,0623_scg_s08_0_bird_00_bird7-keyboard3.png
subject-08,1,624,0.616970062255859,boat,boat,0,0624_scg_s08_0_boat_00_boat8-bird2.png
subject-08,1,625,0.975097894668579,truck,truck,0,0625_scg_s08_0_truck_00_truck1-bear1.png
subject-08,1,626,0.694792985916138,clock,clock,0,0626_scg_s08_0_clock_00_clock3-dog2.png
subject-08,1,627,0.952638864517212,bicycle,bicycle,0,0627_scg_s08_0_bicycle_00_bicycle3-elephant2.png
subject-08,1,628,0.994677066802979,knife,knife,0,0628_scg_s08_0_knife_00_knife8-truck3.png
subject-08,1,629,1.04462218284607,bird,boat,0,0629_scg_s08_0_boat_00_boat6-cat1.png
subject-08,1,630,0.780205965042114,bottle,bottle,0,0630_scg_s08_0_bottle_00_bottle3-bottle3.png
subject-08,1,631,0.762071847915649,car,car,0,0631_scg_s08_0_car_00_car7-car1.png
subject-08,1,632,0.633080959320068,truck,truck,0,0632_scg_s08_0_truck_00_truck6-bottle3.png
subject-08,1,633,1.04485988616943,keyboard,cat,0,0633_scg_s08_0_cat_00_cat5-keyboard3.png
subject-08,1,634,1.26501679420471,truck,oven,0,0634_scg_s08_0_oven_00_oven7-car3.png
subject-08,1,635,1.36155080795288,bird,bird,0,0635_scg_s08_0_bird_00_bird8-bottle1.png
subject-08,1,636,0.788599967956543,bottle,bottle,0,0636_scg_s08_0_bottle_00_bottle10-clock2.png
subject-08,1,637,0.708710908889771,oven,oven,0,0637_scg_s08_0_oven_00_oven1-clock3.png
subject-08,1,638,0.936746835708618,car,car,0,0638_scg_s08_0_car_00_car9-bicycle2.png
subject-08,1,639,0.924087047576904,chair,chair,0,0639_scg_s08_0_chair_00_chair8-oven1.png
subject-08,1,640,1.09780097007751,chair,chair,0,0640_scg_s08_0_chair_00_chair10-dog1.png
subject-08,1,641,0.896394014358521,chair,chair,0,0641_scg_s08_0_chair_00_chair5-boat3.png
subject-08,1,642,0.717079162597656,boat,boat,0,0642_scg_s08_0_boat_00_boat3-bicycle2.png
subject-08,1,643,0.712430953979492,clock,clock,0,0643_scg_s08_0_clock_00_clock4-bird3.png
subject-08,1,644,0.9703369140625,airplane,airplane,0,0644_scg_s08_0_airplane_00_airplane5-bicycle1.png
subject-08,1,645,1.01962280273438,chair,chair,0,0645_scg_s08_0_chair_00_chair8-boat1.png
subject-08,1,646,1.00109791755676,bear,bear,0,0646_scg_s08_0_bear_00_bear10-oven1.png
subject-08,1,647,1.13085579872131,dog,dog,0,0647_scg_s08_0_dog_00_dog10-airplane1.png
subject-08,1,648,0.775564908981323,cat,cat,0,0648_scg_s08_0_cat_00_cat8-car2.png
subject-08,1,649,1.30083394050598,knife,knife,0,0649_scg_s08_0_knife_00_knife1-bird2.png
subject-08,1,650,1.12070298194885,elephant,elephant,0,0650_scg_s08_0_elephant_00_elephant7-car3.png
subject-08,1,651,1.11833000183105,bottle,bottle,0,0651_scg_s08_0_bottle_00_bottle6-bicycle3.png
subject-08,1,652,0.705382823944092,chair,chair,0,0652_scg_s08_0_chair_00_chair1-oven3.png
subject-08,1,653,0.587337017059326,oven,oven,0,0653_scg_s08_0_oven_00_oven9-boat2.png
subject-08,1,654,0.666913032531738,bicycle,bicycle,0,0654_scg_s08_0_bicycle_00_bicycle8-clock3.png
subject-08,1,655,0.917176008224487,airplane,airplane,0,0655_scg_s08_0_airplane_00_airplane7-car1.png
subject-08,1,656,0.661329030990601,boat,boat,0,0656_scg_s08_0_boat_00_boat10-boat3.png
subject-08,1,657,0.694195985794067,keyboard,keyboard,0,0657_scg_s08_0_keyboard_00_keyboard9-bird1.png
subject-08,1,658,0.583737850189209,clock,clock,0,0658_scg_s08_0_clock_00_clock8-bear2.png
subject-08,1,659,0.687526941299438,bottle,bottle,0,0659_scg_s08_0_bottle_00_bottle9-keyboard1.png
subject-08,1,660,0.85318398475647,bicycle,bicycle,0,0660_scg_s08_0_bicycle_00_bicycle1-airplane2.png
subject-08,1,661,0.991820096969604,bird,bird,0,0661_scg_s08_0_bird_00_bird5-oven3.png
subject-08,1,662,1.17958211898804,truck,truck,0,0662_scg_s08_0_truck_00_truck9-bottle2.png
subject-08,1,663,1.06896090507507,bear,bear,0,0663_scg_s08_0_bear_00_bear3-keyboard2.png
subject-08,1,664,0.851532936096191,keyboard,keyboard,0,0664_scg_s08_0_keyboard_00_keyboard7-bottle1.png
subject-08,1,665,0.93109393119812,dog,dog,0,0665_scg_s08_0_dog_00_dog9-cat1.png
subject-08,1,666,0.720444917678833,boat,boat,0,0666_scg_s08_0_boat_00_boat8-elephant1.png
subject-08,1,667,0.615783929824829,cat,cat,0,0667_scg_s08_0_cat_00_cat6-keyboard3.png
subject-08,1,668,0.589449882507324,boat,boat,0,0668_scg_s08_0_boat_00_boat9-chair2.png
subject-08,1,669,0.915752172470093,bird,bird,0,0669_scg_s08_0_bird_00_bird2-clock3.png
subject-08,1,670,0.70551609992981,elephant,elephant,0,0670_scg_s08_0_elephant_00_elephant1-bottle1.png
subject-08,1,671,1.00151491165161,bird,bird,0,0671_scg_s08_0_bird_00_bird1-truck1.png
subject-08,1,672,1.09668707847595,dog,dog,0,0672_scg_s08_0_dog_00_dog2-cat1.png
subject-08,1,673,0.695099115371704,bicycle,bicycle,0,0673_scg_s08_0_bicycle_00_bicycle8-boat1.png
subject-08,1,674,0.855178833007812,chair,chair,0,0674_scg_s08_0_chair_00_chair2-bear2.png
subject-08,1,675,1.19469690322876,truck,truck,0,0675_scg_s08_0_truck_00_truck2-airplane3.png
subject-08,1,676,1.40640497207642,bird,airplane,0,0676_scg_s08_0_airplane_00_airplane10-bear3.png
subject-08,1,677,0.649828195571899,bear,bear,0,0677_scg_s08_0_bear_00_bear2-bird3.png
subject-08,1,678,0.945724964141846,elephant,elephant,0,0678_scg_s08_0_elephant_00_elephant7-dog1.png
subject-08,1,679,1.38494205474854,bear,elephant,0,0679_scg_s08_0_elephant_00_elephant1-keyboard3.png
subject-08,1,680,0.823490858078003,knife,knife,0,0680_scg_s08_0_knife_00_knife5-dog1.png
subject-08,1,681,0.689343929290771,car,car,0,0681_scg_s08_0_car_00_car5-airplane3.png
subject-08,1,682,0.779201030731201,car,car,0,0682_scg_s08_0_car_00_car5-truck3.png
subject-08,1,683,0.780474901199341,clock,clock,0,0683_scg_s08_0_clock_00_clock2-clock3.png
subject-08,1,684,0.89201807975769,bottle,bottle,0,0684_scg_s08_0_bottle_00_bottle8-dog2.png
subject-08,1,685,1.24922704696655,dog,dog,0,0685_scg_s08_0_dog_00_dog6-bird1.png
subject-08,1,686,0.728960990905762,chair,chair,0,0686_scg_s08_0_chair_00_chair7-clock3.png
subject-08,1,687,1.11646914482117,bottle,bottle,0,0687_scg_s08_0_bottle_00_bottle10-dog1.png
subject-08,1,688,0.876420974731445,dog,cat,0,0688_scg_s08_0_cat_00_cat9-cat3.png
subject-08,1,689,0.618636131286621,bicycle,bicycle,0,0689_scg_s08_0_bicycle_00_bicycle3-bird1.png
subject-08,1,690,0.608587026596069,bottle,bottle,0,0690_scg_s08_0_bottle_00_bottle9-car3.png
subject-08,1,691,0.782376050949097,chair,chair,0,0691_scg_s08_0_chair_00_chair1-airplane2.png
subject-08,1,692,0.967972040176392,bottle,bottle,0,0692_scg_s08_0_bottle_00_bottle4-truck1.png
subject-08,1,693,1.08002781867981,bird,dog,0,0693_scg_s08_0_dog_00_dog8-keyboard3.png
subject-08,1,694,0.685822010040283,bird,bird,0,0694_scg_s08_0_bird_00_bird10-cat1.png
subject-08,1,695,0.957796096801758,car,car,0,0695_scg_s08_0_car_00_car1-dog2.png
subject-08,1,696,0.619673013687134,chair,chair,0,0696_scg_s08_0_chair_00_chair9-chair3.png
subject-08,1,697,0.947471141815186,elephant,elephant,0,0697_scg_s08_0_elephant_00_elephant5-car1.png
subject-08,1,698,0.956744909286499,bird,bird,0,0698_scg_s08_0_bird_00_bird7-oven3.png
subject-08,1,699,0.976333141326904,clock,clock,0,0699_scg_s08_0_clock_00_clock10-cat1.png
subject-08,1,700,0.996086120605469,cat,cat,0,0700_scg_s08_0_cat_00_cat5-bicycle3.png
subject-08,1,701,1.15872311592102,keyboard,keyboard,0,0701_scg_s08_0_keyboard_00_keyboard7-oven2.png
subject-08,1,702,0.773429155349731,bird,bird,0,0702_scg_s08_0_bird_00_bird9-elephant2.png
subject-08,1,703,0.702058076858521,bicycle,bicycle,0,0703_scg_s08_0_bicycle_00_bicycle1-boat3.png
subject-08,1,704,0.918879985809326,elephant,elephant,0,0704_scg_s08_0_elephant_00_elephant8-bicycle3.png
subject-08,1,705,0.722544193267822,oven,oven,0,0705_scg_s08_0_oven_00_oven1-dog3.png
subject-08,1,706,0.828346014022827,keyboard,keyboard,0,0706_scg_s08_0_keyboard_00_keyboard2-clock1.png
subject-08,1,707,1.50031304359436,truck,truck,0,0707_scg_s08_0_truck_00_truck9-airplane2.png
subject-08,1,708,0.82763409614563,dog,dog,0,0708_scg_s08_0_dog_00_dog1-cat3.png
subject-08,1,709,0.837125062942505,bird,bird,0,0709_scg_s08_0_bird_00_bird5-airplane3.png
subject-08,1,710,0.826423168182373,knife,knife,0,0710_scg_s08_0_knife_00_knife9-bicycle1.png
subject-08,1,711,0.884439945220947,truck,truck,0,0711_scg_s08_0_truck_00_truck1-dog1.png
subject-08,1,712,0.696738958358765,elephant,elephant,0,0712_scg_s08_0_elephant_00_elephant8-dog1.png
subject-08,1,713,1.22762489318848,truck,truck,0,0713_scg_s08_0_truck_00_truck2-keyboard1.png
subject-08,1,714,1.32288193702698,dog,dog,0,0714_scg_s08_0_dog_00_dog4-keyboard2.png
subject-08,1,715,1.09691500663757,chair,chair,0,0715_scg_s08_0_chair_00_chair4-bear2.png
subject-08,1,716,1.41452097892761,cat,boat,0,0716_scg_s08_0_boat_00_boat7-bottle1.png
subject-08,1,717,0.835973978042603,bear,bear,0,0717_scg_s08_0_bear_00_bear9-boat2.png
subject-08,1,718,0.932657957077026,airplane,airplane,0,0718_scg_s08_0_airplane_00_airplane9-clock1.png
subject-08,1,719,1.14393281936646,bicycle,bicycle,0,0719_scg_s08_0_bicycle_00_bicycle1-oven1.png
subject-08,1,720,1.50026392936707,airplane,airplane,0,0720_scg_s08_0_airplane_00_airplane3-elephant1.png
subject-08,1,721,1.09805202484131,oven,boat,0,0721_scg_s08_0_boat_00_boat7-truck2.png
subject-08,1,722,0.747271060943604,keyboard,keyboard,0,0722_scg_s08_0_keyboard_00_keyboard7-boat2.png
subject-08,1,723,1.50032782554626,elephant,elephant,0,0723_scg_s08_0_elephant_00_elephant2-bottle3.png
subject-08,1,724,1.05453610420227,elephant,elephant,0,0724_scg_s08_0_elephant_00_elephant3-keyboard2.png
subject-08,1,725,0.704005002975464,bottle,bottle,0,0725_scg_s08_0_bottle_00_bottle9-oven2.png
subject-08,1,726,0.877848148345947,oven,car,0,0726_scg_s08_0_car_00_car1-oven3.png
subject-08,1,727,0.889721870422363,bird,boat,0,0727_scg_s08_0_boat_00_boat6-dog1.png
subject-08,1,728,0.977720975875854,airplane,airplane,0,0728_scg_s08_0_airplane_00_airplane10-dog3.png
subject-08,1,729,0.643667936325073,bear,bear,0,0729_scg_s08_0_bear_00_bear2-car2.png
subject-08,1,730,0.655600070953369,oven,oven,0,0730_scg_s08_0_oven_00_oven5-elephant1.png
subject-08,1,731,1.47244596481323,dog,dog,0,0731_scg_s08_0_dog_00_dog6-bicycle1.png
subject-08,1,732,0.67851710319519,oven,oven,0,0732_scg_s08_0_oven_00_oven3-bear2.png
subject-08,1,733,1.13457012176514,boat,airplane,0,0733_scg_s08_0_airplane_00_airplane2-bicycle1.png
subject-08,1,734,0.924176931381226,dog,dog,0,0734_scg_s08_0_dog_00_dog6-cat1.png
subject-08,1,735,0.990769147872925,dog,dog,0,0735_scg_s08_0_dog_00_dog1-car2.png
subject-08,1,736,0.894810914993286,airplane,airplane,0,0736_scg_s08_0_airplane_00_airplane1-chair2.png
subject-08,1,737,0.744333028793335,chair,chair,0,0737_scg_s08_0_chair_00_chair4-chair3.png
subject-08,1,738,1.04833316802979,bottle,bottle,0,0738_scg_s08_0_bottle_00_bottle5-elephant1.png
subject-08,1,739,0.575795888900757,bicycle,bicycle,0,0739_scg_s08_0_bicycle_00_bicycle1-bicycle3.png
subject-08,1,740,0.963886022567749,truck,truck,0,0740_scg_s08_0_truck_00_truck4-knife1.png
subject-08,1,741,0.821868896484375,clock,clock,0,0741_scg_s08_0_clock_00_clock10-truck2.png
subject-08,1,742,1.07143783569336,dog,dog,0,0742_scg_s08_0_dog_00_dog6-clock1.png
subject-08,1,743,0.829188108444214,bear,bear,0,0743_scg_s08_0_bear_00_bear7-bicycle2.png
subject-08,1,744,1.063068151474,dog,bird,0,0744_scg_s08_0_bird_00_bird1-keyboard3.png
subject-08,1,745,0.868623971939087,cat,cat,0,0745_scg_s08_0_cat_00_cat4-oven1.png
subject-08,1,746,0.832314968109131,bicycle,bicycle,0,0746_scg_s08_0_bicycle_00_bicycle2-knife2.png
subject-08,1,747,0.982084989547729,bear,bear,0,0747_scg_s08_0_bear_00_bear2-keyboard2.png
subject-08,1,748,0.66380500793457,chair,chair,0,0748_scg_s08_0_chair_00_chair2-boat1.png
subject-08,1,749,0.629769802093506,cat,cat,0,0749_scg_s08_0_cat_00_cat7-boat3.png
subject-08,1,750,1.01020908355713,chair,chair,0,0750_scg_s08_0_chair_00_chair7-bottle1.png
subject-08,1,751,0.884042978286743,bird,bird,0,0751_scg_s08_0_bird_00_bird8-clock1.png
subject-08,1,752,0.912101030349731,bicycle,bicycle,0,0752_scg_s08_0_bicycle_00_bicycle9-car1.png
subject-08,1,753,0.939785003662109,knife,knife,0,0753_scg_s08_0_knife_00_knife6-bicycle1.png
subject-08,1,754,0.832146883010864,truck,truck,0,0754_scg_s08_0_truck_00_truck5-bird2.png
subject-08,1,755,0.636292934417725,cat,cat,0,0755_scg_s08_0_cat_00_cat2-elephant1.png
subject-08,1,756,0.773236036300659,oven,oven,0,0756_scg_s08_0_oven_00_oven9-airplane2.png
subject-08,1,757,0.923322916030884,boat,bird,0,0757_scg_s08_0_bird_00_bird3-boat3.png
subject-08,1,758,0.772739171981812,bottle,bottle,0,0758_scg_s08_0_bottle_00_bottle8-keyboard3.png
subject-08,1,759,1.02184200286865,elephant,elephant,0,0759_scg_s08_0_elephant_00_elephant7-cat1.png
subject-08,1,760,0.749548196792603,boat,boat,0,0760_scg_s08_0_boat_00_boat10-truck1.png
subject-08,1,761,0.853083848953247,elephant,elephant,0,0761_scg_s08_0_elephant_00_elephant8-airplane3.png
subject-08,1,762,1.46310615539551,bottle,bottle,0,0762_scg_s08_0_bottle_00_bottle7-boat3.png
subject-08,1,763,0.731597900390625,oven,oven,0,0763_scg_s08_0_oven_00_oven7-keyboard1.png
subject-08,1,764,0.581451892852783,boat,boat,0,0764_scg_s08_0_boat_00_boat5-bicycle3.png
subject-08,1,765,0.990688800811768,airplane,airplane,0,0765_scg_s08_0_airplane_00_airplane10-oven2.png
subject-08,1,766,1.07046604156494,truck,truck,0,0766_scg_s08_0_truck_00_truck8-keyboard2.png
subject-08,1,767,0.637860059738159,oven,oven,0,0767_scg_s08_0_oven_00_oven4-car1.png
subject-08,1,768,0.684292078018188,chair,chair,0,0768_scg_s08_0_chair_00_chair7-airplane1.png
subject-08,1,769,1.17856216430664,dog,dog,0,0769_scg_s08_0_dog_00_dog8-chair3.png
subject-08,1,770,0.752394914627075,airplane,bird,0,0770_scg_s08_0_bird_00_bird6-bottle3.png
subject-08,1,771,0.610103130340576,clock,clock,0,0771_scg_s08_0_clock_00_clock4-elephant2.png
subject-08,1,772,0.675360918045044,keyboard,keyboard,0,0772_scg_s08_0_keyboard_00_keyboard4-cat2.png
subject-08,1,773,0.901571035385132,bicycle,bicycle,0,0773_scg_s08_0_bicycle_00_bicycle2-bottle1.png
subject-08,1,774,1.08141303062439,knife,knife,0,0774_scg_s08_0_knife_00_knife2-bird1.png
subject-08,1,775,1.10124182701111,dog,bear,0,0775_scg_s08_0_bear_00_bear6-boat3.png
subject-08,1,776,0.753116130828857,bear,bear,0,0776_scg_s08_0_bear_00_bear4-cat3.png
subject-08,1,777,0.788293123245239,oven,oven,0,0777_scg_s08_0_oven_00_oven7-dog2.png
subject-08,1,778,0.770273923873901,clock,clock,0,0778_scg_s08_0_clock_00_clock9-chair3.png
subject-08,1,779,1.07397389411926,knife,knife,0,0779_scg_s08_0_knife_00_knife4-knife2.png
subject-08,1,780,0.756240844726562,clock,clock,0,0780_scg_s08_0_clock_00_clock5-keyboard1.png
subject-08,1,781,0.822275876998901,elephant,elephant,0,0781_scg_s08_0_elephant_00_elephant8-bird2.png
subject-08,1,782,0.756553888320923,oven,oven,0,0782_scg_s08_0_oven_00_oven10-bicycle1.png
subject-08,1,783,0.860507011413574,bottle,bottle,0,0783_scg_s08_0_bottle_00_bottle10-car1.png
subject-08,1,784,0.796258926391602,cat,cat,0,0784_scg_s08_0_cat_00_cat7-clock3.png
subject-08,1,785,0.791988134384155,keyboard,keyboard,0,0785_scg_s08_0_keyboard_00_keyboard10-car1.png
subject-08,1,786,0.687120914459229,bottle,knife,0,0786_scg_s08_0_knife_00_knife9-bottle2.png
subject-08,1,787,1.17511200904846,chair,oven,0,0787_scg_s08_0_oven_00_oven7-bottle1.png
subject-08,1,788,0.749261856079102,bicycle,bicycle,0,0788_scg_s08_0_bicycle_00_bicycle4-bottle1.png
subject-08,1,789,1.01127600669861,truck,truck,0,0789_scg_s08_0_truck_00_truck3-chair2.png
subject-08,1,790,0.944431066513062,dog,dog,0,0790_scg_s08_0_dog_00_dog8-bear3.png
subject-08,1,791,NaN,na,elephant,0,0791_scg_s08_0_elephant_00_elephant10-keyboard1.png
subject-08,1,792,0.890345096588135,dog,dog,0,0792_scg_s08_0_dog_00_dog1-chair1.png
subject-08,1,793,0.872220993041992,dog,dog,0,0793_scg_s08_0_dog_00_dog10-clock1.png
subject-08,1,794,NaN,na,oven,0,0794_scg_s08_0_oven_00_oven2-truck3.png
subject-08,1,795,1.03961110115051,cat,cat,0,0795_scg_s08_0_cat_00_cat3-bicycle1.png
subject-08,1,796,1.15987777709961,truck,truck,0,0796_scg_s08_0_truck_00_truck3-clock3.png
subject-08,1,797,0.695305824279785,bottle,bottle,0,0797_scg_s08_0_bottle_00_bottle6-bear2.png
subject-08,1,798,0.798841953277588,bear,bear,0,0798_scg_s08_0_bear_00_bear2-elephant1.png
subject-08,1,799,0.702646017074585,clock,clock,0,0799_scg_s08_0_clock_00_clock5-airplane1.png
subject-08,1,800,0.81495213508606,bear,bear,0,0800_scg_s08_0_bear_00_bear4-knife1.png
subject-08,1,801,0.642356872558594,clock,clock,0,0801_scg_s08_0_clock_00_clock3-cat1.png
subject-08,1,802,0.868192911148071,chair,chair,0,0802_scg_s08_0_chair_00_chair10-clock1.png
subject-08,1,803,0.78818416595459,bicycle,bicycle,0,0803_scg_s08_0_bicycle_00_bicycle9-knife3.png
subject-08,1,804,0.998100996017456,bird,bird,0,0804_scg_s08_0_bird_00_bird5-cat2.png
subject-08,1,805,0.736977100372314,cat,cat,0,0805_scg_s08_0_cat_00_cat2-car3.png
subject-08,1,806,0.908125877380371,bicycle,bicycle,0,0806_scg_s08_0_bicycle_00_bicycle10-elephant2.png
subject-08,1,807,1.00346803665161,car,car,0,0807_scg_s08_0_car_00_car1-clock2.png
subject-08,1,808,0.777509927749634,car,car,0,0808_scg_s08_0_car_00_car9-keyboard2.png
subject-08,1,809,0.756996870040894,elephant,elephant,0,0809_scg_s08_0_elephant_00_elephant1-oven2.png
subject-08,1,810,0.614933967590332,boat,boat,0,0810_scg_s08_0_boat_00_boat2-oven3.png
subject-08,1,811,1.11835408210754,dog,dog,0,0811_scg_s08_0_dog_00_dog6-elephant2.png
subject-08,1,812,0.814956903457642,airplane,airplane,0,0812_scg_s08_0_airplane_00_airplane5-boat3.png
subject-08,1,813,0.704730987548828,cat,cat,0,0813_scg_s08_0_cat_00_cat5-dog3.png
subject-08,1,814,0.716578006744385,keyboard,keyboard,0,0814_scg_s08_0_keyboard_00_keyboard8-oven1.png
subject-08,1,815,0.703792810440063,cat,cat,0,0815_scg_s08_0_cat_00_cat5-knife2.png
subject-08,1,816,1.26787996292114,truck,airplane,0,0816_scg_s08_0_airplane_00_airplane4-truck2.png
subject-08,1,817,1.00856709480286,truck,truck,0,0817_scg_s08_0_truck_00_truck6-boat2.png
subject-08,1,818,0.87702488899231,boat,airplane,0,0818_scg_s08_0_airplane_00_airplane8-chair1.png
subject-08,1,819,NaN,na,knife,0,0819_scg_s08_0_knife_00_knife2-bear2.png
subject-08,1,820,0.852411985397339,dog,dog,0,0820_scg_s08_0_dog_00_dog4-elephant2.png
subject-08,1,821,0.63949179649353,clock,clock,0,0821_scg_s08_0_clock_00_clock4-chair1.png
subject-08,1,822,0.591531038284302,car,car,0,0822_scg_s08_0_car_00_car8-chair1.png
subject-08,1,823,0.655282974243164,oven,oven,0,0823_scg_s08_0_oven_00_oven10-boat2.png
subject-08,1,824,0.796777009963989,elephant,boat,0,0824_scg_s08_0_boat_00_boat7-chair1.png
subject-08,1,825,0.670214176177979,cat,cat,0,0825_scg_s08_0_cat_00_cat8-bird2.png
subject-08,1,826,0.733522891998291,bicycle,bicycle,0,0826_scg_s08_0_bicycle_00_bicycle7-clock3.png
subject-08,1,827,1.09960699081421,car,car,0,0827_scg_s08_0_car_00_car6-boat1.png
subject-08,1,828,0.751481771469116,car,car,0,0828_scg_s08_0_car_00_car7-oven2.png
subject-08,1,829,1.03146600723267,elephant,elephant,0,0829_scg_s08_0_elephant_00_elephant1-bear2.png
subject-08,1,830,0.964725971221924,elephant,elephant,0,0830_scg_s08_0_elephant_00_elephant8-boat2.png
subject-08,1,831,0.542114973068237,boat,boat,0,0831_scg_s08_0_boat_00_boat5-airplane1.png
subject-08,1,832,0.975821018218994,truck,truck,0,0832_scg_s08_0_truck_00_truck9-truck3.png
subject-08,1,833,0.717406034469604,bottle,bottle,0,0833_scg_s08_0_bottle_00_bottle8-bird1.png
subject-08,1,834,0.758902788162231,bear,bear,0,0834_scg_s08_0_bear_00_bear8-bicycle3.png
subject-08,1,835,0.757123947143555,boat,boat,0,0835_scg_s08_0_boat_00_boat1-truck3.png
subject-08,1,836,0.836735963821411,bicycle,bicycle,0,0836_scg_s08_0_bicycle_00_bicycle9-cat3.png
subject-08,1,837,1.16245794296265,boat,boat,0,0837_scg_s08_0_boat_00_boat4-elephant2.png
subject-08,1,838,0.706279039382935,chair,chair,0,0838_scg_s08_0_chair_00_chair9-bear1.png
subject-08,1,839,0.863991975784302,airplane,airplane,0,0839_scg_s08_0_airplane_00_airplane9-airplane2.png
subject-08,1,840,0.673430919647217,clock,clock,0,0840_scg_s08_0_clock_00_clock7-truck3.png
subject-08,1,841,1.20981597900391,chair,oven,0,0841_scg_s08_0_oven_00_oven7-oven1.png
subject-08,1,842,1.19042086601257,dog,dog,0,0842_scg_s08_0_dog_00_dog8-boat3.png
subject-08,1,843,0.739709854125977,oven,oven,0,0843_scg_s08_0_oven_00_oven4-keyboard3.png
subject-08,1,844,0.937644958496094,chair,chair,0,0844_scg_s08_0_chair_00_chair8-clock3.png
subject-08,1,845,0.649570941925049,bottle,bottle,0,0845_scg_s08_0_bottle_00_bottle10-truck3.png
subject-08,1,846,0.905007123947144,bottle,bottle,0,0846_scg_s08_0_bottle_00_bottle8-knife1.png
subject-08,1,847,0.916751146316528,airplane,airplane,0,0847_scg_s08_0_airplane_00_airplane4-knife1.png
subject-08,1,848,0.920426845550537,knife,knife,0,0848_scg_s08_0_knife_00_knife4-bear1.png
subject-08,1,849,0.769797086715698,elephant,elephant,0,0849_scg_s08_0_elephant_00_elephant1-chair1.png
subject-08,1,850,0.689855098724365,bicycle,bicycle,0,0850_scg_s08_0_bicycle_00_bicycle5-cat1.png
subject-08,1,851,1.12922787666321,bear,bear,0,0851_scg_s08_0_bear_00_bear10-truck1.png
subject-08,1,852,1.07270789146423,airplane,knife,0,0852_scg_s08_0_knife_00_knife1-airplane1.png
subject-08,1,853,1.17417907714844,bird,airplane,0,0853_scg_s08_0_airplane_00_airplane7-clock3.png
subject-08,1,854,0.80164909362793,oven,keyboard,0,0854_scg_s08_0_keyboard_00_keyboard7-truck2.png
subject-08,1,855,0.859368085861206,boat,boat,0,0855_scg_s08_0_boat_00_boat10-cat1.png
subject-08,1,856,0.91820216178894,bird,bird,0,0856_scg_s08_0_bird_00_bird8-chair1.png
subject-08,1,857,0.638107061386108,boat,boat,0,0857_scg_s08_0_boat_00_boat9-boat3.png
subject-08,1,858,0.833330154418945,elephant,elephant,0,0858_scg_s08_0_elephant_00_elephant5-chair3.png
subject-08,1,859,0.761240005493164,truck,truck,0,0859_scg_s08_0_truck_00_truck2-oven3.png
subject-08,1,860,0.872559070587158,elephant,elephant,0,0860_scg_s08_0_elephant_00_elephant8-oven3.png
subject-08,1,861,0.630825996398926,oven,oven,0,0861_scg_s08_0_oven_00_oven9-bird3.png
subject-08,1,862,0.848767995834351,airplane,airplane,0,0862_scg_s08_0_airplane_00_airplane8-oven2.png
subject-08,1,863,0.968027114868164,dog,dog,0,0863_scg_s08_0_dog_00_dog5-oven1.png
subject-08,1,864,1.03398299217224,bird,bird,0,0864_scg_s08_0_bird_00_bird8-keyboard2.png
subject-08,1,865,1.10590696334839,dog,bear,0,0865_scg_s08_0_bear_00_bear6-cat3.png
subject-08,1,866,0.687599182128906,truck,truck,0,0866_scg_s08_0_truck_00_truck3-bicycle1.png
subject-08,1,867,0.753424882888794,bicycle,bicycle,0,0867_scg_s08_0_bicycle_00_bicycle3-keyboard1.png
subject-08,1,868,1.07123303413391,bird,knife,0,0868_scg_s08_0_knife_00_knife6-bottle3.png
subject-08,1,869,0.820719957351685,truck,truck,0,0869_scg_s08_0_truck_00_truck3-cat1.png
subject-08,1,870,0.618285894393921,bear,bear,0,0870_scg_s08_0_bear_00_bear8-airplane1.png
subject-08,1,871,0.65514612197876,chair,chair,0,0871_scg_s08_0_chair_00_chair5-bicycle1.png
subject-08,1,872,0.635020971298218,boat,boat,0,0872_scg_s08_0_boat_00_boat4-chair2.png
subject-08,1,873,0.884908199310303,elephant,elephant,0,0873_scg_s08_0_elephant_00_elephant10-knife3.png
subject-08,1,874,0.712693929672241,bicycle,bicycle,0,0874_scg_s08_0_bicycle_00_bicycle1-bottle3.png
subject-08,1,875,0.841223001480103,airplane,airplane,0,0875_scg_s08_0_airplane_00_airplane4-bicycle2.png
subject-08,1,876,1.08881497383118,elephant,elephant,0,0876_scg_s08_0_elephant_00_elephant3-knife1.png
subject-08,1,877,0.678143978118896,clock,clock,0,0877_scg_s08_0_clock_00_clock10-airplane1.png
subject-08,1,878,0.673866987228394,boat,boat,0,0878_scg_s08_0_boat_00_boat1-bear1.png
subject-08,1,879,0.626312017440796,boat,boat,0,0879_scg_s08_0_boat_00_boat2-bird1.png
subject-08,1,880,0.792625188827515,car,car,0,0880_scg_s08_0_car_00_car5-keyboard3.png
subject-08,1,881,1.21043801307678,truck,truck,0,0881_scg_s08_0_truck_00_truck5-keyboard1.png
subject-08,1,882,0.716570854187012,clock,clock,0,0882_scg_s08_0_clock_00_clock6-truck3.png
subject-08,1,883,1.15041589736938,oven,oven,0,0883_scg_s08_0_oven_00_oven3-truck1.png
subject-08,1,884,1.0917661190033,knife,knife,0,0884_scg_s08_0_knife_00_knife1-keyboard3.png
subject-08,1,885,1.22854399681091,knife,knife,0,0885_scg_s08_0_knife_00_knife5-knife3.png
subject-08,1,886,0.742509126663208,bottle,bottle,0,0886_scg_s08_0_bottle_00_bottle10-bear2.png
subject-08,1,887,1.10638499259949,bottle,bottle,0,0887_scg_s08_0_bottle_00_bottle2-car2.png
subject-08,1,888,0.795818090438843,bottle,bird,0,0888_scg_s08_0_bird_00_bird3-bottle2.png
subject-08,1,889,1.50009989738464,airplane,airplane,0,0889_scg_s08_0_airplane_00_airplane5-bear2.png
subject-08,1,890,0.603143930435181,clock,clock,0,0890_scg_s08_0_clock_00_clock10-boat2.png
subject-08,1,891,0.807012796401978,bottle,bottle,0,0891_scg_s08_0_bottle_00_bottle1-chair2.png
subject-08,1,892,0.686843156814575,bottle,bottle,0,0892_scg_s08_0_bottle_00_bottle9-bicycle1.png
subject-08,1,893,0.836323022842407,keyboard,keyboard,0,0893_scg_s08_0_keyboard_00_keyboard6-car2.png
subject-08,1,894,0.953133106231689,boat,boat,0,0894_scg_s08_0_boat_00_boat3-dog3.png
subject-08,1,895,0.820825815200806,bicycle,bicycle,0,0895_scg_s08_0_bicycle_00_bicycle5-keyboard3.png
subject-08,1,896,0.716506004333496,airplane,airplane,0,0896_scg_s08_0_airplane_00_airplane4-airplane1.png
subject-08,1,897,0.836521863937378,cat,cat,0,0897_scg_s08_0_cat_00_cat2-cat1.png
subject-08,1,898,0.732447862625122,keyboard,keyboard,0,0898_scg_s08_0_keyboard_00_keyboard5-cat1.png
subject-08,1,899,1.15103912353516,chair,oven,0,0899_scg_s08_0_oven_00_oven7-elephant1.png
subject-08,1,900,0.840888023376465,boat,boat,0,0900_scg_s08_0_boat_00_boat3-chair3.png
subject-08,1,901,0.706857919692993,boat,boat,0,0901_scg_s08_0_boat_00_boat1-bird3.png
subject-08,1,902,0.65109395980835,cat,cat,0,0902_scg_s08_0_cat_00_cat9-clock2.png
subject-08,1,903,1.01387596130371,knife,knife,0,0903_scg_s08_0_knife_00_knife6-clock2.png
subject-08,1,904,0.763261079788208,dog,dog,0,0904_scg_s08_0_dog_00_dog4-truck2.png
subject-08,1,905,0.742881059646606,bicycle,bicycle,0,0905_scg_s08_0_bicycle_00_bicycle9-keyboard3.png
subject-08,1,906,0.970983028411865,elephant,elephant,0,0906_scg_s08_0_elephant_00_elephant7-keyboard3.png
subject-08,1,907,0.645080089569092,clock,clock,0,0907_scg_s08_0_clock_00_clock7-bear2.png
subject-08,1,908,0.557548046112061,bottle,bottle,0,0908_scg_s08_0_bottle_00_bottle9-truck1.png
subject-08,1,909,0.690966129302979,bicycle,bicycle,0,0909_scg_s08_0_bicycle_00_bicycle3-truck3.png
subject-08,1,910,0.903008937835693,bicycle,knife,0,0910_scg_s08_0_knife_00_knife7-car2.png
subject-08,1,911,0.660608053207397,clock,clock,0,0911_scg_s08_0_clock_00_clock1-bear1.png
subject-08,1,912,1.04329800605774,bird,bird,0,0912_scg_s08_0_bird_00_bird9-chair1.png
subject-08,1,913,0.77128005027771,cat,cat,0,0913_scg_s08_0_cat_00_cat6-oven1.png
subject-08,1,914,0.704476118087769,bottle,bottle,0,0914_scg_s08_0_bottle_00_bottle3-bear2.png
subject-08,1,915,1.18413209915161,truck,truck,0,0915_scg_s08_0_truck_00_truck5-airplane2.png
subject-08,1,916,0.987704992294312,elephant,elephant,0,0916_scg_s08_0_elephant_00_elephant5-bicycle3.png
subject-08,1,917,0.908933877944946,bird,airplane,0,0917_scg_s08_0_airplane_00_airplane8-bird1.png
subject-08,1,918,0.774899005889893,keyboard,keyboard,0,0918_scg_s08_0_keyboard_00_keyboard9-airplane3.png
subject-08,1,919,0.724740982055664,car,car,0,0919_scg_s08_0_car_00_car9-knife1.png
subject-08,1,920,0.999054193496704,bear,bear,0,0920_scg_s08_0_bear_00_bear2-cat2.png
subject-08,1,921,0.710932970046997,oven,oven,0,0921_scg_s08_0_oven_00_oven8-knife2.png
subject-08,1,922,0.922895908355713,oven,airplane,0,0922_scg_s08_0_airplane_00_airplane8-truck3.png
subject-08,1,923,1.33291912078857,boat,boat,0,0923_scg_s08_0_boat_00_boat7-clock3.png
subject-08,1,924,1.00674796104431,truck,truck,0,0924_scg_s08_0_truck_00_truck10-elephant3.png
subject-08,1,925,1.39428281784058,cat,cat,0,0925_scg_s08_0_cat_00_cat1-bird1.png
subject-08,1,926,0.906415939331055,boat,keyboard,0,0926_scg_s08_0_keyboard_00_keyboard2-knife1.png
subject-08,1,927,0.658307075500488,chair,chair,0,0927_scg_s08_0_chair_00_chair9-bird3.png
subject-08,1,928,1.36795806884766,boat,cat,0,0928_scg_s08_0_cat_00_cat10-keyboard1.png
subject-08,1,929,0.711590051651001,chair,chair,0,0929_scg_s08_0_chair_00_chair10-bird3.png
subject-08,1,930,1.19723892211914,bicycle,bicycle,0,0930_scg_s08_0_bicycle_00_bicycle5-dog2.png
subject-08,1,931,1.04920411109924,truck,truck,0,0931_scg_s08_0_truck_00_truck6-bear2.png
subject-08,1,932,0.998946905136108,cat,dog,0,0932_scg_s08_0_dog_00_dog3-elephant2.png
subject-08,1,933,1.13322997093201,bird,bird,0,0933_scg_s08_0_bird_00_bird4-clock1.png
subject-08,1,934,0.739474058151245,bird,bird,0,0934_scg_s08_0_bird_00_bird9-keyboard1.png
subject-08,1,935,0.665305852890015,bicycle,bicycle,0,0935_scg_s08_0_bicycle_00_bicycle7-elephant2.png
subject-08,1,936,0.722965002059937,chair,chair,0,0936_scg_s08_0_chair_00_chair1-dog1.png
subject-08,1,937,0.918488025665283,oven,oven,0,0937_scg_s08_0_oven_00_oven9-chair1.png
subject-08,1,938,0.852032899856567,chair,chair,0,0938_scg_s08_0_chair_00_chair6-dog1.png
subject-08,1,939,0.8888840675354,keyboard,keyboard,0,0939_scg_s08_0_keyboard_00_keyboard6-knife2.png
subject-08,1,940,0.685261011123657,bicycle,bicycle,0,0940_scg_s08_0_bicycle_00_bicycle1-truck1.png
subject-08,1,941,0.879570960998535,truck,truck,0,0941_scg_s08_0_truck_00_truck6-clock2.png
subject-08,1,942,1.02710318565369,boat,boat,0,0942_scg_s08_0_boat_00_boat9-cat3.png
subject-08,1,943,1.19277477264404,dog,dog,0,0943_scg_s08_0_dog_00_dog3-knife3.png
subject-08,1,944,0.705370187759399,chair,chair,0,0944_scg_s08_0_chair_00_chair7-knife2.png
subject-08,1,945,1.31486511230469,dog,dog,0,0945_scg_s08_0_dog_00_dog5-truck2.png
subject-08,1,946,0.574700832366943,clock,clock,0,0946_scg_s08_0_clock_00_clock2-bear2.png
subject-08,1,947,1.02488994598389,bottle,bottle,0,0947_scg_s08_0_bottle_00_bottle9-bottle1.png
subject-08,1,948,0.670500993728638,bottle,bottle,0,0948_scg_s08_0_bottle_00_bottle4-car3.png
subject-08,1,949,0.950148820877075,truck,truck,0,0949_scg_s08_0_truck_00_truck7-oven2.png
subject-08,1,950,1.03764486312866,chair,oven,0,0950_scg_s08_0_oven_00_oven6-airplane3.png
subject-08,1,951,0.618631839752197,clock,clock,0,0951_scg_s08_0_clock_00_clock8-cat1.png
subject-08,1,952,1.09046196937561,airplane,knife,0,0952_scg_s08_0_knife_00_knife1-clock2.png
subject-08,1,953,0.759779930114746,bicycle,bicycle,0,0953_scg_s08_0_bicycle_00_bicycle4-car2.png
subject-08,1,954,0.777220964431763,boat,boat,0,0954_scg_s08_0_boat_00_boat5-boat3.png
subject-08,1,955,0.772890090942383,chair,chair,0,0955_scg_s08_0_chair_00_chair8-bear1.png
subject-08,1,956,1.49058198928833,airplane,airplane,0,0956_scg_s08_0_airplane_00_airplane5-oven3.png
subject-08,1,957,0.596779823303223,boat,boat,0,0957_scg_s08_0_boat_00_boat3-car3.png
subject-08,1,958,0.709120988845825,keyboard,keyboard,0,0958_scg_s08_0_keyboard_00_keyboard3-boat1.png
subject-08,1,959,1.00465989112854,car,car,0,0959_scg_s08_0_car_00_car8-cat1.png
subject-08,1,960,1.04601001739502,truck,truck,0,0960_scg_s08_0_truck_00_truck1-chair2.png
subject-08,1,961,0.790589094161987,chair,chair,0,0961_scg_s08_0_chair_00_chair9-keyboard2.png
subject-08,1,962,1.18370914459229,truck,truck,0,0962_scg_s08_0_truck_00_truck1-clock3.png
subject-08,1,963,0.773584127426147,dog,boat,0,0963_scg_s08_0_boat_00_boat7-cat3.png
subject-08,1,964,1.06878304481506,chair,chair,0,0964_scg_s08_0_chair_00_chair9-bottle3.png
subject-08,1,965,0.656904935836792,chair,chair,0,0965_scg_s08_0_chair_00_chair3-knife1.png
subject-08,1,966,0.59260892868042,bear,bear,0,0966_scg_s08_0_bear_00_bear8-boat2.png
subject-08,1,967,1.24040293693542,dog,bottle,0,0967_scg_s08_0_bottle_00_bottle7-cat2.png
subject-08,1,968,0.776112079620361,cat,cat,0,0968_scg_s08_0_cat_00_cat10-bird2.png
subject-08,1,969,0.986246109008789,chair,bottle,0,0969_scg_s08_0_bottle_00_bottle7-oven2.png
subject-08,1,970,1.03588891029358,bird,bird,0,0970_scg_s08_0_bird_00_bird10-clock1.png
subject-08,1,971,0.717641830444336,airplane,airplane,0,0971_scg_s08_0_airplane_00_airplane7-bottle3.png
subject-08,1,972,0.875043869018555,airplane,knife,0,0972_scg_s08_0_knife_00_knife2-car3.png
subject-08,1,973,0.632648944854736,clock,clock,0,0973_scg_s08_0_clock_00_clock8-airplane2.png
subject-08,1,974,0.712949991226196,cat,cat,0,0974_scg_s08_0_cat_00_cat4-clock2.png
subject-08,1,975,0.762634992599487,dog,dog,0,0975_scg_s08_0_dog_00_dog4-oven1.png
subject-08,1,976,0.536196947097778,oven,oven,0,0976_scg_s08_0_oven_00_oven9-clock2.png
subject-08,1,977,0.894167900085449,chair,keyboard,0,0977_scg_s08_0_keyboard_00_keyboard10-oven3.png
subject-08,1,978,1.02849578857422,dog,dog,0,0978_scg_s08_0_dog_00_dog7-keyboard3.png
subject-08,1,979,0.865272998809814,bicycle,bicycle,0,0979_scg_s08_0_bicycle_00_bicycle5-oven3.png
subject-08,1,980,1.2912220954895,chair,knife,0,0980_scg_s08_0_knife_00_knife1-oven1.png
subject-08,1,981,0.873598098754883,bear,bear,0,0981_scg_s08_0_bear_00_bear10-cat2.png
subject-08,1,982,0.715700149536133,truck,truck,0,0982_scg_s08_0_truck_00_truck7-bird2.png
subject-08,1,983,0.658687829971313,bicycle,bicycle,0,0983_scg_s08_0_bicycle_00_bicycle8-bird2.png
subject-08,1,984,1.50003910064697,cat,cat,0,0984_scg_s08_0_cat_00_cat8-bear1.png
subject-08,1,985,0.796228885650635,truck,truck,0,0985_scg_s08_0_truck_00_truck7-bear2.png
subject-08,1,986,0.569830179214478,clock,clock,0,0986_scg_s08_0_clock_00_clock7-bottle2.png
subject-08,1,987,0.749806880950928,airplane,airplane,0,0987_scg_s08_0_airplane_00_airplane6-chair3.png
subject-08,1,988,0.745601892471313,truck,truck,0,0988_scg_s08_0_truck_00_truck9-chair3.png
subject-08,1,989,1.10348200798035,knife,knife,0,0989_scg_s08_0_knife_00_knife2-dog1.png
subject-08,1,990,0.823678970336914,bird,bird,0,0990_scg_s08_0_bird_00_bird5-car2.png
subject-08,1,991,1.24940490722656,knife,boat,0,0991_scg_s08_0_boat_00_boat8-oven1.png
subject-08,1,992,1.29169201850891,oven,knife,0,0992_scg_s08_0_knife_00_knife2-truck2.png
subject-08,1,993,0.635678052902222,bicycle,bicycle,0,0993_scg_s08_0_bicycle_00_bicycle4-chair2.png
subject-08,1,994,0.561745882034302,chair,chair,0,0994_scg_s08_0_chair_00_chair7-boat3.png
subject-08,1,995,0.790596008300781,bottle,bottle,0,0995_scg_s08_0_bottle_00_bottle5-clock3.png
subject-08,1,996,0.832170963287354,cat,cat,0,0996_scg_s08_0_cat_00_cat9-dog2.png
subject-08,1,997,0.622378826141357,clock,clock,0,0997_scg_s08_0_clock_00_clock6-knife2.png
subject-08,1,998,0.748459100723267,oven,oven,0,0998_scg_s08_0_oven_00_oven3-bottle3.png
subject-08,1,999,0.583412885665894,clock,clock,0,0999_scg_s08_0_clock_00_clock1-boat3.png
subject-08,1,1000,1.00085401535034,knife,truck,0,1000_scg_s08_0_truck_00_truck3-keyboard3.png
subject-08,1,1001,1.19477295875549,knife,knife,0,1001_scg_s08_0_knife_00_knife5-oven2.png
subject-08,1,1002,0.930510997772217,car,car,0,1002_scg_s08_0_car_00_car5-oven2.png
subject-08,1,1003,1.12598490715027,boat,boat,0,1003_scg_s08_0_boat_00_boat3-cat3.png
subject-08,1,1004,0.605376958847046,oven,oven,0,1004_scg_s08_0_oven_00_oven2-chair1.png
subject-08,1,1005,0.825462102890015,bird,bird,0,1005_scg_s08_0_bird_00_bird6-boat2.png
subject-08,1,1006,0.699018955230713,bottle,bottle,0,1006_scg_s08_0_bottle_00_bottle3-airplane2.png
subject-08,1,1007,0.732834100723267,bird,dog,0,1007_scg_s08_0_dog_00_dog2-bicycle2.png
subject-08,1,1008,0.927994966506958,knife,boat,0,1008_scg_s08_0_boat_00_boat4-knife2.png
subject-08,1,1009,0.878412961959839,bird,bird,0,1009_scg_s08_0_bird_00_bird1-airplane2.png
subject-08,1,1010,0.88237190246582,car,car,0,1010_scg_s08_0_car_00_car1-keyboard2.png
subject-08,1,1011,0.625921964645386,clock,clock,0,1011_scg_s08_0_clock_00_clock9-cat1.png
subject-08,1,1012,0.527018070220947,oven,oven,0,1012_scg_s08_0_oven_00_oven1-boat3.png
subject-08,1,1013,0.768836975097656,keyboard,keyboard,0,1013_scg_s08_0_keyboard_00_keyboard8-airplane2.png
subject-08,1,1014,1.38711905479431,elephant,elephant,0,1014_scg_s08_0_elephant_00_elephant6-oven1.png
subject-08,1,1015,0.538422107696533,bicycle,bicycle,0,1015_scg_s08_0_bicycle_00_bicycle1-dog3.png
subject-08,1,1016,0.717882871627808,bear,bear,0,1016_scg_s08_0_bear_00_bear5-airplane3.png
subject-08,1,1017,1.18415999412537,airplane,airplane,0,1017_scg_s08_0_airplane_00_airplane5-knife1.png
subject-08,1,1018,0.879606962203979,bear,bear,0,1018_scg_s08_0_bear_00_bear2-dog1.png
subject-08,1,1019,0.799192190170288,boat,boat,0,1019_scg_s08_0_boat_00_boat8-dog3.png
subject-08,1,1020,0.765151977539062,chair,chair,0,1020_scg_s08_0_chair_00_chair8-keyboard3.png
subject-08,1,1021,0.790940046310425,bird,bird,0,1021_scg_s08_0_bird_00_bird10-elephant2.png
subject-08,1,1022,0.732353925704956,cat,cat,0,1022_scg_s08_0_cat_00_cat9-chair2.png
subject-08,1,1023,1.24985289573669,car,airplane,0,1023_scg_s08_0_airplane_00_airplane5-bird2.png
subject-08,1,1024,0.832737922668457,cat,cat,0,1024_scg_s08_0_cat_00_cat2-boat2.png
subject-08,1,1025,0.784014225006104,bird,bird,0,1025_scg_s08_0_bird_00_bird1-bear1.png
subject-08,1,1026,0.750164985656738,chair,chair,0,1026_scg_s08_0_chair_00_chair2-knife1.png
subject-08,1,1027,0.935662031173706,oven,cat,0,1027_scg_s08_0_cat_00_cat10-oven2.png
subject-08,1,1028,0.847292900085449,car,car,0,1028_scg_s08_0_car_00_car3-boat1.png
subject-08,1,1029,1.49504089355469,keyboard,car,0,1029_scg_s08_0_car_00_car4-oven2.png
subject-08,1,1030,0.830518007278442,airplane,airplane,0,1030_scg_s08_0_airplane_00_airplane6-keyboard3.png
subject-08,1,1031,1.11893105506897,airplane,airplane,0,1031_scg_s08_0_airplane_00_airplane9-knife3.png
subject-08,1,1032,1.15246319770813,bird,knife,0,1032_scg_s08_0_knife_00_knife1-truck2.png
subject-08,1,1033,0.918553113937378,elephant,elephant,0,1033_scg_s08_0_elephant_00_elephant4-boat3.png
subject-08,1,1034,1.17351102828979,clock,clock,0,1034_scg_s08_0_clock_00_clock9-airplane1.png
subject-08,1,1035,1.06338596343994,chair,oven,0,1035_scg_s08_0_oven_00_oven7-clock2.png
subject-08,1,1036,0.659365892410278,clock,clock,0,1036_scg_s08_0_clock_00_clock3-bird1.png
subject-08,1,1037,1.10926389694214,dog,dog,0,1037_scg_s08_0_dog_00_dog10-truck2.png
subject-08,1,1038,1.01359009742737,bird,bear,0,1038_scg_s08_0_bear_00_bear6-car2.png
subject-08,1,1039,NaN,na,chair,0,1039_scg_s08_0_chair_00_chair4-oven2.png
subject-08,1,1040,0.980571985244751,car,car,0,1040_scg_s08_0_car_00_car8-bear1.png
subject-08,1,1041,0.712743997573853,dog,dog,0,1041_scg_s08_0_dog_00_dog3-dog1.png
subject-08,1,1042,0.800202131271362,keyboard,keyboard,0,1042_scg_s08_0_keyboard_00_keyboard9-boat2.png
subject-08,1,1043,1.02024292945862,bird,knife,0,1043_scg_s08_0_knife_00_knife2-bicycle3.png
subject-08,1,1044,0.883573055267334,knife,knife,0,1044_scg_s08_0_knife_00_knife10-knife1.png
subject-08,1,1045,0.855233192443848,car,car,0,1045_scg_s08_0_car_00_car4-car2.png
subject-08,1,1046,0.666460990905762,keyboard,keyboard,0,1046_scg_s08_0_keyboard_00_keyboard3-clock3.png
subject-08,1,1047,0.832212924957275,oven,oven,0,1047_scg_s08_0_oven_00_oven3-car2.png
subject-08,1,1048,0.527934074401855,clock,clock,0,1048_scg_s08_0_clock_00_clock10-dog3.png
subject-08,1,1049,0.764420986175537,cat,cat,0,1049_scg_s08_0_cat_00_cat2-truck3.png
subject-08,1,1050,0.990509986877441,truck,truck,0,1050_scg_s08_0_truck_00_truck1-cat1.png
subject-08,1,1051,0.835217952728271,keyboard,keyboard,0,1051_scg_s08_0_keyboard_00_keyboard7-car3.png
subject-08,1,1052,1.26108598709106,airplane,airplane,0,1052_scg_s08_0_airplane_00_airplane10-car3.png
subject-08,1,1053,0.950922966003418,airplane,airplane,0,1053_scg_s08_0_airplane_00_airplane7-bird3.png
subject-08,1,1054,0.943167924880981,cat,cat,0,1054_scg_s08_0_cat_00_cat1-boat1.png
subject-08,1,1055,0.938852071762085,cat,cat,0,1055_scg_s08_0_cat_00_cat5-boat1.png
subject-08,1,1056,1.24353218078613,boat,boat,0,1056_scg_s08_0_boat_00_boat10-oven1.png
subject-08,1,1057,1.06305384635925,knife,knife,0,1057_scg_s08_0_knife_00_knife8-cat2.png
subject-08,1,1058,1.11284494400024,bicycle,bicycle,0,1058_scg_s08_0_bicycle_00_bicycle7-cat1.png
subject-08,1,1059,0.540560007095337,cat,cat,0,1059_scg_s08_0_cat_00_cat4-bird2.png
subject-08,1,1060,0.874996900558472,elephant,elephant,0,1060_scg_s08_0_elephant_00_elephant6-bicycle1.png
subject-08,1,1061,0.754254102706909,bear,bear,0,1061_scg_s08_0_bear_00_bear8-elephant2.png
subject-08,1,1062,1.34173798561096,truck,truck,0,1062_scg_s08_0_truck_00_truck3-car3.png
subject-08,1,1063,0.937373161315918,truck,truck,0,1063_scg_s08_0_truck_00_truck10-truck3.png
subject-08,1,1064,0.656948089599609,keyboard,keyboard,0,1064_scg_s08_0_keyboard_00_keyboard1-bird2.png
subject-08,1,1065,1.02346706390381,bicycle,bicycle,0,1065_scg_s08_0_bicycle_00_bicycle4-knife3.png
subject-08,1,1066,1.12786602973938,airplane,airplane,0,1066_scg_s08_0_airplane_00_airplane8-bicycle3.png
subject-08,1,1067,0.747683048248291,chair,chair,0,1067_scg_s08_0_chair_00_chair8-elephant1.png
subject-08,1,1068,0.898745059967041,elephant,elephant,0,1068_scg_s08_0_elephant_00_elephant3-cat2.png
subject-08,1,1069,0.648505926132202,bear,bear,0,1069_scg_s08_0_bear_00_bear4-oven2.png
subject-08,1,1070,0.927572011947632,bird,bird,0,1070_scg_s08_0_bird_00_bird3-bear3.png
subject-08,1,1071,0.639102935791016,cat,cat,0,1071_scg_s08_0_cat_00_cat9-bird3.png
subject-08,1,1072,0.872832059860229,knife,knife,0,1072_scg_s08_0_knife_00_knife4-boat1.png
subject-08,1,1073,1.20982193946838,airplane,airplane,0,1073_scg_s08_0_airplane_00_airplane10-knife3.png
subject-08,1,1074,0.906077861785889,bottle,bottle,0,1074_scg_s08_0_bottle_00_bottle5-airplane1.png
subject-08,1,1075,0.649168014526367,bicycle,bicycle,0,1075_scg_s08_0_bicycle_00_bicycle1-bird1.png
subject-08,1,1076,0.859214067459106,bottle,dog,0,1076_scg_s08_0_dog_00_dog2-bottle2.png
subject-08,1,1077,0.870788097381592,bear,bear,0,1077_scg_s08_0_bear_00_bear3-bicycle2.png
subject-08,1,1078,0.874526023864746,bottle,bird,0,1078_scg_s08_0_bird_00_bird3-knife3.png
subject-08,1,1079,1.20060300827026,airplane,airplane,0,1079_scg_s08_0_airplane_00_airplane10-cat2.png
subject-08,1,1080,0.958904027938843,truck,truck,0,1080_scg_s08_0_truck_00_truck2-chair1.png
subject-08,1,1081,0.656487941741943,keyboard,keyboard,0,1081_scg_s08_0_keyboard_00_keyboard1-car3.png
subject-08,1,1082,0.706101894378662,chair,chair,0,1082_scg_s08_0_chair_00_chair5-clock2.png
subject-08,1,1083,0.87804102897644,car,car,0,1083_scg_s08_0_car_00_car2-cat3.png
subject-08,1,1084,0.719506978988647,bottle,boat,0,1084_scg_s08_0_boat_00_boat2-bottle2.png
subject-08,1,1085,1.16120409965515,dog,dog,0,1085_scg_s08_0_dog_00_dog1-boat3.png
subject-08,1,1086,0.780761957168579,bird,bird,0,1086_scg_s08_0_bird_00_bird10-bird2.png
subject-08,1,1087,0.744370222091675,oven,oven,0,1087_scg_s08_0_oven_00_oven5-bottle3.png
subject-08,1,1088,0.76488995552063,bicycle,bicycle,0,1088_scg_s08_0_bicycle_00_bicycle5-car3.png
subject-08,1,1089,1.02323389053345,bicycle,bicycle,0,1089_scg_s08_0_bicycle_00_bicycle6-cat1.png
subject-08,1,1090,1.20497989654541,bicycle,bicycle,0,1090_scg_s08_0_bicycle_00_bicycle4-cat1.png
subject-08,1,1091,1.22307395935059,airplane,airplane,0,1091_scg_s08_0_airplane_00_airplane8-clock2.png
subject-08,1,1092,1.25667405128479,truck,truck,0,1092_scg_s08_0_truck_00_truck6-knife2.png
subject-08,1,1093,0.938504934310913,dog,dog,0,1093_scg_s08_0_dog_00_dog3-bird2.png
subject-08,1,1094,0.871922969818115,bear,bear,0,1094_scg_s08_0_bear_00_bear10-clock1.png
subject-08,1,1095,0.707931041717529,bird,bird,0,1095_scg_s08_0_bird_00_bird7-cat3.png
