subj,session,trial,rt,object_response,category,condition,imagename
subject-05,1,1,0.865018844604492,clock,bottle,0,0001_scg_s05_0_bottle_00_bottle7-truck2.png
subject-05,1,2,0.816479206085205,bottle,bottle,0,0002_scg_s05_0_bottle_00_bottle1-bear1.png
subject-05,1,3,0.814805030822754,car,cat,0,0003_scg_s05_0_cat_00_cat3-truck3.png
subject-05,1,4,NaN,na,knife,0,0004_scg_s05_0_knife_00_knife3-keyboard3.png
subject-05,1,5,1.06360697746277,bicycle,bicycle,0,0005_scg_s05_0_bicycle_00_bicycle5-bear1.png
subject-05,1,6,0.632177829742432,cat,cat,0,0006_scg_s05_0_cat_00_cat1-oven1.png
subject-05,1,7,0.79121994972229,keyboard,keyboard,0,0007_scg_s05_0_keyboard_00_keyboard1-chair2.png
subject-05,1,8,1.26510190963745,elephant,elephant,0,0008_scg_s05_0_elephant_00_elephant5-chair3.png
subject-05,1,9,0.786846876144409,bear,elephant,0,0009_scg_s05_0_elephant_00_elephant8-dog1.png
subject-05,1,10,0.924804925918579,keyboard,keyboard,0,0010_scg_s05_0_keyboard_00_keyboard4-knife2.png
subject-05,1,11,1.16830992698669,bird,airplane,0,0011_scg_s05_0_airplane_00_airplane4-elephant1.png
subject-05,1,12,0.828320980072021,keyboard,oven,0,0012_scg_s05_0_oven_00_oven8-chair1.png
subject-05,1,13,0.788116931915283,bird,bird,0,0013_scg_s05_0_bird_00_bird6-elephant2.png
subject-05,1,14,0.926508188247681,bicycle,bicycle,0,0014_scg_s05_0_bicycle_00_bicycle7-knife2.png
subject-05,1,15,1.21720600128174,airplane,airplane,0,0015_scg_s05_0_airplane_00_airplane7-car1.png
subject-05,1,16,0.701197147369385,car,car,0,0016_scg_s05_0_car_00_car7-oven2.png
subject-05,1,17,1.03676605224609,knife,knife,0,0017_scg_s05_0_knife_00_knife2-elephant2.png
subject-05,1,18,0.942322969436646,bear,bear,0,0018_scg_s05_0_bear_00_bear3-dog3.png
subject-05,1,19,0.742646932601929,bottle,bottle,0,0019_scg_s05_0_bottle_00_bottle6-bicycle3.png
subject-05,1,20,0.632122039794922,clock,clock,0,0020_scg_s05_0_clock_00_clock9-bird2.png
subject-05,1,21,1.28518605232239,car,truck,0,0021_scg_s05_0_truck_00_truck3-clock3.png
subject-05,1,22,1.34820699691772,chair,elephant,0,0022_scg_s05_0_elephant_00_elephant10-knife3.png
subject-05,1,23,0.686672925949097,airplane,airplane,0,0023_scg_s05_0_airplane_00_airplane10-dog3.png
subject-05,1,24,0.666223049163818,bottle,bottle,0,0024_scg_s05_0_bottle_00_bottle7-elephant2.png
subject-05,1,25,0.710336923599243,oven,oven,0,0025_scg_s05_0_oven_00_oven2-bear3.png
subject-05,1,26,0.891613006591797,bird,bird,0,0026_scg_s05_0_bird_00_bird7-bottle1.png
subject-05,1,27,0.784080028533936,bird,bird,0,0027_scg_s05_0_bird_00_bird6-car3.png
subject-05,1,28,0.751697063446045,bird,boat,0,0028_scg_s05_0_boat_00_boat10-bear3.png
subject-05,1,29,0.733365058898926,cat,cat,0,0029_scg_s05_0_cat_00_cat5-dog3.png
subject-05,1,30,0.792562007904053,airplane,airplane,0,0030_scg_s05_0_airplane_00_airplane4-airplane1.png
subject-05,1,31,0.870061874389648,bottle,keyboard,0,0031_scg_s05_0_keyboard_00_keyboard1-elephant3.png
subject-05,1,32,0.767303943634033,bicycle,bicycle,0,0032_scg_s05_0_bicycle_00_bicycle5-chair2.png
subject-05,1,33,0.920089960098267,chair,chair,0,0033_scg_s05_0_chair_00_chair3-knife1.png
subject-05,1,34,1.34173178672791,elephant,elephant,0,0034_scg_s05_0_elephant_00_elephant10-bear1.png
subject-05,1,35,1.0711190700531,knife,knife,0,0035_scg_s05_0_knife_00_knife2-bear2.png
subject-05,1,36,0.677478075027466,bottle,bottle,0,0036_scg_s05_0_bottle_00_bottle9-elephant2.png
subject-05,1,37,0.784144878387451,truck,truck,0,0037_scg_s05_0_truck_00_truck6-bicycle1.png
subject-05,1,38,0.813182830810547,bird,bird,0,0038_scg_s05_0_bird_00_bird3-cat1.png
subject-05,1,39,0.712135076522827,bottle,bottle,0,0039_scg_s05_0_bottle_00_bottle10-dog1.png
subject-05,1,40,0.896206855773926,dog,dog,0,0040_scg_s05_0_dog_00_dog5-boat3.png
subject-05,1,41,0.840817928314209,truck,truck,0,0041_scg_s05_0_truck_00_truck6-knife2.png
subject-05,1,42,0.832775115966797,dog,dog,0,0042_scg_s05_0_dog_00_dog9-bottle1.png
subject-05,1,43,0.722893953323364,clock,clock,0,0043_scg_s05_0_clock_00_clock5-chair3.png
subject-05,1,44,0.839278936386108,bicycle,bicycle,0,0044_scg_s05_0_bicycle_00_bicycle5-bottle3.png
subject-05,1,45,0.799225091934204,bear,bear,0,0045_scg_s05_0_bear_00_bear5-airplane3.png
subject-05,1,46,0.818902969360352,oven,oven,0,0046_scg_s05_0_oven_00_oven6-bicycle1.png
subject-05,1,47,0.870400905609131,knife,boat,0,0047_scg_s05_0_boat_00_boat2-bird1.png
subject-05,1,48,0.701001882553101,oven,oven,0,0048_scg_s05_0_oven_00_oven4-chair1.png
subject-05,1,49,0.990161180496216,knife,boat,0,0049_scg_s05_0_boat_00_boat2-bear3.png
subject-05,1,50,1.23441791534424,knife,boat,0,0050_scg_s05_0_boat_00_boat8-elephant1.png
subject-05,1,51,0.725478172302246,clock,clock,0,0051_scg_s05_0_clock_00_clock8-truck2.png
subject-05,1,52,0.852368116378784,bottle,truck,0,0052_scg_s05_0_truck_00_truck3-keyboard3.png
subject-05,1,53,0.813043117523193,bear,bear,0,0053_scg_s05_0_bear_00_bear2-car2.png
subject-05,1,54,0.602509021759033,oven,oven,0,0054_scg_s05_0_oven_00_oven5-dog3.png
subject-05,1,55,0.916376113891602,bicycle,bicycle,0,0055_scg_s05_0_bicycle_00_bicycle8-clock3.png
subject-05,1,56,0.884823083877563,knife,knife,0,0056_scg_s05_0_knife_00_knife10-elephant3.png
subject-05,1,57,0.844204902648926,bottle,bottle,0,0057_scg_s05_0_bottle_00_bottle8-bottle3.png
subject-05,1,58,0.718262910842896,cat,cat,0,0058_scg_s05_0_cat_00_cat6-chair3.png
subject-05,1,59,0.986672163009644,dog,dog,0,0059_scg_s05_0_dog_00_dog2-cat1.png
subject-05,1,60,1.37941098213196,boat,boat,0,0060_scg_s05_0_boat_00_boat6-clock2.png
subject-05,1,61,0.748162031173706,cat,bear,0,0061_scg_s05_0_bear_00_bear6-cat3.png
subject-05,1,62,0.577208042144775,cat,cat,0,0062_scg_s05_0_cat_00_cat2-car3.png
subject-05,1,63,0.905132055282593,truck,bird,0,0063_scg_s05_0_bird_00_bird1-chair2.png
subject-05,1,64,0.804228067398071,oven,oven,0,0064_scg_s05_0_oven_00_oven8-cat3.png
subject-05,1,65,0.628703832626343,cat,cat,0,0065_scg_s05_0_cat_00_cat1-chair2.png
subject-05,1,66,0.832161903381348,car,car,0,0066_scg_s05_0_car_00_car9-truck3.png
subject-05,1,67,0.623929977416992,chair,chair,0,0067_scg_s05_0_chair_00_chair8-bicycle3.png
subject-05,1,68,0.776324987411499,car,car,0,0068_scg_s05_0_car_00_car9-bicycle2.png
subject-05,1,69,0.650352954864502,bottle,bottle,0,0069_scg_s05_0_bottle_00_bottle4-bicycle1.png
subject-05,1,70,0.826169967651367,oven,bear,0,0070_scg_s05_0_bear_00_bear6-bottle3.png
subject-05,1,71,0.681506872177124,dog,dog,0,0071_scg_s05_0_dog_00_dog4-airplane3.png
subject-05,1,72,0.71002197265625,bird,bird,0,0072_scg_s05_0_bird_00_bird1-knife3.png
subject-05,1,73,1.03967690467834,knife,boat,0,0073_scg_s05_0_boat_00_boat6-airplane2.png
subject-05,1,74,0.775683164596558,airplane,airplane,0,0074_scg_s05_0_airplane_00_airplane10-truck1.png
subject-05,1,75,0.881488800048828,airplane,airplane,0,0075_scg_s05_0_airplane_00_airplane6-knife1.png
subject-05,1,76,0.72412109375,car,car,0,0076_scg_s05_0_car_00_car3-airplane3.png
subject-05,1,77,0.784584045410156,car,car,0,0077_scg_s05_0_car_00_car3-dog2.png
subject-05,1,78,NaN,na,airplane,0,0078_scg_s05_0_airplane_00_airplane3-dog1.png
subject-05,1,79,1.01900601387024,bird,boat,0,0079_scg_s05_0_boat_00_boat8-bird2.png
subject-05,1,80,0.740761995315552,cat,cat,0,0080_scg_s05_0_cat_00_cat3-cat1.png
subject-05,1,81,0.614272117614746,bottle,bottle,0,0081_scg_s05_0_bottle_00_bottle1-clock1.png
subject-05,1,82,0.768378973007202,airplane,airplane,0,0082_scg_s05_0_airplane_00_airplane8-truck3.png
subject-05,1,83,0.637348175048828,bottle,bottle,0,0083_scg_s05_0_bottle_00_bottle1-car1.png
subject-05,1,84,0.735274076461792,cat,cat,0,0084_scg_s05_0_cat_00_cat4-oven1.png
subject-05,1,85,0.625166893005371,bird,bird,0,0085_scg_s05_0_bird_00_bird5-chair1.png
subject-05,1,86,0.648069858551025,bottle,bottle,0,0086_scg_s05_0_bottle_00_bottle3-bird1.png
subject-05,1,87,0.978065013885498,chair,chair,0,0087_scg_s05_0_chair_00_chair8-bear1.png
subject-05,1,88,1.02720999717712,bicycle,bicycle,0,0088_scg_s05_0_bicycle_00_bicycle1-truck1.png
subject-05,1,89,0.727613210678101,airplane,airplane,0,0089_scg_s05_0_airplane_00_airplane3-airplane2.png
subject-05,1,90,0.625556945800781,oven,oven,0,0090_scg_s05_0_oven_00_oven3-cat2.png
subject-05,1,91,0.623427152633667,oven,oven,0,0091_scg_s05_0_oven_00_oven5-bicycle1.png
subject-05,1,92,1.22121000289917,elephant,elephant,0,0092_scg_s05_0_elephant_00_elephant4-bicycle2.png
subject-05,1,93,0.788460969924927,elephant,elephant,0,0093_scg_s05_0_elephant_00_elephant2-clock1.png
subject-05,1,94,0.840821027755737,chair,chair,0,0094_scg_s05_0_chair_00_chair9-elephant1.png
subject-05,1,95,0.869014978408813,bottle,bottle,0,0095_scg_s05_0_bottle_00_bottle9-bottle1.png
subject-05,1,96,0.598484039306641,clock,clock,0,0096_scg_s05_0_clock_00_clock10-clock3.png
subject-05,1,97,0.564460039138794,clock,clock,0,0097_scg_s05_0_clock_00_clock1-clock2.png
subject-05,1,98,0.702495098114014,truck,truck,0,0098_scg_s05_0_truck_00_truck2-chair1.png
subject-05,1,99,0.645910024642944,chair,chair,0,0099_scg_s05_0_chair_00_chair10-dog1.png
subject-05,1,100,0.603549003601074,clock,clock,0,0100_scg_s05_0_clock_00_clock5-oven1.png
subject-05,1,101,0.849685907363892,bicycle,bicycle,0,0101_scg_s05_0_bicycle_00_bicycle4-bicycle3.png
subject-05,1,102,0.709248065948486,chair,chair,0,0102_scg_s05_0_chair_00_chair3-dog2.png
subject-05,1,103,0.953219890594482,oven,oven,0,0103_scg_s05_0_oven_00_oven9-airplane2.png
subject-05,1,104,0.705552101135254,car,car,0,0104_scg_s05_0_car_00_car9-bird1.png
subject-05,1,105,0.656980991363525,bird,bird,0,0105_scg_s05_0_bird_00_bird9-elephant2.png
subject-05,1,106,0.694037914276123,bottle,bottle,0,0106_scg_s05_0_bottle_00_bottle10-truck3.png
subject-05,1,107,0.731533050537109,truck,truck,0,0107_scg_s05_0_truck_00_truck3-dog3.png
subject-05,1,108,0.950868129730225,airplane,dog,0,0108_scg_s05_0_dog_00_dog6-truck2.png
subject-05,1,109,1.01074886322021,cat,airplane,0,0109_scg_s05_0_airplane_00_airplane5-oven3.png
subject-05,1,110,0.61657190322876,oven,oven,0,0110_scg_s05_0_oven_00_oven2-boat3.png
subject-05,1,111,0.760783910751343,bird,bird,0,0111_scg_s05_0_bird_00_bird3-dog1.png
subject-05,1,112,0.974922895431519,bear,bear,0,0112_scg_s05_0_bear_00_bear4-clock3.png
subject-05,1,113,0.689149856567383,boat,dog,0,0113_scg_s05_0_dog_00_dog1-chair1.png
subject-05,1,114,0.909559965133667,elephant,elephant,0,0114_scg_s05_0_elephant_00_elephant5-bear2.png
subject-05,1,115,0.86962890625,knife,knife,0,0115_scg_s05_0_knife_00_knife10-knife1.png
subject-05,1,116,0.783627986907959,car,car,0,0116_scg_s05_0_car_00_car10-chair1.png
subject-05,1,117,0.859885931015015,knife,knife,0,0117_scg_s05_0_knife_00_knife5-clock1.png
subject-05,1,118,0.988062143325806,keyboard,keyboard,0,0118_scg_s05_0_keyboard_00_keyboard5-airplane3.png
subject-05,1,119,1.07773303985596,keyboard,keyboard,0,0119_scg_s05_0_keyboard_00_keyboard8-keyboard2.png
subject-05,1,120,1.15347194671631,elephant,elephant,0,0120_scg_s05_0_elephant_00_elephant5-bicycle3.png
subject-05,1,121,0.767766952514648,elephant,elephant,0,0121_scg_s05_0_elephant_00_elephant10-keyboard1.png
subject-05,1,122,0.757367849349976,chair,chair,0,0122_scg_s05_0_chair_00_chair7-truck3.png
subject-05,1,123,0.701344966888428,bottle,bottle,0,0123_scg_s05_0_bottle_00_bottle1-cat3.png
subject-05,1,124,0.853219032287598,car,car,0,0124_scg_s05_0_car_00_car10-elephant2.png
subject-05,1,125,0.721070051193237,chair,chair,0,0125_scg_s05_0_chair_00_chair2-bear2.png
subject-05,1,126,0.695163011550903,boat,boat,0,0126_scg_s05_0_boat_00_boat9-keyboard2.png
subject-05,1,127,NaN,na,bear,0,0127_scg_s05_0_bear_00_bear1-elephant1.png
subject-05,1,128,0.814476013183594,dog,cat,0,0128_scg_s05_0_cat_00_cat7-airplane2.png
subject-05,1,129,0.92911696434021,airplane,airplane,0,0129_scg_s05_0_airplane_00_airplane9-keyboard2.png
subject-05,1,130,0.859072923660278,bear,bear,0,0130_scg_s05_0_bear_00_bear10-truck1.png
subject-05,1,131,0.762577056884766,boat,boat,0,0131_scg_s05_0_boat_00_boat9-cat3.png
subject-05,1,132,0.60034704208374,clock,clock,0,0132_scg_s05_0_clock_00_clock3-bird1.png
subject-05,1,133,0.614897966384888,cat,cat,0,0133_scg_s05_0_cat_00_cat7-elephant1.png
subject-05,1,134,1.1294538974762,bear,bear,0,0134_scg_s05_0_bear_00_bear10-keyboard3.png
subject-05,1,135,0.903233051300049,bicycle,bicycle,0,0135_scg_s05_0_bicycle_00_bicycle1-oven1.png
subject-05,1,136,0.708695888519287,boat,boat,0,0136_scg_s05_0_boat_00_boat1-bear1.png
subject-05,1,137,0.768719911575317,airplane,airplane,0,0137_scg_s05_0_airplane_00_airplane6-bottle2.png
subject-05,1,138,0.652833938598633,clock,clock,0,0138_scg_s05_0_clock_00_clock9-airplane1.png
subject-05,1,139,0.681269884109497,boat,airplane,0,0139_scg_s05_0_airplane_00_airplane3-elephant1.png
subject-05,1,140,0.81121301651001,dog,dog,0,0140_scg_s05_0_dog_00_dog9-airplane3.png
subject-05,1,141,0.930972099304199,bear,bear,0,0141_scg_s05_0_bear_00_bear1-bear3.png
subject-05,1,142,0.915027141571045,bicycle,bicycle,0,0142_scg_s05_0_bicycle_00_bicycle1-airplane2.png
subject-05,1,143,0.842729091644287,bicycle,bicycle,0,0143_scg_s05_0_bicycle_00_bicycle9-car1.png
subject-05,1,144,0.76451301574707,knife,knife,0,0144_scg_s05_0_knife_00_knife9-bottle2.png
subject-05,1,145,0.716471910476685,cat,cat,0,0145_scg_s05_0_cat_00_cat7-clock3.png
subject-05,1,146,0.738507032394409,cat,elephant,0,0146_scg_s05_0_elephant_00_elephant2-bottle3.png
subject-05,1,147,0.806798219680786,chair,chair,0,0147_scg_s05_0_chair_00_chair8-boat1.png
subject-05,1,148,0.613055229187012,clock,clock,0,0148_scg_s05_0_clock_00_clock4-bottle3.png
subject-05,1,149,0.657050848007202,chair,chair,0,0149_scg_s05_0_chair_00_chair8-elephant1.png
subject-05,1,150,0.709916114807129,clock,clock,0,0150_scg_s05_0_clock_00_clock3-car2.png
subject-05,1,151,0.823588132858276,bicycle,bicycle,0,0151_scg_s05_0_bicycle_00_bicycle5-dog2.png
subject-05,1,152,0.851132154464722,bear,bear,0,0152_scg_s05_0_bear_00_bear3-airplane1.png
subject-05,1,153,0.635891914367676,clock,clock,0,0153_scg_s05_0_clock_00_clock1-elephant2.png
subject-05,1,154,NaN,na,bear,0,0154_scg_s05_0_bear_00_bear2-keyboard2.png
subject-05,1,155,0.893615961074829,dog,dog,0,0155_scg_s05_0_dog_00_dog6-bird1.png
subject-05,1,156,0.745262861251831,boat,boat,0,0156_scg_s05_0_boat_00_boat5-bicycle3.png
subject-05,1,157,0.726605892181396,chair,chair,0,0157_scg_s05_0_chair_00_chair10-bicycle1.png
subject-05,1,158,0.794555902481079,keyboard,keyboard,0,0158_scg_s05_0_keyboard_00_keyboard10-car1.png
subject-05,1,159,1.09848713874817,chair,chair,0,0159_scg_s05_0_chair_00_chair1-dog1.png
subject-05,1,160,0.957044124603271,bird,cat,0,0160_scg_s05_0_cat_00_cat10-bicycle1.png
subject-05,1,161,0.776685953140259,knife,knife,0,0161_scg_s05_0_knife_00_knife10-keyboard3.png
subject-05,1,162,1.16625785827637,bicycle,bicycle,0,0162_scg_s05_0_bicycle_00_bicycle9-airplane2.png
subject-05,1,163,0.72618293762207,oven,oven,0,0163_scg_s05_0_oven_00_oven9-chair1.png
subject-05,1,164,0.856911897659302,bicycle,bicycle,0,0164_scg_s05_0_bicycle_00_bicycle8-truck1.png
subject-05,1,165,0.746292114257812,bird,bird,0,0165_scg_s05_0_bird_00_bird1-airplane2.png
subject-05,1,166,0.928095102310181,truck,car,0,0166_scg_s05_0_car_00_car5-truck3.png
subject-05,1,167,0.825335025787354,knife,knife,0,0167_scg_s05_0_knife_00_knife10-bear3.png
subject-05,1,168,0.775080919265747,car,car,0,0168_scg_s05_0_car_00_car1-keyboard2.png
subject-05,1,169,0.941817998886108,knife,keyboard,0,0169_scg_s05_0_keyboard_00_keyboard2-elephant1.png
subject-05,1,170,0.702339887619019,oven,oven,0,0170_scg_s05_0_oven_00_oven10-cat2.png
subject-05,1,171,0.822243928909302,chair,chair,0,0171_scg_s05_0_chair_00_chair5-bottle3.png
subject-05,1,172,0.727966070175171,truck,truck,0,0172_scg_s05_0_truck_00_truck7-bird2.png
subject-05,1,173,0.87987208366394,knife,dog,0,0173_scg_s05_0_dog_00_dog4-keyboard2.png
subject-05,1,174,1.18016314506531,boat,boat,0,0174_scg_s05_0_boat_00_boat4-elephant2.png
subject-05,1,175,0.726386070251465,bottle,bottle,0,0175_scg_s05_0_bottle_00_bottle4-truck1.png
subject-05,1,176,0.853945970535278,bear,bear,0,0176_scg_s05_0_bear_00_bear4-knife1.png
subject-05,1,177,0.934875011444092,bottle,chair,0,0177_scg_s05_0_chair_00_chair8-keyboard3.png
subject-05,1,178,0.733033180236816,boat,knife,0,0178_scg_s05_0_knife_00_knife6-chair3.png
subject-05,1,179,0.901495218276978,airplane,car,0,0179_scg_s05_0_car_00_car6-chair3.png
subject-05,1,180,0.820634841918945,truck,truck,0,0180_scg_s05_0_truck_00_truck2-bird2.png
subject-05,1,181,0.8490149974823,cat,cat,0,0181_scg_s05_0_cat_00_cat3-bicycle1.png
subject-05,1,182,0.761972904205322,car,car,0,0182_scg_s05_0_car_00_car8-clock2.png
subject-05,1,183,0.806530952453613,bear,bear,0,0183_scg_s05_0_bear_00_bear5-chair1.png
subject-05,1,184,0.803631067276001,knife,bottle,0,0184_scg_s05_0_bottle_00_bottle1-keyboard3.png
subject-05,1,185,0.810630083084106,car,airplane,0,0185_scg_s05_0_airplane_00_airplane4-truck2.png
subject-05,1,186,0.900514125823975,dog,dog,0,0186_scg_s05_0_dog_00_dog9-bicycle3.png
subject-05,1,187,0.814580917358398,bottle,keyboard,0,0187_scg_s05_0_keyboard_00_keyboard10-oven3.png
subject-05,1,188,0.681607007980347,knife,knife,0,0188_scg_s05_0_knife_00_knife9-bird1.png
subject-05,1,189,0.687607049942017,cat,airplane,0,0189_scg_s05_0_airplane_00_airplane4-bear3.png
subject-05,1,190,0.753628015518188,keyboard,keyboard,0,0190_scg_s05_0_keyboard_00_keyboard5-cat1.png
subject-05,1,191,0.789746046066284,oven,oven,0,0191_scg_s05_0_oven_00_oven5-bird1.png
subject-05,1,192,0.703123807907104,clock,clock,0,0192_scg_s05_0_clock_00_clock3-cat1.png
subject-05,1,193,0.86048412322998,knife,knife,0,0193_scg_s05_0_knife_00_knife7-elephant2.png
subject-05,1,194,0.699167013168335,bird,bird,0,0194_scg_s05_0_bird_00_bird7-knife2.png
subject-05,1,195,1.25680208206177,elephant,elephant,0,0195_scg_s05_0_elephant_00_elephant1-dog2.png
subject-05,1,196,0.80873703956604,clock,clock,0,0196_scg_s05_0_clock_00_clock6-bicycle1.png
subject-05,1,197,0.878040075302124,clock,clock,0,0197_scg_s05_0_clock_00_clock3-dog2.png
subject-05,1,198,0.778203964233398,bottle,bottle,0,0198_scg_s05_0_bottle_00_bottle5-clock3.png
subject-05,1,199,0.974138975143433,clock,keyboard,0,0199_scg_s05_0_keyboard_00_keyboard2-clock1.png
subject-05,1,200,0.941865205764771,bottle,elephant,0,0200_scg_s05_0_elephant_00_elephant8-truck3.png
subject-05,1,201,0.548908948898315,clock,clock,0,0201_scg_s05_0_clock_00_clock2-elephant2.png
subject-05,1,202,0.64661717414856,clock,clock,0,0202_scg_s05_0_clock_00_clock6-chair3.png
subject-05,1,203,0.635769128799438,bird,bird,0,0203_scg_s05_0_bird_00_bird8-knife2.png
subject-05,1,204,0.874457120895386,car,car,0,0204_scg_s05_0_car_00_car6-bicycle3.png
subject-05,1,205,1.07292985916138,truck,truck,0,0205_scg_s05_0_truck_00_truck9-airplane2.png
subject-05,1,206,0.771011829376221,dog,dog,0,0206_scg_s05_0_dog_00_dog1-bear1.png
subject-05,1,207,0.74564790725708,keyboard,keyboard,0,0207_scg_s05_0_keyboard_00_keyboard5-bicycle1.png
subject-05,1,208,0.76671290397644,car,car,0,0208_scg_s05_0_car_00_car3-oven3.png
subject-05,1,209,0.856963872909546,boat,boat,0,0209_scg_s05_0_boat_00_boat7-truck2.png
subject-05,1,210,1.24686717987061,elephant,elephant,0,0210_scg_s05_0_elephant_00_elephant2-boat1.png
subject-05,1,211,0.745291948318481,bicycle,bicycle,0,0211_scg_s05_0_bicycle_00_bicycle10-dog3.png
subject-05,1,212,0.750846147537231,clock,clock,0,0212_scg_s05_0_clock_00_clock5-keyboard1.png
subject-05,1,213,0.910917997360229,keyboard,keyboard,0,0213_scg_s05_0_keyboard_00_keyboard6-chair1.png
subject-05,1,214,0.760480165481567,bird,cat,0,0214_scg_s05_0_cat_00_cat4-keyboard2.png
subject-05,1,215,0.674528837203979,cat,cat,0,0215_scg_s05_0_cat_00_cat1-car2.png
subject-05,1,216,0.751583099365234,chair,chair,0,0216_scg_s05_0_chair_00_chair8-chair3.png
subject-05,1,217,0.702735900878906,knife,keyboard,0,0217_scg_s05_0_keyboard_00_keyboard9-elephant2.png
subject-05,1,218,0.839514970779419,cat,cat,0,0218_scg_s05_0_cat_00_cat9-chair2.png
subject-05,1,219,0.915525913238525,elephant,elephant,0,0219_scg_s05_0_elephant_00_elephant3-cat2.png
subject-05,1,220,0.697674989700317,bear,bear,0,0220_scg_s05_0_bear_00_bear5-boat2.png
subject-05,1,221,1.02535700798035,bicycle,bicycle,0,0221_scg_s05_0_bicycle_00_bicycle4-car2.png
subject-05,1,222,0.80937385559082,elephant,elephant,0,0222_scg_s05_0_elephant_00_elephant6-car3.png
subject-05,1,223,0.590307950973511,clock,clock,0,0223_scg_s05_0_clock_00_clock5-elephant2.png
subject-05,1,224,0.627090930938721,car,car,0,0224_scg_s05_0_car_00_car4-bird1.png
subject-05,1,225,0.548810958862305,oven,oven,0,0225_scg_s05_0_oven_00_oven4-car1.png
subject-05,1,226,0.600655078887939,clock,clock,0,0226_scg_s05_0_clock_00_clock2-bottle3.png
subject-05,1,227,0.844269990921021,knife,boat,0,0227_scg_s05_0_boat_00_boat3-keyboard2.png
subject-05,1,228,0.758187055587769,bear,bear,0,0228_scg_s05_0_bear_00_bear10-clock1.png
subject-05,1,229,0.632633924484253,bird,bird,0,0229_scg_s05_0_bird_00_bird1-truck1.png
subject-05,1,230,0.968786954879761,dog,dog,0,0230_scg_s05_0_dog_00_dog3-keyboard1.png
subject-05,1,231,0.9344801902771,boat,boat,0,0231_scg_s05_0_boat_00_boat5-knife2.png
subject-05,1,232,0.888842105865479,bicycle,bicycle,0,0232_scg_s05_0_bicycle_00_bicycle5-elephant1.png
subject-05,1,233,0.783915996551514,elephant,elephant,0,0233_scg_s05_0_elephant_00_elephant4-car3.png
subject-05,1,234,0.690323829650879,clock,clock,0,0234_scg_s05_0_clock_00_clock7-bottle2.png
subject-05,1,235,0.725903034210205,elephant,elephant,0,0235_scg_s05_0_elephant_00_elephant6-bicycle1.png
subject-05,1,236,0.80964207649231,knife,knife,0,0236_scg_s05_0_knife_00_knife2-car3.png
subject-05,1,237,1.07635903358459,knife,knife,0,0237_scg_s05_0_knife_00_knife3-bear2.png
subject-05,1,238,0.836848020553589,car,car,0,0238_scg_s05_0_car_00_car8-airplane3.png
subject-05,1,239,0.796606063842773,elephant,elephant,0,0239_scg_s05_0_elephant_00_elephant7-clock2.png
subject-05,1,240,0.802697896957397,knife,cat,0,0240_scg_s05_0_cat_00_cat4-cat3.png
subject-05,1,241,0.714598894119263,cat,cat,0,0241_scg_s05_0_cat_00_cat9-truck1.png
subject-05,1,242,0.812767028808594,knife,knife,0,0242_scg_s05_0_knife_00_knife4-keyboard1.png
subject-05,1,243,0.804697036743164,dog,dog,0,0243_scg_s05_0_dog_00_dog1-boat3.png
subject-05,1,244,0.686400890350342,cat,cat,0,0244_scg_s05_0_cat_00_cat2-boat2.png
subject-05,1,245,0.806023120880127,dog,dog,0,0245_scg_s05_0_dog_00_dog1-knife3.png
subject-05,1,246,0.720508098602295,chair,chair,0,0246_scg_s05_0_chair_00_chair1-clock2.png
subject-05,1,247,0.635542869567871,clock,clock,0,0247_scg_s05_0_clock_00_clock3-elephant3.png
subject-05,1,248,0.709522008895874,keyboard,keyboard,0,0248_scg_s05_0_keyboard_00_keyboard8-dog3.png
subject-05,1,249,0.669399976730347,bear,bear,0,0249_scg_s05_0_bear_00_bear4-truck3.png
subject-05,1,250,0.951830863952637,knife,knife,0,0250_scg_s05_0_knife_00_knife4-knife2.png
subject-05,1,251,0.651580095291138,oven,oven,0,0251_scg_s05_0_oven_00_oven10-truck2.png
subject-05,1,252,0.808908939361572,elephant,elephant,0,0252_scg_s05_0_elephant_00_elephant3-knife1.png
subject-05,1,253,0.736315011978149,bottle,bottle,0,0253_scg_s05_0_bottle_00_bottle5-keyboard2.png
subject-05,1,254,0.679815053939819,clock,clock,0,0254_scg_s05_0_clock_00_clock10-bird3.png
subject-05,1,255,0.737387895584106,airplane,airplane,0,0255_scg_s05_0_airplane_00_airplane5-bird2.png
subject-05,1,256,0.71296501159668,elephant,elephant,0,0256_scg_s05_0_elephant_00_elephant7-bird1.png
subject-05,1,257,0.693514108657837,boat,boat,0,0257_scg_s05_0_boat_00_boat2-bottle2.png
subject-05,1,258,0.598932027816772,bird,bird,0,0258_scg_s05_0_bird_00_bird2-airplane3.png
subject-05,1,259,0.788928985595703,bottle,bottle,0,0259_scg_s05_0_bottle_00_bottle7-clock1.png
subject-05,1,260,0.649118900299072,clock,airplane,0,0260_scg_s05_0_airplane_00_airplane3-clock1.png
subject-05,1,261,0.609315872192383,oven,oven,0,0261_scg_s05_0_oven_00_oven9-oven1.png
subject-05,1,262,0.531208038330078,oven,oven,0,0262_scg_s05_0_oven_00_oven3-bear2.png
subject-05,1,263,0.675725936889648,bottle,bottle,0,0263_scg_s05_0_bottle_00_bottle6-bird1.png
subject-05,1,264,1.17940306663513,bear,bear,0,0264_scg_s05_0_bear_00_bear8-elephant2.png
subject-05,1,265,0.854985952377319,boat,boat,0,0265_scg_s05_0_boat_00_boat9-bird1.png
subject-05,1,266,0.906857013702393,bear,bear,0,0266_scg_s05_0_bear_00_bear8-truck3.png
subject-05,1,267,0.934590101242065,bird,dog,0,0267_scg_s05_0_dog_00_dog8-keyboard3.png
subject-05,1,268,0.702934980392456,chair,chair,0,0268_scg_s05_0_chair_00_chair2-keyboard2.png
subject-05,1,269,0.752983093261719,airplane,airplane,0,0269_scg_s05_0_airplane_00_airplane5-knife1.png
subject-05,1,270,0.882962226867676,bird,bird,0,0270_scg_s05_0_bird_00_bird5-bicycle1.png
subject-05,1,271,0.702355861663818,bottle,bottle,0,0271_scg_s05_0_bottle_00_bottle4-dog2.png
subject-05,1,272,0.770426988601685,truck,truck,0,0272_scg_s05_0_truck_00_truck10-elephant3.png
subject-05,1,273,0.859517097473145,knife,knife,0,0273_scg_s05_0_knife_00_knife9-bear3.png
subject-05,1,274,1.00445508956909,knife,knife,0,0274_scg_s05_0_knife_00_knife8-bottle3.png
subject-05,1,275,0.80237078666687,bicycle,bicycle,0,0275_scg_s05_0_bicycle_00_bicycle7-oven1.png
subject-05,1,276,0.754623889923096,dog,dog,0,0276_scg_s05_0_dog_00_dog10-bicycle1.png
subject-05,1,277,0.784006834030151,elephant,elephant,0,0277_scg_s05_0_elephant_00_elephant7-car3.png
subject-05,1,278,1.1116669178009,airplane,airplane,0,0278_scg_s05_0_airplane_00_airplane9-car2.png
subject-05,1,279,0.763220071792603,boat,boat,0,0279_scg_s05_0_boat_00_boat4-knife2.png
subject-05,1,280,0.713567018508911,clock,clock,0,0280_scg_s05_0_clock_00_clock6-knife2.png
subject-05,1,281,0.92750096321106,truck,truck,0,0281_scg_s05_0_truck_00_truck3-bird2.png
subject-05,1,282,1.00106287002563,truck,car,0,0282_scg_s05_0_car_00_car5-knife2.png
subject-05,1,283,0.827785968780518,clock,truck,0,0283_scg_s05_0_truck_00_truck7-keyboard3.png
subject-05,1,284,0.809618949890137,dog,dog,0,0284_scg_s05_0_dog_00_dog10-bottle1.png
subject-05,1,285,0.668818950653076,keyboard,keyboard,0,0285_scg_s05_0_keyboard_00_keyboard1-clock1.png
subject-05,1,286,0.750732898712158,chair,oven,0,0286_scg_s05_0_oven_00_oven7-cat1.png
subject-05,1,287,0.770733833312988,truck,truck,0,0287_scg_s05_0_truck_00_truck10-clock1.png
subject-05,1,288,0.60139012336731,chair,chair,0,0288_scg_s05_0_chair_00_chair10-airplane2.png
subject-05,1,289,0.706645965576172,boat,boat,0,0289_scg_s05_0_boat_00_boat4-chair2.png
subject-05,1,290,0.7430419921875,knife,knife,0,0290_scg_s05_0_knife_00_knife6-airplane1.png
subject-05,1,291,0.892421007156372,boat,boat,0,0291_scg_s05_0_boat_00_boat6-bicycle2.png
subject-05,1,292,0.905663967132568,clock,airplane,0,0292_scg_s05_0_airplane_00_airplane3-keyboard2.png
subject-05,1,293,0.72445011138916,keyboard,keyboard,0,0293_scg_s05_0_keyboard_00_keyboard3-boat1.png
subject-05,1,294,0.723381042480469,dog,dog,0,0294_scg_s05_0_dog_00_dog6-bicycle1.png
subject-05,1,295,0.662621021270752,keyboard,keyboard,0,0295_scg_s05_0_keyboard_00_keyboard4-clock2.png
subject-05,1,296,0.746902942657471,chair,chair,0,0296_scg_s05_0_chair_00_chair4-truck2.png
subject-05,1,297,0.783866882324219,cat,cat,0,0297_scg_s05_0_cat_00_cat5-keyboard3.png
subject-05,1,298,0.581945896148682,cat,cat,0,0298_scg_s05_0_cat_00_cat6-keyboard3.png
subject-05,1,299,1.05552101135254,bear,bear,0,0299_scg_s05_0_bear_00_bear4-oven2.png
subject-05,1,300,0.761334896087646,car,car,0,0300_scg_s05_0_car_00_car8-chair1.png
subject-05,1,301,0.783922910690308,dog,dog,0,0301_scg_s05_0_dog_00_dog4-chair1.png
subject-05,1,302,1.09087920188904,elephant,elephant,0,0302_scg_s05_0_elephant_00_elephant9-airplane2.png
subject-05,1,303,0.742412090301514,airplane,airplane,0,0303_scg_s05_0_airplane_00_airplane7-truck1.png
subject-05,1,304,0.632323026657104,elephant,elephant,0,0304_scg_s05_0_elephant_00_elephant9-boat3.png
subject-05,1,305,0.651875972747803,cat,cat,0,0305_scg_s05_0_cat_00_cat7-boat3.png
subject-05,1,306,1.50037717819214,truck,truck,0,0306_scg_s05_0_truck_00_truck4-airplane3.png
subject-05,1,307,0.780340909957886,boat,boat,0,0307_scg_s05_0_boat_00_boat2-airplane1.png
subject-05,1,308,0.785667896270752,oven,oven,0,0308_scg_s05_0_oven_00_oven6-truck1.png
subject-05,1,309,0.72127103805542,airplane,airplane,0,0309_scg_s05_0_airplane_00_airplane7-bottle3.png
subject-05,1,310,0.811647891998291,elephant,elephant,0,0310_scg_s05_0_elephant_00_elephant8-airplane3.png
subject-05,1,311,0.772184133529663,knife,boat,0,0311_scg_s05_0_boat_00_boat4-dog2.png
subject-05,1,312,0.637821197509766,clock,clock,0,0312_scg_s05_0_clock_00_clock3-bicycle2.png
subject-05,1,313,0.865891933441162,airplane,airplane,0,0313_scg_s05_0_airplane_00_airplane2-bicycle1.png
subject-05,1,314,0.755746126174927,airplane,airplane,0,0314_scg_s05_0_airplane_00_airplane8-clock2.png
subject-05,1,315,0.655956029891968,cat,dog,0,0315_scg_s05_0_dog_00_dog1-car2.png
subject-05,1,316,0.935160160064697,car,car,0,0316_scg_s05_0_car_00_car3-boat1.png
subject-05,1,317,0.865432977676392,clock,clock,0,0317_scg_s05_0_clock_00_clock7-truck3.png
subject-05,1,318,0.709243059158325,cat,cat,0,0318_scg_s05_0_cat_00_cat4-airplane1.png
subject-05,1,319,0.607354879379272,cat,dog,0,0319_scg_s05_0_dog_00_dog10-elephant1.png
subject-05,1,320,0.604457855224609,oven,oven,0,0320_scg_s05_0_oven_00_oven1-boat3.png
subject-05,1,321,0.762696981430054,boat,boat,0,0321_scg_s05_0_boat_00_boat8-bottle1.png
subject-05,1,322,0.945129871368408,elephant,elephant,0,0322_scg_s05_0_elephant_00_elephant8-oven3.png
subject-05,1,323,0.904198884963989,chair,chair,0,0323_scg_s05_0_chair_00_chair7-bottle1.png
subject-05,1,324,0.840219020843506,car,car,0,0324_scg_s05_0_car_00_car2-cat3.png
subject-05,1,325,0.814254999160767,knife,knife,0,0325_scg_s05_0_knife_00_knife5-oven2.png
subject-05,1,326,0.650202989578247,bird,bird,0,0326_scg_s05_0_bird_00_bird8-elephant1.png
subject-05,1,327,0.747223854064941,bird,bird,0,0327_scg_s05_0_bird_00_bird7-truck2.png
subject-05,1,328,0.845825910568237,bicycle,bicycle,0,0328_scg_s05_0_bicycle_00_bicycle2-car2.png
subject-05,1,329,0.703779935836792,dog,dog,0,0329_scg_s05_0_dog_00_dog1-airplane3.png
subject-05,1,330,0.855659008026123,bottle,bottle,0,0330_scg_s05_0_bottle_00_bottle6-bottle3.png
subject-05,1,331,0.608037948608398,cat,cat,0,0331_scg_s05_0_cat_00_cat2-elephant1.png
subject-05,1,332,0.719331979751587,knife,knife,0,0332_scg_s05_0_knife_00_knife8-cat2.png
subject-05,1,333,0.863744974136353,dog,dog,0,0333_scg_s05_0_dog_00_dog4-bicycle1.png
subject-05,1,334,0.57705283164978,cat,cat,0,0334_scg_s05_0_cat_00_cat6-oven1.png
subject-05,1,335,0.672752857208252,bird,bird,0,0335_scg_s05_0_bird_00_bird7-keyboard3.png
subject-05,1,336,0.757328987121582,boat,boat,0,0336_scg_s05_0_boat_00_boat2-keyboard1.png
subject-05,1,337,0.702304124832153,chair,chair,0,0337_scg_s05_0_chair_00_chair10-cat1.png
subject-05,1,338,0.734048843383789,oven,oven,0,0338_scg_s05_0_oven_00_oven10-oven3.png
subject-05,1,339,0.87778902053833,bird,bird,0,0339_scg_s05_0_bird_00_bird10-cat1.png
subject-05,1,340,0.652275085449219,keyboard,keyboard,0,0340_scg_s05_0_keyboard_00_keyboard9-airplane3.png
subject-05,1,341,0.833860158920288,oven,oven,0,0341_scg_s05_0_oven_00_oven2-chair1.png
subject-05,1,342,0.878219842910767,keyboard,keyboard,0,0342_scg_s05_0_keyboard_00_keyboard9-keyboard2.png
subject-05,1,343,0.689643859863281,oven,oven,0,0343_scg_s05_0_oven_00_oven1-dog3.png
subject-05,1,344,0.636251926422119,oven,oven,0,0344_scg_s05_0_oven_00_oven7-clock2.png
subject-05,1,345,0.731705904006958,keyboard,car,0,0345_scg_s05_0_car_00_car4-bottle1.png
subject-05,1,346,0.896705865859985,bird,bird,0,0346_scg_s05_0_bird_00_bird6-bottle3.png
subject-05,1,347,0.819138050079346,bird,bird,0,0347_scg_s05_0_bird_00_bird3-knife3.png
subject-05,1,348,0.614360094070435,bottle,bottle,0,0348_scg_s05_0_bottle_00_bottle6-bear2.png
subject-05,1,349,0.544325113296509,clock,clock,0,0349_scg_s05_0_clock_00_clock1-car1.png
subject-05,1,350,0.784397840499878,knife,knife,0,0350_scg_s05_0_knife_00_knife4-oven2.png
subject-05,1,351,0.882816076278687,boat,boat,0,0351_scg_s05_0_boat_00_boat6-truck3.png
subject-05,1,352,0.602327108383179,boat,boat,0,0352_scg_s05_0_boat_00_boat7-oven3.png
subject-05,1,353,0.830497980117798,knife,knife,0,0353_scg_s05_0_knife_00_knife4-boat1.png
subject-05,1,354,0.690372943878174,airplane,airplane,0,0354_scg_s05_0_airplane_00_airplane9-boat1.png
subject-05,1,355,0.68063497543335,car,car,0,0355_scg_s05_0_car_00_car7-car1.png
subject-05,1,356,1.00036096572876,car,dog,0,0356_scg_s05_0_dog_00_dog7-keyboard3.png
subject-05,1,357,0.828361988067627,bottle,bottle,0,0357_scg_s05_0_bottle_00_bottle9-truck1.png
subject-05,1,358,0.757996082305908,bird,bird,0,0358_scg_s05_0_bird_00_bird10-elephant2.png
subject-05,1,359,1.2371289730072,car,car,0,0359_scg_s05_0_car_00_car4-car2.png
subject-05,1,360,0.882183074951172,truck,truck,0,0360_scg_s05_0_truck_00_truck2-keyboard1.png
subject-05,1,361,0.625715970993042,keyboard,keyboard,0,0361_scg_s05_0_keyboard_00_keyboard4-cat2.png
subject-05,1,362,0.763837099075317,keyboard,keyboard,0,0362_scg_s05_0_keyboard_00_keyboard5-oven2.png
subject-05,1,363,1.07664704322815,bear,bear,0,0363_scg_s05_0_bear_00_bear8-dog1.png
subject-05,1,364,0.560346126556396,cat,cat,0,0364_scg_s05_0_cat_00_cat8-car2.png
subject-05,1,365,0.665124893188477,boat,dog,0,0365_scg_s05_0_dog_00_dog8-chair3.png
subject-05,1,366,0.686375141143799,bear,bear,0,0366_scg_s05_0_bear_00_bear8-knife3.png
subject-05,1,367,1.13569688796997,dog,dog,0,0367_scg_s05_0_dog_00_dog3-bird2.png
subject-05,1,368,0.726740837097168,cat,cat,0,0368_scg_s05_0_cat_00_cat4-chair2.png
subject-05,1,369,1.0166118144989,bicycle,bicycle,0,0369_scg_s05_0_bicycle_00_bicycle4-chair2.png
subject-05,1,370,0.814332008361816,keyboard,keyboard,0,0370_scg_s05_0_keyboard_00_keyboard9-bicycle2.png
subject-05,1,371,0.795703887939453,oven,oven,0,0371_scg_s05_0_oven_00_oven9-boat2.png
subject-05,1,372,0.915520906448364,chair,chair,0,0372_scg_s05_0_chair_00_chair8-knife2.png
subject-05,1,373,0.721355199813843,boat,boat,0,0373_scg_s05_0_boat_00_boat7-elephant3.png
subject-05,1,374,0.61890697479248,oven,oven,0,0374_scg_s05_0_oven_00_oven5-airplane1.png
subject-05,1,375,0.539494037628174,boat,boat,0,0375_scg_s05_0_boat_00_boat1-elephant3.png
subject-05,1,376,0.583254098892212,chair,chair,0,0376_scg_s05_0_chair_00_chair2-knife1.png
subject-05,1,377,0.810800075531006,elephant,elephant,0,0377_scg_s05_0_elephant_00_elephant9-clock3.png
subject-05,1,378,0.633359909057617,bird,dog,0,0378_scg_s05_0_dog_00_dog5-knife2.png
subject-05,1,379,0.682367086410522,chair,chair,0,0379_scg_s05_0_chair_00_chair7-clock3.png
subject-05,1,380,0.756947994232178,bird,bird,0,0380_scg_s05_0_bird_00_bird3-bird2.png
subject-05,1,381,0.762593984603882,oven,oven,0,0381_scg_s05_0_oven_00_oven1-bird3.png
subject-05,1,382,0.565741062164307,cat,cat,0,0382_scg_s05_0_cat_00_cat5-bottle1.png
subject-05,1,383,0.639421939849854,elephant,elephant,0,0383_scg_s05_0_elephant_00_elephant8-boat2.png
subject-05,1,384,0.761476039886475,bottle,bottle,0,0384_scg_s05_0_bottle_00_bottle10-clock2.png
subject-05,1,385,0.598165035247803,cat,cat,0,0385_scg_s05_0_cat_00_cat10-bird2.png
subject-05,1,386,0.780170917510986,knife,knife,0,0386_scg_s05_0_knife_00_knife1-bird2.png
subject-05,1,387,0.561685085296631,cat,airplane,0,0387_scg_s05_0_airplane_00_airplane2-bird3.png
subject-05,1,388,0.743613004684448,bear,bear,0,0388_scg_s05_0_bear_00_bear4-elephant2.png
subject-05,1,389,0.566476106643677,oven,oven,0,0389_scg_s05_0_oven_00_oven4-elephant3.png
subject-05,1,390,0.748004198074341,airplane,airplane,0,0390_scg_s05_0_airplane_00_airplane10-boat3.png
subject-05,1,391,0.651849985122681,bottle,bottle,0,0391_scg_s05_0_bottle_00_bottle5-elephant1.png
subject-05,1,392,0.700781106948853,bottle,bottle,0,0392_scg_s05_0_bottle_00_bottle3-cat3.png
subject-05,1,393,0.883136034011841,dog,dog,0,0393_scg_s05_0_dog_00_dog10-dog1.png
subject-05,1,394,0.750761985778809,chair,chair,0,0394_scg_s05_0_chair_00_chair4-oven2.png
subject-05,1,395,0.686804056167603,airplane,airplane,0,0395_scg_s05_0_airplane_00_airplane2-cat1.png
subject-05,1,396,0.722834825515747,keyboard,keyboard,0,0396_scg_s05_0_keyboard_00_keyboard7-bottle1.png
subject-05,1,397,0.891492128372192,clock,clock,0,0397_scg_s05_0_clock_00_clock1-bear1.png
subject-05,1,398,0.673321008682251,chair,chair,0,0398_scg_s05_0_chair_00_chair5-cat3.png
subject-05,1,399,0.793396949768066,keyboard,keyboard,0,0399_scg_s05_0_keyboard_00_keyboard8-oven1.png
subject-05,1,400,0.729296207427979,dog,dog,0,0400_scg_s05_0_dog_00_dog3-bear3.png
subject-05,1,401,0.742761135101318,bird,bird,0,0401_scg_s05_0_bird_00_bird5-keyboard2.png
subject-05,1,402,0.771193981170654,bird,bird,0,0402_scg_s05_0_bird_00_bird7-oven3.png
subject-05,1,403,1.0369610786438,dog,dog,0,0403_scg_s05_0_dog_00_dog5-truck2.png
subject-05,1,404,0.855939865112305,bear,bear,0,0404_scg_s05_0_bear_00_bear2-airplane1.png
subject-05,1,405,0.847965002059937,clock,clock,0,0405_scg_s05_0_clock_00_clock1-truck3.png
subject-05,1,406,0.805908203125,bicycle,bicycle,0,0406_scg_s05_0_bicycle_00_bicycle6-dog2.png
subject-05,1,407,0.620025157928467,bottle,bottle,0,0407_scg_s05_0_bottle_00_bottle10-car1.png
subject-05,1,408,0.947942018508911,dog,dog,0,0408_scg_s05_0_dog_00_dog7-chair2.png
subject-05,1,409,1.12268900871277,cat,cat,0,0409_scg_s05_0_cat_00_cat5-airplane2.png
subject-05,1,410,0.721146106719971,dog,dog,0,0410_scg_s05_0_dog_00_dog2-knife3.png
subject-05,1,411,0.764889001846313,keyboard,keyboard,0,0411_scg_s05_0_keyboard_00_keyboard2-bottle1.png
subject-05,1,412,0.81665301322937,car,car,0,0412_scg_s05_0_car_00_car4-boat1.png
subject-05,1,413,0.860656023025513,car,boat,0,0413_scg_s05_0_boat_00_boat1-truck3.png
subject-05,1,414,0.671528100967407,boat,airplane,0,0414_scg_s05_0_airplane_00_airplane3-chair3.png
subject-05,1,415,0.845061063766479,bear,elephant,0,0415_scg_s05_0_elephant_00_elephant4-bird1.png
subject-05,1,416,0.998102903366089,dog,dog,0,0416_scg_s05_0_dog_00_dog9-cat1.png
subject-05,1,417,0.792771816253662,bear,bear,0,0417_scg_s05_0_bear_00_bear3-car2.png
subject-05,1,418,0.785221815109253,knife,knife,0,0418_scg_s05_0_knife_00_knife9-boat1.png
subject-05,1,419,0.891512155532837,keyboard,keyboard,0,0419_scg_s05_0_keyboard_00_keyboard7-boat2.png
subject-05,1,420,0.628029108047485,cat,cat,0,0420_scg_s05_0_cat_00_cat7-truck2.png
subject-05,1,421,0.594855070114136,clock,clock,0,0421_scg_s05_0_clock_00_clock1-boat3.png
subject-05,1,422,0.631911039352417,oven,oven,0,0422_scg_s05_0_oven_00_oven9-bird3.png
subject-05,1,423,0.782388925552368,bicycle,bicycle,0,0423_scg_s05_0_bicycle_00_bicycle4-truck3.png
subject-05,1,424,1.30309391021729,bird,bird,0,0424_scg_s05_0_bird_00_bird10-chair1.png
subject-05,1,425,0.695071220397949,clock,clock,0,0425_scg_s05_0_clock_00_clock3-keyboard3.png
subject-05,1,426,0.814257860183716,truck,truck,0,0426_scg_s05_0_truck_00_truck3-knife2.png
subject-05,1,427,0.726037979125977,knife,knife,0,0427_scg_s05_0_knife_00_knife1-keyboard3.png
subject-05,1,428,0.724503040313721,bird,bird,0,0428_scg_s05_0_bird_00_bird9-chair1.png
subject-05,1,429,0.697826147079468,bottle,bottle,0,0429_scg_s05_0_bottle_00_bottle6-chair2.png
subject-05,1,430,1.0045280456543,knife,knife,0,0430_scg_s05_0_knife_00_knife8-truck3.png
subject-05,1,431,1.05439114570618,boat,boat,0,0431_scg_s05_0_boat_00_boat10-oven1.png
subject-05,1,432,0.659723997116089,oven,oven,0,0432_scg_s05_0_oven_00_oven10-boat2.png
subject-05,1,433,0.765767097473145,knife,knife,0,0433_scg_s05_0_knife_00_knife7-airplane3.png
subject-05,1,434,0.999047994613647,airplane,airplane,0,0434_scg_s05_0_airplane_00_airplane9-airplane2.png
subject-05,1,435,0.721510171890259,airplane,airplane,0,0435_scg_s05_0_airplane_00_airplane7-cat3.png
subject-05,1,436,0.748964071273804,airplane,airplane,0,0436_scg_s05_0_airplane_00_airplane6-bear3.png
subject-05,1,437,0.599957942962646,bird,bird,0,0437_scg_s05_0_bird_00_bird8-chair1.png
subject-05,1,438,0.66644811630249,bird,bird,0,0438_scg_s05_0_bird_00_bird6-truck2.png
subject-05,1,439,0.755118131637573,keyboard,keyboard,0,0439_scg_s05_0_keyboard_00_keyboard1-airplane2.png
subject-05,1,440,0.659655094146729,car,car,0,0440_scg_s05_0_car_00_car6-elephant3.png
subject-05,1,441,0.73518705368042,elephant,elephant,0,0441_scg_s05_0_elephant_00_elephant7-keyboard3.png
subject-05,1,442,0.786000967025757,chair,chair,0,0442_scg_s05_0_chair_00_chair4-cat2.png
subject-05,1,443,0.792073965072632,truck,truck,0,0443_scg_s05_0_truck_00_truck2-elephant1.png
subject-05,1,444,0.710508108139038,knife,knife,0,0444_scg_s05_0_knife_00_knife6-clock2.png
subject-05,1,445,0.923279047012329,knife,knife,0,0445_scg_s05_0_knife_00_knife10-dog1.png
subject-05,1,446,0.72868013381958,bear,bear,0,0446_scg_s05_0_bear_00_bear3-cat1.png
subject-05,1,447,1.17897200584412,truck,truck,0,0447_scg_s05_0_truck_00_truck5-truck1.png
subject-05,1,448,0.847327947616577,dog,dog,0,0448_scg_s05_0_dog_00_dog5-elephant1.png
subject-05,1,449,0.758839130401611,truck,truck,0,0449_scg_s05_0_truck_00_truck9-elephant1.png
subject-05,1,450,0.872544050216675,knife,airplane,0,0450_scg_s05_0_airplane_00_airplane8-bird1.png
subject-05,1,451,0.751199007034302,elephant,elephant,0,0451_scg_s05_0_elephant_00_elephant3-keyboard2.png
subject-05,1,452,0.715808868408203,boat,boat,0,0452_scg_s05_0_boat_00_boat6-cat1.png
subject-05,1,453,0.883703947067261,boat,keyboard,0,0453_scg_s05_0_keyboard_00_keyboard7-chair3.png
subject-05,1,454,0.80350399017334,chair,chair,0,0454_scg_s05_0_chair_00_chair9-keyboard2.png
subject-05,1,455,0.910189151763916,elephant,elephant,0,0455_scg_s05_0_elephant_00_elephant3-chair1.png
subject-05,1,456,0.705649852752686,cat,cat,0,0456_scg_s05_0_cat_00_cat1-dog1.png
subject-05,1,457,0.971430778503418,bird,bird,0,0457_scg_s05_0_bird_00_bird3-truck3.png
subject-05,1,458,0.73176383972168,car,car,0,0458_scg_s05_0_car_00_car10-keyboard2.png
subject-05,1,459,0.891360998153687,chair,chair,0,0459_scg_s05_0_chair_00_chair9-bear1.png
subject-05,1,460,0.820106983184814,boat,knife,0,0460_scg_s05_0_knife_00_knife7-car2.png
subject-05,1,461,1.31773090362549,boat,keyboard,0,0461_scg_s05_0_keyboard_00_keyboard2-knife1.png
subject-05,1,462,0.537517070770264,clock,clock,0,0462_scg_s05_0_clock_00_clock10-bottle1.png
subject-05,1,463,0.864916086196899,bottle,bottle,0,0463_scg_s05_0_bottle_00_bottle1-dog2.png
subject-05,1,464,0.77958083152771,bird,bird,0,0464_scg_s05_0_bird_00_bird5-cat2.png
subject-05,1,465,1.00724220275879,elephant,elephant,0,0465_scg_s05_0_elephant_00_elephant6-knife2.png
subject-05,1,466,0.734695911407471,truck,truck,0,0466_scg_s05_0_truck_00_truck5-car1.png
subject-05,1,467,0.971015930175781,dog,dog,0,0467_scg_s05_0_dog_00_dog2-airplane2.png
subject-05,1,468,1.21371102333069,car,car,0,0468_scg_s05_0_car_00_car6-truck3.png
subject-05,1,469,0.719038009643555,elephant,elephant,0,0469_scg_s05_0_elephant_00_elephant3-truck1.png
subject-05,1,470,0.832952976226807,bicycle,bicycle,0,0470_scg_s05_0_bicycle_00_bicycle4-boat1.png
subject-05,1,471,1.00701689720154,bear,bear,0,0471_scg_s05_0_bear_00_bear9-dog1.png
subject-05,1,472,0.764379024505615,bottle,bottle,0,0472_scg_s05_0_bottle_00_bottle4-oven2.png
subject-05,1,473,0.649003982543945,boat,boat,0,0473_scg_s05_0_boat_00_boat9-dog2.png
subject-05,1,474,0.63091778755188,clock,clock,0,0474_scg_s05_0_clock_00_clock4-airplane1.png
subject-05,1,475,0.720427989959717,dog,dog,0,0475_scg_s05_0_dog_00_dog7-bird3.png
subject-05,1,476,0.865104913711548,bear,elephant,0,0476_scg_s05_0_elephant_00_elephant2-cat1.png
subject-05,1,477,0.863312005996704,dog,bird,0,0477_scg_s05_0_bird_00_bird2-dog2.png
subject-05,1,478,0.720393180847168,bear,bear,0,0478_scg_s05_0_bear_00_bear4-cat3.png
subject-05,1,479,0.777817010879517,airplane,airplane,0,0479_scg_s05_0_airplane_00_airplane4-bottle1.png
subject-05,1,480,0.900434970855713,chair,chair,0,0480_scg_s05_0_chair_00_chair7-airplane1.png
subject-05,1,481,0.681889057159424,bird,bird,0,0481_scg_s05_0_bird_00_bird8-car2.png
subject-05,1,482,0.684684038162231,bottle,bottle,0,0482_scg_s05_0_bottle_00_bottle3-bottle3.png
subject-05,1,483,0.546324968338013,clock,clock,0,0483_scg_s05_0_clock_00_clock7-boat3.png
subject-05,1,484,0.932898998260498,airplane,airplane,0,0484_scg_s05_0_airplane_00_airplane7-bird3.png
subject-05,1,485,0.717164039611816,keyboard,keyboard,0,0485_scg_s05_0_keyboard_00_keyboard6-bottle2.png
subject-05,1,486,0.698884010314941,truck,truck,0,0486_scg_s05_0_truck_00_truck1-car3.png
subject-05,1,487,0.756856918334961,truck,truck,0,0487_scg_s05_0_truck_00_truck6-cat2.png
subject-05,1,488,0.814593076705933,dog,dog,0,0488_scg_s05_0_dog_00_dog3-knife3.png
subject-05,1,489,0.844728946685791,dog,dog,0,0489_scg_s05_0_dog_00_dog4-bird1.png
subject-05,1,490,0.496507167816162,clock,clock,0,0490_scg_s05_0_clock_00_clock8-boat1.png
subject-05,1,491,1.08453607559204,elephant,elephant,0,0491_scg_s05_0_elephant_00_elephant7-knife2.png
subject-05,1,492,0.857736110687256,clock,clock,0,0492_scg_s05_0_clock_00_clock10-oven2.png
subject-05,1,493,0.831674098968506,bicycle,bicycle,0,0493_scg_s05_0_bicycle_00_bicycle6-cat1.png
subject-05,1,494,0.791587829589844,dog,dog,0,0494_scg_s05_0_dog_00_dog7-car2.png
subject-05,1,495,0.904098033905029,cat,airplane,0,0495_scg_s05_0_airplane_00_airplane2-bear1.png
subject-05,1,496,0.980792999267578,truck,truck,0,0496_scg_s05_0_truck_00_truck4-boat3.png
subject-05,1,497,0.594568014144897,oven,oven,0,0497_scg_s05_0_oven_00_oven4-clock2.png
subject-05,1,498,0.699063062667847,car,car,0,0498_scg_s05_0_car_00_car3-bottle3.png
subject-05,1,499,0.796072959899902,keyboard,keyboard,0,0499_scg_s05_0_keyboard_00_keyboard5-bear3.png
subject-05,1,500,0.699537992477417,bicycle,bicycle,0,0500_scg_s05_0_bicycle_00_bicycle9-bear1.png
subject-05,1,501,0.75754189491272,boat,oven,0,0501_scg_s05_0_oven_00_oven6-chair3.png
subject-05,1,502,0.541965007781982,oven,oven,0,0502_scg_s05_0_oven_00_oven9-bear2.png
subject-05,1,503,0.800101041793823,truck,truck,0,0503_scg_s05_0_truck_00_truck1-cat1.png
subject-05,1,504,0.629968166351318,chair,chair,0,0504_scg_s05_0_chair_00_chair8-car1.png
subject-05,1,505,0.803650140762329,bottle,bottle,0,0505_scg_s05_0_bottle_00_bottle5-airplane1.png
subject-05,1,506,0.99091100692749,bird,bird,0,0506_scg_s05_0_bird_00_bird10-bear2.png
subject-05,1,507,1.13269305229187,clock,clock,0,0507_scg_s05_0_clock_00_clock2-knife1.png
subject-05,1,508,0.609004974365234,bicycle,bicycle,0,0508_scg_s05_0_bicycle_00_bicycle6-bicycle3.png
subject-05,1,509,0.760010957717896,dog,cat,0,0509_scg_s05_0_cat_00_cat7-bottle1.png
subject-05,1,510,0.71877908706665,truck,truck,0,0510_scg_s05_0_truck_00_truck6-boat2.png
subject-05,1,511,0.852785110473633,chair,chair,0,0511_scg_s05_0_chair_00_chair8-oven1.png
subject-05,1,512,0.710729837417603,clock,clock,0,0512_scg_s05_0_clock_00_clock7-cat2.png
subject-05,1,513,0.770663976669312,bottle,bottle,0,0513_scg_s05_0_bottle_00_bottle2-knife3.png
subject-05,1,514,0.636826038360596,cat,cat,0,0514_scg_s05_0_cat_00_cat9-bicycle1.png
subject-05,1,515,0.696233034133911,bicycle,bicycle,0,0515_scg_s05_0_bicycle_00_bicycle1-bottle3.png
subject-05,1,516,0.870285034179688,cat,cat,0,0516_scg_s05_0_cat_00_cat2-bottle3.png
subject-05,1,517,0.714178085327148,oven,oven,0,0517_scg_s05_0_oven_00_oven8-knife2.png
subject-05,1,518,0.504774808883667,cat,cat,0,0518_scg_s05_0_cat_00_cat9-bird3.png
subject-05,1,519,0.600382089614868,bottle,bottle,0,0519_scg_s05_0_bottle_00_bottle2-clock1.png
subject-05,1,520,0.827888965606689,bear,bear,0,0520_scg_s05_0_bear_00_bear3-bicycle2.png
subject-05,1,521,0.633965969085693,chair,chair,0,0521_scg_s05_0_chair_00_chair3-bicycle3.png
subject-05,1,522,1.17631912231445,car,car,0,0522_scg_s05_0_car_00_car6-bottle1.png
subject-05,1,523,0.974130153656006,bicycle,bicycle,0,0523_scg_s05_0_bicycle_00_bicycle9-knife3.png
subject-05,1,524,0.939994096755981,airplane,airplane,0,0524_scg_s05_0_airplane_00_airplane5-bear2.png
subject-05,1,525,0.838008880615234,bear,boat,0,0525_scg_s05_0_boat_00_boat6-bear1.png
subject-05,1,526,0.703001976013184,boat,boat,0,0526_scg_s05_0_boat_00_boat9-boat3.png
subject-05,1,527,0.823502063751221,bicycle,bicycle,0,0527_scg_s05_0_bicycle_00_bicycle4-clock3.png
subject-05,1,528,0.913383007049561,dog,dog,0,0528_scg_s05_0_dog_00_dog10-truck2.png
subject-05,1,529,0.727207899093628,elephant,elephant,0,0529_scg_s05_0_elephant_00_elephant1-bottle1.png
subject-05,1,530,0.662664890289307,dog,dog,0,0530_scg_s05_0_dog_00_dog3-dog1.png
subject-05,1,531,0.566914081573486,clock,clock,0,0531_scg_s05_0_clock_00_clock2-bicycle1.png
subject-05,1,532,0.623871803283691,oven,oven,0,0532_scg_s05_0_oven_00_oven6-bird1.png
subject-05,1,533,0.898097038269043,chair,chair,0,0533_scg_s05_0_chair_00_chair5-oven2.png
subject-05,1,534,0.695698976516724,elephant,elephant,0,0534_scg_s05_0_elephant_00_elephant8-knife2.png
subject-05,1,535,0.753528118133545,chair,chair,0,0535_scg_s05_0_chair_00_chair5-truck3.png
subject-05,1,536,1.33574104309082,elephant,elephant,0,0536_scg_s05_0_elephant_00_elephant9-bicycle2.png
subject-05,1,537,0.787272930145264,bird,bird,0,0537_scg_s05_0_bird_00_bird9-bear3.png
subject-05,1,538,0.669682025909424,knife,knife,0,0538_scg_s05_0_knife_00_knife8-boat1.png
subject-05,1,539,0.759500980377197,bear,bear,0,0539_scg_s05_0_bear_00_bear10-knife2.png
subject-05,1,540,0.817467927932739,knife,knife,0,0540_scg_s05_0_knife_00_knife3-clock2.png
subject-05,1,541,0.638431072235107,dog,dog,0,0541_scg_s05_0_dog_00_dog10-car3.png
subject-05,1,542,0.650607109069824,knife,boat,0,0542_scg_s05_0_boat_00_boat1-keyboard3.png
subject-05,1,543,0.532480955123901,bird,bird,0,0543_scg_s05_0_bird_00_bird1-bear1.png
subject-05,1,544,0.669529914855957,car,car,0,0544_scg_s05_0_car_00_car7-elephant3.png
subject-05,1,545,0.826780080795288,truck,truck,0,0545_scg_s05_0_truck_00_truck5-dog3.png
subject-05,1,546,0.946014881134033,bear,elephant,0,0546_scg_s05_0_elephant_00_elephant2-bear3.png
subject-05,1,547,0.659914970397949,oven,keyboard,0,0547_scg_s05_0_keyboard_00_keyboard3-clock3.png
subject-05,1,548,0.812258005142212,knife,truck,0,0548_scg_s05_0_truck_00_truck3-bear3.png
subject-05,1,549,0.723742008209229,chair,chair,0,0549_scg_s05_0_chair_00_chair1-airplane2.png
subject-05,1,550,0.635614156723022,oven,oven,0,0550_scg_s05_0_oven_00_oven9-car2.png
subject-05,1,551,0.758131980895996,bicycle,bicycle,0,0551_scg_s05_0_bicycle_00_bicycle8-bird2.png
subject-05,1,552,0.983840942382812,knife,keyboard,0,0552_scg_s05_0_keyboard_00_keyboard4-bird1.png
subject-05,1,553,0.967335939407349,bicycle,bicycle,0,0553_scg_s05_0_bicycle_00_bicycle10-elephant2.png
subject-05,1,554,0.763863801956177,knife,knife,0,0554_scg_s05_0_knife_00_knife5-cat2.png
subject-05,1,555,1.07570719718933,truck,truck,0,0555_scg_s05_0_truck_00_truck1-chair2.png
subject-05,1,556,1.04458904266357,bear,bear,0,0556_scg_s05_0_bear_00_bear10-elephant1.png
subject-05,1,557,0.872611045837402,keyboard,keyboard,0,0557_scg_s05_0_keyboard_00_keyboard5-bird3.png
subject-05,1,558,0.678192853927612,clock,clock,0,0558_scg_s05_0_clock_00_clock4-boat3.png
subject-05,1,559,0.757678031921387,car,car,0,0559_scg_s05_0_car_00_car9-keyboard2.png
subject-05,1,560,0.893004894256592,elephant,elephant,0,0560_scg_s05_0_elephant_00_elephant1-airplane2.png
subject-05,1,561,0.799216985702515,elephant,elephant,0,0561_scg_s05_0_elephant_00_elephant1-bear2.png
subject-05,1,562,0.775304079055786,bear,bear,0,0562_scg_s05_0_bear_00_bear10-bear2.png
subject-05,1,563,0.665625810623169,clock,clock,0,0563_scg_s05_0_clock_00_clock6-car2.png
subject-05,1,564,0.936534881591797,bottle,bottle,0,0564_scg_s05_0_bottle_00_bottle9-car3.png
subject-05,1,565,0.935106039047241,car,car,0,0565_scg_s05_0_car_00_car7-dog3.png
subject-05,1,566,0.695544958114624,bear,bear,0,0566_scg_s05_0_bear_00_bear9-bottle2.png
subject-05,1,567,0.748872995376587,cat,cat,0,0567_scg_s05_0_cat_00_cat7-dog3.png
subject-05,1,568,0.860148906707764,bear,elephant,0,0568_scg_s05_0_elephant_00_elephant7-cat1.png
subject-05,1,569,0.566077947616577,chair,chair,0,0569_scg_s05_0_chair_00_chair10-oven1.png
subject-05,1,570,0.593471050262451,clock,clock,0,0570_scg_s05_0_clock_00_clock2-clock3.png
subject-05,1,571,0.629802942276001,bird,bird,0,0571_scg_s05_0_bird_00_bird4-airplane1.png
subject-05,1,572,0.911515951156616,bicycle,bicycle,0,0572_scg_s05_0_bicycle_00_bicycle9-keyboard3.png
subject-05,1,573,0.922951936721802,dog,dog,0,0573_scg_s05_0_dog_00_dog8-oven3.png
subject-05,1,574,0.913026094436646,car,car,0,0574_scg_s05_0_car_00_car1-dog2.png
subject-05,1,575,1.29299592971802,elephant,elephant,0,0575_scg_s05_0_elephant_00_elephant2-elephant3.png
subject-05,1,576,1.08531808853149,bicycle,bicycle,0,0576_scg_s05_0_bicycle_00_bicycle3-keyboard1.png
subject-05,1,577,0.834329843521118,car,car,0,0577_scg_s05_0_car_00_car10-car1.png
subject-05,1,578,0.741227149963379,keyboard,keyboard,0,0578_scg_s05_0_keyboard_00_keyboard10-truck1.png
subject-05,1,579,0.869010210037231,dog,dog,0,0579_scg_s05_0_dog_00_dog9-chair2.png
subject-05,1,580,0.97515606880188,chair,chair,0,0580_scg_s05_0_chair_00_chair7-knife2.png
subject-05,1,581,0.732886075973511,knife,knife,0,0581_scg_s05_0_knife_00_knife9-airplane2.png
subject-05,1,582,0.946742057800293,bicycle,bicycle,0,0582_scg_s05_0_bicycle_00_bicycle1-knife3.png
subject-05,1,583,0.69920015335083,knife,knife,0,0583_scg_s05_0_knife_00_knife1-elephant1.png
subject-05,1,584,1.29400205612183,airplane,airplane,0,0584_scg_s05_0_airplane_00_airplane1-bicycle2.png
subject-05,1,585,0.751018047332764,boat,boat,0,0585_scg_s05_0_boat_00_boat9-knife2.png
subject-05,1,586,0.662670135498047,cat,cat,0,0586_scg_s05_0_cat_00_cat2-truck3.png
subject-05,1,587,0.844130992889404,oven,oven,0,0587_scg_s05_0_oven_00_oven2-oven3.png
subject-05,1,588,0.856465816497803,car,car,0,0588_scg_s05_0_car_00_car4-bear3.png
subject-05,1,589,0.663129806518555,airplane,airplane,0,0589_scg_s05_0_airplane_00_airplane4-boat3.png
subject-05,1,590,0.623056888580322,dog,dog,0,0590_scg_s05_0_dog_00_dog4-bottle2.png
subject-05,1,591,0.71959114074707,elephant,elephant,0,0591_scg_s05_0_elephant_00_elephant8-elephant1.png
subject-05,1,592,0.563415050506592,car,car,0,0592_scg_s05_0_car_00_car4-clock1.png
subject-05,1,593,0.591376066207886,cat,cat,0,0593_scg_s05_0_cat_00_cat4-clock2.png
subject-05,1,594,0.62047815322876,airplane,airplane,0,0594_scg_s05_0_airplane_00_airplane3-oven1.png
subject-05,1,595,0.694944858551025,bicycle,bicycle,0,0595_scg_s05_0_bicycle_00_bicycle8-chair2.png
subject-05,1,596,0.676713943481445,oven,oven,0,0596_scg_s05_0_oven_00_oven2-car1.png
subject-05,1,597,1.03479719161987,airplane,boat,0,0597_scg_s05_0_boat_00_boat8-oven1.png
subject-05,1,598,0.963115930557251,dog,dog,0,0598_scg_s05_0_dog_00_dog5-car3.png
subject-05,1,599,0.906972169876099,bird,bird,0,0599_scg_s05_0_bird_00_bird9-keyboard1.png
subject-05,1,600,0.788709878921509,knife,knife,0,0600_scg_s05_0_knife_00_knife1-airplane1.png
subject-05,1,601,0.97161602973938,bear,dog,0,0601_scg_s05_0_dog_00_dog7-oven2.png
subject-05,1,602,0.785612106323242,dog,cat,0,0602_scg_s05_0_cat_00_cat1-keyboard3.png
subject-05,1,603,0.843485116958618,bird,bird,0,0603_scg_s05_0_bird_00_bird4-bicycle2.png
subject-05,1,604,0.664912939071655,boat,boat,0,0604_scg_s05_0_boat_00_boat2-oven3.png
subject-05,1,605,0.744728803634644,bottle,bottle,0,0605_scg_s05_0_bottle_00_bottle7-boat3.png
subject-05,1,606,0.905028820037842,dog,dog,0,0606_scg_s05_0_dog_00_dog10-keyboard2.png
subject-05,1,607,0.9704430103302,bird,bird,0,0607_scg_s05_0_bird_00_bird4-clock1.png
subject-05,1,608,0.961206197738647,airplane,knife,0,0608_scg_s05_0_knife_00_knife1-clock2.png
subject-05,1,609,0.718854188919067,car,car,0,0609_scg_s05_0_car_00_car4-bicycle3.png
subject-05,1,610,0.838438987731934,dog,dog,0,0610_scg_s05_0_dog_00_dog9-bear3.png
subject-05,1,611,0.898802042007446,bicycle,bicycle,0,0611_scg_s05_0_bicycle_00_bicycle9-bird3.png
subject-05,1,612,0.655658006668091,airplane,airplane,0,0612_scg_s05_0_airplane_00_airplane9-oven2.png
subject-05,1,613,0.716641902923584,boat,boat,0,0613_scg_s05_0_boat_00_boat9-chair2.png
subject-05,1,614,0.720335960388184,keyboard,keyboard,0,0614_scg_s05_0_keyboard_00_keyboard9-bird1.png
subject-05,1,615,0.836000919342041,oven,clock,0,0615_scg_s05_0_clock_00_clock9-keyboard2.png
subject-05,1,616,0.763836860656738,dog,bottle,0,0616_scg_s05_0_bottle_00_bottle5-cat1.png
subject-05,1,617,0.823003053665161,keyboard,keyboard,0,0617_scg_s05_0_keyboard_00_keyboard3-bird3.png
subject-05,1,618,0.815464019775391,bear,bear,0,0618_scg_s05_0_bear_00_bear9-knife2.png
subject-05,1,619,0.851071834564209,car,car,0,0619_scg_s05_0_car_00_car7-bird3.png
subject-05,1,620,0.732499122619629,bottle,bottle,0,0620_scg_s05_0_bottle_00_bottle3-bear2.png
subject-05,1,621,0.646485090255737,oven,oven,0,0621_scg_s05_0_oven_00_oven9-keyboard1.png
subject-05,1,622,0.674407958984375,bird,bird,0,0622_scg_s05_0_bird_00_bird5-airplane3.png
subject-05,1,623,0.726858854293823,bear,bear,0,0623_scg_s05_0_bear_00_bear8-airplane1.png
subject-05,1,624,0.713943958282471,bicycle,bicycle,0,0624_scg_s05_0_bicycle_00_bicycle3-truck3.png
subject-05,1,625,0.665723085403442,clock,clock,0,0625_scg_s05_0_clock_00_clock10-truck2.png
subject-05,1,626,0.815237998962402,car,truck,0,0626_scg_s05_0_truck_00_truck6-truck2.png
subject-05,1,627,0.664722919464111,keyboard,keyboard,0,0627_scg_s05_0_keyboard_00_keyboard6-car2.png
subject-05,1,628,0.646502017974854,bear,bear,0,0628_scg_s05_0_bear_00_bear5-bicycle3.png
subject-05,1,629,0.811369895935059,car,car,0,0629_scg_s05_0_car_00_car9-clock2.png
subject-05,1,630,0.901707887649536,boat,boat,0,0630_scg_s05_0_boat_00_boat1-car2.png
subject-05,1,631,1.03017497062683,bear,elephant,0,0631_scg_s05_0_elephant_00_elephant4-boat3.png
subject-05,1,632,0.695008993148804,boat,boat,0,0632_scg_s05_0_boat_00_boat5-clock3.png
subject-05,1,633,1.26059699058533,airplane,airplane,0,0633_scg_s05_0_airplane_00_airplane5-bicycle1.png
subject-05,1,634,0.851633071899414,bottle,bottle,0,0634_scg_s05_0_bottle_00_bottle2-elephant1.png
subject-05,1,635,0.979063034057617,bird,bird,0,0635_scg_s05_0_bird_00_bird2-bird2.png
subject-05,1,636,0.738663911819458,elephant,elephant,0,0636_scg_s05_0_elephant_00_elephant9-elephant3.png
subject-05,1,637,0.666085958480835,bird,bear,0,0637_scg_s05_0_bear_00_bear6-clock1.png
subject-05,1,638,1.06208300590515,keyboard,keyboard,0,0638_scg_s05_0_keyboard_00_keyboard8-truck3.png
subject-05,1,639,1.22237086296082,oven,oven,0,0639_scg_s05_0_oven_00_oven2-dog3.png
subject-05,1,640,0.534364938735962,car,car,0,0640_scg_s05_0_car_00_car1-car2.png
subject-05,1,641,0.662400960922241,boat,bear,0,0641_scg_s05_0_bear_00_bear6-boat3.png
subject-05,1,642,0.690038919448853,knife,knife,0,0642_scg_s05_0_knife_00_knife8-car2.png
subject-05,1,643,0.718065977096558,bicycle,bicycle,0,0643_scg_s05_0_bicycle_00_bicycle8-boat1.png
subject-05,1,644,0.891570091247559,car,car,0,0644_scg_s05_0_car_00_car1-airplane1.png
subject-05,1,645,0.888663053512573,car,car,0,0645_scg_s05_0_car_00_car5-bear3.png
subject-05,1,646,0.925065040588379,keyboard,keyboard,0,0646_scg_s05_0_keyboard_00_keyboard6-bear2.png
subject-05,1,647,0.761257171630859,car,car,0,0647_scg_s05_0_car_00_car8-dog1.png
subject-05,1,648,0.788695096969604,bicycle,bicycle,0,0648_scg_s05_0_bicycle_00_bicycle3-bird1.png
subject-05,1,649,0.754348039627075,bird,bird,0,0649_scg_s05_0_bird_00_bird8-bottle1.png
subject-05,1,650,0.59058403968811,clock,clock,0,0650_scg_s05_0_clock_00_clock8-oven3.png
subject-05,1,651,0.687437057495117,bottle,bottle,0,0651_scg_s05_0_bottle_00_bottle8-knife1.png
subject-05,1,652,0.900238990783691,bottle,bottle,0,0652_scg_s05_0_bottle_00_bottle8-dog2.png
subject-05,1,653,0.600373029708862,boat,boat,0,0653_scg_s05_0_boat_00_boat5-boat3.png
subject-05,1,654,1.01001214981079,keyboard,boat,0,0654_scg_s05_0_boat_00_boat3-cat3.png
subject-05,1,655,0.753402948379517,keyboard,keyboard,0,0655_scg_s05_0_keyboard_00_keyboard8-cat3.png
subject-05,1,656,0.751636981964111,oven,oven,0,0656_scg_s05_0_oven_00_oven3-clock3.png
subject-05,1,657,0.787724018096924,dog,dog,0,0657_scg_s05_0_dog_00_dog1-cat3.png
subject-05,1,658,0.715374946594238,chair,chair,0,0658_scg_s05_0_chair_00_chair8-clock3.png
subject-05,1,659,0.704997062683105,bicycle,bicycle,0,0659_scg_s05_0_bicycle_00_bicycle4-bottle1.png
subject-05,1,660,0.754771947860718,airplane,airplane,0,0660_scg_s05_0_airplane_00_airplane7-clock3.png
subject-05,1,661,1.05989813804626,bicycle,bicycle,0,0661_scg_s05_0_bicycle_00_bicycle2-dog1.png
subject-05,1,662,0.64211106300354,oven,oven,0,0662_scg_s05_0_oven_00_oven7-car3.png
subject-05,1,663,0.824748039245605,clock,bird,0,0663_scg_s05_0_bird_00_bird3-oven1.png
subject-05,1,664,0.608863115310669,car,car,0,0664_scg_s05_0_car_00_car5-airplane3.png
subject-05,1,665,0.688599824905396,airplane,airplane,0,0665_scg_s05_0_airplane_00_airplane6-chair3.png
subject-05,1,666,1.00815081596375,airplane,airplane,0,0666_scg_s05_0_airplane_00_airplane5-dog3.png
subject-05,1,667,0.814903020858765,car,car,0,0667_scg_s05_0_car_00_car8-knife2.png
subject-05,1,668,0.767016172409058,keyboard,keyboard,0,0668_scg_s05_0_keyboard_00_keyboard1-car3.png
subject-05,1,669,0.74111008644104,bear,bear,0,0669_scg_s05_0_bear_00_bear3-chair2.png
subject-05,1,670,0.554535865783691,chair,chair,0,0670_scg_s05_0_chair_00_chair7-car2.png
subject-05,1,671,0.704483985900879,airplane,bird,0,0671_scg_s05_0_bird_00_bird7-car2.png
subject-05,1,672,0.616316080093384,bird,bird,0,0672_scg_s05_0_bird_00_bird2-knife1.png
subject-05,1,673,1.05211687088013,cat,cat,0,0673_scg_s05_0_cat_00_cat6-bear1.png
subject-05,1,674,0.812180995941162,car,car,0,0674_scg_s05_0_car_00_car2-chair1.png
subject-05,1,675,1.06258702278137,truck,truck,0,0675_scg_s05_0_truck_00_truck6-bear2.png
subject-05,1,676,1.08192300796509,bottle,bottle,0,0676_scg_s05_0_bottle_00_bottle3-bicycle3.png
subject-05,1,677,0.704056978225708,bear,bear,0,0677_scg_s05_0_bear_00_bear2-bird3.png
subject-05,1,678,0.802760124206543,elephant,elephant,0,0678_scg_s05_0_elephant_00_elephant1-oven2.png
subject-05,1,679,0.71426796913147,bear,bear,0,0679_scg_s05_0_bear_00_bear3-keyboard2.png
subject-05,1,680,0.94244909286499,truck,truck,0,0680_scg_s05_0_truck_00_truck9-boat3.png
subject-05,1,681,0.594259977340698,chair,chair,0,0681_scg_s05_0_chair_00_chair1-bear1.png
subject-05,1,682,0.61399507522583,boat,boat,0,0682_scg_s05_0_boat_00_boat1-bicycle2.png
subject-05,1,683,1.20394802093506,keyboard,keyboard,0,0683_scg_s05_0_keyboard_00_keyboard10-keyboard1.png
subject-05,1,684,0.707878828048706,cat,dog,0,0684_scg_s05_0_dog_00_dog3-boat1.png
subject-05,1,685,0.696972846984863,bird,bird,0,0685_scg_s05_0_bird_00_bird5-bird1.png
subject-05,1,686,0.878859043121338,bicycle,bicycle,0,0686_scg_s05_0_bicycle_00_bicycle6-car2.png
subject-05,1,687,0.826862096786499,knife,knife,0,0687_scg_s05_0_knife_00_knife1-car3.png
subject-05,1,688,0.910122156143188,airplane,cat,0,0688_scg_s05_0_cat_00_cat9-boat2.png
subject-05,1,689,0.93198299407959,elephant,elephant,0,0689_scg_s05_0_elephant_00_elephant7-dog1.png
subject-05,1,690,0.714818954467773,bear,bear,0,0690_scg_s05_0_bear_00_bear5-bird1.png
subject-05,1,691,0.636919021606445,boat,boat,0,0691_scg_s05_0_boat_00_boat9-airplane2.png
subject-05,1,692,0.839345932006836,elephant,elephant,0,0692_scg_s05_0_elephant_00_elephant6-oven1.png
subject-05,1,693,0.750869989395142,bear,elephant,0,0693_scg_s05_0_elephant_00_elephant6-bird1.png
subject-05,1,694,0.695186853408813,boat,boat,0,0694_scg_s05_0_boat_00_boat7-boat2.png
subject-05,1,695,0.823480844497681,bicycle,bicycle,0,0695_scg_s05_0_bicycle_00_bicycle6-boat2.png
subject-05,1,696,0.859447002410889,truck,truck,0,0696_scg_s05_0_truck_00_truck1-bird1.png
subject-05,1,697,1.20128703117371,truck,truck,0,0697_scg_s05_0_truck_00_truck8-keyboard2.png
subject-05,1,698,1.21335387229919,bottle,dog,0,0698_scg_s05_0_dog_00_dog2-bottle2.png
subject-05,1,699,0.729825019836426,bear,bear,0,0699_scg_s05_0_bear_00_bear10-chair2.png
subject-05,1,700,0.842120885848999,car,car,0,0700_scg_s05_0_car_00_car4-elephant3.png
subject-05,1,701,0.57265305519104,boat,boat,0,0701_scg_s05_0_boat_00_boat3-airplane2.png
subject-05,1,702,0.798258066177368,elephant,elephant,0,0702_scg_s05_0_elephant_00_elephant10-elephant1.png
subject-05,1,703,0.811905145645142,bicycle,bicycle,0,0703_scg_s05_0_bicycle_00_bicycle3-oven3.png
subject-05,1,704,0.610480785369873,boat,boat,0,0704_scg_s05_0_boat_00_boat4-boat3.png
subject-05,1,705,0.606230020523071,keyboard,keyboard,0,0705_scg_s05_0_keyboard_00_keyboard7-car3.png
subject-05,1,706,0.863641977310181,knife,boat,0,0706_scg_s05_0_boat_00_boat6-elephant2.png
subject-05,1,707,0.752876996994019,bear,bear,0,0707_scg_s05_0_bear_00_bear6-bear1.png
subject-05,1,708,0.788184881210327,knife,knife,0,0708_scg_s05_0_knife_00_knife9-elephant2.png
subject-05,1,709,0.833373785018921,knife,knife,0,0709_scg_s05_0_knife_00_knife6-oven3.png
subject-05,1,710,0.798255920410156,elephant,elephant,0,0710_scg_s05_0_elephant_00_elephant6-dog2.png
subject-05,1,711,0.750928163528442,truck,truck,0,0711_scg_s05_0_truck_00_truck4-oven2.png
subject-05,1,712,0.968138933181763,truck,truck,0,0712_scg_s05_0_truck_00_truck8-elephant1.png
subject-05,1,713,0.874305963516235,clock,clock,0,0713_scg_s05_0_clock_00_clock4-oven1.png
subject-05,1,714,0.932449102401733,bear,bear,0,0714_scg_s05_0_bear_00_bear8-boat2.png
subject-05,1,715,0.679719924926758,boat,boat,0,0715_scg_s05_0_boat_00_boat3-clock3.png
subject-05,1,716,0.761323928833008,bear,bear,0,0716_scg_s05_0_bear_00_bear1-clock2.png
subject-05,1,717,0.727076053619385,bicycle,bicycle,0,0717_scg_s05_0_bicycle_00_bicycle7-bear2.png
subject-05,1,718,0.914929866790771,truck,cat,0,0718_scg_s05_0_cat_00_cat3-oven2.png
subject-05,1,719,0.642554998397827,boat,boat,0,0719_scg_s05_0_boat_00_boat7-clock3.png
subject-05,1,720,0.648432016372681,bottle,bottle,0,0720_scg_s05_0_bottle_00_bottle5-knife1.png
subject-05,1,721,1.15184497833252,bicycle,boat,0,0721_scg_s05_0_boat_00_boat6-bottle2.png
subject-05,1,722,0.69594407081604,oven,oven,0,0722_scg_s05_0_oven_00_oven4-dog1.png
subject-05,1,723,0.800307989120483,knife,knife,0,0723_scg_s05_0_knife_00_knife7-bird3.png
subject-05,1,724,0.973634004592896,elephant,elephant,0,0724_scg_s05_0_elephant_00_elephant9-chair2.png
subject-05,1,725,0.826199769973755,chair,chair,0,0725_scg_s05_0_chair_00_chair4-chair3.png
subject-05,1,726,0.721894979476929,dog,dog,0,0726_scg_s05_0_dog_00_dog8-bear3.png
subject-05,1,727,0.98206901550293,clock,clock,0,0727_scg_s05_0_clock_00_clock6-bird3.png
subject-05,1,728,0.692662000656128,knife,knife,0,0728_scg_s05_0_knife_00_knife4-cat2.png
subject-05,1,729,0.912559986114502,airplane,airplane,0,0729_scg_s05_0_airplane_00_airplane8-bicycle3.png
subject-05,1,730,0.833846807479858,bear,bird,0,0730_scg_s05_0_bird_00_bird3-bear3.png
subject-05,1,731,0.564347982406616,clock,clock,0,0731_scg_s05_0_clock_00_clock9-chair3.png
subject-05,1,732,0.754354953765869,oven,oven,0,0732_scg_s05_0_oven_00_oven9-clock2.png
subject-05,1,733,0.804189920425415,elephant,elephant,0,0733_scg_s05_0_elephant_00_elephant7-bottle3.png
subject-05,1,734,1.03224110603333,bicycle,bicycle,0,0734_scg_s05_0_bicycle_00_bicycle7-elephant2.png
subject-05,1,735,1.43583202362061,chair,chair,0,0735_scg_s05_0_chair_00_chair8-airplane1.png
subject-05,1,736,0.903494834899902,airplane,bear,0,0736_scg_s05_0_bear_00_bear6-car2.png
subject-05,1,737,1.19952201843262,elephant,bottle,0,0737_scg_s05_0_bottle_00_bottle7-bear1.png
subject-05,1,738,0.751216173171997,truck,truck,0,0738_scg_s05_0_truck_00_truck5-keyboard1.png
subject-05,1,739,0.695320129394531,keyboard,keyboard,0,0739_scg_s05_0_keyboard_00_keyboard7-dog1.png
subject-05,1,740,0.648890018463135,clock,clock,0,0740_scg_s05_0_clock_00_clock7-bear2.png
subject-05,1,741,0.714108943939209,bottle,bottle,0,0741_scg_s05_0_bottle_00_bottle6-knife3.png
subject-05,1,742,0.650318145751953,knife,knife,0,0742_scg_s05_0_knife_00_knife2-bicycle3.png
subject-05,1,743,1.01630401611328,bear,airplane,0,0743_scg_s05_0_airplane_00_airplane3-cat1.png
subject-05,1,744,0.654548168182373,elephant,elephant,0,0744_scg_s05_0_elephant_00_elephant2-airplane3.png
subject-05,1,745,1.04232287406921,truck,truck,0,0745_scg_s05_0_truck_00_truck8-bottle2.png
subject-05,1,746,1.48444581031799,oven,oven,0,0746_scg_s05_0_oven_00_oven6-oven3.png
subject-05,1,747,0.692530155181885,bear,bear,0,0747_scg_s05_0_bear_00_bear1-bicycle3.png
subject-05,1,748,0.574170827865601,chair,chair,0,0748_scg_s05_0_chair_00_chair5-knife3.png
subject-05,1,749,0.647449016571045,airplane,airplane,0,0749_scg_s05_0_airplane_00_airplane10-bear3.png
subject-05,1,750,0.781761169433594,elephant,elephant,0,0750_scg_s05_0_elephant_00_elephant8-clock2.png
subject-05,1,751,0.809475898742676,bird,bird,0,0751_scg_s05_0_bird_00_bird10-bird2.png
subject-05,1,752,0.560688972473145,cat,cat,0,0752_scg_s05_0_cat_00_cat9-bottle2.png
subject-05,1,753,0.604825019836426,cat,cat,0,0753_scg_s05_0_cat_00_cat9-knife2.png
subject-05,1,754,0.749289035797119,truck,truck,0,0754_scg_s05_0_truck_00_truck3-car3.png
subject-05,1,755,0.731687068939209,chair,chair,0,0755_scg_s05_0_chair_00_chair4-keyboard2.png
subject-05,1,756,1.05130004882812,chair,chair,0,0756_scg_s05_0_chair_00_chair10-car2.png
subject-05,1,757,0.603818893432617,cat,cat,0,0757_scg_s05_0_cat_00_cat9-clock2.png
subject-05,1,758,0.893250942230225,truck,truck,0,0758_scg_s05_0_truck_00_truck7-elephant2.png
subject-05,1,759,0.922147035598755,bottle,bottle,0,0759_scg_s05_0_bottle_00_bottle8-bicycle1.png
subject-05,1,760,0.657245874404907,truck,truck,0,0760_scg_s05_0_truck_00_truck2-bottle3.png
subject-05,1,761,0.663861036300659,cat,cat,0,0761_scg_s05_0_cat_00_cat5-bear2.png
subject-05,1,762,0.830018043518066,airplane,airplane,0,0762_scg_s05_0_airplane_00_airplane4-knife1.png
subject-05,1,763,0.766206979751587,bicycle,bicycle,0,0763_scg_s05_0_bicycle_00_bicycle5-oven3.png
subject-05,1,764,0.779735088348389,airplane,knife,0,0764_scg_s05_0_knife_00_knife4-airplane3.png
subject-05,1,765,1.39272904396057,bear,bear,0,0765_scg_s05_0_bear_00_bear1-bird2.png
subject-05,1,766,0.919499158859253,dog,dog,0,0766_scg_s05_0_dog_00_dog5-oven1.png
subject-05,1,767,0.794132947921753,knife,knife,0,0767_scg_s05_0_knife_00_knife4-clock3.png
subject-05,1,768,0.613622188568115,bottle,bottle,0,0768_scg_s05_0_bottle_00_bottle2-chair3.png
subject-05,1,769,0.926464080810547,cat,cat,0,0769_scg_s05_0_cat_00_cat8-bear1.png
subject-05,1,770,0.978572130203247,knife,knife,0,0770_scg_s05_0_knife_00_knife1-oven1.png
subject-05,1,771,0.568038940429688,oven,oven,0,0771_scg_s05_0_oven_00_oven3-car2.png
subject-05,1,772,0.673299789428711,car,car,0,0772_scg_s05_0_car_00_car10-dog1.png
subject-05,1,773,0.701763868331909,keyboard,keyboard,0,0773_scg_s05_0_keyboard_00_keyboard5-bottle1.png
subject-05,1,774,0.746809005737305,airplane,airplane,0,0774_scg_s05_0_airplane_00_airplane10-airplane1.png
subject-05,1,775,0.628702163696289,chair,chair,0,0775_scg_s05_0_chair_00_chair9-bottle3.png
subject-05,1,776,0.751210927963257,truck,truck,0,0776_scg_s05_0_truck_00_truck6-oven3.png
subject-05,1,777,0.770712852478027,bird,bird,0,0777_scg_s05_0_bird_00_bird6-airplane2.png
subject-05,1,778,0.83699107170105,elephant,elephant,0,0778_scg_s05_0_elephant_00_elephant8-bird2.png
subject-05,1,779,1.11097097396851,airplane,bird,0,0779_scg_s05_0_bird_00_bird7-boat1.png
subject-05,1,780,0.770719051361084,truck,truck,0,0780_scg_s05_0_truck_00_truck5-knife3.png
subject-05,1,781,0.666409969329834,dog,dog,0,0781_scg_s05_0_dog_00_dog6-clock1.png
subject-05,1,782,0.541791915893555,clock,clock,0,0782_scg_s05_0_clock_00_clock10-knife3.png
subject-05,1,783,0.62922215461731,bicycle,bicycle,0,0783_scg_s05_0_bicycle_00_bicycle1-dog3.png
subject-05,1,784,0.519369840621948,dog,dog,0,0784_scg_s05_0_dog_00_dog4-clock1.png
subject-05,1,785,0.809548854827881,airplane,airplane,0,0785_scg_s05_0_airplane_00_airplane1-chair2.png
subject-05,1,786,0.685739040374756,chair,chair,0,0786_scg_s05_0_chair_00_chair10-clock1.png
subject-05,1,787,0.773815155029297,oven,oven,0,0787_scg_s05_0_oven_00_oven10-bicycle1.png
subject-05,1,788,1.17165517807007,car,car,0,0788_scg_s05_0_car_00_car7-clock1.png
subject-05,1,789,0.723440885543823,airplane,bear,0,0789_scg_s05_0_bear_00_bear6-chair1.png
subject-05,1,790,0.527414083480835,clock,clock,0,0790_scg_s05_0_clock_00_clock8-keyboard1.png
subject-05,1,791,0.91187310218811,bird,bird,0,0791_scg_s05_0_bird_00_bird4-dog3.png
subject-05,1,792,0.623817920684814,chair,chair,0,0792_scg_s05_0_chair_00_chair3-car3.png
subject-05,1,793,0.821506977081299,bottle,bottle,0,0793_scg_s05_0_bottle_00_bottle5-boat1.png
subject-05,1,794,0.935528039932251,keyboard,keyboard,0,0794_scg_s05_0_keyboard_00_keyboard3-car2.png
subject-05,1,795,0.701555967330933,car,car,0,0795_scg_s05_0_car_00_car9-knife1.png
subject-05,1,796,0.713448047637939,airplane,airplane,0,0796_scg_s05_0_airplane_00_airplane4-bicycle2.png
subject-05,1,797,0.711308002471924,chair,chair,0,0797_scg_s05_0_chair_00_chair6-dog1.png
subject-05,1,798,0.579387903213501,clock,clock,0,0798_scg_s05_0_clock_00_clock4-chair1.png
subject-05,1,799,0.874864101409912,knife,knife,0,0799_scg_s05_0_knife_00_knife6-knife1.png
subject-05,1,800,0.989012956619263,bicycle,bird,0,0800_scg_s05_0_bird_00_bird3-bottle2.png
subject-05,1,801,0.655082941055298,dog,dog,0,0801_scg_s05_0_dog_00_dog10-oven2.png
subject-05,1,802,0.690698862075806,cat,boat,0,0802_scg_s05_0_boat_00_boat7-cat3.png
subject-05,1,803,0.680495977401733,oven,oven,0,0803_scg_s05_0_oven_00_oven4-bicycle2.png
subject-05,1,804,0.854113101959229,truck,truck,0,0804_scg_s05_0_truck_00_truck7-boat1.png
subject-05,1,805,1.28119897842407,truck,truck,0,0805_scg_s05_0_truck_00_truck4-bottle2.png
subject-05,1,806,0.825437068939209,bicycle,bicycle,0,0806_scg_s05_0_bicycle_00_bicycle10-clock2.png
subject-05,1,807,0.67754602432251,elephant,elephant,0,0807_scg_s05_0_elephant_00_elephant4-clock3.png
subject-05,1,808,0.605546951293945,cat,cat,0,0808_scg_s05_0_cat_00_cat1-airplane1.png
subject-05,1,809,0.755174160003662,bottle,bottle,0,0809_scg_s05_0_bottle_00_bottle8-bird1.png
subject-05,1,810,0.822585105895996,airplane,airplane,0,0810_scg_s05_0_airplane_00_airplane5-bottle3.png
subject-05,1,811,0.726701021194458,bird,bird,0,0811_scg_s05_0_bird_00_bird2-clock3.png
subject-05,1,812,0.653823852539062,bird,bird,0,0812_scg_s05_0_bird_00_bird8-clock1.png
subject-05,1,813,0.736099004745483,chair,chair,0,0813_scg_s05_0_chair_00_chair7-boat3.png
subject-05,1,814,0.913778781890869,car,car,0,0814_scg_s05_0_car_00_car10-bicycle2.png
subject-05,1,815,0.673895120620728,bicycle,bicycle,0,0815_scg_s05_0_bicycle_00_bicycle1-elephant2.png
subject-05,1,816,0.763427972793579,knife,knife,0,0816_scg_s05_0_knife_00_knife5-dog1.png
subject-05,1,817,0.775315046310425,truck,truck,0,0817_scg_s05_0_truck_00_truck2-oven3.png
subject-05,1,818,0.60304594039917,cat,cat,0,0818_scg_s05_0_cat_00_cat1-cat3.png
subject-05,1,819,0.708448886871338,bicycle,bicycle,0,0819_scg_s05_0_bicycle_00_bicycle9-chair1.png
subject-05,1,820,0.806581974029541,keyboard,keyboard,0,0820_scg_s05_0_keyboard_00_keyboard9-chair2.png
subject-05,1,821,0.759097099304199,chair,chair,0,0821_scg_s05_0_chair_00_chair4-bear2.png
subject-05,1,822,0.833124876022339,airplane,airplane,0,0822_scg_s05_0_airplane_00_airplane5-boat3.png
subject-05,1,823,0.731372833251953,elephant,elephant,0,0823_scg_s05_0_elephant_00_elephant5-elephant1.png
subject-05,1,824,0.667141199111938,bird,bird,0,0824_scg_s05_0_bird_00_bird1-oven1.png
subject-05,1,825,0.76528000831604,dog,dog,0,0825_scg_s05_0_dog_00_dog10-clock1.png
subject-05,1,826,0.708763122558594,bottle,bottle,0,0826_scg_s05_0_bottle_00_bottle3-airplane2.png
subject-05,1,827,0.653481960296631,truck,truck,0,0827_scg_s05_0_truck_00_truck9-chair3.png
subject-05,1,828,0.970319032669067,bottle,bottle,0,0828_scg_s05_0_bottle_00_bottle5-bird3.png
subject-05,1,829,0.762181043624878,dog,dog,0,0829_scg_s05_0_dog_00_dog6-elephant2.png
subject-05,1,830,0.750276803970337,bear,bear,0,0830_scg_s05_0_bear_00_bear5-bottle1.png
subject-05,1,831,0.723219871520996,chair,chair,0,0831_scg_s05_0_chair_00_chair5-boat3.png
subject-05,1,832,0.829821825027466,chair,chair,0,0832_scg_s05_0_chair_00_chair6-elephant2.png
subject-05,1,833,0.711836814880371,bear,bear,0,0833_scg_s05_0_bear_00_bear2-elephant1.png
subject-05,1,834,0.695585012435913,keyboard,keyboard,0,0834_scg_s05_0_keyboard_00_keyboard6-elephant1.png
subject-05,1,835,0.786243915557861,bicycle,bicycle,0,0835_scg_s05_0_bicycle_00_bicycle1-bicycle3.png
subject-05,1,836,0.629981994628906,keyboard,keyboard,0,0836_scg_s05_0_keyboard_00_keyboard4-keyboard2.png
subject-05,1,837,0.695719957351685,keyboard,keyboard,0,0837_scg_s05_0_keyboard_00_keyboard4-oven2.png
subject-05,1,838,0.784920930862427,airplane,airplane,0,0838_scg_s05_0_airplane_00_airplane1-clock1.png
subject-05,1,839,0.791520118713379,truck,truck,0,0839_scg_s05_0_truck_00_truck10-car3.png
subject-05,1,840,0.73342490196228,bicycle,bicycle,0,0840_scg_s05_0_bicycle_00_bicycle10-airplane2.png
subject-05,1,841,0.831328868865967,oven,oven,0,0841_scg_s05_0_oven_00_oven3-airplane1.png
subject-05,1,842,0.7292320728302,chair,chair,0,0842_scg_s05_0_chair_00_chair7-bird1.png
subject-05,1,843,0.786611080169678,airplane,airplane,0,0843_scg_s05_0_airplane_00_airplane10-knife3.png
subject-05,1,844,0.592620134353638,oven,oven,0,0844_scg_s05_0_oven_00_oven1-clock3.png
subject-05,1,845,0.595762014389038,oven,oven,0,0845_scg_s05_0_oven_00_oven5-elephant1.png
subject-05,1,846,0.594054937362671,bottle,bottle,0,0846_scg_s05_0_bottle_00_bottle5-truck1.png
subject-05,1,847,0.61384916305542,bottle,bottle,0,0847_scg_s05_0_bottle_00_bottle3-boat3.png
subject-05,1,848,0.70366907119751,oven,oven,0,0848_scg_s05_0_oven_00_oven4-knife2.png
subject-05,1,849,0.815685987472534,truck,truck,0,0849_scg_s05_0_truck_00_truck2-clock1.png
subject-05,1,850,0.814369201660156,boat,boat,0,0850_scg_s05_0_boat_00_boat3-bicycle2.png
subject-05,1,851,1.15003108978271,bicycle,bicycle,0,0851_scg_s05_0_bicycle_00_bicycle2-knife2.png
subject-05,1,852,0.969449996948242,truck,truck,0,0852_scg_s05_0_truck_00_truck4-knife1.png
subject-05,1,853,0.643769979476929,chair,chair,0,0853_scg_s05_0_chair_00_chair6-bird2.png
subject-05,1,854,0.811946153640747,chair,chair,0,0854_scg_s05_0_chair_00_chair5-bicycle1.png
subject-05,1,855,1.25359296798706,boat,boat,0,0855_scg_s05_0_boat_00_boat6-car1.png
subject-05,1,856,0.737746953964233,knife,knife,0,0856_scg_s05_0_knife_00_knife6-bird1.png
subject-05,1,857,0.811166048049927,knife,knife,0,0857_scg_s05_0_knife_00_knife1-chair1.png
subject-05,1,858,0.625880002975464,clock,clock,0,0858_scg_s05_0_clock_00_clock3-bear3.png
subject-05,1,859,0.545938014984131,boat,boat,0,0859_scg_s05_0_boat_00_boat5-airplane1.png
subject-05,1,860,0.757651090621948,bird,bird,0,0860_scg_s05_0_bird_00_bird5-oven3.png
subject-05,1,861,0.60974383354187,keyboard,keyboard,0,0861_scg_s05_0_keyboard_00_keyboard7-knife1.png
subject-05,1,862,0.678086042404175,car,car,0,0862_scg_s05_0_car_00_car3-bird2.png
subject-05,1,863,0.635792016983032,bird,bird,0,0863_scg_s05_0_bird_00_bird6-boat2.png
subject-05,1,864,0.625311136245728,keyboard,keyboard,0,0864_scg_s05_0_keyboard_00_keyboard10-airplane3.png
subject-05,1,865,0.807998895645142,chair,chair,0,0865_scg_s05_0_chair_00_chair1-elephant1.png
subject-05,1,866,0.710911989212036,car,car,0,0866_scg_s05_0_car_00_car8-bicycle2.png
subject-05,1,867,0.77820897102356,clock,clock,0,0867_scg_s05_0_clock_00_clock7-bicycle1.png
subject-05,1,868,0.675124168395996,bicycle,bicycle,0,0868_scg_s05_0_bicycle_00_bicycle5-cat1.png
subject-05,1,869,1.08660387992859,chair,bottle,0,0869_scg_s05_0_bottle_00_bottle7-oven2.png
subject-05,1,870,0.608373880386353,clock,clock,0,0870_scg_s05_0_clock_00_clock10-cat1.png
subject-05,1,871,0.752464056015015,car,car,0,0871_scg_s05_0_car_00_car6-knife1.png
subject-05,1,872,0.618542909622192,airplane,airplane,0,0872_scg_s05_0_airplane_00_airplane9-truck1.png
subject-05,1,873,0.752586841583252,elephant,elephant,0,0873_scg_s05_0_elephant_00_elephant8-bicycle3.png
subject-05,1,874,0.618025779724121,bicycle,bicycle,0,0874_scg_s05_0_bicycle_00_bicycle1-clock3.png
subject-05,1,875,0.637628078460693,bear,bear,0,0875_scg_s05_0_bear_00_bear7-oven3.png
subject-05,1,876,0.941870927810669,dog,dog,0,0876_scg_s05_0_dog_00_dog8-dog3.png
subject-05,1,877,0.73400616645813,dog,dog,0,0877_scg_s05_0_dog_00_dog3-elephant2.png
subject-05,1,878,1.00796794891357,truck,truck,0,0878_scg_s05_0_truck_00_truck3-oven2.png
subject-05,1,879,0.581485986709595,chair,chair,0,0879_scg_s05_0_chair_00_chair10-bottle3.png
subject-05,1,880,0.555359125137329,airplane,airplane,0,0880_scg_s05_0_airplane_00_airplane1-elephant1.png
subject-05,1,881,1.29935097694397,truck,truck,0,0881_scg_s05_0_truck_00_truck7-chair2.png
subject-05,1,882,0.788563013076782,bird,bird,0,0882_scg_s05_0_bird_00_bird4-cat3.png
subject-05,1,883,0.886872053146362,chair,chair,0,0883_scg_s05_0_chair_00_chair5-car1.png
subject-05,1,884,0.79119086265564,bottle,bottle,0,0884_scg_s05_0_bottle_00_bottle6-boat3.png
subject-05,1,885,0.489020109176636,oven,oven,0,0885_scg_s05_0_oven_00_oven4-bottle2.png
subject-05,1,886,0.710341930389404,keyboard,keyboard,0,0886_scg_s05_0_keyboard_00_keyboard5-keyboard1.png
subject-05,1,887,0.571617841720581,bottle,bottle,0,0887_scg_s05_0_bottle_00_bottle5-chair1.png
subject-05,1,888,0.569772958755493,cat,cat,0,0888_scg_s05_0_cat_00_cat7-knife2.png
subject-05,1,889,0.889595031738281,oven,boat,0,0889_scg_s05_0_boat_00_boat10-cat1.png
subject-05,1,890,0.695970058441162,dog,dog,0,0890_scg_s05_0_dog_00_dog8-bottle2.png
subject-05,1,891,0.631278038024902,oven,oven,0,0891_scg_s05_0_oven_00_oven6-airplane3.png
subject-05,1,892,0.835474014282227,bottle,bottle,0,0892_scg_s05_0_bottle_00_bottle5-oven2.png
subject-05,1,893,0.755381107330322,chair,chair,0,0893_scg_s05_0_chair_00_chair9-chair3.png
subject-05,1,894,0.899615049362183,knife,knife,0,0894_scg_s05_0_knife_00_knife3-knife1.png
subject-05,1,895,0.935593843460083,airplane,airplane,0,0895_scg_s05_0_airplane_00_airplane6-keyboard3.png
subject-05,1,896,0.847606897354126,truck,truck,0,0896_scg_s05_0_truck_00_truck10-bicycle1.png
subject-05,1,897,0.690775871276855,chair,chair,0,0897_scg_s05_0_chair_00_chair9-bird3.png
subject-05,1,898,0.572502851486206,keyboard,keyboard,0,0898_scg_s05_0_keyboard_00_keyboard9-boat2.png
subject-05,1,899,0.770644903182983,bear,bear,0,0899_scg_s05_0_bear_00_bear4-boat2.png
subject-05,1,900,0.668987989425659,bird,bird,0,0900_scg_s05_0_bird_00_bird1-clock3.png
subject-05,1,901,0.721214771270752,elephant,elephant,0,0901_scg_s05_0_elephant_00_elephant6-bottle2.png
subject-05,1,902,0.603206872940063,cat,cat,0,0902_scg_s05_0_cat_00_cat5-bicycle3.png
subject-05,1,903,0.60870885848999,oven,oven,0,0903_scg_s05_0_oven_00_oven10-bear1.png
subject-05,1,904,0.606912136077881,oven,boat,0,0904_scg_s05_0_boat_00_boat1-bird3.png
subject-05,1,905,0.902495145797729,keyboard,boat,0,0905_scg_s05_0_boat_00_boat3-dog3.png
subject-05,1,906,0.69307804107666,boat,boat,0,0906_scg_s05_0_boat_00_boat5-car3.png
subject-05,1,907,0.706845045089722,bear,bear,0,0907_scg_s05_0_bear_00_bear7-clock1.png
subject-05,1,908,0.705513954162598,car,car,0,0908_scg_s05_0_car_00_car8-bear1.png
subject-05,1,909,0.657251119613647,bicycle,bicycle,0,0909_scg_s05_0_bicycle_00_bicycle7-truck3.png
subject-05,1,910,0.953963994979858,dog,dog,0,0910_scg_s05_0_dog_00_dog6-cat1.png
subject-05,1,911,1.35922813415527,bird,airplane,0,0911_scg_s05_0_airplane_00_airplane4-cat3.png
subject-05,1,912,0.779562950134277,car,car,0,0912_scg_s05_0_car_00_car10-bottle3.png
subject-05,1,913,0.763159036636353,truck,truck,0,0913_scg_s05_0_truck_00_truck10-truck3.png
subject-05,1,914,0.921624898910522,truck,truck,0,0914_scg_s05_0_truck_00_truck7-oven2.png
subject-05,1,915,0.757297992706299,clock,clock,0,0915_scg_s05_0_clock_00_clock8-bear2.png
subject-05,1,916,0.570870161056519,cat,cat,0,0916_scg_s05_0_cat_00_cat5-knife2.png
subject-05,1,917,0.820328950881958,chair,chair,0,0917_scg_s05_0_chair_00_chair5-clock2.png
subject-05,1,918,0.726222991943359,knife,knife,0,0918_scg_s05_0_knife_00_knife2-cat3.png
subject-05,1,919,0.662248134613037,cat,elephant,0,0919_scg_s05_0_elephant_00_elephant2-bird1.png
subject-05,1,920,0.665426015853882,car,car,0,0920_scg_s05_0_car_00_car6-bear1.png
subject-05,1,921,0.801241874694824,chair,bottle,0,0921_scg_s05_0_bottle_00_bottle7-keyboard2.png
subject-05,1,922,0.65319299697876,cat,cat,0,0922_scg_s05_0_cat_00_cat2-knife3.png
subject-05,1,923,0.681334018707275,cat,cat,0,0923_scg_s05_0_cat_00_cat10-clock1.png
subject-05,1,924,0.641035079956055,airplane,airplane,0,0924_scg_s05_0_airplane_00_airplane9-clock1.png
subject-05,1,925,0.652316808700562,bird,bird,0,0925_scg_s05_0_bird_00_bird2-car3.png
subject-05,1,926,0.783393144607544,bottle,bottle,0,0926_scg_s05_0_bottle_00_bottle8-elephant3.png
subject-05,1,927,0.879449844360352,knife,knife,0,0927_scg_s05_0_knife_00_knife6-dog2.png
subject-05,1,928,0.677516937255859,bear,bear,0,0928_scg_s05_0_bear_00_bear10-cat2.png
subject-05,1,929,0.636802911758423,clock,clock,0,0929_scg_s05_0_clock_00_clock4-knife1.png
subject-05,1,930,0.918869972229004,knife,airplane,0,0930_scg_s05_0_airplane_00_airplane7-keyboard1.png
subject-05,1,931,0.79283595085144,keyboard,keyboard,0,0931_scg_s05_0_keyboard_00_keyboard8-airplane2.png
subject-05,1,932,1.35880708694458,cat,cat,0,0932_scg_s05_0_cat_00_cat3-bear2.png
subject-05,1,933,0.710579872131348,knife,knife,0,0933_scg_s05_0_knife_00_knife4-bear1.png
subject-05,1,934,0.876343011856079,keyboard,keyboard,0,0934_scg_s05_0_keyboard_00_keyboard1-bird2.png
subject-05,1,935,0.620145082473755,car,car,0,0935_scg_s05_0_car_00_car7-airplane2.png
subject-05,1,936,0.617859125137329,chair,chair,0,0936_scg_s05_0_chair_00_chair10-bird3.png
subject-05,1,937,0.608367919921875,knife,knife,0,0937_scg_s05_0_knife_00_knife2-dog1.png
subject-05,1,938,0.936084985733032,bicycle,bicycle,0,0938_scg_s05_0_bicycle_00_bicycle9-cat3.png
subject-05,1,939,0.796065092086792,truck,truck,0,0939_scg_s05_0_truck_00_truck1-knife1.png
subject-05,1,940,0.840368032455444,bear,bear,0,0940_scg_s05_0_bear_00_bear2-cat2.png
subject-05,1,941,0.943930864334106,clock,knife,0,0941_scg_s05_0_knife_00_knife5-knife3.png
subject-05,1,942,0.84791898727417,car,car,0,0942_scg_s05_0_car_00_car9-cat1.png
subject-05,1,943,0.723854064941406,airplane,airplane,0,0943_scg_s05_0_airplane_00_airplane10-elephant1.png
subject-05,1,944,0.729762077331543,bird,bird,0,0944_scg_s05_0_bird_00_bird1-boat1.png
subject-05,1,945,0.86269998550415,bear,bear,0,0945_scg_s05_0_bear_00_bear8-bicycle3.png
subject-05,1,946,0.544697999954224,oven,oven,0,0946_scg_s05_0_oven_00_oven2-bottle1.png
subject-05,1,947,0.625923871994019,clock,clock,0,0947_scg_s05_0_clock_00_clock4-car2.png
subject-05,1,948,0.667316913604736,chair,chair,0,0948_scg_s05_0_chair_00_chair1-cat3.png
subject-05,1,949,0.919523000717163,keyboard,keyboard,0,0949_scg_s05_0_keyboard_00_keyboard5-knife2.png
subject-05,1,950,0.95580792427063,chair,chair,0,0950_scg_s05_0_chair_00_chair5-keyboard2.png
subject-05,1,951,0.883576154708862,cat,cat,0,0951_scg_s05_0_cat_00_cat9-dog2.png
subject-05,1,952,0.790118932723999,knife,knife,0,0952_scg_s05_0_knife_00_knife6-boat3.png
subject-05,1,953,0.758198022842407,keyboard,keyboard,0,0953_scg_s05_0_keyboard_00_keyboard7-oven2.png
subject-05,1,954,0.84018087387085,keyboard,keyboard,0,0954_scg_s05_0_keyboard_00_keyboard7-truck2.png
subject-05,1,955,0.637685060501099,clock,clock,0,0955_scg_s05_0_clock_00_clock8-airplane2.png
subject-05,1,956,0.611772060394287,cat,cat,0,0956_scg_s05_0_cat_00_cat8-bird2.png
subject-05,1,957,0.652482032775879,bear,bear,0,0957_scg_s05_0_bear_00_bear7-bear2.png
subject-05,1,958,0.812786817550659,truck,truck,0,0958_scg_s05_0_truck_00_truck8-cat2.png
subject-05,1,959,0.586602926254272,oven,oven,0,0959_scg_s05_0_oven_00_oven6-bear2.png
subject-05,1,960,0.599977970123291,chair,chair,0,0960_scg_s05_0_chair_00_chair1-chair1.png
subject-05,1,961,0.557914018630981,bird,bird,0,0961_scg_s05_0_bird_00_bird1-bicycle2.png
subject-05,1,962,NaN,na,oven,0,0962_scg_s05_0_oven_00_oven8-keyboard3.png
subject-05,1,963,0.662992000579834,knife,knife,0,0963_scg_s05_0_knife_00_knife1-dog1.png
subject-05,1,964,0.76938796043396,bear,dog,0,0964_scg_s05_0_dog_00_dog9-car1.png
subject-05,1,965,0.802563905715942,bottle,bottle,0,0965_scg_s05_0_bottle_00_bottle6-oven3.png
subject-05,1,966,0.646338939666748,bicycle,bicycle,0,0966_scg_s05_0_bicycle_00_bicycle5-car3.png
subject-05,1,967,0.636245965957642,car,car,0,0967_scg_s05_0_car_00_car5-cat1.png
subject-05,1,968,0.926410913467407,knife,keyboard,0,0968_scg_s05_0_keyboard_00_keyboard3-cat1.png
subject-05,1,969,0.585978031158447,oven,oven,0,0969_scg_s05_0_oven_00_oven1-cat1.png
subject-05,1,970,0.827800989151001,elephant,elephant,0,0970_scg_s05_0_elephant_00_elephant5-truck1.png
subject-05,1,971,0.649330854415894,oven,boat,0,0971_scg_s05_0_boat_00_boat1-oven1.png
subject-05,1,972,0.631453990936279,bottle,bottle,0,0972_scg_s05_0_bottle_00_bottle9-oven2.png
subject-05,1,973,1.50019907951355,airplane,cat,0,0973_scg_s05_0_cat_00_cat10-bottle1.png
subject-05,1,974,1.01162600517273,knife,knife,0,0974_scg_s05_0_knife_00_knife9-chair1.png
subject-05,1,975,0.863563060760498,elephant,elephant,0,0975_scg_s05_0_elephant_00_elephant5-car1.png
subject-05,1,976,0.790959119796753,keyboard,keyboard,0,0976_scg_s05_0_keyboard_00_keyboard6-dog2.png
subject-05,1,977,0.560758829116821,cat,cat,0,0977_scg_s05_0_cat_00_cat4-dog3.png
subject-05,1,978,0.609924793243408,boat,boat,0,0978_scg_s05_0_boat_00_boat8-truck2.png
subject-05,1,979,0.652895927429199,keyboard,keyboard,0,0979_scg_s05_0_keyboard_00_keyboard9-cat1.png
subject-05,1,980,0.626943111419678,bird,bird,0,0980_scg_s05_0_bird_00_bird1-keyboard3.png
subject-05,1,981,0.817585945129395,truck,truck,0,0981_scg_s05_0_truck_00_truck2-boat3.png
subject-05,1,982,0.644464015960693,dog,dog,0,0982_scg_s05_0_dog_00_dog4-cat3.png
subject-05,1,983,0.796295166015625,elephant,elephant,0,0983_scg_s05_0_elephant_00_elephant6-cat2.png
subject-05,1,984,0.98726487159729,bottle,bottle,0,0984_scg_s05_0_bottle_00_bottle6-airplane1.png
subject-05,1,985,0.876848936080933,knife,knife,0,0985_scg_s05_0_knife_00_knife10-chair1.png
subject-05,1,986,1.25639700889587,knife,keyboard,0,0986_scg_s05_0_keyboard_00_keyboard3-elephant2.png
subject-05,1,987,0.640486001968384,clock,clock,0,0987_scg_s05_0_clock_00_clock6-truck3.png
subject-05,1,988,0.752344846725464,bottle,bottle,0,0988_scg_s05_0_bottle_00_bottle10-bear2.png
subject-05,1,989,0.766731023788452,bottle,bottle,0,0989_scg_s05_0_bottle_00_bottle9-cat2.png
subject-05,1,990,0.61834192276001,bicycle,bicycle,0,0990_scg_s05_0_bicycle_00_bicycle5-keyboard3.png
subject-05,1,991,0.730493783950806,truck,truck,0,0991_scg_s05_0_truck_00_truck1-bicycle3.png
subject-05,1,992,0.751521110534668,chair,oven,0,0992_scg_s05_0_oven_00_oven7-oven1.png
subject-05,1,993,0.732264041900635,truck,truck,0,0993_scg_s05_0_truck_00_truck5-cat3.png
subject-05,1,994,0.777037858963013,dog,elephant,0,0994_scg_s05_0_elephant_00_elephant2-keyboard3.png
subject-05,1,995,0.620113849639893,clock,clock,0,0995_scg_s05_0_clock_00_clock6-bottle1.png
subject-05,1,996,0.731765985488892,dog,dog,0,0996_scg_s05_0_dog_00_dog2-bicycle2.png
subject-05,1,997,0.683419942855835,airplane,airplane,0,0997_scg_s05_0_airplane_00_airplane2-dog1.png
subject-05,1,998,0.7498779296875,knife,knife,0,0998_scg_s05_0_knife_00_knife6-truck1.png
subject-05,1,999,0.73145604133606,bear,bear,0,0999_scg_s05_0_bear_00_bear7-truck1.png
subject-05,1,1000,0.653128147125244,keyboard,keyboard,0,1000_scg_s05_0_keyboard_00_keyboard4-truck3.png
subject-05,1,1001,0.689455032348633,keyboard,keyboard,0,1001_scg_s05_0_keyboard_00_keyboard6-bicycle1.png
subject-05,1,1002,0.693222999572754,oven,cat,0,1002_scg_s05_0_cat_00_cat10-oven2.png
subject-05,1,1003,0.561439037322998,boat,boat,0,1003_scg_s05_0_boat_00_boat8-knife1.png
subject-05,1,1004,0.689638137817383,oven,oven,0,1004_scg_s05_0_oven_00_oven5-keyboard2.png
subject-05,1,1005,0.671381950378418,bicycle,bicycle,0,1005_scg_s05_0_bicycle_00_bicycle6-airplane2.png
subject-05,1,1006,0.609697103500366,oven,oven,0,1006_scg_s05_0_oven_00_oven3-boat3.png
subject-05,1,1007,0.62489914894104,bear,bear,0,1007_scg_s05_0_bear_00_bear7-bicycle2.png
subject-05,1,1008,0.558582067489624,oven,oven,0,1008_scg_s05_0_oven_00_oven3-knife1.png
subject-05,1,1009,0.748441934585571,bottle,bottle,0,1009_scg_s05_0_bottle_00_bottle1-chair2.png
subject-05,1,1010,0.716828107833862,bottle,bottle,0,1010_scg_s05_0_bottle_00_bottle4-car3.png
subject-05,1,1011,0.720173835754395,chair,oven,0,1011_scg_s05_0_oven_00_oven7-elephant1.png
subject-05,1,1012,0.718317985534668,bicycle,bicycle,0,1012_scg_s05_0_bicycle_00_bicycle4-oven3.png
subject-05,1,1013,0.591771841049194,chair,chair,0,1013_scg_s05_0_chair_00_chair7-cat1.png
subject-05,1,1014,0.752384901046753,chair,chair,0,1014_scg_s05_0_chair_00_chair9-bicycle3.png
subject-05,1,1015,1.14009189605713,cat,bird,0,1015_scg_s05_0_bird_00_bird3-boat3.png
subject-05,1,1016,0.466846942901611,clock,clock,0,1016_scg_s05_0_clock_00_clock1-dog2.png
subject-05,1,1017,0.718728065490723,boat,boat,0,1017_scg_s05_0_boat_00_boat4-bicycle3.png
subject-05,1,1018,0.563283920288086,cat,cat,0,1018_scg_s05_0_cat_00_cat4-car2.png
subject-05,1,1019,0.736849069595337,bicycle,bicycle,0,1019_scg_s05_0_bicycle_00_bicycle7-clock3.png
subject-05,1,1020,0.580293893814087,oven,oven,0,1020_scg_s05_0_oven_00_oven4-keyboard3.png
subject-05,1,1021,0.708392858505249,bicycle,bicycle,0,1021_scg_s05_0_bicycle_00_bicycle4-keyboard3.png
subject-05,1,1022,0.758457899093628,car,car,0,1022_scg_s05_0_car_00_car4-oven2.png
subject-05,1,1023,0.734882116317749,clock,clock,0,1023_scg_s05_0_clock_00_clock7-car1.png
subject-05,1,1024,1.03826713562012,knife,knife,0,1024_scg_s05_0_knife_00_knife2-truck2.png
subject-05,1,1025,0.803598880767822,airplane,airplane,0,1025_scg_s05_0_airplane_00_airplane5-chair3.png
subject-05,1,1026,0.585689067840576,clock,clock,0,1026_scg_s05_0_clock_00_clock7-dog2.png
subject-05,1,1027,0.529379844665527,oven,keyboard,0,1027_scg_s05_0_keyboard_00_keyboard6-knife2.png
subject-05,1,1028,0.733659982681274,truck,truck,0,1028_scg_s05_0_truck_00_truck7-truck2.png
subject-05,1,1029,0.655905961990356,bird,bird,0,1029_scg_s05_0_bird_00_bird7-cat3.png
subject-05,1,1030,0.753998994827271,truck,truck,0,1030_scg_s05_0_truck_00_truck2-airplane3.png
subject-05,1,1031,0.656087875366211,clock,clock,0,1031_scg_s05_0_clock_00_clock8-cat1.png
subject-05,1,1032,0.486783981323242,cat,cat,0,1032_scg_s05_0_cat_00_cat5-elephant2.png
subject-05,1,1033,0.674345016479492,elephant,elephant,0,1033_scg_s05_0_elephant_00_elephant3-oven1.png
subject-05,1,1034,0.671992063522339,boat,boat,0,1034_scg_s05_0_boat_00_boat9-clock1.png
subject-05,1,1035,0.778461933135986,bottle,bottle,0,1035_scg_s05_0_bottle_00_bottle8-keyboard3.png
subject-05,1,1036,0.835763216018677,bird,bird,0,1036_scg_s05_0_bird_00_bird10-clock1.png
subject-05,1,1037,1.00133895874023,car,car,0,1037_scg_s05_0_car_00_car3-truck1.png
subject-05,1,1038,0.653548955917358,keyboard,keyboard,0,1038_scg_s05_0_keyboard_00_keyboard9-bear2.png
subject-05,1,1039,0.820479154586792,bicycle,bicycle,0,1039_scg_s05_0_bicycle_00_bicycle2-bird3.png
subject-05,1,1040,0.734457969665527,truck,truck,0,1040_scg_s05_0_truck_00_truck4-bear1.png
subject-05,1,1041,0.700392007827759,clock,clock,0,1041_scg_s05_0_clock_00_clock10-airplane1.png
subject-05,1,1042,0.5764000415802,dog,dog,0,1042_scg_s05_0_dog_00_dog4-elephant2.png
subject-05,1,1043,0.755887031555176,car,car,0,1043_scg_s05_0_car_00_car5-bottle1.png
subject-05,1,1044,0.824026107788086,dog,dog,0,1044_scg_s05_0_dog_00_dog4-truck2.png
subject-05,1,1045,0.789762020111084,truck,truck,0,1045_scg_s05_0_truck_00_truck2-car3.png
subject-05,1,1046,0.934095859527588,truck,truck,0,1046_scg_s05_0_truck_00_truck5-airplane2.png
subject-05,1,1047,0.770126104354858,car,car,0,1047_scg_s05_0_car_00_car3-elephant3.png
subject-05,1,1048,0.729813098907471,truck,truck,0,1048_scg_s05_0_truck_00_truck5-bird2.png
subject-05,1,1049,0.720310926437378,car,car,0,1049_scg_s05_0_car_00_car7-bear1.png
subject-05,1,1050,0.672095060348511,bear,bear,0,1050_scg_s05_0_bear_00_bear9-keyboard3.png
subject-05,1,1051,0.621768951416016,chair,oven,0,1051_scg_s05_0_oven_00_oven7-dog2.png
subject-05,1,1052,1.31747007369995,car,car,0,1052_scg_s05_0_car_00_car2-knife3.png
subject-05,1,1053,0.86161208152771,oven,oven,0,1053_scg_s05_0_oven_00_oven7-bottle1.png
subject-05,1,1054,0.883255004882812,bear,bear,0,1054_scg_s05_0_bear_00_bear5-oven3.png
subject-05,1,1055,0.741006135940552,elephant,elephant,0,1055_scg_s05_0_elephant_00_elephant7-airplane3.png
subject-05,1,1056,0.817256927490234,truck,truck,0,1056_scg_s05_0_truck_00_truck1-clock3.png
subject-05,1,1057,0.713078022003174,dog,dog,0,1057_scg_s05_0_dog_00_dog9-boat1.png
subject-05,1,1058,0.59491491317749,clock,clock,0,1058_scg_s05_0_clock_00_clock4-bird3.png
subject-05,1,1059,0.816717863082886,airplane,airplane,0,1059_scg_s05_0_airplane_00_airplane4-car1.png
subject-05,1,1060,0.590929985046387,clock,clock,0,1060_scg_s05_0_clock_00_clock5-clock2.png
subject-05,1,1061,0.972633838653564,cat,cat,0,1061_scg_s05_0_cat_00_cat8-bicycle3.png
subject-05,1,1062,0.738347053527832,car,car,0,1062_scg_s05_0_car_00_car6-boat1.png
subject-05,1,1063,0.666552066802979,truck,truck,0,1063_scg_s05_0_truck_00_truck9-bottle2.png
subject-05,1,1064,0.663995981216431,boat,boat,0,1064_scg_s05_0_boat_00_boat10-truck1.png
subject-05,1,1065,0.954482078552246,car,car,0,1065_scg_s05_0_car_00_car7-boat3.png
subject-05,1,1066,0.705796957015991,boat,boat,0,1066_scg_s05_0_boat_00_boat6-knife2.png
subject-05,1,1067,0.601670026779175,boat,boat,0,1067_scg_s05_0_boat_00_boat7-bottle1.png
subject-05,1,1068,0.615348100662231,bear,bear,0,1068_scg_s05_0_bear_00_bear3-bird3.png
subject-05,1,1069,0.602761030197144,bottle,bottle,0,1069_scg_s05_0_bottle_00_bottle2-bottle3.png
subject-05,1,1070,0.630867004394531,bicycle,bicycle,0,1070_scg_s05_0_bicycle_00_bicycle7-bicycle2.png
subject-05,1,1071,0.765856027603149,chair,knife,0,1071_scg_s05_0_knife_00_knife7-chair2.png
subject-05,1,1072,0.809762001037598,knife,knife,0,1072_scg_s05_0_knife_00_knife4-car2.png
subject-05,1,1073,0.774926900863647,clock,clock,0,1073_scg_s05_0_clock_00_clock2-dog1.png
subject-05,1,1074,0.803279876708984,keyboard,keyboard,0,1074_scg_s05_0_keyboard_00_keyboard9-truck3.png
subject-05,1,1075,0.698271989822388,bottle,bottle,0,1075_scg_s05_0_bottle_00_bottle7-cat2.png
subject-05,1,1076,0.604029893875122,chair,chair,0,1076_scg_s05_0_chair_00_chair3-bottle3.png
subject-05,1,1077,1.09136581420898,knife,knife,0,1077_scg_s05_0_knife_00_knife2-bird1.png
subject-05,1,1078,0.575227975845337,bird,bird,0,1078_scg_s05_0_bird_00_bird9-bicycle3.png
subject-05,1,1079,0.663230895996094,keyboard,keyboard,0,1079_scg_s05_0_keyboard_00_keyboard10-boat2.png
subject-05,1,1080,0.776843070983887,bottle,bottle,0,1080_scg_s05_0_bottle_00_bottle9-bicycle1.png
subject-05,1,1081,0.580509185791016,clock,clock,0,1081_scg_s05_0_clock_00_clock2-bear2.png
subject-05,1,1082,0.708439826965332,chair,chair,0,1082_scg_s05_0_chair_00_chair2-boat1.png
subject-05,1,1083,0.798877000808716,car,car,0,1083_scg_s05_0_car_00_car8-cat1.png
subject-05,1,1084,0.658078193664551,bottle,bottle,0,1084_scg_s05_0_bottle_00_bottle9-keyboard1.png
subject-05,1,1085,0.553854942321777,cat,cat,0,1085_scg_s05_0_cat_00_cat1-bird1.png
subject-05,1,1086,0.952049970626831,boat,boat,0,1086_scg_s05_0_boat_00_boat4-bird1.png
subject-05,1,1087,0.595787763595581,clock,clock,0,1087_scg_s05_0_clock_00_clock10-dog3.png
subject-05,1,1088,1.01581215858459,knife,knife,0,1088_scg_s05_0_knife_00_knife10-oven3.png
subject-05,1,1089,0.927339792251587,knife,knife,0,1089_scg_s05_0_knife_00_knife5-bicycle2.png
subject-05,1,1090,1.08041596412659,bottle,knife,0,1090_scg_s05_0_knife_00_knife7-bottle3.png
subject-05,1,1091,0.793346166610718,dog,dog,0,1091_scg_s05_0_dog_00_dog2-dog3.png
subject-05,1,1092,0.66653299331665,bicycle,bicycle,0,1092_scg_s05_0_bicycle_00_bicycle1-bird1.png
subject-05,1,1093,0.738296985626221,bird,bird,0,1093_scg_s05_0_bird_00_bird7-bird2.png
