subj,session,trial,rt,object_response,category,condition,imagename
subject-03,1,1,0.905894994735718,bicycle,bicycle,0,0001_scg_s03_0_bicycle_00_bicycle2-bottle1.png
subject-03,1,2,0.778781175613403,chair,chair,0,0002_scg_s03_0_chair_00_chair8-oven1.png
subject-03,1,3,0.662943840026855,truck,truck,0,0003_scg_s03_0_truck_00_truck4-bottle2.png
subject-03,1,4,0.936937093734741,knife,boat,0,0004_scg_s03_0_boat_00_boat1-oven1.png
subject-03,1,5,0.612963914871216,boat,boat,0,0005_scg_s03_0_boat_00_boat8-knife1.png
subject-03,1,6,0.587098836898804,boat,keyboard,0,0006_scg_s03_0_keyboard_00_keyboard7-bottle1.png
subject-03,1,7,0.938709020614624,boat,airplane,0,0007_scg_s03_0_airplane_00_airplane5-bird2.png
subject-03,1,8,0.960622072219849,chair,boat,0,0008_scg_s03_0_boat_00_boat7-keyboard3.png
subject-03,1,9,0.78197193145752,keyboard,keyboard,0,0009_scg_s03_0_keyboard_00_keyboard9-truck3.png
subject-03,1,10,1.02642178535461,airplane,airplane,0,0010_scg_s03_0_airplane_00_airplane7-keyboard1.png
subject-03,1,11,0.653664112091064,keyboard,keyboard,0,0011_scg_s03_0_keyboard_00_keyboard7-car3.png
subject-03,1,12,1.50014114379883,dog,bear,0,0012_scg_s03_0_bear_00_bear10-bottle1.png
subject-03,1,13,0.889717817306519,boat,keyboard,0,0013_scg_s03_0_keyboard_00_keyboard7-dog1.png
subject-03,1,14,0.878931999206543,bear,bear,0,0014_scg_s03_0_bear_00_bear1-elephant1.png
subject-03,1,15,0.936775922775269,oven,oven,0,0015_scg_s03_0_oven_00_oven3-airplane1.png
subject-03,1,16,0.934108972549438,elephant,elephant,0,0016_scg_s03_0_elephant_00_elephant8-knife2.png
subject-03,1,17,0.681442975997925,car,truck,0,0017_scg_s03_0_truck_00_truck6-cat2.png
subject-03,1,18,0.853672027587891,chair,chair,0,0018_scg_s03_0_chair_00_chair4-bear2.png
subject-03,1,19,1.3028609752655,airplane,airplane,0,0019_scg_s03_0_airplane_00_airplane9-boat1.png
subject-03,1,20,0.970319032669067,car,car,0,0020_scg_s03_0_car_00_car6-truck3.png
subject-03,1,21,0.846893072128296,boat,cat,0,0021_scg_s03_0_cat_00_cat4-truck3.png
subject-03,1,22,0.74407696723938,bear,bear,0,0022_scg_s03_0_bear_00_bear4-oven2.png
subject-03,1,23,0.642003059387207,chair,chair,0,0023_scg_s03_0_chair_00_chair7-chair1.png
subject-03,1,24,1.3781590461731,bicycle,bicycle,0,0024_scg_s03_0_bicycle_00_bicycle7-knife2.png
subject-03,1,25,0.821374893188477,keyboard,keyboard,0,0025_scg_s03_0_keyboard_00_keyboard6-bear2.png
subject-03,1,26,1.03559398651123,boat,boat,0,0026_scg_s03_0_boat_00_boat1-bird3.png
subject-03,1,27,0.787585020065308,car,car,0,0027_scg_s03_0_car_00_car8-chair1.png
subject-03,1,28,0.771050930023193,bear,bear,0,0028_scg_s03_0_bear_00_bear4-elephant2.png
subject-03,1,29,1.30708813667297,bicycle,bicycle,0,0029_scg_s03_0_bicycle_00_bicycle5-dog2.png
subject-03,1,30,1.11358594894409,truck,truck,0,0030_scg_s03_0_truck_00_truck2-bicycle2.png
subject-03,1,31,1.07859086990356,bottle,bottle,0,0031_scg_s03_0_bottle_00_bottle6-oven3.png
subject-03,1,32,1.31470799446106,chair,chair,0,0032_scg_s03_0_chair_00_chair4-cat2.png
subject-03,1,33,1.24397301673889,bicycle,bicycle,0,0033_scg_s03_0_bicycle_00_bicycle9-bird3.png
subject-03,1,34,0.903818845748901,cat,cat,0,0034_scg_s03_0_cat_00_cat3-bicycle1.png
subject-03,1,35,0.931253910064697,boat,boat,0,0035_scg_s03_0_boat_00_boat1-bear1.png
subject-03,1,36,0.616158008575439,chair,chair,0,0036_scg_s03_0_chair_00_chair6-dog1.png
subject-03,1,37,0.921778917312622,boat,keyboard,0,0037_scg_s03_0_keyboard_00_keyboard6-chair1.png
subject-03,1,38,0.86034107208252,chair,elephant,0,0038_scg_s03_0_elephant_00_elephant2-truck2.png
subject-03,1,39,0.674149990081787,keyboard,keyboard,0,0039_scg_s03_0_keyboard_00_keyboard8-oven1.png
subject-03,1,40,1.12609219551086,knife,knife,0,0040_scg_s03_0_knife_00_knife3-knife1.png
subject-03,1,41,0.723925113677979,chair,oven,0,0041_scg_s03_0_oven_00_oven6-bear2.png
subject-03,1,42,0.691493034362793,oven,oven,0,0042_scg_s03_0_oven_00_oven4-truck3.png
subject-03,1,43,1.26649713516235,car,car,0,0043_scg_s03_0_car_00_car6-bottle1.png
subject-03,1,44,1.50013494491577,car,car,0,0044_scg_s03_0_car_00_car9-cat1.png
subject-03,1,45,0.801997900009155,car,car,0,0045_scg_s03_0_car_00_car8-bear1.png
subject-03,1,46,0.662100076675415,car,car,0,0046_scg_s03_0_car_00_car5-airplane3.png
subject-03,1,47,0.930719137191772,car,truck,0,0047_scg_s03_0_truck_00_truck6-bottle3.png
subject-03,1,48,0.912514925003052,bottle,bottle,0,0048_scg_s03_0_bottle_00_bottle1-bear1.png
subject-03,1,49,1.00490617752075,dog,dog,0,0049_scg_s03_0_dog_00_dog9-cat1.png
subject-03,1,50,0.873658895492554,knife,knife,0,0050_scg_s03_0_knife_00_knife5-cat2.png
subject-03,1,51,0.900995969772339,oven,oven,0,0051_scg_s03_0_oven_00_oven7-car3.png
subject-03,1,52,1.1015191078186,airplane,airplane,0,0052_scg_s03_0_airplane_00_airplane1-bicycle2.png
subject-03,1,53,0.737520217895508,cat,cat,0,0053_scg_s03_0_cat_00_cat7-boat3.png
subject-03,1,54,1.12711906433105,car,car,0,0054_scg_s03_0_car_00_car4-clock1.png
subject-03,1,55,0.919299125671387,oven,oven,0,0055_scg_s03_0_oven_00_oven9-oven1.png
subject-03,1,56,0.825392007827759,oven,bottle,0,0056_scg_s03_0_bottle_00_bottle7-truck2.png
subject-03,1,57,0.93117094039917,airplane,airplane,0,0057_scg_s03_0_airplane_00_airplane9-oven2.png
subject-03,1,58,1.41299510002136,bicycle,bicycle,0,0058_scg_s03_0_bicycle_00_bicycle10-boat3.png
subject-03,1,59,0.88842511177063,airplane,boat,0,0059_scg_s03_0_boat_00_boat4-car3.png
subject-03,1,60,0.594909906387329,clock,clock,0,0060_scg_s03_0_clock_00_clock5-airplane1.png
subject-03,1,61,0.854045152664185,boat,boat,0,0061_scg_s03_0_boat_00_boat2-bottle2.png
subject-03,1,62,0.759741067886353,cat,cat,0,0062_scg_s03_0_cat_00_cat9-bottle2.png
subject-03,1,63,1.133220911026,truck,truck,0,0063_scg_s03_0_truck_00_truck5-dog3.png
subject-03,1,64,0.969204902648926,boat,bear,0,0064_scg_s03_0_bear_00_bear10-truck1.png
subject-03,1,65,0.966609954833984,boat,cat,0,0065_scg_s03_0_cat_00_cat5-chair3.png
subject-03,1,66,0.587525129318237,clock,clock,0,0066_scg_s03_0_clock_00_clock8-knife1.png
subject-03,1,67,1.06217193603516,oven,oven,0,0067_scg_s03_0_oven_00_oven7-bottle1.png
subject-03,1,68,1.45232391357422,oven,dog,0,0068_scg_s03_0_dog_00_dog2-airplane2.png
subject-03,1,69,0.81306004524231,bird,bird,0,0069_scg_s03_0_bird_00_bird1-oven1.png
subject-03,1,70,NaN,na,bird,0,0070_scg_s03_0_bird_00_bird4-airplane1.png
subject-03,1,71,1.13643598556519,dog,dog,0,0071_scg_s03_0_dog_00_dog2-cat1.png
subject-03,1,72,1.50000214576721,dog,dog,0,0072_scg_s03_0_dog_00_dog1-bear1.png
subject-03,1,73,1.00243496894836,dog,dog,0,0073_scg_s03_0_dog_00_dog9-bottle1.png
subject-03,1,74,0.93993091583252,knife,knife,0,0074_scg_s03_0_knife_00_knife4-knife2.png
subject-03,1,75,0.937932014465332,bear,bear,0,0075_scg_s03_0_bear_00_bear3-airplane1.png
subject-03,1,76,0.949472904205322,airplane,airplane,0,0076_scg_s03_0_airplane_00_airplane9-truck1.png
subject-03,1,77,1.11028695106506,bear,elephant,0,0077_scg_s03_0_elephant_00_elephant6-knife2.png
subject-03,1,78,1.10724902153015,keyboard,keyboard,0,0078_scg_s03_0_keyboard_00_keyboard3-bird3.png
subject-03,1,79,NaN,na,elephant,0,0079_scg_s03_0_elephant_00_elephant10-elephant1.png
subject-03,1,80,1.09800910949707,airplane,boat,0,0080_scg_s03_0_boat_00_boat4-chair2.png
subject-03,1,81,0.879215955734253,chair,chair,0,0081_scg_s03_0_chair_00_chair2-boat1.png
subject-03,1,82,0.754808902740479,oven,car,0,0082_scg_s03_0_car_00_car3-boat1.png
subject-03,1,83,1.50019788742065,truck,truck,0,0083_scg_s03_0_truck_00_truck2-boat3.png
subject-03,1,84,0.8472580909729,bear,elephant,0,0084_scg_s03_0_elephant_00_elephant2-cat1.png
subject-03,1,85,0.768950939178467,clock,bottle,0,0085_scg_s03_0_bottle_00_bottle9-elephant2.png
subject-03,1,86,1.19804787635803,bear,bear,0,0086_scg_s03_0_bear_00_bear2-oven1.png
subject-03,1,87,0.734713077545166,oven,oven,0,0087_scg_s03_0_oven_00_oven10-airplane2.png
subject-03,1,88,0.673251152038574,boat,boat,0,0088_scg_s03_0_boat_00_boat9-dog2.png
subject-03,1,89,0.793805122375488,bottle,bottle,0,0089_scg_s03_0_bottle_00_bottle8-elephant3.png
subject-03,1,90,1.22406697273254,boat,car,0,0090_scg_s03_0_car_00_car2-bird3.png
subject-03,1,91,0.991836071014404,elephant,bear,0,0091_scg_s03_0_bear_00_bear7-clock1.png
subject-03,1,92,1.19543194770813,chair,airplane,0,0092_scg_s03_0_airplane_00_airplane2-dog1.png
subject-03,1,93,1.20092701911926,cat,bird,0,0093_scg_s03_0_bird_00_bird2-clock3.png
subject-03,1,94,0.94509220123291,truck,truck,0,0094_scg_s03_0_truck_00_truck6-truck2.png
subject-03,1,95,0.774792909622192,bear,bear,0,0095_scg_s03_0_bear_00_bear4-boat2.png
subject-03,1,96,0.588706970214844,clock,clock,0,0096_scg_s03_0_clock_00_clock8-boat1.png
subject-03,1,97,0.999989986419678,car,car,0,0097_scg_s03_0_car_00_car3-elephant3.png
subject-03,1,98,0.983762979507446,dog,dog,0,0098_scg_s03_0_dog_00_dog9-bicycle3.png
subject-03,1,99,0.773694038391113,oven,oven,0,0099_scg_s03_0_oven_00_oven2-dog3.png
subject-03,1,100,1.12582898139954,knife,airplane,0,0100_scg_s03_0_airplane_00_airplane10-knife3.png
subject-03,1,101,0.785881042480469,clock,clock,0,0101_scg_s03_0_clock_00_clock10-bottle1.png
subject-03,1,102,0.691778898239136,keyboard,keyboard,0,0102_scg_s03_0_keyboard_00_keyboard3-cat1.png
subject-03,1,103,1.39008808135986,bird,dog,0,0103_scg_s03_0_dog_00_dog9-bear3.png
subject-03,1,104,0.996224164962769,dog,dog,0,0104_scg_s03_0_dog_00_dog6-elephant2.png
subject-03,1,105,1.22602605819702,knife,airplane,0,0105_scg_s03_0_airplane_00_airplane4-cat3.png
subject-03,1,106,1.36258006095886,dog,dog,0,0106_scg_s03_0_dog_00_dog7-bird3.png
subject-03,1,107,1.08975195884705,elephant,bear,0,0107_scg_s03_0_bear_00_bear8-bicycle3.png
subject-03,1,108,1.44972705841064,elephant,elephant,0,0108_scg_s03_0_elephant_00_elephant2-clock1.png
subject-03,1,109,1.23990797996521,airplane,airplane,0,0109_scg_s03_0_airplane_00_airplane5-oven3.png
subject-03,1,110,0.955183982849121,dog,dog,0,0110_scg_s03_0_dog_00_dog8-keyboard3.png
subject-03,1,111,1.31325101852417,chair,chair,0,0111_scg_s03_0_chair_00_chair4-truck2.png
subject-03,1,112,0.719203948974609,cat,cat,0,0112_scg_s03_0_cat_00_cat5-car2.png
subject-03,1,113,1.17902398109436,chair,bicycle,0,0113_scg_s03_0_bicycle_00_bicycle7-cat1.png
subject-03,1,114,1.30661821365356,airplane,boat,0,0114_scg_s03_0_boat_00_boat10-boat3.png
subject-03,1,115,0.966740131378174,bicycle,bicycle,0,0115_scg_s03_0_bicycle_00_bicycle2-car2.png
subject-03,1,116,1.38892412185669,bear,bear,0,0116_scg_s03_0_bear_00_bear2-airplane1.png
subject-03,1,117,0.640780925750732,clock,clock,0,0117_scg_s03_0_clock_00_clock8-keyboard1.png
subject-03,1,118,0.608289957046509,car,car,0,0118_scg_s03_0_car_00_car1-car2.png
subject-03,1,119,1.06022691726685,bicycle,bicycle,0,0119_scg_s03_0_bicycle_00_bicycle10-clock2.png
subject-03,1,120,0.657947063446045,car,car,0,0120_scg_s03_0_car_00_car7-boat3.png
subject-03,1,121,1.50013399124146,chair,chair,0,0121_scg_s03_0_chair_00_chair10-oven1.png
subject-03,1,122,0.769299983978271,cat,cat,0,0122_scg_s03_0_cat_00_cat6-keyboard3.png
subject-03,1,123,1.01403999328613,keyboard,keyboard,0,0123_scg_s03_0_keyboard_00_keyboard8-airplane2.png
subject-03,1,124,0.950243949890137,bird,bird,0,0124_scg_s03_0_bird_00_bird5-car2.png
subject-03,1,125,1.21796107292175,elephant,bird,0,0125_scg_s03_0_bird_00_bird3-bear3.png
subject-03,1,126,0.823966026306152,dog,dog,0,0126_scg_s03_0_dog_00_dog2-dog3.png
subject-03,1,127,NaN,na,truck,0,0127_scg_s03_0_truck_00_truck6-bicycle1.png
subject-03,1,128,1.01137185096741,cat,dog,0,0128_scg_s03_0_dog_00_dog8-dog3.png
subject-03,1,129,1.11797595024109,elephant,elephant,0,0129_scg_s03_0_elephant_00_elephant1-bottle1.png
subject-03,1,130,0.764176845550537,bottle,bottle,0,0130_scg_s03_0_bottle_00_bottle5-truck1.png
subject-03,1,131,1.23253607749939,car,car,0,0131_scg_s03_0_car_00_car6-knife1.png
subject-03,1,132,0.984025955200195,dog,dog,0,0132_scg_s03_0_dog_00_dog1-airplane3.png
subject-03,1,133,0.974282026290894,bird,dog,0,0133_scg_s03_0_dog_00_dog4-airplane3.png
subject-03,1,134,0.767303943634033,clock,clock,0,0134_scg_s03_0_clock_00_clock3-bird1.png
subject-03,1,135,0.794172048568726,bottle,bottle,0,0135_scg_s03_0_bottle_00_bottle6-knife3.png
subject-03,1,136,1.36781597137451,elephant,elephant,0,0136_scg_s03_0_elephant_00_elephant7-clock2.png
subject-03,1,137,0.782102823257446,boat,boat,0,0137_scg_s03_0_boat_00_boat5-airplane1.png
subject-03,1,138,1.40227103233337,dog,dog,0,0138_scg_s03_0_dog_00_dog8-clock2.png
subject-03,1,139,0.849210977554321,knife,knife,0,0139_scg_s03_0_knife_00_knife1-car3.png
subject-03,1,140,1.13877415657043,knife,boat,0,0140_scg_s03_0_boat_00_boat1-elephant3.png
subject-03,1,141,1.06191396713257,truck,truck,0,0141_scg_s03_0_truck_00_truck9-airplane2.png
subject-03,1,142,1.0548038482666,bird,bird,0,0142_scg_s03_0_bird_00_bird8-elephant1.png
subject-03,1,143,0.844631910324097,clock,clock,0,0143_scg_s03_0_clock_00_clock5-oven1.png
subject-03,1,144,0.642357110977173,cat,cat,0,0144_scg_s03_0_cat_00_cat4-cat3.png
subject-03,1,145,0.894345998764038,bicycle,bicycle,0,0145_scg_s03_0_bicycle_00_bicycle7-clock3.png
subject-03,1,146,0.946362018585205,cat,dog,0,0146_scg_s03_0_dog_00_dog10-dog1.png
subject-03,1,147,1.13602995872498,bird,bird,0,0147_scg_s03_0_bird_00_bird10-bicycle1.png
subject-03,1,148,1.50020718574524,elephant,elephant,0,0148_scg_s03_0_elephant_00_elephant7-car3.png
subject-03,1,149,0.776472806930542,airplane,airplane,0,0149_scg_s03_0_airplane_00_airplane8-bird1.png
subject-03,1,150,1.35774111747742,bicycle,keyboard,0,0150_scg_s03_0_keyboard_00_keyboard3-boat1.png
subject-03,1,151,0.816987037658691,bicycle,bicycle,0,0151_scg_s03_0_bicycle_00_bicycle4-bottle1.png
subject-03,1,152,1.0910279750824,airplane,boat,0,0152_scg_s03_0_boat_00_boat4-dog2.png
subject-03,1,153,0.629435062408447,bottle,bottle,0,0153_scg_s03_0_bottle_00_bottle2-car2.png
subject-03,1,154,1.07419300079346,cat,dog,0,0154_scg_s03_0_dog_00_dog4-bird1.png
subject-03,1,155,1.03888988494873,bottle,bottle,0,0155_scg_s03_0_bottle_00_bottle4-car3.png
subject-03,1,156,1.33674502372742,elephant,elephant,0,0156_scg_s03_0_elephant_00_elephant8-airplane3.png
subject-03,1,157,0.897102832794189,elephant,elephant,0,0157_scg_s03_0_elephant_00_elephant9-chair2.png
subject-03,1,158,1.00544500350952,cat,cat,0,0158_scg_s03_0_cat_00_cat9-knife2.png
subject-03,1,159,1.20902609825134,bottle,bottle,0,0159_scg_s03_0_bottle_00_bottle8-bicycle1.png
subject-03,1,160,1.20788598060608,elephant,elephant,0,0160_scg_s03_0_elephant_00_elephant2-airplane3.png
subject-03,1,161,1.07495284080505,oven,oven,0,0161_scg_s03_0_oven_00_oven9-car2.png
subject-03,1,162,0.696619987487793,bottle,bottle,0,0162_scg_s03_0_bottle_00_bottle5-oven2.png
subject-03,1,163,1.37870287895203,dog,elephant,0,0163_scg_s03_0_elephant_00_elephant6-bird1.png
subject-03,1,164,0.852364063262939,bicycle,bicycle,0,0164_scg_s03_0_bicycle_00_bicycle7-bear2.png
subject-03,1,165,1.44965791702271,keyboard,knife,0,0165_scg_s03_0_knife_00_knife2-bottle2.png
subject-03,1,166,0.739632129669189,bottle,bottle,0,0166_scg_s03_0_bottle_00_bottle10-dog1.png
subject-03,1,167,1.2754008769989,boat,airplane,0,0167_scg_s03_0_airplane_00_airplane2-bottle1.png
subject-03,1,168,0.935510873794556,clock,clock,0,0168_scg_s03_0_clock_00_clock1-dog2.png
subject-03,1,169,0.744775056838989,clock,clock,0,0169_scg_s03_0_clock_00_clock10-clock3.png
subject-03,1,170,0.967221975326538,bear,bear,0,0170_scg_s03_0_bear_00_bear1-bicycle3.png
subject-03,1,171,0.748734951019287,chair,chair,0,0171_scg_s03_0_chair_00_chair1-chair1.png
subject-03,1,172,1.08496308326721,bird,airplane,0,0172_scg_s03_0_airplane_00_airplane7-bird3.png
subject-03,1,173,1.50002908706665,airplane,boat,0,0173_scg_s03_0_boat_00_boat7-chair1.png
subject-03,1,174,1.17651796340942,knife,knife,0,0174_scg_s03_0_knife_00_knife7-bottle3.png
subject-03,1,175,0.707177877426147,oven,oven,0,0175_scg_s03_0_oven_00_oven5-bottle3.png
subject-03,1,176,0.779680013656616,oven,oven,0,0176_scg_s03_0_oven_00_oven7-oven1.png
subject-03,1,177,0.962411880493164,bicycle,bicycle,0,0177_scg_s03_0_bicycle_00_bicycle1-bottle3.png
subject-03,1,178,0.654684066772461,oven,oven,0,0178_scg_s03_0_oven_00_oven5-airplane1.png
subject-03,1,179,1.00442385673523,knife,keyboard,0,0179_scg_s03_0_keyboard_00_keyboard3-clock3.png
subject-03,1,180,0.658701181411743,clock,clock,0,0180_scg_s03_0_clock_00_clock4-bird3.png
subject-03,1,181,0.894519090652466,airplane,airplane,0,0181_scg_s03_0_airplane_00_airplane5-bottle3.png
subject-03,1,182,0.730648040771484,clock,keyboard,0,0182_scg_s03_0_keyboard_00_keyboard7-knife1.png
subject-03,1,183,1.12024712562561,knife,knife,0,0183_scg_s03_0_knife_00_knife7-boat3.png
subject-03,1,184,1.50035095214844,boat,bird,0,0184_scg_s03_0_bird_00_bird10-elephant2.png
subject-03,1,185,0.693814992904663,bird,bird,0,0185_scg_s03_0_bird_00_bird8-clock1.png
subject-03,1,186,0.797952890396118,bird,bird,0,0186_scg_s03_0_bird_00_bird8-boat3.png
subject-03,1,187,0.850337982177734,car,car,0,0187_scg_s03_0_car_00_car9-truck3.png
subject-03,1,188,0.558680057525635,clock,clock,0,0188_scg_s03_0_clock_00_clock5-bicycle1.png
subject-03,1,189,0.754493951797485,bird,bird,0,0189_scg_s03_0_bird_00_bird3-bottle2.png
subject-03,1,190,0.960669040679932,boat,boat,0,0190_scg_s03_0_boat_00_boat3-chair3.png
subject-03,1,191,0.742156028747559,airplane,airplane,0,0191_scg_s03_0_airplane_00_airplane8-bicycle3.png
subject-03,1,192,0.80204701423645,truck,truck,0,0192_scg_s03_0_truck_00_truck4-bear1.png
subject-03,1,193,1.02177309989929,bird,bird,0,0193_scg_s03_0_bird_00_bird1-elephant2.png
subject-03,1,194,0.535072803497314,clock,clock,0,0194_scg_s03_0_clock_00_clock2-elephant2.png
subject-03,1,195,0.818684101104736,bicycle,bicycle,0,0195_scg_s03_0_bicycle_00_bicycle1-bear1.png
subject-03,1,196,0.955067873001099,bear,elephant,0,0196_scg_s03_0_elephant_00_elephant4-chair3.png
subject-03,1,197,0.737573862075806,chair,chair,0,0197_scg_s03_0_chair_00_chair7-airplane1.png
subject-03,1,198,0.668291091918945,bicycle,bicycle,0,0198_scg_s03_0_bicycle_00_bicycle8-chair2.png
subject-03,1,199,1.04175901412964,airplane,bird,0,0199_scg_s03_0_bird_00_bird6-boat2.png
subject-03,1,200,1.04008388519287,knife,knife,0,0200_scg_s03_0_knife_00_knife4-cat2.png
subject-03,1,201,0.837677955627441,oven,car,0,0201_scg_s03_0_car_00_car1-airplane1.png
subject-03,1,202,1.50024008750916,knife,knife,0,0202_scg_s03_0_knife_00_knife8-boat1.png
subject-03,1,203,0.842452049255371,bird,bird,0,0203_scg_s03_0_bird_00_bird8-knife2.png
subject-03,1,204,1.04797387123108,bottle,bottle,0,0204_scg_s03_0_bottle_00_bottle10-boat3.png
subject-03,1,205,0.766298055648804,oven,bottle,0,0205_scg_s03_0_bottle_00_bottle1-keyboard3.png
subject-03,1,206,1.50016093254089,bicycle,bicycle,0,0206_scg_s03_0_bicycle_00_bicycle2-dog1.png
subject-03,1,207,1.08431220054626,elephant,elephant,0,0207_scg_s03_0_elephant_00_elephant3-truck1.png
subject-03,1,208,0.714004039764404,elephant,elephant,0,0208_scg_s03_0_elephant_00_elephant1-dog2.png
subject-03,1,209,0.658482074737549,bird,cat,0,0209_scg_s03_0_cat_00_cat4-knife1.png
subject-03,1,210,0.711144924163818,oven,cat,0,0210_scg_s03_0_cat_00_cat10-bottle1.png
subject-03,1,211,0.793406963348389,knife,knife,0,0211_scg_s03_0_knife_00_knife10-dog1.png
subject-03,1,212,0.991199970245361,bird,bird,0,0212_scg_s03_0_bird_00_bird5-dog2.png
subject-03,1,213,0.742544889450073,knife,knife,0,0213_scg_s03_0_knife_00_knife8-bicycle1.png
subject-03,1,214,0.725412130355835,cat,cat,0,0214_scg_s03_0_cat_00_cat2-boat2.png
subject-03,1,215,1.19931507110596,knife,knife,0,0215_scg_s03_0_knife_00_knife7-airplane3.png
subject-03,1,216,0.683292865753174,cat,cat,0,0216_scg_s03_0_cat_00_cat5-elephant2.png
subject-03,1,217,1.07357096672058,car,car,0,0217_scg_s03_0_car_00_car7-keyboard3.png
subject-03,1,218,1.20420908927917,bicycle,bicycle,0,0218_scg_s03_0_bicycle_00_bicycle3-bird1.png
subject-03,1,219,0.56333589553833,cat,cat,0,0219_scg_s03_0_cat_00_cat5-bicycle3.png
subject-03,1,220,0.667275190353394,bird,bird,0,0220_scg_s03_0_bird_00_bird5-keyboard2.png
subject-03,1,221,0.873260021209717,bird,bird,0,0221_scg_s03_0_bird_00_bird3-bird2.png
subject-03,1,222,0.786901950836182,car,car,0,0222_scg_s03_0_car_00_car7-airplane2.png
subject-03,1,223,1.35801982879639,keyboard,keyboard,0,0223_scg_s03_0_keyboard_00_keyboard9-bicycle2.png
subject-03,1,224,0.818563938140869,clock,clock,0,0224_scg_s03_0_clock_00_clock2-bear2.png
subject-03,1,225,1.24046111106873,keyboard,bottle,0,0225_scg_s03_0_bottle_00_bottle7-elephant2.png
subject-03,1,226,1.08181309700012,bottle,bottle,0,0226_scg_s03_0_bottle_00_bottle9-bicycle1.png
subject-03,1,227,0.644427061080933,clock,clock,0,0227_scg_s03_0_clock_00_clock6-bottle1.png
subject-03,1,228,0.60993218421936,oven,oven,0,0228_scg_s03_0_oven_00_oven9-chair1.png
subject-03,1,229,0.875946044921875,elephant,elephant,0,0229_scg_s03_0_elephant_00_elephant4-boat3.png
subject-03,1,230,0.904078960418701,oven,oven,0,0230_scg_s03_0_oven_00_oven9-knife3.png
subject-03,1,231,1.14803004264832,dog,dog,0,0231_scg_s03_0_dog_00_dog1-cat3.png
subject-03,1,232,0.837806224822998,cat,cat,0,0232_scg_s03_0_cat_00_cat1-bird1.png
subject-03,1,233,0.643535852432251,airplane,airplane,0,0233_scg_s03_0_airplane_00_airplane6-bottle2.png
subject-03,1,234,0.636102914810181,oven,oven,0,0234_scg_s03_0_oven_00_oven3-clock3.png
subject-03,1,235,0.872238874435425,clock,clock,0,0235_scg_s03_0_clock_00_clock8-airplane2.png
subject-03,1,236,0.905480861663818,bird,bird,0,0236_scg_s03_0_bird_00_bird4-cat3.png
subject-03,1,237,1.50023889541626,bicycle,bicycle,0,0237_scg_s03_0_bicycle_00_bicycle9-chair1.png
subject-03,1,238,0.992823123931885,knife,knife,0,0238_scg_s03_0_knife_00_knife3-bear2.png
subject-03,1,239,0.966462135314941,bear,bear,0,0239_scg_s03_0_bear_00_bear5-bird1.png
subject-03,1,240,0.579795122146606,oven,oven,0,0240_scg_s03_0_oven_00_oven9-bear2.png
subject-03,1,241,1.24694299697876,bird,bird,0,0241_scg_s03_0_bird_00_bird9-bottle3.png
subject-03,1,242,0.697154998779297,oven,elephant,0,0242_scg_s03_0_elephant_00_elephant6-truck3.png
subject-03,1,243,0.92461895942688,bird,dog,0,0243_scg_s03_0_dog_00_dog10-oven2.png
subject-03,1,244,1.11548209190369,bicycle,bicycle,0,0244_scg_s03_0_bicycle_00_bicycle1-airplane2.png
subject-03,1,245,0.692699193954468,bird,bird,0,0245_scg_s03_0_bird_00_bird7-boat1.png
subject-03,1,246,0.776548862457275,car,car,0,0246_scg_s03_0_car_00_car2-cat3.png
subject-03,1,247,1.25628805160522,bear,elephant,0,0247_scg_s03_0_elephant_00_elephant8-cat1.png
subject-03,1,248,0.58982515335083,clock,clock,0,0248_scg_s03_0_clock_00_clock7-keyboard2.png
subject-03,1,249,0.839702129364014,dog,dog,0,0249_scg_s03_0_dog_00_dog7-oven2.png
subject-03,1,250,0.724000930786133,oven,oven,0,0250_scg_s03_0_oven_00_oven7-dog2.png
subject-03,1,251,0.773604869842529,keyboard,keyboard,0,0251_scg_s03_0_keyboard_00_keyboard1-clock1.png
subject-03,1,252,1.09331512451172,bear,elephant,0,0252_scg_s03_0_elephant_00_elephant1-boat2.png
subject-03,1,253,0.72310996055603,oven,dog,0,0253_scg_s03_0_dog_00_dog3-elephant2.png
subject-03,1,254,1.20508408546448,boat,boat,0,0254_scg_s03_0_boat_00_boat1-chair3.png
subject-03,1,255,1.5002019405365,cat,boat,0,0255_scg_s03_0_boat_00_boat7-clock3.png
subject-03,1,256,0.77805495262146,bottle,bottle,0,0256_scg_s03_0_bottle_00_bottle4-truck1.png
subject-03,1,257,0.799556016921997,clock,clock,0,0257_scg_s03_0_clock_00_clock2-bicycle1.png
subject-03,1,258,0.735224008560181,oven,oven,0,0258_scg_s03_0_oven_00_oven10-bear1.png
subject-03,1,259,0.62579607963562,boat,boat,0,0259_scg_s03_0_boat_00_boat9-boat3.png
subject-03,1,260,0.669795036315918,keyboard,keyboard,0,0260_scg_s03_0_keyboard_00_keyboard4-knife2.png
subject-03,1,261,0.597657918930054,boat,boat,0,0261_scg_s03_0_boat_00_boat7-elephant3.png
subject-03,1,262,0.490713834762573,clock,clock,0,0262_scg_s03_0_clock_00_clock1-truck3.png
subject-03,1,263,0.993574142456055,chair,bottle,0,0263_scg_s03_0_bottle_00_bottle7-bear1.png
subject-03,1,264,0.92252516746521,truck,truck,0,0264_scg_s03_0_truck_00_truck1-chair2.png
subject-03,1,265,0.719323873519897,bear,bear,0,0265_scg_s03_0_bear_00_bear1-airplane3.png
subject-03,1,266,0.922702074050903,elephant,elephant,0,0266_scg_s03_0_elephant_00_elephant9-clock3.png
subject-03,1,267,0.829401969909668,elephant,elephant,0,0267_scg_s03_0_elephant_00_elephant4-oven1.png
subject-03,1,268,0.927244901657104,knife,boat,0,0268_scg_s03_0_boat_00_boat4-knife2.png
subject-03,1,269,1.25496196746826,truck,truck,0,0269_scg_s03_0_truck_00_truck2-bird2.png
subject-03,1,270,1.1818528175354,chair,chair,0,0270_scg_s03_0_chair_00_chair6-bird2.png
subject-03,1,271,0.842264175415039,knife,knife,0,0271_scg_s03_0_knife_00_knife6-boat3.png
subject-03,1,272,1.41350698471069,car,car,0,0272_scg_s03_0_car_00_car6-boat1.png
subject-03,1,273,0.989093780517578,bicycle,airplane,0,0273_scg_s03_0_airplane_00_airplane5-bear2.png
subject-03,1,274,0.930470943450928,airplane,airplane,0,0274_scg_s03_0_airplane_00_airplane3-oven1.png
subject-03,1,275,0.698045969009399,bottle,bottle,0,0275_scg_s03_0_bottle_00_bottle5-knife1.png
subject-03,1,276,1.0485360622406,bottle,keyboard,0,0276_scg_s03_0_keyboard_00_keyboard10-keyboard1.png
subject-03,1,277,1.17097401618958,oven,truck,0,0277_scg_s03_0_truck_00_truck5-cat3.png
subject-03,1,278,1.3040030002594,bird,bear,0,0278_scg_s03_0_bear_00_bear6-clock1.png
subject-03,1,279,0.734613180160522,bear,bear,0,0279_scg_s03_0_bear_00_bear5-bottle1.png
subject-03,1,280,1.49204301834106,chair,chair,0,0280_scg_s03_0_chair_00_chair8-boat1.png
subject-03,1,281,0.989857912063599,chair,chair,0,0281_scg_s03_0_chair_00_chair5-bottle3.png
subject-03,1,282,1.10382699966431,bottle,bottle,0,0282_scg_s03_0_bottle_00_bottle1-clock1.png
subject-03,1,283,1.0539538860321,knife,airplane,0,0283_scg_s03_0_airplane_00_airplane8-oven2.png
subject-03,1,284,0.837808847427368,bicycle,bicycle,0,0284_scg_s03_0_bicycle_00_bicycle4-oven3.png
subject-03,1,285,1.22583484649658,clock,clock,0,0285_scg_s03_0_clock_00_clock7-bottle2.png
subject-03,1,286,1.38524103164673,knife,knife,0,0286_scg_s03_0_knife_00_knife10-knife1.png
subject-03,1,287,1.05926299095154,oven,oven,0,0287_scg_s03_0_oven_00_oven4-chair1.png
subject-03,1,288,1.02467393875122,bird,bird,0,0288_scg_s03_0_bird_00_bird5-chair1.png
subject-03,1,289,1.23910617828369,bear,bear,0,0289_scg_s03_0_bear_00_bear9-dog1.png
subject-03,1,290,1.28859400749207,oven,truck,0,0290_scg_s03_0_truck_00_truck1-clock3.png
subject-03,1,291,1.0327570438385,clock,cat,0,0291_scg_s03_0_cat_00_cat5-knife2.png
subject-03,1,292,0.8626868724823,car,car,0,0292_scg_s03_0_car_00_car5-knife2.png
subject-03,1,293,0.990715026855469,bottle,bottle,0,0293_scg_s03_0_bottle_00_bottle9-cat2.png
subject-03,1,294,0.679616928100586,keyboard,keyboard,0,0294_scg_s03_0_keyboard_00_keyboard5-keyboard1.png
subject-03,1,295,1.1671199798584,bird,dog,0,0295_scg_s03_0_dog_00_dog7-knife3.png
subject-03,1,296,0.981746196746826,bear,elephant,0,0296_scg_s03_0_elephant_00_elephant2-boat1.png
subject-03,1,297,1.1710319519043,dog,bear,0,0297_scg_s03_0_bear_00_bear6-cat3.png
subject-03,1,298,0.876798152923584,bird,bear,0,0298_scg_s03_0_bear_00_bear10-knife2.png
subject-03,1,299,1.03432989120483,truck,truck,0,0299_scg_s03_0_truck_00_truck9-chair3.png
subject-03,1,300,1.05755805969238,bird,elephant,0,0300_scg_s03_0_elephant_00_elephant2-bird1.png
subject-03,1,301,1.33144497871399,truck,boat,0,0301_scg_s03_0_boat_00_boat3-cat3.png
subject-03,1,302,1.50024604797363,dog,dog,0,0302_scg_s03_0_dog_00_dog10-bottle1.png
subject-03,1,303,0.665899991989136,knife,knife,0,0303_scg_s03_0_knife_00_knife4-airplane3.png
subject-03,1,304,0.771628141403198,oven,keyboard,0,0304_scg_s03_0_keyboard_00_keyboard1-dog3.png
subject-03,1,305,1.12128019332886,dog,dog,0,0305_scg_s03_0_dog_00_dog10-elephant1.png
subject-03,1,306,0.981052160263062,bird,boat,0,0306_scg_s03_0_boat_00_boat10-bear3.png
subject-03,1,307,1.03863191604614,dog,cat,0,0307_scg_s03_0_cat_00_cat5-keyboard3.png
subject-03,1,308,0.78584098815918,knife,knife,0,0308_scg_s03_0_knife_00_knife10-oven3.png
subject-03,1,309,1.32744288444519,knife,bottle,0,0309_scg_s03_0_bottle_00_bottle5-chair1.png
subject-03,1,310,0.649525880813599,bird,airplane,0,0310_scg_s03_0_airplane_00_airplane7-clock3.png
subject-03,1,311,0.777430057525635,truck,truck,0,0311_scg_s03_0_truck_00_truck5-truck1.png
subject-03,1,312,1.35210299491882,elephant,elephant,0,0312_scg_s03_0_elephant_00_elephant9-dog3.png
subject-03,1,313,1.3744158744812,dog,dog,0,0313_scg_s03_0_dog_00_dog3-truck2.png
subject-03,1,314,0.742265939712524,boat,boat,0,0314_scg_s03_0_boat_00_boat9-airplane2.png
subject-03,1,315,1.26719999313354,knife,knife,0,0315_scg_s03_0_knife_00_knife9-bear3.png
subject-03,1,316,1.10369682312012,elephant,elephant,0,0316_scg_s03_0_elephant_00_elephant1-keyboard3.png
subject-03,1,317,0.794084072113037,bicycle,bicycle,0,0317_scg_s03_0_bicycle_00_bicycle5-bear1.png
subject-03,1,318,1.01624488830566,knife,knife,0,0318_scg_s03_0_knife_00_knife2-elephant2.png
subject-03,1,319,0.611733198165894,bottle,bottle,0,0319_scg_s03_0_bottle_00_bottle8-bottle3.png
subject-03,1,320,0.733023881912231,bird,bird,0,0320_scg_s03_0_bird_00_bird4-dog3.png
subject-03,1,321,0.983384847640991,bicycle,bicycle,0,0321_scg_s03_0_bicycle_00_bicycle10-dog3.png
subject-03,1,322,NaN,na,bicycle,0,0322_scg_s03_0_bicycle_00_bicycle2-bird3.png
subject-03,1,323,1.18410396575928,knife,knife,0,0323_scg_s03_0_knife_00_knife8-bottle3.png
subject-03,1,324,0.722276926040649,chair,chair,0,0324_scg_s03_0_chair_00_chair10-bird3.png
subject-03,1,325,0.710151195526123,bottle,bottle,0,0325_scg_s03_0_bottle_00_bottle2-clock1.png
subject-03,1,326,0.983431816101074,knife,knife,0,0326_scg_s03_0_knife_00_knife10-bear3.png
subject-03,1,327,0.859402894973755,bird,bear,0,0327_scg_s03_0_bear_00_bear10-clock1.png
subject-03,1,328,0.833178997039795,bird,dog,0,0328_scg_s03_0_dog_00_dog5-knife2.png
subject-03,1,329,0.799330949783325,cat,airplane,0,0329_scg_s03_0_airplane_00_airplane3-chair3.png
subject-03,1,330,0.629619121551514,chair,chair,0,0330_scg_s03_0_chair_00_chair5-bird1.png
subject-03,1,331,1.00088286399841,boat,airplane,0,0331_scg_s03_0_airplane_00_airplane7-car1.png
subject-03,1,332,1.01501607894897,truck,truck,0,0332_scg_s03_0_truck_00_truck4-oven2.png
subject-03,1,333,1.2025089263916,bottle,bottle,0,0333_scg_s03_0_bottle_00_bottle9-car3.png
subject-03,1,334,1.49255108833313,elephant,elephant,0,0334_scg_s03_0_elephant_00_elephant5-bear2.png
subject-03,1,335,0.752766132354736,bicycle,bicycle,0,0335_scg_s03_0_bicycle_00_bicycle9-cat3.png
subject-03,1,336,1.11258602142334,oven,keyboard,0,0336_scg_s03_0_keyboard_00_keyboard2-knife1.png
subject-03,1,337,0.882107973098755,chair,chair,0,0337_scg_s03_0_chair_00_chair1-airplane2.png
subject-03,1,338,0.672309875488281,oven,oven,0,0338_scg_s03_0_oven_00_oven8-knife2.png
subject-03,1,339,0.608048915863037,bird,bird,0,0339_scg_s03_0_bird_00_bird5-cat2.png
subject-03,1,340,0.757152795791626,knife,knife,0,0340_scg_s03_0_knife_00_knife6-bottle3.png
subject-03,1,341,1.07716703414917,car,car,0,0341_scg_s03_0_car_00_car3-bird2.png
subject-03,1,342,0.807992935180664,knife,knife,0,0342_scg_s03_0_knife_00_knife2-bear2.png
subject-03,1,343,0.989341020584106,clock,knife,0,0343_scg_s03_0_knife_00_knife9-bottle2.png
subject-03,1,344,1.13120985031128,knife,knife,0,0344_scg_s03_0_knife_00_knife1-chair1.png
subject-03,1,345,1.43675899505615,bicycle,bicycle,0,0345_scg_s03_0_bicycle_00_bicycle3-truck3.png
subject-03,1,346,1.04131007194519,elephant,elephant,0,0346_scg_s03_0_elephant_00_elephant8-truck3.png
subject-03,1,347,1.11713099479675,airplane,airplane,0,0347_scg_s03_0_airplane_00_airplane2-bicycle1.png
subject-03,1,348,0.774257898330688,chair,chair,0,0348_scg_s03_0_chair_00_chair3-bottle3.png
subject-03,1,349,0.840715885162354,bottle,bottle,0,0349_scg_s03_0_bottle_00_bottle10-car1.png
subject-03,1,350,0.978699922561646,dog,dog,0,0350_scg_s03_0_dog_00_dog10-truck2.png
subject-03,1,351,0.937346935272217,airplane,bear,0,0351_scg_s03_0_bear_00_bear6-chair1.png
subject-03,1,352,1.04242897033691,oven,car,0,0352_scg_s03_0_car_00_car8-boat3.png
subject-03,1,353,0.962260961532593,dog,elephant,0,0353_scg_s03_0_elephant_00_elephant4-bird1.png
subject-03,1,354,0.814380168914795,oven,boat,0,0354_scg_s03_0_boat_00_boat7-truck2.png
subject-03,1,355,1.13448309898376,cat,airplane,0,0355_scg_s03_0_airplane_00_airplane4-bear3.png
subject-03,1,356,0.831935882568359,bear,elephant,0,0356_scg_s03_0_elephant_00_elephant6-dog2.png
subject-03,1,357,0.77652907371521,airplane,bird,0,0357_scg_s03_0_bird_00_bird6-truck2.png
subject-03,1,358,0.964274168014526,elephant,elephant,0,0358_scg_s03_0_elephant_00_elephant1-bear2.png
subject-03,1,359,0.731967926025391,knife,knife,0,0359_scg_s03_0_knife_00_knife4-keyboard1.png
subject-03,1,360,0.935450077056885,chair,chair,0,0360_scg_s03_0_chair_00_chair4-chair3.png
subject-03,1,361,0.788789033889771,knife,boat,0,0361_scg_s03_0_boat_00_boat2-bird1.png
subject-03,1,362,1.15427899360657,chair,chair,0,0362_scg_s03_0_chair_00_chair1-truck3.png
subject-03,1,363,0.652761936187744,clock,clock,0,0363_scg_s03_0_clock_00_clock4-elephant2.png
subject-03,1,364,0.713192939758301,bottle,bottle,0,0364_scg_s03_0_bottle_00_bottle5-elephant1.png
subject-03,1,365,0.762810945510864,oven,oven,0,0365_scg_s03_0_oven_00_oven3-bottle3.png
subject-03,1,366,0.714618921279907,knife,knife,0,0366_scg_s03_0_knife_00_knife5-clock1.png
subject-03,1,367,0.67490291595459,bird,bird,0,0367_scg_s03_0_bird_00_bird1-boat1.png
subject-03,1,368,0.686506032943726,clock,clock,0,0368_scg_s03_0_clock_00_clock8-bear2.png
subject-03,1,369,0.868623018264771,airplane,airplane,0,0369_scg_s03_0_airplane_00_airplane3-dog1.png
subject-03,1,370,0.858970880508423,car,car,0,0370_scg_s03_0_car_00_car5-oven2.png
subject-03,1,371,0.77330493927002,elephant,elephant,0,0371_scg_s03_0_elephant_00_elephant1-car3.png
subject-03,1,372,0.954607009887695,bird,bird,0,0372_scg_s03_0_bird_00_bird10-clock1.png
subject-03,1,373,1.11265277862549,bear,bear,0,0373_scg_s03_0_bear_00_bear4-truck3.png
subject-03,1,374,1.41617584228516,car,car,0,0374_scg_s03_0_car_00_car6-bicycle3.png
subject-03,1,375,0.935274839401245,oven,keyboard,0,0375_scg_s03_0_keyboard_00_keyboard5-cat1.png
subject-03,1,376,0.80334210395813,bird,bird,0,0376_scg_s03_0_bird_00_bird1-truck1.png
subject-03,1,377,0.822561979293823,keyboard,keyboard,0,0377_scg_s03_0_keyboard_00_keyboard6-bicycle1.png
subject-03,1,378,0.889436960220337,truck,truck,0,0378_scg_s03_0_truck_00_truck2-elephant1.png
subject-03,1,379,0.570781946182251,oven,oven,0,0379_scg_s03_0_oven_00_oven4-clock2.png
subject-03,1,380,0.852627038955688,knife,knife,0,0380_scg_s03_0_knife_00_knife10-elephant3.png
subject-03,1,381,1.19762492179871,knife,knife,0,0381_scg_s03_0_knife_00_knife5-keyboard3.png
subject-03,1,382,1.03285503387451,clock,clock,0,0382_scg_s03_0_clock_00_clock4-oven1.png
subject-03,1,383,1.4041440486908,boat,truck,0,0383_scg_s03_0_truck_00_truck4-airplane3.png
subject-03,1,384,0.796571969985962,bear,bear,0,0384_scg_s03_0_bear_00_bear9-knife2.png
subject-03,1,385,0.802258014678955,boat,bicycle,0,0385_scg_s03_0_bicycle_00_bicycle2-bicycle1.png
subject-03,1,386,1.11929297447205,bicycle,keyboard,0,0386_scg_s03_0_keyboard_00_keyboard8-keyboard2.png
subject-03,1,387,0.725549936294556,oven,cat,0,0387_scg_s03_0_cat_00_cat9-boat2.png
subject-03,1,388,0.901679992675781,oven,knife,0,0388_scg_s03_0_knife_00_knife3-keyboard3.png
subject-03,1,389,1.45131397247314,keyboard,keyboard,0,0389_scg_s03_0_keyboard_00_keyboard1-bird2.png
subject-03,1,390,0.895153045654297,dog,dog,0,0390_scg_s03_0_dog_00_dog1-knife3.png
subject-03,1,391,0.68543815612793,clock,clock,0,0391_scg_s03_0_clock_00_clock2-dog1.png
subject-03,1,392,0.921048164367676,truck,oven,0,0392_scg_s03_0_oven_00_oven7-clock2.png
subject-03,1,393,1.04120802879333,elephant,elephant,0,0393_scg_s03_0_elephant_00_elephant8-dog1.png
subject-03,1,394,0.954590797424316,knife,elephant,0,0394_scg_s03_0_elephant_00_elephant10-keyboard1.png
subject-03,1,395,0.974937915802002,dog,dog,0,0395_scg_s03_0_dog_00_dog4-truck2.png
subject-03,1,396,0.795125007629395,boat,boat,0,0396_scg_s03_0_boat_00_boat9-bird1.png
subject-03,1,397,0.724041938781738,clock,clock,0,0397_scg_s03_0_clock_00_clock7-truck3.png
subject-03,1,398,0.965678930282593,truck,truck,0,0398_scg_s03_0_truck_00_truck5-knife3.png
subject-03,1,399,1.23202896118164,bird,bird,0,0399_scg_s03_0_bird_00_bird5-bird1.png
subject-03,1,400,1.10806393623352,bird,airplane,0,0400_scg_s03_0_airplane_00_airplane7-boat2.png
subject-03,1,401,0.827926874160767,bird,airplane,0,0401_scg_s03_0_airplane_00_airplane1-elephant1.png
subject-03,1,402,0.972433805465698,bear,bear,0,0402_scg_s03_0_bear_00_bear10-cat2.png
subject-03,1,403,0.923723936080933,knife,keyboard,0,0403_scg_s03_0_keyboard_00_keyboard2-elephant1.png
subject-03,1,404,0.827219009399414,airplane,airplane,0,0404_scg_s03_0_airplane_00_airplane6-chair3.png
subject-03,1,405,0.863812923431396,knife,boat,0,0405_scg_s03_0_boat_00_boat8-oven1.png
subject-03,1,406,0.738981962203979,cat,bear,0,0406_scg_s03_0_bear_00_bear7-truck1.png
subject-03,1,407,1.01057887077332,dog,bottle,0,0407_scg_s03_0_bottle_00_bottle5-cat1.png
subject-03,1,408,0.618949174880981,bird,bear,0,0408_scg_s03_0_bear_00_bear6-bird2.png
subject-03,1,409,0.968597888946533,truck,truck,0,0409_scg_s03_0_truck_00_truck1-bear1.png
subject-03,1,410,1.03490591049194,car,car,0,0410_scg_s03_0_car_00_car10-car1.png
subject-03,1,411,0.925226211547852,truck,truck,0,0411_scg_s03_0_truck_00_truck3-cat1.png
subject-03,1,412,1.06097197532654,bear,elephant,0,0412_scg_s03_0_elephant_00_elephant4-car3.png
subject-03,1,413,0.743228912353516,airplane,keyboard,0,0413_scg_s03_0_keyboard_00_keyboard10-car1.png
subject-03,1,414,0.740543127059937,knife,knife,0,0414_scg_s03_0_knife_00_knife5-bicycle2.png
subject-03,1,415,0.855437040328979,airplane,airplane,0,0415_scg_s03_0_airplane_00_airplane1-clock1.png
subject-03,1,416,1.32661294937134,knife,keyboard,0,0416_scg_s03_0_keyboard_00_keyboard3-elephant2.png
subject-03,1,417,0.94884991645813,bicycle,bicycle,0,0417_scg_s03_0_bicycle_00_bicycle1-elephant2.png
subject-03,1,418,1.25151014328003,bear,elephant,0,0418_scg_s03_0_elephant_00_elephant9-boat3.png
subject-03,1,419,0.763203859329224,chair,chair,0,0419_scg_s03_0_chair_00_chair8-car1.png
subject-03,1,420,0.936527013778687,elephant,elephant,0,0420_scg_s03_0_elephant_00_elephant8-bird2.png
subject-03,1,421,1.0022599697113,chair,keyboard,0,0421_scg_s03_0_keyboard_00_keyboard7-chair3.png
subject-03,1,422,0.737830877304077,clock,clock,0,0422_scg_s03_0_clock_00_clock3-keyboard3.png
subject-03,1,423,0.898704051971436,clock,clock,0,0423_scg_s03_0_clock_00_clock1-clock2.png
subject-03,1,424,1.01051306724548,bicycle,bicycle,0,0424_scg_s03_0_bicycle_00_bicycle1-clock3.png
subject-03,1,425,0.954311847686768,bird,dog,0,0425_scg_s03_0_dog_00_dog8-oven3.png
subject-03,1,426,0.899188041687012,bird,bird,0,0426_scg_s03_0_bird_00_bird8-chair1.png
subject-03,1,427,1.1817479133606,bird,bird,0,0427_scg_s03_0_bird_00_bird9-keyboard1.png
subject-03,1,428,0.941264152526855,dog,cat,0,0428_scg_s03_0_cat_00_cat6-chair3.png
subject-03,1,429,0.655160903930664,cat,elephant,0,0429_scg_s03_0_elephant_00_elephant7-keyboard3.png
subject-03,1,430,1.50012707710266,dog,bear,0,0430_scg_s03_0_bear_00_bear9-keyboard3.png
subject-03,1,431,0.936023950576782,oven,bicycle,0,0431_scg_s03_0_bicycle_00_bicycle5-car3.png
subject-03,1,432,1.2857038974762,dog,dog,0,0432_scg_s03_0_dog_00_dog2-bottle2.png
subject-03,1,433,0.762555122375488,knife,knife,0,0433_scg_s03_0_knife_00_knife1-truck2.png
subject-03,1,434,0.94995903968811,bicycle,bicycle,0,0434_scg_s03_0_bicycle_00_bicycle4-keyboard3.png
subject-03,1,435,1.18593382835388,knife,knife,0,0435_scg_s03_0_knife_00_knife4-oven2.png
subject-03,1,436,0.853893041610718,bottle,bottle,0,0436_scg_s03_0_bottle_00_bottle1-cat3.png
subject-03,1,437,0.795092105865479,keyboard,keyboard,0,0437_scg_s03_0_keyboard_00_keyboard9-chair2.png
subject-03,1,438,1.1450879573822,oven,oven,0,0438_scg_s03_0_oven_00_oven3-boat3.png
subject-03,1,439,0.767141103744507,bird,elephant,0,0439_scg_s03_0_elephant_00_elephant2-bottle3.png
subject-03,1,440,1.00070595741272,cat,cat,0,0440_scg_s03_0_cat_00_cat4-airplane1.png
subject-03,1,441,0.892668962478638,clock,clock,0,0441_scg_s03_0_clock_00_clock3-cat1.png
subject-03,1,442,0.690753936767578,cat,cat,0,0442_scg_s03_0_cat_00_cat1-chair2.png
subject-03,1,443,0.662091016769409,oven,oven,0,0443_scg_s03_0_oven_00_oven6-bicycle1.png
subject-03,1,444,0.775384902954102,bear,bear,0,0444_scg_s03_0_bear_00_bear5-bicycle3.png
subject-03,1,445,0.933245897293091,knife,knife,0,0445_scg_s03_0_knife_00_knife1-dog1.png
subject-03,1,446,1.01553702354431,bird,bird,0,0446_scg_s03_0_bird_00_bird1-bear1.png
subject-03,1,447,0.842788934707642,bicycle,bicycle,0,0447_scg_s03_0_bicycle_00_bicycle7-oven1.png
subject-03,1,448,1.07881617546082,keyboard,keyboard,0,0448_scg_s03_0_keyboard_00_keyboard9-boat2.png
subject-03,1,449,1.06515383720398,cat,oven,0,0449_scg_s03_0_oven_00_oven8-keyboard3.png
subject-03,1,450,0.801251173019409,airplane,airplane,0,0450_scg_s03_0_airplane_00_airplane5-knife1.png
subject-03,1,451,1.06113719940186,boat,boat,0,0451_scg_s03_0_boat_00_boat5-clock3.png
subject-03,1,452,1.01918292045593,dog,dog,0,0452_scg_s03_0_dog_00_dog3-clock1.png
subject-03,1,453,1.00933480262756,knife,airplane,0,0453_scg_s03_0_airplane_00_airplane10-dog3.png
subject-03,1,454,1.32940697669983,bicycle,bicycle,0,0454_scg_s03_0_bicycle_00_bicycle4-truck3.png
subject-03,1,455,0.965053796768188,cat,bird,0,0455_scg_s03_0_bird_00_bird5-oven3.png
subject-03,1,456,1.16349816322327,bottle,bottle,0,0456_scg_s03_0_bottle_00_bottle8-bird1.png
subject-03,1,457,0.898381948471069,keyboard,keyboard,0,0457_scg_s03_0_keyboard_00_keyboard2-bicycle3.png
subject-03,1,458,1.50014185905457,truck,truck,0,0458_scg_s03_0_truck_00_truck5-keyboard1.png
subject-03,1,459,0.632151126861572,clock,clock,0,0459_scg_s03_0_clock_00_clock6-chair3.png
subject-03,1,460,0.722481966018677,oven,oven,0,0460_scg_s03_0_oven_00_oven2-chair1.png
subject-03,1,461,1.15593504905701,cat,cat,0,0461_scg_s03_0_cat_00_cat7-knife2.png
subject-03,1,462,0.799588918685913,bicycle,bird,0,0462_scg_s03_0_bird_00_bird3-oven1.png
subject-03,1,463,1.01964092254639,bird,bear,0,0463_scg_s03_0_bear_00_bear8-elephant2.png
subject-03,1,464,0.901044130325317,chair,chair,0,0464_scg_s03_0_chair_00_chair5-oven2.png
subject-03,1,465,1.05933594703674,dog,dog,0,0465_scg_s03_0_dog_00_dog9-boat1.png
subject-03,1,466,0.910899877548218,dog,dog,0,0466_scg_s03_0_dog_00_dog10-bicycle1.png
subject-03,1,467,0.841360092163086,oven,oven,0,0467_scg_s03_0_oven_00_oven6-oven3.png
subject-03,1,468,1.03172707557678,bicycle,bicycle,0,0468_scg_s03_0_bicycle_00_bicycle9-airplane2.png
subject-03,1,469,0.613790035247803,clock,clock,0,0469_scg_s03_0_clock_00_clock7-cat2.png
subject-03,1,470,0.728353977203369,truck,truck,0,0470_scg_s03_0_truck_00_truck1-cat1.png
subject-03,1,471,1.11550307273865,car,car,0,0471_scg_s03_0_car_00_car1-oven3.png
subject-03,1,472,1.46036505699158,knife,boat,0,0472_scg_s03_0_boat_00_boat4-elephant2.png
subject-03,1,473,1.12760210037231,knife,knife,0,0473_scg_s03_0_knife_00_knife4-bear1.png
subject-03,1,474,1.46994113922119,knife,boat,0,0474_scg_s03_0_boat_00_boat6-cat1.png
subject-03,1,475,1.43012285232544,car,car,0,0475_scg_s03_0_car_00_car8-truck3.png
subject-03,1,476,0.812381982803345,truck,truck,0,0476_scg_s03_0_truck_00_truck7-bear2.png
subject-03,1,477,0.664419174194336,knife,knife,0,0477_scg_s03_0_knife_00_knife9-elephant2.png
subject-03,1,478,0.870873928070068,truck,truck,0,0478_scg_s03_0_truck_00_truck2-bottle3.png
subject-03,1,479,0.699002981185913,truck,truck,0,0479_scg_s03_0_truck_00_truck6-boat2.png
subject-03,1,480,0.742753982543945,oven,oven,0,0480_scg_s03_0_oven_00_oven2-bird2.png
subject-03,1,481,0.740997076034546,truck,truck,0,0481_scg_s03_0_truck_00_truck1-bicycle3.png
subject-03,1,482,0.770007848739624,boat,boat,0,0482_scg_s03_0_boat_00_boat5-knife2.png
subject-03,1,483,0.643630027770996,oven,airplane,0,0483_scg_s03_0_airplane_00_airplane4-truck2.png
subject-03,1,484,0.895772933959961,dog,dog,0,0484_scg_s03_0_dog_00_dog4-bicycle1.png
subject-03,1,485,0.780411005020142,bird,cat,0,0485_scg_s03_0_cat_00_cat10-bird2.png
subject-03,1,486,1.29023790359497,chair,chair,0,0486_scg_s03_0_chair_00_chair8-bicycle3.png
subject-03,1,487,0.758256912231445,bottle,bottle,0,0487_scg_s03_0_bottle_00_bottle6-bottle3.png
subject-03,1,488,0.718580007553101,cat,cat,0,0488_scg_s03_0_cat_00_cat1-boat1.png
subject-03,1,489,1.16790413856506,bottle,clock,0,0489_scg_s03_0_clock_00_clock8-cat1.png
subject-03,1,490,1.36328291893005,knife,boat,0,0490_scg_s03_0_boat_00_boat6-bear1.png
subject-03,1,491,1.0477921962738,clock,clock,0,0491_scg_s03_0_clock_00_clock10-truck2.png
subject-03,1,492,0.699398040771484,bear,bear,0,0492_scg_s03_0_bear_00_bear4-car3.png
subject-03,1,493,0.681088924407959,car,car,0,0493_scg_s03_0_car_00_car9-clock2.png
subject-03,1,494,1.27711796760559,bear,bear,0,0494_scg_s03_0_bear_00_bear9-bottle2.png
subject-03,1,495,0.783184051513672,cat,dog,0,0495_scg_s03_0_dog_00_dog4-elephant2.png
subject-03,1,496,1.15799713134766,knife,airplane,0,0496_scg_s03_0_airplane_00_airplane4-boat3.png
subject-03,1,497,1.50023007392883,chair,chair,0,0497_scg_s03_0_chair_00_chair9-elephant1.png
subject-03,1,498,1.20048213005066,dog,dog,0,0498_scg_s03_0_dog_00_dog4-oven1.png
subject-03,1,499,1.31996011734009,keyboard,keyboard,0,0499_scg_s03_0_keyboard_00_keyboard6-dog2.png
subject-03,1,500,0.857900857925415,car,car,0,0500_scg_s03_0_car_00_car2-knife3.png
subject-03,1,501,0.923970937728882,bear,elephant,0,0501_scg_s03_0_elephant_00_elephant6-cat2.png
subject-03,1,502,1.50016093254089,knife,knife,0,0502_scg_s03_0_knife_00_knife4-boat1.png
subject-03,1,503,1.03436589241028,bottle,bottle,0,0503_scg_s03_0_bottle_00_bottle8-keyboard3.png
subject-03,1,504,0.978522062301636,truck,truck,0,0504_scg_s03_0_truck_00_truck2-car3.png
subject-03,1,505,1.14392995834351,bicycle,chair,0,0505_scg_s03_0_chair_00_chair3-dog2.png
subject-03,1,506,1.3878231048584,car,car,0,0506_scg_s03_0_car_00_car8-airplane3.png
subject-03,1,507,0.585777997970581,oven,oven,0,0507_scg_s03_0_oven_00_oven3-knife1.png
subject-03,1,508,1.2135808467865,boat,boat,0,0508_scg_s03_0_boat_00_boat1-car2.png
subject-03,1,509,0.908581018447876,car,car,0,0509_scg_s03_0_car_00_car3-airplane3.png
subject-03,1,510,0.568702936172485,oven,oven,0,0510_scg_s03_0_oven_00_oven1-bird3.png
subject-03,1,511,0.650933980941772,bicycle,bicycle,0,0511_scg_s03_0_bicycle_00_bicycle9-bear1.png
subject-03,1,512,1.31598615646362,bicycle,bicycle,0,0512_scg_s03_0_bicycle_00_bicycle8-truck1.png
subject-03,1,513,1.13231611251831,oven,oven,0,0513_scg_s03_0_oven_00_oven4-car1.png
subject-03,1,514,1.2065851688385,bear,elephant,0,0514_scg_s03_0_elephant_00_elephant1-airplane2.png
subject-03,1,515,0.635433912277222,oven,oven,0,0515_scg_s03_0_oven_00_oven1-boat3.png
subject-03,1,516,0.969436883926392,keyboard,airplane,0,0516_scg_s03_0_airplane_00_airplane3-clock1.png
subject-03,1,517,0.829031944274902,bottle,bottle,0,0517_scg_s03_0_bottle_00_bottle10-clock2.png
subject-03,1,518,0.727174043655396,oven,oven,0,0518_scg_s03_0_oven_00_oven7-cat1.png
subject-03,1,519,0.74167013168335,truck,truck,0,0519_scg_s03_0_truck_00_truck7-chair2.png
subject-03,1,520,1.00538206100464,knife,knife,0,0520_scg_s03_0_knife_00_knife9-airplane2.png
subject-03,1,521,0.859750032424927,bear,elephant,0,0521_scg_s03_0_elephant_00_elephant1-chair1.png
subject-03,1,522,0.801737070083618,knife,airplane,0,0522_scg_s03_0_airplane_00_airplane2-bird3.png
subject-03,1,523,1.4386990070343,car,car,0,0523_scg_s03_0_car_00_car3-truck1.png
subject-03,1,524,0.793429136276245,airplane,elephant,0,0524_scg_s03_0_elephant_00_elephant10-knife3.png
subject-03,1,525,0.653395891189575,oven,oven,0,0525_scg_s03_0_oven_00_oven8-chair1.png
subject-03,1,526,1.06490898132324,dog,dog,0,0526_scg_s03_0_dog_00_dog1-dog2.png
subject-03,1,527,0.801059007644653,knife,knife,0,0527_scg_s03_0_knife_00_knife1-airplane1.png
subject-03,1,528,0.598360061645508,oven,oven,0,0528_scg_s03_0_oven_00_oven4-knife2.png
subject-03,1,529,0.55649995803833,cat,cat,0,0529_scg_s03_0_cat_00_cat2-elephant1.png
subject-03,1,530,0.713405132293701,car,car,0,0530_scg_s03_0_car_00_car4-bicycle3.png
subject-03,1,531,0.627762794494629,cat,cat,0,0531_scg_s03_0_cat_00_cat7-truck2.png
subject-03,1,532,0.72338080406189,bear,bear,0,0532_scg_s03_0_bear_00_bear5-boat2.png
subject-03,1,533,0.791213035583496,oven,boat,0,0533_scg_s03_0_boat_00_boat3-car3.png
subject-03,1,534,0.841163873672485,keyboard,car,0,0534_scg_s03_0_car_00_car1-keyboard2.png
subject-03,1,535,1.50020909309387,dog,dog,0,0535_scg_s03_0_dog_00_dog10-car3.png
subject-03,1,536,0.696347951889038,clock,dog,0,0536_scg_s03_0_dog_00_dog1-bird1.png
subject-03,1,537,0.724603891372681,bird,bird,0,0537_scg_s03_0_bird_00_bird4-bicycle2.png
subject-03,1,538,0.671119928359985,clock,clock,0,0538_scg_s03_0_clock_00_clock1-bear1.png
subject-03,1,539,0.729418039321899,bird,bird,0,0539_scg_s03_0_bird_00_bird4-clock1.png
subject-03,1,540,0.898344039916992,bottle,bottle,0,0540_scg_s03_0_bottle_00_bottle4-airplane1.png
subject-03,1,541,0.688468933105469,clock,clock,0,0541_scg_s03_0_clock_00_clock9-chair3.png
subject-03,1,542,1.21599388122559,keyboard,keyboard,0,0542_scg_s03_0_keyboard_00_keyboard4-clock2.png
subject-03,1,543,1.30547618865967,bear,bear,0,0543_scg_s03_0_bear_00_bear7-dog3.png
subject-03,1,544,0.887456893920898,bear,bear,0,0544_scg_s03_0_bear_00_bear9-boat2.png
subject-03,1,545,1.08331203460693,bicycle,bicycle,0,0545_scg_s03_0_bicycle_00_bicycle9-bottle1.png
subject-03,1,546,1.13515615463257,dog,dog,0,0546_scg_s03_0_dog_00_dog2-bicycle2.png
subject-03,1,547,0.846451997756958,bicycle,bicycle,0,0547_scg_s03_0_bicycle_00_bicycle2-knife2.png
subject-03,1,548,1.50024485588074,dog,dog,0,0548_scg_s03_0_dog_00_dog5-bear3.png
subject-03,1,549,1.43246006965637,clock,bird,0,0549_scg_s03_0_bird_00_bird7-truck2.png
subject-03,1,550,0.500907897949219,cat,cat,0,0550_scg_s03_0_cat_00_cat3-elephant2.png
subject-03,1,551,0.812079906463623,chair,chair,0,0551_scg_s03_0_chair_00_chair3-car3.png
subject-03,1,552,1.039794921875,cat,dog,0,0552_scg_s03_0_dog_00_dog8-bear3.png
subject-03,1,553,0.644927024841309,oven,oven,0,0553_scg_s03_0_oven_00_oven5-bird1.png
subject-03,1,554,1.18698215484619,airplane,airplane,0,0554_scg_s03_0_airplane_00_airplane10-boat3.png
subject-03,1,555,0.806709051132202,oven,oven,0,0555_scg_s03_0_oven_00_oven2-car1.png
subject-03,1,556,0.573838949203491,oven,oven,0,0556_scg_s03_0_oven_00_oven10-bicycle1.png
subject-03,1,557,0.571612119674683,cat,cat,0,0557_scg_s03_0_cat_00_cat10-clock1.png
subject-03,1,558,1.05140900611877,dog,bear,0,0558_scg_s03_0_bear_00_bear1-bird2.png
subject-03,1,559,0.71903395652771,keyboard,keyboard,0,0559_scg_s03_0_keyboard_00_keyboard4-cat2.png
subject-03,1,560,0.847378015518188,knife,knife,0,0560_scg_s03_0_knife_00_knife1-clock2.png
subject-03,1,561,1.45153999328613,bottle,bottle,0,0561_scg_s03_0_bottle_00_bottle5-boat1.png
subject-03,1,562,1.26527786254883,cat,cat,0,0562_scg_s03_0_cat_00_cat1-airplane1.png
subject-03,1,563,1.15256881713867,chair,chair,0,0563_scg_s03_0_chair_00_chair9-dog2.png
subject-03,1,564,1.46686100959778,bird,boat,0,0564_scg_s03_0_boat_00_boat6-truck3.png
subject-03,1,565,1.33298420906067,car,car,0,0565_scg_s03_0_car_00_car7-car1.png
subject-03,1,566,0.66298508644104,oven,oven,0,0566_scg_s03_0_oven_00_oven10-oven3.png
subject-03,1,567,0.6751389503479,airplane,airplane,0,0567_scg_s03_0_airplane_00_airplane7-airplane3.png
subject-03,1,568,0.797240972518921,keyboard,keyboard,0,0568_scg_s03_0_keyboard_00_keyboard7-clock3.png
subject-03,1,569,0.679013013839722,oven,oven,0,0569_scg_s03_0_oven_00_oven1-cat1.png
subject-03,1,570,0.837312936782837,bird,bird,0,0570_scg_s03_0_bird_00_bird8-car2.png
subject-03,1,571,1.29528999328613,car,airplane,0,0571_scg_s03_0_airplane_00_airplane1-chair2.png
subject-03,1,572,0.671581983566284,chair,chair,0,0572_scg_s03_0_chair_00_chair9-bear1.png
subject-03,1,573,0.699009895324707,boat,boat,0,0573_scg_s03_0_boat_00_boat8-truck2.png
subject-03,1,574,1.18678593635559,chair,chair,0,0574_scg_s03_0_chair_00_chair7-truck3.png
subject-03,1,575,0.693163156509399,bicycle,bicycle,0,0575_scg_s03_0_bicycle_00_bicycle4-cat1.png
subject-03,1,576,1.50005292892456,airplane,airplane,0,0576_scg_s03_0_airplane_00_airplane6-knife1.png
subject-03,1,577,1.04350614547729,bicycle,chair,0,0577_scg_s03_0_chair_00_chair5-car1.png
subject-03,1,578,1.50024580955505,bear,bear,0,0578_scg_s03_0_bear_00_bear1-chair2.png
subject-03,1,579,0.869999170303345,airplane,airplane,0,0579_scg_s03_0_airplane_00_airplane10-elephant1.png
subject-03,1,580,0.859620094299316,cat,bear,0,0580_scg_s03_0_bear_00_bear10-keyboard3.png
subject-03,1,581,0.979315042495728,oven,chair,0,0581_scg_s03_0_chair_00_chair7-knife2.png
subject-03,1,582,0.64789891242981,bicycle,bicycle,0,0582_scg_s03_0_bicycle_00_bicycle1-oven1.png
subject-03,1,583,1.19867086410522,dog,knife,0,0583_scg_s03_0_knife_00_knife7-elephant2.png
subject-03,1,584,0.712945938110352,chair,chair,0,0584_scg_s03_0_chair_00_chair5-cat3.png
subject-03,1,585,1.14858412742615,keyboard,keyboard,0,0585_scg_s03_0_keyboard_00_keyboard6-elephant1.png
subject-03,1,586,0.730477094650269,elephant,elephant,0,0586_scg_s03_0_elephant_00_elephant1-oven2.png
subject-03,1,587,1.44784998893738,dog,dog,0,0587_scg_s03_0_dog_00_dog1-chair1.png
subject-03,1,588,1.46822214126587,oven,elephant,0,0588_scg_s03_0_elephant_00_elephant7-knife2.png
subject-03,1,589,0.96851110458374,chair,bicycle,0,0589_scg_s03_0_bicycle_00_bicycle4-car2.png
subject-03,1,590,1.46480917930603,car,car,0,0590_scg_s03_0_car_00_car7-elephant3.png
subject-03,1,591,1.19323706626892,bird,bird,0,0591_scg_s03_0_bird_00_bird10-cat1.png
subject-03,1,592,0.869510889053345,truck,truck,0,0592_scg_s03_0_truck_00_truck1-bird1.png
subject-03,1,593,1.31898307800293,car,bear,0,0593_scg_s03_0_bear_00_bear3-keyboard2.png
subject-03,1,594,NaN,na,knife,0,0594_scg_s03_0_knife_00_knife2-truck2.png
subject-03,1,595,1.46608805656433,clock,bicycle,0,0595_scg_s03_0_bicycle_00_bicycle3-oven3.png
subject-03,1,596,1.32360887527466,truck,truck,0,0596_scg_s03_0_truck_00_truck3-knife2.png
subject-03,1,597,1.08958101272583,bear,bear,0,0597_scg_s03_0_bear_00_bear4-knife1.png
subject-03,1,598,0.919792890548706,bird,bird,0,0598_scg_s03_0_bird_00_bird1-airplane2.png
subject-03,1,599,0.731634140014648,oven,oven,0,0599_scg_s03_0_oven_00_oven10-cat2.png
subject-03,1,600,1.34354114532471,car,oven,0,0600_scg_s03_0_oven_00_oven6-bird1.png
subject-03,1,601,1.1720860004425,knife,knife,0,0601_scg_s03_0_knife_00_knife1-elephant1.png
subject-03,1,602,0.909990072250366,bear,elephant,0,0602_scg_s03_0_elephant_00_elephant9-airplane2.png
subject-03,1,603,0.653965950012207,cat,cat,0,0603_scg_s03_0_cat_00_cat2-truck3.png
subject-03,1,604,0.641506910324097,cat,cat,0,0604_scg_s03_0_cat_00_cat2-knife3.png
subject-03,1,605,0.909526109695435,cat,bird,0,0605_scg_s03_0_bird_00_bird7-keyboard3.png
subject-03,1,606,0.997289896011353,airplane,airplane,0,0606_scg_s03_0_airplane_00_airplane7-truck1.png
subject-03,1,607,0.689700126647949,cat,boat,0,0607_scg_s03_0_boat_00_boat4-bicycle3.png
subject-03,1,608,0.915380954742432,bird,bird,0,0608_scg_s03_0_bird_00_bird6-airplane2.png
subject-03,1,609,0.943392038345337,airplane,airplane,0,0609_scg_s03_0_airplane_00_airplane4-dog2.png
subject-03,1,610,0.933051824569702,airplane,knife,0,0610_scg_s03_0_knife_00_knife6-truck1.png
subject-03,1,611,0.684566974639893,oven,oven,0,0611_scg_s03_0_oven_00_oven4-bicycle2.png
subject-03,1,612,0.796770095825195,bicycle,bicycle,0,0612_scg_s03_0_bicycle_00_bicycle7-bicycle2.png
subject-03,1,613,0.53191089630127,oven,oven,0,0613_scg_s03_0_oven_00_oven9-airplane2.png
subject-03,1,614,0.822657108306885,keyboard,keyboard,0,0614_scg_s03_0_keyboard_00_keyboard8-dog3.png
subject-03,1,615,0.650631904602051,oven,oven,0,0615_scg_s03_0_oven_00_oven4-keyboard3.png
subject-03,1,616,0.624857902526855,cat,cat,0,0616_scg_s03_0_cat_00_cat3-cat1.png
subject-03,1,617,1.47459697723389,bear,car,0,0617_scg_s03_0_car_00_car9-knife1.png
subject-03,1,618,0.842314958572388,bird,bird,0,0618_scg_s03_0_bird_00_bird3-cat1.png
subject-03,1,619,0.983685970306396,bird,bird,0,0619_scg_s03_0_bird_00_bird9-bicycle3.png
subject-03,1,620,0.703116893768311,chair,chair,0,0620_scg_s03_0_chair_00_chair8-bear1.png
subject-03,1,621,0.900633096694946,knife,knife,0,0621_scg_s03_0_knife_00_knife6-dog2.png
subject-03,1,622,0.950457096099854,cat,chair,0,0622_scg_s03_0_chair_00_chair4-keyboard2.png
subject-03,1,623,0.733004093170166,car,car,0,0623_scg_s03_0_car_00_car4-bear3.png
subject-03,1,624,1.2602710723877,car,car,0,0624_scg_s03_0_car_00_car10-dog1.png
subject-03,1,625,0.874382972717285,bicycle,bicycle,0,0625_scg_s03_0_bicycle_00_bicycle5-chair2.png
subject-03,1,626,0.885548830032349,chair,knife,0,0626_scg_s03_0_knife_00_knife5-truck3.png
subject-03,1,627,1.05162501335144,clock,clock,0,0627_scg_s03_0_clock_00_clock6-car2.png
subject-03,1,628,0.787791967391968,cat,cat,0,0628_scg_s03_0_cat_00_cat8-bird2.png
subject-03,1,629,0.676944017410278,cat,bird,0,0629_scg_s03_0_bird_00_bird7-car2.png
subject-03,1,630,0.767477989196777,bicycle,bicycle,0,0630_scg_s03_0_bicycle_00_bicycle5-oven3.png
subject-03,1,631,0.687402963638306,clock,clock,0,0631_scg_s03_0_clock_00_clock2-knife1.png
subject-03,1,632,0.761507987976074,chair,chair,0,0632_scg_s03_0_chair_00_chair10-bottle3.png
subject-03,1,633,1.1348819732666,knife,keyboard,0,0633_scg_s03_0_keyboard_00_keyboard7-bear2.png
subject-03,1,634,1.14758515357971,cat,cat,0,0634_scg_s03_0_cat_00_cat10-elephant3.png
subject-03,1,635,1.31606698036194,dog,dog,0,0635_scg_s03_0_dog_00_dog10-keyboard2.png
subject-03,1,636,0.722139120101929,clock,clock,0,0636_scg_s03_0_clock_00_clock7-bear2.png
subject-03,1,637,1.33337593078613,truck,truck,0,0637_scg_s03_0_truck_00_truck10-car3.png
subject-03,1,638,0.73747706413269,car,boat,0,0638_scg_s03_0_boat_00_boat10-cat1.png
subject-03,1,639,0.765328884124756,cat,cat,0,0639_scg_s03_0_cat_00_cat2-car3.png
subject-03,1,640,1.32317996025085,truck,truck,0,0640_scg_s03_0_truck_00_truck4-knife1.png
subject-03,1,641,0.915940999984741,bear,bear,0,0641_scg_s03_0_bear_00_bear8-dog1.png
subject-03,1,642,1.22795820236206,keyboard,keyboard,0,0642_scg_s03_0_keyboard_00_keyboard5-dog3.png
subject-03,1,643,1.27752709388733,bird,cat,0,0643_scg_s03_0_cat_00_cat5-bear2.png
subject-03,1,644,0.983556032180786,dog,dog,0,0644_scg_s03_0_dog_00_dog8-boat3.png
subject-03,1,645,0.827414035797119,bottle,bottle,0,0645_scg_s03_0_bottle_00_bottle4-oven2.png
subject-03,1,646,0.831161022186279,dog,bear,0,0646_scg_s03_0_bear_00_bear10-elephant1.png
subject-03,1,647,1.02855801582336,chair,chair,0,0647_scg_s03_0_chair_00_chair7-bird1.png
subject-03,1,648,0.701689004898071,knife,knife,0,0648_scg_s03_0_knife_00_knife6-bicycle1.png
subject-03,1,649,1.50037503242493,car,car,0,0649_scg_s03_0_car_00_car7-dog3.png
subject-03,1,650,0.919826984405518,bicycle,bicycle,0,0650_scg_s03_0_bicycle_00_bicycle10-elephant2.png
subject-03,1,651,1.17231512069702,chair,knife,0,0651_scg_s03_0_knife_00_knife7-chair2.png
subject-03,1,652,1.05201005935669,bicycle,bicycle,0,0652_scg_s03_0_bicycle_00_bicycle9-knife3.png
subject-03,1,653,1.30398797988892,bicycle,bicycle,0,0653_scg_s03_0_bicycle_00_bicycle1-bicycle3.png
subject-03,1,654,0.779550075531006,cat,cat,0,0654_scg_s03_0_cat_00_cat1-cat3.png
subject-03,1,655,1.4353940486908,truck,truck,0,0655_scg_s03_0_truck_00_truck7-boat1.png
subject-03,1,656,1.50024008750916,knife,airplane,0,0656_scg_s03_0_airplane_00_airplane8-chair1.png
subject-03,1,657,1.16420793533325,oven,boat,0,0657_scg_s03_0_boat_00_boat1-truck3.png
subject-03,1,658,1.04549789428711,bear,bear,0,0658_scg_s03_0_bear_00_bear2-knife2.png
subject-03,1,659,0.973715782165527,bottle,bottle,0,0659_scg_s03_0_bottle_00_bottle3-bird1.png
subject-03,1,660,1.50041604042053,oven,elephant,0,0660_scg_s03_0_elephant_00_elephant9-bicycle2.png
subject-03,1,661,0.805266141891479,truck,truck,0,0661_scg_s03_0_truck_00_truck10-bicycle1.png
subject-03,1,662,1.01043510437012,truck,truck,0,0662_scg_s03_0_truck_00_truck5-airplane2.png
subject-03,1,663,1.09020590782166,bottle,keyboard,0,0663_scg_s03_0_keyboard_00_keyboard4-bottle2.png
subject-03,1,664,0.904544115066528,dog,dog,0,0664_scg_s03_0_dog_00_dog8-bottle2.png
subject-03,1,665,0.924318075180054,bottle,oven,0,0665_scg_s03_0_oven_00_oven4-bottle2.png
subject-03,1,666,0.839395999908447,boat,boat,0,0666_scg_s03_0_boat_00_boat1-bicycle2.png
subject-03,1,667,0.745628118515015,car,car,0,0667_scg_s03_0_car_00_car8-bicycle2.png
subject-03,1,668,1.00354886054993,clock,clock,0,0668_scg_s03_0_clock_00_clock10-oven2.png
subject-03,1,669,1.5000958442688,car,car,0,0669_scg_s03_0_car_00_car10-keyboard2.png
subject-03,1,670,0.805683135986328,truck,truck,0,0670_scg_s03_0_truck_00_truck6-oven3.png
subject-03,1,671,0.711468935012817,clock,clock,0,0671_scg_s03_0_clock_00_clock4-car2.png
subject-03,1,672,1.06808280944824,keyboard,keyboard,0,0672_scg_s03_0_keyboard_00_keyboard5-bottle1.png
subject-03,1,673,0.910229921340942,cat,cat,0,0673_scg_s03_0_cat_00_cat3-oven2.png
subject-03,1,674,0.816137075424194,bottle,bottle,0,0674_scg_s03_0_bottle_00_bottle9-keyboard1.png
subject-03,1,675,1.21182799339294,truck,truck,0,0675_scg_s03_0_truck_00_truck8-elephant1.png
subject-03,1,676,1.0877161026001,dog,dog,0,0676_scg_s03_0_dog_00_dog4-keyboard2.png
subject-03,1,677,0.883479833602905,bicycle,bicycle,0,0677_scg_s03_0_bicycle_00_bicycle4-boat1.png
subject-03,1,678,0.889079093933105,boat,boat,0,0678_scg_s03_0_boat_00_boat5-boat3.png
subject-03,1,679,1.13397002220154,bird,bird,0,0679_scg_s03_0_bird_00_bird1-knife3.png
subject-03,1,680,1.14572286605835,dog,bear,0,0680_scg_s03_0_bear_00_bear3-bird3.png
subject-03,1,681,1.37299299240112,truck,car,0,0681_scg_s03_0_car_00_car5-truck3.png
subject-03,1,682,1.05422902107239,clock,clock,0,0682_scg_s03_0_clock_00_clock4-knife1.png
subject-03,1,683,0.994554996490479,car,airplane,0,0683_scg_s03_0_airplane_00_airplane4-car1.png
subject-03,1,684,1.24096488952637,truck,car,0,0684_scg_s03_0_car_00_car1-chair3.png
subject-03,1,685,1.31414484977722,bird,elephant,0,0685_scg_s03_0_elephant_00_elephant7-bird1.png
subject-03,1,686,1.47186684608459,boat,boat,0,0686_scg_s03_0_boat_00_boat9-cat3.png
subject-03,1,687,0.756805896759033,bottle,bottle,0,0687_scg_s03_0_bottle_00_bottle6-boat3.png
subject-03,1,688,1.33886289596558,truck,truck,0,0688_scg_s03_0_truck_00_truck10-airplane1.png
subject-03,1,689,0.852980136871338,truck,truck,0,0689_scg_s03_0_truck_00_truck9-boat3.png
subject-03,1,690,1.50018095970154,bear,bear,0,0690_scg_s03_0_bear_00_bear6-bear1.png
subject-03,1,691,0.686856985092163,oven,oven,0,0691_scg_s03_0_oven_00_oven2-bear3.png
subject-03,1,692,0.982507944107056,boat,airplane,0,0692_scg_s03_0_airplane_00_airplane10-truck1.png
subject-03,1,693,1.2942430973053,airplane,airplane,0,0693_scg_s03_0_airplane_00_airplane6-bear3.png
subject-03,1,694,1.26844501495361,bird,bird,0,0694_scg_s03_0_bird_00_bird1-clock3.png
subject-03,1,695,1.09880995750427,cat,cat,0,0695_scg_s03_0_cat_00_cat5-dog3.png
subject-03,1,696,0.926766872406006,chair,chair,0,0696_scg_s03_0_chair_00_chair2-bear2.png
subject-03,1,697,0.716091156005859,clock,clock,0,0697_scg_s03_0_clock_00_clock3-bear3.png
subject-03,1,698,1.12079405784607,cat,cat,0,0698_scg_s03_0_cat_00_cat1-oven1.png
subject-03,1,699,0.918905973434448,bottle,bottle,0,0699_scg_s03_0_bottle_00_bottle2-knife3.png
subject-03,1,700,1.07674384117126,bicycle,boat,0,0700_scg_s03_0_boat_00_boat6-elephant2.png
subject-03,1,701,0.70452618598938,bear,bear,0,0701_scg_s03_0_bear_00_bear2-car2.png
subject-03,1,702,0.788497924804688,airplane,airplane,0,0702_scg_s03_0_airplane_00_airplane10-car3.png
subject-03,1,703,0.999746084213257,knife,keyboard,0,0703_scg_s03_0_keyboard_00_keyboard7-oven2.png
subject-03,1,704,1.27453804016113,bicycle,bicycle,0,0704_scg_s03_0_bicycle_00_bicycle4-knife3.png
subject-03,1,705,0.948054075241089,bottle,bottle,0,0705_scg_s03_0_bottle_00_bottle1-dog2.png
subject-03,1,706,1.02184009552002,bird,bird,0,0706_scg_s03_0_bird_00_bird3-dog1.png
subject-03,1,707,1.15833497047424,truck,boat,0,0707_scg_s03_0_boat_00_boat3-airplane2.png
subject-03,1,708,0.839964866638184,bird,bear,0,0708_scg_s03_0_bear_00_bear5-chair1.png
subject-03,1,709,1.17585802078247,bicycle,boat,0,0709_scg_s03_0_boat_00_boat3-clock3.png
subject-03,1,710,1.37967586517334,car,car,0,0710_scg_s03_0_car_00_car4-elephant3.png
subject-03,1,711,1.02646493911743,bird,airplane,0,0711_scg_s03_0_airplane_00_airplane3-cat1.png
subject-03,1,712,0.892509937286377,bear,bear,0,0712_scg_s03_0_bear_00_bear1-clock2.png
subject-03,1,713,0.812550067901611,bicycle,bicycle,0,0713_scg_s03_0_bicycle_00_bicycle8-bear2.png
subject-03,1,714,0.618329048156738,bird,bird,0,0714_scg_s03_0_bird_00_bird2-bird2.png
subject-03,1,715,0.7081139087677,bird,knife,0,0715_scg_s03_0_knife_00_knife2-dog1.png
subject-03,1,716,1.27399301528931,car,boat,0,0716_scg_s03_0_boat_00_boat6-knife2.png
subject-03,1,717,1.05346989631653,car,oven,0,0717_scg_s03_0_oven_00_oven7-elephant1.png
subject-03,1,718,1.23817014694214,dog,dog,0,0718_scg_s03_0_dog_00_dog3-bird2.png
subject-03,1,719,1.04190397262573,bird,bottle,0,0719_scg_s03_0_bottle_00_bottle6-bird1.png
subject-03,1,720,0.584857940673828,chair,chair,0,0720_scg_s03_0_chair_00_chair1-clock2.png
subject-03,1,721,0.68035101890564,car,car,0,0721_scg_s03_0_car_00_car7-clock1.png
subject-03,1,722,0.886206865310669,knife,knife,0,0722_scg_s03_0_knife_00_knife6-oven3.png
subject-03,1,723,1.17443490028381,boat,bicycle,0,0723_scg_s03_0_bicycle_00_bicycle1-chair1.png
subject-03,1,724,1.23179912567139,truck,car,0,0724_scg_s03_0_car_00_car4-bird1.png
subject-03,1,725,0.959973096847534,dog,bear,0,0725_scg_s03_0_bear_00_bear2-elephant1.png
subject-03,1,726,1.39885282516479,bottle,bottle,0,0726_scg_s03_0_bottle_00_bottle10-truck3.png
subject-03,1,727,0.797211885452271,car,airplane,0,0727_scg_s03_0_airplane_00_airplane3-car1.png
subject-03,1,728,1.50020384788513,cat,bird,0,0728_scg_s03_0_bird_00_bird6-bottle3.png
subject-03,1,729,0.607492923736572,bird,bird,0,0729_scg_s03_0_bird_00_bird7-oven3.png
subject-03,1,730,0.833294868469238,truck,truck,0,0730_scg_s03_0_truck_00_truck2-chair1.png
subject-03,1,731,0.713983058929443,chair,chair,0,0731_scg_s03_0_chair_00_chair7-boat3.png
subject-03,1,732,1.50003099441528,bear,bear,0,0732_scg_s03_0_bear_00_bear7-bicycle2.png
subject-03,1,733,0.593999147415161,boat,boat,0,0733_scg_s03_0_boat_00_boat2-airplane1.png
subject-03,1,734,0.791918039321899,bottle,bottle,0,0734_scg_s03_0_bottle_00_bottle7-boat3.png
subject-03,1,735,1.37155699729919,bird,elephant,0,0735_scg_s03_0_elephant_00_elephant10-bear1.png
subject-03,1,736,1.05377697944641,truck,truck,0,0736_scg_s03_0_truck_00_truck3-dog3.png
subject-03,1,737,0.759791135787964,bottle,bottle,0,0737_scg_s03_0_bottle_00_bottle9-bottle1.png
subject-03,1,738,0.84128999710083,boat,boat,0,0738_scg_s03_0_boat_00_boat8-bird2.png
subject-03,1,739,1.49206590652466,knife,knife,0,0739_scg_s03_0_knife_00_knife6-airplane1.png
subject-03,1,740,0.917171001434326,keyboard,keyboard,0,0740_scg_s03_0_keyboard_00_keyboard10-boat2.png
subject-03,1,741,1.26651000976562,knife,boat,0,0741_scg_s03_0_boat_00_boat8-elephant1.png
subject-03,1,742,0.611119985580444,cat,cat,0,0742_scg_s03_0_cat_00_cat7-dog3.png
subject-03,1,743,0.938488960266113,bicycle,bicycle,0,0743_scg_s03_0_bicycle_00_bicycle8-clock3.png
subject-03,1,744,0.636353969573975,cat,cat,0,0744_scg_s03_0_cat_00_cat1-car2.png
subject-03,1,745,0.824045896530151,bird,bird,0,0745_scg_s03_0_bird_00_bird3-truck3.png
subject-03,1,746,1.22924089431763,knife,airplane,0,0746_scg_s03_0_airplane_00_airplane4-knife1.png
subject-03,1,747,1.24619388580322,bicycle,bicycle,0,0747_scg_s03_0_bicycle_00_bicycle9-car1.png
subject-03,1,748,0.69300389289856,cat,boat,0,0748_scg_s03_0_boat_00_boat3-dog3.png
subject-03,1,749,0.850622177124023,boat,dog,0,0749_scg_s03_0_dog_00_dog9-car1.png
subject-03,1,750,1.0398530960083,knife,knife,0,0750_scg_s03_0_knife_00_knife4-clock3.png
subject-03,1,751,0.952419996261597,bear,elephant,0,0751_scg_s03_0_elephant_00_elephant2-keyboard3.png
subject-03,1,752,0.934206962585449,truck,truck,0,0752_scg_s03_0_truck_00_truck5-car1.png
subject-03,1,753,1.15644907951355,chair,chair,0,0753_scg_s03_0_chair_00_chair7-elephant1.png
subject-03,1,754,1.25229382514954,keyboard,keyboard,0,0754_scg_s03_0_keyboard_00_keyboard6-boat2.png
subject-03,1,755,0.680901765823364,car,truck,0,0755_scg_s03_0_truck_00_truck10-truck3.png
subject-03,1,756,0.63975715637207,oven,oven,0,0756_scg_s03_0_oven_00_oven10-boat2.png
subject-03,1,757,NaN,na,oven,0,0757_scg_s03_0_oven_00_oven2-truck3.png
subject-03,1,758,1.10857200622559,bottle,bottle,0,0758_scg_s03_0_bottle_00_bottle6-bicycle3.png
subject-03,1,759,0.873963117599487,bottle,bottle,0,0759_scg_s03_0_bottle_00_bottle3-airplane2.png
subject-03,1,760,1.36983799934387,bottle,knife,0,0760_scg_s03_0_knife_00_knife6-clock2.png
subject-03,1,761,0.705032825469971,airplane,airplane,0,0761_scg_s03_0_airplane_00_airplane4-airplane1.png
subject-03,1,762,0.79515814781189,bicycle,bicycle,0,0762_scg_s03_0_bicycle_00_bicycle7-elephant2.png
subject-03,1,763,0.547606945037842,cat,elephant,0,0763_scg_s03_0_elephant_00_elephant3-keyboard2.png
subject-03,1,764,1.19745707511902,chair,chair,0,0764_scg_s03_0_chair_00_chair9-keyboard2.png
subject-03,1,765,1.35759902000427,dog,clock,0,0765_scg_s03_0_clock_00_clock1-elephant2.png
subject-03,1,766,0.725667953491211,cat,cat,0,0766_scg_s03_0_cat_00_cat8-bicycle3.png
subject-03,1,767,0.661958932876587,bottle,bottle,0,0767_scg_s03_0_bottle_00_bottle6-airplane1.png
subject-03,1,768,0.544023990631104,chair,chair,0,0768_scg_s03_0_chair_00_chair7-clock3.png
subject-03,1,769,0.604926824569702,bottle,bottle,0,0769_scg_s03_0_bottle_00_bottle2-chair3.png
subject-03,1,770,1.50012588500977,car,car,0,0770_scg_s03_0_car_00_car4-oven2.png
subject-03,1,771,1.10688805580139,knife,airplane,0,0771_scg_s03_0_airplane_00_airplane10-bear3.png
subject-03,1,772,0.644243955612183,oven,knife,0,0772_scg_s03_0_knife_00_knife6-chair3.png
subject-03,1,773,0.75647497177124,knife,knife,0,0773_scg_s03_0_knife_00_knife1-keyboard3.png
subject-03,1,774,1.16787815093994,bird,bird,0,0774_scg_s03_0_bird_00_bird5-bear3.png
subject-03,1,775,0.874168872833252,chair,chair,0,0775_scg_s03_0_chair_00_chair10-car2.png
subject-03,1,776,0.663199901580811,bottle,bottle,0,0776_scg_s03_0_bottle_00_bottle10-bear2.png
subject-03,1,777,1.2751579284668,dog,dog,0,0777_scg_s03_0_dog_00_dog3-knife3.png
subject-03,1,778,0.672241926193237,bicycle,bicycle,0,0778_scg_s03_0_bicycle_00_bicycle6-boat2.png
subject-03,1,779,0.633378982543945,cat,car,0,0779_scg_s03_0_car_00_car9-bird1.png
subject-03,1,780,1.07539415359497,truck,truck,0,0780_scg_s03_0_truck_00_truck8-bottle2.png
subject-03,1,781,0.69729208946228,oven,oven,0,0781_scg_s03_0_oven_00_oven3-bear2.png
subject-03,1,782,1.14680504798889,bicycle,bicycle,0,0782_scg_s03_0_bicycle_00_bicycle5-keyboard3.png
subject-03,1,783,1.32133507728577,cat,dog,0,0783_scg_s03_0_dog_00_dog4-clock1.png
subject-03,1,784,0.697648048400879,chair,chair,0,0784_scg_s03_0_chair_00_chair3-knife1.png
subject-03,1,785,0.64697790145874,keyboard,keyboard,0,0785_scg_s03_0_keyboard_00_keyboard6-bottle2.png
subject-03,1,786,0.836352109909058,clock,clock,0,0786_scg_s03_0_clock_00_clock9-bird2.png
subject-03,1,787,1.08828783035278,dog,dog,0,0787_scg_s03_0_dog_00_dog4-bottle2.png
subject-03,1,788,1.46498513221741,dog,dog,0,0788_scg_s03_0_dog_00_dog5-truck2.png
subject-03,1,789,1.13657712936401,dog,bear,0,0789_scg_s03_0_bear_00_bear10-oven1.png
subject-03,1,790,1.41041207313538,truck,truck,0,0790_scg_s03_0_truck_00_truck3-chair2.png
subject-03,1,791,1.01609587669373,elephant,elephant,0,0791_scg_s03_0_elephant_00_elephant7-bottle3.png
subject-03,1,792,1.22288203239441,keyboard,keyboard,0,0792_scg_s03_0_keyboard_00_keyboard5-knife2.png
subject-03,1,793,0.758718013763428,chair,chair,0,0793_scg_s03_0_chair_00_chair10-airplane2.png
subject-03,1,794,0.816694021224976,cat,cat,0,0794_scg_s03_0_cat_00_cat4-clock2.png
subject-03,1,795,1.19767189025879,bear,bear,0,0795_scg_s03_0_bear_00_bear3-car2.png
subject-03,1,796,1.00427508354187,bicycle,bicycle,0,0796_scg_s03_0_bicycle_00_bicycle1-dog3.png
subject-03,1,797,0.894335031509399,bottle,boat,0,0797_scg_s03_0_boat_00_boat7-boat2.png
subject-03,1,798,1.17707896232605,truck,truck,0,0798_scg_s03_0_truck_00_truck7-oven2.png
subject-03,1,799,1.46413111686707,bottle,bottle,0,0799_scg_s03_0_bottle_00_bottle1-car1.png
subject-03,1,800,0.769998788833618,truck,truck,0,0800_scg_s03_0_truck_00_truck4-boat3.png
subject-03,1,801,1.11372590065002,bicycle,bear,0,0801_scg_s03_0_bear_00_bear6-car2.png
subject-03,1,802,1.25806403160095,truck,truck,0,0802_scg_s03_0_truck_00_truck3-bicycle1.png
subject-03,1,803,0.609513998031616,clock,clock,0,0803_scg_s03_0_clock_00_clock8-chair2.png
subject-03,1,804,1.14339900016785,bird,cat,0,0804_scg_s03_0_cat_00_cat10-bicycle1.png
subject-03,1,805,0.740805864334106,oven,oven,0,0805_scg_s03_0_oven_00_oven3-truck1.png
subject-03,1,806,0.592936038970947,clock,clock,0,0806_scg_s03_0_clock_00_clock5-keyboard1.png
subject-03,1,807,1.1665198802948,dog,dog,0,0807_scg_s03_0_dog_00_dog5-car3.png
subject-03,1,808,1.20321393013,bird,bird,0,0808_scg_s03_0_bird_00_bird1-chair2.png
subject-03,1,809,0.679214954376221,clock,clock,0,0809_scg_s03_0_clock_00_clock10-airplane1.png
subject-03,1,810,0.760983943939209,truck,truck,0,0810_scg_s03_0_truck_00_truck6-knife2.png
subject-03,1,811,1.34985709190369,car,car,0,0811_scg_s03_0_car_00_car1-dog2.png
subject-03,1,812,0.703258037567139,bicycle,bicycle,0,0812_scg_s03_0_bicycle_00_bicycle4-clock3.png
subject-03,1,813,1.50024795532227,chair,chair,0,0813_scg_s03_0_chair_00_chair2-keyboard2.png
subject-03,1,814,1.35020208358765,bird,bird,0,0814_scg_s03_0_bird_00_bird7-bird2.png
subject-03,1,815,0.925405979156494,elephant,elephant,0,0815_scg_s03_0_elephant_00_elephant8-oven3.png
subject-03,1,816,1.04557299613953,bird,dog,0,0816_scg_s03_0_dog_00_dog5-oven1.png
subject-03,1,817,0.941121816635132,knife,knife,0,0817_scg_s03_0_knife_00_knife8-cat2.png
subject-03,1,818,1.1471848487854,dog,dog,0,0818_scg_s03_0_dog_00_dog5-elephant1.png
subject-03,1,819,1.11327505111694,truck,truck,0,0819_scg_s03_0_truck_00_truck3-oven2.png
subject-03,1,820,1.50019478797913,bird,cat,0,0820_scg_s03_0_cat_00_cat4-bird2.png
subject-03,1,821,1.14447712898254,dog,dog,0,0821_scg_s03_0_dog_00_dog10-clock1.png
subject-03,1,822,0.728587865829468,knife,knife,0,0822_scg_s03_0_knife_00_knife2-bird1.png
subject-03,1,823,1.03322100639343,dog,bear,0,0823_scg_s03_0_bear_00_bear3-dog3.png
subject-03,1,824,1.37832999229431,dog,elephant,0,0824_scg_s03_0_elephant_00_elephant2-elephant3.png
subject-03,1,825,0.86989688873291,clock,clock,0,0825_scg_s03_0_clock_00_clock4-airplane1.png
subject-03,1,826,1.01985502243042,knife,knife,0,0826_scg_s03_0_knife_00_knife9-bicycle1.png
subject-03,1,827,1.50021195411682,car,car,0,0827_scg_s03_0_car_00_car6-elephant3.png
subject-03,1,828,0.929776906967163,bottle,bottle,0,0828_scg_s03_0_bottle_00_bottle6-bear2.png
subject-03,1,829,1.07936596870422,bird,chair,0,0829_scg_s03_0_chair_00_chair7-cat1.png
subject-03,1,830,0.923581123352051,knife,keyboard,0,0830_scg_s03_0_keyboard_00_keyboard9-keyboard2.png
subject-03,1,831,0.845407962799072,cat,cat,0,0831_scg_s03_0_cat_00_cat6-oven1.png
subject-03,1,832,0.941242933273315,dog,dog,0,0832_scg_s03_0_dog_00_dog2-knife3.png
subject-03,1,833,0.802148103713989,chair,chair,0,0833_scg_s03_0_chair_00_chair9-bottle3.png
subject-03,1,834,1.50023889541626,car,car,0,0834_scg_s03_0_car_00_car4-cat3.png
subject-03,1,835,1.35833597183228,dog,bird,0,0835_scg_s03_0_bird_00_bird1-keyboard3.png
subject-03,1,836,0.870019912719727,clock,clock,0,0836_scg_s03_0_clock_00_clock7-car1.png
subject-03,1,837,0.989756107330322,truck,truck,0,0837_scg_s03_0_truck_00_truck10-clock1.png
subject-03,1,838,1.50016188621521,airplane,airplane,0,0838_scg_s03_0_airplane_00_airplane5-chair3.png
subject-03,1,839,0.927973031997681,clock,clock,0,0839_scg_s03_0_clock_00_clock7-dog2.png
subject-03,1,840,1.39337801933289,keyboard,keyboard,0,0840_scg_s03_0_keyboard_00_keyboard1-car3.png
subject-03,1,841,NaN,na,chair,0,0841_scg_s03_0_chair_00_chair5-keyboard2.png
subject-03,1,842,NaN,na,truck,0,0842_scg_s03_0_truck_00_truck9-truck3.png
subject-03,1,843,1.50018405914307,clock,airplane,0,0843_scg_s03_0_airplane_00_airplane8-clock2.png
subject-03,1,844,1.18902397155762,bird,bird,0,0844_scg_s03_0_bird_00_bird2-knife1.png
subject-03,1,845,0.840782880783081,cat,cat,0,0845_scg_s03_0_cat_00_cat3-bear2.png
subject-03,1,846,1.29107689857483,cat,cat,0,0846_scg_s03_0_cat_00_cat9-truck1.png
subject-03,1,847,1.13439989089966,dog,dog,0,0847_scg_s03_0_dog_00_dog1-boat3.png
subject-03,1,848,1.29260182380676,dog,dog,0,0848_scg_s03_0_dog_00_dog5-boat3.png
subject-03,1,849,1.16070103645325,cat,cat,0,0849_scg_s03_0_cat_00_cat1-dog1.png
subject-03,1,850,0.826294898986816,oven,oven,0,0850_scg_s03_0_oven_00_oven1-clock3.png
subject-03,1,851,1.0846848487854,elephant,elephant,0,0851_scg_s03_0_elephant_00_elephant8-clock2.png
subject-03,1,852,0.67637300491333,cat,cat,0,0852_scg_s03_0_cat_00_cat9-dog2.png
subject-03,1,853,0.996299028396606,bear,elephant,0,0853_scg_s03_0_elephant_00_elephant5-chair3.png
subject-03,1,854,1.13037896156311,bear,truck,0,0854_scg_s03_0_truck_00_truck10-elephant3.png
subject-03,1,855,1.0720579624176,knife,knife,0,0855_scg_s03_0_knife_00_knife1-oven1.png
subject-03,1,856,0.893115043640137,oven,oven,0,0856_scg_s03_0_oven_00_oven10-truck2.png
subject-03,1,857,0.750473022460938,boat,boat,0,0857_scg_s03_0_boat_00_boat5-bicycle3.png
subject-03,1,858,0.816513776779175,bird,bird,0,0858_scg_s03_0_bird_00_bird2-car3.png
subject-03,1,859,1.31998801231384,elephant,elephant,0,0859_scg_s03_0_elephant_00_elephant7-dog1.png
subject-03,1,860,1.50031590461731,clock,airplane,0,0860_scg_s03_0_airplane_00_airplane9-airplane2.png
subject-03,1,861,1.50009918212891,knife,boat,0,0861_scg_s03_0_boat_00_boat1-keyboard3.png
subject-03,1,862,0.919387102127075,oven,oven,0,0862_scg_s03_0_oven_00_oven8-cat3.png
subject-03,1,863,1.18474912643433,knife,airplane,0,0863_scg_s03_0_airplane_00_airplane2-bear1.png
subject-03,1,864,1.08807802200317,knife,airplane,0,0864_scg_s03_0_airplane_00_airplane4-bottle1.png
subject-03,1,865,1.03990697860718,knife,airplane,0,0865_scg_s03_0_airplane_00_airplane4-elephant1.png
subject-03,1,866,0.722010850906372,cat,cat,0,0866_scg_s03_0_cat_00_cat4-chair2.png
subject-03,1,867,1.19409203529358,car,truck,0,0867_scg_s03_0_truck_00_truck9-elephant1.png
subject-03,1,868,0.777611017227173,chair,chair,0,0868_scg_s03_0_chair_00_chair9-boat2.png
subject-03,1,869,1.36003684997559,car,car,0,0869_scg_s03_0_car_00_car5-bottle1.png
subject-03,1,870,0.628376007080078,oven,oven,0,0870_scg_s03_0_oven_00_oven2-bicycle1.png
subject-03,1,871,1.07017493247986,bird,cat,0,0871_scg_s03_0_cat_00_cat9-bird3.png
subject-03,1,872,NaN,na,elephant,0,0872_scg_s03_0_elephant_00_elephant7-airplane3.png
subject-03,1,873,0.663168907165527,boat,boat,0,0873_scg_s03_0_boat_00_boat9-clock1.png
subject-03,1,874,0.729351997375488,oven,bottle,0,0874_scg_s03_0_bottle_00_bottle7-oven2.png
subject-03,1,875,1.11101007461548,knife,knife,0,0875_scg_s03_0_knife_00_knife1-bird2.png
subject-03,1,876,0.684139966964722,cat,cat,0,0876_scg_s03_0_cat_00_cat5-bottle1.png
subject-03,1,877,0.706597089767456,oven,boat,0,0877_scg_s03_0_boat_00_boat7-cat3.png
subject-03,1,878,1.50005912780762,chair,chair,0,0878_scg_s03_0_chair_00_chair5-knife3.png
subject-03,1,879,1.14679384231567,bear,bear,0,0879_scg_s03_0_bear_00_bear8-bottle1.png
subject-03,1,880,1.05863189697266,knife,knife,0,0880_scg_s03_0_knife_00_knife8-truck3.png
subject-03,1,881,1.14164400100708,bicycle,bicycle,0,0881_scg_s03_0_bicycle_00_bicycle5-bottle3.png
subject-03,1,882,0.817180871963501,knife,truck,0,0882_scg_s03_0_truck_00_truck3-keyboard3.png
subject-03,1,883,0.891154050827026,cat,chair,0,0883_scg_s03_0_chair_00_chair5-clock2.png
subject-03,1,884,1.0119321346283,chair,chair,0,0884_scg_s03_0_chair_00_chair10-dog1.png
subject-03,1,885,0.585925102233887,cat,cat,0,0885_scg_s03_0_cat_00_cat4-oven1.png
subject-03,1,886,0.660137891769409,car,car,0,0886_scg_s03_0_car_00_car7-bird3.png
subject-03,1,887,1.50004100799561,bird,bird,0,0887_scg_s03_0_bird_00_bird5-truck2.png
subject-03,1,888,1.50002789497375,knife,knife,0,0888_scg_s03_0_knife_00_knife9-bird1.png
subject-03,1,889,0.568169116973877,bird,bird,0,0889_scg_s03_0_bird_00_bird10-chair1.png
subject-03,1,890,1.00410294532776,chair,chair,0,0890_scg_s03_0_chair_00_chair10-cat1.png
subject-03,1,891,0.940674066543579,knife,airplane,0,0891_scg_s03_0_airplane_00_airplane10-cat2.png
subject-03,1,892,0.822237014770508,bottle,bottle,0,0892_scg_s03_0_bottle_00_bottle3-chair3.png
subject-03,1,893,1.24835300445557,cat,bear,0,0893_scg_s03_0_bear_00_bear6-bottle3.png
subject-03,1,894,1.43910193443298,dog,dog,0,0894_scg_s03_0_dog_00_dog9-chair2.png
subject-03,1,895,0.991229057312012,elephant,elephant,0,0895_scg_s03_0_elephant_00_elephant8-bicycle3.png
subject-03,1,896,0.956824064254761,bear,car,0,0896_scg_s03_0_car_00_car4-boat1.png
subject-03,1,897,1.36897206306458,knife,knife,0,0897_scg_s03_0_knife_00_knife6-bird1.png
subject-03,1,898,0.729530096054077,chair,chair,0,0898_scg_s03_0_chair_00_chair1-cat3.png
subject-03,1,899,0.616420984268188,car,car,0,0899_scg_s03_0_car_00_car7-bear1.png
subject-03,1,900,1.26068997383118,airplane,airplane,0,0900_scg_s03_0_airplane_00_airplane6-keyboard3.png
subject-03,1,901,1.42463517189026,elephant,elephant,0,0901_scg_s03_0_elephant_00_elephant7-cat1.png
subject-03,1,902,0.805606842041016,airplane,boat,0,0902_scg_s03_0_boat_00_boat6-bottle2.png
subject-03,1,903,0.773829936981201,elephant,elephant,0,0903_scg_s03_0_elephant_00_elephant3-chair1.png
subject-03,1,904,0.550943851470947,clock,clock,0,0904_scg_s03_0_clock_00_clock2-bottle3.png
subject-03,1,905,1.4913809299469,knife,boat,0,0905_scg_s03_0_boat_00_boat8-bottle1.png
subject-03,1,906,1.34322190284729,airplane,keyboard,0,0906_scg_s03_0_keyboard_00_keyboard8-truck3.png
subject-03,1,907,0.895492076873779,airplane,truck,0,0907_scg_s03_0_truck_00_truck7-keyboard3.png
subject-03,1,908,0.899255037307739,knife,knife,0,0908_scg_s03_0_knife_00_knife2-car3.png
subject-03,1,909,0.697787046432495,bird,bird,0,0909_scg_s03_0_bird_00_bird7-cat3.png
subject-03,1,910,1.10973906517029,car,car,0,0910_scg_s03_0_car_00_car8-dog1.png
subject-03,1,911,0.961266994476318,bird,bird,0,0911_scg_s03_0_bird_00_bird9-bear3.png
subject-03,1,912,0.949313879013062,elephant,elephant,0,0912_scg_s03_0_elephant_00_elephant6-bottle2.png
subject-03,1,913,0.998538017272949,oven,bicycle,0,0913_scg_s03_0_bicycle_00_bicycle6-airplane2.png
subject-03,1,914,0.594645977020264,car,car,0,0914_scg_s03_0_car_00_car5-bear3.png
subject-03,1,915,0.960849046707153,bottle,bottle,0,0915_scg_s03_0_bottle_00_bottle2-bottle3.png
subject-03,1,916,1.01067209243774,chair,chair,0,0916_scg_s03_0_chair_00_chair8-knife2.png
subject-03,1,917,0.77962589263916,bottle,bottle,0,0917_scg_s03_0_bottle_00_bottle7-airplane3.png
subject-03,1,918,1.35131001472473,oven,oven,0,0918_scg_s03_0_oven_00_oven2-oven3.png
subject-03,1,919,0.940696954727173,car,truck,0,0919_scg_s03_0_truck_00_truck6-clock2.png
subject-03,1,920,0.615561008453369,cat,cat,0,0920_scg_s03_0_cat_00_cat9-chair2.png
subject-03,1,921,1.11353588104248,knife,keyboard,0,0921_scg_s03_0_keyboard_00_keyboard3-bicycle2.png
subject-03,1,922,0.612472057342529,oven,oven,0,0922_scg_s03_0_oven_00_oven6-knife3.png
subject-03,1,923,0.502456903457642,clock,clock,0,0923_scg_s03_0_clock_00_clock9-cat1.png
subject-03,1,924,0.92298698425293,dog,dog,0,0924_scg_s03_0_dog_00_dog7-keyboard3.png
subject-03,1,925,1.30298089981079,truck,truck,0,0925_scg_s03_0_truck_00_truck3-clock3.png
subject-03,1,926,0.633450031280518,chair,chair,0,0926_scg_s03_0_chair_00_chair8-elephant1.png
subject-03,1,927,1.03695487976074,bird,bird,0,0927_scg_s03_0_bird_00_bird9-chair1.png
subject-03,1,928,1.08661007881165,chair,chair,0,0928_scg_s03_0_chair_00_chair3-bicycle3.png
subject-03,1,929,0.984318971633911,clock,bird,0,0929_scg_s03_0_bird_00_bird5-bicycle1.png
subject-03,1,930,0.819472074508667,oven,oven,0,0930_scg_s03_0_oven_00_oven5-bicycle1.png
subject-03,1,931,1.45312213897705,clock,bear,0,0931_scg_s03_0_bear_00_bear1-bear3.png
subject-03,1,932,1.04060888290405,keyboard,keyboard,0,0932_scg_s03_0_keyboard_00_keyboard8-cat3.png
subject-03,1,933,0.984490156173706,truck,truck,0,0933_scg_s03_0_truck_00_truck3-bird2.png
subject-03,1,934,0.674455881118774,bird,bird,0,0934_scg_s03_0_bird_00_bird10-bear2.png
subject-03,1,935,1.32941794395447,keyboard,keyboard,0,0935_scg_s03_0_keyboard_00_keyboard4-oven2.png
subject-03,1,936,1.41987586021423,dog,dog,0,0936_scg_s03_0_dog_00_dog7-chair2.png
subject-03,1,937,1.5001368522644,car,car,0,0937_scg_s03_0_car_00_car8-cat1.png
subject-03,1,938,0.645536184310913,clock,clock,0,0938_scg_s03_0_clock_00_clock8-truck2.png
subject-03,1,939,0.966282844543457,bird,airplane,0,0939_scg_s03_0_airplane_00_airplane10-airplane1.png
subject-03,1,940,0.609354019165039,oven,oven,0,0940_scg_s03_0_oven_00_oven9-keyboard1.png
subject-03,1,941,0.833853006362915,bicycle,bicycle,0,0941_scg_s03_0_bicycle_00_bicycle3-keyboard1.png
subject-03,1,942,1.17560601234436,bicycle,bicycle,0,0942_scg_s03_0_bicycle_00_bicycle1-bird1.png
subject-03,1,943,1.4414050579071,cat,cat,0,0943_scg_s03_0_cat_00_cat2-bottle3.png
subject-03,1,944,1.09279489517212,car,car,0,0944_scg_s03_0_car_00_car2-chair1.png
subject-03,1,945,0.766170024871826,bottle,bottle,0,0945_scg_s03_0_bottle_00_bottle3-bicycle3.png
subject-03,1,946,0.61748194694519,chair,chair,0,0946_scg_s03_0_chair_00_chair2-knife1.png
subject-03,1,947,1.09805297851562,clock,clock,0,0947_scg_s03_0_clock_00_clock8-oven3.png
subject-03,1,948,0.711801052093506,bicycle,bicycle,0,0948_scg_s03_0_bicycle_00_bicycle8-boat1.png
subject-03,1,949,0.469120979309082,keyboard,keyboard,0,0949_scg_s03_0_keyboard_00_keyboard7-boat2.png
subject-03,1,950,1.15761208534241,chair,chair,0,0950_scg_s03_0_chair_00_chair6-truck2.png
subject-03,1,951,0.839323043823242,bottle,bottle,0,0951_scg_s03_0_bottle_00_bottle5-keyboard2.png
subject-03,1,952,0.967676877975464,clock,clock,0,0952_scg_s03_0_clock_00_clock9-airplane1.png
subject-03,1,953,1.47395610809326,dog,truck,0,0953_scg_s03_0_truck_00_truck7-elephant2.png
subject-03,1,954,0.8697350025177,knife,knife,0,0954_scg_s03_0_knife_00_knife5-dog1.png
subject-03,1,955,0.900253057479858,chair,chair,0,0955_scg_s03_0_chair_00_chair8-clock3.png
subject-03,1,956,1.01169204711914,knife,boat,0,0956_scg_s03_0_boat_00_boat6-airplane2.png
subject-03,1,957,0.694273948669434,bicycle,bicycle,0,0957_scg_s03_0_bicycle_00_bicycle4-chair2.png
subject-03,1,958,1.05958199501038,bicycle,cat,0,0958_scg_s03_0_cat_00_cat4-keyboard2.png
subject-03,1,959,1.4468789100647,chair,chair,0,0959_scg_s03_0_chair_00_chair9-chair3.png
subject-03,1,960,1.35023903846741,dog,dog,0,0960_scg_s03_0_dog_00_dog4-chair1.png
subject-03,1,961,0.978327035903931,bicycle,bicycle,0,0961_scg_s03_0_bicycle_00_bicycle6-cat1.png
subject-03,1,962,0.846566915512085,bird,dog,0,0962_scg_s03_0_dog_00_dog3-boat1.png
subject-03,1,963,0.720253944396973,cat,cat,0,0963_scg_s03_0_cat_00_cat7-elephant1.png
subject-03,1,964,1.13045597076416,oven,keyboard,0,0964_scg_s03_0_keyboard_00_keyboard7-truck2.png
subject-03,1,965,0.814346790313721,knife,knife,0,0965_scg_s03_0_knife_00_knife9-boat1.png
subject-03,1,966,0.847203969955444,elephant,elephant,0,0966_scg_s03_0_elephant_00_elephant5-truck1.png
subject-03,1,967,0.661617994308472,keyboard,keyboard,0,0967_scg_s03_0_keyboard_00_keyboard4-bird1.png
subject-03,1,968,0.957717895507812,airplane,airplane,0,0968_scg_s03_0_airplane_00_airplane9-clock1.png
subject-03,1,969,1.02580189704895,clock,clock,0,0969_scg_s03_0_clock_00_clock10-bird3.png
subject-03,1,970,0.670452117919922,clock,clock,0,0970_scg_s03_0_clock_00_clock5-chair3.png
subject-03,1,971,0.966612100601196,cat,boat,0,0971_scg_s03_0_boat_00_boat9-bear3.png
subject-03,1,972,1.01817107200623,chair,chair,0,0972_scg_s03_0_chair_00_chair10-bicycle1.png
subject-03,1,973,0.975733995437622,bear,bear,0,0973_scg_s03_0_bear_00_bear5-airplane3.png
subject-03,1,974,1.10105609893799,clock,clock,0,0974_scg_s03_0_clock_00_clock7-bicycle1.png
subject-03,1,975,0.760785102844238,elephant,elephant,0,0975_scg_s03_0_elephant_00_elephant4-clock3.png
subject-03,1,976,1.31846904754639,bird,bird,0,0976_scg_s03_0_bird_00_bird8-bottle1.png
subject-03,1,977,0.846313953399658,cat,cat,0,0977_scg_s03_0_cat_00_cat9-bicycle1.png
subject-03,1,978,1.21955895423889,boat,dog,0,0978_scg_s03_0_dog_00_dog7-car2.png
subject-03,1,979,1.21597599983215,truck,truck,0,0979_scg_s03_0_truck_00_truck1-knife1.png
subject-03,1,980,0.921310186386108,airplane,airplane,0,0980_scg_s03_0_airplane_00_airplane5-boat3.png
subject-03,1,981,1.03302907943726,elephant,elephant,0,0981_scg_s03_0_elephant_00_elephant8-boat2.png
subject-03,1,982,0.585247993469238,oven,oven,0,0982_scg_s03_0_oven_00_oven9-bird3.png
subject-03,1,983,0.705816030502319,truck,truck,0,0983_scg_s03_0_truck_00_truck8-cat2.png
subject-03,1,984,0.565956115722656,oven,oven,0,0984_scg_s03_0_oven_00_oven5-elephant1.png
subject-03,1,985,0.924474954605103,car,car,0,0985_scg_s03_0_car_00_car10-elephant2.png
subject-03,1,986,0.844889163970947,cat,knife,0,0986_scg_s03_0_knife_00_knife9-chair1.png
subject-03,1,987,1.10286712646484,knife,knife,0,0987_scg_s03_0_knife_00_knife5-knife3.png
subject-03,1,988,1.01763296127319,knife,knife,0,0988_scg_s03_0_knife_00_knife3-clock2.png
subject-03,1,989,0.591279983520508,car,car,0,0989_scg_s03_0_car_00_car5-cat1.png
subject-03,1,990,0.64924693107605,bear,bear,0,0990_scg_s03_0_bear_00_bear2-cat2.png
subject-03,1,991,0.884995937347412,bicycle,bicycle,0,0991_scg_s03_0_bicycle_00_bicycle5-cat1.png
subject-03,1,992,0.728919982910156,bicycle,bicycle,0,0992_scg_s03_0_bicycle_00_bicycle10-airplane2.png
subject-03,1,993,0.979439973831177,bear,bear,0,0993_scg_s03_0_bear_00_bear8-truck3.png
subject-03,1,994,0.915402889251709,bottle,bottle,0,0994_scg_s03_0_bottle_00_bottle6-dog3.png
subject-03,1,995,1.18126797676086,bear,bear,0,0995_scg_s03_0_bear_00_bear4-clock3.png
subject-03,1,996,1.04153490066528,car,car,0,0996_scg_s03_0_car_00_car8-knife2.png
subject-03,1,997,0.853188037872314,car,car,0,0997_scg_s03_0_car_00_car5-keyboard3.png
subject-03,1,998,1.23440408706665,oven,oven,0,0998_scg_s03_0_oven_00_oven6-truck1.png
subject-03,1,999,0.64089298248291,clock,clock,0,0999_scg_s03_0_clock_00_clock3-elephant3.png
subject-03,1,1000,1.0533139705658,elephant,elephant,0,1000_scg_s03_0_elephant_00_elephant3-cat2.png
subject-03,1,1001,NaN,na,boat,0,1001_scg_s03_0_boat_00_boat9-keyboard2.png
subject-03,1,1002,0.754815816879272,bottle,bottle,0,1002_scg_s03_0_bottle_00_bottle6-chair2.png
subject-03,1,1003,0.699037790298462,bottle,bottle,0,1003_scg_s03_0_bottle_00_bottle3-bear2.png
subject-03,1,1004,0.756503105163574,car,truck,0,1004_scg_s03_0_truck_00_truck6-bear2.png
subject-03,1,1005,0.583884954452515,car,car,0,1005_scg_s03_0_car_00_car9-bicycle2.png
subject-03,1,1006,0.912665128707886,airplane,airplane,0,1006_scg_s03_0_airplane_00_airplane5-dog3.png
subject-03,1,1007,1.0792441368103,cat,cat,0,1007_scg_s03_0_cat_00_cat4-car2.png
subject-03,1,1008,0.932037115097046,car,car,0,1008_scg_s03_0_car_00_car10-chair1.png
subject-03,1,1009,0.827148914337158,bottle,bottle,0,1009_scg_s03_0_bottle_00_bottle3-bottle3.png
subject-03,1,1010,1.32335019111633,elephant,elephant,0,1010_scg_s03_0_elephant_00_elephant6-oven1.png
subject-03,1,1011,1.32951688766479,knife,airplane,0,1011_scg_s03_0_airplane_00_airplane8-truck3.png
subject-03,1,1012,1.18138909339905,bottle,bottle,0,1012_scg_s03_0_bottle_00_bottle5-airplane1.png
subject-03,1,1013,0.776097059249878,clock,clock,0,1013_scg_s03_0_clock_00_clock4-boat3.png
subject-03,1,1014,0.688403129577637,cat,cat,0,1014_scg_s03_0_cat_00_cat7-airplane2.png
subject-03,1,1015,0.572606086730957,keyboard,keyboard,0,1015_scg_s03_0_keyboard_00_keyboard9-airplane3.png
subject-03,1,1016,1.18471121788025,chair,chair,0,1016_scg_s03_0_chair_00_chair7-bottle1.png
subject-03,1,1017,0.997280120849609,keyboard,keyboard,0,1017_scg_s03_0_keyboard_00_keyboard6-knife2.png
subject-03,1,1018,0.640135049819946,keyboard,keyboard,0,1018_scg_s03_0_keyboard_00_keyboard1-chair2.png
subject-03,1,1019,0.798565149307251,elephant,elephant,0,1019_scg_s03_0_elephant_00_elephant9-elephant3.png
subject-03,1,1020,0.672587871551514,cat,bear,0,1020_scg_s03_0_bear_00_bear3-cat1.png
subject-03,1,1021,1.03870296478271,cat,cat,0,1021_scg_s03_0_cat_00_cat10-airplane3.png
subject-03,1,1022,0.614320993423462,oven,oven,0,1022_scg_s03_0_oven_00_oven6-airplane3.png
subject-03,1,1023,0.794106006622314,airplane,boat,0,1023_scg_s03_0_boat_00_boat6-dog1.png
subject-03,1,1024,1.41407799720764,bear,bear,0,1024_scg_s03_0_bear_00_bear3-bicycle2.png
subject-03,1,1025,0.964223146438599,bear,bear,0,1025_scg_s03_0_bear_00_bear3-truck3.png
subject-03,1,1026,1.29043984413147,dog,dog,0,1026_scg_s03_0_dog_00_dog4-cat3.png
subject-03,1,1027,0.928680181503296,chair,chair,0,1027_scg_s03_0_chair_00_chair1-bear1.png
subject-03,1,1028,0.616296052932739,cat,cat,0,1028_scg_s03_0_cat_00_cat5-airplane2.png
subject-03,1,1029,1.02064895629883,knife,keyboard,0,1029_scg_s03_0_keyboard_00_keyboard10-oven3.png
subject-03,1,1030,0.856306076049805,airplane,boat,0,1030_scg_s03_0_boat_00_boat10-truck1.png
subject-03,1,1031,1.13076400756836,truck,truck,0,1031_scg_s03_0_truck_00_truck1-dog1.png
subject-03,1,1032,0.866606950759888,bird,bird,0,1032_scg_s03_0_bird_00_bird5-airplane3.png
subject-03,1,1033,0.963835954666138,knife,knife,0,1033_scg_s03_0_knife_00_knife5-oven2.png
subject-03,1,1034,0.753988027572632,clock,clock,0,1034_scg_s03_0_clock_00_clock6-knife2.png
subject-03,1,1035,0.652818918228149,knife,airplane,0,1035_scg_s03_0_airplane_00_airplane8-elephant3.png
subject-03,1,1036,1.24628400802612,knife,boat,0,1036_scg_s03_0_boat_00_boat4-bird1.png
subject-03,1,1037,1.29061985015869,cat,elephant,0,1037_scg_s03_0_elephant_00_elephant6-bicycle1.png
subject-03,1,1038,1.3101499080658,truck,truck,0,1038_scg_s03_0_truck_00_truck5-bird2.png
subject-03,1,1039,0.799535989761353,bottle,bottle,0,1039_scg_s03_0_bottle_00_bottle9-truck1.png
subject-03,1,1040,1.01184916496277,dog,dog,0,1040_scg_s03_0_dog_00_dog6-bird1.png
subject-03,1,1041,0.855842113494873,cat,bird,0,1041_scg_s03_0_bird_00_bird7-knife2.png
subject-03,1,1042,1.50010704994202,car,car,0,1042_scg_s03_0_car_00_car1-clock2.png
subject-03,1,1043,1.50012016296387,dog,airplane,0,1043_scg_s03_0_airplane_00_airplane7-cat3.png
subject-03,1,1044,0.691690921783447,airplane,boat,0,1044_scg_s03_0_boat_00_boat6-car1.png
subject-03,1,1045,0.728923082351685,clock,clock,0,1045_scg_s03_0_clock_00_clock3-dog2.png
subject-03,1,1046,0.90207314491272,knife,boat,0,1046_scg_s03_0_boat_00_boat4-boat3.png
subject-03,1,1047,0.967500925064087,bird,car,0,1047_scg_s03_0_car_00_car4-car2.png
subject-03,1,1048,0.97971510887146,bicycle,bicycle,0,1048_scg_s03_0_bicycle_00_bicycle4-airplane1.png
subject-03,1,1049,1.06943202018738,bear,elephant,0,1049_scg_s03_0_elephant_00_elephant2-bear3.png
subject-03,1,1050,0.757199048995972,chair,chair,0,1050_scg_s03_0_chair_00_chair9-bird3.png
subject-03,1,1051,0.608901977539062,clock,clock,0,1051_scg_s03_0_clock_00_clock7-boat3.png
subject-03,1,1052,1.13744902610779,bear,bear,0,1052_scg_s03_0_bear_00_bear7-bear2.png
subject-03,1,1053,0.895605087280273,bicycle,bicycle,0,1053_scg_s03_0_bicycle_00_bicycle3-elephant2.png
subject-03,1,1054,0.901721000671387,keyboard,keyboard,0,1054_scg_s03_0_keyboard_00_keyboard5-bear3.png
subject-03,1,1055,0.745325803756714,airplane,bear,0,1055_scg_s03_0_bear_00_bear6-boat3.png
subject-03,1,1056,0.936904907226562,bicycle,bicycle,0,1056_scg_s03_0_bicycle_00_bicycle5-elephant1.png
subject-03,1,1057,1.37897801399231,car,car,0,1057_scg_s03_0_car_00_car8-clock2.png
subject-03,1,1058,1.08420705795288,keyboard,keyboard,0,1058_scg_s03_0_keyboard_00_keyboard5-oven2.png
subject-03,1,1059,1.34378695487976,bottle,bottle,0,1059_scg_s03_0_bottle_00_bottle3-cat3.png
subject-03,1,1060,0.949275970458984,oven,oven,0,1060_scg_s03_0_oven_00_oven6-chair3.png
subject-03,1,1061,1.23143792152405,cat,cat,0,1061_scg_s03_0_cat_00_cat6-clock3.png
subject-03,1,1062,0.988700866699219,airplane,chair,0,1062_scg_s03_0_chair_00_chair8-keyboard3.png
subject-03,1,1063,1.33022904396057,cat,car,0,1063_scg_s03_0_car_00_car7-oven2.png
subject-03,1,1064,1.38786196708679,elephant,elephant,0,1064_scg_s03_0_elephant_00_elephant6-car3.png
subject-03,1,1065,1.42406606674194,bird,bird,0,1065_scg_s03_0_bird_00_bird9-dog2.png
subject-03,1,1066,0.907867908477783,oven,oven,0,1066_scg_s03_0_oven_00_oven9-boat2.png
subject-03,1,1067,1.16337394714355,dog,dog,0,1067_scg_s03_0_dog_00_dog3-keyboard1.png
subject-03,1,1068,0.945917129516602,keyboard,keyboard,0,1068_scg_s03_0_keyboard_00_keyboard2-clock1.png
subject-03,1,1069,NaN,na,bear,0,1069_scg_s03_0_bear_00_bear4-keyboard3.png
subject-03,1,1070,0.52632999420166,oven,oven,0,1070_scg_s03_0_oven_00_oven3-car2.png
subject-03,1,1071,0.494652986526489,boat,boat,0,1071_scg_s03_0_boat_00_boat9-knife2.png
subject-03,1,1072,0.769418001174927,bottle,bottle,0,1072_scg_s03_0_bottle_00_bottle4-bicycle1.png
subject-03,1,1073,0.718703985214233,clock,clock,0,1073_scg_s03_0_clock_00_clock6-bicycle1.png
subject-03,1,1074,1.07699799537659,truck,truck,0,1074_scg_s03_0_truck_00_truck3-car3.png
subject-03,1,1075,1.05809211730957,bicycle,bicycle,0,1075_scg_s03_0_bicycle_00_bicycle6-bicycle3.png
subject-03,1,1076,1.38587403297424,truck,truck,0,1076_scg_s03_0_truck_00_truck6-dog2.png
subject-03,1,1077,1.50030493736267,knife,knife,0,1077_scg_s03_0_knife_00_knife3-cat1.png
subject-03,1,1078,1.50013303756714,cat,cat,0,1078_scg_s03_0_cat_00_cat4-dog3.png
subject-03,1,1079,1.4154589176178,chair,chair,0,1079_scg_s03_0_chair_00_chair5-boat3.png
subject-03,1,1080,1.48992300033569,car,truck,0,1080_scg_s03_0_truck_00_truck2-airplane3.png
subject-03,1,1081,0.88726019859314,clock,clock,0,1081_scg_s03_0_clock_00_clock1-boat3.png
subject-03,1,1082,1.10026097297668,knife,knife,0,1082_scg_s03_0_knife_00_knife2-cat3.png
subject-03,1,1083,0.830981016159058,bird,bird,0,1083_scg_s03_0_bird_00_bird9-elephant2.png
subject-03,1,1084,1.5002110004425,cat,elephant,0,1084_scg_s03_0_elephant_00_elephant5-bicycle3.png
subject-03,1,1085,0.87935996055603,bottle,bottle,0,1085_scg_s03_0_bottle_00_bottle4-dog2.png
subject-03,1,1086,0.845768928527832,cat,cat,0,1086_scg_s03_0_cat_00_cat9-cat3.png
subject-03,1,1087,1.29952216148376,clock,clock,0,1087_scg_s03_0_clock_00_clock6-oven1.png
subject-03,1,1088,0.659288167953491,keyboard,keyboard,0,1088_scg_s03_0_keyboard_00_keyboard5-airplane3.png
subject-03,1,1089,1.42520022392273,clock,clock,0,1089_scg_s03_0_clock_00_clock4-chair1.png
subject-03,1,1090,1.02280592918396,elephant,elephant,0,1090_scg_s03_0_elephant_00_elephant8-elephant1.png
subject-03,1,1091,0.796191930770874,clock,clock,0,1091_scg_s03_0_clock_00_clock10-boat2.png
subject-03,1,1092,1.04084706306458,car,car,0,1092_scg_s03_0_car_00_car2-car3.png
subject-03,1,1093,0.890678882598877,airplane,cat,0,1093_scg_s03_0_cat_00_cat10-oven2.png
subject-03,1,1094,0.791156053543091,bear,bear,0,1094_scg_s03_0_bear_00_bear8-knife3.png
subject-03,1,1095,0.716476917266846,oven,oven,0,1095_scg_s03_0_oven_00_oven4-dog1.png
subject-03,1,1096,0.839216947555542,chair,chair,0,1096_scg_s03_0_chair_00_chair1-dog1.png
subject-03,1,1097,NaN,na,elephant,0,1097_scg_s03_0_elephant_00_elephant3-knife1.png
subject-03,1,1098,0.618729114532471,bottle,bottle,0,1098_scg_s03_0_bottle_00_bottle3-boat3.png
subject-03,1,1099,0.546589851379395,clock,clock,0,1099_scg_s03_0_clock_00_clock3-car2.png
subject-03,1,1100,1.09607887268066,cat,cat,0,1100_scg_s03_0_cat_00_cat1-keyboard3.png
subject-03,1,1101,0.845771074295044,airplane,keyboard,0,1101_scg_s03_0_keyboard_00_keyboard4-keyboard2.png
