subj,session,trial,rt,object_response,category,condition,imagename
subject-10,1,1,0.894443035125732,clock,clock,0,0001_scg_s10_0_clock_00_clock2-knife1.png
subject-10,1,2,0.884405851364136,chair,chair,0,0002_scg_s10_0_chair_00_chair5-boat3.png
subject-10,1,3,0.828325986862183,airplane,airplane,0,0003_scg_s10_0_airplane_00_airplane3-car1.png
subject-10,1,4,0.726300001144409,bottle,bottle,0,0004_scg_s10_0_bottle_00_bottle3-knife3.png
subject-10,1,5,0.908046960830688,cat,cat,0,0005_scg_s10_0_cat_00_cat7-truck2.png
subject-10,1,6,1.44410300254822,bird,knife,0,0006_scg_s10_0_knife_00_knife6-knife1.png
subject-10,1,7,0.827505826950073,keyboard,keyboard,0,0007_scg_s10_0_keyboard_00_keyboard3-clock3.png
subject-10,1,8,0.9011070728302,truck,truck,0,0008_scg_s10_0_truck_00_truck3-chair2.png
subject-10,1,9,0.661184072494507,oven,oven,0,0009_scg_s10_0_oven_00_oven1-boat3.png
subject-10,1,10,1.01961708068848,bird,bird,0,0010_scg_s10_0_bird_00_bird10-chair1.png
subject-10,1,11,0.849518060684204,bird,bird,0,0011_scg_s10_0_bird_00_bird5-airplane3.png
subject-10,1,12,1.06462812423706,boat,boat,0,0012_scg_s10_0_boat_00_boat10-oven1.png
subject-10,1,13,0.570509910583496,car,car,0,0013_scg_s10_0_car_00_car3-bottle3.png
subject-10,1,14,0.922256946563721,car,car,0,0014_scg_s10_0_car_00_car8-dog1.png
subject-10,1,15,0.734430074691772,chair,chair,0,0015_scg_s10_0_chair_00_chair5-bicycle1.png
subject-10,1,16,0.761286020278931,bear,bear,0,0016_scg_s10_0_bear_00_bear5-chair1.png
subject-10,1,17,0.637562990188599,clock,clock,0,0017_scg_s10_0_clock_00_clock4-car2.png
subject-10,1,18,0.889396905899048,cat,cat,0,0018_scg_s10_0_cat_00_cat4-dog3.png
subject-10,1,19,1.49232721328735,bear,knife,0,0019_scg_s10_0_knife_00_knife4-keyboard1.png
subject-10,1,20,0.736420869827271,chair,chair,0,0020_scg_s10_0_chair_00_chair1-elephant1.png
subject-10,1,21,0.764462232589722,keyboard,keyboard,0,0021_scg_s10_0_keyboard_00_keyboard1-car3.png
subject-10,1,22,1.10836911201477,cat,cat,0,0022_scg_s10_0_cat_00_cat3-oven2.png
subject-10,1,23,1.01411294937134,car,car,0,0023_scg_s10_0_car_00_car5-bottle1.png
subject-10,1,24,1.11164402961731,bicycle,bicycle,0,0024_scg_s10_0_bicycle_00_bicycle3-truck3.png
subject-10,1,25,0.901768207550049,keyboard,keyboard,0,0025_scg_s10_0_keyboard_00_keyboard1-airplane2.png
subject-10,1,26,0.829694986343384,clock,clock,0,0026_scg_s10_0_clock_00_clock7-truck3.png
subject-10,1,27,0.83686089515686,dog,dog,0,0027_scg_s10_0_dog_00_dog5-elephant1.png
subject-10,1,28,0.796705961227417,chair,chair,0,0028_scg_s10_0_chair_00_chair9-bottle3.png
subject-10,1,29,1.27055191993713,dog,cat,0,0029_scg_s10_0_cat_00_cat7-bottle1.png
subject-10,1,30,NaN,na,knife,0,0030_scg_s10_0_knife_00_knife1-dog1.png
subject-10,1,31,1.10881400108337,dog,dog,0,0031_scg_s10_0_dog_00_dog6-bicycle1.png
subject-10,1,32,0.425372123718262,clock,clock,0,0032_scg_s10_0_clock_00_clock2-elephant2.png
subject-10,1,33,0.820991039276123,knife,knife,0,0033_scg_s10_0_knife_00_knife1-bird2.png
subject-10,1,34,0.81848406791687,bottle,bottle,0,0034_scg_s10_0_bottle_00_bottle3-airplane2.png
subject-10,1,35,0.799988031387329,bear,bear,0,0035_scg_s10_0_bear_00_bear8-bear1.png
subject-10,1,36,0.775876045227051,truck,truck,0,0036_scg_s10_0_truck_00_truck2-elephant1.png
subject-10,1,37,0.987733125686646,dog,dog,0,0037_scg_s10_0_dog_00_dog10-clock1.png
subject-10,1,38,0.678442001342773,oven,oven,0,0038_scg_s10_0_oven_00_oven1-dog3.png
subject-10,1,39,0.746392965316772,keyboard,keyboard,0,0039_scg_s10_0_keyboard_00_keyboard9-bird1.png
subject-10,1,40,1.01927495002747,cat,cat,0,0040_scg_s10_0_cat_00_cat5-knife2.png
subject-10,1,41,0.656060934066772,clock,clock,0,0041_scg_s10_0_clock_00_clock5-chair3.png
subject-10,1,42,1.04501295089722,bird,bird,0,0042_scg_s10_0_bird_00_bird5-chair1.png
subject-10,1,43,1.50003099441528,keyboard,airplane,0,0043_scg_s10_0_airplane_00_airplane2-cat1.png
subject-10,1,44,0.724524021148682,oven,oven,0,0044_scg_s10_0_oven_00_oven10-oven3.png
subject-10,1,45,0.923604011535645,truck,truck,0,0045_scg_s10_0_truck_00_truck8-cat2.png
subject-10,1,46,0.682790994644165,chair,chair,0,0046_scg_s10_0_chair_00_chair5-car1.png
subject-10,1,47,1.01050591468811,knife,knife,0,0047_scg_s10_0_knife_00_knife9-chair1.png
subject-10,1,48,1.01462507247925,elephant,elephant,0,0048_scg_s10_0_elephant_00_elephant9-elephant3.png
subject-10,1,49,1.2420289516449,car,car,0,0049_scg_s10_0_car_00_car8-knife2.png
subject-10,1,50,0.526628017425537,oven,oven,0,0050_scg_s10_0_oven_00_oven4-car1.png
subject-10,1,51,0.74890398979187,clock,clock,0,0051_scg_s10_0_clock_00_clock5-bicycle1.png
subject-10,1,52,0.94419002532959,keyboard,boat,0,0052_scg_s10_0_boat_00_boat3-keyboard2.png
subject-10,1,53,0.904045820236206,dog,dog,0,0053_scg_s10_0_dog_00_dog1-boat3.png
subject-10,1,54,0.777642011642456,bottle,bottle,0,0054_scg_s10_0_bottle_00_bottle10-bear2.png
subject-10,1,55,1.48181796073914,bird,airplane,0,0055_scg_s10_0_airplane_00_airplane6-chair3.png
subject-10,1,56,0.856863021850586,bicycle,bicycle,0,0056_scg_s10_0_bicycle_00_bicycle9-cat3.png
subject-10,1,57,0.839275121688843,knife,knife,0,0057_scg_s10_0_knife_00_knife4-car2.png
subject-10,1,58,0.82028603553772,keyboard,keyboard,0,0058_scg_s10_0_keyboard_00_keyboard6-boat2.png
subject-10,1,59,0.956393957138062,cat,cat,0,0059_scg_s10_0_cat_00_cat3-truck3.png
subject-10,1,60,0.77711820602417,knife,knife,0,0060_scg_s10_0_knife_00_knife7-airplane3.png
subject-10,1,61,0.92228889465332,elephant,bear,0,0061_scg_s10_0_bear_00_bear3-bicycle2.png
subject-10,1,62,1.04717683792114,oven,oven,0,0062_scg_s10_0_oven_00_oven9-car2.png
subject-10,1,63,1.37475299835205,bear,boat,0,0063_scg_s10_0_boat_00_boat7-truck2.png
subject-10,1,64,0.575272083282471,bottle,bottle,0,0064_scg_s10_0_bottle_00_bottle1-bird3.png
subject-10,1,65,1.03367805480957,elephant,elephant,0,0065_scg_s10_0_elephant_00_elephant7-clock2.png
subject-10,1,66,1.00183796882629,elephant,elephant,0,0066_scg_s10_0_elephant_00_elephant10-elephant1.png
subject-10,1,67,0.569374799728394,oven,oven,0,0067_scg_s10_0_oven_00_oven5-bottle3.png
subject-10,1,68,0.614187955856323,clock,clock,0,0068_scg_s10_0_clock_00_clock1-boat3.png
subject-10,1,69,1.0715548992157,dog,dog,0,0069_scg_s10_0_dog_00_dog4-chair1.png
subject-10,1,70,0.969145059585571,keyboard,keyboard,0,0070_scg_s10_0_keyboard_00_keyboard5-knife2.png
subject-10,1,71,1.06704092025757,bird,bird,0,0071_scg_s10_0_bird_00_bird10-elephant2.png
subject-10,1,72,0.69526195526123,clock,clock,0,0072_scg_s10_0_clock_00_clock7-bicycle1.png
subject-10,1,73,0.892676115036011,boat,boat,0,0073_scg_s10_0_boat_00_boat5-clock3.png
subject-10,1,74,0.958877086639404,car,car,0,0074_scg_s10_0_car_00_car10-bicycle2.png
subject-10,1,75,1.15601515769958,car,car,0,0075_scg_s10_0_car_00_car4-boat1.png
subject-10,1,76,1.17029690742493,bottle,bottle,0,0076_scg_s10_0_bottle_00_bottle7-elephant2.png
subject-10,1,77,1.09777212142944,elephant,elephant,0,0077_scg_s10_0_elephant_00_elephant8-dog1.png
subject-10,1,78,0.771543979644775,car,car,0,0078_scg_s10_0_car_00_car8-airplane3.png
subject-10,1,79,0.690907955169678,clock,clock,0,0079_scg_s10_0_clock_00_clock6-bird3.png
subject-10,1,80,0.942391872406006,keyboard,keyboard,0,0080_scg_s10_0_keyboard_00_keyboard6-elephant1.png
subject-10,1,81,0.915563821792603,bird,bird,0,0081_scg_s10_0_bird_00_bird10-bear2.png
subject-10,1,82,0.759330987930298,truck,truck,0,0082_scg_s10_0_truck_00_truck2-keyboard1.png
subject-10,1,83,0.741029024124146,clock,clock,0,0083_scg_s10_0_clock_00_clock3-cat1.png
subject-10,1,84,0.706735134124756,keyboard,keyboard,0,0084_scg_s10_0_keyboard_00_keyboard7-boat2.png
subject-10,1,85,1.14505290985107,bottle,bottle,0,0085_scg_s10_0_bottle_00_bottle8-bird1.png
subject-10,1,86,1.31047892570496,boat,knife,0,0086_scg_s10_0_knife_00_knife2-truck2.png
subject-10,1,87,0.754430055618286,bird,bird,0,0087_scg_s10_0_bird_00_bird3-bottle2.png
subject-10,1,88,1.28974390029907,bear,cat,0,0088_scg_s10_0_cat_00_cat3-elephant2.png
subject-10,1,89,0.674592018127441,oven,oven,0,0089_scg_s10_0_oven_00_oven2-chair1.png
subject-10,1,90,0.807853937149048,keyboard,keyboard,0,0090_scg_s10_0_keyboard_00_keyboard3-cat1.png
subject-10,1,91,1.50044417381287,dog,dog,0,0091_scg_s10_0_dog_00_dog9-bear3.png
subject-10,1,92,0.94965386390686,knife,knife,0,0092_scg_s10_0_knife_00_knife10-elephant3.png
subject-10,1,93,0.626327991485596,chair,chair,0,0093_scg_s10_0_chair_00_chair10-dog1.png
subject-10,1,94,0.745356798171997,bicycle,bicycle,0,0094_scg_s10_0_bicycle_00_bicycle4-oven3.png
subject-10,1,95,0.797409772872925,bottle,bottle,0,0095_scg_s10_0_bottle_00_bottle3-bottle3.png
subject-10,1,96,1.34009599685669,car,car,0,0096_scg_s10_0_car_00_car6-bear1.png
subject-10,1,97,0.699547052383423,elephant,elephant,0,0097_scg_s10_0_elephant_00_elephant6-oven1.png
subject-10,1,98,1.50014019012451,dog,dog,0,0098_scg_s10_0_dog_00_dog9-bicycle3.png
subject-10,1,99,1.03317594528198,clock,oven,0,0099_scg_s10_0_oven_00_oven6-bird1.png
subject-10,1,100,1.33714699745178,oven,airplane,0,0100_scg_s10_0_airplane_00_airplane4-keyboard3.png
subject-10,1,101,0.751341819763184,elephant,elephant,0,0101_scg_s10_0_elephant_00_elephant7-cat1.png
subject-10,1,102,1.00370121002197,elephant,elephant,0,0102_scg_s10_0_elephant_00_elephant5-elephant1.png
subject-10,1,103,0.80078911781311,chair,chair,0,0103_scg_s10_0_chair_00_chair4-bear2.png
subject-10,1,104,0.983755826950073,airplane,airplane,0,0104_scg_s10_0_airplane_00_airplane4-boat3.png
subject-10,1,105,1.043133020401,bear,dog,0,0105_scg_s10_0_dog_00_dog4-keyboard2.png
subject-10,1,106,0.670301914215088,chair,chair,0,0106_scg_s10_0_chair_00_chair7-elephant1.png
subject-10,1,107,0.850193023681641,bottle,bottle,0,0107_scg_s10_0_bottle_00_bottle10-dog1.png
subject-10,1,108,1.09432697296143,car,car,0,0108_scg_s10_0_car_00_car6-knife1.png
subject-10,1,109,0.607914924621582,clock,clock,0,0109_scg_s10_0_clock_00_clock7-keyboard2.png
subject-10,1,110,1.50015687942505,truck,truck,0,0110_scg_s10_0_truck_00_truck4-boat3.png
subject-10,1,111,1.31667613983154,bear,cat,0,0111_scg_s10_0_cat_00_cat10-elephant3.png
subject-10,1,112,1.32902407646179,bear,bear,0,0112_scg_s10_0_bear_00_bear9-keyboard3.png
subject-10,1,113,0.788058042526245,clock,clock,0,0113_scg_s10_0_clock_00_clock8-knife1.png
subject-10,1,114,0.88666296005249,cat,cat,0,0114_scg_s10_0_cat_00_cat2-cat1.png
subject-10,1,115,1.35995888710022,oven,boat,0,0115_scg_s10_0_boat_00_boat10-cat1.png
subject-10,1,116,0.727702140808105,car,car,0,0116_scg_s10_0_car_00_car4-cat3.png
subject-10,1,117,0.839033126831055,clock,oven,0,0117_scg_s10_0_oven_00_oven3-boat3.png
subject-10,1,118,0.706846952438354,oven,oven,0,0118_scg_s10_0_oven_00_oven2-bottle1.png
subject-10,1,119,0.680896997451782,clock,clock,0,0119_scg_s10_0_clock_00_clock10-airplane1.png
subject-10,1,120,1.50012898445129,keyboard,keyboard,0,0120_scg_s10_0_keyboard_00_keyboard9-bear2.png
subject-10,1,121,0.783185005187988,elephant,elephant,0,0121_scg_s10_0_elephant_00_elephant8-boat2.png
subject-10,1,122,1.23557114601135,chair,chair,0,0122_scg_s10_0_chair_00_chair9-bird3.png
subject-10,1,123,0.841923952102661,truck,truck,0,0123_scg_s10_0_truck_00_truck6-bicycle1.png
subject-10,1,124,0.924111127853394,knife,dog,0,0124_scg_s10_0_dog_00_dog2-bottle2.png
subject-10,1,125,0.552166938781738,car,car,0,0125_scg_s10_0_car_00_car3-airplane3.png
subject-10,1,126,0.70402193069458,clock,clock,0,0126_scg_s10_0_clock_00_clock1-car1.png
subject-10,1,127,0.701114177703857,elephant,elephant,0,0127_scg_s10_0_elephant_00_elephant7-bear3.png
subject-10,1,128,0.650779962539673,clock,clock,0,0128_scg_s10_0_clock_00_clock1-dog2.png
subject-10,1,129,1.15403604507446,keyboard,keyboard,0,0129_scg_s10_0_keyboard_00_keyboard3-bicycle2.png
subject-10,1,130,0.821582078933716,elephant,elephant,0,0130_scg_s10_0_elephant_00_elephant2-bird1.png
subject-10,1,131,0.765891075134277,keyboard,keyboard,0,0131_scg_s10_0_keyboard_00_keyboard4-keyboard2.png
subject-10,1,132,1.26114892959595,bicycle,truck,0,0132_scg_s10_0_truck_00_truck3-bear3.png
subject-10,1,133,0.758975028991699,chair,chair,0,0133_scg_s10_0_chair_00_chair1-chair1.png
subject-10,1,134,1.21612596511841,cat,cat,0,0134_scg_s10_0_cat_00_cat4-oven1.png
subject-10,1,135,1.05150699615479,truck,truck,0,0135_scg_s10_0_truck_00_truck7-oven2.png
subject-10,1,136,0.971413135528564,dog,dog,0,0136_scg_s10_0_dog_00_dog5-boat3.png
subject-10,1,137,0.799933910369873,clock,clock,0,0137_scg_s10_0_clock_00_clock3-keyboard3.png
subject-10,1,138,0.781649827957153,chair,chair,0,0138_scg_s10_0_chair_00_chair9-chair3.png
subject-10,1,139,0.871419906616211,elephant,elephant,0,0139_scg_s10_0_elephant_00_elephant1-bear2.png
subject-10,1,140,0.793927192687988,bottle,bottle,0,0140_scg_s10_0_bottle_00_bottle7-boat3.png
subject-10,1,141,1.00014615058899,chair,chair,0,0141_scg_s10_0_chair_00_chair10-bicycle1.png
subject-10,1,142,1.29009103775024,truck,truck,0,0142_scg_s10_0_truck_00_truck6-bear2.png
subject-10,1,143,0.880359172821045,bird,bird,0,0143_scg_s10_0_bird_00_bird8-clock1.png
subject-10,1,144,0.745280027389526,truck,truck,0,0144_scg_s10_0_truck_00_truck10-car3.png
subject-10,1,145,0.675724983215332,cat,cat,0,0145_scg_s10_0_cat_00_cat8-bird2.png
subject-10,1,146,1.20172476768494,bear,airplane,0,0146_scg_s10_0_airplane_00_airplane10-oven2.png
subject-10,1,147,1.22939205169678,keyboard,knife,0,0147_scg_s10_0_knife_00_knife5-dog1.png
subject-10,1,148,0.66755485534668,clock,clock,0,0148_scg_s10_0_clock_00_clock1-bear1.png
subject-10,1,149,1.15477609634399,airplane,airplane,0,0149_scg_s10_0_airplane_00_airplane5-dog3.png
subject-10,1,150,0.792372941970825,keyboard,keyboard,0,0150_scg_s10_0_keyboard_00_keyboard5-bottle1.png
subject-10,1,151,1.08814406394958,bird,bird,0,0151_scg_s10_0_bird_00_bird9-bear3.png
subject-10,1,152,1.38678908348083,bear,bear,0,0152_scg_s10_0_bear_00_bear8-dog1.png
subject-10,1,153,0.517143964767456,oven,oven,0,0153_scg_s10_0_oven_00_oven4-elephant3.png
subject-10,1,154,0.998540163040161,bear,airplane,0,0154_scg_s10_0_airplane_00_airplane2-bird3.png
subject-10,1,155,0.894574165344238,clock,bottle,0,0155_scg_s10_0_bottle_00_bottle7-keyboard2.png
subject-10,1,156,0.938200950622559,bicycle,bicycle,0,0156_scg_s10_0_bicycle_00_bicycle8-clock3.png
subject-10,1,157,1.27432203292847,boat,airplane,0,0157_scg_s10_0_airplane_00_airplane4-elephant1.png
subject-10,1,158,1.1725549697876,boat,boat,0,0158_scg_s10_0_boat_00_boat6-truck3.png
subject-10,1,159,0.684077978134155,bicycle,bicycle,0,0159_scg_s10_0_bicycle_00_bicycle4-car2.png
subject-10,1,160,0.530052900314331,bottle,bottle,0,0160_scg_s10_0_bottle_00_bottle2-elephant1.png
subject-10,1,161,0.655209064483643,bird,bird,0,0161_scg_s10_0_bird_00_bird7-oven3.png
subject-10,1,162,1.05293893814087,dog,dog,0,0162_scg_s10_0_dog_00_dog4-elephant2.png
subject-10,1,163,1.1941249370575,dog,dog,0,0163_scg_s10_0_dog_00_dog9-bottle1.png
subject-10,1,164,0.662943840026855,elephant,elephant,0,0164_scg_s10_0_elephant_00_elephant8-knife2.png
subject-10,1,165,0.645733833312988,bottle,bottle,0,0165_scg_s10_0_bottle_00_bottle3-bear2.png
subject-10,1,166,1.32684087753296,boat,boat,0,0166_scg_s10_0_boat_00_boat4-bottle2.png
subject-10,1,167,0.992663145065308,dog,dog,0,0167_scg_s10_0_dog_00_dog1-car2.png
subject-10,1,168,0.799109935760498,oven,oven,0,0168_scg_s10_0_oven_00_oven2-bicycle1.png
subject-10,1,169,1.01107311248779,knife,knife,0,0169_scg_s10_0_knife_00_knife4-boat1.png
subject-10,1,170,0.733364820480347,oven,oven,0,0170_scg_s10_0_oven_00_oven8-cat3.png
subject-10,1,171,0.890256881713867,elephant,bear,0,0171_scg_s10_0_bear_00_bear7-bicycle2.png
subject-10,1,172,0.896581888198853,car,car,0,0172_scg_s10_0_car_00_car5-truck3.png
subject-10,1,173,0.710493803024292,oven,oven,0,0173_scg_s10_0_oven_00_oven3-airplane1.png
subject-10,1,174,0.716658115386963,oven,oven,0,0174_scg_s10_0_oven_00_oven2-bear3.png
subject-10,1,175,1.33649301528931,chair,chair,0,0175_scg_s10_0_chair_00_chair7-cat1.png
subject-10,1,176,1.02648305892944,dog,dog,0,0176_scg_s10_0_dog_00_dog10-car3.png
subject-10,1,177,1.07661199569702,cat,cat,0,0177_scg_s10_0_cat_00_cat9-bird3.png
subject-10,1,178,1.14969897270203,keyboard,keyboard,0,0178_scg_s10_0_keyboard_00_keyboard6-dog2.png
subject-10,1,179,1.01485300064087,car,car,0,0179_scg_s10_0_car_00_car8-bicycle2.png
subject-10,1,180,1.42102003097534,bottle,bottle,0,0180_scg_s10_0_bottle_00_bottle8-knife1.png
subject-10,1,181,0.548937082290649,clock,clock,0,0181_scg_s10_0_clock_00_clock4-knife1.png
subject-10,1,182,0.813759803771973,truck,truck,0,0182_scg_s10_0_truck_00_truck8-keyboard2.png
subject-10,1,183,0.77382493019104,cat,cat,0,0183_scg_s10_0_cat_00_cat8-bicycle3.png
subject-10,1,184,0.971245050430298,bird,bird,0,0184_scg_s10_0_bird_00_bird9-dog2.png
subject-10,1,185,0.988910913467407,chair,chair,0,0185_scg_s10_0_chair_00_chair4-chair3.png
subject-10,1,186,0.778439998626709,boat,boat,0,0186_scg_s10_0_boat_00_boat10-bear3.png
subject-10,1,187,0.876404047012329,bicycle,bicycle,0,0187_scg_s10_0_bicycle_00_bicycle7-truck3.png
subject-10,1,188,1.32973504066467,elephant,bear,0,0188_scg_s10_0_bear_00_bear3-chair2.png
subject-10,1,189,1.02694988250732,bottle,bottle,0,0189_scg_s10_0_bottle_00_bottle8-elephant3.png
subject-10,1,190,0.909593105316162,bird,bird,0,0190_scg_s10_0_bird_00_bird1-oven1.png
subject-10,1,191,0.515247106552124,clock,clock,0,0191_scg_s10_0_clock_00_clock6-chair3.png
subject-10,1,192,0.863988161087036,keyboard,keyboard,0,0192_scg_s10_0_keyboard_00_keyboard4-bottle2.png
subject-10,1,193,0.846621990203857,clock,oven,0,0193_scg_s10_0_oven_00_oven6-airplane3.png
subject-10,1,194,0.668999195098877,keyboard,keyboard,0,0194_scg_s10_0_keyboard_00_keyboard5-airplane3.png
subject-10,1,195,1.33432698249817,boat,airplane,0,0195_scg_s10_0_airplane_00_airplane4-knife1.png
subject-10,1,196,0.724285840988159,chair,chair,0,0196_scg_s10_0_chair_00_chair7-bird1.png
subject-10,1,197,0.677293062210083,cat,cat,0,0197_scg_s10_0_cat_00_cat6-keyboard3.png
subject-10,1,198,1.05111289024353,boat,boat,0,0198_scg_s10_0_boat_00_boat2-oven3.png
subject-10,1,199,0.618175029754639,cat,cat,0,0199_scg_s10_0_cat_00_cat3-bicycle1.png
subject-10,1,200,1.33136510848999,cat,dog,0,0200_scg_s10_0_dog_00_dog1-chair1.png
subject-10,1,201,0.79059100151062,elephant,elephant,0,0201_scg_s10_0_elephant_00_elephant1-dog2.png
subject-10,1,202,1.20223999023438,dog,dog,0,0202_scg_s10_0_dog_00_dog3-elephant2.png
subject-10,1,203,0.922080039978027,bicycle,bicycle,0,0203_scg_s10_0_bicycle_00_bicycle1-clock3.png
subject-10,1,204,1.25006413459778,bird,bird,0,0204_scg_s10_0_bird_00_bird5-truck2.png
subject-10,1,205,0.648138999938965,airplane,airplane,0,0205_scg_s10_0_airplane_00_airplane7-clock3.png
subject-10,1,206,0.87534499168396,bicycle,bicycle,0,0206_scg_s10_0_bicycle_00_bicycle1-knife3.png
subject-10,1,207,1.12575197219849,clock,clock,0,0207_scg_s10_0_clock_00_clock5-keyboard1.png
subject-10,1,208,1.50042581558228,truck,truck,0,0208_scg_s10_0_truck_00_truck9-elephant1.png
subject-10,1,209,0.888685941696167,bird,bird,0,0209_scg_s10_0_bird_00_bird1-knife3.png
subject-10,1,210,0.999859094619751,truck,bear,0,0210_scg_s10_0_bear_00_bear10-oven1.png
subject-10,1,211,0.6526939868927,keyboard,keyboard,0,0211_scg_s10_0_keyboard_00_keyboard9-bicycle2.png
subject-10,1,212,1.00493001937866,airplane,airplane,0,0212_scg_s10_0_airplane_00_airplane8-truck3.png
subject-10,1,213,0.649205923080444,car,car,0,0213_scg_s10_0_car_00_car3-elephant3.png
subject-10,1,214,0.868308067321777,truck,truck,0,0214_scg_s10_0_truck_00_truck9-airplane2.png
subject-10,1,215,1.14277791976929,bird,dog,0,0215_scg_s10_0_dog_00_dog3-truck2.png
subject-10,1,216,0.948193073272705,bottle,bottle,0,0216_scg_s10_0_bottle_00_bottle4-oven2.png
subject-10,1,217,0.977123975753784,bear,bear,0,0217_scg_s10_0_bear_00_bear6-boat3.png
subject-10,1,218,0.607195138931274,cat,cat,0,0218_scg_s10_0_cat_00_cat7-elephant1.png
subject-10,1,219,0.981198072433472,car,car,0,0219_scg_s10_0_car_00_car2-knife3.png
subject-10,1,220,0.662983894348145,keyboard,keyboard,0,0220_scg_s10_0_keyboard_00_keyboard4-bird1.png
subject-10,1,221,1.02906799316406,cat,cat,0,0221_scg_s10_0_cat_00_cat7-airplane2.png
subject-10,1,222,1.20267987251282,dog,dog,0,0222_scg_s10_0_dog_00_dog3-dog1.png
subject-10,1,223,1.30899286270142,boat,airplane,0,0223_scg_s10_0_airplane_00_airplane10-knife3.png
subject-10,1,224,0.876442193984985,truck,truck,0,0224_scg_s10_0_truck_00_truck2-oven3.png
subject-10,1,225,1.31819415092468,dog,dog,0,0225_scg_s10_0_dog_00_dog7-knife3.png
subject-10,1,226,1.36205196380615,knife,knife,0,0226_scg_s10_0_knife_00_knife2-dog1.png
subject-10,1,227,1.23921203613281,car,car,0,0227_scg_s10_0_car_00_car5-airplane3.png
subject-10,1,228,0.734550952911377,bicycle,bicycle,0,0228_scg_s10_0_bicycle_00_bicycle2-dog1.png
subject-10,1,229,1.22508907318115,dog,dog,0,0229_scg_s10_0_dog_00_dog1-cat3.png
subject-10,1,230,1.40974092483521,bird,bird,0,0230_scg_s10_0_bird_00_bird2-bird2.png
subject-10,1,231,0.820482015609741,bear,bear,0,0231_scg_s10_0_bear_00_bear4-clock3.png
subject-10,1,232,0.811251878738403,elephant,elephant,0,0232_scg_s10_0_elephant_00_elephant3-knife1.png
subject-10,1,233,1.11438798904419,car,car,0,0233_scg_s10_0_car_00_car10-keyboard2.png
subject-10,1,234,0.882972955703735,bear,bear,0,0234_scg_s10_0_bear_00_bear9-boat2.png
subject-10,1,235,0.785780191421509,bear,bear,0,0235_scg_s10_0_bear_00_bear8-knife3.png
subject-10,1,236,0.875643968582153,car,car,0,0236_scg_s10_0_car_00_car5-cat1.png
subject-10,1,237,0.965965986251831,knife,knife,0,0237_scg_s10_0_knife_00_knife10-keyboard3.png
subject-10,1,238,0.963640928268433,boat,boat,0,0238_scg_s10_0_boat_00_boat2-airplane1.png
subject-10,1,239,0.837003946304321,bear,bird,0,0239_scg_s10_0_bird_00_bird2-knife1.png
subject-10,1,240,0.689477920532227,cat,cat,0,0240_scg_s10_0_cat_00_cat6-chair3.png
subject-10,1,241,0.771407842636108,dog,dog,0,0241_scg_s10_0_dog_00_dog7-oven2.png
subject-10,1,242,1.3673300743103,oven,oven,0,0242_scg_s10_0_oven_00_oven6-elephant2.png
subject-10,1,243,1.1411919593811,elephant,elephant,0,0243_scg_s10_0_elephant_00_elephant6-bicycle1.png
subject-10,1,244,0.968829154968262,chair,boat,0,0244_scg_s10_0_boat_00_boat7-chair1.png
subject-10,1,245,0.866420984268188,car,car,0,0245_scg_s10_0_car_00_car4-clock1.png
subject-10,1,246,1.4617931842804,elephant,elephant,0,0246_scg_s10_0_elephant_00_elephant1-chair1.png
subject-10,1,247,1.18112683296204,bird,bird,0,0247_scg_s10_0_bird_00_bird10-clock1.png
subject-10,1,248,0.994552135467529,oven,keyboard,0,0248_scg_s10_0_keyboard_00_keyboard7-truck2.png
subject-10,1,249,0.977108001708984,elephant,elephant,0,0249_scg_s10_0_elephant_00_elephant2-clock1.png
subject-10,1,250,1.10469388961792,bird,bird,0,0250_scg_s10_0_bird_00_bird7-knife2.png
subject-10,1,251,0.694561958312988,keyboard,keyboard,0,0251_scg_s10_0_keyboard_00_keyboard9-keyboard2.png
subject-10,1,252,1.05337715148926,car,car,0,0252_scg_s10_0_car_00_car2-car3.png
subject-10,1,253,1.28122878074646,bird,bear,0,0253_scg_s10_0_bear_00_bear6-cat3.png
subject-10,1,254,0.724817991256714,chair,chair,0,0254_scg_s10_0_chair_00_chair7-boat3.png
subject-10,1,255,1.13900184631348,elephant,bear,0,0255_scg_s10_0_bear_00_bear7-truck1.png
subject-10,1,256,0.774506807327271,cat,cat,0,0256_scg_s10_0_cat_00_cat4-clock2.png
subject-10,1,257,0.549794912338257,oven,oven,0,0257_scg_s10_0_oven_00_oven10-boat2.png
subject-10,1,258,1.26238512992859,airplane,airplane,0,0258_scg_s10_0_airplane_00_airplane9-clock1.png
subject-10,1,259,0.667717933654785,oven,oven,0,0259_scg_s10_0_oven_00_oven10-cat2.png
subject-10,1,260,1.0939462184906,chair,chair,0,0260_scg_s10_0_chair_00_chair6-dog1.png
subject-10,1,261,1.082927942276,bird,bird,0,0261_scg_s10_0_bird_00_bird3-boat3.png
subject-10,1,262,1.37913107872009,dog,dog,0,0262_scg_s10_0_dog_00_dog1-bear1.png
subject-10,1,263,0.698324918746948,keyboard,keyboard,0,0263_scg_s10_0_keyboard_00_keyboard8-keyboard2.png
subject-10,1,264,0.842922925949097,bottle,bottle,0,0264_scg_s10_0_bottle_00_bottle6-boat3.png
subject-10,1,265,0.856655836105347,bird,bird,0,0265_scg_s10_0_bird_00_bird3-truck3.png
subject-10,1,266,0.769718885421753,keyboard,keyboard,0,0266_scg_s10_0_keyboard_00_keyboard4-clock2.png
subject-10,1,267,1.4058690071106,cat,cat,0,0267_scg_s10_0_cat_00_cat5-chair3.png
subject-10,1,268,1.10933184623718,boat,boat,0,0268_scg_s10_0_boat_00_boat10-truck1.png
subject-10,1,269,0.714637994766235,bicycle,bicycle,0,0269_scg_s10_0_bicycle_00_bicycle1-bottle3.png
subject-10,1,270,1.50012588500977,boat,boat,0,0270_scg_s10_0_boat_00_boat7-oven3.png
subject-10,1,271,0.648663997650146,bottle,bottle,0,0271_scg_s10_0_bottle_00_bottle10-boat3.png
subject-10,1,272,1.10435509681702,boat,car,0,0272_scg_s10_0_car_00_car6-chair3.png
subject-10,1,273,0.680906057357788,clock,clock,0,0273_scg_s10_0_clock_00_clock1-clock2.png
subject-10,1,274,0.900686979293823,airplane,airplane,0,0274_scg_s10_0_airplane_00_airplane4-cat3.png
subject-10,1,275,1.09038591384888,dog,dog,0,0275_scg_s10_0_dog_00_dog6-bird1.png
subject-10,1,276,1.27013897895813,car,car,0,0276_scg_s10_0_car_00_car1-chair3.png
subject-10,1,277,0.707836866378784,bicycle,bicycle,0,0277_scg_s10_0_bicycle_00_bicycle6-cat1.png
subject-10,1,278,0.957597017288208,keyboard,keyboard,0,0278_scg_s10_0_keyboard_00_keyboard5-oven2.png
subject-10,1,279,1.34785914421082,oven,oven,0,0279_scg_s10_0_oven_00_oven7-clock2.png
subject-10,1,280,0.730427980422974,keyboard,keyboard,0,0280_scg_s10_0_keyboard_00_keyboard2-bottle1.png
subject-10,1,281,0.828286170959473,cat,cat,0,0281_scg_s10_0_cat_00_cat1-bird1.png
subject-10,1,282,0.785207033157349,truck,truck,0,0282_scg_s10_0_truck_00_truck1-clock3.png
subject-10,1,283,1.03563189506531,car,cat,0,0283_scg_s10_0_cat_00_cat10-clock1.png
subject-10,1,284,0.790249824523926,cat,airplane,0,0284_scg_s10_0_airplane_00_airplane5-oven3.png
subject-10,1,285,0.693198919296265,clock,clock,0,0285_scg_s10_0_clock_00_clock8-bear2.png
subject-10,1,286,1.09764313697815,bird,bird,0,0286_scg_s10_0_bird_00_bird6-boat2.png
subject-10,1,287,0.718912839889526,truck,truck,0,0287_scg_s10_0_truck_00_truck3-cat1.png
subject-10,1,288,0.782218933105469,keyboard,keyboard,0,0288_scg_s10_0_keyboard_00_keyboard8-oven1.png
subject-10,1,289,1.12552905082703,truck,oven,0,0289_scg_s10_0_oven_00_oven7-elephant1.png
subject-10,1,290,1.04557681083679,cat,cat,0,0290_scg_s10_0_cat_00_cat2-boat2.png
subject-10,1,291,0.934368848800659,clock,clock,0,0291_scg_s10_0_clock_00_clock4-oven1.png
subject-10,1,292,1.48453998565674,bicycle,bicycle,0,0292_scg_s10_0_bicycle_00_bicycle5-oven3.png
subject-10,1,293,0.773099899291992,truck,truck,0,0293_scg_s10_0_truck_00_truck1-dog1.png
subject-10,1,294,1.50018286705017,keyboard,clock,0,0294_scg_s10_0_clock_00_clock10-truck2.png
subject-10,1,295,0.921401023864746,car,car,0,0295_scg_s10_0_car_00_car5-keyboard3.png
subject-10,1,296,0.817123889923096,bicycle,bicycle,0,0296_scg_s10_0_bicycle_00_bicycle4-knife3.png
subject-10,1,297,0.968963861465454,elephant,elephant,0,0297_scg_s10_0_elephant_00_elephant3-truck1.png
subject-10,1,298,0.720797061920166,truck,truck,0,0298_scg_s10_0_truck_00_truck1-bird1.png
subject-10,1,299,1.19593596458435,clock,knife,0,0299_scg_s10_0_knife_00_knife5-truck3.png
subject-10,1,300,NaN,na,bear,0,0300_scg_s10_0_bear_00_bear9-bottle2.png
subject-10,1,301,1.23581695556641,car,car,0,0301_scg_s10_0_car_00_car8-boat3.png
subject-10,1,302,0.827754974365234,knife,knife,0,0302_scg_s10_0_knife_00_knife6-bird1.png
subject-10,1,303,0.747768878936768,chair,chair,0,0303_scg_s10_0_chair_00_chair4-cat2.png
subject-10,1,304,0.905466079711914,clock,clock,0,0304_scg_s10_0_clock_00_clock3-bird1.png
subject-10,1,305,1.34126687049866,elephant,elephant,0,0305_scg_s10_0_elephant_00_elephant2-bear3.png
subject-10,1,306,0.571326971054077,truck,truck,0,0306_scg_s10_0_truck_00_truck10-truck3.png
subject-10,1,307,0.808024168014526,bird,bird,0,0307_scg_s10_0_bird_00_bird10-bird2.png
subject-10,1,308,1.03615188598633,chair,chair,0,0308_scg_s10_0_chair_00_chair5-clock2.png
subject-10,1,309,0.733721971511841,keyboard,keyboard,0,0309_scg_s10_0_keyboard_00_keyboard1-bear2.png
subject-10,1,310,0.875479221343994,bicycle,bicycle,0,0310_scg_s10_0_bicycle_00_bicycle1-elephant2.png
subject-10,1,311,1.41187214851379,bird,bird,0,0311_scg_s10_0_bird_00_bird6-elephant2.png
subject-10,1,312,0.772377967834473,bottle,bottle,0,0312_scg_s10_0_bottle_00_bottle4-dog2.png
subject-10,1,313,1.11621499061584,cat,cat,0,0313_scg_s10_0_cat_00_cat5-bicycle3.png
subject-10,1,314,0.972876071929932,cat,cat,0,0314_scg_s10_0_cat_00_cat6-oven1.png
subject-10,1,315,1.49242186546326,knife,knife,0,0315_scg_s10_0_knife_00_knife9-boat1.png
subject-10,1,316,0.514230966567993,bottle,bottle,0,0316_scg_s10_0_bottle_00_bottle6-airplane1.png
subject-10,1,317,0.947777032852173,car,car,0,0317_scg_s10_0_car_00_car1-clock2.png
subject-10,1,318,0.953850030899048,clock,clock,0,0318_scg_s10_0_clock_00_clock6-truck3.png
subject-10,1,319,1.19074201583862,dog,dog,0,0319_scg_s10_0_dog_00_dog8-boat3.png
subject-10,1,320,1.15135598182678,bear,bear,0,0320_scg_s10_0_bear_00_bear1-bicycle3.png
subject-10,1,321,0.917114019393921,bird,bird,0,0321_scg_s10_0_bird_00_bird9-keyboard1.png
subject-10,1,322,0.860541105270386,bird,bird,0,0322_scg_s10_0_bird_00_bird5-keyboard2.png
subject-10,1,323,1.14028906822205,car,car,0,0323_scg_s10_0_car_00_car7-keyboard3.png
subject-10,1,324,0.761389970779419,clock,clock,0,0324_scg_s10_0_clock_00_clock2-clock3.png
subject-10,1,325,0.844393014907837,bicycle,bicycle,0,0325_scg_s10_0_bicycle_00_bicycle7-clock3.png
subject-10,1,326,1.11761999130249,truck,truck,0,0326_scg_s10_0_truck_00_truck5-dog3.png
subject-10,1,327,0.669393062591553,clock,clock,0,0327_scg_s10_0_clock_00_clock3-car2.png
subject-10,1,328,1.09747409820557,car,car,0,0328_scg_s10_0_car_00_car10-chair1.png
subject-10,1,329,0.77170205116272,truck,truck,0,0329_scg_s10_0_truck_00_truck6-clock2.png
subject-10,1,330,0.931803941726685,truck,truck,0,0330_scg_s10_0_truck_00_truck6-bottle3.png
subject-10,1,331,1.019287109375,bird,bird,0,0331_scg_s10_0_bird_00_bird5-oven3.png
subject-10,1,332,1.02503609657288,bear,bear,0,0332_scg_s10_0_bear_00_bear10-knife2.png
subject-10,1,333,0.52348804473877,chair,chair,0,0333_scg_s10_0_chair_00_chair3-bottle3.png
subject-10,1,334,0.872626066207886,boat,boat,0,0334_scg_s10_0_boat_00_boat9-knife2.png
subject-10,1,335,0.72365403175354,clock,clock,0,0335_scg_s10_0_clock_00_clock6-oven1.png
subject-10,1,336,1.07560896873474,cat,bird,0,0336_scg_s10_0_bird_00_bird8-keyboard2.png
subject-10,1,337,0.719897985458374,elephant,elephant,0,0337_scg_s10_0_elephant_00_elephant8-bicycle3.png
subject-10,1,338,0.82711386680603,truck,truck,0,0338_scg_s10_0_truck_00_truck5-knife3.png
subject-10,1,339,1.10691690444946,truck,oven,0,0339_scg_s10_0_oven_00_oven7-dog2.png
subject-10,1,340,1.27510499954224,airplane,airplane,0,0340_scg_s10_0_airplane_00_airplane5-bottle3.png
subject-10,1,341,0.881422996520996,bicycle,bicycle,0,0341_scg_s10_0_bicycle_00_bicycle6-dog2.png
subject-10,1,342,0.876721858978271,knife,knife,0,0342_scg_s10_0_knife_00_knife1-oven1.png
subject-10,1,343,1.42760682106018,oven,oven,0,0343_scg_s10_0_oven_00_oven6-bicycle1.png
subject-10,1,344,0.711385011672974,chair,chair,0,0344_scg_s10_0_chair_00_chair7-knife2.png
subject-10,1,345,0.955275058746338,knife,knife,0,0345_scg_s10_0_knife_00_knife5-bicycle2.png
subject-10,1,346,1.12057209014893,boat,boat,0,0346_scg_s10_0_boat_00_boat1-keyboard3.png
subject-10,1,347,0.648962020874023,clock,clock,0,0347_scg_s10_0_clock_00_clock9-bird2.png
subject-10,1,348,0.800957918167114,truck,truck,0,0348_scg_s10_0_truck_00_truck1-bear1.png
subject-10,1,349,0.712852954864502,elephant,elephant,0,0349_scg_s10_0_elephant_00_elephant4-clock3.png
subject-10,1,350,0.865601062774658,bottle,bottle,0,0350_scg_s10_0_bottle_00_bottle7-clock1.png
subject-10,1,351,1.11775779724121,chair,chair,0,0351_scg_s10_0_chair_00_chair10-airplane2.png
subject-10,1,352,0.821612119674683,boat,cat,0,0352_scg_s10_0_cat_00_cat10-airplane3.png
subject-10,1,353,1.0039050579071,bird,bird,0,0353_scg_s10_0_bird_00_bird6-bottle3.png
subject-10,1,354,1.08856678009033,knife,knife,0,0354_scg_s10_0_knife_00_knife2-elephant2.png
subject-10,1,355,0.600155115127563,bottle,bottle,0,0355_scg_s10_0_bottle_00_bottle3-chair3.png
subject-10,1,356,0.622443914413452,clock,clock,0,0356_scg_s10_0_clock_00_clock7-dog2.png
subject-10,1,357,0.97164511680603,clock,clock,0,0357_scg_s10_0_clock_00_clock10-clock3.png
subject-10,1,358,0.882982015609741,bear,bear,0,0358_scg_s10_0_bear_00_bear8-boat2.png
subject-10,1,359,1.04899597167969,car,car,0,0359_scg_s10_0_car_00_car10-car1.png
subject-10,1,360,1.16138601303101,car,car,0,0360_scg_s10_0_car_00_car7-boat3.png
subject-10,1,361,0.742486953735352,clock,clock,0,0361_scg_s10_0_clock_00_clock9-airplane1.png
subject-10,1,362,1.20524311065674,knife,clock,0,0362_scg_s10_0_clock_00_clock1-elephant2.png
subject-10,1,363,1.44129300117493,elephant,elephant,0,0363_scg_s10_0_elephant_00_elephant10-keyboard1.png
subject-10,1,364,1.43952894210815,knife,boat,0,0364_scg_s10_0_boat_00_boat1-truck3.png
subject-10,1,365,0.707587003707886,car,car,0,0365_scg_s10_0_car_00_car1-oven3.png
subject-10,1,366,0.949923992156982,truck,truck,0,0366_scg_s10_0_truck_00_truck4-bear1.png
subject-10,1,367,0.677787065505981,truck,truck,0,0367_scg_s10_0_truck_00_truck6-truck2.png
subject-10,1,368,0.883070945739746,truck,truck,0,0368_scg_s10_0_truck_00_truck5-keyboard1.png
subject-10,1,369,1.13653492927551,car,car,0,0369_scg_s10_0_car_00_car9-knife1.png
subject-10,1,370,1.21575379371643,bicycle,bicycle,0,0370_scg_s10_0_bicycle_00_bicycle3-elephant2.png
subject-10,1,371,0.997261047363281,truck,truck,0,0371_scg_s10_0_truck_00_truck3-clock3.png
subject-10,1,372,0.77336597442627,truck,truck,0,0372_scg_s10_0_truck_00_truck4-bottle2.png
subject-10,1,373,0.799347877502441,clock,clock,0,0373_scg_s10_0_clock_00_clock3-bear3.png
subject-10,1,374,0.959479093551636,elephant,elephant,0,0374_scg_s10_0_elephant_00_elephant8-bird2.png
subject-10,1,375,1.24705195426941,dog,dog,0,0375_scg_s10_0_dog_00_dog1-dog2.png
subject-10,1,376,0.80660605430603,chair,chair,0,0376_scg_s10_0_chair_00_chair8-airplane1.png
subject-10,1,377,1.26226091384888,elephant,elephant,0,0377_scg_s10_0_elephant_00_elephant8-cat1.png
subject-10,1,378,1.06945514678955,bicycle,bicycle,0,0378_scg_s10_0_bicycle_00_bicycle7-bear2.png
subject-10,1,379,0.959218978881836,knife,knife,0,0379_scg_s10_0_knife_00_knife9-bicycle1.png
subject-10,1,380,0.770715951919556,keyboard,keyboard,0,0380_scg_s10_0_keyboard_00_keyboard9-truck3.png
subject-10,1,381,0.920647859573364,bird,bird,0,0381_scg_s10_0_bird_00_bird1-keyboard3.png
subject-10,1,382,1.17834806442261,bird,cat,0,0382_scg_s10_0_cat_00_cat4-keyboard2.png
subject-10,1,383,0.622390031814575,keyboard,keyboard,0,0383_scg_s10_0_keyboard_00_keyboard10-truck1.png
subject-10,1,384,0.987966060638428,knife,knife,0,0384_scg_s10_0_knife_00_knife9-elephant2.png
subject-10,1,385,0.877851963043213,chair,chair,0,0385_scg_s10_0_chair_00_chair9-elephant1.png
subject-10,1,386,0.742823839187622,car,car,0,0386_scg_s10_0_car_00_car9-clock2.png
subject-10,1,387,1.28501105308533,boat,knife,0,0387_scg_s10_0_knife_00_knife2-bottle2.png
subject-10,1,388,0.782236814498901,truck,truck,0,0388_scg_s10_0_truck_00_truck3-bicycle1.png
subject-10,1,389,0.796409845352173,boat,boat,0,0389_scg_s10_0_boat_00_boat2-bottle2.png
subject-10,1,390,1.00061297416687,bird,bear,0,0390_scg_s10_0_bear_00_bear2-keyboard2.png
subject-10,1,391,1.35319900512695,bottle,bottle,0,0391_scg_s10_0_bottle_00_bottle9-truck1.png
subject-10,1,392,0.926753997802734,dog,dog,0,0392_scg_s10_0_dog_00_dog6-clock1.png
subject-10,1,393,1.14665198326111,knife,boat,0,0393_scg_s10_0_boat_00_boat6-elephant2.png
subject-10,1,394,0.812812089920044,bird,bird,0,0394_scg_s10_0_bird_00_bird3-knife3.png
subject-10,1,395,0.81857705116272,bottle,bottle,0,0395_scg_s10_0_bottle_00_bottle2-clock1.png
subject-10,1,396,0.955029010772705,airplane,airplane,0,0396_scg_s10_0_airplane_00_airplane8-bicycle3.png
subject-10,1,397,0.804683923721313,bird,bird,0,0397_scg_s10_0_bird_00_bird2-clock3.png
subject-10,1,398,0.915930032730103,boat,truck,0,0398_scg_s10_0_truck_00_truck3-keyboard3.png
subject-10,1,399,0.643982887268066,keyboard,keyboard,0,0399_scg_s10_0_keyboard_00_keyboard5-bear3.png
subject-10,1,400,1.07988309860229,dog,dog,0,0400_scg_s10_0_dog_00_dog8-bottle2.png
subject-10,1,401,0.74583101272583,oven,oven,0,0401_scg_s10_0_oven_00_oven10-bicycle1.png
subject-10,1,402,0.868310928344727,truck,truck,0,0402_scg_s10_0_truck_00_truck10-bicycle1.png
subject-10,1,403,1.13250303268433,bear,bear,0,0403_scg_s10_0_bear_00_bear9-dog1.png
subject-10,1,404,0.967787981033325,chair,chair,0,0404_scg_s10_0_chair_00_chair9-boat2.png
subject-10,1,405,1.32492995262146,boat,bird,0,0405_scg_s10_0_bird_00_bird1-chair2.png
subject-10,1,406,0.698872089385986,bicycle,bicycle,0,0406_scg_s10_0_bicycle_00_bicycle9-bear1.png
subject-10,1,407,1.40819692611694,bird,bird,0,0407_scg_s10_0_bird_00_bird4-cat3.png
subject-10,1,408,1.44440102577209,bird,knife,0,0408_scg_s10_0_knife_00_knife2-bird1.png
subject-10,1,409,0.641618967056274,bicycle,bicycle,0,0409_scg_s10_0_bicycle_00_bicycle1-bird1.png
subject-10,1,410,1.29167509078979,car,car,0,0410_scg_s10_0_car_00_car6-boat1.png
subject-10,1,411,0.936486959457397,bird,bird,0,0411_scg_s10_0_bird_00_bird6-oven1.png
subject-10,1,412,1.19325113296509,dog,dog,0,0412_scg_s10_0_dog_00_dog1-bird1.png
subject-10,1,413,1.44290590286255,truck,truck,0,0413_scg_s10_0_truck_00_truck2-clock1.png
subject-10,1,414,1.41740584373474,bird,airplane,0,0414_scg_s10_0_airplane_00_airplane4-bear3.png
subject-10,1,415,1.19089412689209,truck,truck,0,0415_scg_s10_0_truck_00_truck6-oven3.png
subject-10,1,416,0.888894081115723,car,car,0,0416_scg_s10_0_car_00_car10-elephant2.png
subject-10,1,417,1.00962996482849,bird,boat,0,0417_scg_s10_0_boat_00_boat6-airplane2.png
subject-10,1,418,0.653666973114014,truck,truck,0,0418_scg_s10_0_truck_00_truck7-bird2.png
subject-10,1,419,0.94333815574646,bicycle,bicycle,0,0419_scg_s10_0_bicycle_00_bicycle7-cat1.png
subject-10,1,420,1.22301387786865,car,car,0,0420_scg_s10_0_car_00_car7-car1.png
subject-10,1,421,1.50000095367432,bird,bird,0,0421_scg_s10_0_bird_00_bird3-bear3.png
subject-10,1,422,0.755003929138184,keyboard,keyboard,0,0422_scg_s10_0_keyboard_00_keyboard4-knife2.png
subject-10,1,423,0.714226007461548,bird,bird,0,0423_scg_s10_0_bird_00_bird1-truck1.png
subject-10,1,424,0.650206089019775,keyboard,keyboard,0,0424_scg_s10_0_keyboard_00_keyboard5-bicycle1.png
subject-10,1,425,0.876791954040527,truck,oven,0,0425_scg_s10_0_oven_00_oven7-keyboard1.png
subject-10,1,426,0.804561853408813,bear,bear,0,0426_scg_s10_0_bear_00_bear1-bird2.png
subject-10,1,427,0.885262012481689,bear,bear,0,0427_scg_s10_0_bear_00_bear4-cat3.png
subject-10,1,428,1.19805097579956,bear,boat,0,0428_scg_s10_0_boat_00_boat6-dog1.png
subject-10,1,429,1.12531995773315,knife,knife,0,0429_scg_s10_0_knife_00_knife1-chair1.png
subject-10,1,430,0.769500017166138,keyboard,keyboard,0,0430_scg_s10_0_keyboard_00_keyboard8-chair2.png
subject-10,1,431,1.1658308506012,keyboard,oven,0,0431_scg_s10_0_oven_00_oven8-chair1.png
subject-10,1,432,0.879435062408447,bicycle,bicycle,0,0432_scg_s10_0_bicycle_00_bicycle8-bird2.png
subject-10,1,433,0.753165006637573,cat,cat,0,0433_scg_s10_0_cat_00_cat3-bear2.png
subject-10,1,434,0.610437154769897,oven,oven,0,0434_scg_s10_0_oven_00_oven9-keyboard1.png
subject-10,1,435,0.644312143325806,cat,cat,0,0435_scg_s10_0_cat_00_cat3-cat1.png
subject-10,1,436,1.49415898323059,keyboard,airplane,0,0436_scg_s10_0_airplane_00_airplane2-bottle1.png
subject-10,1,437,0.908223152160645,oven,oven,0,0437_scg_s10_0_oven_00_oven9-clock2.png
subject-10,1,438,1.17127990722656,elephant,elephant,0,0438_scg_s10_0_elephant_00_elephant6-cat2.png
subject-10,1,439,0.823590040206909,airplane,airplane,0,0439_scg_s10_0_airplane_00_airplane7-airplane3.png
subject-10,1,440,1.26029777526855,keyboard,keyboard,0,0440_scg_s10_0_keyboard_00_keyboard2-clock1.png
subject-10,1,441,1.34746885299683,keyboard,keyboard,0,0441_scg_s10_0_keyboard_00_keyboard9-airplane3.png
subject-10,1,442,1.22130680084229,bird,airplane,0,0442_scg_s10_0_airplane_00_airplane3-oven1.png
subject-10,1,443,1.46359491348267,car,knife,0,0443_scg_s10_0_knife_00_knife5-keyboard3.png
subject-10,1,444,1.0531861782074,clock,clock,0,0444_scg_s10_0_clock_00_clock3-bicycle2.png
subject-10,1,445,0.788883209228516,cat,cat,0,0445_scg_s10_0_cat_00_cat5-bear2.png
subject-10,1,446,1.25445699691772,dog,elephant,0,0446_scg_s10_0_elephant_00_elephant1-keyboard3.png
subject-10,1,447,0.861485958099365,car,car,0,0447_scg_s10_0_car_00_car4-elephant3.png
subject-10,1,448,1.02788901329041,cat,cat,0,0448_scg_s10_0_cat_00_cat5-dog3.png
subject-10,1,449,1.29334211349487,knife,knife,0,0449_scg_s10_0_knife_00_knife3-bear2.png
subject-10,1,450,1.31388783454895,bird,bird,0,0450_scg_s10_0_bird_00_bird8-bottle1.png
subject-10,1,451,1.23325490951538,bicycle,bicycle,0,0451_scg_s10_0_bicycle_00_bicycle6-car2.png
subject-10,1,452,1.4292471408844,car,car,0,0452_scg_s10_0_car_00_car1-airplane1.png
subject-10,1,453,0.781080961227417,bicycle,bicycle,0,0453_scg_s10_0_bicycle_00_bicycle1-bear1.png
subject-10,1,454,NaN,na,elephant,0,0454_scg_s10_0_elephant_00_elephant4-car3.png
subject-10,1,455,0.825999975204468,elephant,elephant,0,0455_scg_s10_0_elephant_00_elephant1-airplane2.png
subject-10,1,456,0.831773996353149,chair,chair,0,0456_scg_s10_0_chair_00_chair8-bear1.png
subject-10,1,457,1.1365180015564,airplane,airplane,0,0457_scg_s10_0_airplane_00_airplane4-airplane1.png
subject-10,1,458,1.32420301437378,airplane,knife,0,0458_scg_s10_0_knife_00_knife6-chair3.png
subject-10,1,459,1.17975687980652,bear,bear,0,0459_scg_s10_0_bear_00_bear8-bottle1.png
subject-10,1,460,1.17579293251038,dog,dog,0,0460_scg_s10_0_dog_00_dog5-knife2.png
subject-10,1,461,1.17915487289429,cat,cat,0,0461_scg_s10_0_cat_00_cat10-bottle1.png
subject-10,1,462,0.937371015548706,dog,dog,0,0462_scg_s10_0_dog_00_dog1-airplane3.png
subject-10,1,463,1.01141095161438,truck,truck,0,0463_scg_s10_0_truck_00_truck5-bird2.png
subject-10,1,464,0.801615953445435,bottle,bottle,0,0464_scg_s10_0_bottle_00_bottle3-boat3.png
subject-10,1,465,1.02058386802673,elephant,elephant,0,0465_scg_s10_0_elephant_00_elephant2-elephant3.png
subject-10,1,466,1.02437520027161,chair,chair,0,0466_scg_s10_0_chair_00_chair1-bear1.png
subject-10,1,467,0.952604055404663,bear,bear,0,0467_scg_s10_0_bear_00_bear7-bear2.png
subject-10,1,468,0.780557155609131,truck,truck,0,0468_scg_s10_0_truck_00_truck1-cat1.png
subject-10,1,469,1.20659208297729,dog,dog,0,0469_scg_s10_0_dog_00_dog6-cat1.png
subject-10,1,470,1.30192303657532,knife,boat,0,0470_scg_s10_0_boat_00_boat1-bicycle2.png
subject-10,1,471,0.783378839492798,bear,bear,0,0471_scg_s10_0_bear_00_bear4-boat2.png
subject-10,1,472,0.910737991333008,bottle,bottle,0,0472_scg_s10_0_bottle_00_bottle10-clock2.png
subject-10,1,473,0.816589832305908,oven,oven,0,0473_scg_s10_0_oven_00_oven2-boat3.png
subject-10,1,474,1.18033504486084,clock,clock,0,0474_scg_s10_0_clock_00_clock9-cat1.png
subject-10,1,475,1.18628096580505,bottle,bottle,0,0475_scg_s10_0_bottle_00_bottle6-bear2.png
subject-10,1,476,1.252357006073,truck,truck,0,0476_scg_s10_0_truck_00_truck5-cat3.png
subject-10,1,477,1.50032901763916,car,car,0,0477_scg_s10_0_car_00_car4-bear3.png
subject-10,1,478,0.871404886245728,bottle,bottle,0,0478_scg_s10_0_bottle_00_bottle5-elephant1.png
subject-10,1,479,1.32969808578491,bottle,bottle,0,0479_scg_s10_0_bottle_00_bottle1-keyboard3.png
subject-10,1,480,1.1792778968811,bear,bear,0,0480_scg_s10_0_bear_00_bear4-oven2.png
subject-10,1,481,NaN,na,boat,0,0481_scg_s10_0_boat_00_boat9-keyboard2.png
subject-10,1,482,0.996970891952515,bear,airplane,0,0482_scg_s10_0_airplane_00_airplane8-clock2.png
subject-10,1,483,1.08746981620789,bicycle,bicycle,0,0483_scg_s10_0_bicycle_00_bicycle5-car3.png
subject-10,1,484,1.05290102958679,elephant,elephant,0,0484_scg_s10_0_elephant_00_elephant6-car3.png
subject-10,1,485,1.17856597900391,knife,knife,0,0485_scg_s10_0_knife_00_knife6-airplane1.png
subject-10,1,486,0.774188995361328,bottle,bottle,0,0486_scg_s10_0_bottle_00_bottle9-elephant2.png
subject-10,1,487,0.940133810043335,elephant,elephant,0,0487_scg_s10_0_elephant_00_elephant4-oven1.png
subject-10,1,488,0.967164039611816,elephant,elephant,0,0488_scg_s10_0_elephant_00_elephant2-cat1.png
subject-10,1,489,1.00938701629639,oven,oven,0,0489_scg_s10_0_oven_00_oven5-airplane1.png
subject-10,1,490,0.853121042251587,cat,cat,0,0490_scg_s10_0_cat_00_cat2-truck3.png
subject-10,1,491,1.02665090560913,keyboard,keyboard,0,0491_scg_s10_0_keyboard_00_keyboard5-keyboard1.png
subject-10,1,492,0.7552490234375,chair,chair,0,0492_scg_s10_0_chair_00_chair2-knife1.png
subject-10,1,493,1.08924388885498,knife,knife,0,0493_scg_s10_0_knife_00_knife1-truck2.png
subject-10,1,494,0.645394802093506,oven,oven,0,0494_scg_s10_0_oven_00_oven1-cat1.png
subject-10,1,495,0.635377168655396,keyboard,keyboard,0,0495_scg_s10_0_keyboard_00_keyboard8-truck3.png
subject-10,1,496,0.805876016616821,keyboard,keyboard,0,0496_scg_s10_0_keyboard_00_keyboard4-cat2.png
subject-10,1,497,1.08851003646851,car,car,0,0497_scg_s10_0_car_00_car4-car2.png
subject-10,1,498,0.823724985122681,bear,bear,0,0498_scg_s10_0_bear_00_bear3-dog3.png
subject-10,1,499,1.04131102561951,car,car,0,0499_scg_s10_0_car_00_car5-bear3.png
subject-10,1,500,0.777310132980347,bird,bird,0,0500_scg_s10_0_bird_00_bird1-bicycle2.png
subject-10,1,501,1.07063102722168,cat,boat,0,0501_scg_s10_0_boat_00_boat7-bottle1.png
subject-10,1,502,0.66013503074646,oven,oven,0,0502_scg_s10_0_oven_00_oven6-truck1.png
subject-10,1,503,NaN,na,dog,0,0503_scg_s10_0_dog_00_dog5-truck2.png
subject-10,1,504,1.25193095207214,bird,bird,0,0504_scg_s10_0_bird_00_bird5-bicycle1.png
subject-10,1,505,0.750251054763794,keyboard,keyboard,0,0505_scg_s10_0_keyboard_00_keyboard3-bird3.png
subject-10,1,506,0.753704071044922,bicycle,bicycle,0,0506_scg_s10_0_bicycle_00_bicycle4-truck3.png
subject-10,1,507,0.873112916946411,knife,knife,0,0507_scg_s10_0_knife_00_knife6-bottle3.png
subject-10,1,508,1.50012493133545,car,car,0,0508_scg_s10_0_car_00_car4-bird1.png
subject-10,1,509,0.659124135971069,bottle,bottle,0,0509_scg_s10_0_bottle_00_bottle1-cat3.png
subject-10,1,510,0.83038592338562,chair,chair,0,0510_scg_s10_0_chair_00_chair9-bear1.png
subject-10,1,511,0.620337009429932,cat,cat,0,0511_scg_s10_0_cat_00_cat9-truck1.png
subject-10,1,512,0.910417079925537,elephant,elephant,0,0512_scg_s10_0_elephant_00_elephant10-bear1.png
subject-10,1,513,0.884464025497437,elephant,elephant,0,0513_scg_s10_0_elephant_00_elephant7-knife2.png
subject-10,1,514,0.674206018447876,knife,knife,0,0514_scg_s10_0_knife_00_knife8-boat1.png
subject-10,1,515,0.992355823516846,chair,chair,0,0515_scg_s10_0_chair_00_chair5-truck3.png
subject-10,1,516,0.998121023178101,dog,dog,0,0516_scg_s10_0_dog_00_dog5-car3.png
subject-10,1,517,0.872668981552124,cat,cat,0,0517_scg_s10_0_cat_00_cat4-bird2.png
subject-10,1,518,0.643853902816772,keyboard,keyboard,0,0518_scg_s10_0_keyboard_00_keyboard6-bicycle1.png
subject-10,1,519,0.787600040435791,elephant,elephant,0,0519_scg_s10_0_elephant_00_elephant3-keyboard2.png
subject-10,1,520,0.821180105209351,knife,boat,0,0520_scg_s10_0_boat_00_boat4-bicycle3.png
subject-10,1,521,0.840087175369263,airplane,airplane,0,0521_scg_s10_0_airplane_00_airplane9-truck1.png
subject-10,1,522,NaN,na,airplane,0,0522_scg_s10_0_airplane_00_airplane3-clock1.png
subject-10,1,523,1.05624413490295,knife,boat,0,0523_scg_s10_0_boat_00_boat1-bird3.png
subject-10,1,524,1.24410200119019,bicycle,bicycle,0,0524_scg_s10_0_bicycle_00_bicycle1-truck1.png
subject-10,1,525,1.02512001991272,bird,bird,0,0525_scg_s10_0_bird_00_bird9-chair1.png
subject-10,1,526,1.18420505523682,keyboard,boat,0,0526_scg_s10_0_boat_00_boat7-keyboard3.png
subject-10,1,527,1.08190011978149,dog,dog,0,0527_scg_s10_0_dog_00_dog3-knife3.png
subject-10,1,528,0.985882997512817,truck,truck,0,0528_scg_s10_0_truck_00_truck7-elephant2.png
subject-10,1,529,1.28962016105652,elephant,bear,0,0529_scg_s10_0_bear_00_bear3-keyboard2.png
subject-10,1,530,0.762689113616943,cat,cat,0,0530_scg_s10_0_cat_00_cat2-elephant1.png
subject-10,1,531,1.18276309967041,keyboard,keyboard,0,0531_scg_s10_0_keyboard_00_keyboard9-boat2.png
subject-10,1,532,0.864790916442871,airplane,airplane,0,0532_scg_s10_0_airplane_00_airplane3-airplane2.png
subject-10,1,533,0.768322944641113,truck,truck,0,0533_scg_s10_0_truck_00_truck6-boat2.png
subject-10,1,534,0.733644008636475,cat,cat,0,0534_scg_s10_0_cat_00_cat8-bear1.png
subject-10,1,535,0.722091913223267,bicycle,bicycle,0,0535_scg_s10_0_bicycle_00_bicycle4-boat1.png
subject-10,1,536,0.858247995376587,elephant,elephant,0,0536_scg_s10_0_elephant_00_elephant4-chair3.png
subject-10,1,537,0.737456083297729,cat,cat,0,0537_scg_s10_0_cat_00_cat9-knife2.png
subject-10,1,538,0.895140171051025,bottle,bottle,0,0538_scg_s10_0_bottle_00_bottle8-bottle3.png
subject-10,1,539,0.990922927856445,elephant,elephant,0,0539_scg_s10_0_elephant_00_elephant7-bottle3.png
subject-10,1,540,1.34061098098755,airplane,airplane,0,0540_scg_s10_0_airplane_00_airplane5-boat3.png
subject-10,1,541,0.700162887573242,clock,clock,0,0541_scg_s10_0_clock_00_clock3-elephant3.png
subject-10,1,542,0.74151611328125,cat,bird,0,0542_scg_s10_0_bird_00_bird7-bird2.png
subject-10,1,543,1.10753703117371,clock,boat,0,0543_scg_s10_0_boat_00_boat4-elephant2.png
subject-10,1,544,0.531255006790161,cat,cat,0,0544_scg_s10_0_cat_00_cat9-boat2.png
subject-10,1,545,0.764888048171997,airplane,airplane,0,0545_scg_s10_0_airplane_00_airplane1-bicycle2.png
subject-10,1,546,0.716476917266846,bicycle,bicycle,0,0546_scg_s10_0_bicycle_00_bicycle2-car2.png
subject-10,1,547,0.714991092681885,oven,oven,0,0547_scg_s10_0_oven_00_oven6-bear2.png
subject-10,1,548,0.826535940170288,oven,oven,0,0548_scg_s10_0_oven_00_oven3-truck1.png
subject-10,1,549,1.14485788345337,car,car,0,0549_scg_s10_0_car_00_car9-keyboard2.png
subject-10,1,550,0.712263822555542,car,car,0,0550_scg_s10_0_car_00_car7-elephant3.png
subject-10,1,551,1.03858089447021,chair,chair,0,0551_scg_s10_0_chair_00_chair1-truck3.png
subject-10,1,552,0.965765953063965,keyboard,keyboard,0,0552_scg_s10_0_keyboard_00_keyboard8-airplane2.png
subject-10,1,553,0.86114501953125,bottle,bottle,0,0553_scg_s10_0_bottle_00_bottle6-bicycle3.png
subject-10,1,554,1.01825499534607,bird,bird,0,0554_scg_s10_0_bird_00_bird6-truck2.png
subject-10,1,555,0.930506944656372,elephant,elephant,0,0555_scg_s10_0_elephant_00_elephant8-oven3.png
subject-10,1,556,1.45985794067383,car,bicycle,0,0556_scg_s10_0_bicycle_00_bicycle5-keyboard3.png
subject-10,1,557,0.91136908531189,elephant,elephant,0,0557_scg_s10_0_elephant_00_elephant1-oven2.png
subject-10,1,558,1.09129095077515,chair,chair,0,0558_scg_s10_0_chair_00_chair10-bird3.png
subject-10,1,559,0.982204914093018,bear,bear,0,0559_scg_s10_0_bear_00_bear4-car3.png
subject-10,1,560,1.25532293319702,knife,knife,0,0560_scg_s10_0_knife_00_knife2-cat3.png
subject-10,1,561,1.43518614768982,bear,bear,0,0561_scg_s10_0_bear_00_bear2-elephant1.png
subject-10,1,562,1.16361689567566,airplane,airplane,0,0562_scg_s10_0_airplane_00_airplane9-airplane2.png
subject-10,1,563,0.98302698135376,airplane,boat,0,0563_scg_s10_0_boat_00_boat8-bird2.png
subject-10,1,564,1.20302700996399,knife,knife,0,0564_scg_s10_0_knife_00_knife6-clock2.png
subject-10,1,565,0.785148143768311,truck,truck,0,0565_scg_s10_0_truck_00_truck7-chair2.png
subject-10,1,566,1.12651896476746,bear,elephant,0,0566_scg_s10_0_elephant_00_elephant2-keyboard3.png
subject-10,1,567,0.654139995574951,chair,chair,0,0567_scg_s10_0_chair_00_chair7-clock3.png
subject-10,1,568,0.820739984512329,cat,bird,0,0568_scg_s10_0_bird_00_bird7-bottle1.png
subject-10,1,569,0.55601692199707,clock,clock,0,0569_scg_s10_0_clock_00_clock6-car2.png
subject-10,1,570,0.889755964279175,boat,boat,0,0570_scg_s10_0_boat_00_boat5-airplane1.png
subject-10,1,571,0.879316806793213,chair,chair,0,0571_scg_s10_0_chair_00_chair3-dog2.png
subject-10,1,572,0.68787693977356,clock,clock,0,0572_scg_s10_0_clock_00_clock4-elephant2.png
subject-10,1,573,0.892399072647095,truck,truck,0,0573_scg_s10_0_truck_00_truck4-oven2.png
subject-10,1,574,1.0908350944519,boat,boat,0,0574_scg_s10_0_boat_00_boat6-cat1.png
subject-10,1,575,0.886261940002441,car,car,0,0575_scg_s10_0_car_00_car9-bicycle2.png
subject-10,1,576,0.667972087860107,bicycle,bicycle,0,0576_scg_s10_0_bicycle_00_bicycle9-airplane2.png
subject-10,1,577,1.42347097396851,chair,chair,0,0577_scg_s10_0_chair_00_chair5-bottle3.png
subject-10,1,578,1.18406200408936,dog,dog,0,0578_scg_s10_0_dog_00_dog4-oven1.png
subject-10,1,579,1.50015997886658,knife,knife,0,0579_scg_s10_0_knife_00_knife8-cat2.png
subject-10,1,580,1.49236798286438,bear,bear,0,0580_scg_s10_0_bear_00_bear10-clock1.png
subject-10,1,581,0.998059034347534,bird,bird,0,0581_scg_s10_0_bird_00_bird4-bicycle2.png
subject-10,1,582,1.46977806091309,dog,bear,0,0582_scg_s10_0_bear_00_bear3-car2.png
subject-10,1,583,0.658649921417236,clock,clock,0,0583_scg_s10_0_clock_00_clock10-bird3.png
subject-10,1,584,1.06318497657776,dog,dog,0,0584_scg_s10_0_dog_00_dog10-truck2.png
subject-10,1,585,1.20434379577637,clock,clock,0,0585_scg_s10_0_clock_00_clock5-airplane1.png
subject-10,1,586,1.17755794525146,cat,bear,0,0586_scg_s10_0_bear_00_bear4-knife1.png
subject-10,1,587,0.729475021362305,cat,cat,0,0587_scg_s10_0_cat_00_cat4-car2.png
subject-10,1,588,0.833401203155518,car,car,0,0588_scg_s10_0_car_00_car8-truck3.png
subject-10,1,589,1.0619330406189,bird,bird,0,0589_scg_s10_0_bird_00_bird5-dog2.png
subject-10,1,590,1.47132396697998,elephant,elephant,0,0590_scg_s10_0_elephant_00_elephant7-keyboard3.png
subject-10,1,591,1.0566930770874,airplane,boat,0,0591_scg_s10_0_boat_00_boat8-oven1.png
subject-10,1,592,1.11398601531982,clock,clock,0,0592_scg_s10_0_clock_00_clock6-knife2.png
subject-10,1,593,0.872382164001465,dog,dog,0,0593_scg_s10_0_dog_00_dog1-knife3.png
subject-10,1,594,1.1682460308075,car,car,0,0594_scg_s10_0_car_00_car7-bear1.png
subject-10,1,595,1.00344014167786,bicycle,bicycle,0,0595_scg_s10_0_bicycle_00_bicycle5-dog2.png
subject-10,1,596,0.790629148483276,truck,truck,0,0596_scg_s10_0_truck_00_truck6-cat2.png
subject-10,1,597,0.810325860977173,keyboard,keyboard,0,0597_scg_s10_0_keyboard_00_keyboard2-bicycle3.png
subject-10,1,598,1.39102101325989,bicycle,bicycle,0,0598_scg_s10_0_bicycle_00_bicycle9-bird3.png
subject-10,1,599,1.35595107078552,bird,bear,0,0599_scg_s10_0_bear_00_bear10-car2.png
subject-10,1,600,0.815944194793701,chair,chair,0,0600_scg_s10_0_chair_00_chair5-keyboard2.png
subject-10,1,601,1.50002598762512,elephant,elephant,0,0601_scg_s10_0_elephant_00_elephant9-chair2.png
subject-10,1,602,0.698577880859375,truck,truck,0,0602_scg_s10_0_truck_00_truck1-car3.png
subject-10,1,603,0.635151147842407,keyboard,keyboard,0,0603_scg_s10_0_keyboard_00_keyboard1-bird2.png
subject-10,1,604,1.05562400817871,knife,knife,0,0604_scg_s10_0_knife_00_knife10-oven3.png
subject-10,1,605,0.980765104293823,boat,boat,0,0605_scg_s10_0_boat_00_boat7-elephant3.png
subject-10,1,606,0.792593955993652,car,car,0,0606_scg_s10_0_car_00_car4-bottle1.png
subject-10,1,607,1.19689297676086,bicycle,bicycle,0,0607_scg_s10_0_bicycle_00_bicycle4-clock3.png
subject-10,1,608,0.986318111419678,knife,boat,0,0608_scg_s10_0_boat_00_boat1-elephant3.png
subject-10,1,609,1.19063496589661,boat,boat,0,0609_scg_s10_0_boat_00_boat7-cat3.png
subject-10,1,610,0.610755920410156,boat,boat,0,0610_scg_s10_0_boat_00_boat9-chair2.png
subject-10,1,611,1.32238698005676,chair,chair,0,0611_scg_s10_0_chair_00_chair6-elephant2.png
subject-10,1,612,0.974320888519287,bird,airplane,0,0612_scg_s10_0_airplane_00_airplane3-cat1.png
subject-10,1,613,0.862896203994751,elephant,elephant,0,0613_scg_s10_0_elephant_00_elephant6-bottle2.png
subject-10,1,614,1.0114049911499,bottle,bottle,0,0614_scg_s10_0_bottle_00_bottle6-dog3.png
subject-10,1,615,1.2313060760498,bear,truck,0,0615_scg_s10_0_truck_00_truck10-clock1.png
subject-10,1,616,1.29000997543335,keyboard,keyboard,0,0616_scg_s10_0_keyboard_00_keyboard3-car2.png
subject-10,1,617,0.663464069366455,clock,clock,0,0617_scg_s10_0_clock_00_clock6-clock2.png
subject-10,1,618,0.644466876983643,clock,clock,0,0618_scg_s10_0_clock_00_clock4-chair1.png
subject-10,1,619,0.986865997314453,clock,knife,0,0619_scg_s10_0_knife_00_knife7-chair2.png
subject-10,1,620,0.614728927612305,clock,clock,0,0620_scg_s10_0_clock_00_clock4-boat3.png
subject-10,1,621,0.634594917297363,keyboard,keyboard,0,0621_scg_s10_0_keyboard_00_keyboard4-truck3.png
subject-10,1,622,0.616357088088989,car,car,0,0622_scg_s10_0_car_00_car4-bicycle3.png
subject-10,1,623,0.849889993667603,elephant,elephant,0,0623_scg_s10_0_elephant_00_elephant7-car3.png
subject-10,1,624,0.787560939788818,bird,bird,0,0624_scg_s10_0_bird_00_bird8-boat3.png
subject-10,1,625,1.32827806472778,truck,truck,0,0625_scg_s10_0_truck_00_truck7-boat1.png
subject-10,1,626,1.10274600982666,dog,dog,0,0626_scg_s10_0_dog_00_dog8-oven3.png
subject-10,1,627,0.877174139022827,bicycle,bicycle,0,0627_scg_s10_0_bicycle_00_bicycle7-elephant2.png
subject-10,1,628,0.927110195159912,boat,boat,0,0628_scg_s10_0_boat_00_boat3-cat3.png
subject-10,1,629,0.716844797134399,bird,bird,0,0629_scg_s10_0_bird_00_bird7-keyboard3.png
subject-10,1,630,0.612467050552368,oven,oven,0,0630_scg_s10_0_oven_00_oven10-airplane2.png
subject-10,1,631,0.577974081039429,boat,boat,0,0631_scg_s10_0_boat_00_boat9-airplane2.png
subject-10,1,632,1.01545310020447,bicycle,bicycle,0,0632_scg_s10_0_bicycle_00_bicycle10-airplane2.png
subject-10,1,633,1.47122311592102,airplane,airplane,0,0633_scg_s10_0_airplane_00_airplane4-car1.png
subject-10,1,634,1.10200214385986,knife,boat,0,0634_scg_s10_0_boat_00_boat4-knife2.png
subject-10,1,635,0.634109973907471,bottle,bottle,0,0635_scg_s10_0_bottle_00_bottle9-keyboard1.png
subject-10,1,636,0.985260009765625,car,car,0,0636_scg_s10_0_car_00_car6-bottle1.png
subject-10,1,637,1.37212991714478,dog,dog,0,0637_scg_s10_0_dog_00_dog8-bear3.png
subject-10,1,638,0.808383941650391,bottle,bottle,0,0638_scg_s10_0_bottle_00_bottle4-truck1.png
subject-10,1,639,0.71968412399292,boat,boat,0,0639_scg_s10_0_boat_00_boat8-bottle1.png
subject-10,1,640,0.931740045547485,car,car,0,0640_scg_s10_0_car_00_car7-oven2.png
subject-10,1,641,1.00040698051453,dog,dog,0,0641_scg_s10_0_dog_00_dog9-cat1.png
subject-10,1,642,1.04320001602173,boat,knife,0,0642_scg_s10_0_knife_00_knife9-bottle2.png
subject-10,1,643,0.670801162719727,keyboard,keyboard,0,0643_scg_s10_0_keyboard_00_keyboard1-dog3.png
subject-10,1,644,1.36733102798462,bottle,bottle,0,0644_scg_s10_0_bottle_00_bottle7-cat2.png
subject-10,1,645,0.840836048126221,chair,chair,0,0645_scg_s10_0_chair_00_chair1-oven3.png
subject-10,1,646,1.46637105941772,truck,oven,0,0646_scg_s10_0_oven_00_oven6-knife3.png
subject-10,1,647,1.21048283576965,oven,knife,0,0647_scg_s10_0_knife_00_knife10-dog1.png
subject-10,1,648,0.884017944335938,elephant,elephant,0,0648_scg_s10_0_elephant_00_elephant4-bicycle2.png
subject-10,1,649,0.910645008087158,keyboard,airplane,0,0649_scg_s10_0_airplane_00_airplane9-knife3.png
subject-10,1,650,0.730703115463257,bottle,bottle,0,0650_scg_s10_0_bottle_00_bottle1-car1.png
subject-10,1,651,1.14280700683594,oven,dog,0,0651_scg_s10_0_dog_00_dog6-truck2.png
subject-10,1,652,0.8404541015625,bear,bear,0,0652_scg_s10_0_bear_00_bear8-airplane1.png
subject-10,1,653,1.1899631023407,bear,bear,0,0653_scg_s10_0_bear_00_bear6-clock1.png
subject-10,1,654,0.747839212417603,keyboard,keyboard,0,0654_scg_s10_0_keyboard_00_keyboard10-boat2.png
subject-10,1,655,0.797323942184448,keyboard,keyboard,0,0655_scg_s10_0_keyboard_00_keyboard7-car3.png
subject-10,1,656,1.50027704238892,bear,bear,0,0656_scg_s10_0_bear_00_bear7-oven3.png
subject-10,1,657,1.29443097114563,car,boat,0,0657_scg_s10_0_boat_00_boat9-bird1.png
subject-10,1,658,0.967526912689209,car,boat,0,0658_scg_s10_0_boat_00_boat2-bear3.png
subject-10,1,659,1.05036497116089,bicycle,bicycle,0,0659_scg_s10_0_bicycle_00_bicycle7-bicycle2.png
subject-10,1,660,0.761626005172729,cat,cat,0,0660_scg_s10_0_cat_00_cat7-knife2.png
subject-10,1,661,0.957564115524292,car,boat,0,0661_scg_s10_0_boat_00_boat1-car2.png
subject-10,1,662,1.06095790863037,cat,cat,0,0662_scg_s10_0_cat_00_cat1-chair2.png
subject-10,1,663,0.783498048782349,bicycle,bicycle,0,0663_scg_s10_0_bicycle_00_bicycle8-truck1.png
subject-10,1,664,0.885365009307861,truck,truck,0,0664_scg_s10_0_truck_00_truck9-boat3.png
subject-10,1,665,0.959022998809814,keyboard,knife,0,0665_scg_s10_0_knife_00_knife5-cat2.png
subject-10,1,666,0.90935492515564,chair,chair,0,0666_scg_s10_0_chair_00_chair8-elephant1.png
subject-10,1,667,1.01268982887268,knife,knife,0,0667_scg_s10_0_knife_00_knife4-knife2.png
subject-10,1,668,0.862383842468262,oven,oven,0,0668_scg_s10_0_oven_00_oven6-chair3.png
subject-10,1,669,1.17923188209534,dog,dog,0,0669_scg_s10_0_dog_00_dog4-bird1.png
subject-10,1,670,1.02848505973816,bicycle,bicycle,0,0670_scg_s10_0_bicycle_00_bicycle9-car1.png
subject-10,1,671,0.89670205116272,airplane,airplane,0,0671_scg_s10_0_airplane_00_airplane9-car2.png
subject-10,1,672,0.975769996643066,boat,boat,0,0672_scg_s10_0_boat_00_boat10-boat3.png
subject-10,1,673,0.582046031951904,chair,chair,0,0673_scg_s10_0_chair_00_chair5-cat3.png
subject-10,1,674,0.885785102844238,chair,dog,0,0674_scg_s10_0_dog_00_dog8-chair3.png
subject-10,1,675,1.2250771522522,elephant,elephant,0,0675_scg_s10_0_elephant_00_elephant2-bottle3.png
subject-10,1,676,0.823072910308838,cat,cat,0,0676_scg_s10_0_cat_00_cat6-clock3.png
subject-10,1,677,0.91439414024353,bird,bird,0,0677_scg_s10_0_bird_00_bird8-chair1.png
subject-10,1,678,0.884827136993408,oven,knife,0,0678_scg_s10_0_knife_00_knife5-oven2.png
subject-10,1,679,0.605589866638184,chair,chair,0,0679_scg_s10_0_chair_00_chair8-car1.png
subject-10,1,680,0.571050882339478,bicycle,bicycle,0,0680_scg_s10_0_bicycle_00_bicycle5-elephant1.png
subject-10,1,681,1.1814591884613,bird,bird,0,0681_scg_s10_0_bird_00_bird4-airplane1.png
subject-10,1,682,0.664677143096924,airplane,airplane,0,0682_scg_s10_0_airplane_00_airplane10-car3.png
subject-10,1,683,0.685932874679565,bicycle,bicycle,0,0683_scg_s10_0_bicycle_00_bicycle1-chair1.png
subject-10,1,684,0.635231971740723,cat,cat,0,0684_scg_s10_0_cat_00_cat5-boat1.png
subject-10,1,685,0.601762056350708,clock,clock,0,0685_scg_s10_0_clock_00_clock7-cat2.png
subject-10,1,686,0.905836820602417,knife,knife,0,0686_scg_s10_0_knife_00_knife3-cat1.png
subject-10,1,687,0.701786041259766,oven,oven,0,0687_scg_s10_0_oven_00_oven1-bird3.png
subject-10,1,688,0.716032028198242,clock,clock,0,0688_scg_s10_0_clock_00_clock4-bird3.png
subject-10,1,689,0.857438087463379,knife,knife,0,0689_scg_s10_0_knife_00_knife7-bottle3.png
subject-10,1,690,0.815406084060669,bear,bear,0,0690_scg_s10_0_bear_00_bear3-bird3.png
subject-10,1,691,1.2585620880127,boat,boat,0,0691_scg_s10_0_boat_00_boat8-elephant1.png
subject-10,1,692,0.764178037643433,elephant,elephant,0,0692_scg_s10_0_elephant_00_elephant3-chair1.png
subject-10,1,693,0.613772869110107,bicycle,bicycle,0,0693_scg_s10_0_bicycle_00_bicycle4-chair2.png
subject-10,1,694,0.801587104797363,bear,elephant,0,0694_scg_s10_0_elephant_00_elephant6-bird1.png
subject-10,1,695,0.868046045303345,car,car,0,0695_scg_s10_0_car_00_car8-clock2.png
subject-10,1,696,1.49382400512695,boat,chair,0,0696_scg_s10_0_chair_00_chair8-keyboard3.png
subject-10,1,697,0.77562689781189,car,car,0,0697_scg_s10_0_car_00_car4-oven2.png
subject-10,1,698,1.50043082237244,bicycle,bicycle,0,0698_scg_s10_0_bicycle_00_bicycle1-bicycle3.png
subject-10,1,699,1.00430202484131,car,car,0,0699_scg_s10_0_car_00_car8-bear1.png
subject-10,1,700,0.740589141845703,airplane,airplane,0,0700_scg_s10_0_airplane_00_airplane10-elephant1.png
subject-10,1,701,0.752175092697144,boat,boat,0,0701_scg_s10_0_boat_00_boat2-keyboard1.png
subject-10,1,702,0.625704050064087,knife,knife,0,0702_scg_s10_0_knife_00_knife8-car2.png
subject-10,1,703,0.859336853027344,knife,dog,0,0703_scg_s10_0_dog_00_dog4-truck2.png
subject-10,1,704,0.93383002281189,chair,chair,0,0704_scg_s10_0_chair_00_chair6-truck2.png
subject-10,1,705,1.10500192642212,knife,chair,0,0705_scg_s10_0_chair_00_chair4-keyboard2.png
subject-10,1,706,0.839509010314941,oven,oven,0,0706_scg_s10_0_oven_00_oven8-knife2.png
subject-10,1,707,0.598862886428833,truck,truck,0,0707_scg_s10_0_truck_00_truck7-bear2.png
subject-10,1,708,0.879162073135376,bird,bird,0,0708_scg_s10_0_bird_00_bird4-clock1.png
subject-10,1,709,0.692919015884399,bottle,bottle,0,0709_scg_s10_0_bottle_00_bottle5-chair1.png
subject-10,1,710,0.786525011062622,chair,chair,0,0710_scg_s10_0_chair_00_chair8-boat1.png
subject-10,1,711,0.760619163513184,truck,truck,0,0711_scg_s10_0_truck_00_truck8-bottle2.png
subject-10,1,712,0.650148153305054,chair,chair,0,0712_scg_s10_0_chair_00_chair4-oven2.png
subject-10,1,713,0.826137065887451,bottle,bottle,0,0713_scg_s10_0_bottle_00_bottle9-car3.png
subject-10,1,714,0.837258815765381,car,car,0,0714_scg_s10_0_car_00_car5-knife2.png
subject-10,1,715,1.15425682067871,bottle,bottle,0,0715_scg_s10_0_bottle_00_bottle2-car2.png
subject-10,1,716,0.752203226089478,airplane,airplane,0,0716_scg_s10_0_airplane_00_airplane1-elephant1.png
subject-10,1,717,1.34061193466187,car,cat,0,0717_scg_s10_0_cat_00_cat4-truck3.png
subject-10,1,718,0.83038592338562,airplane,airplane,0,0718_scg_s10_0_airplane_00_airplane5-bicycle1.png
subject-10,1,719,0.697087049484253,bicycle,bicycle,0,0719_scg_s10_0_bicycle_00_bicycle5-cat1.png
subject-10,1,720,0.700444936752319,elephant,elephant,0,0720_scg_s10_0_elephant_00_elephant2-airplane3.png
subject-10,1,721,0.79548192024231,truck,truck,0,0721_scg_s10_0_truck_00_truck5-truck1.png
subject-10,1,722,1.2614529132843,keyboard,keyboard,0,0722_scg_s10_0_keyboard_00_keyboard4-oven2.png
subject-10,1,723,0.941796064376831,elephant,elephant,0,0723_scg_s10_0_elephant_00_elephant4-bird1.png
subject-10,1,724,0.946607112884521,cat,cat,0,0724_scg_s10_0_cat_00_cat4-knife1.png
subject-10,1,725,0.496785879135132,clock,clock,0,0725_scg_s10_0_clock_00_clock8-airplane2.png
subject-10,1,726,0.855097055435181,airplane,airplane,0,0726_scg_s10_0_airplane_00_airplane10-cat2.png
subject-10,1,727,0.758719921112061,cat,cat,0,0727_scg_s10_0_cat_00_cat5-airplane2.png
subject-10,1,728,0.662543058395386,clock,clock,0,0728_scg_s10_0_clock_00_clock8-truck2.png
subject-10,1,729,0.829005002975464,chair,chair,0,0729_scg_s10_0_chair_00_chair10-bottle3.png
subject-10,1,730,0.986320018768311,airplane,airplane,0,0730_scg_s10_0_airplane_00_airplane7-keyboard1.png
subject-10,1,731,0.605731010437012,chair,chair,0,0731_scg_s10_0_chair_00_chair7-bottle1.png
subject-10,1,732,0.562587022781372,truck,truck,0,0732_scg_s10_0_truck_00_truck2-boat3.png
subject-10,1,733,0.893716096878052,boat,bird,0,0733_scg_s10_0_bird_00_bird7-car2.png
subject-10,1,734,0.851481914520264,elephant,bear,0,0734_scg_s10_0_bear_00_bear3-truck3.png
subject-10,1,735,0.771300077438354,cat,cat,0,0735_scg_s10_0_cat_00_cat1-airplane1.png
subject-10,1,736,1.0827739238739,elephant,elephant,0,0736_scg_s10_0_elephant_00_elephant2-truck2.png
subject-10,1,737,0.632659912109375,oven,oven,0,0737_scg_s10_0_oven_00_oven9-oven1.png
subject-10,1,738,1.14483308792114,bird,bird,0,0738_scg_s10_0_bird_00_bird5-cat2.png
subject-10,1,739,0.947798013687134,boat,boat,0,0739_scg_s10_0_boat_00_boat5-boat3.png
subject-10,1,740,0.630059957504272,keyboard,keyboard,0,0740_scg_s10_0_keyboard_00_keyboard1-clock1.png
subject-10,1,741,0.838721036911011,clock,clock,0,0741_scg_s10_0_clock_00_clock7-car1.png
subject-10,1,742,1.3965060710907,keyboard,knife,0,0742_scg_s10_0_knife_00_knife10-chair1.png
subject-10,1,743,0.778569936752319,airplane,airplane,0,0743_scg_s10_0_airplane_00_airplane7-car1.png
subject-10,1,744,0.661017894744873,oven,oven,0,0744_scg_s10_0_oven_00_oven5-elephant1.png
subject-10,1,745,0.724432945251465,bottle,bottle,0,0745_scg_s10_0_bottle_00_bottle8-dog2.png
subject-10,1,746,1.19152688980103,car,boat,0,0746_scg_s10_0_boat_00_boat3-clock3.png
subject-10,1,747,1.12513303756714,cat,bear,0,0747_scg_s10_0_bear_00_bear6-bottle3.png
subject-10,1,748,0.555318117141724,oven,oven,0,0748_scg_s10_0_oven_00_oven2-dog3.png
subject-10,1,749,0.711084127426147,chair,chair,0,0749_scg_s10_0_chair_00_chair2-bear2.png
subject-10,1,750,0.768293857574463,bear,bear,0,0750_scg_s10_0_bear_00_bear5-bird1.png
subject-10,1,751,0.628970146179199,bottle,bottle,0,0751_scg_s10_0_bottle_00_bottle5-bird3.png
subject-10,1,752,1.25442099571228,airplane,airplane,0,0752_scg_s10_0_airplane_00_airplane6-bear3.png
subject-10,1,753,0.97127890586853,airplane,airplane,0,0753_scg_s10_0_airplane_00_airplane8-bird1.png
subject-10,1,754,1.50028014183044,knife,boat,0,0754_scg_s10_0_boat_00_boat6-bottle2.png
subject-10,1,755,0.849240064620972,airplane,airplane,0,0755_scg_s10_0_airplane_00_airplane10-boat3.png
subject-10,1,756,0.56902289390564,clock,clock,0,0756_scg_s10_0_clock_00_clock8-cat1.png
subject-10,1,757,0.91083288192749,car,car,0,0757_scg_s10_0_car_00_car3-bird2.png
subject-10,1,758,1.09846186637878,bear,bear,0,0758_scg_s10_0_bear_00_bear2-dog1.png
subject-10,1,759,1.01863193511963,bear,bear,0,0759_scg_s10_0_bear_00_bear10-keyboard3.png
subject-10,1,760,0.676873922348022,bottle,bottle,0,0760_scg_s10_0_bottle_00_bottle2-bottle3.png
subject-10,1,761,0.934355020523071,airplane,airplane,0,0761_scg_s10_0_airplane_00_airplane7-bottle3.png
subject-10,1,762,0.870596885681152,oven,oven,0,0762_scg_s10_0_oven_00_oven9-bear2.png
subject-10,1,763,1.2091920375824,truck,truck,0,0763_scg_s10_0_truck_00_truck3-oven2.png
subject-10,1,764,1.26718306541443,car,car,0,0764_scg_s10_0_car_00_car7-airplane2.png
subject-10,1,765,1.27810120582581,airplane,knife,0,0765_scg_s10_0_knife_00_knife6-truck1.png
subject-10,1,766,0.944883108139038,bird,bird,0,0766_scg_s10_0_bird_00_bird7-boat1.png
subject-10,1,767,0.818587064743042,dog,dog,0,0767_scg_s10_0_dog_00_dog8-dog3.png
subject-10,1,768,0.738776922225952,bicycle,bicycle,0,0768_scg_s10_0_bicycle_00_bicycle8-bear2.png
subject-10,1,769,0.75832200050354,bottle,bottle,0,0769_scg_s10_0_bottle_00_bottle2-chair3.png
subject-10,1,770,0.770408868789673,oven,oven,0,0770_scg_s10_0_oven_00_oven3-bottle3.png
subject-10,1,771,0.744595050811768,bottle,bottle,0,0771_scg_s10_0_bottle_00_bottle8-bicycle1.png
subject-10,1,772,1.28390192985535,cat,cat,0,0772_scg_s10_0_cat_00_cat2-knife3.png
subject-10,1,773,0.944344997406006,cat,knife,0,0773_scg_s10_0_knife_00_knife4-oven2.png
subject-10,1,774,1.40796494483948,airplane,elephant,0,0774_scg_s10_0_elephant_00_elephant9-airplane2.png
subject-10,1,775,0.765791177749634,car,car,0,0775_scg_s10_0_car_00_car8-chair1.png
subject-10,1,776,0.863166093826294,truck,truck,0,0776_scg_s10_0_truck_00_truck2-car3.png
subject-10,1,777,1.23527812957764,elephant,elephant,0,0777_scg_s10_0_elephant_00_elephant5-bicycle3.png
subject-10,1,778,1.03036904335022,bird,cat,0,0778_scg_s10_0_cat_00_cat10-bicycle1.png
subject-10,1,779,0.604631900787354,truck,truck,0,0779_scg_s10_0_truck_00_truck2-bicycle2.png
subject-10,1,780,0.790893793106079,bottle,bottle,0,0780_scg_s10_0_bottle_00_bottle7-truck2.png
subject-10,1,781,1.00302410125732,chair,chair,0,0781_scg_s10_0_chair_00_chair10-car2.png
subject-10,1,782,1.3204391002655,clock,clock,0,0782_scg_s10_0_clock_00_clock9-keyboard2.png
subject-10,1,783,1.01773810386658,bird,bird,0,0783_scg_s10_0_bird_00_bird5-bear3.png
subject-10,1,784,0.554404020309448,airplane,airplane,0,0784_scg_s10_0_airplane_00_airplane10-airplane1.png
subject-10,1,785,0.641727924346924,bottle,bottle,0,0785_scg_s10_0_bottle_00_bottle5-keyboard2.png
subject-10,1,786,0.637407064437866,bicycle,bicycle,0,0786_scg_s10_0_bicycle_00_bicycle8-chair2.png
subject-10,1,787,0.779846906661987,clock,clock,0,0787_scg_s10_0_clock_00_clock10-dog3.png
subject-10,1,788,0.668385982513428,oven,oven,0,0788_scg_s10_0_oven_00_oven9-airplane2.png
subject-10,1,789,1.25609707832336,truck,boat,0,0789_scg_s10_0_boat_00_boat3-dog3.png
subject-10,1,790,0.873986959457397,boat,boat,0,0790_scg_s10_0_boat_00_boat1-bear1.png
subject-10,1,791,1.07254600524902,bird,bird,0,0791_scg_s10_0_bird_00_bird6-airplane2.png
subject-10,1,792,0.943367958068848,bottle,bottle,0,0792_scg_s10_0_bottle_00_bottle9-cat2.png
subject-10,1,793,1.04756593704224,elephant,elephant,0,0793_scg_s10_0_elephant_00_elephant8-elephant1.png
subject-10,1,794,0.791536808013916,bird,airplane,0,0794_scg_s10_0_airplane_00_airplane7-cat3.png
subject-10,1,795,0.819794893264771,cat,cat,0,0795_scg_s10_0_cat_00_cat1-oven1.png
subject-10,1,796,1.16169786453247,car,car,0,0796_scg_s10_0_car_00_car7-dog3.png
subject-10,1,797,0.91291618347168,bicycle,bicycle,0,0797_scg_s10_0_bicycle_00_bicycle4-keyboard3.png
subject-10,1,798,0.830703020095825,bear,bear,0,0798_scg_s10_0_bear_00_bear10-truck1.png
subject-10,1,799,1.26409697532654,bird,bird,0,0799_scg_s10_0_bird_00_bird2-dog2.png
subject-10,1,800,0.916474103927612,knife,knife,0,0800_scg_s10_0_knife_00_knife3-knife1.png
subject-10,1,801,1.13712906837463,knife,knife,0,0801_scg_s10_0_knife_00_knife3-keyboard3.png
subject-10,1,802,0.826864004135132,clock,clock,0,0802_scg_s10_0_clock_00_clock7-bear2.png
subject-10,1,803,0.852264881134033,knife,knife,0,0803_scg_s10_0_knife_00_knife9-bear3.png
subject-10,1,804,0.734917879104614,car,car,0,0804_scg_s10_0_car_00_car3-dog2.png
subject-10,1,805,0.662800788879395,bicycle,bicycle,0,0805_scg_s10_0_bicycle_00_bicycle2-bird3.png
subject-10,1,806,0.758961915969849,bicycle,bicycle,0,0806_scg_s10_0_bicycle_00_bicycle6-airplane2.png
subject-10,1,807,1.2004759311676,knife,boat,0,0807_scg_s10_0_boat_00_boat6-bicycle2.png
subject-10,1,808,0.919719934463501,oven,oven,0,0808_scg_s10_0_oven_00_oven4-chair1.png
subject-10,1,809,0.869868993759155,chair,chair,0,0809_scg_s10_0_chair_00_chair10-cat1.png
subject-10,1,810,0.651890993118286,knife,knife,0,0810_scg_s10_0_knife_00_knife8-truck3.png
subject-10,1,811,0.717756032943726,bottle,bottle,0,0811_scg_s10_0_bottle_00_bottle7-oven2.png
subject-10,1,812,0.967590808868408,bird,bird,0,0812_scg_s10_0_bird_00_bird6-car3.png
subject-10,1,813,0.918113946914673,bottle,bottle,0,0813_scg_s10_0_bottle_00_bottle7-bear1.png
subject-10,1,814,1.22937703132629,cat,cat,0,0814_scg_s10_0_cat_00_cat9-bottle2.png
subject-10,1,815,0.640618801116943,oven,oven,0,0815_scg_s10_0_oven_00_oven2-truck3.png
subject-10,1,816,0.69844913482666,knife,knife,0,0816_scg_s10_0_knife_00_knife9-airplane2.png
subject-10,1,817,0.986550807952881,keyboard,keyboard,0,0817_scg_s10_0_keyboard_00_keyboard3-elephant2.png
subject-10,1,818,0.745973110198975,knife,knife,0,0818_scg_s10_0_knife_00_knife1-car3.png
subject-10,1,819,0.904175996780396,bicycle,bicycle,0,0819_scg_s10_0_bicycle_00_bicycle2-knife2.png
subject-10,1,820,1.09923005104065,truck,truck,0,0820_scg_s10_0_truck_00_truck3-dog3.png
subject-10,1,821,0.744121074676514,bottle,bottle,0,0821_scg_s10_0_bottle_00_bottle5-boat1.png
subject-10,1,822,1.05563902854919,car,car,0,0822_scg_s10_0_car_00_car7-clock1.png
subject-10,1,823,1.10524106025696,chair,chair,0,0823_scg_s10_0_chair_00_chair1-airplane2.png
subject-10,1,824,0.733455896377563,bottle,bottle,0,0824_scg_s10_0_bottle_00_bottle10-car1.png
subject-10,1,825,0.661486864089966,boat,boat,0,0825_scg_s10_0_boat_00_boat9-dog2.png
subject-10,1,826,1.12809205055237,bird,bird,0,0826_scg_s10_0_bird_00_bird2-airplane3.png
subject-10,1,827,0.92405104637146,chair,chair,0,0827_scg_s10_0_chair_00_chair6-bird2.png
subject-10,1,828,1.05306506156921,oven,airplane,0,0828_scg_s10_0_airplane_00_airplane8-oven2.png
subject-10,1,829,0.550972938537598,truck,truck,0,0829_scg_s10_0_truck_00_truck2-bottle3.png
subject-10,1,830,0.64065408706665,bird,bird,0,0830_scg_s10_0_bird_00_bird3-cat1.png
subject-10,1,831,0.582973003387451,elephant,elephant,0,0831_scg_s10_0_elephant_00_elephant1-car3.png
subject-10,1,832,0.656507015228271,bicycle,bicycle,0,0832_scg_s10_0_bicycle_00_bicycle3-bird1.png
subject-10,1,833,0.79877781867981,bird,bird,0,0833_scg_s10_0_bird_00_bird8-elephant1.png
subject-10,1,834,0.588399887084961,cat,cat,0,0834_scg_s10_0_cat_00_cat1-car2.png
subject-10,1,835,1.34436917304993,bird,boat,0,0835_scg_s10_0_boat_00_boat6-clock2.png
subject-10,1,836,0.649816036224365,oven,oven,0,0836_scg_s10_0_oven_00_oven9-boat2.png
subject-10,1,837,0.900225162506104,knife,boat,0,0837_scg_s10_0_boat_00_boat4-bird1.png
subject-10,1,838,1.05817008018494,dog,dog,0,0838_scg_s10_0_dog_00_dog9-chair2.png
subject-10,1,839,0.871989011764526,oven,oven,0,0839_scg_s10_0_oven_00_oven4-knife2.png
subject-10,1,840,0.859561920166016,bottle,bottle,0,0840_scg_s10_0_bottle_00_bottle9-oven2.png
subject-10,1,841,1.19273281097412,clock,knife,0,0841_scg_s10_0_knife_00_knife3-clock2.png
subject-10,1,842,0.49888801574707,cat,cat,0,0842_scg_s10_0_cat_00_cat1-cat3.png
subject-10,1,843,0.566365003585815,boat,boat,0,0843_scg_s10_0_boat_00_boat5-knife2.png
subject-10,1,844,1.00195980072021,knife,knife,0,0844_scg_s10_0_knife_00_knife7-car2.png
subject-10,1,845,0.838421106338501,knife,knife,0,0845_scg_s10_0_knife_00_knife7-boat3.png
subject-10,1,846,0.75036096572876,bottle,bottle,0,0846_scg_s10_0_bottle_00_bottle9-bicycle1.png
subject-10,1,847,NaN,na,boat,0,0847_scg_s10_0_boat_00_boat6-bear1.png
subject-10,1,848,1.20406603813171,clock,boat,0,0848_scg_s10_0_boat_00_boat1-chair3.png
subject-10,1,849,0.998073101043701,knife,airplane,0,0849_scg_s10_0_airplane_00_airplane4-truck2.png
subject-10,1,850,0.724570989608765,bicycle,bicycle,0,0850_scg_s10_0_bicycle_00_bicycle4-cat1.png
subject-10,1,851,1.16016006469727,oven,oven,0,0851_scg_s10_0_oven_00_oven4-bicycle2.png
subject-10,1,852,0.755671977996826,cat,cat,0,0852_scg_s10_0_cat_00_cat1-boat1.png
subject-10,1,853,0.859606981277466,dog,dog,0,0853_scg_s10_0_dog_00_dog9-airplane3.png
subject-10,1,854,0.62490701675415,elephant,elephant,0,0854_scg_s10_0_elephant_00_elephant5-truck1.png
subject-10,1,855,0.807640075683594,bicycle,bicycle,0,0855_scg_s10_0_bicycle_00_bicycle7-oven1.png
subject-10,1,856,1.11239719390869,oven,keyboard,0,0856_scg_s10_0_keyboard_00_keyboard10-oven3.png
subject-10,1,857,0.739267110824585,elephant,elephant,0,0857_scg_s10_0_elephant_00_elephant8-airplane3.png
subject-10,1,858,0.628781080245972,bicycle,bicycle,0,0858_scg_s10_0_bicycle_00_bicycle10-dog3.png
subject-10,1,859,0.763240814208984,oven,oven,0,0859_scg_s10_0_oven_00_oven4-truck3.png
subject-10,1,860,0.866773128509521,airplane,airplane,0,0860_scg_s10_0_airplane_00_airplane5-bear2.png
subject-10,1,861,0.848104953765869,truck,truck,0,0861_scg_s10_0_truck_00_truck8-elephant1.png
subject-10,1,862,0.652599811553955,clock,clock,0,0862_scg_s10_0_clock_00_clock2-bicycle1.png
subject-10,1,863,0.995945930480957,elephant,elephant,0,0863_scg_s10_0_elephant_00_elephant9-dog3.png
subject-10,1,864,0.723675012588501,clock,clock,0,0864_scg_s10_0_clock_00_clock1-truck3.png
subject-10,1,865,1.24259901046753,elephant,elephant,0,0865_scg_s10_0_elephant_00_elephant8-truck3.png
subject-10,1,866,1.45415902137756,truck,truck,0,0866_scg_s10_0_truck_00_truck3-knife2.png
subject-10,1,867,0.636273145675659,airplane,airplane,0,0867_scg_s10_0_airplane_00_airplane9-boat1.png
subject-10,1,868,0.725388050079346,cat,cat,0,0868_scg_s10_0_cat_00_cat7-boat3.png
subject-10,1,869,0.905612945556641,airplane,boat,0,0869_scg_s10_0_boat_00_boat6-knife2.png
subject-10,1,870,0.548850059509277,chair,chair,0,0870_scg_s10_0_chair_00_chair2-keyboard2.png
subject-10,1,871,0.837615966796875,oven,oven,0,0871_scg_s10_0_oven_00_oven2-oven3.png
subject-10,1,872,0.743386030197144,cat,cat,0,0872_scg_s10_0_cat_00_cat9-cat3.png
subject-10,1,873,0.70878791809082,knife,boat,0,0873_scg_s10_0_boat_00_boat4-dog2.png
subject-10,1,874,0.88798999786377,bicycle,bicycle,0,0874_scg_s10_0_bicycle_00_bicycle3-oven3.png
subject-10,1,875,0.716063976287842,chair,chair,0,0875_scg_s10_0_chair_00_chair8-oven1.png
subject-10,1,876,0.803853034973145,elephant,elephant,0,0876_scg_s10_0_elephant_00_elephant5-chair3.png
subject-10,1,877,0.770303010940552,cat,cat,0,0877_scg_s10_0_cat_00_cat4-chair2.png
subject-10,1,878,1.08923506736755,bear,bear,0,0878_scg_s10_0_bear_00_bear2-knife2.png
subject-10,1,879,0.80190896987915,dog,dog,0,0879_scg_s10_0_dog_00_dog9-boat1.png
subject-10,1,880,0.891414165496826,boat,boat,0,0880_scg_s10_0_boat_00_boat3-chair3.png
subject-10,1,881,0.835606098175049,airplane,airplane,0,0881_scg_s10_0_airplane_00_airplane5-knife1.png
subject-10,1,882,0.731868028640747,boat,keyboard,0,0882_scg_s10_0_keyboard_00_keyboard2-knife1.png
subject-10,1,883,0.989591836929321,dog,dog,0,0883_scg_s10_0_dog_00_dog6-elephant2.png
subject-10,1,884,0.847043991088867,elephant,elephant,0,0884_scg_s10_0_elephant_00_elephant9-boat3.png
subject-10,1,885,0.711678028106689,oven,oven,0,0885_scg_s10_0_oven_00_oven10-truck2.png
subject-10,1,886,1.0757749080658,bear,bear,0,0886_scg_s10_0_bear_00_bear8-elephant2.png
subject-10,1,887,0.588794946670532,bear,bear,0,0887_scg_s10_0_bear_00_bear3-airplane1.png
subject-10,1,888,1.22308778762817,cat,cat,0,0888_scg_s10_0_cat_00_cat1-keyboard3.png
subject-10,1,889,0.628849983215332,bottle,bottle,0,0889_scg_s10_0_bottle_00_bottle6-bottle3.png
subject-10,1,890,1.37653279304504,clock,clock,0,0890_scg_s10_0_clock_00_clock8-boat1.png
subject-10,1,891,0.782512187957764,bird,bird,0,0891_scg_s10_0_bird_00_bird3-bird2.png
subject-10,1,892,0.756340980529785,bicycle,bicycle,0,0892_scg_s10_0_bicycle_00_bicycle9-knife3.png
subject-10,1,893,1.03638696670532,boat,knife,0,0893_scg_s10_0_knife_00_knife6-boat3.png
subject-10,1,894,0.618231058120728,oven,oven,0,0894_scg_s10_0_oven_00_oven9-chair1.png
subject-10,1,895,0.716104984283447,bear,bear,0,0895_scg_s10_0_bear_00_bear5-oven3.png
subject-10,1,896,0.843621015548706,cat,cat,0,0896_scg_s10_0_cat_00_cat2-car3.png
subject-10,1,897,0.639519929885864,keyboard,keyboard,0,0897_scg_s10_0_keyboard_00_keyboard8-dog3.png
subject-10,1,898,0.843389987945557,bear,bear,0,0898_scg_s10_0_bear_00_bear3-cat1.png
subject-10,1,899,0.694964170455933,boat,boat,0,0899_scg_s10_0_boat_00_boat9-cat3.png
subject-10,1,900,0.866466999053955,car,car,0,0900_scg_s10_0_car_00_car5-oven2.png
subject-10,1,901,1.15469694137573,airplane,airplane,0,0901_scg_s10_0_airplane_00_airplane1-chair2.png
subject-10,1,902,1.12072992324829,car,car,0,0902_scg_s10_0_car_00_car2-chair1.png
subject-10,1,903,1.10269999504089,boat,bear,0,0903_scg_s10_0_bear_00_bear6-bird2.png
subject-10,1,904,0.947415113449097,car,car,0,0904_scg_s10_0_car_00_car6-elephant3.png
subject-10,1,905,0.607423067092896,boat,airplane,0,0905_scg_s10_0_airplane_00_airplane3-chair3.png
subject-10,1,906,0.87839412689209,knife,knife,0,0906_scg_s10_0_knife_00_knife1-elephant1.png
subject-10,1,907,0.99947190284729,truck,truck,0,0907_scg_s10_0_truck_00_truck5-airplane2.png
subject-10,1,908,0.711107015609741,bear,bear,0,0908_scg_s10_0_bear_00_bear4-elephant2.png
subject-10,1,909,0.693152189254761,boat,boat,0,0909_scg_s10_0_boat_00_boat7-boat2.png
subject-10,1,910,0.659008026123047,car,car,0,0910_scg_s10_0_car_00_car3-truck1.png
subject-10,1,911,1.41710209846497,dog,dog,0,0911_scg_s10_0_dog_00_dog10-bottle1.png
subject-10,1,912,0.47609281539917,clock,clock,0,0912_scg_s10_0_clock_00_clock7-bottle2.png
subject-10,1,913,0.810261011123657,truck,truck,0,0913_scg_s10_0_truck_00_truck9-bottle2.png
subject-10,1,914,0.889147043228149,boat,airplane,0,0914_scg_s10_0_airplane_00_airplane4-dog2.png
subject-10,1,915,0.671189069747925,bicycle,bicycle,0,0915_scg_s10_0_bicycle_00_bicycle2-bicycle1.png
subject-10,1,916,0.729542016983032,knife,knife,0,0916_scg_s10_0_knife_00_knife5-knife3.png
subject-10,1,917,0.795152902603149,oven,oven,0,0917_scg_s10_0_oven_00_oven2-bird2.png
subject-10,1,918,0.89332914352417,bear,bear,0,0918_scg_s10_0_bear_00_bear4-truck3.png
subject-10,1,919,1.22693181037903,dog,dog,0,0919_scg_s10_0_dog_00_dog2-airplane2.png
subject-10,1,920,0.900203943252563,keyboard,keyboard,0,0920_scg_s10_0_keyboard_00_keyboard5-bird3.png
subject-10,1,921,0.950541973114014,boat,airplane,0,0921_scg_s10_0_airplane_00_airplane2-bear1.png
subject-10,1,922,0.732645988464355,car,car,0,0922_scg_s10_0_car_00_car10-dog1.png
subject-10,1,923,0.684216022491455,chair,chair,0,0923_scg_s10_0_chair_00_chair8-knife2.png
subject-10,1,924,1.23219513893127,dog,bear,0,0924_scg_s10_0_bear_00_bear10-elephant1.png
subject-10,1,925,0.621745109558105,bicycle,bicycle,0,0925_scg_s10_0_bicycle_00_bicycle4-bottle1.png
subject-10,1,926,0.896400928497314,airplane,airplane,0,0926_scg_s10_0_airplane_00_airplane4-bottle1.png
subject-10,1,927,0.984500169754028,oven,oven,0,0927_scg_s10_0_oven_00_oven7-oven1.png
subject-10,1,928,0.773514986038208,airplane,airplane,0,0928_scg_s10_0_airplane_00_airplane7-truck1.png
subject-10,1,929,0.839956998825073,oven,oven,0,0929_scg_s10_0_oven_00_oven4-clock2.png
subject-10,1,930,0.546284198760986,oven,oven,0,0930_scg_s10_0_oven_00_oven2-car1.png
subject-10,1,931,0.780065059661865,cat,bear,0,0931_scg_s10_0_bear_00_bear4-keyboard3.png
subject-10,1,932,1.42973494529724,oven,oven,0,0932_scg_s10_0_oven_00_oven8-keyboard3.png
subject-10,1,933,0.728121995925903,chair,chair,0,0933_scg_s10_0_chair_00_chair10-oven1.png
subject-10,1,934,0.723649024963379,keyboard,keyboard,0,0934_scg_s10_0_keyboard_00_keyboard3-boat1.png
subject-10,1,935,0.743830919265747,bottle,bottle,0,0935_scg_s10_0_bottle_00_bottle6-chair2.png
subject-10,1,936,0.717714071273804,bear,bear,0,0936_scg_s10_0_bear_00_bear10-bear2.png
subject-10,1,937,0.805917024612427,car,car,0,0937_scg_s10_0_car_00_car3-boat1.png
subject-10,1,938,0.634137153625488,clock,clock,0,0938_scg_s10_0_clock_00_clock5-oven1.png
subject-10,1,939,0.653953075408936,clock,clock,0,0939_scg_s10_0_clock_00_clock4-airplane1.png
subject-10,1,940,0.636506080627441,chair,chair,0,0940_scg_s10_0_chair_00_chair9-dog2.png
subject-10,1,941,0.823905944824219,chair,chair,0,0941_scg_s10_0_chair_00_chair3-bicycle3.png
subject-10,1,942,1.28974103927612,clock,clock,0,0942_scg_s10_0_clock_00_clock5-elephant2.png
subject-10,1,943,0.842562913894653,keyboard,keyboard,0,0943_scg_s10_0_keyboard_00_keyboard10-car1.png
subject-10,1,944,0.975552082061768,knife,boat,0,0944_scg_s10_0_boat_00_boat4-chair2.png
subject-10,1,945,0.869824886322021,bear,bear,0,0945_scg_s10_0_bear_00_bear5-bicycle3.png
subject-10,1,946,1.50035309791565,knife,boat,0,0946_scg_s10_0_boat_00_boat1-oven1.png
subject-10,1,947,1.00698518753052,bear,bear,0,0947_scg_s10_0_bear_00_bear1-airplane3.png
subject-10,1,948,1.12466311454773,truck,truck,0,0948_scg_s10_0_truck_00_truck3-car3.png
subject-10,1,949,1.0226731300354,dog,dog,0,0949_scg_s10_0_dog_00_dog4-cat3.png
subject-10,1,950,1.10462617874146,truck,truck,0,0950_scg_s10_0_truck_00_truck2-bird2.png
subject-10,1,951,0.770642995834351,cat,cat,0,0951_scg_s10_0_cat_00_cat5-bottle1.png
subject-10,1,952,0.749747037887573,keyboard,keyboard,0,0952_scg_s10_0_keyboard_00_keyboard6-bear2.png
subject-10,1,953,1.33731198310852,chair,chair,0,0953_scg_s10_0_chair_00_chair8-chair3.png
subject-10,1,954,0.99456000328064,airplane,airplane,0,0954_scg_s10_0_airplane_00_airplane2-bicycle1.png
subject-10,1,955,1.29864811897278,dog,dog,0,0955_scg_s10_0_dog_00_dog3-bird2.png
subject-10,1,956,1.35653591156006,bird,bird,0,0956_scg_s10_0_bird_00_bird1-boat1.png
subject-10,1,957,0.732939958572388,bottle,bottle,0,0957_scg_s10_0_bottle_00_bottle8-keyboard3.png
subject-10,1,958,1.50018501281738,bicycle,bicycle,0,0958_scg_s10_0_bicycle_00_bicycle6-boat2.png
subject-10,1,959,0.932340860366821,cat,cat,0,0959_scg_s10_0_cat_00_cat1-dog1.png
subject-10,1,960,0.498589038848877,clock,clock,0,0960_scg_s10_0_clock_00_clock9-chair3.png
subject-10,1,961,0.519246101379395,clock,clock,0,0961_scg_s10_0_clock_00_clock6-bicycle1.png
subject-10,1,962,1.13026404380798,chair,chair,0,0962_scg_s10_0_chair_00_chair3-airplane2.png
subject-10,1,963,NaN,na,truck,0,0963_scg_s10_0_truck_00_truck5-car1.png
subject-10,1,964,0.753476858139038,chair,chair,0,0964_scg_s10_0_chair_00_chair7-chair1.png
subject-10,1,965,0.873539924621582,boat,boat,0,0965_scg_s10_0_boat_00_boat9-boat3.png
subject-10,1,966,1.0319390296936,truck,truck,0,0966_scg_s10_0_truck_00_truck3-bird2.png
subject-10,1,967,0.744132041931152,elephant,elephant,0,0967_scg_s10_0_elephant_00_elephant5-car1.png
subject-10,1,968,1.50013613700867,dog,dog,0,0968_scg_s10_0_dog_00_dog4-bicycle1.png
subject-10,1,969,1.20428204536438,car,car,0,0969_scg_s10_0_car_00_car9-truck3.png
subject-10,1,970,1.27550601959229,truck,truck,0,0970_scg_s10_0_truck_00_truck2-airplane3.png
subject-10,1,971,0.620084047317505,keyboard,keyboard,0,0971_scg_s10_0_keyboard_00_keyboard1-elephant3.png
subject-10,1,972,0.869353055953979,bicycle,bicycle,0,0972_scg_s10_0_bicycle_00_bicycle1-airplane2.png
subject-10,1,973,0.767749071121216,airplane,airplane,0,0973_scg_s10_0_airplane_00_airplane6-knife1.png
subject-10,1,974,0.826057195663452,clock,clock,0,0974_scg_s10_0_clock_00_clock6-bottle1.png
subject-10,1,975,1.05338311195374,bear,bear,0,0975_scg_s10_0_bear_00_bear10-cat2.png
subject-10,1,976,1.35819983482361,knife,knife,0,0976_scg_s10_0_knife_00_knife6-oven3.png
subject-10,1,977,0.923162937164307,knife,knife,0,0977_scg_s10_0_knife_00_knife8-bicycle1.png
subject-10,1,978,1.13529801368713,bear,bear,0,0978_scg_s10_0_bear_00_bear2-bird3.png
subject-10,1,979,1.4845769405365,elephant,elephant,0,0979_scg_s10_0_elephant_00_elephant6-truck3.png
subject-10,1,980,0.675479888916016,bicycle,bicycle,0,0980_scg_s10_0_bicycle_00_bicycle1-dog3.png
subject-10,1,981,1.45594000816345,elephant,elephant,0,0981_scg_s10_0_elephant_00_elephant7-bird1.png
subject-10,1,982,0.669323205947876,bear,bear,0,0982_scg_s10_0_bear_00_bear7-dog3.png
subject-10,1,983,1.15505480766296,car,car,0,0983_scg_s10_0_car_00_car7-bird3.png
subject-10,1,984,1.18302011489868,dog,dog,0,0984_scg_s10_0_dog_00_dog7-car2.png
subject-10,1,985,1.06485199928284,bear,bird,0,0985_scg_s10_0_bird_00_bird1-elephant2.png
subject-10,1,986,0.7934889793396,elephant,elephant,0,0986_scg_s10_0_elephant_00_elephant9-clock3.png
subject-10,1,987,1.04294180870056,bottle,bottle,0,0987_scg_s10_0_bottle_00_bottle5-cat1.png
subject-10,1,988,0.686145782470703,bottle,bottle,0,0988_scg_s10_0_bottle_00_bottle6-knife3.png
subject-10,1,989,0.758023977279663,bear,bear,0,0989_scg_s10_0_bear_00_bear2-cat2.png
subject-10,1,990,0.753460168838501,knife,boat,0,0990_scg_s10_0_boat_00_boat2-bird1.png
subject-10,1,991,0.727404117584229,airplane,airplane,0,0991_scg_s10_0_airplane_00_airplane5-bird2.png
subject-10,1,992,1.06862807273865,keyboard,keyboard,0,0992_scg_s10_0_keyboard_00_keyboard7-chair3.png
subject-10,1,993,0.956338882446289,knife,bird,0,0993_scg_s10_0_bird_00_bird3-oven1.png
subject-10,1,994,0.899838209152222,knife,knife,0,0994_scg_s10_0_knife_00_knife4-cat2.png
subject-10,1,995,0.895441055297852,elephant,elephant,0,0995_scg_s10_0_elephant_00_elephant10-knife3.png
subject-10,1,996,1.12202310562134,car,car,0,0996_scg_s10_0_car_00_car6-truck3.png
subject-10,1,997,0.96586799621582,car,chair,0,0997_scg_s10_0_chair_00_chair1-cat3.png
subject-10,1,998,0.618109941482544,keyboard,keyboard,0,0998_scg_s10_0_keyboard_00_keyboard6-chair1.png
subject-10,1,999,0.95196795463562,boat,boat,0,0999_scg_s10_0_boat_00_boat3-bicycle2.png
subject-10,1,1000,NaN,na,dog,0,1000_scg_s10_0_dog_00_dog3-boat1.png
subject-10,1,1001,0.792165994644165,keyboard,car,0,1001_scg_s10_0_car_00_car1-keyboard2.png
subject-10,1,1002,0.811903953552246,knife,knife,0,1002_scg_s10_0_knife_00_knife10-bear3.png
subject-10,1,1003,0.769843101501465,airplane,airplane,0,1003_scg_s10_0_airplane_00_airplane10-dog3.png
subject-10,1,1004,1.04133105278015,dog,dog,0,1004_scg_s10_0_dog_00_dog4-bottle2.png
subject-10,1,1005,0.785426139831543,bicycle,bicycle,0,1005_scg_s10_0_bicycle_00_bicycle7-knife2.png
subject-10,1,1006,1.34875297546387,dog,dog,0,1006_scg_s10_0_dog_00_dog7-bird3.png
subject-10,1,1007,1.50020408630371,dog,dog,0,1007_scg_s10_0_dog_00_dog3-clock1.png
subject-10,1,1008,0.566397905349731,clock,clock,0,1008_scg_s10_0_clock_00_clock5-clock2.png
subject-10,1,1009,0.637946844100952,bear,bear,0,1009_scg_s10_0_bear_00_bear7-clock1.png
subject-10,1,1010,0.681403875350952,car,car,0,1010_scg_s10_0_car_00_car1-car2.png
subject-10,1,1011,0.501116037368774,clock,clock,0,1011_scg_s10_0_clock_00_clock8-chair2.png
subject-10,1,1012,0.880506992340088,truck,truck,0,1012_scg_s10_0_truck_00_truck1-bicycle3.png
subject-10,1,1013,0.753950119018555,cat,cat,0,1013_scg_s10_0_cat_00_cat5-elephant2.png
subject-10,1,1014,0.715875148773193,cat,bear,0,1014_scg_s10_0_bear_00_bear6-bear1.png
subject-10,1,1015,0.695087194442749,bottle,bottle,0,1015_scg_s10_0_bottle_00_bottle2-knife3.png
subject-10,1,1016,0.798564910888672,oven,oven,0,1016_scg_s10_0_oven_00_oven5-dog3.png
subject-10,1,1017,0.702462911605835,oven,oven,0,1017_scg_s10_0_oven_00_oven7-cat1.png
subject-10,1,1018,0.684638977050781,clock,clock,0,1018_scg_s10_0_clock_00_clock10-cat1.png
subject-10,1,1019,0.97992992401123,boat,boat,0,1019_scg_s10_0_boat_00_boat9-clock1.png
subject-10,1,1020,0.691510915756226,airplane,airplane,0,1020_scg_s10_0_airplane_00_airplane5-chair3.png
subject-10,1,1021,0.757107973098755,truck,truck,0,1021_scg_s10_0_truck_00_truck4-knife1.png
subject-10,1,1022,1.07672190666199,airplane,airplane,0,1022_scg_s10_0_airplane_00_airplane10-bear3.png
subject-10,1,1023,0.881439924240112,dog,dog,0,1023_scg_s10_0_dog_00_dog10-airplane1.png
subject-10,1,1024,0.809551954269409,keyboard,keyboard,0,1024_scg_s10_0_keyboard_00_keyboard7-oven2.png
subject-10,1,1025,0.828052043914795,bicycle,bicycle,0,1025_scg_s10_0_bicycle_00_bicycle5-chair2.png
subject-10,1,1026,0.969693899154663,boat,boat,0,1026_scg_s10_0_boat_00_boat6-car1.png
subject-10,1,1027,1.22866296768188,dog,dog,0,1027_scg_s10_0_dog_00_dog4-clock1.png
subject-10,1,1028,1.18596506118774,truck,boat,0,1028_scg_s10_0_boat_00_boat3-airplane2.png
subject-10,1,1029,0.889045000076294,bottle,bottle,0,1029_scg_s10_0_bottle_00_bottle5-clock3.png
subject-10,1,1030,0.701042890548706,oven,oven,0,1030_scg_s10_0_oven_00_oven3-knife1.png
subject-10,1,1031,0.889279127120972,oven,cat,0,1031_scg_s10_0_cat_00_cat10-oven2.png
subject-10,1,1032,0.694356918334961,elephant,elephant,0,1032_scg_s10_0_elephant_00_elephant5-bear2.png
subject-10,1,1033,1.04987812042236,bottle,bottle,0,1033_scg_s10_0_bottle_00_bottle6-bird1.png
subject-10,1,1034,0.769857883453369,cat,cat,0,1034_scg_s10_0_cat_00_cat8-car2.png
subject-10,1,1035,0.797302007675171,truck,truck,0,1035_scg_s10_0_truck_00_truck8-dog3.png
subject-10,1,1036,0.739013910293579,bird,bird,0,1036_scg_s10_0_bird_00_bird1-clock3.png
subject-10,1,1037,0.666501998901367,keyboard,keyboard,0,1037_scg_s10_0_keyboard_00_keyboard2-elephant1.png
subject-10,1,1038,0.638252973556519,bird,bird,0,1038_scg_s10_0_bird_00_bird9-bicycle3.png
subject-10,1,1039,1.2093141078949,bear,bear,0,1039_scg_s10_0_bear_00_bear6-car2.png
subject-10,1,1040,0.599302053451538,bottle,bottle,0,1040_scg_s10_0_bottle_00_bottle9-bottle1.png
subject-10,1,1041,0.857506990432739,oven,oven,0,1041_scg_s10_0_oven_00_oven3-elephant3.png
subject-10,1,1042,0.714440822601318,keyboard,keyboard,0,1042_scg_s10_0_keyboard_00_keyboard10-airplane3.png
subject-10,1,1043,0.62631893157959,airplane,airplane,0,1043_scg_s10_0_airplane_00_airplane10-truck1.png
subject-10,1,1044,1.30659008026123,elephant,elephant,0,1044_scg_s10_0_elephant_00_elephant1-boat2.png
subject-10,1,1045,0.897139072418213,boat,boat,0,1045_scg_s10_0_boat_00_boat7-clock3.png
subject-10,1,1046,0.684247970581055,bicycle,bicycle,0,1046_scg_s10_0_bicycle_00_bicycle2-bottle1.png
subject-10,1,1047,0.671811103820801,boat,boat,0,1047_scg_s10_0_boat_00_boat9-bear3.png
subject-10,1,1048,0.708199024200439,chair,chair,0,1048_scg_s10_0_chair_00_chair5-bird1.png
subject-10,1,1049,0.749802112579346,keyboard,keyboard,0,1049_scg_s10_0_keyboard_00_keyboard7-knife1.png
subject-10,1,1050,1.47563815116882,bird,bird,0,1050_scg_s10_0_bird_00_bird8-knife2.png
subject-10,1,1051,1.42517518997192,knife,knife,0,1051_scg_s10_0_knife_00_knife1-clock2.png
subject-10,1,1052,0.907335042953491,bear,bear,0,1052_scg_s10_0_bear_00_bear5-boat2.png
subject-10,1,1053,1.08748006820679,cat,dog,0,1053_scg_s10_0_dog_00_dog2-knife3.png
subject-10,1,1054,0.829219102859497,dog,dog,0,1054_scg_s10_0_dog_00_dog7-keyboard3.png
subject-10,1,1055,1.50021409988403,bottle,bottle,0,1055_scg_s10_0_bottle_00_bottle5-airplane1.png
subject-10,1,1056,0.63576602935791,cat,cat,0,1056_scg_s10_0_cat_00_cat4-cat3.png
subject-10,1,1057,0.655961990356445,bicycle,bicycle,0,1057_scg_s10_0_bicycle_00_bicycle1-oven1.png
subject-10,1,1058,0.789259910583496,knife,knife,0,1058_scg_s10_0_knife_00_knife9-bird1.png
subject-10,1,1059,0.717931985855103,boat,boat,0,1059_scg_s10_0_boat_00_boat8-knife1.png
subject-10,1,1060,1.50008702278137,elephant,elephant,0,1060_scg_s10_0_elephant_00_elephant3-cat2.png
subject-10,1,1061,0.817084074020386,chair,chair,0,1061_scg_s10_0_chair_00_chair4-truck2.png
subject-10,1,1062,0.712706089019775,keyboard,keyboard,0,1062_scg_s10_0_keyboard_00_keyboard9-elephant2.png
subject-10,1,1063,0.894756078720093,car,car,0,1063_scg_s10_0_car_00_car1-dog2.png
subject-10,1,1064,0.615159034729004,oven,oven,0,1064_scg_s10_0_oven_00_oven3-clock3.png
subject-10,1,1065,0.81878399848938,bear,bear,0,1065_scg_s10_0_bear_00_bear2-airplane1.png
subject-10,1,1066,0.76817798614502,chair,chair,0,1066_scg_s10_0_chair_00_chair5-oven2.png
subject-10,1,1067,1.00989699363708,chair,chair,0,1067_scg_s10_0_chair_00_chair10-clock1.png
subject-10,1,1068,0.821696043014526,chair,chair,0,1068_scg_s10_0_chair_00_chair7-airplane1.png
subject-10,1,1069,0.930863857269287,clock,clock,0,1069_scg_s10_0_clock_00_clock10-knife3.png
subject-10,1,1070,0.69187593460083,chair,chair,0,1070_scg_s10_0_chair_00_chair9-keyboard2.png
subject-10,1,1071,1.07159090042114,dog,dog,0,1071_scg_s10_0_dog_00_dog10-bicycle1.png
subject-10,1,1072,1.26473498344421,chair,chair,0,1072_scg_s10_0_chair_00_chair7-car2.png
subject-10,1,1073,0.746134042739868,truck,truck,0,1073_scg_s10_0_truck_00_truck6-knife2.png
subject-10,1,1074,0.758393049240112,keyboard,keyboard,0,1074_scg_s10_0_keyboard_00_keyboard1-chair2.png
subject-10,1,1075,0.693748950958252,boat,boat,0,1075_scg_s10_0_boat_00_boat5-car3.png
subject-10,1,1076,0.949610948562622,truck,boat,0,1076_scg_s10_0_boat_00_boat3-car3.png
subject-10,1,1077,0.753132104873657,bottle,bottle,0,1077_scg_s10_0_bottle_00_bottle4-bicycle1.png
subject-10,1,1078,1.24957799911499,bear,bear,0,1078_scg_s10_0_bear_00_bear1-bear3.png
subject-10,1,1079,1.49157810211182,dog,dog,0,1079_scg_s10_0_dog_00_dog4-airplane3.png
subject-10,1,1080,0.529493093490601,clock,clock,0,1080_scg_s10_0_clock_00_clock10-bottle1.png
subject-10,1,1081,0.939416885375977,knife,knife,0,1081_scg_s10_0_knife_00_knife1-keyboard3.png
subject-10,1,1082,0.742791891098022,bottle,bottle,0,1082_scg_s10_0_bottle_00_bottle3-bicycle3.png
subject-10,1,1083,0.970900058746338,chair,chair,0,1083_scg_s10_0_chair_00_chair8-clock3.png
subject-10,1,1084,0.967265129089355,car,car,0,1084_scg_s10_0_car_00_car3-oven3.png
subject-10,1,1085,0.95417594909668,chair,chair,0,1085_scg_s10_0_chair_00_chair7-truck3.png
subject-10,1,1086,1.00709891319275,elephant,elephant,0,1086_scg_s10_0_elephant_00_elephant8-clock2.png
subject-10,1,1087,0.603127002716064,clock,clock,0,1087_scg_s10_0_clock_00_clock8-oven3.png
subject-10,1,1088,0.693304061889648,knife,knife,0,1088_scg_s10_0_knife_00_knife2-car3.png
subject-10,1,1089,0.788233041763306,keyboard,keyboard,0,1089_scg_s10_0_keyboard_00_keyboard7-clock3.png
subject-10,1,1090,0.675873994827271,bicycle,bicycle,0,1090_scg_s10_0_bicycle_00_bicycle4-airplane1.png
subject-10,1,1091,0.587788820266724,bottle,bottle,0,1091_scg_s10_0_bottle_00_bottle6-oven3.png
subject-10,1,1092,0.951758146286011,elephant,elephant,0,1092_scg_s10_0_elephant_00_elephant7-dog1.png
subject-10,1,1093,1.23926711082458,cat,cat,0,1093_scg_s10_0_cat_00_cat10-bear1.png
subject-10,1,1094,0.66936993598938,airplane,airplane,0,1094_scg_s10_0_airplane_00_airplane7-bird3.png
subject-10,1,1095,0.749876022338867,elephant,elephant,0,1095_scg_s10_0_elephant_00_elephant3-oven1.png
subject-10,1,1096,0.731189012527466,car,car,0,1096_scg_s10_0_car_00_car2-cat3.png
subject-10,1,1097,1.15709805488586,dog,dog,0,1097_scg_s10_0_dog_00_dog5-bear3.png
