subj,session,trial,rt,object_response,category,condition,imagename
subject-04,1,1,1.06137204170227,cat,cat,0,0001_scg_s04_0_cat_00_cat2-cat1.png
subject-04,1,2,0.7934889793396,bottle,bottle,0,0002_scg_s04_0_bottle_00_bottle9-bottle1.png
subject-04,1,3,1.2157289981842,truck,truck,0,0003_scg_s04_0_truck_00_truck5-airplane2.png
subject-04,1,4,1.50047206878662,truck,truck,0,0004_scg_s04_0_truck_00_truck7-oven2.png
subject-04,1,5,1.22688794136047,car,clock,0,0005_scg_s04_0_clock_00_clock10-truck2.png
subject-04,1,6,1.04014110565186,car,car,0,0006_scg_s04_0_car_00_car8-bicycle2.png
subject-04,1,7,0.985628843307495,keyboard,knife,0,0007_scg_s04_0_knife_00_knife4-airplane3.png
subject-04,1,8,1.05268907546997,knife,knife,0,0008_scg_s04_0_knife_00_knife1-elephant1.png
subject-04,1,9,0.950838088989258,clock,clock,0,0009_scg_s04_0_clock_00_clock10-dog3.png
subject-04,1,10,1.00265622138977,bicycle,bicycle,0,0010_scg_s04_0_bicycle_00_bicycle1-airplane2.png
subject-04,1,11,0.932088136672974,chair,chair,0,0011_scg_s04_0_chair_00_chair5-oven2.png
subject-04,1,12,1.04036498069763,bottle,bottle,0,0012_scg_s04_0_bottle_00_bottle6-knife3.png
subject-04,1,13,0.824661016464233,knife,keyboard,0,0013_scg_s04_0_keyboard_00_keyboard7-bear2.png
subject-04,1,14,0.984560012817383,dog,dog,0,0014_scg_s04_0_dog_00_dog2-airplane2.png
subject-04,1,15,0.967834949493408,chair,chair,0,0015_scg_s04_0_chair_00_chair2-keyboard2.png
subject-04,1,16,0.882185935974121,bottle,bottle,0,0016_scg_s04_0_bottle_00_bottle6-airplane1.png
subject-04,1,17,1.45801615715027,elephant,boat,0,0017_scg_s04_0_boat_00_boat3-clock3.png
subject-04,1,18,0.979665040969849,bear,bear,0,0018_scg_s04_0_bear_00_bear1-clock2.png
subject-04,1,19,1.04695200920105,bicycle,dog,0,0019_scg_s04_0_dog_00_dog7-car2.png
subject-04,1,20,0.911910057067871,cat,cat,0,0020_scg_s04_0_cat_00_cat7-knife2.png
subject-04,1,21,0.903719902038574,elephant,elephant,0,0021_scg_s04_0_elephant_00_elephant1-airplane2.png
subject-04,1,22,0.995851993560791,car,car,0,0022_scg_s04_0_car_00_car3-bottle3.png
subject-04,1,23,0.955405950546265,bottle,bottle,0,0023_scg_s04_0_bottle_00_bottle7-airplane3.png
subject-04,1,24,1.03642392158508,truck,truck,0,0024_scg_s04_0_truck_00_truck9-airplane2.png
subject-04,1,25,0.944638967514038,chair,chair,0,0025_scg_s04_0_chair_00_chair8-airplane1.png
subject-04,1,26,1.43759489059448,chair,chair,0,0026_scg_s04_0_chair_00_chair3-airplane2.png
subject-04,1,27,1.01369214057922,bird,bird,0,0027_scg_s04_0_bird_00_bird8-bottle1.png
subject-04,1,28,1.01874780654907,boat,boat,0,0028_scg_s04_0_boat_00_boat9-dog2.png
subject-04,1,29,0.954547882080078,airplane,airplane,0,0029_scg_s04_0_airplane_00_airplane7-bottle3.png
subject-04,1,30,0.876239061355591,bird,bird,0,0030_scg_s04_0_bird_00_bird7-bird2.png
subject-04,1,31,0.87584400177002,knife,knife,0,0031_scg_s04_0_knife_00_knife9-bicycle1.png
subject-04,1,32,0.827615976333618,cat,cat,0,0032_scg_s04_0_cat_00_cat2-car3.png
subject-04,1,33,0.757508993148804,boat,boat,0,0033_scg_s04_0_boat_00_boat9-bear3.png
subject-04,1,34,0.987619876861572,car,car,0,0034_scg_s04_0_car_00_car6-knife1.png
subject-04,1,35,0.809139013290405,bicycle,bicycle,0,0035_scg_s04_0_bicycle_00_bicycle2-car2.png
subject-04,1,36,1.50001215934753,bicycle,bicycle,0,0036_scg_s04_0_bicycle_00_bicycle9-bottle1.png
subject-04,1,37,0.854909896850586,bird,bird,0,0037_scg_s04_0_bird_00_bird8-clock1.png
subject-04,1,38,0.846451997756958,boat,knife,0,0038_scg_s04_0_knife_00_knife6-chair3.png
subject-04,1,39,1.38169717788696,cat,keyboard,0,0039_scg_s04_0_keyboard_00_keyboard4-keyboard2.png
subject-04,1,40,0.833812952041626,car,car,0,0040_scg_s04_0_car_00_car8-chair1.png
subject-04,1,41,0.90081000328064,knife,knife,0,0041_scg_s04_0_knife_00_knife1-car3.png
subject-04,1,42,1.20689511299133,bicycle,bicycle,0,0042_scg_s04_0_bicycle_00_bicycle1-truck1.png
subject-04,1,43,1.50041317939758,truck,truck,0,0043_scg_s04_0_truck_00_truck2-clock1.png
subject-04,1,44,0.830342054367065,car,car,0,0044_scg_s04_0_car_00_car7-airplane2.png
subject-04,1,45,1.01421999931335,bicycle,bicycle,0,0045_scg_s04_0_bicycle_00_bicycle3-bird1.png
subject-04,1,46,1.2037079334259,knife,knife,0,0046_scg_s04_0_knife_00_knife5-truck3.png
subject-04,1,47,1.40357303619385,dog,dog,0,0047_scg_s04_0_dog_00_dog1-chair1.png
subject-04,1,48,1.31724095344543,keyboard,keyboard,0,0048_scg_s04_0_keyboard_00_keyboard4-cat2.png
subject-04,1,49,0.972892045974731,dog,bird,0,0049_scg_s04_0_bird_00_bird10-elephant2.png
subject-04,1,50,1.13246083259583,bottle,bottle,0,0050_scg_s04_0_bottle_00_bottle8-bird1.png
subject-04,1,51,0.895736932754517,knife,knife,0,0051_scg_s04_0_knife_00_knife4-clock3.png
subject-04,1,52,1.07960796356201,knife,bird,0,0052_scg_s04_0_bird_00_bird4-airplane1.png
subject-04,1,53,1.03121900558472,bicycle,bicycle,0,0053_scg_s04_0_bicycle_00_bicycle10-elephant2.png
subject-04,1,54,1.00332999229431,bicycle,bicycle,0,0054_scg_s04_0_bicycle_00_bicycle4-oven3.png
subject-04,1,55,NaN,na,boat,0,0055_scg_s04_0_boat_00_boat6-clock2.png
subject-04,1,56,0.929574012756348,bird,bird,0,0056_scg_s04_0_bird_00_bird10-clock1.png
subject-04,1,57,0.911484956741333,knife,knife,0,0057_scg_s04_0_knife_00_knife4-oven2.png
subject-04,1,58,0.803269863128662,bird,bird,0,0058_scg_s04_0_bird_00_bird8-elephant1.png
subject-04,1,59,0.831228971481323,bottle,bottle,0,0059_scg_s04_0_bottle_00_bottle6-chair2.png
subject-04,1,60,1.04489803314209,bird,bear,0,0060_scg_s04_0_bear_00_bear10-bottle1.png
subject-04,1,61,0.750452995300293,chair,chair,0,0061_scg_s04_0_chair_00_chair10-oven1.png
subject-04,1,62,1.23381686210632,knife,keyboard,0,0062_scg_s04_0_keyboard_00_keyboard1-dog3.png
subject-04,1,63,1.22379112243652,bird,airplane,0,0063_scg_s04_0_airplane_00_airplane5-knife1.png
subject-04,1,64,0.912787914276123,keyboard,oven,0,0064_scg_s04_0_oven_00_oven3-boat3.png
subject-04,1,65,1.0204029083252,airplane,bird,0,0065_scg_s04_0_bird_00_bird6-oven1.png
subject-04,1,66,1.14034795761108,elephant,elephant,0,0066_scg_s04_0_elephant_00_elephant10-elephant1.png
subject-04,1,67,1.36989903450012,elephant,elephant,0,0067_scg_s04_0_elephant_00_elephant5-chair3.png
subject-04,1,68,1.02134084701538,boat,boat,0,0068_scg_s04_0_boat_00_boat6-car1.png
subject-04,1,69,0.905095100402832,elephant,elephant,0,0069_scg_s04_0_elephant_00_elephant5-truck1.png
subject-04,1,70,0.927002906799316,keyboard,keyboard,0,0070_scg_s04_0_keyboard_00_keyboard4-truck3.png
subject-04,1,71,1.50032210350037,dog,dog,0,0071_scg_s04_0_dog_00_dog2-dog3.png
subject-04,1,72,1.18954491615295,bear,bear,0,0072_scg_s04_0_bear_00_bear2-car2.png
subject-04,1,73,0.857261896133423,boat,boat,0,0073_scg_s04_0_boat_00_boat2-bottle2.png
subject-04,1,74,0.916684865951538,bear,bear,0,0074_scg_s04_0_bear_00_bear4-cat3.png
subject-04,1,75,0.87589693069458,bird,airplane,0,0075_scg_s04_0_airplane_00_airplane5-boat3.png
subject-04,1,76,0.865442037582397,knife,knife,0,0076_scg_s04_0_knife_00_knife1-airplane1.png
subject-04,1,77,0.803700923919678,clock,clock,0,0077_scg_s04_0_clock_00_clock4-airplane1.png
subject-04,1,78,0.933279037475586,bear,bear,0,0078_scg_s04_0_bear_00_bear4-oven2.png
subject-04,1,79,1.05943608283997,truck,truck,0,0079_scg_s04_0_truck_00_truck3-chair2.png
subject-04,1,80,0.924655199050903,bottle,bottle,0,0080_scg_s04_0_bottle_00_bottle6-bear2.png
subject-04,1,81,1.23805785179138,truck,keyboard,0,0081_scg_s04_0_keyboard_00_keyboard10-car1.png
subject-04,1,82,1.22770810127258,car,car,0,0082_scg_s04_0_car_00_car3-oven3.png
subject-04,1,83,1.24970006942749,dog,dog,0,0083_scg_s04_0_dog_00_dog9-airplane3.png
subject-04,1,84,0.947073936462402,boat,boat,0,0084_scg_s04_0_boat_00_boat2-bird1.png
subject-04,1,85,0.954837083816528,chair,chair,0,0085_scg_s04_0_chair_00_chair4-truck2.png
subject-04,1,86,0.915254831314087,bottle,bottle,0,0086_scg_s04_0_bottle_00_bottle8-bottle3.png
subject-04,1,87,1.28284096717834,keyboard,keyboard,0,0087_scg_s04_0_keyboard_00_keyboard1-bird2.png
subject-04,1,88,0.768200874328613,bird,bird,0,0088_scg_s04_0_bird_00_bird1-oven1.png
subject-04,1,89,0.952263116836548,keyboard,keyboard,0,0089_scg_s04_0_keyboard_00_keyboard7-bottle1.png
subject-04,1,90,1.10411500930786,bicycle,bicycle,0,0090_scg_s04_0_bicycle_00_bicycle1-oven1.png
subject-04,1,91,1.2073278427124,car,car,0,0091_scg_s04_0_car_00_car9-knife1.png
subject-04,1,92,1.11261391639709,truck,truck,0,0092_scg_s04_0_truck_00_truck1-car3.png
subject-04,1,93,1.14257502555847,airplane,airplane,0,0093_scg_s04_0_airplane_00_airplane7-airplane3.png
subject-04,1,94,0.671888113021851,bird,bird,0,0094_scg_s04_0_bird_00_bird5-bicycle1.png
subject-04,1,95,1.10815596580505,bird,bird,0,0095_scg_s04_0_bird_00_bird3-bird2.png
subject-04,1,96,1.26816916465759,truck,truck,0,0096_scg_s04_0_truck_00_truck6-boat2.png
subject-04,1,97,1.07336020469666,bottle,bottle,0,0097_scg_s04_0_bottle_00_bottle9-truck1.png
subject-04,1,98,0.871005058288574,dog,dog,0,0098_scg_s04_0_dog_00_dog4-bottle2.png
subject-04,1,99,0.72115683555603,airplane,airplane,0,0099_scg_s04_0_airplane_00_airplane1-elephant1.png
subject-04,1,100,1.25709795951843,elephant,clock,0,0100_scg_s04_0_clock_00_clock10-knife3.png
subject-04,1,101,1.26317095756531,chair,oven,0,0101_scg_s04_0_oven_00_oven4-bottle2.png
subject-04,1,102,0.900978088378906,clock,clock,0,0102_scg_s04_0_clock_00_clock6-chair3.png
subject-04,1,103,0.952479124069214,truck,truck,0,0103_scg_s04_0_truck_00_truck2-bird2.png
subject-04,1,104,1.3431179523468,cat,cat,0,0104_scg_s04_0_cat_00_cat8-bear1.png
subject-04,1,105,1.24217009544373,chair,chair,0,0105_scg_s04_0_chair_00_chair8-bicycle3.png
subject-04,1,106,1.50038194656372,dog,dog,0,0106_scg_s04_0_dog_00_dog7-bird3.png
subject-04,1,107,1.25337409973145,knife,boat,0,0107_scg_s04_0_boat_00_boat1-keyboard3.png
subject-04,1,108,0.813815116882324,car,car,0,0108_scg_s04_0_car_00_car6-boat1.png
subject-04,1,109,1.11940002441406,knife,knife,0,0109_scg_s04_0_knife_00_knife10-keyboard3.png
subject-04,1,110,0.894948959350586,bird,bird,0,0110_scg_s04_0_bird_00_bird6-car3.png
subject-04,1,111,1.48431801795959,boat,boat,0,0111_scg_s04_0_boat_00_boat5-knife2.png
subject-04,1,112,0.943580865859985,bear,bear,0,0112_scg_s04_0_bear_00_bear1-bicycle3.png
subject-04,1,113,0.820334196090698,boat,boat,0,0113_scg_s04_0_boat_00_boat8-truck2.png
subject-04,1,114,0.880839109420776,car,car,0,0114_scg_s04_0_car_00_car6-bear1.png
subject-04,1,115,1.06484913825989,bicycle,bear,0,0115_scg_s04_0_bear_00_bear6-car2.png
subject-04,1,116,1.05420088768005,knife,knife,0,0116_scg_s04_0_knife_00_knife5-cat2.png
subject-04,1,117,1.26052498817444,clock,clock,0,0117_scg_s04_0_clock_00_clock6-bicycle1.png
subject-04,1,118,0.957430124282837,keyboard,keyboard,0,0118_scg_s04_0_keyboard_00_keyboard10-boat2.png
subject-04,1,119,1.09504508972168,knife,airplane,0,0119_scg_s04_0_airplane_00_airplane4-knife1.png
subject-04,1,120,0.939027070999146,dog,bottle,0,0120_scg_s04_0_bottle_00_bottle7-cat2.png
subject-04,1,121,1.27517604827881,bird,bird,0,0121_scg_s04_0_bird_00_bird10-bicycle1.png
subject-04,1,122,0.912434101104736,bottle,bottle,0,0122_scg_s04_0_bottle_00_bottle3-airplane2.png
subject-04,1,123,1.10306692123413,bear,elephant,0,0123_scg_s04_0_elephant_00_elephant8-cat1.png
subject-04,1,124,0.94136118888855,car,car,0,0124_scg_s04_0_car_00_car6-bottle1.png
subject-04,1,125,0.992805957794189,car,car,0,0125_scg_s04_0_car_00_car7-elephant3.png
subject-04,1,126,0.822237968444824,cat,cat,0,0126_scg_s04_0_cat_00_cat5-elephant2.png
subject-04,1,127,0.804352998733521,oven,oven,0,0127_scg_s04_0_oven_00_oven10-oven3.png
subject-04,1,128,0.947811841964722,elephant,elephant,0,0128_scg_s04_0_elephant_00_elephant6-truck3.png
subject-04,1,129,1.13107895851135,keyboard,keyboard,0,0129_scg_s04_0_keyboard_00_keyboard2-clock1.png
subject-04,1,130,0.945074081420898,truck,truck,0,0130_scg_s04_0_truck_00_truck10-clock1.png
subject-04,1,131,1.01876497268677,bird,bird,0,0131_scg_s04_0_bird_00_bird3-truck3.png
subject-04,1,132,1.06246781349182,dog,bear,0,0132_scg_s04_0_bear_00_bear6-bear1.png
subject-04,1,133,1.03794407844543,dog,dog,0,0133_scg_s04_0_dog_00_dog1-bear1.png
subject-04,1,134,1.18204593658447,airplane,airplane,0,0134_scg_s04_0_airplane_00_airplane6-keyboard3.png
subject-04,1,135,0.917757987976074,car,car,0,0135_scg_s04_0_car_00_car10-car1.png
subject-04,1,136,0.931633949279785,bottle,bottle,0,0136_scg_s04_0_bottle_00_bottle3-boat3.png
subject-04,1,137,0.814855813980103,clock,clock,0,0137_scg_s04_0_clock_00_clock2-clock3.png
subject-04,1,138,1.08908295631409,boat,boat,0,0138_scg_s04_0_boat_00_boat2-keyboard1.png
subject-04,1,139,0.818685054779053,elephant,elephant,0,0139_scg_s04_0_elephant_00_elephant5-car1.png
subject-04,1,140,0.832268953323364,truck,truck,0,0140_scg_s04_0_truck_00_truck2-chair1.png
subject-04,1,141,0.843585968017578,boat,boat,0,0141_scg_s04_0_boat_00_boat8-bottle1.png
subject-04,1,142,0.857609033584595,boat,boat,0,0142_scg_s04_0_boat_00_boat6-airplane2.png
subject-04,1,143,0.725263118743896,oven,oven,0,0143_scg_s04_0_oven_00_oven2-bottle1.png
subject-04,1,144,1.50023484230042,truck,boat,0,0144_scg_s04_0_boat_00_boat3-dog3.png
subject-04,1,145,0.994921922683716,cat,cat,0,0145_scg_s04_0_cat_00_cat7-clock3.png
subject-04,1,146,1.06854104995728,knife,keyboard,0,0146_scg_s04_0_keyboard_00_keyboard2-elephant1.png
subject-04,1,147,1.28234481811523,dog,cat,0,0147_scg_s04_0_cat_00_cat9-bottle2.png
subject-04,1,148,0.958045959472656,clock,clock,0,0148_scg_s04_0_clock_00_clock8-oven3.png
subject-04,1,149,0.839776039123535,truck,truck,0,0149_scg_s04_0_truck_00_truck1-cat1.png
subject-04,1,150,1.03780603408813,elephant,bear,0,0150_scg_s04_0_bear_00_bear10-clock1.png
subject-04,1,151,0.88142991065979,oven,oven,0,0151_scg_s04_0_oven_00_oven10-cat2.png
subject-04,1,152,0.772836208343506,bottle,bottle,0,0152_scg_s04_0_bottle_00_bottle6-dog3.png
subject-04,1,153,1.00061702728271,truck,truck,0,0153_scg_s04_0_truck_00_truck6-bear2.png
subject-04,1,154,1.08505010604858,bicycle,bicycle,0,0154_scg_s04_0_bicycle_00_bicycle6-bicycle3.png
subject-04,1,155,0.798571109771729,boat,boat,0,0155_scg_s04_0_boat_00_boat9-clock1.png
subject-04,1,156,0.813361883163452,boat,boat,0,0156_scg_s04_0_boat_00_boat7-truck2.png
subject-04,1,157,0.934570789337158,chair,chair,0,0157_scg_s04_0_chair_00_chair6-elephant2.png
subject-04,1,158,0.8161940574646,boat,boat,0,0158_scg_s04_0_boat_00_boat7-cat3.png
subject-04,1,159,0.752195835113525,oven,oven,0,0159_scg_s04_0_oven_00_oven8-cat3.png
subject-04,1,160,0.844080924987793,keyboard,keyboard,0,0160_scg_s04_0_keyboard_00_keyboard6-boat2.png
subject-04,1,161,1.06482601165771,bottle,bottle,0,0161_scg_s04_0_bottle_00_bottle4-dog2.png
subject-04,1,162,0.894083023071289,knife,knife,0,0162_scg_s04_0_knife_00_knife4-boat1.png
subject-04,1,163,1.05915689468384,bird,bear,0,0163_scg_s04_0_bear_00_bear10-car2.png
subject-04,1,164,0.889243125915527,oven,oven,0,0164_scg_s04_0_oven_00_oven9-bird3.png
subject-04,1,165,1.4886679649353,dog,dog,0,0165_scg_s04_0_dog_00_dog5-truck2.png
subject-04,1,166,0.956851959228516,knife,knife,0,0166_scg_s04_0_knife_00_knife7-chair2.png
subject-04,1,167,0.764908075332642,boat,boat,0,0167_scg_s04_0_boat_00_boat5-bicycle3.png
subject-04,1,168,0.944079160690308,car,car,0,0168_scg_s04_0_car_00_car2-knife3.png
subject-04,1,169,1.12013101577759,dog,dog,0,0169_scg_s04_0_dog_00_dog9-bear3.png
subject-04,1,170,0.887740850448608,truck,truck,0,0170_scg_s04_0_truck_00_truck7-truck2.png
subject-04,1,171,0.769222974777222,bottle,bottle,0,0171_scg_s04_0_bottle_00_bottle2-bottle3.png
subject-04,1,172,0.768106937408447,car,car,0,0172_scg_s04_0_car_00_car8-truck3.png
subject-04,1,173,0.981412887573242,dog,dog,0,0173_scg_s04_0_dog_00_dog3-knife3.png
subject-04,1,174,1.14138102531433,truck,truck,0,0174_scg_s04_0_truck_00_truck9-elephant1.png
subject-04,1,175,1.07447910308838,dog,dog,0,0175_scg_s04_0_dog_00_dog3-bear3.png
subject-04,1,176,0.942065954208374,knife,airplane,0,0176_scg_s04_0_airplane_00_airplane8-elephant3.png
subject-04,1,177,1.02335906028748,car,car,0,0177_scg_s04_0_car_00_car3-truck1.png
subject-04,1,178,1.19737887382507,elephant,elephant,0,0178_scg_s04_0_elephant_00_elephant7-dog1.png
subject-04,1,179,0.972926139831543,airplane,airplane,0,0179_scg_s04_0_airplane_00_airplane10-oven2.png
subject-04,1,180,0.994814872741699,bear,bear,0,0180_scg_s04_0_bear_00_bear8-dog1.png
subject-04,1,181,1.14436602592468,knife,knife,0,0181_scg_s04_0_knife_00_knife2-dog1.png
subject-04,1,182,1.01156497001648,dog,dog,0,0182_scg_s04_0_dog_00_dog10-keyboard2.png
subject-04,1,183,0.938194036483765,elephant,elephant,0,0183_scg_s04_0_elephant_00_elephant2-elephant3.png
subject-04,1,184,1.10397291183472,chair,chair,0,0184_scg_s04_0_chair_00_chair7-knife2.png
subject-04,1,185,1.4932861328125,bear,boat,0,0185_scg_s04_0_boat_00_boat10-cat1.png
subject-04,1,186,0.9289710521698,boat,boat,0,0186_scg_s04_0_boat_00_boat2-oven3.png
subject-04,1,187,1.13464713096619,keyboard,bird,0,0187_scg_s04_0_bird_00_bird3-boat3.png
subject-04,1,188,1.18680500984192,keyboard,keyboard,0,0188_scg_s04_0_keyboard_00_keyboard8-cat3.png
subject-04,1,189,1.08432793617249,airplane,airplane,0,0189_scg_s04_0_airplane_00_airplane4-elephant1.png
subject-04,1,190,1.2820680141449,dog,elephant,0,0190_scg_s04_0_elephant_00_elephant10-keyboard1.png
subject-04,1,191,0.917591094970703,knife,airplane,0,0191_scg_s04_0_airplane_00_airplane4-bicycle2.png
subject-04,1,192,1.13121485710144,dog,cat,0,0192_scg_s04_0_cat_00_cat10-bicycle1.png
subject-04,1,193,1.22922587394714,bear,bear,0,0193_scg_s04_0_bear_00_bear3-car2.png
subject-04,1,194,1.14809083938599,knife,knife,0,0194_scg_s04_0_knife_00_knife6-boat3.png
subject-04,1,195,1.1454451084137,airplane,airplane,0,0195_scg_s04_0_airplane_00_airplane7-car1.png
subject-04,1,196,1.15099000930786,elephant,elephant,0,0196_scg_s04_0_elephant_00_elephant7-bear3.png
subject-04,1,197,1.29591989517212,knife,keyboard,0,0197_scg_s04_0_keyboard_00_keyboard6-elephant1.png
subject-04,1,198,0.9778151512146,car,car,0,0198_scg_s04_0_car_00_car6-truck3.png
subject-04,1,199,0.915791034698486,knife,knife,0,0199_scg_s04_0_knife_00_knife9-chair1.png
subject-04,1,200,1.07331609725952,bottle,bottle,0,0200_scg_s04_0_bottle_00_bottle1-cat3.png
subject-04,1,201,0.894577980041504,bicycle,bicycle,0,0201_scg_s04_0_bicycle_00_bicycle1-elephant2.png
subject-04,1,202,1.01365900039673,chair,chair,0,0202_scg_s04_0_chair_00_chair3-knife1.png
subject-04,1,203,1.41179585456848,elephant,elephant,0,0203_scg_s04_0_elephant_00_elephant6-car3.png
subject-04,1,204,1.30201101303101,bicycle,bicycle,0,0204_scg_s04_0_bicycle_00_bicycle4-bicycle3.png
subject-04,1,205,0.839509010314941,bottle,bottle,0,0205_scg_s04_0_bottle_00_bottle5-bird3.png
subject-04,1,206,0.967139005661011,bottle,bottle,0,0206_scg_s04_0_bottle_00_bottle2-clock1.png
subject-04,1,207,1.41958808898926,truck,oven,0,0207_scg_s04_0_oven_00_oven7-clock2.png
subject-04,1,208,1.04897212982178,keyboard,knife,0,0208_scg_s04_0_knife_00_knife1-oven1.png
subject-04,1,209,0.798453092575073,clock,clock,0,0209_scg_s04_0_clock_00_clock7-dog2.png
subject-04,1,210,1.19589900970459,keyboard,airplane,0,0210_scg_s04_0_airplane_00_airplane9-knife3.png
subject-04,1,211,1.07247686386108,car,car,0,0211_scg_s04_0_car_00_car8-airplane3.png
subject-04,1,212,0.878255128860474,oven,oven,0,0212_scg_s04_0_oven_00_oven3-cat2.png
subject-04,1,213,0.93574595451355,truck,truck,0,0213_scg_s04_0_truck_00_truck10-truck3.png
subject-04,1,214,1.02582192420959,dog,bear,0,0214_scg_s04_0_bear_00_bear6-clock1.png
subject-04,1,215,1.29860806465149,oven,bear,0,0215_scg_s04_0_bear_00_bear2-keyboard2.png
subject-04,1,216,1.15042901039124,knife,boat,0,0216_scg_s04_0_boat_00_boat4-bird1.png
subject-04,1,217,1.07236790657043,bear,bear,0,0217_scg_s04_0_bear_00_bear1-bird2.png
subject-04,1,218,0.846013069152832,bird,bird,0,0218_scg_s04_0_bird_00_bird7-keyboard3.png
subject-04,1,219,0.76810097694397,clock,clock,0,0219_scg_s04_0_clock_00_clock7-car1.png
subject-04,1,220,1.15765404701233,clock,clock,0,0220_scg_s04_0_clock_00_clock9-airplane1.png
subject-04,1,221,0.939922094345093,bicycle,bicycle,0,0221_scg_s04_0_bicycle_00_bicycle7-bicycle2.png
subject-04,1,222,0.937438011169434,car,car,0,0222_scg_s04_0_car_00_car6-elephant3.png
subject-04,1,223,NaN,na,chair,0,0223_scg_s04_0_chair_00_chair9-dog2.png
subject-04,1,224,1.17102098464966,elephant,bear,0,0224_scg_s04_0_bear_00_bear7-truck1.png
subject-04,1,225,0.852560043334961,knife,knife,0,0225_scg_s04_0_knife_00_knife9-bird1.png
subject-04,1,226,0.780339956283569,oven,oven,0,0226_scg_s04_0_oven_00_oven1-boat3.png
subject-04,1,227,0.916366815567017,cat,dog,0,0227_scg_s04_0_dog_00_dog8-bottle2.png
subject-04,1,228,0.952508926391602,truck,truck,0,0228_scg_s04_0_truck_00_truck7-chair2.png
subject-04,1,229,0.982000827789307,dog,dog,0,0229_scg_s04_0_dog_00_dog10-oven2.png
subject-04,1,230,0.980348110198975,keyboard,keyboard,0,0230_scg_s04_0_keyboard_00_keyboard9-chair2.png
subject-04,1,231,1.09953880310059,truck,truck,0,0231_scg_s04_0_truck_00_truck4-knife1.png
subject-04,1,232,1.13603115081787,bird,airplane,0,0232_scg_s04_0_airplane_00_airplane5-bear2.png
subject-04,1,233,0.811355829238892,oven,oven,0,0233_scg_s04_0_oven_00_oven4-clock2.png
subject-04,1,234,1.35985398292542,elephant,elephant,0,0234_scg_s04_0_elephant_00_elephant8-truck3.png
subject-04,1,235,1.19544410705566,bird,bird,0,0235_scg_s04_0_bird_00_bird9-dog2.png
subject-04,1,236,0.923150062561035,bicycle,bicycle,0,0236_scg_s04_0_bicycle_00_bicycle6-boat2.png
subject-04,1,237,0.966567993164062,clock,knife,0,0237_scg_s04_0_knife_00_knife5-oven2.png
subject-04,1,238,0.965059995651245,knife,knife,0,0238_scg_s04_0_knife_00_knife6-bicycle1.png
subject-04,1,239,1.14724707603455,keyboard,keyboard,0,0239_scg_s04_0_keyboard_00_keyboard9-truck3.png
subject-04,1,240,0.985188007354736,elephant,elephant,0,0240_scg_s04_0_elephant_00_elephant7-airplane3.png
subject-04,1,241,1.05088591575623,oven,chair,0,0241_scg_s04_0_chair_00_chair6-truck2.png
subject-04,1,242,1.19488787651062,elephant,bear,0,0242_scg_s04_0_bear_00_bear3-truck3.png
subject-04,1,243,1.01448798179626,elephant,elephant,0,0243_scg_s04_0_elephant_00_elephant9-elephant3.png
subject-04,1,244,1.15807604789734,airplane,airplane,0,0244_scg_s04_0_airplane_00_airplane5-bird2.png
subject-04,1,245,0.939566850662231,bear,bear,0,0245_scg_s04_0_bear_00_bear9-dog1.png
subject-04,1,246,1.23742914199829,knife,knife,0,0246_scg_s04_0_knife_00_knife1-clock2.png
subject-04,1,247,0.975682973861694,oven,oven,0,0247_scg_s04_0_oven_00_oven7-cat1.png
subject-04,1,248,1.16313099861145,bird,bird,0,0248_scg_s04_0_bird_00_bird1-clock3.png
subject-04,1,249,1.30717015266418,dog,cat,0,0249_scg_s04_0_cat_00_cat4-dog3.png
subject-04,1,250,1.09692597389221,bird,bird,0,0250_scg_s04_0_bird_00_bird1-boat1.png
subject-04,1,251,1.38724803924561,bottle,bottle,0,0251_scg_s04_0_bottle_00_bottle8-knife1.png
subject-04,1,252,1.00102305412292,chair,chair,0,0252_scg_s04_0_chair_00_chair8-knife2.png
subject-04,1,253,0.914915084838867,chair,chair,0,0253_scg_s04_0_chair_00_chair4-oven2.png
subject-04,1,254,1.0066339969635,bird,bird,0,0254_scg_s04_0_bird_00_bird6-bottle3.png
subject-04,1,255,0.836149215698242,cat,cat,0,0255_scg_s04_0_cat_00_cat5-boat1.png
subject-04,1,256,0.731547117233276,cat,cat,0,0256_scg_s04_0_cat_00_cat2-elephant1.png
subject-04,1,257,0.989614963531494,elephant,elephant,0,0257_scg_s04_0_elephant_00_elephant10-knife3.png
subject-04,1,258,1.26374292373657,elephant,truck,0,0258_scg_s04_0_truck_00_truck3-bear3.png
subject-04,1,259,1.0292329788208,elephant,elephant,0,0259_scg_s04_0_elephant_00_elephant9-chair2.png
subject-04,1,260,0.818835973739624,oven,oven,0,0260_scg_s04_0_oven_00_oven7-car3.png
subject-04,1,261,1.04118204116821,chair,chair,0,0261_scg_s04_0_chair_00_chair9-bird3.png
subject-04,1,262,0.99853515625,knife,knife,0,0262_scg_s04_0_knife_00_knife4-cat2.png
subject-04,1,263,0.766377925872803,oven,oven,0,0263_scg_s04_0_oven_00_oven2-bicycle1.png
subject-04,1,264,0.74853515625,chair,chair,0,0264_scg_s04_0_chair_00_chair5-bottle3.png
subject-04,1,265,1.14985203742981,bottle,bottle,0,0265_scg_s04_0_bottle_00_bottle5-cat1.png
subject-04,1,266,1.24550795555115,oven,clock,0,0266_scg_s04_0_clock_00_clock10-oven2.png
subject-04,1,267,0.820623874664307,oven,oven,0,0267_scg_s04_0_oven_00_oven5-airplane1.png
subject-04,1,268,1.14081215858459,bird,airplane,0,0268_scg_s04_0_airplane_00_airplane7-cat3.png
subject-04,1,269,1.06855797767639,bird,bird,0,0269_scg_s04_0_bird_00_bird5-bird1.png
subject-04,1,270,1.19099092483521,cat,boat,0,0270_scg_s04_0_boat_00_boat3-keyboard2.png
subject-04,1,271,0.887871980667114,bottle,bottle,0,0271_scg_s04_0_bottle_00_bottle3-bird1.png
subject-04,1,272,1.09931421279907,chair,airplane,0,0272_scg_s04_0_airplane_00_airplane9-clock1.png
subject-04,1,273,0.817015886306763,cat,cat,0,0273_scg_s04_0_cat_00_cat6-keyboard3.png
subject-04,1,274,0.644232988357544,cat,cat,0,0274_scg_s04_0_cat_00_cat5-bottle1.png
subject-04,1,275,1.01822090148926,boat,boat,0,0275_scg_s04_0_boat_00_boat9-keyboard2.png
subject-04,1,276,1.31405806541443,dog,dog,0,0276_scg_s04_0_dog_00_dog4-oven1.png
subject-04,1,277,1.4417200088501,boat,boat,0,0277_scg_s04_0_boat_00_boat10-boat3.png
subject-04,1,278,1.01772999763489,knife,knife,0,0278_scg_s04_0_knife_00_knife10-bear3.png
subject-04,1,279,0.874469995498657,oven,oven,0,0279_scg_s04_0_oven_00_oven9-oven1.png
subject-04,1,280,1.04230999946594,chair,chair,0,0280_scg_s04_0_chair_00_chair2-bear2.png
subject-04,1,281,1.0323588848114,truck,truck,0,0281_scg_s04_0_truck_00_truck4-boat3.png
subject-04,1,282,1.22244691848755,bear,boat,0,0282_scg_s04_0_boat_00_boat7-clock3.png
subject-04,1,283,0.958384990692139,bicycle,bicycle,0,0283_scg_s04_0_bicycle_00_bicycle2-bottle1.png
subject-04,1,284,1.30207800865173,clock,clock,0,0284_scg_s04_0_clock_00_clock3-bicycle2.png
subject-04,1,285,0.963870048522949,truck,truck,0,0285_scg_s04_0_truck_00_truck7-bird2.png
subject-04,1,286,0.915786981582642,elephant,elephant,0,0286_scg_s04_0_elephant_00_elephant5-bear2.png
subject-04,1,287,1.1212899684906,bird,bird,0,0287_scg_s04_0_bird_00_bird7-car2.png
subject-04,1,288,0.957391023635864,bottle,bottle,0,0288_scg_s04_0_bottle_00_bottle5-keyboard2.png
subject-04,1,289,1.08506488800049,chair,chair,0,0289_scg_s04_0_chair_00_chair5-cat3.png
subject-04,1,290,1.03624987602234,boat,boat,0,0290_scg_s04_0_boat_00_boat6-cat1.png
subject-04,1,291,0.96942400932312,truck,truck,0,0291_scg_s04_0_truck_00_truck8-bottle2.png
subject-04,1,292,1.02147102355957,bottle,bottle,0,0292_scg_s04_0_bottle_00_bottle1-bird3.png
subject-04,1,293,0.931563854217529,car,car,0,0293_scg_s04_0_car_00_car7-oven2.png
subject-04,1,294,0.821447134017944,dog,dog,0,0294_scg_s04_0_dog_00_dog8-dog3.png
subject-04,1,295,0.849723100662231,chair,chair,0,0295_scg_s04_0_chair_00_chair10-cat1.png
subject-04,1,296,1.19344305992126,chair,elephant,0,0296_scg_s04_0_elephant_00_elephant1-dog2.png
subject-04,1,297,0.900120973587036,bear,elephant,0,0297_scg_s04_0_elephant_00_elephant1-keyboard3.png
subject-04,1,298,0.965643167495728,knife,airplane,0,0298_scg_s04_0_airplane_00_airplane4-dog2.png
subject-04,1,299,1.07130718231201,dog,boat,0,0299_scg_s04_0_boat_00_boat6-elephant2.png
subject-04,1,300,1.31326603889465,dog,bird,0,0300_scg_s04_0_bird_00_bird9-bear3.png
subject-04,1,301,0.864176988601685,truck,truck,0,0301_scg_s04_0_truck_00_truck2-boat3.png
subject-04,1,302,1.09209704399109,knife,knife,0,0302_scg_s04_0_knife_00_knife10-dog1.png
subject-04,1,303,1.48185300827026,airplane,airplane,0,0303_scg_s04_0_airplane_00_airplane8-oven2.png
subject-04,1,304,0.895355224609375,cat,cat,0,0304_scg_s04_0_cat_00_cat5-chair3.png
subject-04,1,305,1.21032500267029,dog,dog,0,0305_scg_s04_0_dog_00_dog5-knife2.png
subject-04,1,306,0.791963815689087,clock,clock,0,0306_scg_s04_0_clock_00_clock1-clock2.png
subject-04,1,307,0.827729940414429,bicycle,bicycle,0,0307_scg_s04_0_bicycle_00_bicycle5-oven3.png
subject-04,1,308,0.994009971618652,bicycle,bicycle,0,0308_scg_s04_0_bicycle_00_bicycle8-boat1.png
subject-04,1,309,0.799915075302124,bottle,bottle,0,0309_scg_s04_0_bottle_00_bottle7-boat3.png
subject-04,1,310,1.1514880657196,bear,bear,0,0310_scg_s04_0_bear_00_bear8-bear1.png
subject-04,1,311,0.771260976791382,chair,chair,0,0311_scg_s04_0_chair_00_chair8-oven1.png
subject-04,1,312,0.861325025558472,clock,clock,0,0312_scg_s04_0_clock_00_clock10-clock3.png
subject-04,1,313,1.02686715126038,elephant,elephant,0,0313_scg_s04_0_elephant_00_elephant5-bicycle3.png
subject-04,1,314,0.748743057250977,bicycle,bicycle,0,0314_scg_s04_0_bicycle_00_bicycle3-oven3.png
subject-04,1,315,1.26909017562866,elephant,elephant,0,0315_scg_s04_0_elephant_00_elephant1-oven2.png
subject-04,1,316,1.02903389930725,chair,chair,0,0316_scg_s04_0_chair_00_chair6-bird2.png
subject-04,1,317,0.99451208114624,clock,clock,0,0317_scg_s04_0_clock_00_clock10-airplane1.png
subject-04,1,318,1.2766900062561,oven,oven,0,0318_scg_s04_0_oven_00_oven3-truck1.png
subject-04,1,319,1.02947998046875,truck,truck,0,0319_scg_s04_0_truck_00_truck6-truck2.png
subject-04,1,320,0.872624158859253,elephant,elephant,0,0320_scg_s04_0_elephant_00_elephant6-bottle2.png
subject-04,1,321,0.754709005355835,bird,bird,0,0321_scg_s04_0_bird_00_bird4-dog3.png
subject-04,1,322,1.50003695487976,knife,keyboard,0,0322_scg_s04_0_keyboard_00_keyboard3-elephant2.png
subject-04,1,323,0.675613880157471,bottle,bottle,0,0323_scg_s04_0_bottle_00_bottle10-bear2.png
subject-04,1,324,1.04934310913086,bear,bear,0,0324_scg_s04_0_bear_00_bear9-keyboard3.png
subject-04,1,325,0.917145967483521,keyboard,keyboard,0,0325_scg_s04_0_keyboard_00_keyboard7-truck2.png
subject-04,1,326,1.07488918304443,bear,dog,0,0326_scg_s04_0_dog_00_dog3-keyboard1.png
subject-04,1,327,0.750770092010498,clock,clock,0,0327_scg_s04_0_clock_00_clock6-knife2.png
subject-04,1,328,1.50008916854858,airplane,airplane,0,0328_scg_s04_0_airplane_00_airplane8-truck3.png
subject-04,1,329,1.00636982917786,dog,cat,0,0329_scg_s04_0_cat_00_cat3-truck3.png
subject-04,1,330,1.01815581321716,truck,truck,0,0330_scg_s04_0_truck_00_truck5-truck1.png
subject-04,1,331,0.924152135848999,chair,chair,0,0331_scg_s04_0_chair_00_chair2-boat1.png
subject-04,1,332,0.938419103622437,keyboard,keyboard,0,0332_scg_s04_0_keyboard_00_keyboard7-boat2.png
subject-04,1,333,0.941813945770264,bird,bird,0,0333_scg_s04_0_bird_00_bird3-cat1.png
subject-04,1,334,0.763365983963013,bicycle,bicycle,0,0334_scg_s04_0_bicycle_00_bicycle7-clock3.png
subject-04,1,335,0.775336980819702,bird,bird,0,0335_scg_s04_0_bird_00_bird8-boat3.png
subject-04,1,336,1.07910585403442,dog,dog,0,0336_scg_s04_0_dog_00_dog3-dog1.png
subject-04,1,337,1.06859111785889,bear,bear,0,0337_scg_s04_0_bear_00_bear3-airplane1.png
subject-04,1,338,1.08275103569031,car,car,0,0338_scg_s04_0_car_00_car5-keyboard3.png
subject-04,1,339,0.964753866195679,clock,clock,0,0339_scg_s04_0_clock_00_clock6-clock2.png
subject-04,1,340,1.08380603790283,knife,knife,0,0340_scg_s04_0_knife_00_knife7-airplane3.png
subject-04,1,341,1.04919195175171,truck,truck,0,0341_scg_s04_0_truck_00_truck10-bicycle1.png
subject-04,1,342,1.24238014221191,truck,cat,0,0342_scg_s04_0_cat_00_cat10-oven2.png
subject-04,1,343,1.04916906356812,car,car,0,0343_scg_s04_0_car_00_car1-oven3.png
subject-04,1,344,0.846788883209229,chair,chair,0,0344_scg_s04_0_chair_00_chair7-car2.png
subject-04,1,345,1.18858194351196,airplane,airplane,0,0345_scg_s04_0_airplane_00_airplane10-bear3.png
subject-04,1,346,0.915714979171753,keyboard,keyboard,0,0346_scg_s04_0_keyboard_00_keyboard8-airplane2.png
subject-04,1,347,0.85968017578125,keyboard,keyboard,0,0347_scg_s04_0_keyboard_00_keyboard5-keyboard1.png
subject-04,1,348,1.16636896133423,dog,bear,0,0348_scg_s04_0_bear_00_bear1-chair2.png
subject-04,1,349,1.16414213180542,elephant,elephant,0,0349_scg_s04_0_elephant_00_elephant6-oven1.png
subject-04,1,350,1.09775996208191,chair,keyboard,0,0350_scg_s04_0_keyboard_00_keyboard7-chair3.png
subject-04,1,351,1.10326790809631,elephant,elephant,0,0351_scg_s04_0_elephant_00_elephant8-boat2.png
subject-04,1,352,0.863454103469849,airplane,airplane,0,0352_scg_s04_0_airplane_00_airplane5-dog3.png
subject-04,1,353,0.921151161193848,car,boat,0,0353_scg_s04_0_boat_00_boat3-airplane2.png
subject-04,1,354,1.36267399787903,elephant,elephant,0,0354_scg_s04_0_elephant_00_elephant8-bicycle3.png
subject-04,1,355,0.830802202224731,bicycle,bicycle,0,0355_scg_s04_0_bicycle_00_bicycle5-bottle3.png
subject-04,1,356,1.24189710617065,airplane,airplane,0,0356_scg_s04_0_airplane_00_airplane3-clock1.png
subject-04,1,357,1.3694851398468,truck,truck,0,0357_scg_s04_0_truck_00_truck3-bird2.png
subject-04,1,358,1.30564188957214,airplane,airplane,0,0358_scg_s04_0_airplane_00_airplane2-bottle1.png
subject-04,1,359,0.687777996063232,bird,dog,0,0359_scg_s04_0_dog_00_dog8-keyboard3.png
subject-04,1,360,0.992681980133057,oven,cat,0,0360_scg_s04_0_cat_00_cat10-bottle1.png
subject-04,1,361,0.791178941726685,bicycle,bicycle,0,0361_scg_s04_0_bicycle_00_bicycle1-bear1.png
subject-04,1,362,0.819107055664062,cat,cat,0,0362_scg_s04_0_cat_00_cat5-dog3.png
subject-04,1,363,0.662737846374512,clock,clock,0,0363_scg_s04_0_clock_00_clock5-airplane1.png
subject-04,1,364,0.782932043075562,bear,bear,0,0364_scg_s04_0_bear_00_bear5-airplane3.png
subject-04,1,365,1.42651796340942,boat,boat,0,0365_scg_s04_0_boat_00_boat4-chair2.png
subject-04,1,366,1.37649202346802,truck,oven,0,0366_scg_s04_0_oven_00_oven1-bird3.png
subject-04,1,367,1.12846899032593,boat,airplane,0,0367_scg_s04_0_airplane_00_airplane3-airplane2.png
subject-04,1,368,0.918058156967163,bird,bird,0,0368_scg_s04_0_bird_00_bird2-clock3.png
subject-04,1,369,0.915348052978516,bottle,bottle,0,0369_scg_s04_0_bottle_00_bottle8-keyboard3.png
subject-04,1,370,1.03477907180786,truck,truck,0,0370_scg_s04_0_truck_00_truck4-oven2.png
subject-04,1,371,0.778997898101807,oven,oven,0,0371_scg_s04_0_oven_00_oven2-boat3.png
subject-04,1,372,0.814655065536499,bottle,bottle,0,0372_scg_s04_0_bottle_00_bottle6-oven3.png
subject-04,1,373,1.00505495071411,bottle,elephant,0,0373_scg_s04_0_elephant_00_elephant2-boat1.png
subject-04,1,374,0.786297798156738,airplane,airplane,0,0374_scg_s04_0_airplane_00_airplane10-truck1.png
subject-04,1,375,1.48974204063416,bicycle,bicycle,0,0375_scg_s04_0_bicycle_00_bicycle6-car2.png
subject-04,1,376,0.933973073959351,bear,bear,0,0376_scg_s04_0_bear_00_bear4-elephant2.png
subject-04,1,377,0.778231859207153,oven,oven,0,0377_scg_s04_0_oven_00_oven9-chair1.png
subject-04,1,378,1.09218406677246,bear,bear,0,0378_scg_s04_0_bear_00_bear10-knife2.png
subject-04,1,379,1.02606987953186,bear,bear,0,0379_scg_s04_0_bear_00_bear5-bird1.png
subject-04,1,380,0.877882957458496,truck,truck,0,0380_scg_s04_0_truck_00_truck5-car1.png
subject-04,1,381,1.41970801353455,bear,elephant,0,0381_scg_s04_0_elephant_00_elephant2-bird1.png
subject-04,1,382,1.32550597190857,bicycle,bicycle,0,0382_scg_s04_0_bicycle_00_bicycle8-bird2.png
subject-04,1,383,1.27012395858765,dog,dog,0,0383_scg_s04_0_dog_00_dog5-boat3.png
subject-04,1,384,1.20578408241272,chair,chair,0,0384_scg_s04_0_chair_00_chair9-keyboard2.png
subject-04,1,385,0.941091060638428,dog,dog,0,0385_scg_s04_0_dog_00_dog7-chair2.png
subject-04,1,386,0.785053968429565,oven,oven,0,0386_scg_s04_0_oven_00_oven3-knife1.png
subject-04,1,387,0.988631963729858,dog,bear,0,0387_scg_s04_0_bear_00_bear3-cat1.png
subject-04,1,388,1.16480207443237,truck,truck,0,0388_scg_s04_0_truck_00_truck4-bottle2.png
subject-04,1,389,1.30924415588379,truck,truck,0,0389_scg_s04_0_truck_00_truck7-elephant2.png
subject-04,1,390,0.944924831390381,boat,boat,0,0390_scg_s04_0_boat_00_boat5-boat3.png
subject-04,1,391,0.926945924758911,boat,boat,0,0391_scg_s04_0_boat_00_boat6-bottle2.png
subject-04,1,392,0.986223936080933,bird,bird,0,0392_scg_s04_0_bird_00_bird2-airplane3.png
subject-04,1,393,1.06833910942078,dog,cat,0,0393_scg_s04_0_cat_00_cat7-airplane2.png
subject-04,1,394,1.14803504943848,truck,truck,0,0394_scg_s04_0_truck_00_truck8-dog3.png
subject-04,1,395,0.999942064285278,elephant,elephant,0,0395_scg_s04_0_elephant_00_elephant4-clock3.png
subject-04,1,396,1.02783584594727,bicycle,bicycle,0,0396_scg_s04_0_bicycle_00_bicycle2-knife2.png
subject-04,1,397,0.849210023880005,clock,clock,0,0397_scg_s04_0_clock_00_clock2-knife1.png
subject-04,1,398,0.844763994216919,chair,chair,0,0398_scg_s04_0_chair_00_chair5-truck3.png
subject-04,1,399,0.866981029510498,airplane,airplane,0,0399_scg_s04_0_airplane_00_airplane4-boat3.png
subject-04,1,400,0.945672988891602,cat,cat,0,0400_scg_s04_0_cat_00_cat1-bird1.png
subject-04,1,401,0.78367805480957,clock,clock,0,0401_scg_s04_0_clock_00_clock8-truck2.png
subject-04,1,402,0.717411041259766,clock,clock,0,0402_scg_s04_0_clock_00_clock5-keyboard1.png
subject-04,1,403,1.1529529094696,knife,knife,0,0403_scg_s04_0_knife_00_knife3-cat1.png
subject-04,1,404,0.910371065139771,truck,truck,0,0404_scg_s04_0_truck_00_truck10-elephant3.png
subject-04,1,405,1.06219696998596,knife,keyboard,0,0405_scg_s04_0_keyboard_00_keyboard3-clock3.png
subject-04,1,406,1.29882597923279,truck,car,0,0406_scg_s04_0_car_00_car5-airplane3.png
subject-04,1,407,1.50002884864807,keyboard,boat,0,0407_scg_s04_0_boat_00_boat3-car3.png
subject-04,1,408,0.970070123672485,bottle,bottle,0,0408_scg_s04_0_bottle_00_bottle3-knife3.png
subject-04,1,409,1.13587999343872,clock,clock,0,0409_scg_s04_0_clock_00_clock4-boat3.png
subject-04,1,410,1.10977292060852,knife,knife,0,0410_scg_s04_0_knife_00_knife2-cat3.png
subject-04,1,411,1.38304495811462,cat,cat,0,0411_scg_s04_0_cat_00_cat10-clock1.png
subject-04,1,412,1.07321405410767,car,car,0,0412_scg_s04_0_car_00_car1-chair3.png
subject-04,1,413,1.21925401687622,truck,clock,0,0413_scg_s04_0_clock_00_clock9-keyboard2.png
subject-04,1,414,0.915181875228882,cat,cat,0,0414_scg_s04_0_cat_00_cat9-clock2.png
subject-04,1,415,0.907409191131592,elephant,elephant,0,0415_scg_s04_0_elephant_00_elephant7-knife2.png
subject-04,1,416,0.85679817199707,bicycle,bicycle,0,0416_scg_s04_0_bicycle_00_bicycle3-elephant2.png
subject-04,1,417,1.08491992950439,elephant,elephant,0,0417_scg_s04_0_elephant_00_elephant5-bottle2.png
subject-04,1,418,1.15880513191223,bear,bear,0,0418_scg_s04_0_bear_00_bear3-chair2.png
subject-04,1,419,0.834574937820435,bird,bird,0,0419_scg_s04_0_bird_00_bird2-bird2.png
subject-04,1,420,0.946254014968872,airplane,airplane,0,0420_scg_s04_0_airplane_00_airplane6-knife1.png
subject-04,1,421,0.982031106948853,airplane,airplane,0,0421_scg_s04_0_airplane_00_airplane5-bottle3.png
subject-04,1,422,0.963991165161133,boat,boat,0,0422_scg_s04_0_boat_00_boat5-car3.png
subject-04,1,423,0.823334932327271,chair,chair,0,0423_scg_s04_0_chair_00_chair10-dog1.png
subject-04,1,424,0.828978061676025,chair,chair,0,0424_scg_s04_0_chair_00_chair9-elephant1.png
subject-04,1,425,1.34687805175781,dog,dog,0,0425_scg_s04_0_dog_00_dog5-bear3.png
subject-04,1,426,1.10659790039062,keyboard,keyboard,0,0426_scg_s04_0_keyboard_00_keyboard8-oven1.png
subject-04,1,427,1.01008796691895,bicycle,bicycle,0,0427_scg_s04_0_bicycle_00_bicycle4-cat1.png
subject-04,1,428,1.30791878700256,bottle,bottle,0,0428_scg_s04_0_bottle_00_bottle1-chair2.png
subject-04,1,429,0.721368074417114,bottle,bottle,0,0429_scg_s04_0_bottle_00_bottle9-oven2.png
subject-04,1,430,0.641417980194092,bicycle,bicycle,0,0430_scg_s04_0_bicycle_00_bicycle9-knife3.png
subject-04,1,431,0.939677000045776,truck,truck,0,0431_scg_s04_0_truck_00_truck3-bicycle1.png
subject-04,1,432,1.30499005317688,cat,cat,0,0432_scg_s04_0_cat_00_cat8-car2.png
subject-04,1,433,1.10034704208374,truck,airplane,0,0433_scg_s04_0_airplane_00_airplane4-truck2.png
subject-04,1,434,1.09253406524658,truck,truck,0,0434_scg_s04_0_truck_00_truck2-bottle3.png
subject-04,1,435,1.18862318992615,bird,bird,0,0435_scg_s04_0_bird_00_bird9-chair1.png
subject-04,1,436,0.95588207244873,airplane,airplane,0,0436_scg_s04_0_airplane_00_airplane2-bicycle1.png
subject-04,1,437,0.875708818435669,bottle,bottle,0,0437_scg_s04_0_bottle_00_bottle5-oven2.png
subject-04,1,438,1.37147092819214,truck,oven,0,0438_scg_s04_0_oven_00_oven1-cat1.png
subject-04,1,439,1.11818695068359,truck,oven,0,0439_scg_s04_0_oven_00_oven6-elephant2.png
subject-04,1,440,0.807810068130493,cat,cat,0,0440_scg_s04_0_cat_00_cat7-elephant1.png
subject-04,1,441,1.04890012741089,airplane,airplane,0,0441_scg_s04_0_airplane_00_airplane4-bear3.png
subject-04,1,442,0.76189398765564,car,car,0,0442_scg_s04_0_car_00_car3-dog2.png
subject-04,1,443,0.92828106880188,airplane,airplane,0,0443_scg_s04_0_airplane_00_airplane8-clock2.png
subject-04,1,444,1.13218402862549,knife,knife,0,0444_scg_s04_0_knife_00_knife4-knife2.png
subject-04,1,445,0.924000024795532,bird,bird,0,0445_scg_s04_0_bird_00_bird8-keyboard2.png
subject-04,1,446,0.997544050216675,bottle,bottle,0,0446_scg_s04_0_bottle_00_bottle5-airplane1.png
subject-04,1,447,0.853992938995361,cat,cat,0,0447_scg_s04_0_cat_00_cat5-bicycle3.png
subject-04,1,448,0.611690998077393,clock,clock,0,0448_scg_s04_0_clock_00_clock2-bear2.png
subject-04,1,449,0.685003042221069,airplane,airplane,0,0449_scg_s04_0_airplane_00_airplane2-dog1.png
subject-04,1,450,1.19661402702332,elephant,elephant,0,0450_scg_s04_0_elephant_00_elephant6-bicycle1.png
subject-04,1,451,1.05730795860291,bear,oven,0,0451_scg_s04_0_oven_00_oven10-bear1.png
subject-04,1,452,0.662616968154907,bicycle,bicycle,0,0452_scg_s04_0_bicycle_00_bicycle2-keyboard2.png
subject-04,1,453,0.898391008377075,knife,knife,0,0453_scg_s04_0_knife_00_knife3-bear2.png
subject-04,1,454,1.44022488594055,bicycle,bicycle,0,0454_scg_s04_0_bicycle_00_bicycle8-clock3.png
subject-04,1,455,1.10579991340637,truck,truck,0,0455_scg_s04_0_truck_00_truck8-elephant1.png
subject-04,1,456,0.810640096664429,knife,knife,0,0456_scg_s04_0_knife_00_knife10-elephant3.png
subject-04,1,457,1.03885698318481,car,bear,0,0457_scg_s04_0_bear_00_bear10-oven1.png
subject-04,1,458,1.2366681098938,bicycle,bicycle,0,0458_scg_s04_0_bicycle_00_bicycle7-cat1.png
subject-04,1,459,0.856739044189453,elephant,elephant,0,0459_scg_s04_0_elephant_00_elephant9-boat3.png
subject-04,1,460,1.5003399848938,bottle,bottle,0,0460_scg_s04_0_bottle_00_bottle10-truck3.png
subject-04,1,461,1.02119302749634,chair,oven,0,0461_scg_s04_0_oven_00_oven7-dog2.png
subject-04,1,462,1.04043889045715,truck,truck,0,0462_scg_s04_0_truck_00_truck2-bicycle2.png
subject-04,1,463,0.824813842773438,oven,oven,0,0463_scg_s04_0_oven_00_oven3-airplane1.png
subject-04,1,464,0.812328100204468,oven,oven,0,0464_scg_s04_0_oven_00_oven8-chair1.png
subject-04,1,465,0.926244974136353,airplane,airplane,0,0465_scg_s04_0_airplane_00_airplane9-truck1.png
subject-04,1,466,0.832347869873047,oven,oven,0,0466_scg_s04_0_oven_00_oven3-elephant3.png
subject-04,1,467,0.806731939315796,keyboard,keyboard,0,0467_scg_s04_0_keyboard_00_keyboard4-knife2.png
subject-04,1,468,1.0350661277771,bird,bird,0,0468_scg_s04_0_bird_00_bird2-knife1.png
subject-04,1,469,1.10106110572815,bottle,bottle,0,0469_scg_s04_0_bottle_00_bottle3-bicycle3.png
subject-04,1,470,1.290531873703,car,car,0,0470_scg_s04_0_car_00_car5-oven2.png
subject-04,1,471,0.796299934387207,bottle,bottle,0,0471_scg_s04_0_bottle_00_bottle3-bear2.png
subject-04,1,472,1.00843191146851,oven,oven,0,0472_scg_s04_0_oven_00_oven3-car2.png
subject-04,1,473,1.01464796066284,bottle,bottle,0,0473_scg_s04_0_bottle_00_bottle4-oven2.png
subject-04,1,474,1.14840316772461,bird,cat,0,0474_scg_s04_0_cat_00_cat10-keyboard1.png
subject-04,1,475,1.26263308525085,knife,knife,0,0475_scg_s04_0_knife_00_knife8-truck3.png
subject-04,1,476,0.773504972457886,cat,cat,0,0476_scg_s04_0_cat_00_cat7-truck2.png
subject-04,1,477,1.32310009002686,elephant,elephant,0,0477_scg_s04_0_elephant_00_elephant8-bird2.png
subject-04,1,478,0.969558000564575,dog,dog,0,0478_scg_s04_0_dog_00_dog6-clock1.png
subject-04,1,479,0.813556909561157,bicycle,bicycle,0,0479_scg_s04_0_bicycle_00_bicycle8-truck1.png
subject-04,1,480,0.687143087387085,bottle,bottle,0,0480_scg_s04_0_bottle_00_bottle10-clock2.png
subject-04,1,481,0.853151082992554,bear,bear,0,0481_scg_s04_0_bear_00_bear9-knife2.png
subject-04,1,482,1.02430605888367,truck,truck,0,0482_scg_s04_0_truck_00_truck1-clock3.png
subject-04,1,483,1.06825804710388,knife,knife,0,0483_scg_s04_0_knife_00_knife1-keyboard3.png
subject-04,1,484,1.32524013519287,truck,truck,0,0484_scg_s04_0_truck_00_truck1-chair2.png
subject-04,1,485,0.876391172409058,oven,oven,0,0485_scg_s04_0_oven_00_oven10-bicycle1.png
subject-04,1,486,0.898947954177856,oven,oven,0,0486_scg_s04_0_oven_00_oven6-truck1.png
subject-04,1,487,0.824712038040161,knife,knife,0,0487_scg_s04_0_knife_00_knife9-elephant2.png
subject-04,1,488,0.892385005950928,cat,cat,0,0488_scg_s04_0_cat_00_cat5-knife2.png
subject-04,1,489,0.728081941604614,chair,chair,0,0489_scg_s04_0_chair_00_chair7-clock3.png
subject-04,1,490,0.793968200683594,cat,cat,0,0490_scg_s04_0_cat_00_cat2-truck3.png
subject-04,1,491,0.835260152816772,clock,clock,0,0491_scg_s04_0_clock_00_clock9-cat1.png
subject-04,1,492,0.940530061721802,oven,boat,0,0492_scg_s04_0_boat_00_boat3-cat3.png
subject-04,1,493,0.753180980682373,bird,bird,0,0493_scg_s04_0_bird_00_bird7-cat3.png
subject-04,1,494,1.1567120552063,elephant,bear,0,0494_scg_s04_0_bear_00_bear3-keyboard2.png
subject-04,1,495,0.662760972976685,bicycle,bicycle,0,0495_scg_s04_0_bicycle_00_bicycle7-truck3.png
subject-04,1,496,0.919511079788208,chair,chair,0,0496_scg_s04_0_chair_00_chair5-bicycle1.png
subject-04,1,497,0.677115917205811,clock,clock,0,0497_scg_s04_0_clock_00_clock3-bear3.png
subject-04,1,498,0.975148916244507,knife,knife,0,0498_scg_s04_0_knife_00_knife8-cat2.png
subject-04,1,499,0.740195989608765,chair,chair,0,0499_scg_s04_0_chair_00_chair5-car1.png
subject-04,1,500,0.908523082733154,bear,bear,0,0500_scg_s04_0_bear_00_bear8-bicycle3.png
subject-04,1,501,0.850368022918701,bird,bird,0,0501_scg_s04_0_bird_00_bird5-car2.png
subject-04,1,502,0.810167789459229,bear,bear,0,0502_scg_s04_0_bear_00_bear4-boat2.png
subject-04,1,503,0.791806936264038,elephant,elephant,0,0503_scg_s04_0_elephant_00_elephant6-knife2.png
subject-04,1,504,1.12582993507385,bottle,bottle,0,0504_scg_s04_0_bottle_00_bottle4-bicycle1.png
subject-04,1,505,0.831319093704224,bear,cat,0,0505_scg_s04_0_cat_00_cat9-truck1.png
subject-04,1,506,0.864684820175171,cat,cat,0,0506_scg_s04_0_cat_00_cat6-oven1.png
subject-04,1,507,0.862545967102051,oven,clock,0,0507_scg_s04_0_clock_00_clock1-elephant2.png
subject-04,1,508,0.976641893386841,knife,boat,0,0508_scg_s04_0_boat_00_boat1-elephant3.png
subject-04,1,509,1.1260941028595,boat,keyboard,0,0509_scg_s04_0_keyboard_00_keyboard9-bird1.png
subject-04,1,510,0.923926830291748,chair,chair,0,0510_scg_s04_0_chair_00_chair9-bicycle3.png
subject-04,1,511,0.919610977172852,bicycle,bicycle,0,0511_scg_s04_0_bicycle_00_bicycle9-chair1.png
subject-04,1,512,0.810512781143188,keyboard,keyboard,0,0512_scg_s04_0_keyboard_00_keyboard9-bear2.png
subject-04,1,513,0.776526927947998,clock,clock,0,0513_scg_s04_0_clock_00_clock4-knife1.png
subject-04,1,514,0.782279968261719,keyboard,keyboard,0,0514_scg_s04_0_keyboard_00_keyboard2-bottle1.png
subject-04,1,515,0.864242076873779,clock,clock,0,0515_scg_s04_0_clock_00_clock1-dog2.png
subject-04,1,516,0.76802396774292,elephant,elephant,0,0516_scg_s04_0_elephant_00_elephant6-bird1.png
subject-04,1,517,0.649631977081299,cat,cat,0,0517_scg_s04_0_cat_00_cat5-bear2.png
subject-04,1,518,0.776739120483398,elephant,elephant,0,0518_scg_s04_0_elephant_00_elephant3-knife1.png
subject-04,1,519,1.50002002716064,elephant,elephant,0,0519_scg_s04_0_elephant_00_elephant2-bear3.png
subject-04,1,520,0.938199996948242,car,car,0,0520_scg_s04_0_car_00_car10-keyboard2.png
subject-04,1,521,1.21929311752319,elephant,bird,0,0521_scg_s04_0_bird_00_bird3-knife3.png
subject-04,1,522,0.80935001373291,elephant,elephant,0,0522_scg_s04_0_elephant_00_elephant4-bicycle2.png
subject-04,1,523,0.723627090454102,oven,oven,0,0523_scg_s04_0_oven_00_oven4-car1.png
subject-04,1,524,0.928194999694824,keyboard,keyboard,0,0524_scg_s04_0_keyboard_00_keyboard5-dog3.png
subject-04,1,525,1.00188302993774,cat,cat,0,0525_scg_s04_0_cat_00_cat1-cat3.png
subject-04,1,526,0.758865118026733,elephant,elephant,0,0526_scg_s04_0_elephant_00_elephant9-clock3.png
subject-04,1,527,0.862628936767578,bear,bear,0,0527_scg_s04_0_bear_00_bear5-boat2.png
subject-04,1,528,1.02002501487732,dog,dog,0,0528_scg_s04_0_dog_00_dog4-bird1.png
subject-04,1,529,0.887639999389648,bear,bear,0,0529_scg_s04_0_bear_00_bear9-boat2.png
subject-04,1,530,0.78324294090271,keyboard,keyboard,0,0530_scg_s04_0_keyboard_00_keyboard5-bicycle1.png
subject-04,1,531,1.08155798912048,bicycle,bicycle,0,0531_scg_s04_0_bicycle_00_bicycle9-keyboard3.png
subject-04,1,532,0.733787059783936,chair,chair,0,0532_scg_s04_0_chair_00_chair5-clock2.png
subject-04,1,533,0.821295022964478,bicycle,bicycle,0,0533_scg_s04_0_bicycle_00_bicycle2-dog1.png
subject-04,1,534,0.802982091903687,clock,clock,0,0534_scg_s04_0_clock_00_clock4-bottle3.png
subject-04,1,535,0.855676889419556,elephant,elephant,0,0535_scg_s04_0_elephant_00_elephant2-airplane3.png
subject-04,1,536,0.829673051834106,boat,boat,0,0536_scg_s04_0_boat_00_boat8-dog3.png
subject-04,1,537,1.35029911994934,knife,knife,0,0537_scg_s04_0_knife_00_knife7-bird3.png
subject-04,1,538,0.764801979064941,bear,bear,0,0538_scg_s04_0_bear_00_bear2-cat2.png
subject-04,1,539,1.16077899932861,airplane,airplane,0,0539_scg_s04_0_airplane_00_airplane1-chair2.png
subject-04,1,540,1.08063101768494,truck,truck,0,0540_scg_s04_0_truck_00_truck1-knife1.png
subject-04,1,541,0.89454197883606,car,car,0,0541_scg_s04_0_car_00_car1-airplane1.png
subject-04,1,542,0.928049087524414,car,car,0,0542_scg_s04_0_car_00_car2-car3.png
subject-04,1,543,0.863098859786987,car,car,0,0543_scg_s04_0_car_00_car2-bird3.png
subject-04,1,544,0.875154972076416,dog,dog,0,0544_scg_s04_0_dog_00_dog4-clock1.png
subject-04,1,545,1.13280892372131,clock,clock,0,0545_scg_s04_0_clock_00_clock4-car2.png
subject-04,1,546,0.992265939712524,keyboard,keyboard,0,0546_scg_s04_0_keyboard_00_keyboard7-oven2.png
subject-04,1,547,0.857837915420532,car,car,0,0547_scg_s04_0_car_00_car4-elephant3.png
subject-04,1,548,0.807329177856445,chair,chair,0,0548_scg_s04_0_chair_00_chair5-bird1.png
subject-04,1,549,1.4854838848114,knife,knife,0,0549_scg_s04_0_knife_00_knife7-bottle3.png
subject-04,1,550,0.967570066452026,cat,cat,0,0550_scg_s04_0_cat_00_cat2-bottle3.png
subject-04,1,551,1.32540392875671,truck,truck,0,0551_scg_s04_0_truck_00_truck2-car3.png
subject-04,1,552,1.0229959487915,keyboard,keyboard,0,0552_scg_s04_0_keyboard_00_keyboard3-car2.png
subject-04,1,553,1.05862307548523,dog,cat,0,0553_scg_s04_0_cat_00_cat4-truck3.png
subject-04,1,554,0.765488147735596,oven,oven,0,0554_scg_s04_0_oven_00_oven3-bottle3.png
subject-04,1,555,0.731335878372192,clock,clock,0,0555_scg_s04_0_clock_00_clock2-bicycle1.png
subject-04,1,556,1.29716897010803,bottle,bottle,0,0556_scg_s04_0_bottle_00_bottle4-car3.png
subject-04,1,557,0.862462997436523,bottle,bottle,0,0557_scg_s04_0_bottle_00_bottle2-elephant1.png
subject-04,1,558,0.75166392326355,oven,oven,0,0558_scg_s04_0_oven_00_oven6-oven3.png
subject-04,1,559,0.939531087875366,keyboard,keyboard,0,0559_scg_s04_0_keyboard_00_keyboard8-dog3.png
subject-04,1,560,1.20547389984131,knife,knife,0,0560_scg_s04_0_knife_00_knife9-boat1.png
subject-04,1,561,1.04909896850586,bicycle,bicycle,0,0561_scg_s04_0_bicycle_00_bicycle1-knife3.png
subject-04,1,562,1.08279705047607,keyboard,oven,0,0562_scg_s04_0_oven_00_oven8-keyboard3.png
subject-04,1,563,1.01388096809387,knife,bird,0,0563_scg_s04_0_bird_00_bird6-elephant2.png
subject-04,1,564,1.15545582771301,airplane,airplane,0,0564_scg_s04_0_airplane_00_airplane8-bicycle3.png
subject-04,1,565,0.769368886947632,bottle,bottle,0,0565_scg_s04_0_bottle_00_bottle2-knife3.png
subject-04,1,566,0.842862129211426,clock,clock,0,0566_scg_s04_0_clock_00_clock3-cat1.png
subject-04,1,567,0.830235958099365,chair,chair,0,0567_scg_s04_0_chair_00_chair7-bottle1.png
subject-04,1,568,0.98206090927124,car,car,0,0568_scg_s04_0_car_00_car7-keyboard3.png
subject-04,1,569,1.1483998298645,truck,truck,0,0569_scg_s04_0_truck_00_truck9-truck3.png
subject-04,1,570,1.3360550403595,bird,bird,0,0570_scg_s04_0_bird_00_bird5-chair1.png
subject-04,1,571,1.01231789588928,knife,knife,0,0571_scg_s04_0_knife_00_knife2-elephant2.png
subject-04,1,572,1.11591982841492,knife,knife,0,0572_scg_s04_0_knife_00_knife2-bottle2.png
subject-04,1,573,0.75934886932373,oven,oven,0,0573_scg_s04_0_oven_00_oven2-chair1.png
subject-04,1,574,1.06330800056458,knife,knife,0,0574_scg_s04_0_knife_00_knife4-car2.png
subject-04,1,575,0.821042060852051,car,car,0,0575_scg_s04_0_car_00_car10-dog1.png
subject-04,1,576,1.10273909568787,bicycle,bicycle,0,0576_scg_s04_0_bicycle_00_bicycle1-bottle3.png
subject-04,1,577,1.04285883903503,dog,cat,0,0577_scg_s04_0_cat_00_cat9-knife2.png
subject-04,1,578,1.5000479221344,keyboard,keyboard,0,0578_scg_s04_0_keyboard_00_keyboard7-dog1.png
subject-04,1,579,1.07402801513672,dog,dog,0,0579_scg_s04_0_dog_00_dog6-bicycle1.png
subject-04,1,580,0.794112920761108,cat,cat,0,0580_scg_s04_0_cat_00_cat6-clock3.png
subject-04,1,581,0.829665184020996,dog,dog,0,0581_scg_s04_0_dog_00_dog5-oven1.png
subject-04,1,582,1.33339905738831,airplane,airplane,0,0582_scg_s04_0_airplane_00_airplane10-knife3.png
subject-04,1,583,0.983386039733887,knife,knife,0,0583_scg_s04_0_knife_00_knife2-car3.png
subject-04,1,584,0.949119091033936,car,car,0,0584_scg_s04_0_car_00_car4-bicycle3.png
subject-04,1,585,1.09296202659607,bicycle,bicycle,0,0585_scg_s04_0_bicycle_00_bicycle7-elephant2.png
subject-04,1,586,1.38042616844177,knife,knife,0,0586_scg_s04_0_knife_00_knife6-airplane1.png
subject-04,1,587,0.969890117645264,car,car,0,0587_scg_s04_0_car_00_car2-chair1.png
subject-04,1,588,0.973534107208252,bird,bird,0,0588_scg_s04_0_bird_00_bird9-bottle3.png
subject-04,1,589,0.771651029586792,elephant,elephant,0,0589_scg_s04_0_elephant_00_elephant4-boat3.png
subject-04,1,590,0.953088045120239,elephant,elephant,0,0590_scg_s04_0_elephant_00_elephant9-dog3.png
subject-04,1,591,0.886791944503784,dog,dog,0,0591_scg_s04_0_dog_00_dog3-truck2.png
subject-04,1,592,0.755031108856201,knife,knife,0,0592_scg_s04_0_knife_00_knife5-bicycle2.png
subject-04,1,593,0.674561977386475,bottle,bottle,0,0593_scg_s04_0_bottle_00_bottle2-chair3.png
subject-04,1,594,0.740486145019531,chair,chair,0,0594_scg_s04_0_chair_00_chair7-cat1.png
subject-04,1,595,1.24972796440125,bicycle,bicycle,0,0595_scg_s04_0_bicycle_00_bicycle5-cat1.png
subject-04,1,596,1.00740504264832,bicycle,bicycle,0,0596_scg_s04_0_bicycle_00_bicycle5-elephant1.png
subject-04,1,597,0.962494134902954,dog,dog,0,0597_scg_s04_0_dog_00_dog10-dog1.png
subject-04,1,598,0.90377402305603,bird,airplane,0,0598_scg_s04_0_airplane_00_airplane3-cat1.png
subject-04,1,599,0.818437814712524,oven,oven,0,0599_scg_s04_0_oven_00_oven2-dog3.png
subject-04,1,600,0.736097097396851,cat,cat,0,0600_scg_s04_0_cat_00_cat1-car2.png
subject-04,1,601,1.30136299133301,knife,knife,0,0601_scg_s04_0_knife_00_knife6-oven3.png
subject-04,1,602,0.89979100227356,dog,dog,0,0602_scg_s04_0_dog_00_dog1-cat3.png
subject-04,1,603,0.849526882171631,cat,bird,0,0603_scg_s04_0_bird_00_bird1-keyboard3.png
subject-04,1,604,0.931367874145508,bird,airplane,0,0604_scg_s04_0_airplane_00_airplane3-chair3.png
subject-04,1,605,0.910952806472778,bird,airplane,0,0605_scg_s04_0_airplane_00_airplane3-dog1.png
subject-04,1,606,0.9302818775177,clock,clock,0,0606_scg_s04_0_clock_00_clock5-chair3.png
subject-04,1,607,0.874183893203735,knife,knife,0,0607_scg_s04_0_knife_00_knife6-bird1.png
subject-04,1,608,1.31609797477722,knife,knife,0,0608_scg_s04_0_knife_00_knife2-bicycle3.png
subject-04,1,609,1.18181800842285,bear,bear,0,0609_scg_s04_0_bear_00_bear7-dog3.png
subject-04,1,610,1.02540302276611,chair,chair,0,0610_scg_s04_0_chair_00_chair2-knife1.png
subject-04,1,611,0.891168117523193,boat,boat,0,0611_scg_s04_0_boat_00_boat9-chair2.png
subject-04,1,612,0.870563983917236,car,car,0,0612_scg_s04_0_car_00_car3-boat1.png
subject-04,1,613,0.830414056777954,airplane,airplane,0,0613_scg_s04_0_airplane_00_airplane10-elephant1.png
subject-04,1,614,1.41012287139893,elephant,elephant,0,0614_scg_s04_0_elephant_00_elephant7-keyboard3.png
subject-04,1,615,0.929682970046997,bear,bear,0,0615_scg_s04_0_bear_00_bear10-truck1.png
subject-04,1,616,1.0196430683136,car,car,0,0616_scg_s04_0_car_00_car3-bird2.png
subject-04,1,617,0.852934122085571,cat,cat,0,0617_scg_s04_0_cat_00_cat3-bicycle1.png
subject-04,1,618,1.14285516738892,knife,knife,0,0618_scg_s04_0_knife_00_knife10-chair1.png
subject-04,1,619,0.824862003326416,boat,boat,0,0619_scg_s04_0_boat_00_boat4-bottle2.png
subject-04,1,620,1.23444581031799,dog,dog,0,0620_scg_s04_0_dog_00_dog4-truck2.png
subject-04,1,621,0.710170984268188,clock,clock,0,0621_scg_s04_0_clock_00_clock8-knife1.png
subject-04,1,622,0.889909029006958,keyboard,keyboard,0,0622_scg_s04_0_keyboard_00_keyboard10-oven3.png
subject-04,1,623,1.50044918060303,dog,dog,0,0623_scg_s04_0_dog_00_dog9-car1.png
subject-04,1,624,0.928798913955688,elephant,elephant,0,0624_scg_s04_0_elephant_00_elephant3-truck1.png
subject-04,1,625,1.20081210136414,keyboard,keyboard,0,0625_scg_s04_0_keyboard_00_keyboard4-bird1.png
subject-04,1,626,0.69880199432373,car,car,0,0626_scg_s04_0_car_00_car5-cat1.png
subject-04,1,627,0.804373979568481,bicycle,bicycle,0,0627_scg_s04_0_bicycle_00_bicycle5-chair2.png
subject-04,1,628,0.832881927490234,keyboard,keyboard,0,0628_scg_s04_0_keyboard_00_keyboard4-clock2.png
subject-04,1,629,1.0283989906311,bottle,bottle,0,0629_scg_s04_0_bottle_00_bottle5-boat1.png
subject-04,1,630,0.826626062393188,airplane,airplane,0,0630_scg_s04_0_airplane_00_airplane10-boat3.png
subject-04,1,631,0.85260009765625,bear,bear,0,0631_scg_s04_0_bear_00_bear8-truck3.png
subject-04,1,632,1.46410298347473,dog,cat,0,0632_scg_s04_0_cat_00_cat9-bicycle1.png
subject-04,1,633,0.754137992858887,airplane,airplane,0,0633_scg_s04_0_airplane_00_airplane4-car1.png
subject-04,1,634,0.866071939468384,elephant,elephant,0,0634_scg_s04_0_elephant_00_elephant8-airplane3.png
subject-04,1,635,1.17824602127075,elephant,elephant,0,0635_scg_s04_0_elephant_00_elephant4-oven1.png
subject-04,1,636,0.975754976272583,bear,bear,0,0636_scg_s04_0_bear_00_bear8-elephant2.png
subject-04,1,637,0.855767965316772,airplane,knife,0,0637_scg_s04_0_knife_00_knife6-truck1.png
subject-04,1,638,0.845197916030884,bottle,bottle,0,0638_scg_s04_0_bottle_00_bottle7-clock1.png
subject-04,1,639,0.795083045959473,oven,oven,0,0639_scg_s04_0_oven_00_oven9-boat2.png
subject-04,1,640,1.09963703155518,car,car,0,0640_scg_s04_0_car_00_car10-bottle3.png
subject-04,1,641,0.896731853485107,dog,dog,0,0641_scg_s04_0_dog_00_dog4-keyboard2.png
subject-04,1,642,0.732698917388916,bicycle,bicycle,0,0642_scg_s04_0_bicycle_00_bicycle4-car2.png
subject-04,1,643,0.828906059265137,car,car,0,0643_scg_s04_0_car_00_car2-cat3.png
subject-04,1,644,0.886654853820801,keyboard,keyboard,0,0644_scg_s04_0_keyboard_00_keyboard6-bottle2.png
subject-04,1,645,0.960144996643066,dog,dog,0,0645_scg_s04_0_dog_00_dog10-airplane1.png
subject-04,1,646,0.904000043869019,dog,dog,0,0646_scg_s04_0_dog_00_dog9-cat1.png
subject-04,1,647,0.970199108123779,bear,bear,0,0647_scg_s04_0_bear_00_bear2-oven1.png
subject-04,1,648,0.752063035964966,keyboard,keyboard,0,0648_scg_s04_0_keyboard_00_keyboard6-bicycle1.png
subject-04,1,649,1.19375896453857,bird,bird,0,0649_scg_s04_0_bird_00_bird1-bicycle2.png
subject-04,1,650,0.913506984710693,bear,bear,0,0650_scg_s04_0_bear_00_bear2-knife2.png
subject-04,1,651,0.749294996261597,keyboard,keyboard,0,0651_scg_s04_0_keyboard_00_keyboard10-airplane3.png
subject-04,1,652,0.899899005889893,oven,oven,0,0652_scg_s04_0_oven_00_oven4-chair1.png
subject-04,1,653,0.897984981536865,bird,boat,0,0653_scg_s04_0_boat_00_boat10-bear3.png
subject-04,1,654,0.79315185546875,bottle,bottle,0,0654_scg_s04_0_bottle_00_bottle2-car2.png
subject-04,1,655,1.04307317733765,bear,bear,0,0655_scg_s04_0_bear_00_bear10-keyboard3.png
subject-04,1,656,0.986937046051025,boat,boat,0,0656_scg_s04_0_boat_00_boat1-bird3.png
subject-04,1,657,1.02832007408142,airplane,airplane,0,0657_scg_s04_0_airplane_00_airplane6-chair3.png
subject-04,1,658,0.772464990615845,chair,chair,0,0658_scg_s04_0_chair_00_chair5-knife3.png
subject-04,1,659,1.01437997817993,bear,bear,0,0659_scg_s04_0_bear_00_bear5-bicycle3.png
subject-04,1,660,0.855825901031494,clock,clock,0,0660_scg_s04_0_clock_00_clock6-car2.png
subject-04,1,661,0.975642919540405,car,car,0,0661_scg_s04_0_car_00_car7-boat3.png
subject-04,1,662,0.827913999557495,bird,bird,0,0662_scg_s04_0_bird_00_bird1-elephant2.png
subject-04,1,663,0.739427089691162,car,car,0,0663_scg_s04_0_car_00_car9-clock2.png
subject-04,1,664,0.957499027252197,knife,knife,0,0664_scg_s04_0_knife_00_knife4-bear1.png
subject-04,1,665,0.854794025421143,chair,chair,0,0665_scg_s04_0_chair_00_chair9-bottle3.png
subject-04,1,666,1.05060696601868,chair,chair,0,0666_scg_s04_0_chair_00_chair3-bicycle3.png
subject-04,1,667,0.901011943817139,elephant,elephant,0,0667_scg_s04_0_elephant_00_elephant1-bear2.png
subject-04,1,668,0.920825004577637,truck,truck,0,0668_scg_s04_0_truck_00_truck2-oven3.png
subject-04,1,669,1.50011086463928,truck,truck,0,0669_scg_s04_0_truck_00_truck4-airplane3.png
subject-04,1,670,1.04405403137207,bicycle,bicycle,0,0670_scg_s04_0_bicycle_00_bicycle8-bear2.png
subject-04,1,671,0.893954992294312,clock,clock,0,0671_scg_s04_0_clock_00_clock2-elephant2.png
subject-04,1,672,1.03066611289978,dog,cat,0,0672_scg_s04_0_cat_00_cat4-car2.png
subject-04,1,673,0.74216103553772,boat,boat,0,0673_scg_s04_0_boat_00_boat8-knife1.png
subject-04,1,674,0.723541021347046,cat,cat,0,0674_scg_s04_0_cat_00_cat3-cat1.png
subject-04,1,675,0.719161033630371,clock,clock,0,0675_scg_s04_0_clock_00_clock3-dog2.png
subject-04,1,676,0.839287042617798,oven,oven,0,0676_scg_s04_0_oven_00_oven10-truck2.png
subject-04,1,677,0.959017992019653,cat,cat,0,0677_scg_s04_0_cat_00_cat5-car2.png
subject-04,1,678,0.900479078292847,dog,dog,0,0678_scg_s04_0_dog_00_dog3-boat1.png
subject-04,1,679,0.835886001586914,airplane,airplane,0,0679_scg_s04_0_airplane_00_airplane9-keyboard2.png
subject-04,1,680,1.05635499954224,cat,cat,0,0680_scg_s04_0_cat_00_cat10-airplane3.png
subject-04,1,681,0.697601079940796,oven,oven,0,0681_scg_s04_0_oven_00_oven1-clock3.png
subject-04,1,682,0.763524055480957,boat,boat,0,0682_scg_s04_0_boat_00_boat5-clock3.png
subject-04,1,683,0.921653032302856,cat,cat,0,0683_scg_s04_0_cat_00_cat9-dog2.png
subject-04,1,684,1.35546708106995,bicycle,bicycle,0,0684_scg_s04_0_bicycle_00_bicycle5-keyboard3.png
subject-04,1,685,0.831291913986206,boat,boat,0,0685_scg_s04_0_boat_00_boat4-knife2.png
subject-04,1,686,0.86527419090271,knife,knife,0,0686_scg_s04_0_knife_00_knife5-dog1.png
subject-04,1,687,1.02363300323486,dog,elephant,0,0687_scg_s04_0_elephant_00_elephant4-bird1.png
subject-04,1,688,0.997130155563354,bottle,bottle,0,0688_scg_s04_0_bottle_00_bottle1-clock1.png
subject-04,1,689,0.978339195251465,elephant,elephant,0,0689_scg_s04_0_elephant_00_elephant1-boat2.png
subject-04,1,690,0.804078102111816,car,car,0,0690_scg_s04_0_car_00_car8-cat1.png
subject-04,1,691,1.03185391426086,boat,boat,0,0691_scg_s04_0_boat_00_boat10-truck1.png
subject-04,1,692,0.809844970703125,oven,oven,0,0692_scg_s04_0_oven_00_oven2-truck3.png
subject-04,1,693,0.959619998931885,truck,truck,0,0693_scg_s04_0_truck_00_truck6-bicycle1.png
subject-04,1,694,1.43954300880432,bird,bird,0,0694_scg_s04_0_bird_00_bird1-airplane2.png
subject-04,1,695,0.769743204116821,airplane,airplane,0,0695_scg_s04_0_airplane_00_airplane3-oven1.png
subject-04,1,696,1.08714699745178,bear,bear,0,0696_scg_s04_0_bear_00_bear9-bottle2.png
subject-04,1,697,1.05272889137268,dog,bear,0,0697_scg_s04_0_bear_00_bear6-bird2.png
subject-04,1,698,0.842736959457397,truck,truck,0,0698_scg_s04_0_truck_00_truck6-dog2.png
subject-04,1,699,0.716892004013062,airplane,airplane,0,0699_scg_s04_0_airplane_00_airplane7-truck1.png
subject-04,1,700,1.13712406158447,boat,boat,0,0700_scg_s04_0_boat_00_boat6-bicycle2.png
subject-04,1,701,1.07851099967957,keyboard,keyboard,0,0701_scg_s04_0_keyboard_00_keyboard3-bird3.png
subject-04,1,702,1.04498910903931,elephant,elephant,0,0702_scg_s04_0_elephant_00_elephant7-cat1.png
subject-04,1,703,1.17023992538452,bottle,bottle,0,0703_scg_s04_0_bottle_00_bottle5-truck1.png
subject-04,1,704,1.30651593208313,bottle,boat,0,0704_scg_s04_0_boat_00_boat7-bottle1.png
subject-04,1,705,0.82482385635376,keyboard,keyboard,0,0705_scg_s04_0_keyboard_00_keyboard1-car3.png
subject-04,1,706,0.716536045074463,bottle,bottle,0,0706_scg_s04_0_bottle_00_bottle6-bottle3.png
subject-04,1,707,0.768381118774414,oven,oven,0,0707_scg_s04_0_oven_00_oven9-clock2.png
subject-04,1,708,0.680670976638794,boat,boat,0,0708_scg_s04_0_boat_00_boat9-knife2.png
subject-04,1,709,0.854074001312256,car,car,0,0709_scg_s04_0_car_00_car4-car2.png
subject-04,1,710,0.841788053512573,cat,cat,0,0710_scg_s04_0_cat_00_cat6-bear1.png
subject-04,1,711,1.09195613861084,dog,dog,0,0711_scg_s04_0_dog_00_dog2-bottle2.png
subject-04,1,712,1.04963779449463,car,car,0,0712_scg_s04_0_car_00_car5-knife2.png
subject-04,1,713,1.01531600952148,airplane,airplane,0,0713_scg_s04_0_airplane_00_airplane10-dog3.png
subject-04,1,714,0.980481147766113,knife,knife,0,0714_scg_s04_0_knife_00_knife2-bird1.png
subject-04,1,715,1.30130219459534,boat,boat,0,0715_scg_s04_0_boat_00_boat8-elephant1.png
subject-04,1,716,0.753237009048462,boat,boat,0,0716_scg_s04_0_boat_00_boat3-bicycle2.png
subject-04,1,717,0.786741971969604,boat,boat,0,0717_scg_s04_0_boat_00_boat7-boat2.png
subject-04,1,718,1.05239915847778,chair,chair,0,0718_scg_s04_0_chair_00_chair7-chair1.png
subject-04,1,719,0.842243194580078,keyboard,keyboard,0,0719_scg_s04_0_keyboard_00_keyboard5-cat1.png
subject-04,1,720,1.08196711540222,bear,bear,0,0720_scg_s04_0_bear_00_bear1-bear3.png
subject-04,1,721,1.34221601486206,cat,cat,0,0721_scg_s04_0_cat_00_cat7-boat3.png
subject-04,1,722,0.824035167694092,bicycle,bicycle,0,0722_scg_s04_0_bicycle_00_bicycle7-bear2.png
subject-04,1,723,0.957556009292603,airplane,airplane,0,0723_scg_s04_0_airplane_00_airplane9-airplane2.png
subject-04,1,724,0.953603982925415,dog,dog,0,0724_scg_s04_0_dog_00_dog10-elephant1.png
subject-04,1,725,0.729887008666992,oven,oven,0,0725_scg_s04_0_oven_00_oven4-dog1.png
subject-04,1,726,0.949678182601929,dog,dog,0,0726_scg_s04_0_dog_00_dog1-boat3.png
subject-04,1,727,1.23480200767517,airplane,airplane,0,0727_scg_s04_0_airplane_00_airplane3-car1.png
subject-04,1,728,0.810760021209717,bear,bear,0,0728_scg_s04_0_bear_00_bear5-bottle1.png
subject-04,1,729,0.982769966125488,oven,oven,0,0729_scg_s04_0_oven_00_oven6-knife3.png
subject-04,1,730,1.14825201034546,cat,cat,0,0730_scg_s04_0_cat_00_cat9-cat3.png
subject-04,1,731,1.0769190788269,airplane,airplane,0,0731_scg_s04_0_airplane_00_airplane7-clock3.png
subject-04,1,732,0.728827953338623,cat,cat,0,0732_scg_s04_0_cat_00_cat4-airplane1.png
subject-04,1,733,0.778182983398438,oven,oven,0,0733_scg_s04_0_oven_00_oven4-bicycle2.png
subject-04,1,734,1.26610779762268,bear,bear,0,0734_scg_s04_0_bear_00_bear8-boat2.png
subject-04,1,735,0.771421909332275,bicycle,bicycle,0,0735_scg_s04_0_bicycle_00_bicycle4-boat1.png
subject-04,1,736,0.805875062942505,clock,clock,0,0736_scg_s04_0_clock_00_clock7-bottle2.png
subject-04,1,737,1.21776819229126,knife,knife,0,0737_scg_s04_0_knife_00_knife3-knife1.png
subject-04,1,738,0.816921949386597,bird,bird,0,0738_scg_s04_0_bird_00_bird7-knife2.png
subject-04,1,739,0.92068886756897,truck,truck,0,0739_scg_s04_0_truck_00_truck9-boat3.png
subject-04,1,740,1.23301100730896,cat,dog,0,0740_scg_s04_0_dog_00_dog9-chair2.png
subject-04,1,741,0.915480136871338,car,car,0,0741_scg_s04_0_car_00_car9-cat1.png
subject-04,1,742,1.11033391952515,cat,cat,0,0742_scg_s04_0_cat_00_cat2-knife3.png
subject-04,1,743,1.38128018379211,bicycle,bicycle,0,0743_scg_s04_0_bicycle_00_bicycle6-airplane2.png
subject-04,1,744,0.81738805770874,oven,oven,0,0744_scg_s04_0_oven_00_oven9-bear2.png
subject-04,1,745,0.78667688369751,chair,chair,0,0745_scg_s04_0_chair_00_chair1-cat3.png
subject-04,1,746,1.01284384727478,bottle,bottle,0,0746_scg_s04_0_bottle_00_bottle10-car1.png
subject-04,1,747,1.34020400047302,bird,bird,0,0747_scg_s04_0_bird_00_bird1-truck1.png
subject-04,1,748,1.13544106483459,oven,oven,0,0748_scg_s04_0_oven_00_oven7-elephant1.png
subject-04,1,749,0.787712097167969,chair,chair,0,0749_scg_s04_0_chair_00_chair7-bird1.png
subject-04,1,750,1.05987787246704,bird,bird,0,0750_scg_s04_0_bird_00_bird5-airplane3.png
subject-04,1,751,1.05828881263733,bird,bird,0,0751_scg_s04_0_bird_00_bird6-boat2.png
subject-04,1,752,0.845901966094971,bird,bird,0,0752_scg_s04_0_bird_00_bird8-chair1.png
subject-04,1,753,1.02786684036255,car,car,0,0753_scg_s04_0_car_00_car1-car2.png
subject-04,1,754,0.717627048492432,oven,oven,0,0754_scg_s04_0_oven_00_oven10-boat2.png
subject-04,1,755,0.835834980010986,chair,chair,0,0755_scg_s04_0_chair_00_chair8-elephant1.png
subject-04,1,756,0.938817024230957,car,car,0,0756_scg_s04_0_car_00_car4-clock1.png
subject-04,1,757,0.812169075012207,boat,boat,0,0757_scg_s04_0_boat_00_boat9-boat3.png
subject-04,1,758,0.745858192443848,chair,chair,0,0758_scg_s04_0_chair_00_chair4-chair3.png
subject-04,1,759,0.773690938949585,keyboard,keyboard,0,0759_scg_s04_0_keyboard_00_keyboard3-boat1.png
subject-04,1,760,1.29977321624756,chair,chair,0,0760_scg_s04_0_chair_00_chair7-elephant1.png
subject-04,1,761,0.935308218002319,bicycle,bicycle,0,0761_scg_s04_0_bicycle_00_bicycle9-airplane2.png
subject-04,1,762,0.962829828262329,airplane,airplane,0,0762_scg_s04_0_airplane_00_airplane2-bear1.png
subject-04,1,763,0.782325029373169,clock,clock,0,0763_scg_s04_0_clock_00_clock7-cat2.png
subject-04,1,764,0.816385984420776,cat,cat,0,0764_scg_s04_0_cat_00_cat4-chair2.png
subject-04,1,765,0.920671939849854,airplane,airplane,0,0765_scg_s04_0_airplane_00_airplane6-bottle2.png
subject-04,1,766,0.801512956619263,bicycle,bicycle,0,0766_scg_s04_0_bicycle_00_bicycle9-bird3.png
subject-04,1,767,0.81165599822998,bird,boat,0,0767_scg_s04_0_boat_00_boat6-truck3.png
subject-04,1,768,0.873777151107788,bottle,bottle,0,0768_scg_s04_0_bottle_00_bottle3-bottle3.png
subject-04,1,769,0.844764947891235,clock,clock,0,0769_scg_s04_0_clock_00_clock6-truck3.png
subject-04,1,770,0.826223134994507,boat,boat,0,0770_scg_s04_0_boat_00_boat9-airplane2.png
subject-04,1,771,1.44379997253418,boat,boat,0,0771_scg_s04_0_boat_00_boat6-dog1.png
subject-04,1,772,0.828922986984253,clock,clock,0,0772_scg_s04_0_clock_00_clock5-clock2.png
subject-04,1,773,0.98395299911499,cat,truck,0,0773_scg_s04_0_truck_00_truck7-keyboard3.png
subject-04,1,774,1.15781402587891,airplane,bear,0,0774_scg_s04_0_bear_00_bear6-chair1.png
subject-04,1,775,0.747940063476562,clock,clock,0,0775_scg_s04_0_clock_00_clock7-bicycle1.png
subject-04,1,776,0.82184100151062,bird,bird,0,0776_scg_s04_0_bird_00_bird10-cat1.png
subject-04,1,777,0.808895111083984,dog,dog,0,0777_scg_s04_0_dog_00_dog1-knife3.png
subject-04,1,778,0.742738008499146,boat,boat,0,0778_scg_s04_0_boat_00_boat3-chair3.png
subject-04,1,779,0.840075016021729,bicycle,bicycle,0,0779_scg_s04_0_bicycle_00_bicycle10-boat3.png
subject-04,1,780,0.927886009216309,elephant,bear,0,0780_scg_s04_0_bear_00_bear7-bicycle2.png
subject-04,1,781,0.877447843551636,truck,truck,0,0781_scg_s04_0_truck_00_truck3-car3.png
subject-04,1,782,0.789335966110229,dog,dog,0,0782_scg_s04_0_dog_00_dog1-dog2.png
subject-04,1,783,0.784817934036255,bottle,bottle,0,0783_scg_s04_0_bottle_00_bottle5-knife1.png
subject-04,1,784,1.33456683158875,dog,dog,0,0784_scg_s04_0_dog_00_dog5-elephant1.png
subject-04,1,785,0.937971830368042,truck,truck,0,0785_scg_s04_0_truck_00_truck6-cat2.png
subject-04,1,786,0.749540090560913,elephant,elephant,0,0786_scg_s04_0_elephant_00_elephant1-bottle1.png
subject-04,1,787,0.731285095214844,boat,boat,0,0787_scg_s04_0_boat_00_boat6-knife2.png
subject-04,1,788,0.789344072341919,clock,clock,0,0788_scg_s04_0_clock_00_clock8-bear2.png
subject-04,1,789,0.947026968002319,truck,truck,0,0789_scg_s04_0_truck_00_truck2-keyboard1.png
subject-04,1,790,1.00465798377991,clock,clock,0,0790_scg_s04_0_clock_00_clock7-bear2.png
subject-04,1,791,1.3389139175415,car,bird,0,0791_scg_s04_0_bird_00_bird10-bird2.png
subject-04,1,792,1.09070205688477,elephant,elephant,0,0792_scg_s04_0_elephant_00_elephant3-oven1.png
subject-04,1,793,1.21648478507996,chair,chair,0,0793_scg_s04_0_chair_00_chair10-airplane2.png
subject-04,1,794,1.18989300727844,clock,clock,0,0794_scg_s04_0_clock_00_clock10-bottle1.png
subject-04,1,795,0.785835981369019,keyboard,keyboard,0,0795_scg_s04_0_keyboard_00_keyboard9-bicycle2.png
subject-04,1,796,0.900151014328003,elephant,elephant,0,0796_scg_s04_0_elephant_00_elephant6-cat2.png
subject-04,1,797,0.813273906707764,clock,clock,0,0797_scg_s04_0_clock_00_clock1-bear1.png
subject-04,1,798,1.19522404670715,bottle,bottle,0,0798_scg_s04_0_bottle_00_bottle3-cat3.png
subject-04,1,799,1.32872009277344,keyboard,keyboard,0,0799_scg_s04_0_keyboard_00_keyboard6-car2.png
subject-04,1,800,0.989845037460327,keyboard,keyboard,0,0800_scg_s04_0_keyboard_00_keyboard5-knife2.png
subject-04,1,801,0.788090944290161,oven,oven,0,0801_scg_s04_0_oven_00_oven9-keyboard1.png
subject-04,1,802,1.19000101089478,dog,dog,0,0802_scg_s04_0_dog_00_dog10-clock1.png
subject-04,1,803,0.899330139160156,bird,bird,0,0803_scg_s04_0_bird_00_bird7-oven3.png
subject-04,1,804,0.917035818099976,elephant,elephant,0,0804_scg_s04_0_elephant_00_elephant3-cat2.png
subject-04,1,805,1.02018904685974,bottle,bottle,0,0805_scg_s04_0_bottle_00_bottle9-keyboard1.png
subject-04,1,806,1.0620059967041,boat,boat,0,0806_scg_s04_0_boat_00_boat1-chair3.png
subject-04,1,807,1.31207513809204,boat,boat,0,0807_scg_s04_0_boat_00_boat4-elephant2.png
subject-04,1,808,0.847747087478638,truck,truck,0,0808_scg_s04_0_truck_00_truck5-bird2.png
subject-04,1,809,0.79964804649353,chair,chair,0,0809_scg_s04_0_chair_00_chair8-bear1.png
subject-04,1,810,0.795507192611694,bottle,bottle,0,0810_scg_s04_0_bottle_00_bottle1-bear1.png
subject-04,1,811,0.92109203338623,dog,dog,0,0811_scg_s04_0_dog_00_dog4-chair1.png
subject-04,1,812,0.727303981781006,oven,oven,0,0812_scg_s04_0_oven_00_oven7-bottle1.png
subject-04,1,813,1.18503212928772,cat,bird,0,0813_scg_s04_0_bird_00_bird3-dog1.png
subject-04,1,814,0.812788963317871,keyboard,keyboard,0,0814_scg_s04_0_keyboard_00_keyboard5-bear3.png
subject-04,1,815,0.89169979095459,car,car,0,0815_scg_s04_0_car_00_car8-dog1.png
subject-04,1,816,0.732867002487183,cat,cat,0,0816_scg_s04_0_cat_00_cat1-airplane1.png
subject-04,1,817,1.02932596206665,car,knife,0,0817_scg_s04_0_knife_00_knife7-car2.png
subject-04,1,818,0.788888931274414,dog,dog,0,0818_scg_s04_0_dog_00_dog4-elephant2.png
subject-04,1,819,0.814332962036133,knife,knife,0,0819_scg_s04_0_knife_00_knife1-bird2.png
subject-04,1,820,0.788394927978516,bird,bird,0,0820_scg_s04_0_bird_00_bird8-knife2.png
subject-04,1,821,0.754535913467407,chair,chair,0,0821_scg_s04_0_chair_00_chair8-boat1.png
subject-04,1,822,0.866160154342651,car,car,0,0822_scg_s04_0_car_00_car5-bear3.png
subject-04,1,823,0.748008012771606,chair,chair,0,0823_scg_s04_0_chair_00_chair3-bottle3.png
subject-04,1,824,0.719341993331909,car,car,0,0824_scg_s04_0_car_00_car7-bird3.png
subject-04,1,825,1.13130688667297,bear,bear,0,0825_scg_s04_0_bear_00_bear10-bear2.png
subject-04,1,826,1.12343406677246,car,car,0,0826_scg_s04_0_car_00_car7-bear1.png
subject-04,1,827,0.671417951583862,chair,chair,0,0827_scg_s04_0_chair_00_chair7-airplane1.png
subject-04,1,828,0.89905309677124,knife,knife,0,0828_scg_s04_0_knife_00_knife3-keyboard3.png
subject-04,1,829,0.716494083404541,dog,dog,0,0829_scg_s04_0_dog_00_dog10-bottle1.png
subject-04,1,830,1.39650702476501,dog,bird,0,0830_scg_s04_0_bird_00_bird3-bear3.png
subject-04,1,831,1.20986294746399,keyboard,keyboard,0,0831_scg_s04_0_keyboard_00_keyboard6-chair1.png
subject-04,1,832,0.952095985412598,bear,bear,0,0832_scg_s04_0_bear_00_bear2-bird3.png
subject-04,1,833,0.788058042526245,airplane,airplane,0,0833_scg_s04_0_airplane_00_airplane6-bear3.png
subject-04,1,834,0.938137054443359,bird,bird,0,0834_scg_s04_0_bird_00_bird3-oven1.png
subject-04,1,835,0.933535099029541,clock,clock,0,0835_scg_s04_0_clock_00_clock1-car1.png
subject-04,1,836,0.777391910552979,truck,truck,0,0836_scg_s04_0_truck_00_truck7-bear2.png
subject-04,1,837,0.96603798866272,clock,clock,0,0837_scg_s04_0_clock_00_clock1-truck3.png
subject-04,1,838,1.14815592765808,airplane,airplane,0,0838_scg_s04_0_airplane_00_airplane8-bird1.png
subject-04,1,839,0.860030889511108,car,car,0,0839_scg_s04_0_car_00_car4-bird1.png
subject-04,1,840,0.966087818145752,bear,bear,0,0840_scg_s04_0_bear_00_bear3-bird3.png
subject-04,1,841,1.11684703826904,bottle,bottle,0,0841_scg_s04_0_bottle_00_bottle9-cat2.png
subject-04,1,842,1.17409896850586,elephant,bottle,0,0842_scg_s04_0_bottle_00_bottle7-bear1.png
subject-04,1,843,1.32950592041016,keyboard,dog,0,0843_scg_s04_0_dog_00_dog8-chair3.png
subject-04,1,844,0.719202041625977,bird,bird,0,0844_scg_s04_0_bird_00_bird9-bicycle3.png
subject-04,1,845,1.44785594940186,chair,chair,0,0845_scg_s04_0_chair_00_chair4-keyboard2.png
subject-04,1,846,1.50022983551025,airplane,airplane,0,0846_scg_s04_0_airplane_00_airplane1-bicycle2.png
subject-04,1,847,0.708660840988159,bottle,bottle,0,0847_scg_s04_0_bottle_00_bottle6-boat3.png
subject-04,1,848,0.59037709236145,clock,clock,0,0848_scg_s04_0_clock_00_clock8-airplane2.png
subject-04,1,849,0.747987031936646,clock,clock,0,0849_scg_s04_0_clock_00_clock6-oven1.png
subject-04,1,850,0.968095064163208,cat,cat,0,0850_scg_s04_0_cat_00_cat8-bird2.png
subject-04,1,851,0.842494964599609,elephant,elephant,0,0851_scg_s04_0_elephant_00_elephant3-keyboard2.png
subject-04,1,852,0.871219158172607,dog,dog,0,0852_scg_s04_0_dog_00_dog3-elephant2.png
subject-04,1,853,0.945810079574585,oven,oven,0,0853_scg_s04_0_oven_00_oven10-airplane2.png
subject-04,1,854,1.1334400177002,chair,chair,0,0854_scg_s04_0_chair_00_chair7-truck3.png
subject-04,1,855,1.43770790100098,bear,bear,0,0855_scg_s04_0_bear_00_bear7-bear2.png
subject-04,1,856,1.14889192581177,bear,bear,0,0856_scg_s04_0_bear_00_bear4-knife1.png
subject-04,1,857,0.844275951385498,knife,knife,0,0857_scg_s04_0_knife_00_knife2-bear2.png
subject-04,1,858,1.22645401954651,bear,bear,0,0858_scg_s04_0_bear_00_bear5-chair1.png
subject-04,1,859,0.891979932785034,car,boat,0,0859_scg_s04_0_boat_00_boat1-car2.png
subject-04,1,860,1.11773705482483,bottle,bottle,0,0860_scg_s04_0_bottle_00_bottle10-boat3.png
subject-04,1,861,1.15372705459595,car,car,0,0861_scg_s04_0_car_00_car7-clock1.png
subject-04,1,862,1.4113781452179,car,car,0,0862_scg_s04_0_car_00_car9-truck3.png
subject-04,1,863,1.35295009613037,boat,airplane,0,0863_scg_s04_0_airplane_00_airplane3-keyboard2.png
subject-04,1,864,0.708361148834229,car,car,0,0864_scg_s04_0_car_00_car1-clock2.png
subject-04,1,865,0.972551107406616,truck,truck,0,0865_scg_s04_0_truck_00_truck3-clock3.png
subject-04,1,866,0.908077955245972,truck,truck,0,0866_scg_s04_0_truck_00_truck6-bottle3.png
subject-04,1,867,0.941391944885254,bottle,bottle,0,0867_scg_s04_0_bottle_00_bottle9-elephant2.png
subject-04,1,868,0.776905059814453,bird,bird,0,0868_scg_s04_0_bird_00_bird5-truck2.png
subject-04,1,869,0.973567962646484,truck,truck,0,0869_scg_s04_0_truck_00_truck1-bear1.png
subject-04,1,870,1.05502390861511,boat,boat,0,0870_scg_s04_0_boat_00_boat2-airplane1.png
subject-04,1,871,1.11363482475281,bird,bird,0,0871_scg_s04_0_bird_00_bird5-keyboard2.png
subject-04,1,872,0.985032081604004,elephant,elephant,0,0872_scg_s04_0_elephant_00_elephant6-dog2.png
subject-04,1,873,0.844658136367798,truck,boat,0,0873_scg_s04_0_boat_00_boat1-oven1.png
subject-04,1,874,0.87014102935791,dog,dog,0,0874_scg_s04_0_dog_00_dog6-bird1.png
subject-04,1,875,0.77403712272644,bicycle,bicycle,0,0875_scg_s04_0_bicycle_00_bicycle4-truck3.png
subject-04,1,876,1.17780208587646,knife,knife,0,0876_scg_s04_0_knife_00_knife9-bear3.png
subject-04,1,877,1.28997993469238,bicycle,bicycle,0,0877_scg_s04_0_bicycle_00_bicycle1-bird1.png
subject-04,1,878,0.741724967956543,oven,oven,0,0878_scg_s04_0_oven_00_oven5-bicycle1.png
subject-04,1,879,0.775177955627441,dog,dog,0,0879_scg_s04_0_dog_00_dog9-boat1.png
subject-04,1,880,0.908737897872925,knife,knife,0,0880_scg_s04_0_knife_00_knife8-car2.png
subject-04,1,881,0.928681135177612,airplane,airplane,0,0881_scg_s04_0_airplane_00_airplane5-oven3.png
subject-04,1,882,0.718415975570679,boat,boat,0,0882_scg_s04_0_boat_00_boat4-bicycle3.png
subject-04,1,883,0.829993963241577,oven,oven,0,0883_scg_s04_0_oven_00_oven3-bear2.png
subject-04,1,884,0.918184995651245,dog,dog,0,0884_scg_s04_0_dog_00_dog3-clock1.png
subject-04,1,885,0.753424882888794,oven,oven,0,0885_scg_s04_0_oven_00_oven9-knife3.png
subject-04,1,886,0.857343912124634,truck,truck,0,0886_scg_s04_0_truck_00_truck9-bottle2.png
subject-04,1,887,0.983437061309814,airplane,airplane,0,0887_scg_s04_0_airplane_00_airplane4-keyboard3.png
subject-04,1,888,1.04878902435303,knife,knife,0,0888_scg_s04_0_knife_00_knife5-clock1.png
subject-04,1,889,0.785322904586792,bird,bird,0,0889_scg_s04_0_bird_00_bird1-knife3.png
subject-04,1,890,1.01162695884705,car,car,0,0890_scg_s04_0_car_00_car7-car1.png
subject-04,1,891,0.800539016723633,elephant,elephant,0,0891_scg_s04_0_elephant_00_elephant4-car3.png
subject-04,1,892,0.796540021896362,bicycle,bicycle,0,0892_scg_s04_0_bicycle_00_bicycle3-keyboard1.png
subject-04,1,893,0.987475872039795,cat,cat,0,0893_scg_s04_0_cat_00_cat6-chair3.png
subject-04,1,894,1.02973294258118,truck,truck,0,0894_scg_s04_0_truck_00_truck6-knife2.png
subject-04,1,895,0.978798151016235,bird,bird,0,0895_scg_s04_0_bird_00_bird5-oven3.png
subject-04,1,896,1.50027704238892,car,car,0,0896_scg_s04_0_car_00_car1-keyboard2.png
subject-04,1,897,0.924179077148438,bird,bird,0,0897_scg_s04_0_bird_00_bird4-clock1.png
subject-04,1,898,0.721025943756104,cat,cat,0,0898_scg_s04_0_cat_00_cat7-bottle1.png
subject-04,1,899,0.914728164672852,elephant,bottle,0,0899_scg_s04_0_bottle_00_bottle7-elephant2.png
subject-04,1,900,1.20470905303955,keyboard,keyboard,0,0900_scg_s04_0_keyboard_00_keyboard10-keyboard1.png
subject-04,1,901,0.962238073348999,bear,bear,0,0901_scg_s04_0_bear_00_bear7-clock1.png
subject-04,1,902,1.19580602645874,dog,dog,0,0902_scg_s04_0_dog_00_dog2-cat1.png
subject-04,1,903,1.15349078178406,clock,clock,0,0903_scg_s04_0_clock_00_clock1-boat3.png
subject-04,1,904,0.897109031677246,oven,oven,0,0904_scg_s04_0_oven_00_oven2-car1.png
subject-04,1,905,1.50019812583923,bicycle,bicycle,0,0905_scg_s04_0_bicycle_00_bicycle1-boat3.png
subject-04,1,906,0.780422925949097,bear,bear,0,0906_scg_s04_0_bear_00_bear2-airplane1.png
subject-04,1,907,1.29778695106506,truck,truck,0,0907_scg_s04_0_truck_00_truck1-bicycle3.png
subject-04,1,908,1.11775803565979,bottle,bottle,0,0908_scg_s04_0_bottle_00_bottle1-dog2.png
subject-04,1,909,0.845054149627686,bird,bird,0,0909_scg_s04_0_bird_00_bird10-chair1.png
subject-04,1,910,0.99467396736145,cat,cat,0,0910_scg_s04_0_cat_00_cat5-keyboard3.png
subject-04,1,911,1.0987229347229,knife,knife,0,0911_scg_s04_0_knife_00_knife10-knife1.png
subject-04,1,912,1.05598902702332,knife,knife,0,0912_scg_s04_0_knife_00_knife1-chair1.png
subject-04,1,913,0.997616052627563,clock,clock,0,0913_scg_s04_0_clock_00_clock3-bird1.png
subject-04,1,914,0.763475894927979,chair,chair,0,0914_scg_s04_0_chair_00_chair10-car2.png
subject-04,1,915,0.790903806686401,car,car,0,0915_scg_s04_0_car_00_car8-boat3.png
subject-04,1,916,1.06221985816956,bicycle,bicycle,0,0916_scg_s04_0_bicycle_00_bicycle7-knife2.png
subject-04,1,917,0.790143966674805,oven,oven,0,0917_scg_s04_0_oven_00_oven2-bear3.png
subject-04,1,918,1.29170799255371,chair,chair,0,0918_scg_s04_0_chair_00_chair10-bicycle1.png
subject-04,1,919,1.13592600822449,cat,cat,0,0919_scg_s04_0_cat_00_cat4-keyboard2.png
subject-04,1,920,0.780344009399414,chair,chair,0,0920_scg_s04_0_chair_00_chair8-keyboard3.png
subject-04,1,921,0.938246011734009,dog,dog,0,0921_scg_s04_0_dog_00_dog1-bird1.png
subject-04,1,922,0.820421934127808,bicycle,bicycle,0,0922_scg_s04_0_bicycle_00_bicycle1-bicycle3.png
subject-04,1,923,0.774027109146118,bottle,bottle,0,0923_scg_s04_0_bottle_00_bottle8-elephant3.png
subject-04,1,924,1.15396904945374,bird,bird,0,0924_scg_s04_0_bird_00_bird3-bottle2.png
subject-04,1,925,0.811150789260864,chair,chair,0,0925_scg_s04_0_chair_00_chair9-boat2.png
subject-04,1,926,1.47740912437439,airplane,airplane,0,0926_scg_s04_0_airplane_00_airplane8-chair1.png
subject-04,1,927,0.981092929840088,car,car,0,0927_scg_s04_0_car_00_car4-oven2.png
subject-04,1,928,0.96297287940979,elephant,elephant,0,0928_scg_s04_0_elephant_00_elephant8-elephant1.png
subject-04,1,929,0.674875974655151,clock,clock,0,0929_scg_s04_0_clock_00_clock7-boat3.png
subject-04,1,930,1.14051508903503,bicycle,bicycle,0,0930_scg_s04_0_bicycle_00_bicycle10-dog3.png
subject-04,1,931,1.12866306304932,bird,bird,0,0931_scg_s04_0_bird_00_bird5-cat2.png
subject-04,1,932,0.956250905990601,chair,chair,0,0932_scg_s04_0_chair_00_chair10-clock1.png
subject-04,1,933,0.700577020645142,clock,clock,0,0933_scg_s04_0_clock_00_clock2-dog1.png
subject-04,1,934,0.872143983840942,bicycle,bicycle,0,0934_scg_s04_0_bicycle_00_bicycle2-bird3.png
subject-04,1,935,0.808043003082275,car,car,0,0935_scg_s04_0_car_00_car8-knife2.png
subject-04,1,936,0.841958999633789,clock,clock,0,0936_scg_s04_0_clock_00_clock6-bird3.png
subject-04,1,937,1.22347211837769,car,car,0,0937_scg_s04_0_car_00_car10-chair1.png
subject-04,1,938,0.689075946807861,keyboard,keyboard,0,0938_scg_s04_0_keyboard_00_keyboard7-car3.png
subject-04,1,939,1.1606810092926,boat,boat,0,0939_scg_s04_0_boat_00_boat8-oven1.png
subject-04,1,940,1.29445695877075,bicycle,bicycle,0,0940_scg_s04_0_bicycle_00_bicycle4-airplane1.png
subject-04,1,941,0.846322059631348,keyboard,keyboard,0,0941_scg_s04_0_keyboard_00_keyboard1-clock1.png
subject-04,1,942,0.857851982116699,dog,dog,0,0942_scg_s04_0_dog_00_dog9-bicycle3.png
subject-04,1,943,1.11265182495117,cat,cat,0,0943_scg_s04_0_cat_00_cat10-bear1.png
subject-04,1,944,0.697050094604492,chair,chair,0,0944_scg_s04_0_chair_00_chair1-elephant1.png
subject-04,1,945,0.669456958770752,clock,clock,0,0945_scg_s04_0_clock_00_clock2-bottle3.png
subject-04,1,946,0.896862983703613,car,car,0,0946_scg_s04_0_car_00_car6-chair3.png
subject-04,1,947,1.2442638874054,airplane,airplane,0,0947_scg_s04_0_airplane_00_airplane3-elephant1.png
subject-04,1,948,1.0014660358429,oven,oven,0,0948_scg_s04_0_oven_00_oven5-bird1.png
subject-04,1,949,0.836498975753784,bird,bird,0,0949_scg_s04_0_bird_00_bird7-boat1.png
subject-04,1,950,0.702773094177246,chair,chair,0,0950_scg_s04_0_chair_00_chair10-bottle3.png
subject-04,1,951,0.676501035690308,clock,clock,0,0951_scg_s04_0_clock_00_clock8-boat1.png
subject-04,1,952,1.50043702125549,bear,bear,0,0952_scg_s04_0_bear_00_bear2-elephant1.png
subject-04,1,953,0.773250102996826,bottle,bottle,0,0953_scg_s04_0_bottle_00_bottle5-clock3.png
subject-04,1,954,1.04694199562073,airplane,airplane,0,0954_scg_s04_0_airplane_00_airplane5-bicycle1.png
subject-04,1,955,1.10454106330872,airplane,airplane,0,0955_scg_s04_0_airplane_00_airplane2-cat1.png
subject-04,1,956,1.29207301139832,knife,keyboard,0,0956_scg_s04_0_keyboard_00_keyboard3-cat1.png
subject-04,1,957,1.16659808158875,dog,dog,0,0957_scg_s04_0_dog_00_dog7-knife3.png
subject-04,1,958,0.999996900558472,truck,truck,0,0958_scg_s04_0_truck_00_truck5-dog3.png
subject-04,1,959,0.751926183700562,cat,cat,0,0959_scg_s04_0_cat_00_cat1-keyboard3.png
subject-04,1,960,0.863844871520996,dog,dog,0,0960_scg_s04_0_dog_00_dog7-oven2.png
subject-04,1,961,0.754473209381104,chair,chair,0,0961_scg_s04_0_chair_00_chair1-truck3.png
subject-04,1,962,0.749617099761963,airplane,airplane,0,0962_scg_s04_0_airplane_00_airplane10-cat2.png
subject-04,1,963,0.813241004943848,elephant,elephant,0,0963_scg_s04_0_elephant_00_elephant8-dog1.png
subject-04,1,964,0.955260992050171,dog,dog,0,0964_scg_s04_0_dog_00_dog4-cat3.png
subject-04,1,965,1.05852103233337,bottle,bottle,0,0965_scg_s04_0_bottle_00_bottle5-chair1.png
subject-04,1,966,1.04034090042114,boat,boat,0,0966_scg_s04_0_boat_00_boat1-bear1.png
subject-04,1,967,0.843520879745483,airplane,airplane,0,0967_scg_s04_0_airplane_00_airplane2-bird3.png
subject-04,1,968,1.09327697753906,keyboard,keyboard,0,0968_scg_s04_0_keyboard_00_keyboard7-clock3.png
subject-04,1,969,1.372642993927,dog,dog,0,0969_scg_s04_0_dog_00_dog6-truck2.png
subject-04,1,970,0.962235927581787,cat,cat,0,0970_scg_s04_0_cat_00_cat4-oven1.png
subject-04,1,971,0.758153200149536,keyboard,keyboard,0,0971_scg_s04_0_keyboard_00_keyboard9-cat1.png
subject-04,1,972,1.44589400291443,elephant,elephant,0,0972_scg_s04_0_elephant_00_elephant2-clock1.png
subject-04,1,973,0.94988489151001,keyboard,keyboard,0,0973_scg_s04_0_keyboard_00_keyboard2-bicycle3.png
subject-04,1,974,0.86986780166626,chair,oven,0,0974_scg_s04_0_oven_00_oven6-chair3.png
subject-04,1,975,0.889783143997192,truck,truck,0,0975_scg_s04_0_truck_00_truck9-chair3.png
subject-04,1,976,0.917037963867188,bicycle,bicycle,0,0976_scg_s04_0_bicycle_00_bicycle5-bear1.png
subject-04,1,977,0.750686883926392,dog,dog,0,0977_scg_s04_0_dog_00_dog10-bicycle1.png
subject-04,1,978,0.770672082901001,airplane,airplane,0,0978_scg_s04_0_airplane_00_airplane5-chair3.png
subject-04,1,979,0.966081142425537,airplane,airplane,0,0979_scg_s04_0_airplane_00_airplane10-car3.png
subject-04,1,980,0.861802101135254,dog,elephant,0,0980_scg_s04_0_elephant_00_elephant2-keyboard3.png
subject-04,1,981,0.857309818267822,truck,truck,0,0981_scg_s04_0_truck_00_truck1-bird1.png
subject-04,1,982,1.10714983940125,bottle,bottle,0,0982_scg_s04_0_bottle_00_bottle8-bicycle1.png
subject-04,1,983,0.996555089950562,dog,bird,0,0983_scg_s04_0_bird_00_bird7-truck2.png
subject-04,1,984,0.754066944122314,cat,cat,0,0984_scg_s04_0_cat_00_cat5-airplane2.png
subject-04,1,985,1.05537509918213,elephant,elephant,0,0985_scg_s04_0_elephant_00_elephant1-car3.png
subject-04,1,986,0.81278395652771,bottle,bottle,0,0986_scg_s04_0_bottle_00_bottle7-truck2.png
subject-04,1,987,0.734914064407349,bird,bird,0,0987_scg_s04_0_bird_00_bird5-bear3.png
subject-04,1,988,1.10640406608582,boat,boat,0,0988_scg_s04_0_boat_00_boat1-bicycle2.png
subject-04,1,989,0.742146968841553,clock,clock,0,0989_scg_s04_0_clock_00_clock4-chair1.png
subject-04,1,990,0.800678014755249,bottle,bottle,0,0990_scg_s04_0_bottle_00_bottle1-keyboard3.png
subject-04,1,991,0.790472984313965,bicycle,bicycle,0,0991_scg_s04_0_bicycle_00_bicycle4-chair2.png
subject-04,1,992,1.05322408676147,boat,boat,0,0992_scg_s04_0_boat_00_boat9-bird1.png
subject-04,1,993,1.31881093978882,boat,boat,0,0993_scg_s04_0_boat_00_boat7-elephant3.png
subject-04,1,994,0.814677000045776,elephant,elephant,0,0994_scg_s04_0_elephant_00_elephant2-truck2.png
subject-04,1,995,1.50024914741516,airplane,airplane,0,0995_scg_s04_0_airplane_00_airplane9-oven2.png
subject-04,1,996,1.04580020904541,dog,dog,0,0996_scg_s04_0_dog_00_dog10-truck2.png
subject-04,1,997,0.799146175384521,keyboard,keyboard,0,0997_scg_s04_0_keyboard_00_keyboard6-knife2.png
subject-04,1,998,0.740520000457764,chair,chair,0,0998_scg_s04_0_chair_00_chair9-bear1.png
subject-04,1,999,0.836749792098999,bear,bear,0,0999_scg_s04_0_bear_00_bear10-chair2.png
subject-04,1,1000,1.28671622276306,truck,truck,0,1000_scg_s04_0_truck_00_truck8-cat2.png
subject-04,1,1001,0.760417938232422,bottle,bottle,0,1001_scg_s04_0_bottle_00_bottle1-car1.png
subject-04,1,1002,1.09399008750916,knife,knife,0,1002_scg_s04_0_knife_00_knife6-knife1.png
subject-04,1,1003,1.13004112243652,bicycle,bicycle,0,1003_scg_s04_0_bicycle_00_bicycle4-clock3.png
subject-04,1,1004,0.97221302986145,keyboard,keyboard,0,1004_scg_s04_0_keyboard_00_keyboard8-keyboard2.png
subject-04,1,1005,1.06195187568665,truck,truck,0,1005_scg_s04_0_truck_00_truck3-cat1.png
subject-04,1,1006,0.911863088607788,bottle,bottle,0,1006_scg_s04_0_bottle_00_bottle5-elephant1.png
subject-04,1,1007,0.962341070175171,clock,clock,0,1007_scg_s04_0_clock_00_clock9-chair3.png
subject-04,1,1008,1.0332510471344,bottle,truck,0,1008_scg_s04_0_truck_00_truck3-keyboard3.png
subject-04,1,1009,0.914634943008423,truck,truck,0,1009_scg_s04_0_truck_00_truck2-airplane3.png
subject-04,1,1010,0.834301948547363,bicycle,bicycle,0,1010_scg_s04_0_bicycle_00_bicycle4-bottle1.png
subject-04,1,1011,0.930149078369141,truck,truck,0,1011_scg_s04_0_truck_00_truck3-oven2.png
subject-04,1,1012,0.772696018218994,keyboard,keyboard,0,1012_scg_s04_0_keyboard_00_keyboard9-keyboard2.png
subject-04,1,1013,1.50016593933105,airplane,airplane,0,1013_scg_s04_0_airplane_00_airplane4-cat3.png
subject-04,1,1014,0.866006135940552,keyboard,keyboard,0,1014_scg_s04_0_keyboard_00_keyboard1-chair2.png
subject-04,1,1015,1.3992919921875,cat,cat,0,1015_scg_s04_0_cat_00_cat3-oven2.png
subject-04,1,1016,0.803056001663208,bottle,bottle,0,1016_scg_s04_0_bottle_00_bottle6-bicycle3.png
subject-04,1,1017,1.10631585121155,elephant,elephant,0,1017_scg_s04_0_elephant_00_elephant8-knife2.png
subject-04,1,1018,1.13268208503723,keyboard,keyboard,0,1018_scg_s04_0_keyboard_00_keyboard1-airplane2.png
subject-04,1,1019,1.11435794830322,oven,oven,0,1019_scg_s04_0_oven_00_oven5-elephant1.png
subject-04,1,1020,0.993829011917114,cat,cat,0,1020_scg_s04_0_cat_00_cat8-bicycle3.png
subject-04,1,1021,0.711968898773193,oven,oven,0,1021_scg_s04_0_oven_00_oven1-dog3.png
subject-04,1,1022,1.16063284873962,bear,bear,0,1022_scg_s04_0_bear_00_bear7-oven3.png
subject-04,1,1023,1.01341986656189,bottle,bottle,0,1023_scg_s04_0_bottle_00_bottle8-dog2.png
subject-04,1,1024,0.971081018447876,dog,dog,0,1024_scg_s04_0_dog_00_dog8-clock2.png
subject-04,1,1025,0.994704961776733,car,car,0,1025_scg_s04_0_car_00_car9-bird1.png
subject-04,1,1026,1.11271190643311,bicycle,bicycle,0,1026_scg_s04_0_bicycle_00_bicycle6-dog2.png
subject-04,1,1027,1.01614594459534,keyboard,keyboard,0,1027_scg_s04_0_keyboard_00_keyboard5-oven2.png
subject-04,1,1028,0.873605012893677,truck,truck,0,1028_scg_s04_0_truck_00_truck2-elephant1.png
subject-04,1,1029,0.785822153091431,bicycle,bicycle,0,1029_scg_s04_0_bicycle_00_bicycle10-clock2.png
subject-04,1,1030,0.92953896522522,knife,knife,0,1030_scg_s04_0_knife_00_knife6-dog2.png
subject-04,1,1031,0.792953968048096,truck,truck,0,1031_scg_s04_0_truck_00_truck3-dog3.png
subject-04,1,1032,0.744958877563477,keyboard,keyboard,0,1032_scg_s04_0_keyboard_00_keyboard8-chair2.png
subject-04,1,1033,1.23294186592102,bear,bear,0,1033_scg_s04_0_bear_00_bear10-elephant1.png
subject-04,1,1034,0.707268953323364,bottle,bottle,0,1034_scg_s04_0_bottle_00_bottle4-truck1.png
subject-04,1,1035,0.943135976791382,bear,bear,0,1035_scg_s04_0_bear_00_bear1-elephant1.png
subject-04,1,1036,1.06069684028625,dog,dog,0,1036_scg_s04_0_dog_00_dog8-boat3.png
subject-04,1,1037,1.08891916275024,elephant,elephant,0,1037_scg_s04_0_elephant_00_elephant2-cat1.png
subject-04,1,1038,1.06253814697266,keyboard,keyboard,0,1038_scg_s04_0_keyboard_00_keyboard4-bottle2.png
subject-04,1,1039,0.869195938110352,keyboard,keyboard,0,1039_scg_s04_0_keyboard_00_keyboard1-bear2.png
subject-04,1,1040,1.04130291938782,dog,dog,0,1040_scg_s04_0_dog_00_dog9-bottle1.png
subject-04,1,1041,0.760833024978638,clock,clock,0,1041_scg_s04_0_clock_00_clock3-elephant3.png
subject-04,1,1042,0.705102920532227,boat,boat,0,1042_scg_s04_0_boat_00_boat4-boat3.png
subject-04,1,1043,0.776806831359863,car,car,0,1043_scg_s04_0_car_00_car8-clock2.png
subject-04,1,1044,1.05086183547974,bird,bird,0,1044_scg_s04_0_bird_00_bird10-bear2.png
subject-04,1,1045,1.25842809677124,keyboard,knife,0,1045_scg_s04_0_knife_00_knife8-boat1.png
subject-04,1,1046,0.986823081970215,oven,oven,0,1046_scg_s04_0_oven_00_oven8-knife2.png
subject-04,1,1047,0.830311059951782,car,car,0,1047_scg_s04_0_car_00_car4-boat1.png
subject-04,1,1048,0.764051914215088,chair,chair,0,1048_scg_s04_0_chair_00_chair6-dog1.png
subject-04,1,1049,0.792265176773071,cat,cat,0,1049_scg_s04_0_cat_00_cat3-bear2.png
subject-04,1,1050,0.737128019332886,car,car,0,1050_scg_s04_0_car_00_car3-airplane3.png
subject-04,1,1051,0.938345909118652,truck,truck,0,1051_scg_s04_0_truck_00_truck10-car3.png
subject-04,1,1052,0.988789081573486,oven,oven,0,1052_scg_s04_0_oven_00_oven5-bottle3.png
subject-04,1,1053,0.757855892181396,bottle,bottle,0,1053_scg_s04_0_bottle_00_bottle9-car3.png
subject-04,1,1054,1.07735109329224,knife,knife,0,1054_scg_s04_0_knife_00_knife6-bottle3.png
subject-04,1,1055,0.981520891189575,dog,dog,0,1055_scg_s04_0_dog_00_dog3-bird2.png
subject-04,1,1056,0.884722948074341,oven,oven,0,1056_scg_s04_0_oven_00_oven7-oven1.png
subject-04,1,1057,0.942668914794922,knife,knife,0,1057_scg_s04_0_knife_00_knife5-keyboard3.png
subject-04,1,1058,0.916704893112183,bicycle,bicycle,0,1058_scg_s04_0_bicycle_00_bicycle4-keyboard3.png
subject-04,1,1059,0.94081711769104,bicycle,bicycle,0,1059_scg_s04_0_bicycle_00_bicycle4-knife3.png
subject-04,1,1060,0.790708065032959,dog,dog,0,1060_scg_s04_0_dog_00_dog5-car3.png
subject-04,1,1061,0.777955055236816,clock,clock,0,1061_scg_s04_0_clock_00_clock3-car2.png
subject-04,1,1062,0.911895036697388,airplane,airplane,0,1062_scg_s04_0_airplane_00_airplane4-airplane1.png
subject-04,1,1063,0.838954925537109,airplane,airplane,0,1063_scg_s04_0_airplane_00_airplane7-boat2.png
subject-04,1,1064,0.864720106124878,bird,bird,0,1064_scg_s04_0_bird_00_bird6-airplane2.png
subject-04,1,1065,1.21382594108582,airplane,airplane,0,1065_scg_s04_0_airplane_00_airplane7-keyboard1.png
subject-04,1,1066,0.728373050689697,cat,cat,0,1066_scg_s04_0_cat_00_cat1-chair2.png
subject-04,1,1067,0.78553295135498,chair,chair,0,1067_scg_s04_0_chair_00_chair1-clock2.png
subject-04,1,1068,1.14996600151062,knife,knife,0,1068_scg_s04_0_knife_00_knife1-truck2.png
subject-04,1,1069,1.01545405387878,bicycle,bicycle,0,1069_scg_s04_0_bicycle_00_bicycle9-bear1.png
subject-04,1,1070,1.01310515403748,bird,bird,0,1070_scg_s04_0_bird_00_bird1-bear1.png
subject-04,1,1071,0.925019979476929,bicycle,bicycle,0,1071_scg_s04_0_bicycle_00_bicycle10-airplane2.png
subject-04,1,1072,0.898622989654541,keyboard,keyboard,0,1072_scg_s04_0_keyboard_00_keyboard10-truck1.png
subject-04,1,1073,0.794093132019043,oven,oven,0,1073_scg_s04_0_oven_00_oven5-dog3.png
subject-04,1,1074,1.07385587692261,bird,bird,0,1074_scg_s04_0_bird_00_bird4-bicycle2.png
subject-04,1,1075,1.00178694725037,keyboard,keyboard,0,1075_scg_s04_0_keyboard_00_keyboard9-elephant2.png
subject-04,1,1076,0.775199174880981,truck,truck,0,1076_scg_s04_0_truck_00_truck6-clock2.png
subject-04,1,1077,1.38495302200317,keyboard,keyboard,0,1077_scg_s04_0_keyboard_00_keyboard1-elephant3.png
subject-04,1,1078,0.861387014389038,bear,bear,0,1078_scg_s04_0_bear_00_bear2-dog1.png
subject-04,1,1079,1.0414731502533,bear,bear,0,1079_scg_s04_0_bear_00_bear8-bottle1.png
subject-04,1,1080,1.06224703788757,bird,chair,0,1080_scg_s04_0_chair_00_chair5-keyboard2.png
subject-04,1,1081,0.800581932067871,elephant,elephant,0,1081_scg_s04_0_elephant_00_elephant1-chair1.png
subject-04,1,1082,0.764064073562622,boat,boat,0,1082_scg_s04_0_boat_00_boat9-cat3.png
subject-04,1,1083,0.799738883972168,keyboard,keyboard,0,1083_scg_s04_0_keyboard_00_keyboard5-airplane3.png
subject-04,1,1084,0.832751989364624,keyboard,keyboard,0,1084_scg_s04_0_keyboard_00_keyboard5-bird3.png
subject-04,1,1085,1.20465302467346,airplane,airplane,0,1085_scg_s04_0_airplane_00_airplane10-airplane1.png
subject-04,1,1086,0.786385059356689,cat,cat,0,1086_scg_s04_0_cat_00_cat4-bird2.png
subject-04,1,1087,0.935540199279785,clock,clock,0,1087_scg_s04_0_clock_00_clock10-cat1.png
subject-04,1,1088,0.748063087463379,oven,oven,0,1088_scg_s04_0_oven_00_oven4-keyboard3.png
subject-04,1,1089,1.02990102767944,chair,chair,0,1089_scg_s04_0_chair_00_chair1-airplane2.png
subject-04,1,1090,0.994988918304443,bird,bird,0,1090_scg_s04_0_bird_00_bird8-car2.png
subject-04,1,1091,1.25365805625916,boat,boat,0,1091_scg_s04_0_boat_00_boat8-bird2.png
subject-04,1,1092,0.794473171234131,bicycle,bicycle,0,1092_scg_s04_0_bicycle_00_bicycle6-cat1.png
subject-04,1,1093,1.11444306373596,clock,clock,0,1093_scg_s04_0_clock_00_clock4-bird3.png
subject-04,1,1094,0.810184955596924,bird,bird,0,1094_scg_s04_0_bird_00_bird7-bottle1.png
subject-04,1,1095,1.36769700050354,airplane,knife,0,1095_scg_s04_0_knife_00_knife7-boat3.png
