subj,session,trial,rt,object_response,category,condition,imagename
subject-09,1,1,1.03118109703064,airplane,clock,0,0001_scg_s09_0_clock_00_clock9-keyboard2.png
subject-09,1,2,0.968929052352905,boat,boat,0,0002_scg_s09_0_boat_00_boat10-bear3.png
subject-09,1,3,0.968503952026367,keyboard,keyboard,0,0003_scg_s09_0_keyboard_00_keyboard1-clock1.png
subject-09,1,4,1.40413689613342,knife,knife,0,0004_scg_s09_0_knife_00_knife7-bottle3.png
subject-09,1,5,0.850012063980103,elephant,elephant,0,0005_scg_s09_0_elephant_00_elephant8-dog1.png
subject-09,1,6,1.15909695625305,boat,airplane,0,0006_scg_s09_0_airplane_00_airplane10-bear3.png
subject-09,1,7,0.68033504486084,boat,boat,0,0007_scg_s09_0_boat_00_boat2-bottle2.png
subject-09,1,8,0.742466926574707,bird,bird,0,0008_scg_s09_0_bird_00_bird1-keyboard3.png
subject-09,1,9,0.717566967010498,elephant,elephant,0,0009_scg_s09_0_elephant_00_elephant5-truck1.png
subject-09,1,10,1.50008106231689,truck,truck,0,0010_scg_s09_0_truck_00_truck2-keyboard1.png
subject-09,1,11,0.647334814071655,cat,cat,0,0011_scg_s09_0_cat_00_cat6-oven1.png
subject-09,1,12,0.832210063934326,keyboard,keyboard,0,0012_scg_s09_0_keyboard_00_keyboard2-bottle1.png
subject-09,1,13,0.924059867858887,chair,chair,0,0013_scg_s09_0_chair_00_chair5-bottle3.png
subject-09,1,14,0.678418874740601,boat,boat,0,0014_scg_s09_0_boat_00_boat8-oven1.png
subject-09,1,15,0.667827129364014,bottle,bottle,0,0015_scg_s09_0_bottle_00_bottle6-boat3.png
subject-09,1,16,0.996963024139404,bicycle,bird,0,0016_scg_s09_0_bird_00_bird8-keyboard2.png
subject-09,1,17,1.18743181228638,boat,airplane,0,0017_scg_s09_0_airplane_00_airplane3-car1.png
subject-09,1,18,0.687088966369629,keyboard,keyboard,0,0018_scg_s09_0_keyboard_00_keyboard9-airplane3.png
subject-09,1,19,0.870650053024292,car,car,0,0019_scg_s09_0_car_00_car3-dog2.png
subject-09,1,20,0.661938905715942,chair,chair,0,0020_scg_s09_0_chair_00_chair9-bicycle3.png
subject-09,1,21,1.10899996757507,chair,dog,0,0021_scg_s09_0_dog_00_dog10-oven2.png
subject-09,1,22,1.23046493530273,cat,bird,0,0022_scg_s09_0_bird_00_bird3-cat1.png
subject-09,1,23,0.822083950042725,cat,cat,0,0023_scg_s09_0_cat_00_cat2-bottle3.png
subject-09,1,24,1.08941197395325,keyboard,oven,0,0024_scg_s09_0_oven_00_oven2-truck3.png
subject-09,1,25,0.757068872451782,car,car,0,0025_scg_s09_0_car_00_car2-knife3.png
subject-09,1,26,1.06679892539978,bird,bird,0,0026_scg_s09_0_bird_00_bird3-bottle2.png
subject-09,1,27,0.69612193107605,airplane,airplane,0,0027_scg_s09_0_airplane_00_airplane10-oven2.png
subject-09,1,28,0.671425819396973,boat,clock,0,0028_scg_s09_0_clock_00_clock1-boat3.png
subject-09,1,29,0.993463039398193,car,truck,0,0029_scg_s09_0_truck_00_truck6-cat2.png
subject-09,1,30,0.760875940322876,bicycle,bicycle,0,0030_scg_s09_0_bicycle_00_bicycle1-elephant2.png
subject-09,1,31,0.652297019958496,clock,clock,0,0031_scg_s09_0_clock_00_clock9-cat1.png
subject-09,1,32,0.881898164749146,cat,bird,0,0032_scg_s09_0_bird_00_bird2-dog2.png
subject-09,1,33,0.903032064437866,elephant,elephant,0,0033_scg_s09_0_elephant_00_elephant2-elephant3.png
subject-09,1,34,1.50034999847412,cat,cat,0,0034_scg_s09_0_cat_00_cat4-oven1.png
subject-09,1,35,1.38896799087524,chair,chair,0,0035_scg_s09_0_chair_00_chair5-bird1.png
subject-09,1,36,0.756491899490356,clock,clock,0,0036_scg_s09_0_clock_00_clock8-bear2.png
subject-09,1,37,NaN,na,truck,0,0037_scg_s09_0_truck_00_truck3-knife2.png
subject-09,1,38,0.590708017349243,boat,knife,0,0038_scg_s09_0_knife_00_knife10-keyboard3.png
subject-09,1,39,0.523661136627197,chair,chair,0,0039_scg_s09_0_chair_00_chair5-bicycle1.png
subject-09,1,40,0.680148839950562,elephant,elephant,0,0040_scg_s09_0_elephant_00_elephant7-car3.png
subject-09,1,41,1.12596201896667,bird,dog,0,0041_scg_s09_0_dog_00_dog8-keyboard3.png
subject-09,1,42,0.693619012832642,bicycle,bicycle,0,0042_scg_s09_0_bicycle_00_bicycle6-dog2.png
subject-09,1,43,0.915491104125977,dog,dog,0,0043_scg_s09_0_dog_00_dog7-knife3.png
subject-09,1,44,0.852905035018921,dog,dog,0,0044_scg_s09_0_dog_00_dog4-oven1.png
subject-09,1,45,0.853531122207642,keyboard,knife,0,0045_scg_s09_0_knife_00_knife7-elephant2.png
subject-09,1,46,0.765937089920044,car,car,0,0046_scg_s09_0_car_00_car6-boat1.png
subject-09,1,47,0.955120086669922,dog,dog,0,0047_scg_s09_0_dog_00_dog1-knife3.png
subject-09,1,48,0.914488077163696,dog,dog,0,0048_scg_s09_0_dog_00_dog3-bird2.png
subject-09,1,49,0.856549024581909,dog,dog,0,0049_scg_s09_0_dog_00_dog7-keyboard3.png
subject-09,1,50,0.715557098388672,elephant,elephant,0,0050_scg_s09_0_elephant_00_elephant8-knife2.png
subject-09,1,51,0.737291097640991,bicycle,bicycle,0,0051_scg_s09_0_bicycle_00_bicycle10-clock2.png
subject-09,1,52,1.12698698043823,elephant,bear,0,0052_scg_s09_0_bear_00_bear3-keyboard2.png
subject-09,1,53,0.9269700050354,elephant,elephant,0,0053_scg_s09_0_elephant_00_elephant5-chair3.png
subject-09,1,54,0.826986074447632,bicycle,bicycle,0,0054_scg_s09_0_bicycle_00_bicycle4-keyboard3.png
subject-09,1,55,0.695066928863525,oven,oven,0,0055_scg_s09_0_oven_00_oven1-clock3.png
subject-09,1,56,0.755155086517334,elephant,bicycle,0,0056_scg_s09_0_bicycle_00_bicycle9-chair1.png
subject-09,1,57,0.700522899627686,bicycle,bicycle,0,0057_scg_s09_0_bicycle_00_bicycle4-clock3.png
subject-09,1,58,0.713530778884888,dog,dog,0,0058_scg_s09_0_dog_00_dog2-dog3.png
subject-09,1,59,0.511343002319336,clock,clock,0,0059_scg_s09_0_clock_00_clock2-dog1.png
subject-09,1,60,0.716932773590088,boat,boat,0,0060_scg_s09_0_boat_00_boat10-truck1.png
subject-09,1,61,0.570763111114502,bird,bird,0,0061_scg_s09_0_bird_00_bird5-truck2.png
subject-09,1,62,0.659859180450439,keyboard,keyboard,0,0062_scg_s09_0_keyboard_00_keyboard8-chair2.png
subject-09,1,63,0.969628095626831,bird,cat,0,0063_scg_s09_0_cat_00_cat4-knife1.png
subject-09,1,64,0.87473201751709,bottle,bottle,0,0064_scg_s09_0_bottle_00_bottle5-airplane1.png
subject-09,1,65,0.71199893951416,bird,bird,0,0065_scg_s09_0_bird_00_bird6-airplane2.png
subject-09,1,66,0.649182081222534,bird,bird,0,0066_scg_s09_0_bird_00_bird4-airplane1.png
subject-09,1,67,0.847305059432983,car,car,0,0067_scg_s09_0_car_00_car7-car1.png
subject-09,1,68,0.946923017501831,knife,airplane,0,0068_scg_s09_0_airplane_00_airplane8-elephant3.png
subject-09,1,69,0.77661919593811,car,car,0,0069_scg_s09_0_car_00_car4-bicycle3.png
subject-09,1,70,0.936661958694458,bird,bird,0,0070_scg_s09_0_bird_00_bird5-bear3.png
subject-09,1,71,0.746536016464233,truck,truck,0,0071_scg_s09_0_truck_00_truck5-bird2.png
subject-09,1,72,1.03778219223022,truck,truck,0,0072_scg_s09_0_truck_00_truck9-airplane2.png
subject-09,1,73,1.01405811309814,airplane,airplane,0,0073_scg_s09_0_airplane_00_airplane10-elephant1.png
subject-09,1,74,0.667791128158569,boat,boat,0,0074_scg_s09_0_boat_00_boat1-car2.png
subject-09,1,75,0.664882898330688,bicycle,bicycle,0,0075_scg_s09_0_bicycle_00_bicycle4-airplane1.png
subject-09,1,76,1.1245641708374,bear,bear,0,0076_scg_s09_0_bear_00_bear1-bear3.png
subject-09,1,77,0.810420036315918,airplane,airplane,0,0077_scg_s09_0_airplane_00_airplane4-car1.png
subject-09,1,78,0.777832984924316,airplane,airplane,0,0078_scg_s09_0_airplane_00_airplane6-chair3.png
subject-09,1,79,0.79381799697876,bear,bear,0,0079_scg_s09_0_bear_00_bear4-boat2.png
subject-09,1,80,0.73717999458313,car,car,0,0080_scg_s09_0_car_00_car3-airplane3.png
subject-09,1,81,1.44327688217163,knife,bicycle,0,0081_scg_s09_0_bicycle_00_bicycle10-elephant2.png
subject-09,1,82,0.556469917297363,chair,chair,0,0082_scg_s09_0_chair_00_chair8-boat1.png
subject-09,1,83,0.533825874328613,bear,bear,0,0083_scg_s09_0_bear_00_bear3-bird3.png
subject-09,1,84,0.994091987609863,bear,bear,0,0084_scg_s09_0_bear_00_bear5-chair1.png
subject-09,1,85,0.799600839614868,bicycle,bicycle,0,0085_scg_s09_0_bicycle_00_bicycle8-chair2.png
subject-09,1,86,0.783090114593506,boat,boat,0,0086_scg_s09_0_boat_00_boat10-boat3.png
subject-09,1,87,0.811048030853271,bicycle,car,0,0087_scg_s09_0_car_00_car1-dog2.png
subject-09,1,88,1.01944303512573,bear,truck,0,0088_scg_s09_0_truck_00_truck7-keyboard3.png
subject-09,1,89,0.681840896606445,chair,chair,0,0089_scg_s09_0_chair_00_chair4-truck2.png
subject-09,1,90,1.3554379940033,chair,chair,0,0090_scg_s09_0_chair_00_chair2-boat1.png
subject-09,1,91,0.947097063064575,truck,truck,0,0091_scg_s09_0_truck_00_truck3-oven2.png
subject-09,1,92,1.00644397735596,knife,keyboard,0,0092_scg_s09_0_keyboard_00_keyboard6-bicycle1.png
subject-09,1,93,0.874150037765503,car,car,0,0093_scg_s09_0_car_00_car3-boat1.png
subject-09,1,94,0.94983696937561,bottle,bottle,0,0094_scg_s09_0_bottle_00_bottle4-airplane1.png
subject-09,1,95,0.901149034500122,keyboard,oven,0,0095_scg_s09_0_oven_00_oven2-oven3.png
subject-09,1,96,0.847012042999268,boat,bicycle,0,0096_scg_s09_0_bicycle_00_bicycle6-car2.png
subject-09,1,97,0.790514945983887,keyboard,keyboard,0,0097_scg_s09_0_keyboard_00_keyboard5-airplane3.png
subject-09,1,98,0.841973066329956,knife,knife,0,0098_scg_s09_0_knife_00_knife1-dog1.png
subject-09,1,99,0.695330858230591,keyboard,keyboard,0,0099_scg_s09_0_keyboard_00_keyboard8-keyboard2.png
subject-09,1,100,0.713117122650146,oven,oven,0,0100_scg_s09_0_oven_00_oven4-bicycle2.png
subject-09,1,101,0.832753896713257,bottle,bottle,0,0101_scg_s09_0_bottle_00_bottle9-bicycle1.png
subject-09,1,102,0.862032890319824,chair,chair,0,0102_scg_s09_0_chair_00_chair7-boat3.png
subject-09,1,103,0.730099201202393,dog,dog,0,0103_scg_s09_0_dog_00_dog2-airplane2.png
subject-09,1,104,0.668020009994507,boat,boat,0,0104_scg_s09_0_boat_00_boat9-clock1.png
subject-09,1,105,0.889205932617188,boat,cat,0,0105_scg_s09_0_cat_00_cat5-airplane2.png
subject-09,1,106,0.979679107666016,cat,cat,0,0106_scg_s09_0_cat_00_cat10-bird2.png
subject-09,1,107,0.925907135009766,bird,knife,0,0107_scg_s09_0_knife_00_knife1-keyboard3.png
subject-09,1,108,0.984453916549683,bear,truck,0,0108_scg_s09_0_truck_00_truck3-keyboard3.png
subject-09,1,109,0.906079053878784,truck,truck,0,0109_scg_s09_0_truck_00_truck8-cat2.png
subject-09,1,110,0.703685998916626,oven,oven,0,0110_scg_s09_0_oven_00_oven9-clock2.png
subject-09,1,111,0.633656024932861,car,car,0,0111_scg_s09_0_car_00_car4-elephant3.png
subject-09,1,112,0.609575033187866,cat,cat,0,0112_scg_s09_0_cat_00_cat1-chair2.png
subject-09,1,113,0.846932172775269,airplane,airplane,0,0113_scg_s09_0_airplane_00_airplane4-bicycle2.png
subject-09,1,114,0.65714693069458,bird,bird,0,0114_scg_s09_0_bird_00_bird5-bird1.png
subject-09,1,115,1.14890909194946,keyboard,oven,0,0115_scg_s09_0_oven_00_oven8-chair1.png
subject-09,1,116,0.892266988754272,bear,bear,0,0116_scg_s09_0_bear_00_bear4-clock3.png
subject-09,1,117,0.621088981628418,bird,bird,0,0117_scg_s09_0_bird_00_bird6-oven1.png
subject-09,1,118,0.910221099853516,keyboard,knife,0,0118_scg_s09_0_knife_00_knife6-clock2.png
subject-09,1,119,1.07543611526489,oven,oven,0,0119_scg_s09_0_oven_00_oven6-bear2.png
subject-09,1,120,0.683336019515991,bear,elephant,0,0120_scg_s09_0_elephant_00_elephant6-truck3.png
subject-09,1,121,0.935436010360718,knife,knife,0,0121_scg_s09_0_knife_00_knife9-bicycle1.png
subject-09,1,122,0.760097980499268,bottle,bottle,0,0122_scg_s09_0_bottle_00_bottle3-cat3.png
subject-09,1,123,1.3003101348877,knife,knife,0,0123_scg_s09_0_knife_00_knife1-oven1.png
subject-09,1,124,1.50001978874207,bicycle,bicycle,0,0124_scg_s09_0_bicycle_00_bicycle7-clock3.png
subject-09,1,125,0.842965841293335,bicycle,dog,0,0125_scg_s09_0_dog_00_dog7-oven2.png
subject-09,1,126,0.649029970169067,clock,clock,0,0126_scg_s09_0_clock_00_clock4-elephant2.png
subject-09,1,127,0.96483302116394,knife,airplane,0,0127_scg_s09_0_airplane_00_airplane4-bear3.png
subject-09,1,128,0.924827814102173,bird,knife,0,0128_scg_s09_0_knife_00_knife6-knife1.png
subject-09,1,129,0.630238056182861,boat,boat,0,0129_scg_s09_0_boat_00_boat9-boat3.png
subject-09,1,130,0.830741882324219,knife,airplane,0,0130_scg_s09_0_airplane_00_airplane2-bear1.png
subject-09,1,131,0.877882957458496,bird,dog,0,0131_scg_s09_0_dog_00_dog9-airplane3.png
subject-09,1,132,0.77038311958313,keyboard,keyboard,0,0132_scg_s09_0_keyboard_00_keyboard5-bird3.png
subject-09,1,133,0.967489957809448,oven,oven,0,0133_scg_s09_0_oven_00_oven4-clock2.png
subject-09,1,134,0.613188982009888,bottle,bottle,0,0134_scg_s09_0_bottle_00_bottle1-bear1.png
subject-09,1,135,0.832698106765747,bicycle,bicycle,0,0135_scg_s09_0_bicycle_00_bicycle6-boat2.png
subject-09,1,136,1.50018501281738,bird,bird,0,0136_scg_s09_0_bird_00_bird6-bottle3.png
subject-09,1,137,1.06466197967529,elephant,elephant,0,0137_scg_s09_0_elephant_00_elephant1-boat2.png
subject-09,1,138,0.672504901885986,oven,oven,0,0138_scg_s09_0_oven_00_oven10-bicycle1.png
subject-09,1,139,0.707275152206421,dog,dog,0,0139_scg_s09_0_dog_00_dog3-keyboard1.png
subject-09,1,140,1.00421619415283,truck,truck,0,0140_scg_s09_0_truck_00_truck2-airplane3.png
subject-09,1,141,NaN,na,airplane,0,0141_scg_s09_0_airplane_00_airplane8-bicycle3.png
subject-09,1,142,0.531607866287231,truck,truck,0,0142_scg_s09_0_truck_00_truck7-boat1.png
subject-09,1,143,0.59958291053772,clock,clock,0,0143_scg_s09_0_clock_00_clock4-oven1.png
subject-09,1,144,0.434945821762085,cat,cat,0,0144_scg_s09_0_cat_00_cat6-keyboard3.png
subject-09,1,145,0.652213096618652,bicycle,bicycle,0,0145_scg_s09_0_bicycle_00_bicycle1-bird1.png
subject-09,1,146,0.890193939208984,elephant,elephant,0,0146_scg_s09_0_elephant_00_elephant1-dog2.png
subject-09,1,147,0.733783006668091,elephant,elephant,0,0147_scg_s09_0_elephant_00_elephant7-clock2.png
subject-09,1,148,1.1679699420929,knife,knife,0,0148_scg_s09_0_knife_00_knife9-bird1.png
subject-09,1,149,0.603428840637207,bottle,bottle,0,0149_scg_s09_0_bottle_00_bottle3-airplane2.png
subject-09,1,150,0.75009822845459,truck,truck,0,0150_scg_s09_0_truck_00_truck9-chair3.png
subject-09,1,151,0.838057994842529,car,car,0,0151_scg_s09_0_car_00_car8-cat1.png
subject-09,1,152,0.775563955307007,elephant,bear,0,0152_scg_s09_0_bear_00_bear7-oven3.png
subject-09,1,153,0.86014199256897,bottle,bottle,0,0153_scg_s09_0_bottle_00_bottle5-oven2.png
subject-09,1,154,0.733597993850708,car,car,0,0154_scg_s09_0_car_00_car8-truck3.png
subject-09,1,155,0.655673027038574,chair,chair,0,0155_scg_s09_0_chair_00_chair10-oven1.png
subject-09,1,156,0.876990079879761,knife,knife,0,0156_scg_s09_0_knife_00_knife5-bicycle2.png
subject-09,1,157,0.644808053970337,bird,bird,0,0157_scg_s09_0_bird_00_bird3-dog1.png
subject-09,1,158,0.596198797225952,oven,oven,0,0158_scg_s09_0_oven_00_oven9-knife3.png
subject-09,1,159,0.656501054763794,keyboard,keyboard,0,0159_scg_s09_0_keyboard_00_keyboard1-bear2.png
subject-09,1,160,0.672749996185303,truck,truck,0,0160_scg_s09_0_truck_00_truck1-chair2.png
subject-09,1,161,0.849100112915039,dog,dog,0,0161_scg_s09_0_dog_00_dog5-knife2.png
subject-09,1,162,0.630702018737793,keyboard,oven,0,0162_scg_s09_0_oven_00_oven2-bottle1.png
subject-09,1,163,0.869230031967163,cat,cat,0,0163_scg_s09_0_cat_00_cat7-truck2.png
subject-09,1,164,0.536854028701782,oven,oven,0,0164_scg_s09_0_oven_00_oven5-bottle3.png
subject-09,1,165,0.704525947570801,keyboard,chair,0,0165_scg_s09_0_chair_00_chair6-truck2.png
subject-09,1,166,0.972114086151123,bear,bear,0,0166_scg_s09_0_bear_00_bear2-knife2.png
subject-09,1,167,0.682512998580933,cat,dog,0,0167_scg_s09_0_dog_00_dog5-truck2.png
subject-09,1,168,0.66680383682251,bird,boat,0,0168_scg_s09_0_boat_00_boat6-clock2.png
subject-09,1,169,0.916260004043579,truck,car,0,0169_scg_s09_0_car_00_car5-truck3.png
subject-09,1,170,1.03799200057983,truck,truck,0,0170_scg_s09_0_truck_00_truck5-car1.png
subject-09,1,171,1.07418894767761,knife,knife,0,0171_scg_s09_0_knife_00_knife10-knife1.png
subject-09,1,172,0.757448196411133,bird,bird,0,0172_scg_s09_0_bird_00_bird2-airplane3.png
subject-09,1,173,0.679508924484253,cat,cat,0,0173_scg_s09_0_cat_00_cat4-chair2.png
subject-09,1,174,0.855951070785522,bird,bear,0,0174_scg_s09_0_bear_00_bear4-keyboard3.png
subject-09,1,175,0.75532603263855,cat,dog,0,0175_scg_s09_0_dog_00_dog4-bicycle1.png
subject-09,1,176,0.69910717010498,bicycle,bicycle,0,0176_scg_s09_0_bicycle_00_bicycle3-elephant2.png
subject-09,1,177,1.50011801719666,bear,bear,0,0177_scg_s09_0_bear_00_bear9-keyboard3.png
subject-09,1,178,1.08921790122986,knife,keyboard,0,0178_scg_s09_0_keyboard_00_keyboard3-bicycle2.png
subject-09,1,179,0.634581089019775,bird,bird,0,0179_scg_s09_0_bird_00_bird7-keyboard3.png
subject-09,1,180,0.716440916061401,car,car,0,0180_scg_s09_0_car_00_car9-keyboard2.png
subject-09,1,181,0.55886697769165,oven,oven,0,0181_scg_s09_0_oven_00_oven9-bird3.png
subject-09,1,182,0.842402935028076,bird,bear,0,0182_scg_s09_0_bear_00_bear6-cat3.png
subject-09,1,183,0.78052806854248,car,car,0,0183_scg_s09_0_car_00_car7-oven2.png
subject-09,1,184,0.758732080459595,chair,chair,0,0184_scg_s09_0_chair_00_chair9-boat2.png
subject-09,1,185,0.55060601234436,cat,cat,0,0185_scg_s09_0_cat_00_cat1-dog1.png
subject-09,1,186,0.779621124267578,clock,bottle,0,0186_scg_s09_0_bottle_00_bottle9-elephant2.png
subject-09,1,187,0.54318904876709,bottle,bottle,0,0187_scg_s09_0_bottle_00_bottle8-bird1.png
subject-09,1,188,0.90867805480957,airplane,airplane,0,0188_scg_s09_0_airplane_00_airplane1-chair2.png
subject-09,1,189,0.846224069595337,bear,bear,0,0189_scg_s09_0_bear_00_bear7-dog3.png
subject-09,1,190,0.64801287651062,boat,boat,0,0190_scg_s09_0_boat_00_boat5-airplane1.png
subject-09,1,191,0.978161811828613,boat,airplane,0,0191_scg_s09_0_airplane_00_airplane4-boat3.png
subject-09,1,192,0.615818023681641,bottle,bottle,0,0192_scg_s09_0_bottle_00_bottle4-truck1.png
subject-09,1,193,0.835897922515869,boat,airplane,0,0193_scg_s09_0_airplane_00_airplane4-elephant1.png
subject-09,1,194,0.665130853652954,clock,clock,0,0194_scg_s09_0_clock_00_clock8-truck2.png
subject-09,1,195,0.616538047790527,chair,chair,0,0195_scg_s09_0_chair_00_chair3-bicycle3.png
subject-09,1,196,1.40660405158997,keyboard,bear,0,0196_scg_s09_0_bear_00_bear3-airplane1.png
subject-09,1,197,0.951195001602173,knife,boat,0,0197_scg_s09_0_boat_00_boat1-bear1.png
subject-09,1,198,0.673015832901001,keyboard,keyboard,0,0198_scg_s09_0_keyboard_00_keyboard1-car3.png
subject-09,1,199,1.03847980499268,knife,knife,0,0199_scg_s09_0_knife_00_knife1-bird2.png
subject-09,1,200,0.630366802215576,oven,oven,0,0200_scg_s09_0_oven_00_oven4-dog1.png
subject-09,1,201,0.711380958557129,bird,boat,0,0201_scg_s09_0_boat_00_boat6-bottle2.png
subject-09,1,202,0.553305149078369,airplane,airplane,0,0202_scg_s09_0_airplane_00_airplane1-bicycle2.png
subject-09,1,203,0.620819807052612,bird,airplane,0,0203_scg_s09_0_airplane_00_airplane7-cat3.png
subject-09,1,204,1.04822015762329,truck,truck,0,0204_scg_s09_0_truck_00_truck6-boat2.png
subject-09,1,205,0.764409065246582,keyboard,oven,0,0205_scg_s09_0_oven_00_oven8-keyboard3.png
subject-09,1,206,0.783856868743896,truck,truck,0,0206_scg_s09_0_truck_00_truck9-elephant1.png
subject-09,1,207,0.751260995864868,chair,chair,0,0207_scg_s09_0_chair_00_chair8-bear1.png
subject-09,1,208,0.673311948776245,elephant,elephant,0,0208_scg_s09_0_elephant_00_elephant5-bottle2.png
subject-09,1,209,0.719042062759399,airplane,airplane,0,0209_scg_s09_0_airplane_00_airplane6-keyboard3.png
subject-09,1,210,0.724000930786133,oven,airplane,0,0210_scg_s09_0_airplane_00_airplane7-car1.png
subject-09,1,211,0.638787031173706,car,car,0,0211_scg_s09_0_car_00_car6-bottle1.png
subject-09,1,212,1.35248804092407,keyboard,oven,0,0212_scg_s09_0_oven_00_oven6-truck1.png
subject-09,1,213,1.08209204673767,airplane,clock,0,0213_scg_s09_0_clock_00_clock1-bear1.png
subject-09,1,214,0.879792928695679,boat,knife,0,0214_scg_s09_0_knife_00_knife4-oven2.png
subject-09,1,215,0.741975784301758,bear,bear,0,0215_scg_s09_0_bear_00_bear4-elephant2.png
subject-09,1,216,0.543235063552856,cat,cat,0,0216_scg_s09_0_cat_00_cat6-clock3.png
subject-09,1,217,0.941073894500732,boat,boat,0,0217_scg_s09_0_boat_00_boat9-cat3.png
subject-09,1,218,NaN,na,knife,0,0218_scg_s09_0_knife_00_knife5-knife3.png
subject-09,1,219,1.18519687652588,bear,bear,0,0219_scg_s09_0_bear_00_bear5-airplane3.png
subject-09,1,220,0.623374938964844,boat,boat,0,0220_scg_s09_0_boat_00_boat1-truck3.png
subject-09,1,221,1.20737195014954,truck,truck,0,0221_scg_s09_0_truck_00_truck9-truck3.png
subject-09,1,222,0.934759140014648,elephant,bear,0,0222_scg_s09_0_bear_00_bear3-bicycle2.png
subject-09,1,223,0.515313148498535,boat,knife,0,0223_scg_s09_0_knife_00_knife6-chair3.png
subject-09,1,224,0.628003120422363,clock,clock,0,0224_scg_s09_0_clock_00_clock7-boat3.png
subject-09,1,225,0.633502006530762,oven,oven,0,0225_scg_s09_0_oven_00_oven7-dog2.png
subject-09,1,226,1.2095251083374,oven,oven,0,0226_scg_s09_0_oven_00_oven8-cat3.png
subject-09,1,227,0.514474868774414,clock,clock,0,0227_scg_s09_0_clock_00_clock2-clock3.png
subject-09,1,228,0.657942056655884,airplane,airplane,0,0228_scg_s09_0_airplane_00_airplane10-airplane1.png
subject-09,1,229,1.16413998603821,car,car,0,0229_scg_s09_0_car_00_car5-bottle1.png
subject-09,1,230,0.768678903579712,car,car,0,0230_scg_s09_0_car_00_car5-bear3.png
subject-09,1,231,0.606817960739136,oven,oven,0,0231_scg_s09_0_oven_00_oven9-bear2.png
subject-09,1,232,0.641952037811279,oven,oven,0,0232_scg_s09_0_oven_00_oven9-boat2.png
subject-09,1,233,0.600735187530518,dog,dog,0,0233_scg_s09_0_dog_00_dog10-airplane1.png
subject-09,1,234,0.774368047714233,airplane,airplane,0,0234_scg_s09_0_airplane_00_airplane4-knife1.png
subject-09,1,235,0.813272953033447,airplane,keyboard,0,0235_scg_s09_0_keyboard_00_keyboard2-elephant1.png
subject-09,1,236,1.50038599967957,elephant,elephant,0,0236_scg_s09_0_elephant_00_elephant4-car3.png
subject-09,1,237,1.24890995025635,boat,boat,0,0237_scg_s09_0_boat_00_boat4-boat3.png
subject-09,1,238,1.0293300151825,truck,truck,0,0238_scg_s09_0_truck_00_truck2-elephant1.png
subject-09,1,239,0.812613964080811,bottle,bottle,0,0239_scg_s09_0_bottle_00_bottle3-bicycle3.png
subject-09,1,240,0.988931894302368,airplane,airplane,0,0240_scg_s09_0_airplane_00_airplane10-knife3.png
subject-09,1,241,0.80269193649292,bird,bird,0,0241_scg_s09_0_bird_00_bird4-bicycle2.png
subject-09,1,242,0.846343040466309,dog,dog,0,0242_scg_s09_0_dog_00_dog10-bottle1.png
subject-09,1,243,0.905718088150024,truck,truck,0,0243_scg_s09_0_truck_00_truck2-oven3.png
subject-09,1,244,1.26992607116699,bear,bear,0,0244_scg_s09_0_bear_00_bear4-truck3.png
subject-09,1,245,0.604977130889893,bird,bird,0,0245_scg_s09_0_bird_00_bird9-dog2.png
subject-09,1,246,1.11837410926819,cat,elephant,0,0246_scg_s09_0_elephant_00_elephant10-elephant1.png
subject-09,1,247,0.730648994445801,knife,knife,0,0247_scg_s09_0_knife_00_knife9-bear3.png
subject-09,1,248,1.03723216056824,knife,knife,0,0248_scg_s09_0_knife_00_knife3-bear2.png
subject-09,1,249,0.549736022949219,bottle,bottle,0,0249_scg_s09_0_bottle_00_bottle2-car2.png
subject-09,1,250,1.0149040222168,chair,chair,0,0250_scg_s09_0_chair_00_chair10-bottle3.png
subject-09,1,251,0.561331987380981,bicycle,bicycle,0,0251_scg_s09_0_bicycle_00_bicycle1-bear1.png
subject-09,1,252,0.767046928405762,bear,bear,0,0252_scg_s09_0_bear_00_bear5-bottle1.png
subject-09,1,253,0.610306024551392,clock,clock,0,0253_scg_s09_0_clock_00_clock3-elephant3.png
subject-09,1,254,0.71595287322998,bicycle,bicycle,0,0254_scg_s09_0_bicycle_00_bicycle4-knife3.png
subject-09,1,255,0.883416891098022,elephant,elephant,0,0255_scg_s09_0_elephant_00_elephant1-oven2.png
subject-09,1,256,0.689276933670044,clock,clock,0,0256_scg_s09_0_clock_00_clock7-cat2.png
subject-09,1,257,0.63824987411499,dog,dog,0,0257_scg_s09_0_dog_00_dog10-truck2.png
subject-09,1,258,0.689206123352051,bottle,bottle,0,0258_scg_s09_0_bottle_00_bottle6-oven3.png
subject-09,1,259,0.68687915802002,elephant,elephant,0,0259_scg_s09_0_elephant_00_elephant5-elephant1.png
subject-09,1,260,0.846230983734131,chair,chair,0,0260_scg_s09_0_chair_00_chair8-elephant1.png
subject-09,1,261,0.781252145767212,airplane,airplane,0,0261_scg_s09_0_airplane_00_airplane10-truck1.png
subject-09,1,262,0.84370493888855,keyboard,chair,0,0262_scg_s09_0_chair_00_chair6-elephant2.png
subject-09,1,263,0.665938854217529,clock,clock,0,0263_scg_s09_0_clock_00_clock10-bird3.png
subject-09,1,264,0.825730085372925,chair,chair,0,0264_scg_s09_0_chair_00_chair7-elephant1.png
subject-09,1,265,0.999386072158813,knife,boat,0,0265_scg_s09_0_boat_00_boat7-keyboard3.png
subject-09,1,266,1.05895185470581,bird,bird,0,0266_scg_s09_0_bird_00_bird10-bear2.png
subject-09,1,267,0.659631013870239,bear,bear,0,0267_scg_s09_0_bear_00_bear5-oven3.png
subject-09,1,268,1.32520604133606,elephant,elephant,0,0268_scg_s09_0_elephant_00_elephant9-boat3.png
subject-09,1,269,0.60890007019043,oven,oven,0,0269_scg_s09_0_oven_00_oven3-bear2.png
subject-09,1,270,0.654603004455566,keyboard,keyboard,0,0270_scg_s09_0_keyboard_00_keyboard6-car2.png
subject-09,1,271,0.716400861740112,bicycle,dog,0,0271_scg_s09_0_dog_00_dog3-elephant2.png
subject-09,1,272,0.467124938964844,oven,oven,0,0272_scg_s09_0_oven_00_oven10-airplane2.png
subject-09,1,273,0.675090074539185,bottle,bottle,0,0273_scg_s09_0_bottle_00_bottle5-truck1.png
subject-09,1,274,0.640814065933228,clock,clock,0,0274_scg_s09_0_clock_00_clock9-chair3.png
subject-09,1,275,0.93268895149231,airplane,airplane,0,0275_scg_s09_0_airplane_00_airplane5-bicycle1.png
subject-09,1,276,0.909157991409302,knife,keyboard,0,0276_scg_s09_0_keyboard_00_keyboard6-elephant1.png
subject-09,1,277,1.05263590812683,knife,keyboard,0,0277_scg_s09_0_keyboard_00_keyboard4-bird1.png
subject-09,1,278,0.9286789894104,bicycle,bicycle,0,0278_scg_s09_0_bicycle_00_bicycle1-chair1.png
subject-09,1,279,0.766332864761353,truck,truck,0,0279_scg_s09_0_truck_00_truck3-car3.png
subject-09,1,280,0.647483825683594,oven,oven,0,0280_scg_s09_0_oven_00_oven4-elephant3.png
subject-09,1,281,0.7933030128479,keyboard,keyboard,0,0281_scg_s09_0_keyboard_00_keyboard10-airplane3.png
subject-09,1,282,0.813086032867432,car,car,0,0282_scg_s09_0_car_00_car6-bicycle3.png
subject-09,1,283,0.773069143295288,bicycle,bicycle,0,0283_scg_s09_0_bicycle_00_bicycle4-boat1.png
subject-09,1,284,1.17269706726074,bear,bear,0,0284_scg_s09_0_bear_00_bear8-knife3.png
subject-09,1,285,0.778512001037598,dog,dog,0,0285_scg_s09_0_dog_00_dog6-clock1.png
subject-09,1,286,0.79793906211853,bear,bear,0,0286_scg_s09_0_bear_00_bear1-bird2.png
subject-09,1,287,0.648879051208496,keyboard,keyboard,0,0287_scg_s09_0_keyboard_00_keyboard6-knife2.png
subject-09,1,288,0.592437982559204,bicycle,bicycle,0,0288_scg_s09_0_bicycle_00_bicycle8-clock3.png
subject-09,1,289,0.651531934738159,bottle,bottle,0,0289_scg_s09_0_bottle_00_bottle1-dog2.png
subject-09,1,290,0.865058898925781,keyboard,keyboard,0,0290_scg_s09_0_keyboard_00_keyboard5-cat1.png
subject-09,1,291,0.532583951950073,cat,cat,0,0291_scg_s09_0_cat_00_cat1-bird1.png
subject-09,1,292,0.914582014083862,knife,knife,0,0292_scg_s09_0_knife_00_knife4-airplane3.png
subject-09,1,293,1.21993398666382,boat,boat,0,0293_scg_s09_0_boat_00_boat1-elephant3.png
subject-09,1,294,0.917636156082153,bird,elephant,0,0294_scg_s09_0_elephant_00_elephant2-keyboard3.png
subject-09,1,295,0.714830875396729,boat,boat,0,0295_scg_s09_0_boat_00_boat5-bicycle3.png
subject-09,1,296,0.766826868057251,airplane,airplane,0,0296_scg_s09_0_airplane_00_airplane7-bottle3.png
subject-09,1,297,0.742115020751953,airplane,knife,0,0297_scg_s09_0_knife_00_knife10-oven3.png
subject-09,1,298,1.01794409751892,knife,knife,0,0298_scg_s09_0_knife_00_knife4-clock3.png
subject-09,1,299,0.869402170181274,bottle,bottle,0,0299_scg_s09_0_bottle_00_bottle1-car1.png
subject-09,1,300,0.717152118682861,chair,chair,0,0300_scg_s09_0_chair_00_chair4-oven2.png
subject-09,1,301,0.792892932891846,chair,chair,0,0301_scg_s09_0_chair_00_chair4-cat2.png
subject-09,1,302,0.882568120956421,bird,bird,0,0302_scg_s09_0_bird_00_bird7-bottle1.png
subject-09,1,303,0.896097898483276,knife,knife,0,0303_scg_s09_0_knife_00_knife6-bicycle1.png
subject-09,1,304,1.2018780708313,knife,airplane,0,0304_scg_s09_0_airplane_00_airplane9-knife3.png
subject-09,1,305,0.815100908279419,elephant,elephant,0,0305_scg_s09_0_elephant_00_elephant8-boat2.png
subject-09,1,306,0.742455005645752,elephant,elephant,0,0306_scg_s09_0_elephant_00_elephant1-car3.png
subject-09,1,307,1.1032338142395,elephant,airplane,0,0307_scg_s09_0_airplane_00_airplane4-keyboard3.png
subject-09,1,308,0.870549201965332,knife,knife,0,0308_scg_s09_0_knife_00_knife1-car3.png
subject-09,1,309,0.884720087051392,cat,oven,0,0309_scg_s09_0_oven_00_oven4-keyboard3.png
subject-09,1,310,0.736603021621704,keyboard,oven,0,0310_scg_s09_0_oven_00_oven1-bird3.png
subject-09,1,311,0.6299729347229,oven,oven,0,0311_scg_s09_0_oven_00_oven6-airplane3.png
subject-09,1,312,0.691776037216187,cat,cat,0,0312_scg_s09_0_cat_00_cat1-car2.png
subject-09,1,313,0.857707977294922,knife,knife,0,0313_scg_s09_0_knife_00_knife5-dog1.png
subject-09,1,314,0.740774154663086,truck,truck,0,0314_scg_s09_0_truck_00_truck10-truck3.png
subject-09,1,315,NaN,na,knife,0,0315_scg_s09_0_knife_00_knife4-car2.png
subject-09,1,316,1.06554889678955,bicycle,bicycle,0,0316_scg_s09_0_bicycle_00_bicycle2-dog1.png
subject-09,1,317,0.963449001312256,dog,dog,0,0317_scg_s09_0_dog_00_dog3-dog1.png
subject-09,1,318,0.794244050979614,cat,cat,0,0318_scg_s09_0_cat_00_cat1-oven1.png
subject-09,1,319,0.699548006057739,bear,elephant,0,0319_scg_s09_0_elephant_00_elephant10-knife3.png
subject-09,1,320,0.81351900100708,bicycle,bicycle,0,0320_scg_s09_0_bicycle_00_bicycle8-truck1.png
subject-09,1,321,0.852070093154907,bird,bird,0,0321_scg_s09_0_bird_00_bird5-bicycle1.png
subject-09,1,322,0.795289039611816,airplane,dog,0,0322_scg_s09_0_dog_00_dog2-knife3.png
subject-09,1,323,NaN,na,truck,0,0323_scg_s09_0_truck_00_truck5-knife3.png
subject-09,1,324,0.690461874008179,cat,cat,0,0324_scg_s09_0_cat_00_cat7-bottle1.png
subject-09,1,325,0.712509870529175,bird,bird,0,0325_scg_s09_0_bird_00_bird8-knife2.png
subject-09,1,326,0.717477798461914,bird,bird,0,0326_scg_s09_0_bird_00_bird6-elephant2.png
subject-09,1,327,0.706713914871216,oven,oven,0,0327_scg_s09_0_oven_00_oven3-elephant3.png
subject-09,1,328,1.26438093185425,elephant,elephant,0,0328_scg_s09_0_elephant_00_elephant2-boat1.png
subject-09,1,329,0.630614042282104,clock,clock,0,0329_scg_s09_0_clock_00_clock6-truck3.png
subject-09,1,330,0.552562952041626,clock,clock,0,0330_scg_s09_0_clock_00_clock8-chair2.png
subject-09,1,331,1.03998017311096,oven,keyboard,0,0331_scg_s09_0_keyboard_00_keyboard7-bear2.png
subject-09,1,332,0.745657920837402,truck,truck,0,0332_scg_s09_0_truck_00_truck3-bird2.png
subject-09,1,333,0.713716983795166,bottle,bottle,0,0333_scg_s09_0_bottle_00_bottle8-keyboard3.png
subject-09,1,334,0.743221998214722,clock,dog,0,0334_scg_s09_0_dog_00_dog1-boat3.png
subject-09,1,335,0.63252592086792,elephant,elephant,0,0335_scg_s09_0_elephant_00_elephant2-bottle3.png
subject-09,1,336,0.630152940750122,truck,truck,0,0336_scg_s09_0_truck_00_truck5-truck1.png
subject-09,1,337,0.719773054122925,dog,dog,0,0337_scg_s09_0_dog_00_dog1-bird1.png
subject-09,1,338,0.939102172851562,elephant,bear,0,0338_scg_s09_0_bear_00_bear7-truck1.png
subject-09,1,339,0.798692941665649,bear,bear,0,0339_scg_s09_0_bear_00_bear2-cat2.png
subject-09,1,340,0.687088012695312,bottle,bottle,0,0340_scg_s09_0_bottle_00_bottle6-bottle3.png
subject-09,1,341,0.84656810760498,car,car,0,0341_scg_s09_0_car_00_car3-bottle3.png
subject-09,1,342,0.728052139282227,bear,bear,0,0342_scg_s09_0_bear_00_bear8-truck3.png
subject-09,1,343,0.809662818908691,chair,chair,0,0343_scg_s09_0_chair_00_chair5-boat3.png
subject-09,1,344,0.668805122375488,clock,clock,0,0344_scg_s09_0_clock_00_clock8-keyboard1.png
subject-09,1,345,0.590698003768921,boat,boat,0,0345_scg_s09_0_boat_00_boat10-oven1.png
subject-09,1,346,0.742286920547485,keyboard,keyboard,0,0346_scg_s09_0_keyboard_00_keyboard1-elephant3.png
subject-09,1,347,0.601982831954956,cat,dog,0,0347_scg_s09_0_dog_00_dog6-elephant2.png
subject-09,1,348,0.737956047058105,bear,bear,0,0348_scg_s09_0_bear_00_bear5-bicycle3.png
subject-09,1,349,0.597055196762085,boat,boat,0,0349_scg_s09_0_boat_00_boat4-chair2.png
subject-09,1,350,0.802956104278564,truck,truck,0,0350_scg_s09_0_truck_00_truck1-bicycle3.png
subject-09,1,351,0.992702007293701,elephant,elephant,0,0351_scg_s09_0_elephant_00_elephant8-cat1.png
subject-09,1,352,0.674076080322266,bicycle,bicycle,0,0352_scg_s09_0_bicycle_00_bicycle1-boat3.png
subject-09,1,353,0.796417951583862,airplane,airplane,0,0353_scg_s09_0_airplane_00_airplane9-airplane2.png
subject-09,1,354,0.588152885437012,car,car,0,0354_scg_s09_0_car_00_car6-bear1.png
subject-09,1,355,0.532874822616577,clock,clock,0,0355_scg_s09_0_clock_00_clock9-bird2.png
subject-09,1,356,0.676052093505859,airplane,boat,0,0356_scg_s09_0_boat_00_boat4-bird1.png
subject-09,1,357,0.981485843658447,car,car,0,0357_scg_s09_0_car_00_car1-clock2.png
subject-09,1,358,1.19323182106018,bear,bear,0,0358_scg_s09_0_bear_00_bear8-elephant2.png
subject-09,1,359,0.885142087936401,bicycle,bicycle,0,0359_scg_s09_0_bicycle_00_bicycle6-bicycle3.png
subject-09,1,360,0.63683295249939,boat,boat,0,0360_scg_s09_0_boat_00_boat2-oven3.png
subject-09,1,361,0.588313102722168,boat,boat,0,0361_scg_s09_0_boat_00_boat5-clock3.png
subject-09,1,362,0.770007848739624,truck,truck,0,0362_scg_s09_0_truck_00_truck10-bicycle1.png
subject-09,1,363,0.791808843612671,knife,keyboard,0,0363_scg_s09_0_keyboard_00_keyboard6-dog2.png
subject-09,1,364,1.00547194480896,truck,car,0,0364_scg_s09_0_car_00_car5-knife2.png
subject-09,1,365,0.957703828811646,boat,boat,0,0365_scg_s09_0_boat_00_boat2-keyboard1.png
subject-09,1,366,0.671381950378418,cat,cat,0,0366_scg_s09_0_cat_00_cat4-clock2.png
subject-09,1,367,0.709343910217285,keyboard,keyboard,0,0367_scg_s09_0_keyboard_00_keyboard8-oven1.png
subject-09,1,368,0.621234178543091,bottle,bottle,0,0368_scg_s09_0_bottle_00_bottle2-bottle3.png
subject-09,1,369,0.612422943115234,boat,knife,0,0369_scg_s09_0_knife_00_knife7-airplane3.png
subject-09,1,370,0.786773920059204,dog,dog,0,0370_scg_s09_0_dog_00_dog10-dog1.png
subject-09,1,371,0.96290111541748,car,car,0,0371_scg_s09_0_car_00_car3-truck1.png
subject-09,1,372,0.726351022720337,bird,bird,0,0372_scg_s09_0_bird_00_bird8-chair1.png
subject-09,1,373,0.732268095016479,bear,bear,0,0373_scg_s09_0_bear_00_bear7-bear2.png
subject-09,1,374,0.797523975372314,truck,truck,0,0374_scg_s09_0_truck_00_truck9-bottle2.png
subject-09,1,375,0.773200988769531,chair,chair,0,0375_scg_s09_0_chair_00_chair5-clock2.png
subject-09,1,376,1.50021290779114,elephant,elephant,0,0376_scg_s09_0_elephant_00_elephant5-bear2.png
subject-09,1,377,0.814434051513672,airplane,airplane,0,0377_scg_s09_0_airplane_00_airplane7-clock3.png
subject-09,1,378,0.674392938613892,boat,cat,0,0378_scg_s09_0_cat_00_cat5-chair3.png
subject-09,1,379,0.710434913635254,elephant,elephant,0,0379_scg_s09_0_elephant_00_elephant8-truck3.png
subject-09,1,380,0.924683094024658,chair,chair,0,0380_scg_s09_0_chair_00_chair1-elephant1.png
subject-09,1,381,0.838483095169067,chair,chair,0,0381_scg_s09_0_chair_00_chair5-car1.png
subject-09,1,382,0.797868013381958,truck,truck,0,0382_scg_s09_0_truck_00_truck2-chair1.png
subject-09,1,383,0.632591962814331,chair,knife,0,0383_scg_s09_0_knife_00_knife10-chair1.png
subject-09,1,384,0.836411952972412,bottle,bottle,0,0384_scg_s09_0_bottle_00_bottle3-chair3.png
subject-09,1,385,0.942456960678101,bottle,bottle,0,0385_scg_s09_0_bottle_00_bottle8-bicycle1.png
subject-09,1,386,0.864613056182861,keyboard,keyboard,0,0386_scg_s09_0_keyboard_00_keyboard4-oven2.png
subject-09,1,387,0.661770105361938,bottle,bottle,0,0387_scg_s09_0_bottle_00_bottle3-knife3.png
subject-09,1,388,0.837828874588013,dog,dog,0,0388_scg_s09_0_dog_00_dog8-bottle2.png
subject-09,1,389,0.581449031829834,bicycle,bicycle,0,0389_scg_s09_0_bicycle_00_bicycle9-car1.png
subject-09,1,390,1.02540183067322,car,car,0,0390_scg_s09_0_car_00_car7-bird3.png
subject-09,1,391,0.62261700630188,airplane,airplane,0,0391_scg_s09_0_airplane_00_airplane9-clock1.png
subject-09,1,392,0.740728139877319,car,car,0,0392_scg_s09_0_car_00_car9-knife1.png
subject-09,1,393,0.630995035171509,chair,chair,0,0393_scg_s09_0_chair_00_chair1-oven3.png
subject-09,1,394,1.12042880058289,elephant,bird,0,0394_scg_s09_0_bird_00_bird10-chair1.png
subject-09,1,395,0.501743793487549,clock,clock,0,0395_scg_s09_0_clock_00_clock5-bicycle1.png
subject-09,1,396,0.785218000411987,bear,bear,0,0396_scg_s09_0_bear_00_bear2-dog1.png
subject-09,1,397,0.775928974151611,bird,bird,0,0397_scg_s09_0_bird_00_bird10-bicycle1.png
subject-09,1,398,0.652200937271118,cat,dog,0,0398_scg_s09_0_dog_00_dog9-bottle1.png
subject-09,1,399,0.603833913803101,chair,chair,0,0399_scg_s09_0_chair_00_chair4-bear2.png
subject-09,1,400,0.596328973770142,bicycle,bicycle,0,0400_scg_s09_0_bicycle_00_bicycle1-oven1.png
subject-09,1,401,0.883486986160278,keyboard,keyboard,0,0401_scg_s09_0_keyboard_00_keyboard3-boat1.png
subject-09,1,402,0.697328805923462,car,truck,0,0402_scg_s09_0_truck_00_truck6-bottle3.png
subject-09,1,403,0.647481918334961,airplane,boat,0,0403_scg_s09_0_boat_00_boat8-knife1.png
subject-09,1,404,0.575416803359985,bear,bear,0,0404_scg_s09_0_bear_00_bear8-dog1.png
subject-09,1,405,0.5140061378479,car,car,0,0405_scg_s09_0_car_00_car8-airplane3.png
subject-09,1,406,0.579854965209961,cat,cat,0,0406_scg_s09_0_cat_00_cat5-bottle1.png
subject-09,1,407,0.66295599937439,elephant,elephant,0,0407_scg_s09_0_elephant_00_elephant3-cat2.png
subject-09,1,408,0.815460920333862,keyboard,keyboard,0,0408_scg_s09_0_keyboard_00_keyboard5-keyboard1.png
subject-09,1,409,0.597168922424316,clock,clock,0,0409_scg_s09_0_clock_00_clock7-bicycle1.png
subject-09,1,410,0.664731025695801,bird,bottle,0,0410_scg_s09_0_bottle_00_bottle7-keyboard2.png
subject-09,1,411,0.654090881347656,clock,airplane,0,0411_scg_s09_0_airplane_00_airplane3-oven1.png
subject-09,1,412,0.655323028564453,airplane,airplane,0,0412_scg_s09_0_airplane_00_airplane6-knife1.png
subject-09,1,413,0.961697816848755,truck,truck,0,0413_scg_s09_0_truck_00_truck2-bird2.png
subject-09,1,414,0.958717823028564,airplane,airplane,0,0414_scg_s09_0_airplane_00_airplane2-dog1.png
subject-09,1,415,1.01649188995361,bear,bear,0,0415_scg_s09_0_bear_00_bear4-cat3.png
subject-09,1,416,0.667850017547607,dog,dog,0,0416_scg_s09_0_dog_00_dog3-knife3.png
subject-09,1,417,0.94368314743042,bottle,bear,0,0417_scg_s09_0_bear_00_bear6-bottle3.png
subject-09,1,418,0.94127893447876,cat,dog,0,0418_scg_s09_0_dog_00_dog9-bicycle3.png
subject-09,1,419,0.9234619140625,bicycle,bicycle,0,0419_scg_s09_0_bicycle_00_bicycle1-knife3.png
subject-09,1,420,0.731633901596069,bear,bear,0,0420_scg_s09_0_bear_00_bear2-airplane1.png
subject-09,1,421,1.10632300376892,bottle,bottle,0,0421_scg_s09_0_bottle_00_bottle6-bicycle3.png
subject-09,1,422,1.50035190582275,airplane,airplane,0,0422_scg_s09_0_airplane_00_airplane7-keyboard1.png
subject-09,1,423,1.50024104118347,airplane,airplane,0,0423_scg_s09_0_airplane_00_airplane1-elephant1.png
subject-09,1,424,0.571249008178711,bicycle,bicycle,0,0424_scg_s09_0_bicycle_00_bicycle4-car2.png
subject-09,1,425,1.37981200218201,knife,airplane,0,0425_scg_s09_0_airplane_00_airplane3-dog1.png
subject-09,1,426,0.955459833145142,clock,clock,0,0426_scg_s09_0_clock_00_clock5-keyboard1.png
subject-09,1,427,0.630932092666626,chair,chair,0,0427_scg_s09_0_chair_00_chair8-car1.png
subject-09,1,428,0.650928974151611,bird,bird,0,0428_scg_s09_0_bird_00_bird1-knife3.png
subject-09,1,429,0.88093900680542,truck,truck,0,0429_scg_s09_0_truck_00_truck6-knife2.png
subject-09,1,430,0.933554887771606,bird,bird,0,0430_scg_s09_0_bird_00_bird9-bicycle3.png
subject-09,1,431,0.687680959701538,bicycle,bicycle,0,0431_scg_s09_0_bicycle_00_bicycle8-bear2.png
subject-09,1,432,0.752832889556885,airplane,boat,0,0432_scg_s09_0_boat_00_boat8-dog3.png
subject-09,1,433,0.71977686882019,car,car,0,0433_scg_s09_0_car_00_car10-keyboard2.png
subject-09,1,434,0.748162031173706,airplane,bear,0,0434_scg_s09_0_bear_00_bear6-car2.png
subject-09,1,435,1.50046300888062,truck,truck,0,0435_scg_s09_0_truck_00_truck7-chair2.png
subject-09,1,436,0.937932014465332,bird,knife,0,0436_scg_s09_0_knife_00_knife7-bird3.png
subject-09,1,437,0.765471935272217,car,car,0,0437_scg_s09_0_car_00_car1-keyboard2.png
subject-09,1,438,0.771476030349731,cat,dog,0,0438_scg_s09_0_dog_00_dog9-cat1.png
subject-09,1,439,0.900759220123291,bird,airplane,0,0439_scg_s09_0_airplane_00_airplane3-clock1.png
subject-09,1,440,0.582365989685059,keyboard,keyboard,0,0440_scg_s09_0_keyboard_00_keyboard7-clock3.png
subject-09,1,441,0.726205110549927,keyboard,keyboard,0,0441_scg_s09_0_keyboard_00_keyboard1-airplane2.png
subject-09,1,442,0.647564888000488,bird,bird,0,0442_scg_s09_0_bird_00_bird2-car3.png
subject-09,1,443,0.608256101608276,keyboard,keyboard,0,0443_scg_s09_0_keyboard_00_keyboard2-clock1.png
subject-09,1,444,0.550713062286377,cat,chair,0,0444_scg_s09_0_chair_00_chair8-keyboard3.png
subject-09,1,445,0.587344169616699,clock,clock,0,0445_scg_s09_0_clock_00_clock2-knife1.png
subject-09,1,446,0.72265100479126,car,bicycle,0,0446_scg_s09_0_bicycle_00_bicycle5-keyboard3.png
subject-09,1,447,0.79784893989563,boat,boat,0,0447_scg_s09_0_boat_00_boat3-chair3.png
subject-09,1,448,0.617708921432495,car,car,0,0448_scg_s09_0_car_00_car9-clock2.png
subject-09,1,449,0.722984075546265,knife,knife,0,0449_scg_s09_0_knife_00_knife5-truck3.png
subject-09,1,450,0.698873996734619,clock,clock,0,0450_scg_s09_0_clock_00_clock4-airplane1.png
subject-09,1,451,1.09701204299927,bottle,bottle,0,0451_scg_s09_0_bottle_00_bottle7-clock1.png
subject-09,1,452,0.783562183380127,chair,chair,0,0452_scg_s09_0_chair_00_chair9-chair3.png
subject-09,1,453,0.721331119537354,clock,keyboard,0,0453_scg_s09_0_keyboard_00_keyboard1-dog3.png
subject-09,1,454,0.48139500617981,boat,boat,0,0454_scg_s09_0_boat_00_boat5-car3.png
subject-09,1,455,0.646110057830811,car,car,0,0455_scg_s09_0_car_00_car10-dog1.png
subject-09,1,456,0.643455028533936,clock,clock,0,0456_scg_s09_0_clock_00_clock4-bottle3.png
subject-09,1,457,0.743447065353394,bicycle,bicycle,0,0457_scg_s09_0_bicycle_00_bicycle7-elephant2.png
subject-09,1,458,0.724777936935425,boat,cat,0,0458_scg_s09_0_cat_00_cat5-knife2.png
subject-09,1,459,0.568781852722168,keyboard,keyboard,0,0459_scg_s09_0_keyboard_00_keyboard9-cat1.png
subject-09,1,460,0.633625984191895,oven,oven,0,0460_scg_s09_0_oven_00_oven4-knife2.png
subject-09,1,461,0.631351947784424,car,bear,0,0461_scg_s09_0_bear_00_bear10-oven1.png
subject-09,1,462,0.62303900718689,keyboard,keyboard,0,0462_scg_s09_0_keyboard_00_keyboard5-dog3.png
subject-09,1,463,NaN,na,knife,0,0463_scg_s09_0_knife_00_knife2-bird1.png
subject-09,1,464,0.870014905929565,car,car,0,0464_scg_s09_0_car_00_car6-truck3.png
subject-09,1,465,0.631547927856445,car,car,0,0465_scg_s09_0_car_00_car9-bicycle2.png
subject-09,1,466,0.604358911514282,keyboard,keyboard,0,0466_scg_s09_0_keyboard_00_keyboard4-bottle2.png
subject-09,1,467,0.616533041000366,bottle,bottle,0,0467_scg_s09_0_bottle_00_bottle5-boat1.png
subject-09,1,468,0.746487140655518,bottle,bottle,0,0468_scg_s09_0_bottle_00_bottle5-elephant1.png
subject-09,1,469,0.714622020721436,keyboard,keyboard,0,0469_scg_s09_0_keyboard_00_keyboard7-car3.png
subject-09,1,470,1.13417601585388,bear,cat,0,0470_scg_s09_0_cat_00_cat3-elephant2.png
subject-09,1,471,NaN,na,bird,0,0471_scg_s09_0_bird_00_bird7-bird2.png
subject-09,1,472,0.765986919403076,car,car,0,0472_scg_s09_0_car_00_car4-oven2.png
subject-09,1,473,0.939475059509277,bird,boat,0,0473_scg_s09_0_boat_00_boat6-knife2.png
subject-09,1,474,0.860468149185181,bear,elephant,0,0474_scg_s09_0_elephant_00_elephant6-knife2.png
subject-09,1,475,0.804296970367432,bear,bear,0,0475_scg_s09_0_bear_00_bear4-car3.png
subject-09,1,476,1.00992918014526,knife,knife,0,0476_scg_s09_0_knife_00_knife1-truck2.png
subject-09,1,477,1.04282116889954,knife,bottle,0,0477_scg_s09_0_bottle_00_bottle1-cat3.png
subject-09,1,478,1.50048494338989,dog,cat,0,0478_scg_s09_0_cat_00_cat7-airplane2.png
subject-09,1,479,0.878793954849243,elephant,elephant,0,0479_scg_s09_0_elephant_00_elephant1-airplane2.png
subject-09,1,480,1.5002121925354,bear,knife,0,0480_scg_s09_0_knife_00_knife7-chair2.png
subject-09,1,481,0.556777954101562,chair,chair,0,0481_scg_s09_0_chair_00_chair7-truck3.png
subject-09,1,482,0.516471862792969,boat,boat,0,0482_scg_s09_0_boat_00_boat5-boat3.png
subject-09,1,483,0.735751152038574,airplane,airplane,0,0483_scg_s09_0_airplane_00_airplane9-car2.png
subject-09,1,484,1.50037598609924,clock,airplane,0,0484_scg_s09_0_airplane_00_airplane4-dog2.png
subject-09,1,485,1.19054293632507,elephant,bear,0,0485_scg_s09_0_bear_00_bear10-truck1.png
subject-09,1,486,0.980262041091919,truck,truck,0,0486_scg_s09_0_truck_00_truck1-dog1.png
subject-09,1,487,0.780189990997314,cat,airplane,0,0487_scg_s09_0_airplane_00_airplane8-truck3.png
subject-09,1,488,0.954300880432129,dog,dog,0,0488_scg_s09_0_dog_00_dog10-bicycle1.png
subject-09,1,489,0.889421224594116,cat,dog,0,0489_scg_s09_0_dog_00_dog1-chair1.png
subject-09,1,490,0.9249107837677,chair,chair,0,0490_scg_s09_0_chair_00_chair5-oven2.png
subject-09,1,491,0.846992015838623,car,car,0,0491_scg_s09_0_car_00_car8-boat3.png
subject-09,1,492,0.606168031692505,bottle,bottle,0,0492_scg_s09_0_bottle_00_bottle4-dog2.png
subject-09,1,493,0.649351835250854,cat,cat,0,0493_scg_s09_0_cat_00_cat9-clock2.png
subject-09,1,494,0.923632144927979,bear,elephant,0,0494_scg_s09_0_elephant_00_elephant6-cat2.png
subject-09,1,495,0.945459127426147,knife,knife,0,0495_scg_s09_0_knife_00_knife8-bottle3.png
subject-09,1,496,1.46497392654419,airplane,airplane,0,0496_scg_s09_0_airplane_00_airplane7-airplane3.png
subject-09,1,497,0.702916860580444,chair,chair,0,0497_scg_s09_0_chair_00_chair2-keyboard2.png
subject-09,1,498,0.998794078826904,cat,bottle,0,0498_scg_s09_0_bottle_00_bottle7-boat3.png
subject-09,1,499,0.658237934112549,cat,dog,0,0499_scg_s09_0_dog_00_dog4-chair1.png
subject-09,1,500,0.603888034820557,keyboard,keyboard,0,0500_scg_s09_0_keyboard_00_keyboard3-car2.png
subject-09,1,501,0.92871618270874,dog,dog,0,0501_scg_s09_0_dog_00_dog1-bear1.png
subject-09,1,502,0.587617874145508,boat,boat,0,0502_scg_s09_0_boat_00_boat7-oven3.png
subject-09,1,503,0.708034992218018,dog,dog,0,0503_scg_s09_0_dog_00_dog8-dog3.png
subject-09,1,504,0.894258975982666,bicycle,bicycle,0,0504_scg_s09_0_bicycle_00_bicycle1-clock3.png
subject-09,1,505,0.854136943817139,keyboard,car,0,0505_scg_s09_0_car_00_car4-bottle1.png
subject-09,1,506,0.699967861175537,boat,boat,0,0506_scg_s09_0_boat_00_boat2-bird1.png
subject-09,1,507,0.630469083786011,boat,boat,0,0507_scg_s09_0_boat_00_boat4-car3.png
subject-09,1,508,0.741932153701782,cat,cat,0,0508_scg_s09_0_cat_00_cat3-oven2.png
subject-09,1,509,0.563911199569702,chair,chair,0,0509_scg_s09_0_chair_00_chair8-bicycle3.png
subject-09,1,510,0.724084138870239,bird,bird,0,0510_scg_s09_0_bird_00_bird1-boat1.png
subject-09,1,511,0.506165981292725,oven,oven,0,0511_scg_s09_0_oven_00_oven4-car1.png
subject-09,1,512,0.549572944641113,clock,clock,0,0512_scg_s09_0_clock_00_clock2-bear2.png
subject-09,1,513,0.689716100692749,bottle,bottle,0,0513_scg_s09_0_bottle_00_bottle1-bird3.png
subject-09,1,514,0.873479843139648,truck,truck,0,0514_scg_s09_0_truck_00_truck2-bottle3.png
subject-09,1,515,0.65563702583313,bird,bird,0,0515_scg_s09_0_bird_00_bird4-clock1.png
subject-09,1,516,0.807410001754761,cat,cat,0,0516_scg_s09_0_cat_00_cat2-elephant1.png
subject-09,1,517,0.729414224624634,airplane,airplane,0,0517_scg_s09_0_airplane_00_airplane8-clock2.png
subject-09,1,518,1.31161308288574,clock,oven,0,0518_scg_s09_0_oven_00_oven3-cat2.png
subject-09,1,519,0.573296070098877,bottle,bottle,0,0519_scg_s09_0_bottle_00_bottle6-airplane1.png
subject-09,1,520,0.701429128646851,airplane,knife,0,0520_scg_s09_0_knife_00_knife9-boat1.png
subject-09,1,521,0.768931865692139,chair,chair,0,0521_scg_s09_0_chair_00_chair9-bear1.png
subject-09,1,522,0.851161003112793,bottle,bottle,0,0522_scg_s09_0_bottle_00_bottle10-clock2.png
subject-09,1,523,0.664833068847656,bicycle,bicycle,0,0523_scg_s09_0_bicycle_00_bicycle9-bird3.png
subject-09,1,524,0.85141396522522,bird,bird,0,0524_scg_s09_0_bird_00_bird8-elephant1.png
subject-09,1,525,0.603254079818726,chair,chair,0,0525_scg_s09_0_chair_00_chair7-bird1.png
subject-09,1,526,0.587324857711792,cat,dog,0,0526_scg_s09_0_dog_00_dog9-car1.png
subject-09,1,527,0.773017168045044,airplane,dog,0,0527_scg_s09_0_dog_00_dog2-bicycle2.png
subject-09,1,528,0.856851816177368,keyboard,keyboard,0,0528_scg_s09_0_keyboard_00_keyboard6-boat2.png
subject-09,1,529,0.884371995925903,airplane,airplane,0,0529_scg_s09_0_airplane_00_airplane10-cat2.png
subject-09,1,530,0.767868995666504,dog,dog,0,0530_scg_s09_0_dog_00_dog5-oven1.png
subject-09,1,531,0.755843162536621,dog,elephant,0,0531_scg_s09_0_elephant_00_elephant4-bird1.png
subject-09,1,532,0.839915037155151,boat,boat,0,0532_scg_s09_0_boat_00_boat9-chair2.png
subject-09,1,533,0.953390121459961,knife,truck,0,0533_scg_s09_0_truck_00_truck3-bear3.png
subject-09,1,534,0.597301006317139,clock,clock,0,0534_scg_s09_0_clock_00_clock2-bottle3.png
subject-09,1,535,0.719290018081665,bird,bird,0,0535_scg_s09_0_bird_00_bird6-truck2.png
subject-09,1,536,0.754680156707764,cat,keyboard,0,0536_scg_s09_0_keyboard_00_keyboard4-keyboard2.png
subject-09,1,537,0.50628399848938,clock,clock,0,0537_scg_s09_0_clock_00_clock3-cat1.png
subject-09,1,538,0.974206924438477,chair,chair,0,0538_scg_s09_0_chair_00_chair7-clock3.png
subject-09,1,539,0.554840087890625,cat,cat,0,0539_scg_s09_0_cat_00_cat4-truck3.png
subject-09,1,540,0.950425148010254,chair,chair,0,0540_scg_s09_0_chair_00_chair8-chair3.png
subject-09,1,541,0.864318132400513,oven,bear,0,0541_scg_s09_0_bear_00_bear2-keyboard2.png
subject-09,1,542,0.816314935684204,bicycle,boat,0,0542_scg_s09_0_boat_00_boat7-bottle1.png
subject-09,1,543,0.638498067855835,clock,clock,0,0543_scg_s09_0_clock_00_clock3-keyboard3.png
subject-09,1,544,0.560379981994629,clock,clock,0,0544_scg_s09_0_clock_00_clock8-oven3.png
subject-09,1,545,0.863194942474365,keyboard,keyboard,0,0545_scg_s09_0_keyboard_00_keyboard2-bicycle3.png
subject-09,1,546,0.776921987533569,oven,bird,0,0546_scg_s09_0_bird_00_bird7-truck2.png
subject-09,1,547,0.904229879379272,cat,cat,0,0547_scg_s09_0_cat_00_cat7-knife2.png
subject-09,1,548,0.90189003944397,oven,oven,0,0548_scg_s09_0_oven_00_oven5-bird1.png
subject-09,1,549,0.991516828536987,keyboard,bear,0,0549_scg_s09_0_bear_00_bear6-clock1.png
subject-09,1,550,0.867583036422729,truck,truck,0,0550_scg_s09_0_truck_00_truck7-bird2.png
subject-09,1,551,0.749354839324951,bottle,bottle,0,0551_scg_s09_0_bottle_00_bottle10-truck3.png
subject-09,1,552,0.786711931228638,oven,chair,0,0552_scg_s09_0_chair_00_chair4-keyboard2.png
subject-09,1,553,0.714248895645142,chair,chair,0,0553_scg_s09_0_chair_00_chair10-car2.png
subject-09,1,554,0.936385869979858,airplane,boat,0,0554_scg_s09_0_boat_00_boat3-cat3.png
subject-09,1,555,0.718212842941284,bear,bear,0,0555_scg_s09_0_bear_00_bear4-oven2.png
subject-09,1,556,0.745964050292969,dog,dog,0,0556_scg_s09_0_dog_00_dog4-elephant2.png
subject-09,1,557,0.622145891189575,boat,boat,0,0557_scg_s09_0_boat_00_boat9-bird1.png
subject-09,1,558,0.773578882217407,bear,bear,0,0558_scg_s09_0_bear_00_bear2-elephant1.png
subject-09,1,559,0.658014059066772,keyboard,oven,0,0559_scg_s09_0_oven_00_oven2-bicycle1.png
subject-09,1,560,1.42342495918274,knife,knife,0,0560_scg_s09_0_knife_00_knife6-bottle3.png
subject-09,1,561,0.966684103012085,knife,knife,0,0561_scg_s09_0_knife_00_knife6-truck1.png
subject-09,1,562,0.718636989593506,elephant,elephant,0,0562_scg_s09_0_elephant_00_elephant3-knife1.png
subject-09,1,563,0.853325128555298,cat,cat,0,0563_scg_s09_0_cat_00_cat10-airplane3.png
subject-09,1,564,0.680922985076904,bicycle,bicycle,0,0564_scg_s09_0_bicycle_00_bicycle3-oven3.png
subject-09,1,565,0.740338087081909,car,car,0,0565_scg_s09_0_car_00_car10-car1.png
subject-09,1,566,0.500851154327393,clock,clock,0,0566_scg_s09_0_clock_00_clock4-knife1.png
subject-09,1,567,0.544202089309692,chair,chair,0,0567_scg_s09_0_chair_00_chair3-knife1.png
subject-09,1,568,0.664211988449097,truck,truck,0,0568_scg_s09_0_truck_00_truck2-boat3.png
subject-09,1,569,0.623450994491577,keyboard,keyboard,0,0569_scg_s09_0_keyboard_00_keyboard7-oven2.png
subject-09,1,570,1.09716200828552,boat,bottle,0,0570_scg_s09_0_bottle_00_bottle7-elephant2.png
subject-09,1,571,0.756734848022461,airplane,airplane,0,0571_scg_s09_0_airplane_00_airplane6-bottle2.png
subject-09,1,572,1.02215099334717,knife,knife,0,0572_scg_s09_0_knife_00_knife8-truck3.png
subject-09,1,573,1.01210403442383,bicycle,bicycle,0,0573_scg_s09_0_bicycle_00_bicycle1-airplane2.png
subject-09,1,574,0.871741056442261,clock,clock,0,0574_scg_s09_0_clock_00_clock6-oven1.png
subject-09,1,575,0.555546998977661,car,car,0,0575_scg_s09_0_car_00_car4-boat1.png
subject-09,1,576,0.629321098327637,bicycle,bicycle,0,0576_scg_s09_0_bicycle_00_bicycle7-oven1.png
subject-09,1,577,0.789320945739746,airplane,airplane,0,0577_scg_s09_0_airplane_00_airplane4-truck2.png
subject-09,1,578,0.594709873199463,boat,cat,0,0578_scg_s09_0_cat_00_cat9-bicycle1.png
subject-09,1,579,0.554387092590332,boat,boat,0,0579_scg_s09_0_boat_00_boat6-car1.png
subject-09,1,580,0.706295013427734,airplane,airplane,0,0580_scg_s09_0_airplane_00_airplane7-bird3.png
subject-09,1,581,0.866343975067139,car,car,0,0581_scg_s09_0_car_00_car6-elephant3.png
subject-09,1,582,0.810197114944458,dog,dog,0,0582_scg_s09_0_dog_00_dog1-cat3.png
subject-09,1,583,0.700407028198242,bicycle,bicycle,0,0583_scg_s09_0_bicycle_00_bicycle9-cat3.png
subject-09,1,584,0.676515102386475,oven,oven,0,0584_scg_s09_0_oven_00_oven3-truck1.png
subject-09,1,585,0.698258876800537,oven,keyboard,0,0585_scg_s09_0_keyboard_00_keyboard8-truck3.png
subject-09,1,586,0.801906108856201,bird,elephant,0,0586_scg_s09_0_elephant_00_elephant10-bear1.png
subject-09,1,587,1.01131391525269,chair,chair,0,0587_scg_s09_0_chair_00_chair9-bird3.png
subject-09,1,588,0.709357023239136,knife,knife,0,0588_scg_s09_0_knife_00_knife3-knife1.png
subject-09,1,589,0.839871168136597,car,car,0,0589_scg_s09_0_car_00_car7-bear1.png
subject-09,1,590,0.775354862213135,clock,clock,0,0590_scg_s09_0_clock_00_clock1-clock2.png
subject-09,1,591,0.697639942169189,elephant,elephant,0,0591_scg_s09_0_elephant_00_elephant8-oven3.png
subject-09,1,592,0.665827035903931,boat,boat,0,0592_scg_s09_0_boat_00_boat9-keyboard2.png
subject-09,1,593,0.805516004562378,keyboard,cat,0,0593_scg_s09_0_cat_00_cat10-oven2.png
subject-09,1,594,0.702973127365112,bird,bird,0,0594_scg_s09_0_bird_00_bird2-clock3.png
subject-09,1,595,1.36052393913269,car,car,0,0595_scg_s09_0_car_00_car5-oven2.png
subject-09,1,596,0.559911966323853,oven,oven,0,0596_scg_s09_0_oven_00_oven9-oven1.png
subject-09,1,597,0.596091032028198,bird,bear,0,0597_scg_s09_0_bear_00_bear10-knife2.png
subject-09,1,598,0.567975044250488,car,car,0,0598_scg_s09_0_car_00_car4-bear3.png
subject-09,1,599,0.579644918441772,cat,cat,0,0599_scg_s09_0_cat_00_cat5-bear2.png
subject-09,1,600,0.79390811920166,cat,bird,0,0600_scg_s09_0_bird_00_bird3-knife3.png
subject-09,1,601,1.00524187088013,car,car,0,0601_scg_s09_0_car_00_car6-knife1.png
subject-09,1,602,0.743389844894409,keyboard,keyboard,0,0602_scg_s09_0_keyboard_00_keyboard6-chair1.png
subject-09,1,603,0.884239912033081,knife,knife,0,0603_scg_s09_0_knife_00_knife6-airplane1.png
subject-09,1,604,0.851753950119019,car,car,0,0604_scg_s09_0_car_00_car2-cat3.png
subject-09,1,605,0.541124820709229,keyboard,keyboard,0,0605_scg_s09_0_keyboard_00_keyboard5-bicycle1.png
subject-09,1,606,0.538570880889893,clock,clock,0,0606_scg_s09_0_clock_00_clock7-keyboard2.png
subject-09,1,607,1.08116984367371,knife,knife,0,0607_scg_s09_0_knife_00_knife2-car3.png
subject-09,1,608,0.617732048034668,dog,dog,0,0608_scg_s09_0_dog_00_dog2-cat1.png
subject-09,1,609,0.685334920883179,car,car,0,0609_scg_s09_0_car_00_car6-chair3.png
subject-09,1,610,NaN,na,bicycle,0,0610_scg_s09_0_bicycle_00_bicycle10-airplane2.png
subject-09,1,611,0.740368843078613,bird,cat,0,0611_scg_s09_0_cat_00_cat4-keyboard2.png
subject-09,1,612,0.648441791534424,cat,cat,0,0612_scg_s09_0_cat_00_cat3-cat1.png
subject-09,1,613,0.483442783355713,cat,cat,0,0613_scg_s09_0_cat_00_cat4-bird2.png
subject-09,1,614,0.665286064147949,car,car,0,0614_scg_s09_0_car_00_car8-bicycle2.png
subject-09,1,615,0.763025999069214,airplane,airplane,0,0615_scg_s09_0_airplane_00_airplane8-oven2.png
subject-09,1,616,0.593447923660278,bear,bear,0,0616_scg_s09_0_bear_00_bear2-bird3.png
subject-09,1,617,0.7912437915802,clock,clock,0,0617_scg_s09_0_clock_00_clock6-car2.png
subject-09,1,618,1.25683498382568,airplane,bird,0,0618_scg_s09_0_bird_00_bird3-oven1.png
subject-09,1,619,1.23807811737061,car,truck,0,0619_scg_s09_0_truck_00_truck7-bear2.png
subject-09,1,620,1.37383413314819,truck,truck,0,0620_scg_s09_0_truck_00_truck10-clock1.png
subject-09,1,621,0.579583168029785,cat,cat,0,0621_scg_s09_0_cat_00_cat2-car3.png
subject-09,1,622,0.763518095016479,bear,elephant,0,0622_scg_s09_0_elephant_00_elephant5-bicycle3.png
subject-09,1,623,0.875025033950806,truck,truck,0,0623_scg_s09_0_truck_00_truck3-bicycle1.png
subject-09,1,624,0.672823190689087,cat,keyboard,0,0624_scg_s09_0_keyboard_00_keyboard3-elephant2.png
subject-09,1,625,0.723721027374268,bird,bird,0,0625_scg_s09_0_bird_00_bird10-elephant2.png
subject-09,1,626,0.891299962997437,airplane,knife,0,0626_scg_s09_0_knife_00_knife6-oven3.png
subject-09,1,627,0.65714693069458,cat,oven,0,0627_scg_s09_0_oven_00_oven6-elephant2.png
subject-09,1,628,0.67929482460022,bear,bear,0,0628_scg_s09_0_bear_00_bear10-cat2.png
subject-09,1,629,0.760610818862915,bottle,bottle,0,0629_scg_s09_0_bottle_00_bottle8-bottle3.png
subject-09,1,630,0.670542001724243,bicycle,bicycle,0,0630_scg_s09_0_bicycle_00_bicycle9-airplane2.png
subject-09,1,631,0.822033882141113,clock,boat,0,0631_scg_s09_0_boat_00_boat8-truck2.png
subject-09,1,632,0.703996181488037,bottle,bottle,0,0632_scg_s09_0_bottle_00_bottle6-dog3.png
subject-09,1,633,0.809612035751343,oven,keyboard,0,0633_scg_s09_0_keyboard_00_keyboard7-chair3.png
subject-09,1,634,0.677218914031982,oven,oven,0,0634_scg_s09_0_oven_00_oven7-bottle1.png
subject-09,1,635,0.537004947662354,clock,clock,0,0635_scg_s09_0_clock_00_clock7-truck3.png
subject-09,1,636,0.894508838653564,bird,bird,0,0636_scg_s09_0_bird_00_bird3-bird2.png
subject-09,1,637,0.616575956344604,chair,chair,0,0637_scg_s09_0_chair_00_chair7-bottle1.png
subject-09,1,638,0.822520971298218,car,car,0,0638_scg_s09_0_car_00_car9-truck3.png
subject-09,1,639,0.79604697227478,bottle,bottle,0,0639_scg_s09_0_bottle_00_bottle10-bear2.png
subject-09,1,640,0.931535005569458,dog,dog,0,0640_scg_s09_0_dog_00_dog10-car3.png
subject-09,1,641,0.845010042190552,chair,chair,0,0641_scg_s09_0_chair_00_chair10-bird3.png
subject-09,1,642,0.766806125640869,bird,cat,0,0642_scg_s09_0_cat_00_cat9-chair2.png
subject-09,1,643,0.810914039611816,keyboard,cat,0,0643_scg_s09_0_cat_00_cat10-bicycle1.png
subject-09,1,644,0.713036060333252,chair,chair,0,0644_scg_s09_0_chair_00_chair10-clock1.png
subject-09,1,645,0.694758892059326,keyboard,keyboard,0,0645_scg_s09_0_keyboard_00_keyboard9-bicycle2.png
subject-09,1,646,0.670088052749634,clock,clock,0,0646_scg_s09_0_clock_00_clock5-airplane1.png
subject-09,1,647,1.2273850440979,bird,bird,0,0647_scg_s09_0_bird_00_bird5-oven3.png
subject-09,1,648,0.81670093536377,truck,truck,0,0648_scg_s09_0_truck_00_truck6-oven3.png
subject-09,1,649,0.860949993133545,keyboard,boat,0,0649_scg_s09_0_boat_00_boat3-airplane2.png
subject-09,1,650,0.952814102172852,bird,boat,0,0650_scg_s09_0_boat_00_boat6-bear1.png
subject-09,1,651,1.01885414123535,bear,truck,0,0651_scg_s09_0_truck_00_truck10-airplane1.png
subject-09,1,652,0.682914972305298,bicycle,bicycle,0,0652_scg_s09_0_bicycle_00_bicycle7-bear2.png
subject-09,1,653,0.550660848617554,clock,clock,0,0653_scg_s09_0_clock_00_clock5-chair3.png
subject-09,1,654,0.778305053710938,car,car,0,0654_scg_s09_0_car_00_car8-dog1.png
subject-09,1,655,0.596386909484863,elephant,elephant,0,0655_scg_s09_0_elephant_00_elephant7-airplane3.png
subject-09,1,656,1.03267407417297,airplane,boat,0,0656_scg_s09_0_boat_00_boat7-clock3.png
subject-09,1,657,0.662081003189087,bird,bird,0,0657_scg_s09_0_bird_00_bird3-bear3.png
subject-09,1,658,0.643242835998535,bottle,bottle,0,0658_scg_s09_0_bottle_00_bottle3-bottle3.png
subject-09,1,659,0.640686988830566,bear,elephant,0,0659_scg_s09_0_elephant_00_elephant6-dog2.png
subject-09,1,660,0.659996032714844,cat,cat,0,0660_scg_s09_0_cat_00_cat5-bicycle3.png
subject-09,1,661,0.511648893356323,chair,chair,0,0661_scg_s09_0_chair_00_chair10-bicycle1.png
subject-09,1,662,0.549890041351318,chair,oven,0,0662_scg_s09_0_oven_00_oven4-chair1.png
subject-09,1,663,0.539396047592163,clock,clock,0,0663_scg_s09_0_clock_00_clock5-elephant2.png
subject-09,1,664,0.598829030990601,cat,cat,0,0664_scg_s09_0_cat_00_cat7-dog3.png
subject-09,1,665,0.632269859313965,bird,boat,0,0665_scg_s09_0_boat_00_boat6-cat1.png
subject-09,1,666,0.908146142959595,truck,truck,0,0666_scg_s09_0_truck_00_truck1-bear1.png
subject-09,1,667,0.651140928268433,airplane,airplane,0,0667_scg_s09_0_airplane_00_airplane4-airplane1.png
subject-09,1,668,1.04876685142517,airplane,knife,0,0668_scg_s09_0_knife_00_knife5-clock1.png
subject-09,1,669,0.868649005889893,bear,bear,0,0669_scg_s09_0_bear_00_bear3-cat1.png
subject-09,1,670,1.36334490776062,elephant,elephant,0,0670_scg_s09_0_elephant_00_elephant9-clock3.png
subject-09,1,671,1.00059700012207,chair,chair,0,0671_scg_s09_0_chair_00_chair1-clock2.png
subject-09,1,672,0.896548986434937,chair,chair,0,0672_scg_s09_0_chair_00_chair5-knife3.png
subject-09,1,673,0.718297958374023,cat,cat,0,0673_scg_s09_0_cat_00_cat2-boat2.png
subject-09,1,674,0.812681913375854,airplane,airplane,0,0674_scg_s09_0_airplane_00_airplane10-boat3.png
subject-09,1,675,0.6183180809021,bird,bird,0,0675_scg_s09_0_bird_00_bird5-keyboard2.png
subject-09,1,676,0.716301918029785,knife,keyboard,0,0676_scg_s09_0_keyboard_00_keyboard6-bear2.png
subject-09,1,677,0.646503925323486,boat,airplane,0,0677_scg_s09_0_airplane_00_airplane2-bicycle1.png
subject-09,1,678,0.912078857421875,knife,boat,0,0678_scg_s09_0_boat_00_boat4-dog2.png
subject-09,1,679,0.855275869369507,truck,truck,0,0679_scg_s09_0_truck_00_truck2-clock1.png
subject-09,1,680,0.652050971984863,truck,truck,0,0680_scg_s09_0_truck_00_truck5-dog3.png
subject-09,1,681,0.925860166549683,knife,boat,0,0681_scg_s09_0_boat_00_boat1-keyboard3.png
subject-09,1,682,0.845255136489868,chair,chair,0,0682_scg_s09_0_chair_00_chair7-car2.png
subject-09,1,683,0.774816036224365,chair,cat,0,0683_scg_s09_0_cat_00_cat9-knife2.png
subject-09,1,684,1.14022302627563,car,car,0,0684_scg_s09_0_car_00_car1-airplane1.png
subject-09,1,685,0.729678153991699,chair,chair,0,0685_scg_s09_0_chair_00_chair9-dog2.png
subject-09,1,686,0.589495182037354,clock,clock,0,0686_scg_s09_0_clock_00_clock6-bird3.png
subject-09,1,687,0.833410024642944,car,car,0,0687_scg_s09_0_car_00_car4-clock1.png
subject-09,1,688,1.12331891059875,airplane,knife,0,0688_scg_s09_0_knife_00_knife4-boat1.png
subject-09,1,689,1.08868098258972,airplane,keyboard,0,0689_scg_s09_0_keyboard_00_keyboard3-bird3.png
subject-09,1,690,1.11662817001343,elephant,elephant,0,0690_scg_s09_0_elephant_00_elephant8-bird2.png
subject-09,1,691,0.784494876861572,chair,chair,0,0691_scg_s09_0_chair_00_chair1-cat3.png
subject-09,1,692,0.706043004989624,bird,boat,0,0692_scg_s09_0_boat_00_boat6-elephant2.png
subject-09,1,693,0.687525033950806,bottle,bottle,0,0693_scg_s09_0_bottle_00_bottle3-boat3.png
subject-09,1,694,0.994295835494995,car,car,0,0694_scg_s09_0_car_00_car8-bear1.png
subject-09,1,695,0.959420919418335,bird,bird,0,0695_scg_s09_0_bird_00_bird5-airplane3.png
subject-09,1,696,0.880573034286499,airplane,airplane,0,0696_scg_s09_0_airplane_00_airplane9-boat1.png
subject-09,1,697,0.862447023391724,airplane,boat,0,0697_scg_s09_0_boat_00_boat7-cat3.png
subject-09,1,698,1.0601019859314,dog,dog,0,0698_scg_s09_0_dog_00_dog10-clock1.png
subject-09,1,699,0.971235990524292,bottle,bottle,0,0699_scg_s09_0_bottle_00_bottle4-oven2.png
subject-09,1,700,0.722856998443604,dog,dog,0,0700_scg_s09_0_dog_00_dog4-bird1.png
subject-09,1,701,0.682151794433594,airplane,oven,0,0701_scg_s09_0_oven_00_oven1-cat1.png
subject-09,1,702,0.725418090820312,clock,clock,0,0702_scg_s09_0_clock_00_clock3-dog2.png
subject-09,1,703,0.56978702545166,boat,boat,0,0703_scg_s09_0_boat_00_boat1-chair3.png
subject-09,1,704,0.558174133300781,bottle,knife,0,0704_scg_s09_0_knife_00_knife2-bottle2.png
subject-09,1,705,0.647526979446411,chair,chair,0,0705_scg_s09_0_chair_00_chair2-bear2.png
subject-09,1,706,0.549011945724487,dog,dog,0,0706_scg_s09_0_dog_00_dog5-car3.png
subject-09,1,707,0.638543128967285,bear,bear,0,0707_scg_s09_0_bear_00_bear3-dog3.png
subject-09,1,708,0.845285892486572,elephant,elephant,0,0708_scg_s09_0_elephant_00_elephant7-bird1.png
subject-09,1,709,0.940739154815674,bird,elephant,0,0709_scg_s09_0_elephant_00_elephant1-keyboard3.png
subject-09,1,710,0.875566959381104,oven,oven,0,0710_scg_s09_0_oven_00_oven6-knife3.png
subject-09,1,711,0.589637041091919,oven,airplane,0,0711_scg_s09_0_airplane_00_airplane2-bird3.png
subject-09,1,712,0.635668039321899,oven,knife,0,0712_scg_s09_0_knife_00_knife2-cat3.png
subject-09,1,713,0.617070198059082,cat,cat,0,0713_scg_s09_0_cat_00_cat9-bird3.png
subject-09,1,714,0.499876976013184,oven,knife,0,0714_scg_s09_0_knife_00_knife2-truck2.png
subject-09,1,715,1.05136704444885,bottle,bottle,0,0715_scg_s09_0_bottle_00_bottle6-bird1.png
subject-09,1,716,0.525122165679932,clock,clock,0,0716_scg_s09_0_clock_00_clock4-chair1.png
subject-09,1,717,0.976890087127686,airplane,airplane,0,0717_scg_s09_0_airplane_00_airplane3-keyboard2.png
subject-09,1,718,0.728262901306152,elephant,elephant,0,0718_scg_s09_0_elephant_00_elephant4-bicycle2.png
subject-09,1,719,0.7345290184021,elephant,elephant,0,0719_scg_s09_0_elephant_00_elephant2-clock1.png
subject-09,1,720,0.69195294380188,bicycle,bicycle,0,0720_scg_s09_0_bicycle_00_bicycle4-bicycle3.png
subject-09,1,721,1.03581786155701,knife,knife,0,0721_scg_s09_0_knife_00_knife5-oven2.png
subject-09,1,722,1.0417959690094,knife,knife,0,0722_scg_s09_0_knife_00_knife2-bear2.png
subject-09,1,723,0.863204956054688,truck,truck,0,0723_scg_s09_0_truck_00_truck6-truck2.png
subject-09,1,724,0.745116949081421,clock,clock,0,0724_scg_s09_0_clock_00_clock3-bicycle2.png
subject-09,1,725,0.797013998031616,airplane,keyboard,0,0725_scg_s09_0_keyboard_00_keyboard10-keyboard1.png
subject-09,1,726,0.740893840789795,bird,bird,0,0726_scg_s09_0_bird_00_bird7-cat3.png
subject-09,1,727,0.809092044830322,cat,cat,0,0727_scg_s09_0_cat_00_cat7-elephant1.png
subject-09,1,728,0.536493062973022,oven,oven,0,0728_scg_s09_0_oven_00_oven10-boat2.png
subject-09,1,729,0.695377111434937,dog,dog,0,0729_scg_s09_0_dog_00_dog7-chair2.png
subject-09,1,730,0.899631977081299,car,car,0,0730_scg_s09_0_car_00_car8-clock2.png
subject-09,1,731,0.613059043884277,bicycle,bicycle,0,0731_scg_s09_0_bicycle_00_bicycle2-bicycle1.png
subject-09,1,732,0.619203805923462,chair,chair,0,0732_scg_s09_0_chair_00_chair1-bear1.png
subject-09,1,733,1.04686498641968,keyboard,keyboard,0,0733_scg_s09_0_keyboard_00_keyboard9-boat2.png
subject-09,1,734,0.736767053604126,chair,chair,0,0734_scg_s09_0_chair_00_chair9-bottle3.png
subject-09,1,735,0.666681051254272,knife,knife,0,0735_scg_s09_0_knife_00_knife9-elephant2.png
subject-09,1,736,0.699733018875122,elephant,elephant,0,0736_scg_s09_0_elephant_00_elephant8-elephant1.png
subject-09,1,737,1.09792590141296,keyboard,car,0,0737_scg_s09_0_car_00_car9-bird1.png
subject-09,1,738,0.765474081039429,cat,cat,0,0738_scg_s09_0_cat_00_cat1-boat1.png
subject-09,1,739,0.830842018127441,knife,knife,0,0739_scg_s09_0_knife_00_knife8-car2.png
subject-09,1,740,0.915549039840698,chair,chair,0,0740_scg_s09_0_chair_00_chair7-knife2.png
subject-09,1,741,0.72632098197937,truck,truck,0,0741_scg_s09_0_truck_00_truck4-knife1.png
subject-09,1,742,0.737764120101929,keyboard,keyboard,0,0742_scg_s09_0_keyboard_00_keyboard10-oven3.png
subject-09,1,743,0.651119947433472,elephant,bear,0,0743_scg_s09_0_bear_00_bear9-boat2.png
subject-09,1,744,0.615964889526367,bottle,bottle,0,0744_scg_s09_0_bottle_00_bottle6-knife3.png
subject-09,1,745,0.791811227798462,truck,truck,0,0745_scg_s09_0_truck_00_truck4-bear1.png
subject-09,1,746,0.833223819732666,keyboard,keyboard,0,0746_scg_s09_0_keyboard_00_keyboard5-bottle1.png
subject-09,1,747,0.716959953308105,truck,truck,0,0747_scg_s09_0_truck_00_truck4-boat3.png
subject-09,1,748,1.19641494750977,dog,dog,0,0748_scg_s09_0_dog_00_dog6-bicycle1.png
subject-09,1,749,0.817811012268066,knife,keyboard,0,0749_scg_s09_0_keyboard_00_keyboard6-bottle2.png
subject-09,1,750,0.531049013137817,cat,bottle,0,0750_scg_s09_0_bottle_00_bottle7-bear1.png
subject-09,1,751,0.788841962814331,bird,bird,0,0751_scg_s09_0_bird_00_bird1-oven1.png
subject-09,1,752,0.729087114334106,bear,bear,0,0752_scg_s09_0_bear_00_bear2-oven1.png
subject-09,1,753,1.03506994247437,elephant,elephant,0,0753_scg_s09_0_elephant_00_elephant6-car3.png
subject-09,1,754,0.81656289100647,bottle,bottle,0,0754_scg_s09_0_bottle_00_bottle1-clock1.png
subject-09,1,755,0.69336199760437,elephant,elephant,0,0755_scg_s09_0_elephant_00_elephant4-oven1.png
subject-09,1,756,1.4188768863678,oven,oven,0,0756_scg_s09_0_oven_00_oven10-oven3.png
subject-09,1,757,0.559571981430054,clock,clock,0,0757_scg_s09_0_clock_00_clock7-dog2.png
subject-09,1,758,1.16290998458862,bottle,bottle,0,0758_scg_s09_0_bottle_00_bottle4-car3.png
subject-09,1,759,NaN,na,bird,0,0759_scg_s09_0_bird_00_bird8-clock1.png
subject-09,1,760,0.534413814544678,cat,cat,0,0760_scg_s09_0_cat_00_cat3-bicycle1.png
subject-09,1,761,0.539777040481567,oven,oven,0,0761_scg_s09_0_oven_00_oven5-airplane1.png
subject-09,1,762,0.515899896621704,cat,bear,0,0762_scg_s09_0_bear_00_bear1-elephant1.png
subject-09,1,763,0.790030002593994,truck,truck,0,0763_scg_s09_0_truck_00_truck1-knife1.png
subject-09,1,764,0.771332979202271,airplane,knife,0,0764_scg_s09_0_knife_00_knife2-dog1.png
subject-09,1,765,1.12062287330627,airplane,keyboard,0,0765_scg_s09_0_keyboard_00_keyboard10-car1.png
subject-09,1,766,0.921051979064941,airplane,elephant,0,0766_scg_s09_0_elephant_00_elephant10-keyboard1.png
subject-09,1,767,0.848677158355713,oven,chair,0,0767_scg_s09_0_chair_00_chair6-bird2.png
subject-09,1,768,0.922177076339722,keyboard,knife,0,0768_scg_s09_0_knife_00_knife7-car2.png
subject-09,1,769,0.783941030502319,airplane,airplane,0,0769_scg_s09_0_airplane_00_airplane5-dog3.png
subject-09,1,770,0.959541082382202,elephant,elephant,0,0770_scg_s09_0_elephant_00_elephant3-chair1.png
subject-09,1,771,0.685889959335327,keyboard,keyboard,0,0771_scg_s09_0_keyboard_00_keyboard5-knife2.png
subject-09,1,772,0.613385200500488,oven,oven,0,0772_scg_s09_0_oven_00_oven7-oven1.png
subject-09,1,773,0.654651165008545,bicycle,bicycle,0,0773_scg_s09_0_bicycle_00_bicycle8-boat1.png
subject-09,1,774,0.938567161560059,airplane,bottle,0,0774_scg_s09_0_bottle_00_bottle7-truck2.png
subject-09,1,775,0.744075059890747,chair,chair,0,0775_scg_s09_0_chair_00_chair9-keyboard2.png
subject-09,1,776,1.19385504722595,elephant,elephant,0,0776_scg_s09_0_elephant_00_elephant9-chair2.png
subject-09,1,777,0.761713981628418,car,car,0,0777_scg_s09_0_car_00_car7-dog3.png
subject-09,1,778,0.4966721534729,keyboard,keyboard,0,0778_scg_s09_0_keyboard_00_keyboard8-dog3.png
subject-09,1,779,0.595109939575195,oven,oven,0,0779_scg_s09_0_oven_00_oven3-car2.png
subject-09,1,780,0.638760089874268,bird,boat,0,0780_scg_s09_0_boat_00_boat6-dog1.png
subject-09,1,781,1.05846285820007,dog,dog,0,0781_scg_s09_0_dog_00_dog1-dog2.png
subject-09,1,782,0.588629007339478,clock,clock,0,0782_scg_s09_0_clock_00_clock3-bird1.png
subject-09,1,783,0.778124094009399,bird,bird,0,0783_scg_s09_0_bird_00_bird8-boat3.png
subject-09,1,784,1.19757485389709,cat,elephant,0,0784_scg_s09_0_elephant_00_elephant7-knife2.png
subject-09,1,785,0.633013963699341,cat,cat,0,0785_scg_s09_0_cat_00_cat5-elephant2.png
subject-09,1,786,0.814059019088745,truck,truck,0,0786_scg_s09_0_truck_00_truck4-bottle2.png
subject-09,1,787,0.657600164413452,cat,cat,0,0787_scg_s09_0_cat_00_cat1-cat3.png
subject-09,1,788,0.763252973556519,airplane,bear,0,0788_scg_s09_0_bear_00_bear6-chair1.png
subject-09,1,789,1.1447160243988,car,car,0,0789_scg_s09_0_car_00_car9-cat1.png
subject-09,1,790,0.839463949203491,elephant,boat,0,0790_scg_s09_0_boat_00_boat9-bear3.png
subject-09,1,791,0.999953031539917,cat,cat,0,0791_scg_s09_0_cat_00_cat9-bottle2.png
subject-09,1,792,0.713871002197266,bottle,knife,0,0792_scg_s09_0_knife_00_knife9-bottle2.png
subject-09,1,793,0.77342700958252,bicycle,bicycle,0,0793_scg_s09_0_bicycle_00_bicycle2-bottle1.png
subject-09,1,794,0.834936141967773,bicycle,bicycle,0,0794_scg_s09_0_bicycle_00_bicycle4-chair2.png
subject-09,1,795,0.748677015304565,clock,clock,0,0795_scg_s09_0_clock_00_clock4-car2.png
subject-09,1,796,0.724851131439209,elephant,cat,0,0796_scg_s09_0_cat_00_cat10-keyboard1.png
subject-09,1,797,1.06591200828552,dog,bear,0,0797_scg_s09_0_bear_00_bear5-bird1.png
subject-09,1,798,0.971768140792847,keyboard,airplane,0,0798_scg_s09_0_airplane_00_airplane8-bird1.png
subject-09,1,799,0.806889057159424,boat,boat,0,0799_scg_s09_0_boat_00_boat9-knife2.png
subject-09,1,800,0.69253396987915,airplane,boat,0,0800_scg_s09_0_boat_00_boat4-bottle2.png
subject-09,1,801,0.490447998046875,cat,cat,0,0801_scg_s09_0_cat_00_cat5-car2.png
subject-09,1,802,0.566293954849243,keyboard,keyboard,0,0802_scg_s09_0_keyboard_00_keyboard1-bird2.png
subject-09,1,803,0.58664608001709,cat,cat,0,0803_scg_s09_0_cat_00_cat2-truck3.png
subject-09,1,804,0.684185981750488,cat,knife,0,0804_scg_s09_0_knife_00_knife7-boat3.png
subject-09,1,805,0.619458913803101,airplane,knife,0,0805_scg_s09_0_knife_00_knife10-dog1.png
subject-09,1,806,0.697232007980347,bird,bird,0,0806_scg_s09_0_bird_00_bird6-boat2.png
subject-09,1,807,0.594780206680298,boat,dog,0,0807_scg_s09_0_dog_00_dog8-chair3.png
subject-09,1,808,0.608276128768921,boat,boat,0,0808_scg_s09_0_boat_00_boat7-elephant3.png
subject-09,1,809,0.619537830352783,bicycle,bicycle,0,0809_scg_s09_0_bicycle_00_bicycle7-truck3.png
subject-09,1,810,0.754934072494507,cat,cat,0,0810_scg_s09_0_cat_00_cat10-clock1.png
subject-09,1,811,0.598636865615845,boat,oven,0,0811_scg_s09_0_oven_00_oven6-chair3.png
subject-09,1,812,0.59611701965332,cat,cat,0,0812_scg_s09_0_cat_00_cat4-dog3.png
subject-09,1,813,0.647964954376221,boat,boat,0,0813_scg_s09_0_boat_00_boat5-knife2.png
subject-09,1,814,0.548245906829834,boat,boat,0,0814_scg_s09_0_boat_00_boat3-dog3.png
subject-09,1,815,0.606030941009521,clock,clock,0,0815_scg_s09_0_clock_00_clock3-car2.png
subject-09,1,816,1.20945000648499,dog,dog,0,0816_scg_s09_0_dog_00_dog5-elephant1.png
subject-09,1,817,0.784987926483154,bird,bird,0,0817_scg_s09_0_bird_00_bird5-dog2.png
subject-09,1,818,1.37212610244751,bear,bear,0,0818_scg_s09_0_bear_00_bear5-boat2.png
subject-09,1,819,0.834113121032715,bird,bird,0,0819_scg_s09_0_bird_00_bird7-car2.png
subject-09,1,820,1.10791897773743,airplane,boat,0,0820_scg_s09_0_boat_00_boat8-elephant1.png
subject-09,1,821,0.683950901031494,boat,knife,0,0821_scg_s09_0_knife_00_knife9-airplane2.png
subject-09,1,822,0.606432199478149,elephant,elephant,0,0822_scg_s09_0_elephant_00_elephant9-elephant3.png
subject-09,1,823,0.59640097618103,boat,airplane,0,0823_scg_s09_0_airplane_00_airplane5-chair3.png
subject-09,1,824,0.556226015090942,cat,keyboard,0,0824_scg_s09_0_keyboard_00_keyboard7-truck2.png
subject-09,1,825,0.607890129089355,boat,bear,0,0825_scg_s09_0_bear_00_bear10-clock1.png
subject-09,1,826,0.619335889816284,cat,car,0,0826_scg_s09_0_car_00_car4-bird1.png
subject-09,1,827,1.20666980743408,bird,bird,0,0827_scg_s09_0_bird_00_bird1-chair2.png
subject-09,1,828,0.806450128555298,bottle,bottle,0,0828_scg_s09_0_bottle_00_bottle3-bird1.png
subject-09,1,829,0.849517107009888,car,car,0,0829_scg_s09_0_car_00_car10-elephant2.png
subject-09,1,830,0.61493182182312,chair,chair,0,0830_scg_s09_0_chair_00_chair4-chair3.png
subject-09,1,831,0.834434986114502,knife,keyboard,0,0831_scg_s09_0_keyboard_00_keyboard7-dog1.png
subject-09,1,832,1.37038779258728,bicycle,bicycle,0,0832_scg_s09_0_bicycle_00_bicycle1-bicycle3.png
subject-09,1,833,0.992437124252319,elephant,elephant,0,0833_scg_s09_0_elephant_00_elephant4-chair3.png
subject-09,1,834,0.644070148468018,airplane,boat,0,0834_scg_s09_0_boat_00_boat1-bird3.png
subject-09,1,835,0.444026231765747,cat,cat,0,0835_scg_s09_0_cat_00_cat6-bear1.png
subject-09,1,836,0.526036024093628,cat,cat,0,0836_scg_s09_0_cat_00_cat8-bear1.png
subject-09,1,837,0.701617002487183,cat,cat,0,0837_scg_s09_0_cat_00_cat10-elephant3.png
subject-09,1,838,0.637733936309814,bottle,bottle,0,0838_scg_s09_0_bottle_00_bottle5-keyboard2.png
subject-09,1,839,0.572960138320923,oven,oven,0,0839_scg_s09_0_oven_00_oven2-dog3.png
subject-09,1,840,0.557109832763672,boat,oven,0,0840_scg_s09_0_oven_00_oven1-boat3.png
subject-09,1,841,0.660704851150513,bear,bear,0,0841_scg_s09_0_bear_00_bear1-airplane3.png
subject-09,1,842,0.582366943359375,clock,clock,0,0842_scg_s09_0_clock_00_clock6-bottle1.png
subject-09,1,843,0.580227851867676,cat,elephant,0,0843_scg_s09_0_elephant_00_elephant2-bird1.png
subject-09,1,844,1.03814101219177,cat,keyboard,0,0844_scg_s09_0_keyboard_00_keyboard7-knife1.png
subject-09,1,845,0.92126989364624,keyboard,keyboard,0,0845_scg_s09_0_keyboard_00_keyboard10-boat2.png
subject-09,1,846,0.794967174530029,bird,bird,0,0846_scg_s09_0_bird_00_bird6-car3.png
subject-09,1,847,0.81746506690979,car,car,0,0847_scg_s09_0_car_00_car10-chair1.png
subject-09,1,848,0.76659893989563,cat,bicycle,0,0848_scg_s09_0_bicycle_00_bicycle2-keyboard2.png
subject-09,1,849,0.762714862823486,truck,truck,0,0849_scg_s09_0_truck_00_truck3-cat1.png
subject-09,1,850,0.474045038223267,clock,clock,0,0850_scg_s09_0_clock_00_clock5-clock2.png
subject-09,1,851,0.779940128326416,bear,bear,0,0851_scg_s09_0_bear_00_bear3-car2.png
subject-09,1,852,0.712045907974243,truck,truck,0,0852_scg_s09_0_truck_00_truck6-bicycle1.png
subject-09,1,853,0.771512031555176,bottle,bottle,0,0853_scg_s09_0_bottle_00_bottle8-dog2.png
subject-09,1,854,0.698729991912842,chair,chair,0,0854_scg_s09_0_chair_00_chair7-airplane1.png
subject-09,1,855,0.618211984634399,boat,boat,0,0855_scg_s09_0_boat_00_boat2-airplane1.png
subject-09,1,856,0.893423080444336,knife,knife,0,0856_scg_s09_0_knife_00_knife8-cat2.png
subject-09,1,857,0.888868093490601,bird,keyboard,0,0857_scg_s09_0_keyboard_00_keyboard9-keyboard2.png
subject-09,1,858,0.527091026306152,clock,clock,0,0858_scg_s09_0_clock_00_clock7-bear2.png
subject-09,1,859,0.700947999954224,elephant,elephant,0,0859_scg_s09_0_elephant_00_elephant2-truck2.png
subject-09,1,860,0.998156070709229,chair,chair,0,0860_scg_s09_0_chair_00_chair10-cat1.png
subject-09,1,861,0.657979011535645,chair,chair,0,0861_scg_s09_0_chair_00_chair9-elephant1.png
subject-09,1,862,0.83157205581665,chair,oven,0,0862_scg_s09_0_oven_00_oven7-keyboard1.png
subject-09,1,863,0.859471082687378,chair,boat,0,0863_scg_s09_0_boat_00_boat7-chair1.png
subject-09,1,864,0.734838008880615,bird,knife,0,0864_scg_s09_0_knife_00_knife10-elephant3.png
subject-09,1,865,0.670474052429199,bicycle,bicycle,0,0865_scg_s09_0_bicycle_00_bicycle5-dog2.png
subject-09,1,866,0.652135133743286,bird,knife,0,0866_scg_s09_0_knife_00_knife4-bear1.png
subject-09,1,867,0.549746990203857,keyboard,keyboard,0,0867_scg_s09_0_keyboard_00_keyboard4-clock2.png
subject-09,1,868,0.831233978271484,clock,clock,0,0868_scg_s09_0_clock_00_clock1-truck3.png
subject-09,1,869,0.758636951446533,boat,boat,0,0869_scg_s09_0_boat_00_boat7-boat2.png
subject-09,1,870,0.88680100440979,chair,chair,0,0870_scg_s09_0_chair_00_chair3-airplane2.png
subject-09,1,871,0.938273906707764,boat,knife,0,0871_scg_s09_0_knife_00_knife4-cat2.png
subject-09,1,872,0.597513914108276,clock,clock,0,0872_scg_s09_0_clock_00_clock9-airplane1.png
subject-09,1,873,0.771353960037231,dog,dog,0,0873_scg_s09_0_dog_00_dog8-bear3.png
subject-09,1,874,1.38505983352661,elephant,elephant,0,0874_scg_s09_0_elephant_00_elephant4-clock3.png
subject-09,1,875,NaN,na,airplane,0,0875_scg_s09_0_airplane_00_airplane9-keyboard2.png
subject-09,1,876,0.593626976013184,oven,oven,0,0876_scg_s09_0_oven_00_oven3-boat3.png
subject-09,1,877,0.867526054382324,oven,bird,0,0877_scg_s09_0_bird_00_bird3-boat3.png
subject-09,1,878,0.896237134933472,elephant,elephant,0,0878_scg_s09_0_elephant_00_elephant1-bottle1.png
subject-09,1,879,0.824304103851318,bicycle,bicycle,0,0879_scg_s09_0_bicycle_00_bicycle5-bottle3.png
subject-09,1,880,0.562052965164185,bottle,bottle,0,0880_scg_s09_0_bottle_00_bottle5-bird3.png
subject-09,1,881,0.559978008270264,oven,oven,0,0881_scg_s09_0_oven_00_oven7-car3.png
subject-09,1,882,0.758410930633545,bear,bear,0,0882_scg_s09_0_bear_00_bear6-bird2.png
subject-09,1,883,0.532773017883301,cat,cat,0,0883_scg_s09_0_cat_00_cat10-bear1.png
subject-09,1,884,0.500341176986694,boat,oven,0,0884_scg_s09_0_oven_00_oven6-bird1.png
subject-09,1,885,0.673795938491821,oven,keyboard,0,0885_scg_s09_0_keyboard_00_keyboard10-truck1.png
subject-09,1,886,0.8416588306427,bird,bird,0,0886_scg_s09_0_bird_00_bird7-boat1.png
subject-09,1,887,0.793500900268555,bicycle,bicycle,0,0887_scg_s09_0_bicycle_00_bicycle10-dog3.png
subject-09,1,888,1.02933096885681,oven,chair,0,0888_scg_s09_0_chair_00_chair1-truck3.png
subject-09,1,889,0.702150106430054,car,car,0,0889_scg_s09_0_car_00_car4-car2.png
subject-09,1,890,0.5919029712677,cat,cat,0,0890_scg_s09_0_cat_00_cat2-knife3.png
subject-09,1,891,0.551980972290039,cat,cat,0,0891_scg_s09_0_cat_00_cat6-chair3.png
subject-09,1,892,0.627033948898315,airplane,knife,0,0892_scg_s09_0_knife_00_knife1-elephant1.png
subject-09,1,893,0.838937044143677,car,car,0,0893_scg_s09_0_car_00_car7-airplane2.png
subject-09,1,894,0.636637926101685,cat,cat,0,0894_scg_s09_0_cat_00_cat9-dog2.png
subject-09,1,895,1.43238401412964,dog,dog,0,0895_scg_s09_0_dog_00_dog4-cat3.png
subject-09,1,896,0.953673124313354,boat,boat,0,0896_scg_s09_0_boat_00_boat9-airplane2.png
subject-09,1,897,1.13584303855896,bear,truck,0,0897_scg_s09_0_truck_00_truck10-car3.png
subject-09,1,898,1.00362205505371,cat,bottle,0,0898_scg_s09_0_bottle_00_bottle1-keyboard3.png
subject-09,1,899,1.05475497245789,bicycle,bicycle,0,0899_scg_s09_0_bicycle_00_bicycle6-cat1.png
subject-09,1,900,0.698341131210327,oven,cat,0,0900_scg_s09_0_cat_00_cat8-car2.png
subject-09,1,901,0.588267803192139,bird,bird,0,0901_scg_s09_0_bird_00_bird1-bear1.png
subject-09,1,902,0.924185991287231,clock,boat,0,0902_scg_s09_0_boat_00_boat8-bottle1.png
subject-09,1,903,0.796992063522339,bicycle,bicycle,0,0903_scg_s09_0_bicycle_00_bicycle5-elephant1.png
subject-09,1,904,0.810415029525757,boat,boat,0,0904_scg_s09_0_boat_00_boat7-truck2.png
subject-09,1,905,0.738460063934326,oven,oven,0,0905_scg_s09_0_oven_00_oven9-keyboard1.png
subject-09,1,906,0.70575213432312,bird,bird,0,0906_scg_s09_0_bird_00_bird9-chair1.png
subject-09,1,907,0.773682117462158,cat,cat,0,0907_scg_s09_0_cat_00_cat2-cat1.png
subject-09,1,908,0.539453029632568,clock,clock,0,0908_scg_s09_0_clock_00_clock6-clock2.png
subject-09,1,909,0.759397983551025,bottle,bottle,0,0909_scg_s09_0_bottle_00_bottle6-chair2.png
subject-09,1,910,0.972709894180298,bird,bird,0,0910_scg_s09_0_bird_00_bird4-dog3.png
subject-09,1,911,1.13849401473999,keyboard,keyboard,0,0911_scg_s09_0_keyboard_00_keyboard7-bottle1.png
subject-09,1,912,0.693017959594727,clock,clock,0,0912_scg_s09_0_clock_00_clock10-boat2.png
subject-09,1,913,0.612968921661377,car,car,0,0913_scg_s09_0_car_00_car5-cat1.png
subject-09,1,914,1.22486090660095,elephant,elephant,0,0914_scg_s09_0_elephant_00_elephant2-airplane3.png
subject-09,1,915,0.921172857284546,bottle,oven,0,0915_scg_s09_0_oven_00_oven1-dog3.png
subject-09,1,916,0.551017999649048,boat,boat,0,0916_scg_s09_0_boat_00_boat3-car3.png
subject-09,1,917,0.724345207214355,truck,truck,0,0917_scg_s09_0_truck_00_truck5-airplane2.png
subject-09,1,918,1.00596904754639,keyboard,keyboard,0,0918_scg_s09_0_keyboard_00_keyboard4-cat2.png
subject-09,1,919,0.642425060272217,bottle,bottle,0,0919_scg_s09_0_bottle_00_bottle2-elephant1.png
subject-09,1,920,1.17757296562195,bird,bird,0,0920_scg_s09_0_bird_00_bird8-bottle1.png
subject-09,1,921,0.895487070083618,knife,knife,0,0921_scg_s09_0_knife_00_knife6-bird1.png
subject-09,1,922,1.25338912010193,bicycle,bicycle,0,0922_scg_s09_0_bicycle_00_bicycle5-cat1.png
subject-09,1,923,0.858721971511841,keyboard,keyboard,0,0923_scg_s09_0_keyboard_00_keyboard8-airplane2.png
subject-09,1,924,0.802129983901978,dog,dog,0,0924_scg_s09_0_dog_00_dog9-boat1.png
subject-09,1,925,1.02953290939331,dog,cat,0,0925_scg_s09_0_cat_00_cat8-bird2.png
subject-09,1,926,NaN,na,chair,0,0926_scg_s09_0_chair_00_chair10-dog1.png
subject-09,1,927,0.68441104888916,oven,oven,0,0927_scg_s09_0_oven_00_oven8-knife2.png
subject-09,1,928,0.63672399520874,cat,airplane,0,0928_scg_s09_0_airplane_00_airplane5-bird2.png
subject-09,1,929,0.742519855499268,chair,chair,0,0929_scg_s09_0_chair_00_chair3-dog2.png
subject-09,1,930,0.770339012145996,chair,chair,0,0930_scg_s09_0_chair_00_chair3-bottle3.png
subject-09,1,931,1.29234004020691,bear,bear,0,0931_scg_s09_0_bear_00_bear2-car2.png
subject-09,1,932,0.927887916564941,keyboard,oven,0,0932_scg_s09_0_oven_00_oven6-bicycle1.png
subject-09,1,933,0.756021022796631,car,truck,0,0933_scg_s09_0_truck_00_truck6-bear2.png
subject-09,1,934,0.677916049957275,chair,chair,0,0934_scg_s09_0_chair_00_chair6-dog1.png
subject-09,1,935,1.22216296195984,bottle,bottle,0,0935_scg_s09_0_bottle_00_bottle5-clock3.png
subject-09,1,936,0.741672992706299,oven,boat,0,0936_scg_s09_0_boat_00_boat3-keyboard2.png
subject-09,1,937,0.677402973175049,keyboard,keyboard,0,0937_scg_s09_0_keyboard_00_keyboard4-truck3.png
subject-09,1,938,0.991273880004883,clock,clock,0,0938_scg_s09_0_clock_00_clock8-knife1.png
subject-09,1,939,0.989192962646484,knife,boat,0,0939_scg_s09_0_boat_00_boat8-bird2.png
subject-09,1,940,0.595417976379395,cat,boat,0,0940_scg_s09_0_boat_00_boat4-elephant2.png
subject-09,1,941,0.669627904891968,cat,knife,0,0941_scg_s09_0_knife_00_knife5-keyboard3.png
subject-09,1,942,0.667358160018921,oven,bicycle,0,0942_scg_s09_0_bicycle_00_bicycle9-keyboard3.png
subject-09,1,943,0.803258895874023,bird,bird,0,0943_scg_s09_0_bird_00_bird5-car2.png
subject-09,1,944,0.620944023132324,oven,airplane,0,0944_scg_s09_0_airplane_00_airplane5-knife1.png
subject-09,1,945,0.572734117507935,boat,oven,0,0945_scg_s09_0_oven_00_oven10-truck2.png
subject-09,1,946,0.838489055633545,bicycle,bicycle,0,0946_scg_s09_0_bicycle_00_bicycle7-knife2.png
subject-09,1,947,0.79003119468689,bicycle,bicycle,0,0947_scg_s09_0_bicycle_00_bicycle5-bear1.png
subject-09,1,948,0.879312038421631,dog,dog,0,0948_scg_s09_0_dog_00_dog8-oven3.png
subject-09,1,949,0.80708909034729,bird,bird,0,0949_scg_s09_0_bird_00_bird7-knife2.png
subject-09,1,950,1.09431099891663,airplane,knife,0,0950_scg_s09_0_knife_00_knife2-bicycle3.png
subject-09,1,951,0.623566865921021,bird,boat,0,0951_scg_s09_0_boat_00_boat10-cat1.png
subject-09,1,952,0.921862840652466,bird,airplane,0,0952_scg_s09_0_airplane_00_airplane7-truck1.png
subject-09,1,953,0.719810009002686,cat,knife,0,0953_scg_s09_0_knife_00_knife2-elephant2.png
subject-09,1,954,0.814883947372437,elephant,elephant,0,0954_scg_s09_0_elephant_00_elephant2-bear3.png
subject-09,1,955,0.682842969894409,dog,cat,0,0955_scg_s09_0_cat_00_cat1-keyboard3.png
subject-09,1,956,0.794803857803345,bird,airplane,0,0956_scg_s09_0_airplane_00_airplane7-boat2.png
subject-09,1,957,0.792481899261475,car,car,0,0957_scg_s09_0_car_00_car2-chair1.png
subject-09,1,958,0.640110969543457,oven,oven,0,0958_scg_s09_0_oven_00_oven6-oven3.png
subject-09,1,959,0.629280090332031,clock,clock,0,0959_scg_s09_0_clock_00_clock10-bottle1.png
subject-09,1,960,0.549062013626099,car,car,0,0960_scg_s09_0_car_00_car7-clock1.png
subject-09,1,961,0.513145923614502,oven,oven,0,0961_scg_s09_0_oven_00_oven5-dog3.png
subject-09,1,962,0.518775224685669,cat,cat,0,0962_scg_s09_0_cat_00_cat7-clock3.png
subject-09,1,963,0.684498071670532,elephant,elephant,0,0963_scg_s09_0_elephant_00_elephant7-cat1.png
subject-09,1,964,0.628214120864868,car,car,0,0964_scg_s09_0_car_00_car3-elephant3.png
subject-09,1,965,0.67151403427124,truck,truck,0,0965_scg_s09_0_truck_00_truck4-airplane3.png
subject-09,1,966,0.636898994445801,cat,keyboard,0,0966_scg_s09_0_keyboard_00_keyboard9-elephant2.png
subject-09,1,967,0.848345041275024,truck,truck,0,0967_scg_s09_0_truck_00_truck8-bottle2.png
subject-09,1,968,0.730185985565186,bottle,bottle,0,0968_scg_s09_0_bottle_00_bottle10-dog1.png
subject-09,1,969,0.843097925186157,bear,bear,0,0969_scg_s09_0_bear_00_bear1-bicycle3.png
subject-09,1,970,0.846562147140503,truck,truck,0,0970_scg_s09_0_truck_00_truck10-elephant3.png
subject-09,1,971,0.660047054290771,cat,bear,0,0971_scg_s09_0_bear_00_bear6-bear1.png
subject-09,1,972,0.59577488899231,cat,bear,0,0972_scg_s09_0_bear_00_bear10-elephant1.png
subject-09,1,973,0.623296022415161,cat,cat,0,0973_scg_s09_0_cat_00_cat10-bottle1.png
subject-09,1,974,0.8126060962677,bird,knife,0,0974_scg_s09_0_knife_00_knife4-keyboard1.png
subject-09,1,975,0.716390132904053,cat,cat,0,0975_scg_s09_0_cat_00_cat5-boat1.png
subject-09,1,976,0.746252059936523,knife,knife,0,0976_scg_s09_0_knife_00_knife1-clock2.png
subject-09,1,977,0.589839935302734,bicycle,bicycle,0,0977_scg_s09_0_bicycle_00_bicycle1-truck1.png
subject-09,1,978,0.784729957580566,cat,cat,0,0978_scg_s09_0_cat_00_cat5-dog3.png
subject-09,1,979,0.990427017211914,dog,dog,0,0979_scg_s09_0_dog_00_dog10-elephant1.png
subject-09,1,980,0.742817878723145,boat,car,0,0980_scg_s09_0_car_00_car1-chair3.png
subject-09,1,981,0.562971115112305,cat,elephant,0,0981_scg_s09_0_elephant_00_elephant7-keyboard3.png
subject-09,1,982,0.646728992462158,bear,bear,0,0982_scg_s09_0_bear_00_bear7-bicycle2.png
subject-09,1,983,0.666445970535278,bear,bear,0,0983_scg_s09_0_bear_00_bear8-bear1.png
subject-09,1,984,0.65566611289978,keyboard,airplane,0,0984_scg_s09_0_airplane_00_airplane4-cat3.png
subject-09,1,985,0.591591835021973,elephant,elephant,0,0985_scg_s09_0_elephant_00_elephant3-oven1.png
subject-09,1,986,0.74335503578186,bird,dog,0,0986_scg_s09_0_dog_00_dog9-chair2.png
subject-09,1,987,0.687011003494263,bottle,bottle,0,0987_scg_s09_0_bottle_00_bottle9-car3.png
subject-09,1,988,0.860939979553223,bottle,bottle,0,0988_scg_s09_0_bottle_00_bottle1-chair2.png
subject-09,1,989,0.634598016738892,boat,knife,0,0989_scg_s09_0_knife_00_knife9-chair1.png
subject-09,1,990,0.548804044723511,bicycle,bicycle,0,0990_scg_s09_0_bicycle_00_bicycle4-truck3.png
subject-09,1,991,0.993496894836426,truck,oven,0,0991_scg_s09_0_oven_00_oven9-airplane2.png
subject-09,1,992,0.523104190826416,oven,dog,0,0992_scg_s09_0_dog_00_dog6-truck2.png
subject-09,1,993,0.812943935394287,elephant,elephant,0,0993_scg_s09_0_elephant_00_elephant3-truck1.png
subject-09,1,994,0.765615224838257,oven,oven,0,0994_scg_s09_0_oven_00_oven5-elephant1.png
subject-09,1,995,0.675801038742065,elephant,elephant,0,0995_scg_s09_0_elephant_00_elephant1-bear2.png
subject-09,1,996,0.68730902671814,airplane,keyboard,0,0996_scg_s09_0_keyboard_00_keyboard2-knife1.png
subject-09,1,997,0.554986953735352,bicycle,bicycle,0,0997_scg_s09_0_bicycle_00_bicycle2-car2.png
subject-09,1,998,0.858506917953491,elephant,elephant,0,0998_scg_s09_0_elephant_00_elephant4-boat3.png
subject-09,1,999,1.03236317634583,knife,keyboard,0,0999_scg_s09_0_keyboard_00_keyboard3-cat1.png
subject-09,1,1000,0.646153926849365,boat,airplane,0,1000_scg_s09_0_airplane_00_airplane5-bear2.png
subject-09,1,1001,0.526319980621338,cat,bird,0,1001_scg_s09_0_bird_00_bird1-elephant2.png
subject-09,1,1002,0.984072923660278,truck,truck,0,1002_scg_s09_0_truck_00_truck3-chair2.png
subject-09,1,1003,1.04189205169678,clock,clock,0,1003_scg_s09_0_clock_00_clock7-bottle2.png
subject-09,1,1004,1.50014615058899,keyboard,keyboard,0,1004_scg_s09_0_keyboard_00_keyboard5-oven2.png
subject-09,1,1005,0.644400835037231,boat,boat,0,1005_scg_s09_0_boat_00_boat3-bicycle2.png
subject-09,1,1006,0.748186826705933,dog,dog,0,1006_scg_s09_0_dog_00_dog8-clock2.png
subject-09,1,1007,1.1921660900116,elephant,elephant,0,1007_scg_s09_0_elephant_00_elephant5-car1.png
subject-09,1,1008,0.706530094146729,dog,dog,0,1008_scg_s09_0_dog_00_dog8-boat3.png
subject-09,1,1009,0.688101053237915,bear,bear,0,1009_scg_s09_0_bear_00_bear8-airplane1.png
subject-09,1,1010,0.677300214767456,bottle,bottle,0,1010_scg_s09_0_bottle_00_bottle2-clock1.png
subject-09,1,1011,1.23520803451538,truck,truck,0,1011_scg_s09_0_truck_00_truck2-bicycle2.png
subject-09,1,1012,0.765131950378418,dog,dog,0,1012_scg_s09_0_dog_00_dog9-bear3.png
subject-09,1,1013,0.884884119033813,car,car,0,1013_scg_s09_0_car_00_car1-car2.png
subject-09,1,1014,0.604400873184204,cat,cat,0,1014_scg_s09_0_cat_00_cat4-cat3.png
subject-09,1,1015,0.534581899642944,boat,elephant,0,1015_scg_s09_0_elephant_00_elephant6-bird1.png
subject-09,1,1016,0.78351092338562,knife,knife,0,1016_scg_s09_0_knife_00_knife8-boat1.png
subject-09,1,1017,0.781877040863037,bird,keyboard,0,1017_scg_s09_0_keyboard_00_keyboard3-clock3.png
subject-09,1,1018,0.6755211353302,bottle,bottle,0,1018_scg_s09_0_bottle_00_bottle9-oven2.png
subject-09,1,1019,0.597610950469971,boat,bear,0,1019_scg_s09_0_bear_00_bear10-car2.png
subject-09,1,1020,0.684712886810303,cat,dog,0,1020_scg_s09_0_dog_00_dog3-truck2.png
subject-09,1,1021,0.844551801681519,bird,dog,0,1021_scg_s09_0_dog_00_dog2-bottle2.png
subject-09,1,1022,0.901861906051636,knife,knife,0,1022_scg_s09_0_knife_00_knife5-cat2.png
subject-09,1,1023,0.65385103225708,bicycle,bear,0,1023_scg_s09_0_bear_00_bear8-bottle1.png
subject-09,1,1024,0.81405782699585,bicycle,bicycle,0,1024_scg_s09_0_bicycle_00_bicycle5-chair2.png
subject-09,1,1025,0.98074197769165,car,car,0,1025_scg_s09_0_car_00_car2-bird3.png
subject-09,1,1026,0.569798946380615,car,car,0,1026_scg_s09_0_car_00_car8-knife2.png
subject-09,1,1027,0.72694206237793,bottle,bottle,0,1027_scg_s09_0_bottle_00_bottle9-keyboard1.png
subject-09,1,1028,0.770516872406006,cat,dog,0,1028_scg_s09_0_dog_00_dog4-keyboard2.png
subject-09,1,1029,0.652008056640625,bird,bird,0,1029_scg_s09_0_bird_00_bird8-car2.png
subject-09,1,1030,0.612690925598145,bird,bird,0,1030_scg_s09_0_bird_00_bird10-bird2.png
subject-09,1,1031,0.91572093963623,bear,bear,0,1031_scg_s09_0_bear_00_bear9-knife2.png
subject-09,1,1032,0.714056968688965,cat,knife,0,1032_scg_s09_0_knife_00_knife4-knife2.png
subject-09,1,1033,0.88667106628418,bird,airplane,0,1033_scg_s09_0_airplane_00_airplane3-elephant1.png
subject-09,1,1034,0.622493982315063,cat,bear,0,1034_scg_s09_0_bear_00_bear10-keyboard3.png
subject-09,1,1035,0.82032299041748,bicycle,bicycle,0,1035_scg_s09_0_bicycle_00_bicycle1-bottle3.png
subject-09,1,1036,0.556396007537842,cat,airplane,0,1036_scg_s09_0_airplane_00_airplane5-bottle3.png
subject-09,1,1037,0.684073925018311,keyboard,keyboard,0,1037_scg_s09_0_keyboard_00_keyboard9-truck3.png
subject-09,1,1038,0.614022970199585,truck,truck,0,1038_scg_s09_0_truck_00_truck2-car3.png
subject-09,1,1039,0.655097007751465,bird,boat,0,1039_scg_s09_0_boat_00_boat6-bicycle2.png
subject-09,1,1040,0.582875967025757,keyboard,keyboard,0,1040_scg_s09_0_keyboard_00_keyboard9-chair2.png
subject-09,1,1041,0.743562936782837,oven,oven,0,1041_scg_s09_0_oven_00_oven2-boat3.png
subject-09,1,1042,1.0405387878418,bear,cat,0,1042_scg_s09_0_cat_00_cat7-boat3.png
subject-09,1,1043,0.78175687789917,truck,truck,0,1043_scg_s09_0_truck_00_truck1-car3.png
subject-09,1,1044,0.850031137466431,bird,bird,0,1044_scg_s09_0_bird_00_bird1-airplane2.png
subject-09,1,1045,0.647835969924927,oven,oven,0,1045_scg_s09_0_oven_00_oven2-car1.png
subject-09,1,1046,1.02182102203369,bird,cat,0,1046_scg_s09_0_cat_00_cat4-car2.png
subject-09,1,1047,0.779297828674316,cat,cat,0,1047_scg_s09_0_cat_00_cat8-bicycle3.png
subject-09,1,1048,0.688549041748047,bicycle,bicycle,0,1048_scg_s09_0_bicycle_00_bicycle9-knife3.png
subject-09,1,1049,0.945873975753784,knife,knife,0,1049_scg_s09_0_knife_00_knife6-dog2.png
subject-09,1,1050,0.727858066558838,cat,bird,0,1050_scg_s09_0_bird_00_bird3-truck3.png
subject-09,1,1051,0.795912027359009,boat,airplane,0,1051_scg_s09_0_airplane_00_airplane3-airplane2.png
subject-09,1,1052,0.685621976852417,boat,boat,0,1052_scg_s09_0_boat_00_boat1-bicycle2.png
subject-09,1,1053,0.866862058639526,elephant,bear,0,1053_scg_s09_0_bear_00_bear3-truck3.png
subject-09,1,1054,1.01583290100098,dog,dog,0,1054_scg_s09_0_dog_00_dog6-bird1.png
subject-09,1,1055,0.68103289604187,clock,clock,0,1055_scg_s09_0_clock_00_clock1-car1.png
subject-09,1,1056,0.538355112075806,boat,boat,0,1056_scg_s09_0_boat_00_boat3-clock3.png
subject-09,1,1057,0.881601095199585,bear,bear,0,1057_scg_s09_0_bear_00_bear10-bottle1.png
subject-09,1,1058,0.53343391418457,cat,dog,0,1058_scg_s09_0_dog_00_dog4-truck2.png
subject-09,1,1059,0.945081949234009,car,dog,0,1059_scg_s09_0_dog_00_dog1-car2.png
subject-09,1,1060,1.31078505516052,chair,chair,0,1060_scg_s09_0_chair_00_chair8-oven1.png
subject-09,1,1061,0.578467845916748,clock,clock,0,1061_scg_s09_0_clock_00_clock6-knife2.png
subject-09,1,1062,0.836428880691528,bird,bird,0,1062_scg_s09_0_bird_00_bird10-clock1.png
subject-09,1,1063,1.50036001205444,bird,bird,0,1063_scg_s09_0_bird_00_bird2-knife1.png
subject-09,1,1064,1.16194915771484,elephant,elephant,0,1064_scg_s09_0_elephant_00_elephant9-dog3.png
subject-09,1,1065,0.567744016647339,clock,clock,0,1065_scg_s09_0_clock_00_clock10-dog3.png
subject-09,1,1066,0.395427942276001,cat,cat,0,1066_scg_s09_0_cat_00_cat3-bear2.png
subject-09,1,1067,0.469009160995483,chair,chair,0,1067_scg_s09_0_chair_00_chair8-airplane1.png
subject-09,1,1068,0.580450057983398,clock,clock,0,1068_scg_s09_0_clock_00_clock5-oven1.png
subject-09,1,1069,0.56477689743042,chair,chair,0,1069_scg_s09_0_chair_00_chair8-clock3.png
subject-09,1,1070,0.662845849990845,truck,truck,0,1070_scg_s09_0_truck_00_truck1-clock3.png
subject-09,1,1071,0.674737930297852,bicycle,dog,0,1071_scg_s09_0_dog_00_dog7-car2.png
subject-09,1,1072,0.718586206436157,chair,chair,0,1072_scg_s09_0_chair_00_chair5-truck3.png
subject-09,1,1073,0.770512104034424,chair,chair,0,1073_scg_s09_0_chair_00_chair5-keyboard2.png
subject-09,1,1074,0.660447835922241,truck,truck,0,1074_scg_s09_0_truck_00_truck4-oven2.png
subject-09,1,1075,0.625722169876099,cat,cat,0,1075_scg_s09_0_cat_00_cat1-airplane1.png
subject-09,1,1076,0.499276876449585,clock,clock,0,1076_scg_s09_0_clock_00_clock10-knife3.png
subject-09,1,1077,0.556387901306152,oven,bird,0,1077_scg_s09_0_bird_00_bird1-truck1.png
subject-09,1,1078,0.971181154251099,car,car,0,1078_scg_s09_0_car_00_car1-oven3.png
subject-09,1,1079,0.85250997543335,elephant,elephant,0,1079_scg_s09_0_elephant_00_elephant8-bicycle3.png
subject-09,1,1080,0.718173027038574,bear,bear,0,1080_scg_s09_0_bear_00_bear1-clock2.png
subject-09,1,1081,1.50037693977356,bear,bear,0,1081_scg_s09_0_bear_00_bear7-clock1.png
subject-09,1,1082,0.568213939666748,clock,clock,0,1082_scg_s09_0_clock_00_clock10-airplane1.png
subject-09,1,1083,0.949725151062012,truck,truck,0,1083_scg_s09_0_truck_00_truck1-cat1.png
subject-09,1,1084,0.479724884033203,clock,clock,0,1084_scg_s09_0_clock_00_clock6-bicycle1.png
subject-09,1,1085,0.567250967025757,clock,clock,0,1085_scg_s09_0_clock_00_clock8-cat1.png
subject-09,1,1086,0.718726873397827,bird,bottle,0,1086_scg_s09_0_bottle_00_bottle7-cat2.png
subject-09,1,1087,0.555138826370239,clock,clock,0,1087_scg_s09_0_clock_00_clock10-clock3.png
subject-09,1,1088,1.14064788818359,bicycle,bicycle,0,1088_scg_s09_0_bicycle_00_bicycle7-bicycle2.png
subject-09,1,1089,0.922051906585693,knife,knife,0,1089_scg_s09_0_knife_00_knife3-cat1.png
subject-09,1,1090,0.65761399269104,keyboard,keyboard,0,1090_scg_s09_0_keyboard_00_keyboard1-chair2.png
subject-09,1,1091,0.694599866867065,bear,bear,0,1091_scg_s09_0_bear_00_bear9-dog1.png
subject-09,1,1092,0.591979026794434,bird,bird,0,1092_scg_s09_0_bird_00_bird10-cat1.png
subject-09,1,1093,0.565369844436646,elephant,elephant,0,1093_scg_s09_0_elephant_00_elephant9-bicycle2.png
subject-09,1,1094,0.609172821044922,bottle,bottle,0,1094_scg_s09_0_bottle_00_bottle5-knife1.png
subject-09,1,1095,0.744907855987549,bird,cat,0,1095_scg_s09_0_cat_00_cat4-airplane1.png
subject-09,1,1096,0.948385953903198,truck,truck,0,1096_scg_s09_0_truck_00_truck3-dog3.png
