subj,session,trial,rt,object_response,category,condition,imagename
subject-02,1,1,0.525854110717773,truck,truck,0,0001_scg_s02_0_truck_00_truck9-chair3.png
subject-02,1,2,0.897367000579834,cat,cat,0,0002_scg_s02_0_cat_00_cat7-clock3.png
subject-02,1,3,0.785737037658691,chair,chair,0,0003_scg_s02_0_chair_00_chair1-chair1.png
subject-02,1,4,0.859831094741821,car,car,0,0004_scg_s02_0_car_00_car9-clock2.png
subject-02,1,5,0.649565935134888,bottle,bottle,0,0005_scg_s02_0_bottle_00_bottle9-keyboard1.png
subject-02,1,6,0.801066875457764,oven,oven,0,0006_scg_s02_0_oven_00_oven10-cat2.png
subject-02,1,7,0.821025848388672,bottle,bottle,0,0007_scg_s02_0_bottle_00_bottle7-airplane3.png
subject-02,1,8,0.940670967102051,clock,clock,0,0008_scg_s02_0_clock_00_clock10-dog3.png
subject-02,1,9,0.499963998794556,chair,chair,0,0009_scg_s02_0_chair_00_chair7-clock3.png
subject-02,1,10,0.757370948791504,keyboard,keyboard,0,0010_scg_s02_0_keyboard_00_keyboard5-bottle1.png
subject-02,1,11,0.877412080764771,car,car,0,0011_scg_s02_0_car_00_car5-airplane3.png
subject-02,1,12,0.794703960418701,car,car,0,0012_scg_s02_0_car_00_car2-bird3.png
subject-02,1,13,0.96806788444519,truck,truck,0,0013_scg_s02_0_truck_00_truck9-elephant1.png
subject-02,1,14,1.31807494163513,truck,truck,0,0014_scg_s02_0_truck_00_truck3-cat1.png
subject-02,1,15,0.685448884963989,clock,knife,0,0015_scg_s02_0_knife_00_knife3-clock2.png
subject-02,1,16,0.827036142349243,dog,dog,0,0016_scg_s02_0_dog_00_dog4-chair1.png
subject-02,1,17,1.3342821598053,bird,bird,0,0017_scg_s02_0_bird_00_bird7-bird2.png
subject-02,1,18,0.963379859924316,bear,bear,0,0018_scg_s02_0_bear_00_bear6-bear1.png
subject-02,1,19,0.96721887588501,knife,knife,0,0019_scg_s02_0_knife_00_knife6-bottle3.png
subject-02,1,20,1.08739185333252,bear,bear,0,0020_scg_s02_0_bear_00_bear5-bottle1.png
subject-02,1,21,1.18493294715881,bear,bear,0,0021_scg_s02_0_bear_00_bear7-truck1.png
subject-02,1,22,1.39961910247803,clock,truck,0,0022_scg_s02_0_truck_00_truck3-keyboard3.png
subject-02,1,23,0.80981707572937,keyboard,boat,0,0023_scg_s02_0_boat_00_boat3-keyboard2.png
subject-02,1,24,0.637151956558228,clock,clock,0,0024_scg_s02_0_clock_00_clock3-car2.png
subject-02,1,25,1.03277492523193,knife,knife,0,0025_scg_s02_0_knife_00_knife5-bicycle2.png
subject-02,1,26,0.830626964569092,bear,elephant,0,0026_scg_s02_0_elephant_00_elephant4-boat3.png
subject-02,1,27,0.92046594619751,cat,cat,0,0027_scg_s02_0_cat_00_cat5-airplane2.png
subject-02,1,28,1.10158586502075,elephant,bear,0,0028_scg_s02_0_bear_00_bear3-truck3.png
subject-02,1,29,1.01223683357239,cat,boat,0,0029_scg_s02_0_boat_00_boat6-dog1.png
subject-02,1,30,0.885104894638062,bottle,bottle,0,0030_scg_s02_0_bottle_00_bottle7-boat3.png
subject-02,1,31,1.08126306533813,oven,oven,0,0031_scg_s02_0_oven_00_oven4-elephant3.png
subject-02,1,32,1.18257617950439,dog,dog,0,0032_scg_s02_0_dog_00_dog9-bottle1.png
subject-02,1,33,0.910120010375977,oven,oven,0,0033_scg_s02_0_oven_00_oven3-boat3.png
subject-02,1,34,0.962145090103149,elephant,elephant,0,0034_scg_s02_0_elephant_00_elephant9-dog3.png
subject-02,1,35,0.5937340259552,bird,bird,0,0035_scg_s02_0_bird_00_bird5-bear3.png
subject-02,1,36,0.775218963623047,chair,chair,0,0036_scg_s02_0_chair_00_chair10-bottle3.png
subject-02,1,37,0.949021816253662,knife,airplane,0,0037_scg_s02_0_airplane_00_airplane4-bicycle2.png
subject-02,1,38,0.814600229263306,bird,airplane,0,0038_scg_s02_0_airplane_00_airplane10-dog3.png
subject-02,1,39,0.688348054885864,airplane,airplane,0,0039_scg_s02_0_airplane_00_airplane7-bird3.png
subject-02,1,40,0.601982116699219,bird,bird,0,0040_scg_s02_0_bird_00_bird9-dog2.png
subject-02,1,41,1.0376250743866,elephant,elephant,0,0041_scg_s02_0_elephant_00_elephant10-elephant1.png
subject-02,1,42,0.649426937103271,bear,bear,0,0042_scg_s02_0_bear_00_bear6-car2.png
subject-02,1,43,0.70901083946228,keyboard,keyboard,0,0043_scg_s02_0_keyboard_00_keyboard1-elephant3.png
subject-02,1,44,0.466521024703979,clock,clock,0,0044_scg_s02_0_clock_00_clock5-airplane1.png
subject-02,1,45,0.502101182937622,chair,chair,0,0045_scg_s02_0_chair_00_chair4-truck2.png
subject-02,1,46,0.491925954818726,bear,bear,0,0046_scg_s02_0_bear_00_bear10-elephant1.png
subject-02,1,47,0.52791690826416,cat,cat,0,0047_scg_s02_0_cat_00_cat6-oven1.png
subject-02,1,48,0.709736108779907,bird,bird,0,0048_scg_s02_0_bird_00_bird1-bear1.png
subject-02,1,49,0.683372974395752,bottle,bottle,0,0049_scg_s02_0_bottle_00_bottle9-bottle1.png
subject-02,1,50,0.651190996170044,knife,knife,0,0050_scg_s02_0_knife_00_knife10-knife1.png
subject-02,1,51,0.654778957366943,bicycle,bicycle,0,0051_scg_s02_0_bicycle_00_bicycle4-knife3.png
subject-02,1,52,0.698115110397339,dog,dog,0,0052_scg_s02_0_dog_00_dog10-keyboard2.png
subject-02,1,53,0.625627040863037,bicycle,bicycle,0,0053_scg_s02_0_bicycle_00_bicycle4-keyboard3.png
subject-02,1,54,0.783538103103638,dog,dog,0,0054_scg_s02_0_dog_00_dog9-bear3.png
subject-02,1,55,0.981751918792725,bear,elephant,0,0055_scg_s02_0_elephant_00_elephant6-oven1.png
subject-02,1,56,0.611125946044922,knife,knife,0,0056_scg_s02_0_knife_00_knife5-knife3.png
subject-02,1,57,0.714166879653931,bicycle,bicycle,0,0057_scg_s02_0_bicycle_00_bicycle4-boat1.png
subject-02,1,58,0.864141941070557,bear,bottle,0,0058_scg_s02_0_bottle_00_bottle6-knife3.png
subject-02,1,59,0.519960165023804,chair,chair,0,0059_scg_s02_0_chair_00_chair5-boat3.png
subject-02,1,60,1.04019689559937,bird,bird,0,0060_scg_s02_0_bird_00_bird6-car3.png
subject-02,1,61,0.975764989852905,knife,boat,0,0061_scg_s02_0_boat_00_boat4-car3.png
subject-02,1,62,1.16564202308655,keyboard,keyboard,0,0062_scg_s02_0_keyboard_00_keyboard6-bicycle1.png
subject-02,1,63,0.703888177871704,truck,truck,0,0063_scg_s02_0_truck_00_truck5-car1.png
subject-02,1,64,0.853232860565186,truck,truck,0,0064_scg_s02_0_truck_00_truck2-car3.png
subject-02,1,65,0.797207117080688,cat,boat,0,0065_scg_s02_0_boat_00_boat6-clock2.png
subject-02,1,66,0.692840099334717,bottle,bottle,0,0066_scg_s02_0_bottle_00_bottle1-keyboard3.png
subject-02,1,67,0.618817090988159,cat,cat,0,0067_scg_s02_0_cat_00_cat2-bottle3.png
subject-02,1,68,0.69781494140625,bird,bird,0,0068_scg_s02_0_bird_00_bird8-car2.png
subject-02,1,69,0.587498903274536,knife,airplane,0,0069_scg_s02_0_airplane_00_airplane4-knife1.png
subject-02,1,70,1.16139483451843,keyboard,keyboard,0,0070_scg_s02_0_keyboard_00_keyboard9-boat2.png
subject-02,1,71,0.87561297416687,truck,truck,0,0071_scg_s02_0_truck_00_truck2-boat3.png
subject-02,1,72,0.979014158248901,chair,chair,0,0072_scg_s02_0_chair_00_chair9-bicycle3.png
subject-02,1,73,0.852556943893433,truck,truck,0,0073_scg_s02_0_truck_00_truck5-bird2.png
subject-02,1,74,0.787785053253174,boat,boat,0,0074_scg_s02_0_boat_00_boat3-chair3.png
subject-02,1,75,0.507476806640625,chair,chair,0,0075_scg_s02_0_chair_00_chair10-oven1.png
subject-02,1,76,0.772561073303223,knife,knife,0,0076_scg_s02_0_knife_00_knife1-car3.png
subject-02,1,77,0.754196882247925,cat,bird,0,0077_scg_s02_0_bird_00_bird3-bear3.png
subject-02,1,78,0.68144416809082,truck,truck,0,0078_scg_s02_0_truck_00_truck10-clock1.png
subject-02,1,79,0.562052965164185,car,car,0,0079_scg_s02_0_car_00_car10-car1.png
subject-02,1,80,0.519682168960571,cat,cat,0,0080_scg_s02_0_cat_00_cat10-airplane3.png
subject-02,1,81,1.19363212585449,dog,dog,0,0081_scg_s02_0_dog_00_dog8-bear3.png
subject-02,1,82,1.00127577781677,bird,bird,0,0082_scg_s02_0_bird_00_bird5-car2.png
subject-02,1,83,1.50007200241089,bird,bird,0,0083_scg_s02_0_bird_00_bird3-truck3.png
subject-02,1,84,0.602226972579956,bottle,bottle,0,0084_scg_s02_0_bottle_00_bottle9-oven2.png
subject-02,1,85,1.40546107292175,elephant,elephant,0,0085_scg_s02_0_elephant_00_elephant1-dog2.png
subject-02,1,86,0.703164100646973,truck,cat,0,0086_scg_s02_0_cat_00_cat10-oven2.png
subject-02,1,87,1.25288486480713,car,car,0,0087_scg_s02_0_car_00_car4-clock1.png
subject-02,1,88,1.11263489723206,bear,bear,0,0088_scg_s02_0_bear_00_bear1-clock2.png
subject-02,1,89,0.954102993011475,truck,truck,0,0089_scg_s02_0_truck_00_truck1-clock3.png
subject-02,1,90,1.17399215698242,bottle,bottle,0,0090_scg_s02_0_bottle_00_bottle10-dog1.png
subject-02,1,91,1.00376105308533,elephant,elephant,0,0091_scg_s02_0_elephant_00_elephant6-dog2.png
subject-02,1,92,0.793838977813721,bicycle,bicycle,0,0092_scg_s02_0_bicycle_00_bicycle5-oven3.png
subject-02,1,93,0.913920164108276,elephant,elephant,0,0093_scg_s02_0_elephant_00_elephant3-oven1.png
subject-02,1,94,0.894760131835938,bottle,bottle,0,0094_scg_s02_0_bottle_00_bottle9-car3.png
subject-02,1,95,0.897580146789551,boat,dog,0,0095_scg_s02_0_dog_00_dog9-bicycle3.png
subject-02,1,96,0.774173021316528,elephant,elephant,0,0096_scg_s02_0_elephant_00_elephant6-bird1.png
subject-02,1,97,0.653300046920776,knife,knife,0,0097_scg_s02_0_knife_00_knife9-boat1.png
subject-02,1,98,0.734833002090454,bear,bear,0,0098_scg_s02_0_bear_00_bear9-bottle2.png
subject-02,1,99,0.516586065292358,cat,cat,0,0099_scg_s02_0_cat_00_cat1-airplane1.png
subject-02,1,100,0.920625925064087,bottle,bottle,0,0100_scg_s02_0_bottle_00_bottle8-keyboard3.png
subject-02,1,101,1.26489806175232,dog,elephant,0,0101_scg_s02_0_elephant_00_elephant2-keyboard3.png
subject-02,1,102,0.901187896728516,airplane,airplane,0,0102_scg_s02_0_airplane_00_airplane10-car3.png
subject-02,1,103,0.620039939880371,cat,knife,0,0103_scg_s02_0_knife_00_knife4-oven2.png
subject-02,1,104,1.01471614837646,dog,dog,0,0104_scg_s02_0_dog_00_dog3-bear3.png
subject-02,1,105,0.612636089324951,cat,cat,0,0105_scg_s02_0_cat_00_cat2-knife3.png
subject-02,1,106,0.886746883392334,airplane,knife,0,0106_scg_s02_0_knife_00_knife1-clock2.png
subject-02,1,107,0.622313022613525,car,car,0,0107_scg_s02_0_car_00_car9-keyboard2.png
subject-02,1,108,0.482767105102539,oven,oven,0,0108_scg_s02_0_oven_00_oven9-boat2.png
subject-02,1,109,0.718452930450439,bear,bear,0,0109_scg_s02_0_bear_00_bear4-knife1.png
subject-02,1,110,1.03797888755798,truck,truck,0,0110_scg_s02_0_truck_00_truck3-car3.png
subject-02,1,111,1.04210495948792,bear,bear,0,0111_scg_s02_0_bear_00_bear9-dog1.png
subject-02,1,112,0.746148109436035,oven,boat,0,0112_scg_s02_0_boat_00_boat1-bear1.png
subject-02,1,113,0.803740978240967,clock,clock,0,0113_scg_s02_0_clock_00_clock1-boat3.png
subject-02,1,114,0.7536301612854,dog,dog,0,0114_scg_s02_0_dog_00_dog1-cat3.png
subject-02,1,115,0.97606897354126,bird,bird,0,0115_scg_s02_0_bird_00_bird3-knife3.png
subject-02,1,116,0.690139055252075,clock,clock,0,0116_scg_s02_0_clock_00_clock3-keyboard3.png
subject-02,1,117,0.877851963043213,knife,knife,0,0117_scg_s02_0_knife_00_knife1-truck2.png
subject-02,1,118,0.728896856307983,bottle,bottle,0,0118_scg_s02_0_bottle_00_bottle5-boat1.png
subject-02,1,119,0.770836114883423,chair,oven,0,0119_scg_s02_0_oven_00_oven6-chair3.png
subject-02,1,120,0.759741067886353,bottle,bottle,0,0120_scg_s02_0_bottle_00_bottle5-keyboard2.png
subject-02,1,121,0.793522834777832,bicycle,bicycle,0,0121_scg_s02_0_bicycle_00_bicycle6-car2.png
subject-02,1,122,0.89137601852417,bear,bear,0,0122_scg_s02_0_bear_00_bear8-bicycle3.png
subject-02,1,123,0.626665115356445,cat,boat,0,0123_scg_s02_0_boat_00_boat9-keyboard2.png
subject-02,1,124,0.632542133331299,bear,bear,0,0124_scg_s02_0_bear_00_bear6-cat3.png
subject-02,1,125,0.752707004547119,bird,bird,0,0125_scg_s02_0_bird_00_bird7-car2.png
subject-02,1,126,0.810204029083252,truck,truck,0,0126_scg_s02_0_truck_00_truck7-boat1.png
subject-02,1,127,0.692121982574463,chair,chair,0,0127_scg_s02_0_chair_00_chair1-clock2.png
subject-02,1,128,0.611442089080811,bird,bird,0,0128_scg_s02_0_bird_00_bird5-truck2.png
subject-02,1,129,0.84735894203186,knife,knife,0,0129_scg_s02_0_knife_00_knife3-bear2.png
subject-02,1,130,1.04329204559326,bicycle,bicycle,0,0130_scg_s02_0_bicycle_00_bicycle1-airplane2.png
subject-02,1,131,0.665042161941528,clock,clock,0,0131_scg_s02_0_clock_00_clock6-oven1.png
subject-02,1,132,0.851709127426147,dog,dog,0,0132_scg_s02_0_dog_00_dog3-boat1.png
subject-02,1,133,0.871228933334351,bottle,bottle,0,0133_scg_s02_0_bottle_00_bottle7-clock1.png
subject-02,1,134,0.690299034118652,bear,bear,0,0134_scg_s02_0_bear_00_bear6-boat3.png
subject-02,1,135,0.884760141372681,bear,bear,0,0135_scg_s02_0_bear_00_bear1-bicycle3.png
subject-02,1,136,0.566490173339844,bird,bird,0,0136_scg_s02_0_bird_00_bird9-chair1.png
subject-02,1,137,0.740293025970459,car,car,0,0137_scg_s02_0_car_00_car6-elephant3.png
subject-02,1,138,0.568189859390259,cat,cat,0,0138_scg_s02_0_cat_00_cat9-truck1.png
subject-02,1,139,0.633781909942627,chair,chair,0,0139_scg_s02_0_chair_00_chair8-bear1.png
subject-02,1,140,0.707870960235596,clock,clock,0,0140_scg_s02_0_clock_00_clock9-airplane1.png
subject-02,1,141,0.789424180984497,truck,truck,0,0141_scg_s02_0_truck_00_truck6-dog2.png
subject-02,1,142,0.841665983200073,bird,bird,0,0142_scg_s02_0_bird_00_bird8-keyboard2.png
subject-02,1,143,0.658437013626099,bicycle,bicycle,0,0143_scg_s02_0_bicycle_00_bicycle2-bird3.png
subject-02,1,144,1.18578791618347,bear,bear,0,0144_scg_s02_0_bear_00_bear2-cat2.png
subject-02,1,145,1.0133171081543,cat,airplane,0,0145_scg_s02_0_airplane_00_airplane1-elephant1.png
subject-02,1,146,0.69483494758606,keyboard,keyboard,0,0146_scg_s02_0_keyboard_00_keyboard4-bird1.png
subject-02,1,147,0.636465787887573,truck,truck,0,0147_scg_s02_0_truck_00_truck1-bird1.png
subject-02,1,148,0.833867073059082,elephant,elephant,0,0148_scg_s02_0_elephant_00_elephant1-chair1.png
subject-02,1,149,0.569569826126099,bottle,bottle,0,0149_scg_s02_0_bottle_00_bottle6-bird1.png
subject-02,1,150,0.881280899047852,dog,dog,0,0150_scg_s02_0_dog_00_dog8-oven3.png
subject-02,1,151,0.676718950271606,oven,oven,0,0151_scg_s02_0_oven_00_oven2-bear3.png
subject-02,1,152,0.712337970733643,clock,boat,0,0152_scg_s02_0_boat_00_boat8-bottle1.png
subject-02,1,153,0.770096778869629,keyboard,keyboard,0,0153_scg_s02_0_keyboard_00_keyboard9-airplane3.png
subject-02,1,154,1.4034149646759,airplane,airplane,0,0154_scg_s02_0_airplane_00_airplane7-clock3.png
subject-02,1,155,1.03112602233887,clock,clock,0,0155_scg_s02_0_clock_00_clock8-boat1.png
subject-02,1,156,1.08081698417664,dog,dog,0,0156_scg_s02_0_dog_00_dog7-keyboard3.png
subject-02,1,157,1.05508804321289,boat,boat,0,0157_scg_s02_0_boat_00_boat9-cat3.png
subject-02,1,158,0.82707691192627,car,car,0,0158_scg_s02_0_car_00_car7-bear1.png
subject-02,1,159,0.99792218208313,dog,elephant,0,0159_scg_s02_0_elephant_00_elephant1-keyboard3.png
subject-02,1,160,1.30998206138611,bottle,bottle,0,0160_scg_s02_0_bottle_00_bottle4-car3.png
subject-02,1,161,0.710575103759766,bicycle,bicycle,0,0161_scg_s02_0_bicycle_00_bicycle1-elephant2.png
subject-02,1,162,0.730778932571411,car,car,0,0162_scg_s02_0_car_00_car8-bicycle2.png
subject-02,1,163,0.90382719039917,bird,airplane,0,0163_scg_s02_0_airplane_00_airplane3-keyboard2.png
subject-02,1,164,0.737349987030029,dog,dog,0,0164_scg_s02_0_dog_00_dog3-elephant2.png
subject-02,1,165,0.905683994293213,car,car,0,0165_scg_s02_0_car_00_car3-boat1.png
subject-02,1,166,0.662654161453247,keyboard,keyboard,0,0166_scg_s02_0_keyboard_00_keyboard1-bear2.png
subject-02,1,167,0.936486959457397,bottle,bottle,0,0167_scg_s02_0_bottle_00_bottle4-airplane1.png
subject-02,1,168,0.701675891876221,knife,knife,0,0168_scg_s02_0_knife_00_knife6-boat3.png
subject-02,1,169,0.621748924255371,keyboard,keyboard,0,0169_scg_s02_0_keyboard_00_keyboard5-dog3.png
subject-02,1,170,0.77349591255188,bicycle,bicycle,0,0170_scg_s02_0_bicycle_00_bicycle5-dog2.png
subject-02,1,171,1.06940102577209,car,car,0,0171_scg_s02_0_car_00_car1-chair3.png
subject-02,1,172,0.742063045501709,bear,bear,0,0172_scg_s02_0_bear_00_bear1-airplane3.png
subject-02,1,173,0.532679080963135,bottle,bottle,0,0173_scg_s02_0_bottle_00_bottle1-bear1.png
subject-02,1,174,1.01218700408936,elephant,elephant,0,0174_scg_s02_0_elephant_00_elephant4-clock3.png
subject-02,1,175,0.777586936950684,dog,dog,0,0175_scg_s02_0_dog_00_dog10-clock1.png
subject-02,1,176,1.05178380012512,bottle,bottle,0,0176_scg_s02_0_bottle_00_bottle10-clock2.png
subject-02,1,177,0.651733875274658,bird,bird,0,0177_scg_s02_0_bird_00_bird8-clock1.png
subject-02,1,178,0.768765926361084,keyboard,keyboard,0,0178_scg_s02_0_keyboard_00_keyboard3-bird3.png
subject-02,1,179,0.813262939453125,truck,truck,0,0179_scg_s02_0_truck_00_truck5-airplane2.png
subject-02,1,180,1.05455994606018,dog,boat,0,0180_scg_s02_0_boat_00_boat7-clock3.png
subject-02,1,181,0.82732105255127,bottle,bottle,0,0181_scg_s02_0_bottle_00_bottle3-chair3.png
subject-02,1,182,0.863308906555176,elephant,elephant,0,0182_scg_s02_0_elephant_00_elephant1-bear2.png
subject-02,1,183,0.496324062347412,bicycle,bicycle,0,0183_scg_s02_0_bicycle_00_bicycle2-bottle1.png
subject-02,1,184,1.04067993164062,bicycle,bicycle,0,0184_scg_s02_0_bicycle_00_bicycle9-keyboard3.png
subject-02,1,185,1.09068298339844,bear,bear,0,0185_scg_s02_0_bear_00_bear2-elephant1.png
subject-02,1,186,NaN,na,keyboard,0,0186_scg_s02_0_keyboard_00_keyboard7-truck2.png
subject-02,1,187,0.913390159606934,boat,boat,0,0187_scg_s02_0_boat_00_boat8-elephant1.png
subject-02,1,188,0.664804935455322,car,car,0,0188_scg_s02_0_car_00_car2-chair1.png
subject-02,1,189,0.959794044494629,truck,knife,0,0189_scg_s02_0_knife_00_knife2-truck2.png
subject-02,1,190,0.695574045181274,chair,chair,0,0190_scg_s02_0_chair_00_chair5-bird1.png
subject-02,1,191,0.561327934265137,clock,clock,0,0191_scg_s02_0_clock_00_clock5-keyboard1.png
subject-02,1,192,0.559031009674072,cat,cat,0,0192_scg_s02_0_cat_00_cat10-bird2.png
subject-02,1,193,0.578570127487183,chair,chair,0,0193_scg_s02_0_chair_00_chair5-bicycle1.png
subject-02,1,194,0.498341083526611,bicycle,bicycle,0,0194_scg_s02_0_bicycle_00_bicycle10-clock2.png
subject-02,1,195,0.539683103561401,chair,chair,0,0195_scg_s02_0_chair_00_chair10-bicycle1.png
subject-02,1,196,0.897193908691406,chair,boat,0,0196_scg_s02_0_boat_00_boat7-chair1.png
subject-02,1,197,0.456847190856934,chair,chair,0,0197_scg_s02_0_chair_00_chair10-car2.png
subject-02,1,198,0.66801381111145,knife,knife,0,0198_scg_s02_0_knife_00_knife7-bottle3.png
subject-02,1,199,0.579442977905273,bottle,bottle,0,0199_scg_s02_0_bottle_00_bottle1-car1.png
subject-02,1,200,0.92930793762207,bottle,bottle,0,0200_scg_s02_0_bottle_00_bottle3-knife3.png
subject-02,1,201,0.512456893920898,truck,truck,0,0201_scg_s02_0_truck_00_truck5-truck1.png
subject-02,1,202,0.940430164337158,knife,knife,0,0202_scg_s02_0_knife_00_knife6-bird1.png
subject-02,1,203,0.530622959136963,bird,bird,0,0203_scg_s02_0_bird_00_bird8-bottle1.png
subject-02,1,204,0.487752914428711,keyboard,keyboard,0,0204_scg_s02_0_keyboard_00_keyboard3-boat1.png
subject-02,1,205,0.813115119934082,knife,airplane,0,0205_scg_s02_0_airplane_00_airplane5-knife1.png
subject-02,1,206,0.88106894493103,truck,truck,0,0206_scg_s02_0_truck_00_truck3-chair2.png
subject-02,1,207,0.790061950683594,bear,bear,0,0207_scg_s02_0_bear_00_bear9-boat2.png
subject-02,1,208,0.947375059127808,car,car,0,0208_scg_s02_0_car_00_car6-bear1.png
subject-02,1,209,0.637657165527344,oven,oven,0,0209_scg_s02_0_oven_00_oven2-car1.png
subject-02,1,210,0.60102105140686,keyboard,keyboard,0,0210_scg_s02_0_keyboard_00_keyboard3-clock3.png
subject-02,1,211,0.535163879394531,cat,boat,0,0211_scg_s02_0_boat_00_boat6-bottle2.png
subject-02,1,212,0.486582040786743,clock,clock,0,0212_scg_s02_0_clock_00_clock3-bicycle2.png
subject-02,1,213,0.628423929214478,bicycle,bicycle,0,0213_scg_s02_0_bicycle_00_bicycle5-bottle3.png
subject-02,1,214,1.07873582839966,knife,knife,0,0214_scg_s02_0_knife_00_knife7-bird3.png
subject-02,1,215,0.600471973419189,car,car,0,0215_scg_s02_0_car_00_car5-bear3.png
subject-02,1,216,0.462400913238525,oven,oven,0,0216_scg_s02_0_oven_00_oven3-airplane1.png
subject-02,1,217,0.728001832962036,truck,truck,0,0217_scg_s02_0_truck_00_truck9-boat3.png
subject-02,1,218,0.655801773071289,bottle,bottle,0,0218_scg_s02_0_bottle_00_bottle8-bird1.png
subject-02,1,219,0.445868968963623,clock,clock,0,0219_scg_s02_0_clock_00_clock6-chair3.png
subject-02,1,220,0.57936692237854,car,car,0,0220_scg_s02_0_car_00_car4-elephant3.png
subject-02,1,221,0.636580944061279,keyboard,keyboard,0,0221_scg_s02_0_keyboard_00_keyboard1-clock1.png
subject-02,1,222,0.794493913650513,dog,dog,0,0222_scg_s02_0_dog_00_dog8-chair3.png
subject-02,1,223,0.828226089477539,knife,knife,0,0223_scg_s02_0_knife_00_knife4-airplane3.png
subject-02,1,224,0.847180128097534,airplane,airplane,0,0224_scg_s02_0_airplane_00_airplane6-keyboard3.png
subject-02,1,225,0.816994905471802,bicycle,bicycle,0,0225_scg_s02_0_bicycle_00_bicycle8-boat1.png
subject-02,1,226,0.723002910614014,clock,clock,0,0226_scg_s02_0_clock_00_clock5-chair3.png
subject-02,1,227,0.67235279083252,keyboard,keyboard,0,0227_scg_s02_0_keyboard_00_keyboard4-oven2.png
subject-02,1,228,0.646676063537598,cat,cat,0,0228_scg_s02_0_cat_00_cat4-knife1.png
subject-02,1,229,0.679968118667603,airplane,airplane,0,0229_scg_s02_0_airplane_00_airplane10-elephant1.png
subject-02,1,230,0.615272998809814,cat,cat,0,0230_scg_s02_0_cat_00_cat3-bicycle1.png
subject-02,1,231,0.85699200630188,truck,truck,0,0231_scg_s02_0_truck_00_truck4-bear1.png
subject-02,1,232,0.884366989135742,knife,knife,0,0232_scg_s02_0_knife_00_knife7-airplane3.png
subject-02,1,233,0.418050050735474,cat,cat,0,0233_scg_s02_0_cat_00_cat2-truck3.png
subject-02,1,234,0.612884998321533,clock,clock,0,0234_scg_s02_0_clock_00_clock8-truck2.png
subject-02,1,235,0.686731815338135,dog,dog,0,0235_scg_s02_0_dog_00_dog6-elephant2.png
subject-02,1,236,0.498477935791016,airplane,airplane,0,0236_scg_s02_0_airplane_00_airplane10-truck1.png
subject-02,1,237,0.888007164001465,dog,dog,0,0237_scg_s02_0_dog_00_dog1-bear1.png
subject-02,1,238,0.683418035507202,clock,clock,0,0238_scg_s02_0_clock_00_clock5-elephant2.png
subject-02,1,239,0.515760183334351,bicycle,bicycle,0,0239_scg_s02_0_bicycle_00_bicycle7-bicycle2.png
subject-02,1,240,0.611313819885254,bottle,bottle,0,0240_scg_s02_0_bottle_00_bottle6-bicycle3.png
subject-02,1,241,0.693464040756226,oven,oven,0,0241_scg_s02_0_oven_00_oven10-bear1.png
subject-02,1,242,0.528588056564331,clock,clock,0,0242_scg_s02_0_clock_00_clock7-dog2.png
subject-02,1,243,0.894691944122314,bird,elephant,0,0243_scg_s02_0_elephant_00_elephant2-truck2.png
subject-02,1,244,0.706437826156616,truck,car,0,0244_scg_s02_0_car_00_car1-oven3.png
subject-02,1,245,1.44583916664124,knife,knife,0,0245_scg_s02_0_knife_00_knife8-cat2.png
subject-02,1,246,0.567708015441895,chair,chair,0,0246_scg_s02_0_chair_00_chair7-car2.png
subject-02,1,247,1.09782195091248,cat,airplane,0,0247_scg_s02_0_airplane_00_airplane8-truck3.png
subject-02,1,248,0.749826908111572,boat,boat,0,0248_scg_s02_0_boat_00_boat2-airplane1.png
subject-02,1,249,0.553189039230347,chair,chair,0,0249_scg_s02_0_chair_00_chair10-airplane2.png
subject-02,1,250,1.01099014282227,oven,oven,0,0250_scg_s02_0_oven_00_oven2-dog3.png
subject-02,1,251,0.822767972946167,cat,dog,0,0251_scg_s02_0_dog_00_dog9-chair2.png
subject-02,1,252,0.550818920135498,boat,boat,0,0252_scg_s02_0_boat_00_boat7-oven3.png
subject-02,1,253,0.745573997497559,elephant,elephant,0,0253_scg_s02_0_elephant_00_elephant6-bottle2.png
subject-02,1,254,0.535136938095093,car,car,0,0254_scg_s02_0_car_00_car7-elephant3.png
subject-02,1,255,0.548223972320557,clock,clock,0,0255_scg_s02_0_clock_00_clock8-airplane2.png
subject-02,1,256,0.491148948669434,car,car,0,0256_scg_s02_0_car_00_car7-airplane2.png
subject-02,1,257,0.899136066436768,truck,truck,0,0257_scg_s02_0_truck_00_truck5-knife3.png
subject-02,1,258,0.588312864303589,bottle,bottle,0,0258_scg_s02_0_bottle_00_bottle1-chair2.png
subject-02,1,259,1.02213406562805,truck,oven,0,0259_scg_s02_0_oven_00_oven5-bird1.png
subject-02,1,260,0.89607310295105,car,bird,0,0260_scg_s02_0_bird_00_bird1-truck1.png
subject-02,1,261,0.785829067230225,bicycle,bicycle,0,0261_scg_s02_0_bicycle_00_bicycle7-truck3.png
subject-02,1,262,1.11121511459351,car,cat,0,0262_scg_s02_0_cat_00_cat4-car2.png
subject-02,1,263,0.801146984100342,knife,knife,0,0263_scg_s02_0_knife_00_knife9-elephant2.png
subject-02,1,264,0.599449872970581,cat,bird,0,0264_scg_s02_0_bird_00_bird2-dog2.png
subject-02,1,265,1.02483320236206,elephant,elephant,0,0265_scg_s02_0_elephant_00_elephant4-car3.png
subject-02,1,266,0.706429958343506,airplane,airplane,0,0266_scg_s02_0_airplane_00_airplane7-cat3.png
subject-02,1,267,0.694406986236572,elephant,elephant,0,0267_scg_s02_0_elephant_00_elephant10-bear1.png
subject-02,1,268,0.797842979431152,bird,bear,0,0268_scg_s02_0_bear_00_bear6-chair1.png
subject-02,1,269,0.833194017410278,dog,dog,0,0269_scg_s02_0_dog_00_dog4-bicycle1.png
subject-02,1,270,0.698925971984863,knife,boat,0,0270_scg_s02_0_boat_00_boat4-dog2.png
subject-02,1,271,0.969257116317749,chair,chair,0,0271_scg_s02_0_chair_00_chair7-truck3.png
subject-02,1,272,0.896852970123291,cat,cat,0,0272_scg_s02_0_cat_00_cat2-cat1.png
subject-02,1,273,0.562411069869995,truck,truck,0,0273_scg_s02_0_truck_00_truck8-bottle2.png
subject-02,1,274,0.558720111846924,airplane,airplane,0,0274_scg_s02_0_airplane_00_airplane6-bear3.png
subject-02,1,275,0.570592164993286,car,car,0,0275_scg_s02_0_car_00_car9-cat1.png
subject-02,1,276,0.797881841659546,airplane,airplane,0,0276_scg_s02_0_airplane_00_airplane3-oven1.png
subject-02,1,277,0.960622072219849,airplane,airplane,0,0277_scg_s02_0_airplane_00_airplane9-airplane2.png
subject-02,1,278,NaN,na,dog,0,0278_scg_s02_0_dog_00_dog7-chair2.png
subject-02,1,279,0.683698892593384,bicycle,bicycle,0,0279_scg_s02_0_bicycle_00_bicycle10-dog3.png
subject-02,1,280,1.06301093101501,truck,truck,0,0280_scg_s02_0_truck_00_truck3-knife2.png
subject-02,1,281,0.698874950408936,bottle,bottle,0,0281_scg_s02_0_bottle_00_bottle3-airplane2.png
subject-02,1,282,0.53229808807373,airplane,airplane,0,0282_scg_s02_0_airplane_00_airplane6-bottle2.png
subject-02,1,283,0.722172975540161,elephant,elephant,0,0283_scg_s02_0_elephant_00_elephant2-bottle3.png
subject-02,1,284,0.776120901107788,bird,bird,0,0284_scg_s02_0_bird_00_bird10-clock1.png
subject-02,1,285,0.804293155670166,chair,chair,0,0285_scg_s02_0_chair_00_chair2-bear2.png
subject-02,1,286,0.60807204246521,car,car,0,0286_scg_s02_0_car_00_car4-oven2.png
subject-02,1,287,0.519332885742188,knife,boat,0,0287_scg_s02_0_boat_00_boat1-bird3.png
subject-02,1,288,0.501246213912964,dog,dog,0,0288_scg_s02_0_dog_00_dog4-clock1.png
subject-02,1,289,0.56850790977478,boat,boat,0,0289_scg_s02_0_boat_00_boat5-clock3.png
subject-02,1,290,1.03384494781494,cat,boat,0,0290_scg_s02_0_boat_00_boat7-cat3.png
subject-02,1,291,0.545838832855225,boat,boat,0,0291_scg_s02_0_boat_00_boat8-oven1.png
subject-02,1,292,0.481726169586182,chair,chair,0,0292_scg_s02_0_chair_00_chair7-chair1.png
subject-02,1,293,0.555386066436768,cat,cat,0,0293_scg_s02_0_cat_00_cat5-elephant2.png
subject-02,1,294,0.766938924789429,knife,keyboard,0,0294_scg_s02_0_keyboard_00_keyboard9-elephant2.png
subject-02,1,295,0.54907488822937,bird,bird,0,0295_scg_s02_0_bird_00_bird5-bicycle1.png
subject-02,1,296,1.17438697814941,elephant,elephant,0,0296_scg_s02_0_elephant_00_elephant1-oven2.png
subject-02,1,297,0.480669021606445,cat,cat,0,0297_scg_s02_0_cat_00_cat8-bird2.png
subject-02,1,298,0.612687826156616,car,car,0,0298_scg_s02_0_car_00_car4-bear3.png
subject-02,1,299,0.762095928192139,clock,clock,0,0299_scg_s02_0_clock_00_clock8-chair2.png
subject-02,1,300,0.528367042541504,cat,cat,0,0300_scg_s02_0_cat_00_cat5-bear2.png
subject-02,1,301,0.956989049911499,bottle,bottle,0,0301_scg_s02_0_bottle_00_bottle2-knife3.png
subject-02,1,302,0.547185182571411,chair,chair,0,0302_scg_s02_0_chair_00_chair8-chair3.png
subject-02,1,303,1.08893990516663,dog,dog,0,0303_scg_s02_0_dog_00_dog10-oven2.png
subject-02,1,304,0.700299024581909,boat,boat,0,0304_scg_s02_0_boat_00_boat5-bicycle3.png
subject-02,1,305,0.914145946502686,truck,truck,0,0305_scg_s02_0_truck_00_truck3-bear3.png
subject-02,1,306,0.495553970336914,clock,clock,0,0306_scg_s02_0_clock_00_clock5-oven1.png
subject-02,1,307,0.737576007843018,oven,oven,0,0307_scg_s02_0_oven_00_oven3-bear2.png
subject-02,1,308,1.15562701225281,dog,dog,0,0308_scg_s02_0_dog_00_dog6-bird1.png
subject-02,1,309,0.807001829147339,airplane,airplane,0,0309_scg_s02_0_airplane_00_airplane10-bear3.png
subject-02,1,310,1.0108950138092,chair,chair,0,0310_scg_s02_0_chair_00_chair5-cat3.png
subject-02,1,311,0.668842792510986,chair,chair,0,0311_scg_s02_0_chair_00_chair1-bear1.png
subject-02,1,312,0.650392055511475,boat,boat,0,0312_scg_s02_0_boat_00_boat8-knife1.png
subject-02,1,313,0.732521057128906,knife,knife,0,0313_scg_s02_0_knife_00_knife10-oven3.png
subject-02,1,314,1.05044221878052,dog,dog,0,0314_scg_s02_0_dog_00_dog5-knife2.png
subject-02,1,315,0.594255924224854,bicycle,bicycle,0,0315_scg_s02_0_bicycle_00_bicycle5-elephant1.png
subject-02,1,316,0.692476034164429,bear,bear,0,0316_scg_s02_0_bear_00_bear3-bicycle2.png
subject-02,1,317,0.396394968032837,oven,oven,0,0317_scg_s02_0_oven_00_oven4-truck3.png
subject-02,1,318,0.545981884002686,clock,clock,0,0318_scg_s02_0_clock_00_clock6-knife2.png
subject-02,1,319,0.665467023849487,bicycle,bicycle,0,0319_scg_s02_0_bicycle_00_bicycle4-bicycle3.png
subject-02,1,320,0.572166919708252,oven,oven,0,0320_scg_s02_0_oven_00_oven3-elephant3.png
subject-02,1,321,0.667412996292114,keyboard,keyboard,0,0321_scg_s02_0_keyboard_00_keyboard5-cat1.png
subject-02,1,322,1.42324495315552,truck,truck,0,0322_scg_s02_0_truck_00_truck6-bear2.png
subject-02,1,323,0.915534973144531,knife,airplane,0,0323_scg_s02_0_airplane_00_airplane4-boat3.png
subject-02,1,324,0.80325984954834,truck,cat,0,0324_scg_s02_0_cat_00_cat10-bottle1.png
subject-02,1,325,0.555323123931885,oven,oven,0,0325_scg_s02_0_oven_00_oven3-knife1.png
subject-02,1,326,0.642833948135376,airplane,airplane,0,0326_scg_s02_0_airplane_00_airplane4-elephant1.png
subject-02,1,327,0.684406042098999,chair,chair,0,0327_scg_s02_0_chair_00_chair8-clock3.png
subject-02,1,328,0.826620101928711,dog,dog,0,0328_scg_s02_0_dog_00_dog2-cat1.png
subject-02,1,329,0.786303043365479,bear,bear,0,0329_scg_s02_0_bear_00_bear1-elephant1.png
subject-02,1,330,1.11961698532104,bird,bear,0,0330_scg_s02_0_bear_00_bear3-chair2.png
subject-02,1,331,0.501215934753418,clock,clock,0,0331_scg_s02_0_clock_00_clock8-keyboard1.png
subject-02,1,332,0.59646201133728,car,car,0,0332_scg_s02_0_car_00_car3-elephant3.png
subject-02,1,333,0.586488008499146,cat,bear,0,0333_scg_s02_0_bear_00_bear6-bird2.png
subject-02,1,334,0.752149105072021,knife,knife,0,0334_scg_s02_0_knife_00_knife8-truck3.png
subject-02,1,335,0.631947994232178,cat,cat,0,0335_scg_s02_0_cat_00_cat6-bear1.png
subject-02,1,336,1.50018906593323,dog,elephant,0,0336_scg_s02_0_elephant_00_elephant2-cat1.png
subject-02,1,337,0.741683006286621,oven,oven,0,0337_scg_s02_0_oven_00_oven9-knife3.png
subject-02,1,338,0.59221887588501,clock,clock,0,0338_scg_s02_0_clock_00_clock5-clock2.png
subject-02,1,339,0.694796085357666,oven,oven,0,0339_scg_s02_0_oven_00_oven7-cat1.png
subject-02,1,340,0.598927021026611,boat,boat,0,0340_scg_s02_0_boat_00_boat3-airplane2.png
subject-02,1,341,0.510202169418335,cat,cat,0,0341_scg_s02_0_cat_00_cat1-dog1.png
subject-02,1,342,1.18017292022705,cat,cat,0,0342_scg_s02_0_cat_00_cat10-bear1.png
subject-02,1,343,0.661568164825439,airplane,airplane,0,0343_scg_s02_0_airplane_00_airplane9-car2.png
subject-02,1,344,0.626795053482056,clock,clock,0,0344_scg_s02_0_clock_00_clock6-bottle1.png
subject-02,1,345,0.844051122665405,bicycle,bicycle,0,0345_scg_s02_0_bicycle_00_bicycle10-airplane2.png
subject-02,1,346,0.479635953903198,bottle,bottle,0,0346_scg_s02_0_bottle_00_bottle2-clock1.png
subject-02,1,347,0.85918402671814,car,car,0,0347_scg_s02_0_car_00_car2-car3.png
subject-02,1,348,0.549880981445312,airplane,airplane,0,0348_scg_s02_0_airplane_00_airplane9-truck1.png
subject-02,1,349,0.661187171936035,truck,truck,0,0349_scg_s02_0_truck_00_truck2-keyboard1.png
subject-02,1,350,0.913331031799316,cat,cat,0,0350_scg_s02_0_cat_00_cat4-oven1.png
subject-02,1,351,0.578813076019287,knife,knife,0,0351_scg_s02_0_knife_00_knife1-elephant1.png
subject-02,1,352,0.736903190612793,car,car,0,0352_scg_s02_0_car_00_car8-cat1.png
subject-02,1,353,0.77836799621582,car,car,0,0353_scg_s02_0_car_00_car4-car2.png
subject-02,1,354,0.70634913444519,bird,bird,0,0354_scg_s02_0_bird_00_bird5-keyboard2.png
subject-02,1,355,0.926238059997559,cat,cat,0,0355_scg_s02_0_cat_00_cat5-bottle1.png
subject-02,1,356,0.508264780044556,bicycle,bicycle,0,0356_scg_s02_0_bicycle_00_bicycle2-knife2.png
subject-02,1,357,1.32184910774231,truck,boat,0,0357_scg_s02_0_boat_00_boat10-cat1.png
subject-02,1,358,0.695477962493896,airplane,airplane,0,0358_scg_s02_0_airplane_00_airplane9-clock1.png
subject-02,1,359,0.931043148040771,bear,bear,0,0359_scg_s02_0_bear_00_bear2-dog1.png
subject-02,1,360,0.610539197921753,bottle,bottle,0,0360_scg_s02_0_bottle_00_bottle8-bicycle1.png
subject-02,1,361,0.746277093887329,knife,knife,0,0361_scg_s02_0_knife_00_knife5-dog1.png
subject-02,1,362,0.741605997085571,bear,bear,0,0362_scg_s02_0_bear_00_bear4-oven2.png
subject-02,1,363,0.583740949630737,car,car,0,0363_scg_s02_0_car_00_car3-bird2.png
subject-02,1,364,0.656780958175659,elephant,elephant,0,0364_scg_s02_0_elephant_00_elephant8-knife2.png
subject-02,1,365,0.799077033996582,bear,bear,0,0365_scg_s02_0_bear_00_bear4-truck3.png
subject-02,1,366,0.558793067932129,cat,cat,0,0366_scg_s02_0_cat_00_cat5-keyboard3.png
subject-02,1,367,0.570158958435059,clock,clock,0,0367_scg_s02_0_clock_00_clock1-car1.png
subject-02,1,368,0.720464944839478,dog,dog,0,0368_scg_s02_0_dog_00_dog5-bear3.png
subject-02,1,369,0.568789958953857,oven,oven,0,0369_scg_s02_0_oven_00_oven4-bicycle2.png
subject-02,1,370,0.748275995254517,bear,bear,0,0370_scg_s02_0_bear_00_bear5-oven3.png
subject-02,1,371,0.89264702796936,truck,bird,0,0371_scg_s02_0_bird_00_bird7-knife2.png
subject-02,1,372,0.512118101119995,clock,clock,0,0372_scg_s02_0_clock_00_clock10-bird3.png
subject-02,1,373,0.6078200340271,cat,bird,0,0373_scg_s02_0_bird_00_bird7-truck2.png
subject-02,1,374,0.981740951538086,knife,keyboard,0,0374_scg_s02_0_keyboard_00_keyboard3-elephant2.png
subject-02,1,375,0.60982084274292,airplane,airplane,0,0375_scg_s02_0_airplane_00_airplane5-bicycle1.png
subject-02,1,376,0.759407043457031,bear,elephant,0,0376_scg_s02_0_elephant_00_elephant4-bird1.png
subject-02,1,377,1.0799400806427,airplane,airplane,0,0377_scg_s02_0_airplane_00_airplane4-bottle1.png
subject-02,1,378,0.59040904045105,dog,cat,0,0378_scg_s02_0_cat_00_cat7-airplane2.png
subject-02,1,379,0.753890991210938,clock,clock,0,0379_scg_s02_0_clock_00_clock10-truck2.png
subject-02,1,380,0.573452949523926,clock,clock,0,0380_scg_s02_0_clock_00_clock7-bicycle1.png
subject-02,1,381,0.441581964492798,bottle,bottle,0,0381_scg_s02_0_bottle_00_bottle5-knife1.png
subject-02,1,382,0.628951072692871,boat,boat,0,0382_scg_s02_0_boat_00_boat9-clock1.png
subject-02,1,383,0.909197807312012,bicycle,bicycle,0,0383_scg_s02_0_bicycle_00_bicycle9-cat3.png
subject-02,1,384,0.745007991790771,truck,truck,0,0384_scg_s02_0_truck_00_truck2-bottle3.png
subject-02,1,385,0.610620021820068,keyboard,keyboard,0,0385_scg_s02_0_keyboard_00_keyboard4-knife2.png
subject-02,1,386,0.592878103256226,bear,bear,0,0386_scg_s02_0_bear_00_bear10-bottle1.png
subject-02,1,387,1.04257917404175,dog,dog,0,0387_scg_s02_0_dog_00_dog10-truck2.png
subject-02,1,388,1.12760996818542,car,car,0,0388_scg_s02_0_car_00_car7-keyboard3.png
subject-02,1,389,0.541388034820557,bottle,bottle,0,0389_scg_s02_0_bottle_00_bottle4-dog2.png
subject-02,1,390,1.05088996887207,keyboard,knife,0,0390_scg_s02_0_knife_00_knife9-bottle2.png
subject-02,1,391,0.748151063919067,knife,knife,0,0391_scg_s02_0_knife_00_knife6-oven3.png
subject-02,1,392,0.497848033905029,oven,oven,0,0392_scg_s02_0_oven_00_oven6-truck1.png
subject-02,1,393,0.725682973861694,chair,chair,0,0393_scg_s02_0_chair_00_chair5-bottle3.png
subject-02,1,394,0.738212823867798,bottle,bottle,0,0394_scg_s02_0_bottle_00_bottle9-elephant2.png
subject-02,1,395,0.665838003158569,oven,oven,0,0395_scg_s02_0_oven_00_oven3-bottle3.png
subject-02,1,396,1.04551911354065,elephant,elephant,0,0396_scg_s02_0_elephant_00_elephant9-chair2.png
subject-02,1,397,NaN,na,car,0,0397_scg_s02_0_car_00_car7-car1.png
subject-02,1,398,1.00128102302551,elephant,elephant,0,0398_scg_s02_0_elephant_00_elephant8-cat1.png
subject-02,1,399,0.920798063278198,bear,elephant,0,0399_scg_s02_0_elephant_00_elephant2-bird1.png
subject-02,1,400,0.57045316696167,bear,bear,0,0400_scg_s02_0_bear_00_bear4-clock3.png
subject-02,1,401,1.32525706291199,keyboard,keyboard,0,0401_scg_s02_0_keyboard_00_keyboard6-chair1.png
subject-02,1,402,0.861856937408447,bear,bear,0,0402_scg_s02_0_bear_00_bear8-knife3.png
subject-02,1,403,0.922437906265259,bottle,bottle,0,0403_scg_s02_0_bottle_00_bottle4-oven2.png
subject-02,1,404,0.839689970016479,chair,chair,0,0404_scg_s02_0_chair_00_chair6-bird2.png
subject-02,1,405,1.2062029838562,dog,dog,0,0405_scg_s02_0_dog_00_dog8-keyboard3.png
subject-02,1,406,0.487737894058228,knife,boat,0,0406_scg_s02_0_boat_00_boat1-keyboard3.png
subject-02,1,407,0.804089069366455,oven,oven,0,0407_scg_s02_0_oven_00_oven4-dog1.png
subject-02,1,408,0.778016805648804,cat,cat,0,0408_scg_s02_0_cat_00_cat7-boat3.png
subject-02,1,409,0.89806079864502,knife,bird,0,0409_scg_s02_0_bird_00_bird6-elephant2.png
subject-02,1,410,0.739758014678955,bicycle,bicycle,0,0410_scg_s02_0_bicycle_00_bicycle3-bird1.png
subject-02,1,411,0.762113094329834,clock,clock,0,0411_scg_s02_0_clock_00_clock7-car1.png
subject-02,1,412,1.18801999092102,car,car,0,0412_scg_s02_0_car_00_car8-chair1.png
subject-02,1,413,0.975593090057373,boat,boat,0,0413_scg_s02_0_boat_00_boat5-car3.png
subject-02,1,414,0.912060022354126,bird,bird,0,0414_scg_s02_0_bird_00_bird5-bird1.png
subject-02,1,415,0.952638864517212,dog,dog,0,0415_scg_s02_0_dog_00_dog3-bird2.png
subject-02,1,416,0.910476922988892,airplane,airplane,0,0416_scg_s02_0_airplane_00_airplane10-airplane1.png
subject-02,1,417,0.754238843917847,boat,boat,0,0417_scg_s02_0_boat_00_boat10-truck1.png
subject-02,1,418,0.972208023071289,car,car,0,0418_scg_s02_0_car_00_car10-chair1.png
subject-02,1,419,0.624032974243164,oven,oven,0,0419_scg_s02_0_oven_00_oven5-dog3.png
subject-02,1,420,0.904046058654785,keyboard,keyboard,0,0420_scg_s02_0_keyboard_00_keyboard5-bear3.png
subject-02,1,421,1.50021505355835,airplane,airplane,0,0421_scg_s02_0_airplane_00_airplane4-keyboard3.png
subject-02,1,422,1.13088703155518,chair,chair,0,0422_scg_s02_0_chair_00_chair1-dog1.png
subject-02,1,423,0.650669097900391,oven,oven,0,0423_scg_s02_0_oven_00_oven6-knife3.png
subject-02,1,424,0.716413021087646,car,car,0,0424_scg_s02_0_car_00_car8-boat3.png
subject-02,1,425,0.98819899559021,clock,clock,0,0425_scg_s02_0_clock_00_clock7-boat3.png
subject-02,1,426,1.35391688346863,knife,knife,0,0426_scg_s02_0_knife_00_knife4-keyboard1.png
subject-02,1,427,0.873481035232544,knife,knife,0,0427_scg_s02_0_knife_00_knife4-clock3.png
subject-02,1,428,0.726226091384888,knife,knife,0,0428_scg_s02_0_knife_00_knife9-bicycle1.png
subject-02,1,429,0.643553018569946,car,car,0,0429_scg_s02_0_car_00_car4-cat3.png
subject-02,1,430,1.05473494529724,bicycle,bicycle,0,0430_scg_s02_0_bicycle_00_bicycle5-chair2.png
subject-02,1,431,0.736697912216187,car,car,0,0431_scg_s02_0_car_00_car6-chair3.png
subject-02,1,432,0.786641120910645,bottle,bottle,0,0432_scg_s02_0_bottle_00_bottle6-airplane1.png
subject-02,1,433,0.673950910568237,elephant,elephant,0,0433_scg_s02_0_elephant_00_elephant5-elephant1.png
subject-02,1,434,0.561264038085938,bird,bird,0,0434_scg_s02_0_bird_00_bird10-elephant2.png
subject-02,1,435,0.943154096603394,chair,chair,0,0435_scg_s02_0_chair_00_chair9-keyboard2.png
subject-02,1,436,0.50885796546936,bicycle,bicycle,0,0436_scg_s02_0_bicycle_00_bicycle9-bear1.png
subject-02,1,437,0.544772863388062,cat,boat,0,0437_scg_s02_0_boat_00_boat6-airplane2.png
subject-02,1,438,1.17044901847839,bear,bear,0,0438_scg_s02_0_bear_00_bear3-cat1.png
subject-02,1,439,0.644347906112671,bicycle,bicycle,0,0439_scg_s02_0_bicycle_00_bicycle6-boat2.png
subject-02,1,440,0.702094078063965,bird,bird,0,0440_scg_s02_0_bird_00_bird10-chair1.png
subject-02,1,441,0.654014110565186,chair,chair,0,0441_scg_s02_0_chair_00_chair1-truck3.png
subject-02,1,442,0.801369905471802,oven,oven,0,0442_scg_s02_0_oven_00_oven10-airplane2.png
subject-02,1,443,0.60778284072876,oven,oven,0,0443_scg_s02_0_oven_00_oven1-boat3.png
subject-02,1,444,0.681452035903931,chair,knife,0,0444_scg_s02_0_knife_00_knife10-chair1.png
subject-02,1,445,1.04922699928284,elephant,elephant,0,0445_scg_s02_0_elephant_00_elephant9-boat3.png
subject-02,1,446,0.692704916000366,car,car,0,0446_scg_s02_0_car_00_car1-dog2.png
subject-02,1,447,0.713202953338623,truck,truck,0,0447_scg_s02_0_truck_00_truck6-knife2.png
subject-02,1,448,0.562604188919067,oven,oven,0,0448_scg_s02_0_oven_00_oven4-clock2.png
subject-02,1,449,0.731231927871704,car,dog,0,0449_scg_s02_0_dog_00_dog6-truck2.png
subject-02,1,450,0.918618202209473,elephant,elephant,0,0450_scg_s02_0_elephant_00_elephant3-knife1.png
subject-02,1,451,0.337552070617676,boat,boat,0,0451_scg_s02_0_boat_00_boat8-truck2.png
subject-02,1,452,0.630860090255737,bicycle,bicycle,0,0452_scg_s02_0_bicycle_00_bicycle1-knife3.png
subject-02,1,453,0.972320795059204,bottle,bottle,0,0453_scg_s02_0_bottle_00_bottle9-cat2.png
subject-02,1,454,1.13809680938721,car,boat,0,0454_scg_s02_0_boat_00_boat6-bicycle2.png
subject-02,1,455,0.506132841110229,oven,oven,0,0455_scg_s02_0_oven_00_oven4-keyboard3.png
subject-02,1,456,0.717940092086792,oven,oven,0,0456_scg_s02_0_oven_00_oven2-bird2.png
subject-02,1,457,0.543904066085815,clock,clock,0,0457_scg_s02_0_clock_00_clock8-bear2.png
subject-02,1,458,0.718142986297607,clock,clock,0,0458_scg_s02_0_clock_00_clock10-cat1.png
subject-02,1,459,0.770241022109985,keyboard,keyboard,0,0459_scg_s02_0_keyboard_00_keyboard6-bear2.png
subject-02,1,460,0.779896020889282,clock,clock,0,0460_scg_s02_0_clock_00_clock7-bear2.png
subject-02,1,461,0.707353115081787,chair,chair,0,0461_scg_s02_0_chair_00_chair8-knife2.png
subject-02,1,462,0.588865995407104,bicycle,bicycle,0,0462_scg_s02_0_bicycle_00_bicycle6-dog2.png
subject-02,1,463,1.05258297920227,dog,bird,0,0463_scg_s02_0_bird_00_bird1-keyboard3.png
subject-02,1,464,0.78590202331543,boat,boat,0,0464_scg_s02_0_boat_00_boat9-chair2.png
subject-02,1,465,0.621938943862915,clock,clock,0,0465_scg_s02_0_clock_00_clock10-airplane1.png
subject-02,1,466,0.787898063659668,cat,cat,0,0466_scg_s02_0_cat_00_cat9-chair2.png
subject-02,1,467,0.899035215377808,bird,bird,0,0467_scg_s02_0_bird_00_bird5-dog2.png
subject-02,1,468,0.808494091033936,car,car,0,0468_scg_s02_0_car_00_car8-airplane3.png
subject-02,1,469,0.720115184783936,keyboard,keyboard,0,0469_scg_s02_0_keyboard_00_keyboard4-bottle2.png
subject-02,1,470,0.693279981613159,oven,oven,0,0470_scg_s02_0_oven_00_oven9-keyboard1.png
subject-02,1,471,0.922729015350342,chair,chair,0,0471_scg_s02_0_chair_00_chair9-boat2.png
subject-02,1,472,1.0717990398407,truck,truck,0,0472_scg_s02_0_truck_00_truck1-cat1.png
subject-02,1,473,1.11398792266846,truck,truck,0,0473_scg_s02_0_truck_00_truck1-chair2.png
subject-02,1,474,0.625663995742798,keyboard,keyboard,0,0474_scg_s02_0_keyboard_00_keyboard5-knife2.png
subject-02,1,475,0.620781898498535,bird,bird,0,0475_scg_s02_0_bird_00_bird5-airplane3.png
subject-02,1,476,0.890700101852417,chair,chair,0,0476_scg_s02_0_chair_00_chair9-bottle3.png
subject-02,1,477,1.50021004676819,airplane,airplane,0,0477_scg_s02_0_airplane_00_airplane5-bear2.png
subject-02,1,478,0.56052303314209,boat,boat,0,0478_scg_s02_0_boat_00_boat9-airplane2.png
subject-02,1,479,0.609864950180054,chair,chair,0,0479_scg_s02_0_chair_00_chair7-knife2.png
subject-02,1,480,0.499712944030762,bicycle,bicycle,0,0480_scg_s02_0_bicycle_00_bicycle4-bottle1.png
subject-02,1,481,0.758154153823853,elephant,elephant,0,0481_scg_s02_0_elephant_00_elephant8-truck3.png
subject-02,1,482,0.707623958587646,car,car,0,0482_scg_s02_0_car_00_car5-keyboard3.png
subject-02,1,483,0.763174057006836,boat,boat,0,0483_scg_s02_0_boat_00_boat3-dog3.png
subject-02,1,484,0.669258117675781,keyboard,keyboard,0,0484_scg_s02_0_keyboard_00_keyboard10-airplane3.png
subject-02,1,485,0.749175071716309,bicycle,bicycle,0,0485_scg_s02_0_bicycle_00_bicycle4-airplane1.png
subject-02,1,486,0.646875143051147,bear,bear,0,0486_scg_s02_0_bear_00_bear5-boat2.png
subject-02,1,487,0.865084171295166,cat,bird,0,0487_scg_s02_0_bird_00_bird2-clock3.png
subject-02,1,488,0.717822074890137,airplane,airplane,0,0488_scg_s02_0_airplane_00_airplane4-bird3.png
subject-02,1,489,0.721155881881714,truck,truck,0,0489_scg_s02_0_truck_00_truck2-airplane3.png
subject-02,1,490,0.494667053222656,oven,oven,0,0490_scg_s02_0_oven_00_oven4-knife2.png
subject-02,1,491,0.807042121887207,airplane,bird,0,0491_scg_s02_0_bird_00_bird7-boat1.png
subject-02,1,492,0.678345203399658,boat,airplane,0,0492_scg_s02_0_airplane_00_airplane2-cat1.png
subject-02,1,493,0.651803016662598,keyboard,keyboard,0,0493_scg_s02_0_keyboard_00_keyboard7-boat2.png
subject-02,1,494,0.825749158859253,chair,chair,0,0494_scg_s02_0_chair_00_chair3-airplane2.png
subject-02,1,495,0.95438289642334,oven,oven,0,0495_scg_s02_0_oven_00_oven9-bird3.png
subject-02,1,496,1.03426098823547,car,bear,0,0496_scg_s02_0_bear_00_bear10-car2.png
subject-02,1,497,1.16753602027893,chair,chair,0,0497_scg_s02_0_chair_00_chair8-boat1.png
subject-02,1,498,0.840903997421265,keyboard,knife,0,0498_scg_s02_0_knife_00_knife2-bottle2.png
subject-02,1,499,0.776691913604736,oven,oven,0,0499_scg_s02_0_oven_00_oven9-chair1.png
subject-02,1,500,1.41656804084778,chair,elephant,0,0500_scg_s02_0_elephant_00_elephant7-dog1.png
subject-02,1,501,0.570344924926758,cat,cat,0,0501_scg_s02_0_cat_00_cat8-bicycle3.png
subject-02,1,502,1.13852000236511,car,car,0,0502_scg_s02_0_car_00_car5-oven2.png
subject-02,1,503,0.921052217483521,keyboard,keyboard,0,0503_scg_s02_0_keyboard_00_keyboard1-chair2.png
subject-02,1,504,0.602812051773071,cat,cat,0,0504_scg_s02_0_cat_00_cat4-cat3.png
subject-02,1,505,0.766372919082642,oven,oven,0,0505_scg_s02_0_oven_00_oven3-truck1.png
subject-02,1,506,0.594058990478516,bicycle,bicycle,0,0506_scg_s02_0_bicycle_00_bicycle9-chair1.png
subject-02,1,507,0.690253973007202,clock,clock,0,0507_scg_s02_0_clock_00_clock4-knife1.png
subject-02,1,508,0.864171981811523,bicycle,bicycle,0,0508_scg_s02_0_bicycle_00_bicycle8-chair2.png
subject-02,1,509,1.33550405502319,knife,knife,0,0509_scg_s02_0_knife_00_knife6-airplane1.png
subject-02,1,510,0.703053951263428,dog,dog,0,0510_scg_s02_0_dog_00_dog10-dog1.png
subject-02,1,511,0.669506072998047,bottle,bottle,0,0511_scg_s02_0_bottle_00_bottle6-oven3.png
subject-02,1,512,0.38112998008728,clock,clock,0,0512_scg_s02_0_clock_00_clock3-elephant3.png
subject-02,1,513,0.628556966781616,chair,chair,0,0513_scg_s02_0_chair_00_chair2-knife1.png
subject-02,1,514,0.502274990081787,bear,bear,0,0514_scg_s02_0_bear_00_bear8-dog1.png
subject-02,1,515,0.813405990600586,airplane,airplane,0,0515_scg_s02_0_airplane_00_airplane5-bottle3.png
subject-02,1,516,0.747459888458252,car,car,0,0516_scg_s02_0_car_00_car4-boat1.png
subject-02,1,517,0.889103174209595,chair,chair,0,0517_scg_s02_0_chair_00_chair4-oven2.png
subject-02,1,518,0.65371298789978,knife,knife,0,0518_scg_s02_0_knife_00_knife10-dog1.png
subject-02,1,519,0.657096862792969,car,truck,0,0519_scg_s02_0_truck_00_truck6-cat2.png
subject-02,1,520,0.798620939254761,boat,dog,0,0520_scg_s02_0_dog_00_dog2-knife3.png
subject-02,1,521,0.862340927124023,dog,dog,0,0521_scg_s02_0_dog_00_dog3-knife3.png
subject-02,1,522,0.643889188766479,truck,truck,0,0522_scg_s02_0_truck_00_truck10-bicycle1.png
subject-02,1,523,0.890698909759521,airplane,airplane,0,0523_scg_s02_0_airplane_00_airplane5-chair3.png
subject-02,1,524,0.910352945327759,oven,oven,0,0524_scg_s02_0_oven_00_oven10-bicycle1.png
subject-02,1,525,0.484018802642822,clock,clock,0,0525_scg_s02_0_clock_00_clock8-oven3.png
subject-02,1,526,0.605980157852173,bird,bird,0,0526_scg_s02_0_bird_00_bird8-knife2.png
subject-02,1,527,0.987571001052856,chair,chair,0,0527_scg_s02_0_chair_00_chair4-bear2.png
subject-02,1,528,0.629492998123169,boat,boat,0,0528_scg_s02_0_boat_00_boat3-cat3.png
subject-02,1,529,0.97119402885437,bear,bear,0,0529_scg_s02_0_bear_00_bear10-chair2.png
subject-02,1,530,0.515058040618896,boat,boat,0,0530_scg_s02_0_boat_00_boat9-bird1.png
subject-02,1,531,0.505151033401489,airplane,airplane,0,0531_scg_s02_0_airplane_00_airplane7-bottle3.png
subject-02,1,532,0.551797151565552,car,car,0,0532_scg_s02_0_car_00_car10-dog1.png
subject-02,1,533,0.547137975692749,bicycle,bicycle,0,0533_scg_s02_0_bicycle_00_bicycle1-bottle3.png
subject-02,1,534,0.781263828277588,bear,bear,0,0534_scg_s02_0_bear_00_bear8-truck3.png
subject-02,1,535,0.41742992401123,oven,oven,0,0535_scg_s02_0_oven_00_oven6-bear2.png
subject-02,1,536,0.491343021392822,bear,bear,0,0536_scg_s02_0_bear_00_bear10-oven1.png
subject-02,1,537,0.594331979751587,car,car,0,0537_scg_s02_0_car_00_car2-knife3.png
subject-02,1,538,0.627886056900024,knife,knife,0,0538_scg_s02_0_knife_00_knife4-boat1.png
subject-02,1,539,0.537040948867798,dog,dog,0,0539_scg_s02_0_dog_00_dog1-bird1.png
subject-02,1,540,0.656667947769165,knife,knife,0,0540_scg_s02_0_knife_00_knife6-knife1.png
subject-02,1,541,0.644606828689575,chair,chair,0,0541_scg_s02_0_chair_00_chair2-boat1.png
subject-02,1,542,0.873034000396729,dog,dog,0,0542_scg_s02_0_dog_00_dog3-dog1.png
subject-02,1,543,0.82227897644043,truck,truck,0,0543_scg_s02_0_truck_00_truck5-keyboard1.png
subject-02,1,544,0.549821853637695,keyboard,keyboard,0,0544_scg_s02_0_keyboard_00_keyboard6-bottle2.png
subject-02,1,545,0.561902046203613,bicycle,bicycle,0,0545_scg_s02_0_bicycle_00_bicycle7-oven1.png
subject-02,1,546,0.546035051345825,clock,clock,0,0546_scg_s02_0_clock_00_clock1-bear1.png
subject-02,1,547,0.633581876754761,chair,chair,0,0547_scg_s02_0_chair_00_chair3-bottle3.png
subject-02,1,548,0.900089979171753,bear,bear,0,0548_scg_s02_0_bear_00_bear10-truck1.png
subject-02,1,549,0.997909069061279,knife,knife,0,0549_scg_s02_0_knife_00_knife3-knife1.png
subject-02,1,550,0.772588014602661,keyboard,keyboard,0,0550_scg_s02_0_keyboard_00_keyboard4-cat2.png
subject-02,1,551,0.530468940734863,clock,clock,0,0551_scg_s02_0_clock_00_clock4-airplane1.png
subject-02,1,552,0.572197198867798,clock,clock,0,0552_scg_s02_0_clock_00_clock4-car2.png
subject-02,1,553,0.46286678314209,clock,clock,0,0553_scg_s02_0_clock_00_clock4-bottle3.png
subject-02,1,554,0.588683128356934,bottle,bottle,0,0554_scg_s02_0_bottle_00_bottle9-bicycle1.png
subject-02,1,555,0.616503953933716,cat,cat,0,0555_scg_s02_0_cat_00_cat9-clock2.png
subject-02,1,556,0.563024997711182,knife,knife,0,0556_scg_s02_0_knife_00_knife9-bear3.png
subject-02,1,557,0.666483163833618,bottle,bottle,0,0557_scg_s02_0_bottle_00_bottle8-elephant3.png
subject-02,1,558,0.708010911941528,bird,bird,0,0558_scg_s02_0_bird_00_bird3-bird2.png
subject-02,1,559,1.40983295440674,bear,bear,0,0559_scg_s02_0_bear_00_bear3-airplane1.png
subject-02,1,560,0.777467012405396,car,car,0,0560_scg_s02_0_car_00_car8-truck3.png
subject-02,1,561,0.732733964920044,cat,elephant,0,0561_scg_s02_0_elephant_00_elephant2-airplane3.png
subject-02,1,562,0.882964849472046,dog,dog,0,0562_scg_s02_0_dog_00_dog1-chair1.png
subject-02,1,563,0.802214860916138,truck,truck,0,0563_scg_s02_0_truck_00_truck10-car3.png
subject-02,1,564,1.19029402732849,truck,truck,0,0564_scg_s02_0_truck_00_truck3-bird2.png
subject-02,1,565,0.823573112487793,truck,truck,0,0565_scg_s02_0_truck_00_truck3-bicycle1.png
subject-02,1,566,0.835401773452759,knife,knife,0,0566_scg_s02_0_knife_00_knife6-dog2.png
subject-02,1,567,0.955678939819336,elephant,elephant,0,0567_scg_s02_0_elephant_00_elephant1-car3.png
subject-02,1,568,0.959665060043335,airplane,airplane,0,0568_scg_s02_0_airplane_00_airplane3-car1.png
subject-02,1,569,0.895460844039917,bear,bear,0,0569_scg_s02_0_bear_00_bear2-airplane1.png
subject-02,1,570,0.515052080154419,chair,chair,0,0570_scg_s02_0_chair_00_chair8-bicycle3.png
subject-02,1,571,0.756644010543823,chair,chair,0,0571_scg_s02_0_chair_00_chair3-knife1.png
subject-02,1,572,0.82796311378479,airplane,airplane,0,0572_scg_s02_0_airplane_00_airplane8-chair1.png
subject-02,1,573,0.861585855484009,keyboard,keyboard,0,0573_scg_s02_0_keyboard_00_keyboard9-bicycle2.png
subject-02,1,574,0.719448089599609,boat,oven,0,0574_scg_s02_0_oven_00_oven7-clock2.png
subject-02,1,575,0.659244060516357,oven,cat,0,0575_scg_s02_0_cat_00_cat10-bicycle1.png
subject-02,1,576,0.662960052490234,boat,boat,0,0576_scg_s02_0_boat_00_boat9-bear3.png
subject-02,1,577,0.667084932327271,truck,truck,0,0577_scg_s02_0_truck_00_truck2-bird2.png
subject-02,1,578,0.627871990203857,bicycle,bicycle,0,0578_scg_s02_0_bicycle_00_bicycle6-airplane2.png
subject-02,1,579,0.700082063674927,bird,bird,0,0579_scg_s02_0_bird_00_bird9-elephant2.png
subject-02,1,580,0.631092071533203,oven,chair,0,0580_scg_s02_0_chair_00_chair6-truck2.png
subject-02,1,581,0.726746082305908,airplane,airplane,0,0581_scg_s02_0_airplane_00_airplane2-bicycle1.png
subject-02,1,582,0.814965009689331,chair,chair,0,0582_scg_s02_0_chair_00_chair1-cat3.png
subject-02,1,583,0.864776134490967,airplane,airplane,0,0583_scg_s02_0_airplane_00_airplane7-car1.png
subject-02,1,584,0.64660120010376,bird,bird,0,0584_scg_s02_0_bird_00_bird8-boat3.png
subject-02,1,585,0.74171781539917,elephant,elephant,0,0585_scg_s02_0_elephant_00_elephant5-bicycle3.png
subject-02,1,586,1.0665020942688,cat,cat,0,0586_scg_s02_0_cat_00_cat7-bottle1.png
subject-02,1,587,0.602288961410522,airplane,airplane,0,0587_scg_s02_0_airplane_00_airplane10-cat2.png
subject-02,1,588,0.720026969909668,truck,truck,0,0588_scg_s02_0_truck_00_truck1-bicycle3.png
subject-02,1,589,0.623701095581055,boat,airplane,0,0589_scg_s02_0_airplane_00_airplane2-dog1.png
subject-02,1,590,0.949349880218506,bird,bird,0,0590_scg_s02_0_bird_00_bird4-cat3.png
subject-02,1,591,0.617834091186523,truck,truck,0,0591_scg_s02_0_truck_00_truck5-cat3.png
subject-02,1,592,0.968682050704956,cat,cat,0,0592_scg_s02_0_cat_00_cat5-dog3.png
subject-02,1,593,0.458388090133667,boat,boat,0,0593_scg_s02_0_boat_00_boat3-car3.png
subject-02,1,594,0.591124057769775,keyboard,keyboard,0,0594_scg_s02_0_keyboard_00_keyboard3-car2.png
subject-02,1,595,0.770489931106567,oven,oven,0,0595_scg_s02_0_oven_00_oven4-bottle2.png
subject-02,1,596,0.86652398109436,bird,bird,0,0596_scg_s02_0_bird_00_bird1-boat1.png
subject-02,1,597,0.75652289390564,elephant,elephant,0,0597_scg_s02_0_elephant_00_elephant6-car3.png
subject-02,1,598,0.714576005935669,oven,oven,0,0598_scg_s02_0_oven_00_oven10-oven3.png
subject-02,1,599,0.634145021438599,keyboard,keyboard,0,0599_scg_s02_0_keyboard_00_keyboard1-bird2.png
subject-02,1,600,0.830353975296021,knife,knife,0,0600_scg_s02_0_knife_00_knife2-bicycle3.png
subject-02,1,601,0.693805932998657,dog,dog,0,0601_scg_s02_0_dog_00_dog6-bicycle1.png
subject-02,1,602,0.775771141052246,elephant,elephant,0,0602_scg_s02_0_elephant_00_elephant7-bottle3.png
subject-02,1,603,1.19354295730591,car,elephant,0,0603_scg_s02_0_elephant_00_elephant10-keyboard1.png
subject-02,1,604,0.629074096679688,keyboard,keyboard,0,0604_scg_s02_0_keyboard_00_keyboard10-keyboard1.png
subject-02,1,605,0.733067989349365,keyboard,keyboard,0,0605_scg_s02_0_keyboard_00_keyboard9-bird1.png
subject-02,1,606,1.01989221572876,car,car,0,0606_scg_s02_0_car_00_car8-bear1.png
subject-02,1,607,1.17810678482056,bird,bird,0,0607_scg_s02_0_bird_00_bird4-bicycle2.png
subject-02,1,608,1.50034308433533,dog,dog,0,0608_scg_s02_0_dog_00_dog8-dog3.png
subject-02,1,609,0.860639810562134,cat,airplane,0,0609_scg_s02_0_airplane_00_airplane5-dog3.png
subject-02,1,610,0.580274105072021,bottle,bottle,0,0610_scg_s02_0_bottle_00_bottle6-bear2.png
subject-02,1,611,0.759896993637085,boat,bird,0,0611_scg_s02_0_bird_00_bird3-oven1.png
subject-02,1,612,0.601299047470093,knife,knife,0,0612_scg_s02_0_knife_00_knife5-truck3.png
subject-02,1,613,0.55080509185791,keyboard,keyboard,0,0613_scg_s02_0_keyboard_00_keyboard6-boat2.png
subject-02,1,614,0.608813047409058,keyboard,keyboard,0,0614_scg_s02_0_keyboard_00_keyboard9-keyboard2.png
subject-02,1,615,0.64286208152771,elephant,elephant,0,0615_scg_s02_0_elephant_00_elephant8-bicycle3.png
subject-02,1,616,1.02644991874695,keyboard,keyboard,0,0616_scg_s02_0_keyboard_00_keyboard7-oven2.png
subject-02,1,617,0.737581014633179,airplane,airplane,0,0617_scg_s02_0_airplane_00_airplane7-boat2.png
subject-02,1,618,0.541761875152588,boat,boat,0,0618_scg_s02_0_boat_00_boat3-bicycle2.png
subject-02,1,619,NaN,na,oven,0,0619_scg_s02_0_oven_00_oven3-cat2.png
subject-02,1,620,0.746814012527466,cat,cat,0,0620_scg_s02_0_cat_00_cat9-boat2.png
subject-02,1,621,0.650035858154297,chair,chair,0,0621_scg_s02_0_chair_00_chair7-boat3.png
subject-02,1,622,1.50024914741516,knife,cat,0,0622_scg_s02_0_cat_00_cat10-keyboard1.png
subject-02,1,623,0.624181985855103,cat,bottle,0,0623_scg_s02_0_bottle_00_bottle7-keyboard2.png
subject-02,1,624,0.887868165969849,bear,bear,0,0624_scg_s02_0_bear_00_bear7-dog3.png
subject-02,1,625,0.73937201499939,keyboard,keyboard,0,0625_scg_s02_0_keyboard_00_keyboard2-bicycle3.png
subject-02,1,626,0.749207019805908,keyboard,keyboard,0,0626_scg_s02_0_keyboard_00_keyboard9-cat1.png
subject-02,1,627,0.844730138778687,truck,truck,0,0627_scg_s02_0_truck_00_truck6-boat2.png
subject-02,1,628,0.786425828933716,bird,bird,0,0628_scg_s02_0_bird_00_bird10-bird2.png
subject-02,1,629,0.690474987030029,oven,oven,0,0629_scg_s02_0_oven_00_oven9-oven1.png
subject-02,1,630,0.90596079826355,elephant,elephant,0,0630_scg_s02_0_elephant_00_elephant7-airplane3.png
subject-02,1,631,0.947468996047974,truck,truck,0,0631_scg_s02_0_truck_00_truck8-cat2.png
subject-02,1,632,0.696978092193604,oven,oven,0,0632_scg_s02_0_oven_00_oven2-bicycle1.png
subject-02,1,633,0.662574052810669,knife,knife,0,0633_scg_s02_0_knife_00_knife4-cat2.png
subject-02,1,634,0.688264131546021,bear,bear,0,0634_scg_s02_0_bear_00_bear1-bear3.png
subject-02,1,635,0.624480962753296,clock,clock,0,0635_scg_s02_0_clock_00_clock2-knife1.png
subject-02,1,636,0.69072699546814,oven,oven,0,0636_scg_s02_0_oven_00_oven2-boat3.png
subject-02,1,637,0.886615991592407,cat,bicycle,0,0637_scg_s02_0_bicycle_00_bicycle5-keyboard3.png
subject-02,1,638,0.703904867172241,cat,cat,0,0638_scg_s02_0_cat_00_cat4-bird2.png
subject-02,1,639,0.656239986419678,clock,clock,0,0639_scg_s02_0_clock_00_clock10-knife3.png
subject-02,1,640,0.781514883041382,bird,bird,0,0640_scg_s02_0_bird_00_bird1-clock3.png
subject-02,1,641,0.844856977462769,boat,boat,0,0641_scg_s02_0_boat_00_boat6-elephant2.png
subject-02,1,642,0.802761077880859,bottle,bottle,0,0642_scg_s02_0_bottle_00_bottle6-dog3.png
subject-02,1,643,1.14420986175537,truck,dog,0,0643_scg_s02_0_dog_00_dog3-truck2.png
subject-02,1,644,1.02234196662903,bicycle,bicycle,0,0644_scg_s02_0_bicycle_00_bicycle1-truck1.png
subject-02,1,645,1.06449294090271,keyboard,keyboard,0,0645_scg_s02_0_keyboard_00_keyboard7-bottle1.png
subject-02,1,646,1.01415491104126,elephant,elephant,0,0646_scg_s02_0_elephant_00_elephant8-clock2.png
subject-02,1,647,1.03016781806946,oven,oven,0,0647_scg_s02_0_oven_00_oven5-keyboard2.png
subject-02,1,648,0.663944959640503,cat,cat,0,0648_scg_s02_0_cat_00_cat3-bear2.png
subject-02,1,649,0.775483846664429,oven,oven,0,0649_scg_s02_0_oven_00_oven2-bottle1.png
subject-02,1,650,0.669605016708374,car,car,0,0650_scg_s02_0_car_00_car3-truck1.png
subject-02,1,651,1.29542112350464,bear,bear,0,0651_scg_s02_0_bear_00_bear1-bird2.png
subject-02,1,652,0.677682161331177,elephant,elephant,0,0652_scg_s02_0_elephant_00_elephant7-car3.png
subject-02,1,653,0.819381952285767,oven,oven,0,0653_scg_s02_0_oven_00_oven5-airplane1.png
subject-02,1,654,0.899240016937256,airplane,airplane,0,0654_scg_s02_0_airplane_00_airplane8-clock2.png
subject-02,1,655,0.937120914459229,clock,clock,0,0655_scg_s02_0_clock_00_clock9-bird2.png
subject-02,1,656,0.749068021774292,cat,clock,0,0656_scg_s02_0_clock_00_clock1-elephant2.png
subject-02,1,657,1.00650596618652,elephant,elephant,0,0657_scg_s02_0_elephant_00_elephant1-boat2.png
subject-02,1,658,0.91827392578125,clock,clock,0,0658_scg_s02_0_clock_00_clock2-bear2.png
subject-02,1,659,0.905638217926025,clock,airplane,0,0659_scg_s02_0_airplane_00_airplane3-clock1.png
subject-02,1,660,0.687822103500366,boat,boat,0,0660_scg_s02_0_boat_00_boat5-boat3.png
subject-02,1,661,0.830132007598877,dog,dog,0,0661_scg_s02_0_dog_00_dog1-car2.png
subject-02,1,662,0.850643873214722,car,car,0,0662_scg_s02_0_car_00_car8-dog1.png
subject-02,1,663,1.04612803459167,airplane,airplane,0,0663_scg_s02_0_airplane_00_airplane6-chair3.png
subject-02,1,664,1.33430409431458,airplane,airplane,0,0664_scg_s02_0_airplane_00_airplane4-car1.png
subject-02,1,665,0.762166976928711,elephant,elephant,0,0665_scg_s02_0_elephant_00_elephant9-elephant3.png
subject-02,1,666,0.673678874969482,cat,cat,0,0666_scg_s02_0_cat_00_cat3-elephant2.png
subject-02,1,667,0.745703935623169,boat,boat,0,0667_scg_s02_0_boat_00_boat4-boat3.png
subject-02,1,668,0.88718318939209,elephant,elephant,0,0668_scg_s02_0_elephant_00_elephant3-truck1.png
subject-02,1,669,0.723310947418213,car,car,0,0669_scg_s02_0_car_00_car4-bicycle3.png
subject-02,1,670,0.948455095291138,bottle,bottle,0,0670_scg_s02_0_bottle_00_bottle10-truck3.png
subject-02,1,671,0.960556983947754,elephant,bottle,0,0671_scg_s02_0_bottle_00_bottle7-bear1.png
subject-02,1,672,0.870205163955688,car,car,0,0672_scg_s02_0_car_00_car9-bird1.png
subject-02,1,673,0.894945859909058,bicycle,bicycle,0,0673_scg_s02_0_bicycle_00_bicycle5-bear1.png
subject-02,1,674,0.738579034805298,bicycle,bicycle,0,0674_scg_s02_0_bicycle_00_bicycle9-knife3.png
subject-02,1,675,1.10998678207397,keyboard,keyboard,0,0675_scg_s02_0_keyboard_00_keyboard7-dog1.png
subject-02,1,676,0.856368064880371,bear,bird,0,0676_scg_s02_0_bird_00_bird2-airplane3.png
subject-02,1,677,0.875838041305542,elephant,elephant,0,0677_scg_s02_0_elephant_00_elephant6-cat2.png
subject-02,1,678,0.83367395401001,truck,truck,0,0678_scg_s02_0_truck_00_truck7-bird2.png
subject-02,1,679,1.27749013900757,truck,truck,0,0679_scg_s02_0_truck_00_truck1-knife1.png
subject-02,1,680,1.01394200325012,cat,cat,0,0680_scg_s02_0_cat_00_cat4-dog3.png
subject-02,1,681,0.725194931030273,car,car,0,0681_scg_s02_0_car_00_car8-knife2.png
subject-02,1,682,0.8889479637146,airplane,airplane,0,0682_scg_s02_0_airplane_00_airplane3-elephant1.png
subject-02,1,683,1.32224583625793,keyboard,keyboard,0,0683_scg_s02_0_keyboard_00_keyboard8-dog3.png
subject-02,1,684,1.23381090164185,elephant,dog,0,0684_scg_s02_0_dog_00_dog7-car2.png
subject-02,1,685,0.753509998321533,bicycle,bicycle,0,0685_scg_s02_0_bicycle_00_bicycle9-bottle1.png
subject-02,1,686,0.895582914352417,car,car,0,0686_scg_s02_0_car_00_car5-truck3.png
subject-02,1,687,1.11262798309326,bottle,bottle,0,0687_scg_s02_0_bottle_00_bottle1-dog2.png
subject-02,1,688,1.14660906791687,bird,bird,0,0688_scg_s02_0_bird_00_bird6-boat2.png
subject-02,1,689,1.32617282867432,oven,oven,0,0689_scg_s02_0_oven_00_oven8-knife2.png
subject-02,1,690,1.00017189979553,truck,truck,0,0690_scg_s02_0_truck_00_truck6-bottle3.png
subject-02,1,691,0.58254599571228,bicycle,bicycle,0,0691_scg_s02_0_bicycle_00_bicycle7-elephant2.png
subject-02,1,692,1.01585412025452,car,car,0,0692_scg_s02_0_car_00_car1-clock2.png
subject-02,1,693,0.497967004776001,oven,oven,0,0693_scg_s02_0_oven_00_oven3-clock3.png
subject-02,1,694,0.999478101730347,keyboard,keyboard,0,0694_scg_s02_0_keyboard_00_keyboard6-elephant1.png
subject-02,1,695,0.719563961029053,dog,dog,0,0695_scg_s02_0_dog_00_dog5-oven1.png
subject-02,1,696,0.476934194564819,bicycle,bicycle,0,0696_scg_s02_0_bicycle_00_bicycle4-oven3.png
subject-02,1,697,0.513518810272217,oven,oven,0,0697_scg_s02_0_oven_00_oven9-bear2.png
subject-02,1,698,0.844774007797241,clock,clock,0,0698_scg_s02_0_clock_00_clock1-dog2.png
subject-02,1,699,1.39473390579224,dog,dog,0,0699_scg_s02_0_dog_00_dog4-bottle2.png
subject-02,1,700,1.00682210922241,elephant,elephant,0,0700_scg_s02_0_elephant_00_elephant6-knife2.png
subject-02,1,701,1.03264999389648,cat,cat,0,0701_scg_s02_0_cat_00_cat1-keyboard3.png
subject-02,1,702,0.906857967376709,clock,clock,0,0702_scg_s02_0_clock_00_clock2-dog1.png
subject-02,1,703,0.833936929702759,bird,bird,0,0703_scg_s02_0_bird_00_bird4-dog3.png
subject-02,1,704,0.521823883056641,cat,cat,0,0704_scg_s02_0_cat_00_cat3-cat1.png
subject-02,1,705,0.950263977050781,car,car,0,0705_scg_s02_0_car_00_car10-bicycle2.png
subject-02,1,706,0.749735116958618,keyboard,keyboard,0,0706_scg_s02_0_keyboard_00_keyboard10-boat2.png
subject-02,1,707,1.21389222145081,dog,dog,0,0707_scg_s02_0_dog_00_dog9-airplane3.png
subject-02,1,708,0.749543190002441,elephant,elephant,0,0708_scg_s02_0_elephant_00_elephant8-dog1.png
subject-02,1,709,1.10474801063538,keyboard,knife,0,0709_scg_s02_0_knife_00_knife8-boat1.png
subject-02,1,710,0.670668125152588,car,car,0,0710_scg_s02_0_car_00_car5-bottle1.png
subject-02,1,711,0.682369947433472,clock,clock,0,0711_scg_s02_0_clock_00_clock8-knife1.png
subject-02,1,712,0.850396871566772,elephant,elephant,0,0712_scg_s02_0_elephant_00_elephant8-boat2.png
subject-02,1,713,0.569723844528198,cat,airplane,0,0713_scg_s02_0_airplane_00_airplane3-airplane2.png
subject-02,1,714,0.825479984283447,bird,bird,0,0714_scg_s02_0_bird_00_bird2-car3.png
subject-02,1,715,0.812510013580322,bottle,bottle,0,0715_scg_s02_0_bottle_00_bottle5-oven2.png
subject-02,1,716,0.485596895217896,bicycle,bicycle,0,0716_scg_s02_0_bicycle_00_bicycle7-knife2.png
subject-02,1,717,0.544644832611084,clock,clock,0,0717_scg_s02_0_clock_00_clock4-oven1.png
subject-02,1,718,0.686214923858643,bird,bird,0,0718_scg_s02_0_bird_00_bird4-clock1.png
subject-02,1,719,0.827952146530151,knife,knife,0,0719_scg_s02_0_knife_00_knife9-bird1.png
subject-02,1,720,0.664119005203247,dog,dog,0,0720_scg_s02_0_dog_00_dog7-knife3.png
subject-02,1,721,0.590272903442383,chair,chair,0,0721_scg_s02_0_chair_00_chair7-airplane1.png
subject-02,1,722,1.28612804412842,dog,dog,0,0722_scg_s02_0_dog_00_dog8-clock2.png
subject-02,1,723,0.843569993972778,truck,truck,0,0723_scg_s02_0_truck_00_truck7-bear2.png
subject-02,1,724,0.677404165267944,airplane,airplane,0,0724_scg_s02_0_airplane_00_airplane10-oven2.png
subject-02,1,725,0.918808937072754,car,car,0,0725_scg_s02_0_car_00_car9-truck3.png
subject-02,1,726,0.682100057601929,boat,boat,0,0726_scg_s02_0_boat_00_boat4-bicycle3.png
subject-02,1,727,1.43200397491455,truck,truck,0,0727_scg_s02_0_truck_00_truck10-truck3.png
subject-02,1,728,0.735737800598145,airplane,airplane,0,0728_scg_s02_0_airplane_00_airplane10-boat3.png
subject-02,1,729,0.847669124603271,clock,clock,0,0729_scg_s02_0_clock_00_clock6-truck3.png
subject-02,1,730,0.827247142791748,knife,knife,0,0730_scg_s02_0_knife_00_knife1-airplane1.png
subject-02,1,731,0.914724111557007,clock,clock,0,0731_scg_s02_0_clock_00_clock1-clock2.png
subject-02,1,732,0.932061910629272,chair,chair,0,0732_scg_s02_0_chair_00_chair1-oven3.png
subject-02,1,733,0.697443962097168,clock,cat,0,0733_scg_s02_0_cat_00_cat4-keyboard2.png
subject-02,1,734,0.830889940261841,knife,knife,0,0734_scg_s02_0_knife_00_knife4-knife2.png
subject-02,1,735,0.76472806930542,bottle,bottle,0,0735_scg_s02_0_bottle_00_bottle5-cat1.png
subject-02,1,736,0.638614892959595,bicycle,bicycle,0,0736_scg_s02_0_bicycle_00_bicycle6-bicycle3.png
subject-02,1,737,0.618080854415894,chair,keyboard,0,0737_scg_s02_0_keyboard_00_keyboard7-chair3.png
subject-02,1,738,1.2198269367218,truck,truck,0,0738_scg_s02_0_truck_00_truck6-oven3.png
subject-02,1,739,0.709988117218018,bear,bear,0,0739_scg_s02_0_bear_00_bear2-bird3.png
subject-02,1,740,0.729589939117432,chair,chair,0,0740_scg_s02_0_chair_00_chair1-airplane2.png
subject-02,1,741,0.785179853439331,car,car,0,0741_scg_s02_0_car_00_car6-boat1.png
subject-02,1,742,0.766932964324951,bird,bird,0,0742_scg_s02_0_bird_00_bird9-bear3.png
subject-02,1,743,0.862504959106445,dog,dog,0,0743_scg_s02_0_dog_00_dog2-bicycle2.png
subject-02,1,744,0.958261966705322,truck,truck,0,0744_scg_s02_0_truck_00_truck2-oven3.png
subject-02,1,745,0.561518907546997,bicycle,bicycle,0,0745_scg_s02_0_bicycle_00_bicycle5-car3.png
subject-02,1,746,0.8628249168396,truck,truck,0,0746_scg_s02_0_truck_00_truck9-truck3.png
subject-02,1,747,0.736698150634766,cat,cat,0,0747_scg_s02_0_cat_00_cat10-elephant3.png
subject-02,1,748,1.18477702140808,dog,dog,0,0748_scg_s02_0_dog_00_dog4-truck2.png
subject-02,1,749,1.09672999382019,keyboard,keyboard,0,0749_scg_s02_0_keyboard_00_keyboard7-car3.png
subject-02,1,750,0.832584857940674,truck,truck,0,0750_scg_s02_0_truck_00_truck7-oven2.png
subject-02,1,751,0.69531512260437,cat,cat,0,0751_scg_s02_0_cat_00_cat5-boat1.png
subject-02,1,752,0.623208999633789,cat,cat,0,0752_scg_s02_0_cat_00_cat5-knife2.png
subject-02,1,753,0.599306106567383,bear,bear,0,0753_scg_s02_0_bear_00_bear8-elephant2.png
subject-02,1,754,0.665095090866089,bear,bear,0,0754_scg_s02_0_bear_00_bear2-car2.png
subject-02,1,755,0.682334899902344,cat,boat,0,0755_scg_s02_0_boat_00_boat10-bear3.png
subject-02,1,756,0.769672155380249,bear,bear,0,0756_scg_s02_0_bear_00_bear10-cat2.png
subject-02,1,757,0.957196950912476,elephant,elephant,0,0757_scg_s02_0_elephant_00_elephant5-bottle2.png
subject-02,1,758,0.514782905578613,boat,boat,0,0758_scg_s02_0_boat_00_boat9-boat3.png
subject-02,1,759,1.19438505172729,boat,boat,0,0759_scg_s02_0_boat_00_boat10-oven1.png
subject-02,1,760,0.491969108581543,oven,oven,0,0760_scg_s02_0_oven_00_oven5-bicycle1.png
subject-02,1,761,0.685401916503906,truck,truck,0,0761_scg_s02_0_truck_00_truck8-dog3.png
subject-02,1,762,0.705590009689331,chair,elephant,0,0762_scg_s02_0_elephant_00_elephant3-chair1.png
subject-02,1,763,0.539345979690552,boat,boat,0,0763_scg_s02_0_boat_00_boat10-boat3.png
subject-02,1,764,0.421030044555664,oven,oven,0,0764_scg_s02_0_oven_00_oven9-clock2.png
subject-02,1,765,0.746944904327393,bottle,bottle,0,0765_scg_s02_0_bottle_00_bottle10-car1.png
subject-02,1,766,1.23213505744934,knife,airplane,0,0766_scg_s02_0_airplane_00_airplane5-oven3.png
subject-02,1,767,0.822171926498413,car,car,0,0767_scg_s02_0_car_00_car3-airplane3.png
subject-02,1,768,0.879952907562256,chair,boat,0,0768_scg_s02_0_boat_00_boat1-chair3.png
subject-02,1,769,0.802579879760742,keyboard,keyboard,0,0769_scg_s02_0_keyboard_00_keyboard4-keyboard2.png
subject-02,1,770,0.61388897895813,bottle,bottle,0,0770_scg_s02_0_bottle_00_bottle2-elephant1.png
subject-02,1,771,0.563618898391724,bicycle,bicycle,0,0771_scg_s02_0_bicycle_00_bicycle9-car1.png
subject-02,1,772,0.665771007537842,dog,dog,0,0772_scg_s02_0_dog_00_dog10-bottle1.png
subject-02,1,773,0.563653945922852,cat,cat,0,0773_scg_s02_0_cat_00_cat1-oven1.png
subject-02,1,774,0.897192001342773,bear,bear,0,0774_scg_s02_0_bear_00_bear10-clock1.png
subject-02,1,775,0.671204090118408,car,car,0,0775_scg_s02_0_car_00_car6-knife1.png
subject-02,1,776,0.910166025161743,boat,boat,0,0776_scg_s02_0_boat_00_boat9-dog2.png
subject-02,1,777,0.705862045288086,keyboard,keyboard,0,0777_scg_s02_0_keyboard_00_keyboard9-truck3.png
subject-02,1,778,0.725714921951294,bear,bear,0,0778_scg_s02_0_bear_00_bear5-chair1.png
subject-02,1,779,0.637618064880371,oven,oven,0,0779_scg_s02_0_oven_00_oven5-elephant1.png
subject-02,1,780,0.745284080505371,bear,bear,0,0780_scg_s02_0_bear_00_bear5-bicycle3.png
subject-02,1,781,1.13936901092529,bird,bird,0,0781_scg_s02_0_bird_00_bird1-airplane2.png
subject-02,1,782,0.891221046447754,keyboard,keyboard,0,0782_scg_s02_0_keyboard_00_keyboard4-clock2.png
subject-02,1,783,0.887156963348389,keyboard,keyboard,0,0783_scg_s02_0_keyboard_00_keyboard10-car1.png
subject-02,1,784,1.35847806930542,dog,bear,0,0784_scg_s02_0_bear_00_bear9-keyboard3.png
subject-02,1,785,0.59479808807373,truck,truck,0,0785_scg_s02_0_truck_00_truck2-clock1.png
subject-02,1,786,0.728188037872314,keyboard,keyboard,0,0786_scg_s02_0_keyboard_00_keyboard5-keyboard1.png
subject-02,1,787,0.585936069488525,bird,bird,0,0787_scg_s02_0_bird_00_bird1-chair2.png
subject-02,1,788,0.706390857696533,boat,boat,0,0788_scg_s02_0_boat_00_boat1-elephant3.png
subject-02,1,789,0.585299968719482,clock,clock,0,0789_scg_s02_0_clock_00_clock6-bicycle1.png
subject-02,1,790,0.705302953720093,bicycle,bicycle,0,0790_scg_s02_0_bicycle_00_bicycle1-boat3.png
subject-02,1,791,0.668617963790894,cat,cat,0,0791_scg_s02_0_cat_00_cat9-cat3.png
subject-02,1,792,0.709131956100464,bicycle,bicycle,0,0792_scg_s02_0_bicycle_00_bicycle8-bird2.png
subject-02,1,793,0.664705038070679,boat,boat,0,0793_scg_s02_0_boat_00_boat8-bird2.png
subject-02,1,794,0.746793031692505,bear,bear,0,0794_scg_s02_0_bear_00_bear6-clock1.png
subject-02,1,795,0.680012941360474,boat,boat,0,0795_scg_s02_0_boat_00_boat3-clock3.png
subject-02,1,796,0.983838081359863,knife,knife,0,0796_scg_s02_0_knife_00_knife8-car2.png
subject-02,1,797,0.842500925064087,car,car,0,0797_scg_s02_0_car_00_car3-oven3.png
subject-02,1,798,0.859119892120361,bear,bear,0,0798_scg_s02_0_bear_00_bear10-bear2.png
subject-02,1,799,0.732913017272949,keyboard,keyboard,0,0799_scg_s02_0_keyboard_00_keyboard10-oven3.png
subject-02,1,800,0.623986005783081,bicycle,bicycle,0,0800_scg_s02_0_bicycle_00_bicycle9-bird3.png
subject-02,1,801,1.06316804885864,bird,airplane,0,0801_scg_s02_0_airplane_00_airplane3-cat1.png
subject-02,1,802,0.845525979995728,bottle,bottle,0,0802_scg_s02_0_bottle_00_bottle4-truck1.png
subject-02,1,803,0.696944952011108,bottle,bottle,0,0803_scg_s02_0_bottle_00_bottle6-chair2.png
subject-02,1,804,0.746349096298218,keyboard,knife,0,0804_scg_s02_0_knife_00_knife7-elephant2.png
subject-02,1,805,0.541958093643188,car,car,0,0805_scg_s02_0_car_00_car10-bottle3.png
subject-02,1,806,0.665390968322754,keyboard,knife,0,0806_scg_s02_0_knife_00_knife2-car3.png
subject-02,1,807,0.629786968231201,bird,bird,0,0807_scg_s02_0_bird_00_bird10-cat1.png
subject-02,1,808,0.608963012695312,clock,clock,0,0808_scg_s02_0_clock_00_clock9-keyboard2.png
subject-02,1,809,0.636547088623047,dog,dog,0,0809_scg_s02_0_dog_00_dog6-cat1.png
subject-02,1,810,1.25416302680969,bicycle,bicycle,0,0810_scg_s02_0_bicycle_00_bicycle1-bear1.png
subject-02,1,811,0.842232942581177,airplane,airplane,0,0811_scg_s02_0_airplane_00_airplane4-truck2.png
subject-02,1,812,0.754054069519043,truck,truck,0,0812_scg_s02_0_truck_00_truck3-oven2.png
subject-02,1,813,0.949928045272827,car,car,0,0813_scg_s02_0_car_00_car8-clock2.png
subject-02,1,814,0.516294002532959,clock,clock,0,0814_scg_s02_0_clock_00_clock9-cat1.png
subject-02,1,815,1.29343414306641,chair,elephant,0,0815_scg_s02_0_elephant_00_elephant6-truck3.png
subject-02,1,816,0.783267974853516,bicycle,bicycle,0,0816_scg_s02_0_bicycle_00_bicycle3-oven3.png
subject-02,1,817,0.625524044036865,boat,boat,0,0817_scg_s02_0_boat_00_boat1-bicycle2.png
subject-02,1,818,0.683062076568604,clock,clock,0,0818_scg_s02_0_clock_00_clock10-bottle1.png
subject-02,1,819,0.594922065734863,cat,cat,0,0819_scg_s02_0_cat_00_cat2-car3.png
subject-02,1,820,0.812391042709351,knife,knife,0,0820_scg_s02_0_knife_00_knife8-bottle3.png
subject-02,1,821,0.716018915176392,boat,boat,0,0821_scg_s02_0_boat_00_boat4-bird1.png
subject-02,1,822,0.928148031234741,truck,truck,0,0822_scg_s02_0_truck_00_truck3-dog3.png
subject-02,1,823,0.883543968200684,airplane,airplane,0,0823_scg_s02_0_airplane_00_airplane7-keyboard1.png
subject-02,1,824,0.995565891265869,elephant,elephant,0,0824_scg_s02_0_elephant_00_elephant2-elephant3.png
subject-02,1,825,0.607306957244873,truck,truck,0,0825_scg_s02_0_truck_00_truck5-dog3.png
subject-02,1,826,0.69480299949646,car,car,0,0826_scg_s02_0_car_00_car6-bicycle3.png
subject-02,1,827,0.644518136978149,elephant,elephant,0,0827_scg_s02_0_elephant_00_elephant5-car1.png
subject-02,1,828,0.845789909362793,bird,bird,0,0828_scg_s02_0_bird_00_bird1-elephant2.png
subject-02,1,829,0.857813119888306,bird,bird,0,0829_scg_s02_0_bird_00_bird7-oven3.png
subject-02,1,830,0.877611875534058,clock,clock,0,0830_scg_s02_0_clock_00_clock3-bear3.png
subject-02,1,831,0.787437915802002,bird,bird,0,0831_scg_s02_0_bird_00_bird7-keyboard3.png
subject-02,1,832,0.623228073120117,chair,boat,0,0832_scg_s02_0_boat_00_boat7-truck2.png
subject-02,1,833,0.873733043670654,dog,dog,0,0833_scg_s02_0_dog_00_dog5-elephant1.png
subject-02,1,834,0.931888818740845,bird,elephant,0,0834_scg_s02_0_elephant_00_elephant7-keyboard3.png
subject-02,1,835,0.667521953582764,boat,boat,0,0835_scg_s02_0_boat_00_boat6-truck3.png
subject-02,1,836,0.685220956802368,car,car,0,0836_scg_s02_0_car_00_car7-oven2.png
subject-02,1,837,1.13284015655518,truck,truck,0,0837_scg_s02_0_truck_00_truck1-car3.png
subject-02,1,838,0.546660900115967,chair,chair,0,0838_scg_s02_0_chair_00_chair4-chair3.png
subject-02,1,839,1.14014315605164,keyboard,keyboard,0,0839_scg_s02_0_keyboard_00_keyboard4-truck3.png
subject-02,1,840,0.867650032043457,dog,dog,0,0840_scg_s02_0_dog_00_dog4-oven1.png
subject-02,1,841,1.2996551990509,keyboard,keyboard,0,0841_scg_s02_0_keyboard_00_keyboard3-bicycle2.png
subject-02,1,842,0.853381872177124,bear,bear,0,0842_scg_s02_0_bear_00_bear8-boat2.png
subject-02,1,843,0.597807168960571,bottle,bottle,0,0843_scg_s02_0_bottle_00_bottle10-bear2.png
subject-02,1,844,0.671540975570679,oven,oven,0,0844_scg_s02_0_oven_00_oven10-truck2.png
subject-02,1,845,0.725838899612427,clock,clock,0,0845_scg_s02_0_clock_00_clock9-chair3.png
subject-02,1,846,0.935190916061401,elephant,elephant,0,0846_scg_s02_0_elephant_00_elephant3-keyboard2.png
subject-02,1,847,0.663526058197021,boat,boat,0,0847_scg_s02_0_boat_00_boat4-elephant2.png
subject-02,1,848,0.713192939758301,boat,boat,0,0848_scg_s02_0_boat_00_boat6-cat1.png
subject-02,1,849,0.678802013397217,knife,knife,0,0849_scg_s02_0_knife_00_knife2-bird1.png
subject-02,1,850,NaN,na,car,0,0850_scg_s02_0_car_00_car5-cat1.png
subject-02,1,851,0.746027946472168,bottle,bottle,0,0851_scg_s02_0_bottle_00_bottle1-clock1.png
subject-02,1,852,0.979735136032104,truck,truck,0,0852_scg_s02_0_truck_00_truck6-clock2.png
subject-02,1,853,0.975003004074097,clock,clock,0,0853_scg_s02_0_clock_00_clock4-bird3.png
subject-02,1,854,1.20634794235229,knife,knife,0,0854_scg_s02_0_knife_00_knife2-dog1.png
subject-02,1,855,1.10978817939758,chair,chair,0,0855_scg_s02_0_chair_00_chair9-elephant1.png
subject-02,1,856,0.913562059402466,dog,dog,0,0856_scg_s02_0_dog_00_dog1-knife3.png
subject-02,1,857,0.787055969238281,bottle,bottle,0,0857_scg_s02_0_bottle_00_bottle1-bird3.png
subject-02,1,858,0.608014106750488,clock,clock,0,0858_scg_s02_0_clock_00_clock10-oven2.png
subject-02,1,859,0.878077983856201,chair,chair,0,0859_scg_s02_0_chair_00_chair8-airplane1.png
subject-02,1,860,0.702724933624268,clock,clock,0,0860_scg_s02_0_clock_00_clock3-cat1.png
subject-02,1,861,0.790869951248169,keyboard,keyboard,0,0861_scg_s02_0_keyboard_00_keyboard3-cat1.png
subject-02,1,862,1.30528688430786,bird,airplane,0,0862_scg_s02_0_airplane_00_airplane4-bear3.png
subject-02,1,863,0.85473108291626,knife,knife,0,0863_scg_s02_0_knife_00_knife1-chair1.png
subject-02,1,864,0.674200057983398,bird,bird,0,0864_scg_s02_0_bird_00_bird9-bottle3.png
subject-02,1,865,0.574357986450195,clock,clock,0,0865_scg_s02_0_clock_00_clock2-bottle3.png
subject-02,1,866,0.662111043930054,chair,chair,0,0866_scg_s02_0_chair_00_chair7-bird1.png
subject-02,1,867,0.711678981781006,bicycle,bicycle,0,0867_scg_s02_0_bicycle_00_bicycle10-boat3.png
subject-02,1,868,0.674819946289062,oven,oven,0,0868_scg_s02_0_oven_00_oven8-keyboard3.png
subject-02,1,869,0.925328969955444,keyboard,keyboard,0,0869_scg_s02_0_keyboard_00_keyboard8-truck3.png
subject-02,1,870,0.852707862854004,bicycle,bicycle,0,0870_scg_s02_0_bicycle_00_bicycle7-bear2.png
subject-02,1,871,0.694364070892334,bottle,bottle,0,0871_scg_s02_0_bottle_00_bottle3-bicycle3.png
subject-02,1,872,1.17197012901306,truck,truck,0,0872_scg_s02_0_truck_00_truck4-oven2.png
subject-02,1,873,0.815694093704224,bear,bear,0,0873_scg_s02_0_bear_00_bear4-elephant2.png
subject-02,1,874,0.711497068405151,bottle,bottle,0,0874_scg_s02_0_bottle_00_bottle1-cat3.png
subject-02,1,875,0.770013093948364,truck,truck,0,0875_scg_s02_0_truck_00_truck6-truck2.png
subject-02,1,876,1.14927697181702,oven,chair,0,0876_scg_s02_0_chair_00_chair6-elephant2.png
subject-02,1,877,0.774713039398193,bird,cat,0,0877_scg_s02_0_cat_00_cat4-truck3.png
subject-02,1,878,0.970071792602539,dog,dog,0,0878_scg_s02_0_dog_00_dog1-airplane3.png
subject-02,1,879,0.870209932327271,cat,cat,0,0879_scg_s02_0_cat_00_cat7-knife2.png
subject-02,1,880,0.865780830383301,knife,knife,0,0880_scg_s02_0_knife_00_knife9-airplane2.png
subject-02,1,881,0.800164937973022,cat,cat,0,0881_scg_s02_0_cat_00_cat9-dog2.png
subject-02,1,882,1.04044389724731,chair,chair,0,0882_scg_s02_0_chair_00_chair5-oven2.png
subject-02,1,883,0.988132953643799,keyboard,keyboard,0,0883_scg_s02_0_keyboard_00_keyboard5-bird3.png
subject-02,1,884,0.846242904663086,truck,truck,0,0884_scg_s02_0_truck_00_truck1-bear1.png
subject-02,1,885,0.78725790977478,bird,bird,0,0885_scg_s02_0_bird_00_bird10-bear2.png
subject-02,1,886,0.682716846466064,clock,clock,0,0886_scg_s02_0_clock_00_clock1-truck3.png
subject-02,1,887,0.718766927719116,boat,boat,0,0887_scg_s02_0_boat_00_boat4-chair2.png
subject-02,1,888,0.806842803955078,bird,bird,0,0888_scg_s02_0_bird_00_bird2-bird2.png
subject-02,1,889,0.932178020477295,boat,boat,0,0889_scg_s02_0_boat_00_boat7-elephant3.png
subject-02,1,890,1.33390498161316,cat,bird,0,0890_scg_s02_0_bird_00_bird3-boat3.png
subject-02,1,891,0.791339159011841,keyboard,keyboard,0,0891_scg_s02_0_keyboard_00_keyboard5-airplane3.png
subject-02,1,892,0.535082817077637,boat,boat,0,0892_scg_s02_0_boat_00_boat5-airplane1.png
subject-02,1,893,1.02101588249207,dog,cat,0,0893_scg_s02_0_cat_00_cat5-chair3.png
subject-02,1,894,1.04905796051025,car,car,0,0894_scg_s02_0_car_00_car9-knife1.png
subject-02,1,895,0.8905930519104,bear,bear,0,0895_scg_s02_0_bear_00_bear3-bird3.png
subject-02,1,896,0.856259822845459,bicycle,bicycle,0,0896_scg_s02_0_bicycle_00_bicycle8-bear2.png
subject-02,1,897,0.935826063156128,bottle,bottle,0,0897_scg_s02_0_bottle_00_bottle3-boat3.png
subject-02,1,898,0.937635898590088,bicycle,bicycle,0,0898_scg_s02_0_bicycle_00_bicycle8-truck1.png
subject-02,1,899,0.870871067047119,bird,bird,0,0899_scg_s02_0_bird_00_bird5-cat2.png
subject-02,1,900,0.857790946960449,cat,cat,0,0900_scg_s02_0_cat_00_cat3-oven2.png
subject-02,1,901,0.685360193252563,bird,bird,0,0901_scg_s02_0_bird_00_bird7-bottle1.png
subject-02,1,902,0.827471017837524,elephant,elephant,0,0902_scg_s02_0_elephant_00_elephant8-oven3.png
subject-02,1,903,0.761373996734619,oven,oven,0,0903_scg_s02_0_oven_00_oven6-airplane3.png
subject-02,1,904,0.85644793510437,bottle,bottle,0,0904_scg_s02_0_bottle_00_bottle8-bottle3.png
subject-02,1,905,1.05271482467651,truck,truck,0,0905_scg_s02_0_truck_00_truck2-bicycle2.png
subject-02,1,906,0.748009920120239,oven,oven,0,0906_scg_s02_0_oven_00_oven5-bottle3.png
subject-02,1,907,1.34959387779236,chair,oven,0,0907_scg_s02_0_oven_00_oven7-oven1.png
subject-02,1,908,0.839434146881104,knife,knife,0,0908_scg_s02_0_knife_00_knife5-keyboard3.png
subject-02,1,909,0.916250944137573,bicycle,bicycle,0,0909_scg_s02_0_bicycle_00_bicycle8-clock3.png
subject-02,1,910,0.798134088516235,boat,boat,0,0910_scg_s02_0_boat_00_boat2-bird1.png
subject-02,1,911,0.870239973068237,dog,dog,0,0911_scg_s02_0_dog_00_dog9-boat1.png
subject-02,1,912,0.681907892227173,bicycle,bicycle,0,0912_scg_s02_0_bicycle_00_bicycle4-truck3.png
subject-02,1,913,0.893524169921875,oven,oven,0,0913_scg_s02_0_oven_00_oven1-clock3.png
subject-02,1,914,0.734914064407349,dog,dog,0,0914_scg_s02_0_dog_00_dog4-elephant2.png
subject-02,1,915,0.836477041244507,bear,bear,0,0915_scg_s02_0_bear_00_bear2-oven1.png
subject-02,1,916,0.726005077362061,clock,clock,0,0916_scg_s02_0_clock_00_clock5-bicycle1.png
subject-02,1,917,0.851600170135498,chair,chair,0,0917_scg_s02_0_chair_00_chair10-cat1.png
subject-02,1,918,0.614135980606079,car,boat,0,0918_scg_s02_0_boat_00_boat1-car2.png
subject-02,1,919,0.801335096359253,bottle,bottle,0,0919_scg_s02_0_bottle_00_bottle6-bottle3.png
subject-02,1,920,0.868808031082153,bird,bird,0,0920_scg_s02_0_bird_00_bird3-cat1.png
subject-02,1,921,0.864043951034546,oven,boat,0,0921_scg_s02_0_boat_00_boat1-oven1.png
subject-02,1,922,1.08205699920654,bicycle,dog,0,0922_scg_s02_0_dog_00_dog7-oven2.png
subject-02,1,923,0.451834201812744,cat,cat,0,0923_scg_s02_0_cat_00_cat6-clock3.png
subject-02,1,924,0.555685997009277,bicycle,bicycle,0,0924_scg_s02_0_bicycle_00_bicycle1-chair1.png
subject-02,1,925,0.873753070831299,knife,knife,0,0925_scg_s02_0_knife_00_knife10-bear3.png
subject-02,1,926,0.923591136932373,clock,clock,0,0926_scg_s02_0_clock_00_clock6-clock2.png
subject-02,1,927,0.757429838180542,bicycle,bicycle,0,0927_scg_s02_0_bicycle_00_bicycle4-cat1.png
subject-02,1,928,0.715250968933105,bird,bird,0,0928_scg_s02_0_bird_00_bird1-knife3.png
subject-02,1,929,0.964712858200073,truck,truck,0,0929_scg_s02_0_truck_00_truck9-airplane2.png
subject-02,1,930,0.974076986312866,elephant,elephant,0,0930_scg_s02_0_elephant_00_elephant7-bird1.png
subject-02,1,931,0.877516031265259,dog,elephant,0,0931_scg_s02_0_elephant_00_elephant2-clock1.png
subject-02,1,932,0.966255903244019,cat,cat,0,0932_scg_s02_0_cat_00_cat4-chair2.png
subject-02,1,933,0.977450132369995,car,car,0,0933_scg_s02_0_car_00_car7-dog3.png
subject-02,1,934,1.0728588104248,boat,boat,0,0934_scg_s02_0_boat_00_boat2-keyboard1.png
subject-02,1,935,0.882416009902954,elephant,elephant,0,0935_scg_s02_0_elephant_00_elephant5-bear2.png
subject-02,1,936,0.556566953659058,bear,bear,0,0936_scg_s02_0_bear_00_bear8-bear1.png
subject-02,1,937,0.922239065170288,clock,clock,0,0937_scg_s02_0_clock_00_clock6-car2.png
subject-02,1,938,1.25652003288269,knife,knife,0,0938_scg_s02_0_knife_00_knife10-elephant3.png
subject-02,1,939,0.867861986160278,bottle,bottle,0,0939_scg_s02_0_bottle_00_bottle5-elephant1.png
subject-02,1,940,0.713939905166626,bicycle,bicycle,0,0940_scg_s02_0_bicycle_00_bicycle7-clock3.png
subject-02,1,941,0.769201040267944,bottle,bottle,0,0941_scg_s02_0_bottle_00_bottle3-bear2.png
subject-02,1,942,1.50037717819214,bear,bear,0,0942_scg_s02_0_bear_00_bear10-knife2.png
subject-02,1,943,0.790244817733765,chair,chair,0,0943_scg_s02_0_chair_00_chair6-dog1.png
subject-02,1,944,0.885493993759155,dog,dog,0,0944_scg_s02_0_dog_00_dog5-car3.png
subject-02,1,945,1.15719199180603,elephant,elephant,0,0945_scg_s02_0_elephant_00_elephant1-airplane2.png
subject-02,1,946,0.675978183746338,clock,clock,0,0946_scg_s02_0_clock_00_clock8-cat1.png
subject-02,1,947,1.08662509918213,knife,knife,0,0947_scg_s02_0_knife_00_knife1-bird2.png
subject-02,1,948,1.11239099502563,airplane,airplane,0,0948_scg_s02_0_airplane_00_airplane7-truck1.png
subject-02,1,949,0.794510126113892,chair,chair,0,0949_scg_s02_0_chair_00_chair3-car3.png
subject-02,1,950,0.667832851409912,cat,cat,0,0950_scg_s02_0_cat_00_cat9-bird3.png
subject-02,1,951,1.123615026474,elephant,elephant,0,0951_scg_s02_0_elephant_00_elephant8-airplane3.png
subject-02,1,952,1.13575315475464,dog,dog,0,0952_scg_s02_0_dog_00_dog6-clock1.png
subject-02,1,953,0.985528945922852,bird,bird,0,0953_scg_s02_0_bird_00_bird6-truck2.png
subject-02,1,954,1.20312714576721,truck,truck,0,0954_scg_s02_0_truck_00_truck4-knife1.png
subject-02,1,955,0.744250059127808,bottle,bottle,0,0955_scg_s02_0_bottle_00_bottle2-chair3.png
subject-02,1,956,0.78624701499939,clock,clock,0,0956_scg_s02_0_clock_00_clock6-bird3.png
subject-02,1,957,0.671802043914795,bird,knife,0,0957_scg_s02_0_knife_00_knife1-keyboard3.png
subject-02,1,958,0.697206020355225,oven,oven,0,0958_scg_s02_0_oven_00_oven8-cat3.png
subject-02,1,959,0.86890697479248,knife,knife,0,0959_scg_s02_0_knife_00_knife5-clock1.png
subject-02,1,960,0.910650968551636,knife,knife,0,0960_scg_s02_0_knife_00_knife5-cat2.png
subject-02,1,961,0.821805953979492,bicycle,bicycle,0,0961_scg_s02_0_bicycle_00_bicycle1-bicycle3.png
subject-02,1,962,0.694187879562378,bird,bird,0,0962_scg_s02_0_bird_00_bird5-oven3.png
subject-02,1,963,0.868038177490234,bicycle,bicycle,0,0963_scg_s02_0_bicycle_00_bicycle2-bicycle1.png
subject-02,1,964,0.817515850067139,chair,bottle,0,0964_scg_s02_0_bottle_00_bottle7-truck2.png
subject-02,1,965,0.97377610206604,knife,knife,0,0965_scg_s02_0_knife_00_knife6-truck1.png
subject-02,1,966,1.0565140247345,bicycle,bicycle,0,0966_scg_s02_0_bicycle_00_bicycle1-bird1.png
subject-02,1,967,0.797913074493408,bottle,bottle,0,0967_scg_s02_0_bottle_00_bottle8-dog2.png
subject-02,1,968,1.02331709861755,keyboard,keyboard,0,0968_scg_s02_0_keyboard_00_keyboard5-bicycle1.png
subject-02,1,969,0.83227801322937,bicycle,bicycle,0,0969_scg_s02_0_bicycle_00_bicycle1-clock3.png
subject-02,1,970,0.952474117279053,elephant,elephant,0,0970_scg_s02_0_elephant_00_elephant9-bicycle2.png
subject-02,1,971,0.663905143737793,dog,dog,0,0971_scg_s02_0_dog_00_dog3-keyboard1.png
subject-02,1,972,0.729802131652832,clock,clock,0,0972_scg_s02_0_clock_00_clock7-cat2.png
subject-02,1,973,0.855180978775024,bird,bird,0,0973_scg_s02_0_bird_00_bird8-elephant1.png
subject-02,1,974,1.00178503990173,dog,elephant,0,0974_scg_s02_0_elephant_00_elephant2-bear3.png
subject-02,1,975,0.976371049880981,bottle,bottle,0,0975_scg_s02_0_bottle_00_bottle3-bird1.png
subject-02,1,976,0.518213987350464,clock,clock,0,0976_scg_s02_0_clock_00_clock2-clock3.png
subject-02,1,977,0.927154064178467,bottle,bottle,0,0977_scg_s02_0_bottle_00_bottle4-bicycle1.png
subject-02,1,978,0.930354118347168,cat,cat,0,0978_scg_s02_0_cat_00_cat6-chair3.png
subject-02,1,979,0.566667795181274,boat,boat,0,0979_scg_s02_0_boat_00_boat5-knife2.png
subject-02,1,980,0.591876029968262,cat,cat,0,0980_scg_s02_0_cat_00_cat5-car2.png
subject-02,1,981,0.733479976654053,knife,knife,0,0981_scg_s02_0_knife_00_knife1-dog1.png
subject-02,1,982,0.758878946304321,car,car,0,0982_scg_s02_0_car_00_car3-bottle3.png
subject-02,1,983,0.740965843200684,chair,chair,0,0983_scg_s02_0_chair_00_chair5-knife3.png
subject-02,1,984,1.50000810623169,chair,boat,0,0984_scg_s02_0_boat_00_boat7-keyboard3.png
subject-02,1,985,0.77841591835022,truck,truck,0,0985_scg_s02_0_truck_00_truck4-airplane3.png
subject-02,1,986,0.881723880767822,bicycle,bicycle,0,0986_scg_s02_0_bicycle_00_bicycle10-elephant2.png
subject-02,1,987,0.96170711517334,car,car,0,0987_scg_s02_0_car_00_car6-truck3.png
subject-02,1,988,0.565328121185303,chair,chair,0,0988_scg_s02_0_chair_00_chair7-cat1.png
subject-02,1,989,0.882716178894043,car,car,0,0989_scg_s02_0_car_00_car7-clock1.png
subject-02,1,990,0.823759078979492,boat,boat,0,0990_scg_s02_0_boat_00_boat8-dog3.png
subject-02,1,991,1.04454708099365,dog,bear,0,0991_scg_s02_0_bear_00_bear10-keyboard3.png
subject-02,1,992,0.958361864089966,bear,bear,0,0992_scg_s02_0_bear_00_bear4-car3.png
subject-02,1,993,0.931728839874268,chair,chair,0,0993_scg_s02_0_chair_00_chair5-car1.png
subject-02,1,994,0.705583095550537,car,car,0,0994_scg_s02_0_car_00_car7-bird3.png
subject-02,1,995,1.01504611968994,truck,truck,0,0995_scg_s02_0_truck_00_truck4-boat3.png
subject-02,1,996,0.933356046676636,knife,knife,0,0996_scg_s02_0_knife_00_knife7-boat3.png
subject-02,1,997,0.690039873123169,dog,dog,0,0997_scg_s02_0_dog_00_dog4-cat3.png
subject-02,1,998,0.877926111221313,oven,oven,0,0998_scg_s02_0_oven_00_oven2-oven3.png
subject-02,1,999,0.719741106033325,truck,truck,0,0999_scg_s02_0_truck_00_truck10-airplane1.png
subject-02,1,1000,0.920017004013062,clock,clock,0,1000_scg_s02_0_clock_00_clock10-boat2.png
subject-02,1,1001,0.602236986160278,bottle,bottle,0,1001_scg_s02_0_bottle_00_bottle6-boat3.png
subject-02,1,1002,0.827556133270264,boat,boat,0,1002_scg_s02_0_boat_00_boat6-car1.png
subject-02,1,1003,0.669225931167603,oven,airplane,0,1003_scg_s02_0_airplane_00_airplane2-bottle1.png
subject-02,1,1004,0.946732044219971,chair,chair,0,1004_scg_s02_0_chair_00_chair9-dog2.png
subject-02,1,1005,0.774628877639771,oven,oven,0,1005_scg_s02_0_oven_00_oven1-cat1.png
subject-02,1,1006,0.532699108123779,bottle,bottle,0,1006_scg_s02_0_bottle_00_bottle5-chair1.png
subject-02,1,1007,0.698273897171021,oven,keyboard,0,1007_scg_s02_0_keyboard_00_keyboard7-bear2.png
subject-02,1,1008,0.586719036102295,bottle,bottle,0,1008_scg_s02_0_bottle_00_bottle5-airplane1.png
subject-02,1,1009,1.37208580970764,cat,cat,0,1009_scg_s02_0_cat_00_cat8-car2.png
subject-02,1,1010,1.01590013504028,elephant,elephant,0,1010_scg_s02_0_elephant_00_elephant1-bottle1.png
subject-02,1,1011,0.681978940963745,bird,bird,0,1011_scg_s02_0_bird_00_bird5-chair1.png
subject-02,1,1012,0.831853151321411,boat,boat,0,1012_scg_s02_0_boat_00_boat2-bottle2.png
subject-02,1,1013,0.87113881111145,knife,knife,0,1013_scg_s02_0_knife_00_knife8-bicycle1.png
subject-02,1,1014,0.583024978637695,cat,cat,0,1014_scg_s02_0_cat_00_cat1-car2.png
subject-02,1,1015,0.945860147476196,bear,bear,0,1015_scg_s02_0_bear_00_bear8-airplane1.png
subject-02,1,1016,0.949779987335205,bear,bear,0,1016_scg_s02_0_bear_00_bear3-car2.png
subject-02,1,1017,0.65845513343811,chair,chair,0,1017_scg_s02_0_chair_00_chair3-dog2.png
subject-02,1,1018,1.01626491546631,car,car,0,1018_scg_s02_0_car_00_car6-bottle1.png
subject-02,1,1019,0.988211870193481,chair,chair,0,1019_scg_s02_0_chair_00_chair2-keyboard2.png
subject-02,1,1020,0.999716997146606,oven,oven,0,1020_scg_s02_0_oven_00_oven1-bird3.png
subject-02,1,1021,0.925251960754395,knife,knife,0,1021_scg_s02_0_knife_00_knife1-oven1.png
subject-02,1,1022,0.844643115997314,keyboard,keyboard,0,1022_scg_s02_0_keyboard_00_keyboard7-clock3.png
subject-02,1,1023,0.924896001815796,dog,dog,0,1023_scg_s02_0_dog_00_dog10-car3.png
subject-02,1,1024,1.5001859664917,elephant,elephant,0,1024_scg_s02_0_elephant_00_elephant4-oven1.png
subject-02,1,1025,0.848734140396118,bear,elephant,0,1025_scg_s02_0_elephant_00_elephant7-knife2.png
subject-02,1,1026,0.684816122055054,bicycle,bicycle,0,1026_scg_s02_0_bicycle_00_bicycle2-keyboard2.png
subject-02,1,1027,0.764263153076172,elephant,elephant,0,1027_scg_s02_0_elephant_00_elephant3-cat2.png
subject-02,1,1028,0.682032108306885,clock,clock,0,1028_scg_s02_0_clock_00_clock2-bicycle1.png
subject-02,1,1029,0.870071887969971,bird,bird,0,1029_scg_s02_0_bird_00_bird2-knife1.png
subject-02,1,1030,0.565677881240845,bear,bear,0,1030_scg_s02_0_bear_00_bear7-bicycle2.png
subject-02,1,1031,0.814850091934204,chair,oven,0,1031_scg_s02_0_oven_00_oven7-elephant1.png
subject-02,1,1032,0.711119890213013,car,car,0,1032_scg_s02_0_car_00_car10-elephant2.png
subject-02,1,1033,0.890538215637207,chair,chair,0,1033_scg_s02_0_chair_00_chair9-chair3.png
subject-02,1,1034,0.748432159423828,chair,chair,0,1034_scg_s02_0_chair_00_chair10-bird3.png
subject-02,1,1035,0.620507001876831,bear,bear,0,1035_scg_s02_0_bear_00_bear7-bear2.png
subject-02,1,1036,0.727154016494751,bird,bird,0,1036_scg_s02_0_bird_00_bird9-keyboard1.png
subject-02,1,1037,0.806974172592163,oven,oven,0,1037_scg_s02_0_oven_00_oven2-chair1.png
subject-02,1,1038,0.716610193252563,bear,elephant,0,1038_scg_s02_0_elephant_00_elephant4-chair3.png
subject-02,1,1039,0.821635007858276,cat,cat,0,1039_scg_s02_0_cat_00_cat6-keyboard3.png
subject-02,1,1040,0.879485845565796,car,truck,0,1040_scg_s02_0_truck_00_truck3-clock3.png
subject-02,1,1041,0.790349006652832,bear,bear,0,1041_scg_s02_0_bear_00_bear1-chair2.png
subject-02,1,1042,0.984055995941162,airplane,airplane,0,1042_scg_s02_0_airplane_00_airplane1-clock1.png
subject-02,1,1043,1.01004505157471,bear,bear,0,1043_scg_s02_0_bear_00_bear2-knife2.png
subject-02,1,1044,1.00570321083069,dog,dog,0,1044_scg_s02_0_dog_00_dog5-truck2.png
subject-02,1,1045,0.871617078781128,knife,knife,0,1045_scg_s02_0_knife_00_knife10-keyboard3.png
subject-02,1,1046,0.680832862854004,oven,oven,0,1046_scg_s02_0_oven_00_oven6-bicycle1.png
subject-02,1,1047,0.692471027374268,oven,oven,0,1047_scg_s02_0_oven_00_oven6-oven3.png
subject-02,1,1048,0.91825008392334,clock,elephant,0,1048_scg_s02_0_elephant_00_elephant10-knife3.png
subject-02,1,1049,0.938788890838623,bear,bear,0,1049_scg_s02_0_bear_00_bear2-keyboard2.png
subject-02,1,1050,0.85863995552063,bird,bird,0,1050_scg_s02_0_bird_00_bird6-airplane2.png
subject-02,1,1051,0.992758989334106,oven,oven,0,1051_scg_s02_0_oven_00_oven9-airplane2.png
subject-02,1,1052,1.50030779838562,bird,bird,0,1052_scg_s02_0_bird_00_bird3-dog1.png
subject-02,1,1053,0.676085948944092,oven,oven,0,1053_scg_s02_0_oven_00_oven9-car2.png
subject-02,1,1054,0.771428823471069,keyboard,keyboard,0,1054_scg_s02_0_keyboard_00_keyboard8-chair2.png
subject-02,1,1055,0.972404956817627,chair,knife,0,1055_scg_s02_0_knife_00_knife6-chair3.png
subject-02,1,1056,0.892333984375,elephant,elephant,0,1056_scg_s02_0_elephant_00_elephant9-airplane2.png
subject-02,1,1057,0.956156969070435,dog,dog,0,1057_scg_s02_0_dog_00_dog1-boat3.png
subject-02,1,1058,1.27376198768616,dog,elephant,0,1058_scg_s02_0_elephant_00_elephant2-boat1.png
subject-02,1,1059,1.03119707107544,chair,chair,0,1059_scg_s02_0_chair_00_chair10-clock1.png
subject-02,1,1060,1.13291001319885,dog,dog,0,1060_scg_s02_0_dog_00_dog8-bottle2.png
subject-02,1,1061,1.00648403167725,keyboard,keyboard,0,1061_scg_s02_0_keyboard_00_keyboard1-airplane2.png
subject-02,1,1062,1.24041509628296,chair,chair,0,1062_scg_s02_0_chair_00_chair10-dog1.png
subject-02,1,1063,1.0659511089325,knife,knife,0,1063_scg_s02_0_knife_00_knife3-cat1.png
subject-02,1,1064,0.677539110183716,bottle,bottle,0,1064_scg_s02_0_bottle_00_bottle7-elephant2.png
subject-02,1,1065,0.727629899978638,bottle,bottle,0,1065_scg_s02_0_bottle_00_bottle5-clock3.png
subject-02,1,1066,0.807392120361328,bird,airplane,0,1066_scg_s02_0_airplane_00_airplane4-cat3.png
subject-02,1,1067,1.50003290176392,car,car,0,1067_scg_s02_0_car_00_car10-keyboard2.png
subject-02,1,1068,0.864389896392822,oven,oven,0,1068_scg_s02_0_oven_00_oven1-dog3.png
subject-02,1,1069,0.620175838470459,chair,oven,0,1069_scg_s02_0_oven_00_oven7-dog2.png
subject-02,1,1070,0.892833948135376,keyboard,keyboard,0,1070_scg_s02_0_keyboard_00_keyboard8-keyboard2.png
subject-02,1,1071,0.894270181655884,boat,truck,0,1071_scg_s02_0_truck_00_truck7-keyboard3.png
subject-02,1,1072,0.851986169815063,bicycle,bicycle,0,1072_scg_s02_0_bicycle_00_bicycle5-cat1.png
subject-02,1,1073,1.0615348815918,boat,boat,0,1073_scg_s02_0_boat_00_boat7-boat2.png
subject-02,1,1074,0.944320917129517,dog,dog,0,1074_scg_s02_0_dog_00_dog2-bottle2.png
subject-02,1,1075,0.932113885879517,dog,dog,0,1075_scg_s02_0_dog_00_dog2-airplane2.png
subject-02,1,1076,0.810284852981567,bicycle,bicycle,0,1076_scg_s02_0_bicycle_00_bicycle3-keyboard1.png
subject-02,1,1077,1.12781882286072,car,car,0,1077_scg_s02_0_car_00_car7-boat3.png
subject-02,1,1078,1.13987708091736,knife,knife,0,1078_scg_s02_0_knife_00_knife5-oven2.png
subject-02,1,1079,1.16571688652039,knife,knife,0,1079_scg_s02_0_knife_00_knife4-car2.png
subject-02,1,1080,1.07756185531616,elephant,elephant,0,1080_scg_s02_0_elephant_00_elephant8-elephant1.png
subject-02,1,1081,0.956823825836182,keyboard,cat,0,1081_scg_s02_0_cat_00_cat9-bottle2.png
subject-02,1,1082,0.71992015838623,chair,airplane,0,1082_scg_s02_0_airplane_00_airplane3-chair3.png
subject-02,1,1083,0.715713024139404,bird,airplane,0,1083_scg_s02_0_airplane_00_airplane3-dog1.png
subject-02,1,1084,1.04978084564209,truck,truck,0,1084_scg_s02_0_truck_00_truck7-truck2.png
subject-02,1,1085,1.06740689277649,bear,bear,0,1085_scg_s02_0_bear_00_bear5-bird1.png
subject-02,1,1086,1.41706204414368,airplane,airplane,0,1086_scg_s02_0_airplane_00_airplane2-bird3.png
subject-02,1,1087,0.942819118499756,bicycle,bicycle,0,1087_scg_s02_0_bicycle_00_bicycle4-car2.png
subject-02,1,1088,0.862046003341675,truck,truck,0,1088_scg_s02_0_truck_00_truck8-elephant1.png
subject-02,1,1089,0.803313970565796,cat,cat,0,1089_scg_s02_0_cat_00_cat9-knife2.png
subject-02,1,1090,1.45118188858032,cat,cat,0,1090_scg_s02_0_cat_00_cat7-truck2.png
subject-02,1,1091,0.901289939880371,chair,chair,0,1091_scg_s02_0_chair_00_chair4-cat2.png
subject-02,1,1092,0.934943914413452,dog,dog,0,1092_scg_s02_0_dog_00_dog4-keyboard2.png
subject-02,1,1093,1.26018786430359,bear,bear,0,1093_scg_s02_0_bear_00_bear7-oven3.png
subject-02,1,1094,0.909820079803467,car,car,0,1094_scg_s02_0_car_00_car3-dog2.png
subject-02,1,1095,0.813162803649902,car,car,0,1095_scg_s02_0_car_00_car4-bird1.png
subject-02,1,1096,0.701348781585693,cat,cat,0,1096_scg_s02_0_cat_00_cat7-dog3.png
