subj,session,trial,rt,object_response,category,condition,imagename
subject-06,1,1,1.22742915153503,clock,oven,0,0001_scg_s06_0_oven_00_oven2-oven3.png
subject-06,1,2,1.24190998077393,bird,bird,0,0002_scg_s06_0_bird_00_bird2-dog2.png
subject-06,1,3,1.27406597137451,bird,car,0,0003_scg_s06_0_car_00_car1-dog2.png
subject-06,1,4,0.903806924819946,boat,boat,0,0004_scg_s06_0_boat_00_boat10-boat3.png
subject-06,1,5,1.24508309364319,car,boat,0,0005_scg_s06_0_boat_00_boat3-bicycle2.png
subject-06,1,6,1.15122604370117,chair,bird,0,0006_scg_s06_0_bird_00_bird10-chair1.png
subject-06,1,7,1.01109981536865,knife,knife,0,0007_scg_s06_0_knife_00_knife2-bear2.png
subject-06,1,8,1.05510401725769,elephant,elephant,0,0008_scg_s06_0_elephant_00_elephant9-elephant3.png
subject-06,1,9,0.82873797416687,bicycle,bicycle,0,0009_scg_s06_0_bicycle_00_bicycle9-airplane2.png
subject-06,1,10,0.934509038925171,dog,dog,0,0010_scg_s06_0_dog_00_dog2-dog3.png
subject-06,1,11,0.845737934112549,keyboard,keyboard,0,0011_scg_s06_0_keyboard_00_keyboard6-bicycle1.png
subject-06,1,12,1.03031420707703,bottle,bottle,0,0012_scg_s06_0_bottle_00_bottle2-bottle3.png
subject-06,1,13,0.782354116439819,bicycle,bicycle,0,0013_scg_s06_0_bicycle_00_bicycle2-dog1.png
subject-06,1,14,0.793764114379883,bottle,bottle,0,0014_scg_s06_0_bottle_00_bottle9-cat2.png
subject-06,1,15,1.42939901351929,knife,knife,0,0015_scg_s06_0_knife_00_knife3-bear2.png
subject-06,1,16,0.99750804901123,bottle,bottle,0,0016_scg_s06_0_bottle_00_bottle9-elephant2.png
subject-06,1,17,0.908875942230225,bicycle,bird,0,0017_scg_s06_0_bird_00_bird8-keyboard2.png
subject-06,1,18,1.34471106529236,chair,boat,0,0018_scg_s06_0_boat_00_boat7-chair1.png
subject-06,1,19,1.09639191627502,bear,elephant,0,0019_scg_s06_0_elephant_00_elephant2-bear3.png
subject-06,1,20,0.818833112716675,keyboard,keyboard,0,0020_scg_s06_0_keyboard_00_keyboard10-airplane3.png
subject-06,1,21,0.870835065841675,truck,truck,0,0021_scg_s06_0_truck_00_truck5-dog3.png
subject-06,1,22,0.983175992965698,chair,chair,0,0022_scg_s06_0_chair_00_chair3-bicycle3.png
subject-06,1,23,0.981390953063965,knife,knife,0,0023_scg_s06_0_knife_00_knife4-car2.png
subject-06,1,24,0.865050077438354,chair,chair,0,0024_scg_s06_0_chair_00_chair8-clock3.png
subject-06,1,25,1.09324502944946,dog,dog,0,0025_scg_s06_0_dog_00_dog8-clock2.png
subject-06,1,26,0.807662963867188,truck,truck,0,0026_scg_s06_0_truck_00_truck2-oven3.png
subject-06,1,27,0.87372088432312,bicycle,bicycle,0,0027_scg_s06_0_bicycle_00_bicycle6-cat1.png
subject-06,1,28,0.716943979263306,bottle,bottle,0,0028_scg_s06_0_bottle_00_bottle10-clock2.png
subject-06,1,29,1.01450204849243,bottle,knife,0,0029_scg_s06_0_knife_00_knife9-bottle2.png
subject-06,1,30,1.01299405097961,bird,bird,0,0030_scg_s06_0_bird_00_bird5-bird1.png
subject-06,1,31,0.856961011886597,bird,bird,0,0031_scg_s06_0_bird_00_bird1-airplane2.png
subject-06,1,32,0.754787921905518,oven,oven,0,0032_scg_s06_0_oven_00_oven4-truck3.png
subject-06,1,33,0.84702205657959,cat,cat,0,0033_scg_s06_0_cat_00_cat2-elephant1.png
subject-06,1,34,0.896563053131104,oven,oven,0,0034_scg_s06_0_oven_00_oven2-car1.png
subject-06,1,35,1.03992390632629,clock,clock,0,0035_scg_s06_0_clock_00_clock6-chair3.png
subject-06,1,36,0.800034046173096,bear,bear,0,0036_scg_s06_0_bear_00_bear3-cat1.png
subject-06,1,37,0.836472988128662,chair,chair,0,0037_scg_s06_0_chair_00_chair5-oven2.png
subject-06,1,38,NaN,na,boat,0,0038_scg_s06_0_boat_00_boat7-truck2.png
subject-06,1,39,1.3399031162262,elephant,elephant,0,0039_scg_s06_0_elephant_00_elephant1-car3.png
subject-06,1,40,0.83030104637146,bottle,bottle,0,0040_scg_s06_0_bottle_00_bottle10-bear2.png
subject-06,1,41,1.23395395278931,chair,chair,0,0041_scg_s06_0_chair_00_chair4-keyboard2.png
subject-06,1,42,0.871226072311401,keyboard,oven,0,0042_scg_s06_0_oven_00_oven6-bicycle1.png
subject-06,1,43,0.822964906692505,chair,chair,0,0043_scg_s06_0_chair_00_chair4-oven2.png
subject-06,1,44,1.20482110977173,elephant,elephant,0,0044_scg_s06_0_elephant_00_elephant7-keyboard3.png
subject-06,1,45,0.92023491859436,oven,oven,0,0045_scg_s06_0_oven_00_oven5-bird1.png
subject-06,1,46,1.21801519393921,keyboard,car,0,0046_scg_s06_0_car_00_car2-knife3.png
subject-06,1,47,0.995193004608154,bird,bird,0,0047_scg_s06_0_bird_00_bird5-truck2.png
subject-06,1,48,0.918106079101562,bird,bird,0,0048_scg_s06_0_bird_00_bird2-knife1.png
subject-06,1,49,0.984018087387085,clock,airplane,0,0049_scg_s06_0_airplane_00_airplane3-clock1.png
subject-06,1,50,1.21365213394165,knife,boat,0,0050_scg_s06_0_boat_00_boat8-knife1.png
subject-06,1,51,0.896130084991455,bear,bear,0,0051_scg_s06_0_bear_00_bear10-truck1.png
subject-06,1,52,1.05625891685486,bird,boat,0,0052_scg_s06_0_boat_00_boat6-cat1.png
subject-06,1,53,0.975895881652832,knife,knife,0,0053_scg_s06_0_knife_00_knife9-boat1.png
subject-06,1,54,0.943801879882812,bird,bird,0,0054_scg_s06_0_bird_00_bird9-chair1.png
subject-06,1,55,0.741761207580566,bottle,bottle,0,0055_scg_s06_0_bottle_00_bottle5-truck1.png
subject-06,1,56,0.855690002441406,bird,bird,0,0056_scg_s06_0_bird_00_bird5-chair1.png
subject-06,1,57,0.897412061691284,knife,airplane,0,0057_scg_s06_0_airplane_00_airplane9-truck1.png
subject-06,1,58,0.802775144577026,bottle,bottle,0,0058_scg_s06_0_bottle_00_bottle6-chair2.png
subject-06,1,59,0.700297117233276,clock,clock,0,0059_scg_s06_0_clock_00_clock2-bottle3.png
subject-06,1,60,1.50016617774963,bird,elephant,0,0060_scg_s06_0_elephant_00_elephant6-bird1.png
subject-06,1,61,1.10512495040894,chair,chair,0,0061_scg_s06_0_chair_00_chair3-bottle3.png
subject-06,1,62,0.886929988861084,bottle,bottle,0,0062_scg_s06_0_bottle_00_bottle1-chair2.png
subject-06,1,63,0.861198902130127,dog,dog,0,0063_scg_s06_0_dog_00_dog10-airplane1.png
subject-06,1,64,0.92081093788147,bottle,bottle,0,0064_scg_s06_0_bottle_00_bottle1-keyboard3.png
subject-06,1,65,1.08661913871765,elephant,elephant,0,0065_scg_s06_0_elephant_00_elephant6-car3.png
subject-06,1,66,0.886842012405396,car,car,0,0066_scg_s06_0_car_00_car7-elephant3.png
subject-06,1,67,0.87652587890625,elephant,elephant,0,0067_scg_s06_0_elephant_00_elephant1-bottle1.png
subject-06,1,68,1.19677186012268,knife,airplane,0,0068_scg_s06_0_airplane_00_airplane9-keyboard2.png
subject-06,1,69,0.840430974960327,bird,bird,0,0069_scg_s06_0_bird_00_bird7-bottle1.png
subject-06,1,70,0.929960012435913,chair,chair,0,0070_scg_s06_0_chair_00_chair5-keyboard2.png
subject-06,1,71,0.759651899337769,chair,chair,0,0071_scg_s06_0_chair_00_chair10-oven1.png
subject-06,1,72,1.05028915405273,car,car,0,0072_scg_s06_0_car_00_car4-clock1.png
subject-06,1,73,0.932185173034668,boat,boat,0,0073_scg_s06_0_boat_00_boat8-bottle1.png
subject-06,1,74,1.06025099754333,bicycle,bicycle,0,0074_scg_s06_0_bicycle_00_bicycle7-clock3.png
subject-06,1,75,1.05195999145508,oven,bottle,0,0075_scg_s06_0_bottle_00_bottle7-keyboard2.png
subject-06,1,76,1.00945997238159,elephant,elephant,0,0076_scg_s06_0_elephant_00_elephant7-clock2.png
subject-06,1,77,0.861083984375,car,car,0,0077_scg_s06_0_car_00_car6-bear1.png
subject-06,1,78,0.75960111618042,clock,clock,0,0078_scg_s06_0_clock_00_clock10-cat1.png
subject-06,1,79,1.39650297164917,elephant,elephant,0,0079_scg_s06_0_elephant_00_elephant2-bird1.png
subject-06,1,80,1.08012795448303,knife,boat,0,0080_scg_s06_0_boat_00_boat1-keyboard3.png
subject-06,1,81,0.824524879455566,clock,clock,0,0081_scg_s06_0_clock_00_clock8-bear2.png
subject-06,1,82,1.1282970905304,car,car,0,0082_scg_s06_0_car_00_car5-cat1.png
subject-06,1,83,0.957802057266235,elephant,elephant,0,0083_scg_s06_0_elephant_00_elephant9-bicycle2.png
subject-06,1,84,0.934299945831299,car,car,0,0084_scg_s06_0_car_00_car9-truck3.png
subject-06,1,85,1.14582800865173,bicycle,bicycle,0,0085_scg_s06_0_bicycle_00_bicycle1-bicycle3.png
subject-06,1,86,0.90542197227478,elephant,elephant,0,0086_scg_s06_0_elephant_00_elephant4-boat3.png
subject-06,1,87,0.903918027877808,oven,cat,0,0087_scg_s06_0_cat_00_cat10-oven2.png
subject-06,1,88,0.747670888900757,clock,clock,0,0088_scg_s06_0_clock_00_clock7-cat2.png
subject-06,1,89,0.784101963043213,cat,cat,0,0089_scg_s06_0_cat_00_cat2-knife3.png
subject-06,1,90,0.889410972595215,cat,cat,0,0090_scg_s06_0_cat_00_cat5-bicycle3.png
subject-06,1,91,0.687242984771729,cat,cat,0,0091_scg_s06_0_cat_00_cat4-cat3.png
subject-06,1,92,0.884526014328003,chair,dog,0,0092_scg_s06_0_dog_00_dog8-chair3.png
subject-06,1,93,0.896826982498169,bottle,bottle,0,0093_scg_s06_0_bottle_00_bottle7-bear1.png
subject-06,1,94,1.01890897750854,knife,knife,0,0094_scg_s06_0_knife_00_knife9-elephant2.png
subject-06,1,95,0.816475868225098,oven,oven,0,0095_scg_s06_0_oven_00_oven4-clock2.png
subject-06,1,96,0.936165809631348,knife,knife,0,0096_scg_s06_0_knife_00_knife6-dog2.png
subject-06,1,97,1.09697699546814,knife,knife,0,0097_scg_s06_0_knife_00_knife8-bicycle1.png
subject-06,1,98,0.877833127975464,chair,chair,0,0098_scg_s06_0_chair_00_chair9-bicycle3.png
subject-06,1,99,0.992496013641357,knife,knife,0,0099_scg_s06_0_knife_00_knife5-bicycle2.png
subject-06,1,100,0.803263902664185,bear,bear,0,0100_scg_s06_0_bear_00_bear2-dog1.png
subject-06,1,101,1.03343605995178,cat,airplane,0,0101_scg_s06_0_airplane_00_airplane3-airplane2.png
subject-06,1,102,0.921783924102783,dog,dog,0,0102_scg_s06_0_dog_00_dog2-cat1.png
subject-06,1,103,0.78113317489624,bear,bear,0,0103_scg_s06_0_bear_00_bear1-chair2.png
subject-06,1,104,0.709496974945068,clock,clock,0,0104_scg_s06_0_clock_00_clock4-oven1.png
subject-06,1,105,1.02309703826904,keyboard,keyboard,0,0105_scg_s06_0_keyboard_00_keyboard9-cat1.png
subject-06,1,106,0.858670949935913,airplane,airplane,0,0106_scg_s06_0_airplane_00_airplane7-bird3.png
subject-06,1,107,1.32525110244751,knife,boat,0,0107_scg_s06_0_boat_00_boat2-bear3.png
subject-06,1,108,1.11515998840332,knife,knife,0,0108_scg_s06_0_knife_00_knife1-chair1.png
subject-06,1,109,0.882857084274292,bottle,bottle,0,0109_scg_s06_0_bottle_00_bottle9-keyboard1.png
subject-06,1,110,0.85145092010498,knife,boat,0,0110_scg_s06_0_boat_00_boat4-chair2.png
subject-06,1,111,1.17133402824402,bear,bear,0,0111_scg_s06_0_bear_00_bear5-bird1.png
subject-06,1,112,1.03057599067688,bird,bird,0,0112_scg_s06_0_bird_00_bird6-truck2.png
subject-06,1,113,1.04994916915894,car,car,0,0113_scg_s06_0_car_00_car4-oven2.png
subject-06,1,114,1.00997805595398,knife,knife,0,0114_scg_s06_0_knife_00_knife8-bottle3.png
subject-06,1,115,1.16296291351318,boat,boat,0,0115_scg_s06_0_boat_00_boat10-cat1.png
subject-06,1,116,0.785538911819458,boat,boat,0,0116_scg_s06_0_boat_00_boat2-airplane1.png
subject-06,1,117,0.98864483833313,car,car,0,0117_scg_s06_0_car_00_car4-bear3.png
subject-06,1,118,0.964832067489624,cat,cat,0,0118_scg_s06_0_cat_00_cat10-bear1.png
subject-06,1,119,1.01430583000183,bird,bird,0,0119_scg_s06_0_bird_00_bird3-bottle2.png
subject-06,1,120,0.879402160644531,oven,oven,0,0120_scg_s06_0_oven_00_oven6-elephant2.png
subject-06,1,121,1.05562901496887,knife,airplane,0,0121_scg_s06_0_airplane_00_airplane4-boat3.png
subject-06,1,122,1.05441999435425,bird,bird,0,0122_scg_s06_0_bird_00_bird8-knife2.png
subject-06,1,123,0.865811109542847,oven,oven,0,0123_scg_s06_0_oven_00_oven10-bear1.png
subject-06,1,124,1.08764100074768,chair,chair,0,0124_scg_s06_0_chair_00_chair5-bird1.png
subject-06,1,125,0.885433912277222,boat,boat,0,0125_scg_s06_0_boat_00_boat9-keyboard2.png
subject-06,1,126,0.813009977340698,cat,cat,0,0126_scg_s06_0_cat_00_cat8-car2.png
subject-06,1,127,1.04902601242065,boat,airplane,0,0127_scg_s06_0_airplane_00_airplane9-car2.png
subject-06,1,128,0.839057922363281,chair,chair,0,0128_scg_s06_0_chair_00_chair5-knife3.png
subject-06,1,129,0.898959159851074,keyboard,keyboard,0,0129_scg_s06_0_keyboard_00_keyboard7-car3.png
subject-06,1,130,0.964594125747681,boat,airplane,0,0130_scg_s06_0_airplane_00_airplane2-bear1.png
subject-06,1,131,0.971244812011719,bird,bird,0,0131_scg_s06_0_bird_00_bird1-truck1.png
subject-06,1,132,1.09001302719116,knife,airplane,0,0132_scg_s06_0_airplane_00_airplane4-bicycle2.png
subject-06,1,133,1.09069085121155,car,car,0,0133_scg_s06_0_car_00_car2-bird3.png
subject-06,1,134,0.826377868652344,bear,bear,0,0134_scg_s06_0_bear_00_bear2-knife2.png
subject-06,1,135,1.42254710197449,chair,oven,0,0135_scg_s06_0_oven_00_oven7-car3.png
subject-06,1,136,1.08993911743164,boat,cat,0,0136_scg_s06_0_cat_00_cat4-knife1.png
subject-06,1,137,0.888007879257202,chair,chair,0,0137_scg_s06_0_chair_00_chair5-clock2.png
subject-06,1,138,0.965180158615112,car,car,0,0138_scg_s06_0_car_00_car8-dog1.png
subject-06,1,139,1.05484104156494,elephant,bear,0,0139_scg_s06_0_bear_00_bear7-truck1.png
subject-06,1,140,0.79139518737793,oven,oven,0,0140_scg_s06_0_oven_00_oven1-cat1.png
subject-06,1,141,1.02708601951599,knife,knife,0,0141_scg_s06_0_knife_00_knife1-dog1.png
subject-06,1,142,0.941494941711426,boat,dog,0,0142_scg_s06_0_dog_00_dog1-car2.png
subject-06,1,143,1.06069612503052,cat,boat,0,0143_scg_s06_0_boat_00_boat7-cat3.png
subject-06,1,144,0.936846017837524,keyboard,keyboard,0,0144_scg_s06_0_keyboard_00_keyboard2-bottle1.png
subject-06,1,145,1.16175699234009,chair,chair,0,0145_scg_s06_0_chair_00_chair5-bottle3.png
subject-06,1,146,1.50023794174194,knife,knife,0,0146_scg_s06_0_knife_00_knife6-bicycle1.png
subject-06,1,147,1.1625120639801,knife,knife,0,0147_scg_s06_0_knife_00_knife3-cat1.png
subject-06,1,148,1.00597286224365,bear,bear,0,0148_scg_s06_0_bear_00_bear10-bear2.png
subject-06,1,149,0.841881036758423,bird,bird,0,0149_scg_s06_0_bird_00_bird8-elephant1.png
subject-06,1,150,1.06373715400696,bird,bird,0,0150_scg_s06_0_bird_00_bird10-elephant2.png
subject-06,1,151,0.946043014526367,elephant,elephant,0,0151_scg_s06_0_elephant_00_elephant4-oven1.png
subject-06,1,152,0.905962944030762,dog,dog,0,0152_scg_s06_0_dog_00_dog10-car3.png
subject-06,1,153,0.846421003341675,chair,chair,0,0153_scg_s06_0_chair_00_chair3-dog2.png
subject-06,1,154,1.15338921546936,keyboard,keyboard,0,0154_scg_s06_0_keyboard_00_keyboard6-bear2.png
subject-06,1,155,1.00513100624084,bird,bird,0,0155_scg_s06_0_bird_00_bird10-clock1.png
subject-06,1,156,0.71078896522522,clock,clock,0,0156_scg_s06_0_clock_00_clock3-cat1.png
subject-06,1,157,0.892286062240601,bicycle,bicycle,0,0157_scg_s06_0_bicycle_00_bicycle9-knife3.png
subject-06,1,158,0.874168872833252,bear,bear,0,0158_scg_s06_0_bear_00_bear8-bicycle3.png
subject-06,1,159,1.08620500564575,truck,truck,0,0159_scg_s06_0_truck_00_truck7-oven2.png
subject-06,1,160,1.13898396492004,cat,airplane,0,0160_scg_s06_0_airplane_00_airplane8-truck3.png
subject-06,1,161,0.812169075012207,bicycle,bicycle,0,0161_scg_s06_0_bicycle_00_bicycle4-truck3.png
subject-06,1,162,1.16371083259583,airplane,airplane,0,0162_scg_s06_0_airplane_00_airplane3-elephant1.png
subject-06,1,163,0.869467973709106,cat,cat,0,0163_scg_s06_0_cat_00_cat8-bear1.png
subject-06,1,164,1.18198394775391,bird,bottle,0,0164_scg_s06_0_bottle_00_bottle6-bird1.png
subject-06,1,165,0.902966976165771,knife,knife,0,0165_scg_s06_0_knife_00_knife7-chair2.png
subject-06,1,166,0.822857141494751,chair,chair,0,0166_scg_s06_0_chair_00_chair9-boat2.png
subject-06,1,167,1.26843094825745,dog,dog,0,0167_scg_s06_0_dog_00_dog9-bottle1.png
subject-06,1,168,1.06557989120483,bird,bear,0,0168_scg_s06_0_bear_00_bear6-clock1.png
subject-06,1,169,1.2314658164978,truck,truck,0,0169_scg_s06_0_truck_00_truck6-truck2.png
subject-06,1,170,1.03679394721985,oven,keyboard,0,0170_scg_s06_0_keyboard_00_keyboard2-knife1.png
subject-06,1,171,0.934905052185059,knife,knife,0,0171_scg_s06_0_knife_00_knife6-oven3.png
subject-06,1,172,0.87017297744751,bicycle,bicycle,0,0172_scg_s06_0_bicycle_00_bicycle1-oven1.png
subject-06,1,173,1.08190202713013,truck,truck,0,0173_scg_s06_0_truck_00_truck1-cat1.png
subject-06,1,174,0.796274900436401,oven,oven,0,0174_scg_s06_0_oven_00_oven4-knife2.png
subject-06,1,175,0.839952945709229,boat,boat,0,0175_scg_s06_0_boat_00_boat9-bird1.png
subject-06,1,176,0.829438209533691,cat,cat,0,0176_scg_s06_0_cat_00_cat1-dog1.png
subject-06,1,177,1.02838611602783,chair,chair,0,0177_scg_s06_0_chair_00_chair8-airplane1.png
subject-06,1,178,1.11096286773682,dog,dog,0,0178_scg_s06_0_dog_00_dog8-boat3.png
subject-06,1,179,0.832657098770142,elephant,elephant,0,0179_scg_s06_0_elephant_00_elephant6-oven1.png
subject-06,1,180,0.846992015838623,boat,boat,0,0180_scg_s06_0_boat_00_boat7-bottle1.png
subject-06,1,181,0.98162317276001,elephant,elephant,0,0181_scg_s06_0_elephant_00_elephant7-bottle3.png
subject-06,1,182,1.15527892112732,knife,knife,0,0182_scg_s06_0_knife_00_knife8-boat1.png
subject-06,1,183,0.740126132965088,boat,boat,0,0183_scg_s06_0_boat_00_boat3-clock3.png
subject-06,1,184,0.967684984207153,truck,truck,0,0184_scg_s06_0_truck_00_truck6-knife2.png
subject-06,1,185,1.01171112060547,airplane,airplane,0,0185_scg_s06_0_airplane_00_airplane10-elephant1.png
subject-06,1,186,0.855333089828491,clock,clock,0,0186_scg_s06_0_clock_00_clock10-clock3.png
subject-06,1,187,0.845380067825317,bird,bird,0,0187_scg_s06_0_bird_00_bird5-bicycle1.png
subject-06,1,188,0.95698094367981,airplane,airplane,0,0188_scg_s06_0_airplane_00_airplane7-car1.png
subject-06,1,189,0.954277038574219,bicycle,bicycle,0,0189_scg_s06_0_bicycle_00_bicycle4-airplane1.png
subject-06,1,190,0.882071971893311,boat,boat,0,0190_scg_s06_0_boat_00_boat3-chair3.png
subject-06,1,191,1.10962891578674,elephant,elephant,0,0191_scg_s06_0_elephant_00_elephant2-boat1.png
subject-06,1,192,0.929850816726685,airplane,airplane,0,0192_scg_s06_0_airplane_00_airplane4-car1.png
subject-06,1,193,0.818547010421753,bottle,bottle,0,0193_scg_s06_0_bottle_00_bottle6-knife3.png
subject-06,1,194,0.695501089096069,oven,oven,0,0194_scg_s06_0_oven_00_oven2-boat3.png
subject-06,1,195,0.877375841140747,keyboard,keyboard,0,0195_scg_s06_0_keyboard_00_keyboard8-oven1.png
subject-06,1,196,0.873035907745361,chair,chair,0,0196_scg_s06_0_chair_00_chair10-car2.png
subject-06,1,197,0.894592046737671,oven,oven,0,0197_scg_s06_0_oven_00_oven2-bottle1.png
subject-06,1,198,1.50007700920105,boat,boat,0,0198_scg_s06_0_boat_00_boat6-clock2.png
subject-06,1,199,0.95772385597229,bottle,bottle,0,0199_scg_s06_0_bottle_00_bottle2-elephant1.png
subject-06,1,200,0.793905973434448,cat,cat,0,0200_scg_s06_0_cat_00_cat8-bicycle3.png
subject-06,1,201,0.876566171646118,keyboard,keyboard,0,0201_scg_s06_0_keyboard_00_keyboard8-dog3.png
subject-06,1,202,0.957898139953613,truck,truck,0,0202_scg_s06_0_truck_00_truck9-elephant1.png
subject-06,1,203,0.856008052825928,keyboard,car,0,0203_scg_s06_0_car_00_car1-keyboard2.png
subject-06,1,204,1.05111789703369,dog,dog,0,0204_scg_s06_0_dog_00_dog9-cat1.png
subject-06,1,205,0.970808029174805,dog,dog,0,0205_scg_s06_0_dog_00_dog1-bear1.png
subject-06,1,206,0.860748052597046,keyboard,keyboard,0,0206_scg_s06_0_keyboard_00_keyboard5-bird3.png
subject-06,1,207,NaN,na,bear,0,0207_scg_s06_0_bear_00_bear3-bicycle2.png
subject-06,1,208,0.94861102104187,bear,bear,0,0208_scg_s06_0_bear_00_bear3-keyboard2.png
subject-06,1,209,0.921770811080933,oven,oven,0,0209_scg_s06_0_oven_00_oven7-clock2.png
subject-06,1,210,0.895737171173096,cat,bear,0,0210_scg_s06_0_bear_00_bear4-keyboard3.png
subject-06,1,211,0.725472927093506,boat,boat,0,0211_scg_s06_0_boat_00_boat8-bird2.png
subject-06,1,212,0.961543083190918,chair,airplane,0,0212_scg_s06_0_airplane_00_airplane4-knife1.png
subject-06,1,213,0.659678936004639,oven,oven,0,0213_scg_s06_0_oven_00_oven10-cat2.png
subject-06,1,214,0.757537841796875,chair,chair,0,0214_scg_s06_0_chair_00_chair7-knife2.png
subject-06,1,215,0.92315411567688,knife,knife,0,0215_scg_s06_0_knife_00_knife4-boat1.png
subject-06,1,216,0.927813053131104,dog,dog,0,0216_scg_s06_0_dog_00_dog10-bicycle1.png
subject-06,1,217,0.832467079162598,oven,truck,0,0217_scg_s06_0_truck_00_truck7-keyboard3.png
subject-06,1,218,0.90553092956543,clock,clock,0,0218_scg_s06_0_clock_00_clock3-dog2.png
subject-06,1,219,1.0259211063385,chair,bottle,0,0219_scg_s06_0_bottle_00_bottle7-oven2.png
subject-06,1,220,0.877526998519897,dog,dog,0,0220_scg_s06_0_dog_00_dog3-keyboard1.png
subject-06,1,221,0.821341991424561,cat,cat,0,0221_scg_s06_0_cat_00_cat10-elephant3.png
subject-06,1,222,0.978662967681885,truck,truck,0,0222_scg_s06_0_truck_00_truck9-airplane2.png
subject-06,1,223,0.760688066482544,knife,boat,0,0223_scg_s06_0_boat_00_boat2-bird1.png
subject-06,1,224,0.926228046417236,clock,clock,0,0224_scg_s06_0_clock_00_clock1-car1.png
subject-06,1,225,0.823866128921509,chair,chair,0,0225_scg_s06_0_chair_00_chair10-bird3.png
subject-06,1,226,0.936192035675049,bird,bird,0,0226_scg_s06_0_bird_00_bird9-elephant2.png
subject-06,1,227,0.858244180679321,bicycle,bicycle,0,0227_scg_s06_0_bicycle_00_bicycle8-clock3.png
subject-06,1,228,0.861846923828125,boat,boat,0,0228_scg_s06_0_boat_00_boat1-bicycle2.png
subject-06,1,229,0.830014944076538,bicycle,bicycle,0,0229_scg_s06_0_bicycle_00_bicycle4-oven3.png
subject-06,1,230,0.714429140090942,clock,clock,0,0230_scg_s06_0_clock_00_clock6-bird3.png
subject-06,1,231,0.734200000762939,cat,cat,0,0231_scg_s06_0_cat_00_cat9-boat2.png
subject-06,1,232,1.00803303718567,keyboard,keyboard,0,0232_scg_s06_0_keyboard_00_keyboard1-bear2.png
subject-06,1,233,0.880807161331177,bottle,bottle,0,0233_scg_s06_0_bottle_00_bottle3-bird1.png
subject-06,1,234,0.868664979934692,bear,elephant,0,0234_scg_s06_0_elephant_00_elephant1-keyboard3.png
subject-06,1,235,0.974148035049438,bottle,bottle,0,0235_scg_s06_0_bottle_00_bottle3-boat3.png
subject-06,1,236,0.764080047607422,oven,oven,0,0236_scg_s06_0_oven_00_oven3-car2.png
subject-06,1,237,0.929978132247925,bear,bear,0,0237_scg_s06_0_bear_00_bear3-airplane1.png
subject-06,1,238,0.889487981796265,dog,dog,0,0238_scg_s06_0_dog_00_dog2-bicycle2.png
subject-06,1,239,0.908366918563843,elephant,elephant,0,0239_scg_s06_0_elephant_00_elephant3-truck1.png
subject-06,1,240,0.828769207000732,oven,oven,0,0240_scg_s06_0_oven_00_oven4-bottle2.png
subject-06,1,241,1.00195789337158,truck,truck,0,0241_scg_s06_0_truck_00_truck2-elephant1.png
subject-06,1,242,1.05360102653503,car,car,0,0242_scg_s06_0_car_00_car7-bear1.png
subject-06,1,243,0.913750886917114,bottle,bottle,0,0243_scg_s06_0_bottle_00_bottle8-bird1.png
subject-06,1,244,0.726003170013428,oven,oven,0,0244_scg_s06_0_oven_00_oven4-elephant3.png
subject-06,1,245,0.839668035507202,bottle,bottle,0,0245_scg_s06_0_bottle_00_bottle1-bear1.png
subject-06,1,246,0.813961982727051,car,car,0,0246_scg_s06_0_car_00_car5-airplane3.png
subject-06,1,247,0.950196981430054,keyboard,keyboard,0,0247_scg_s06_0_keyboard_00_keyboard4-clock2.png
subject-06,1,248,0.764060974121094,chair,chair,0,0248_scg_s06_0_chair_00_chair1-chair1.png
subject-06,1,249,0.914247035980225,airplane,airplane,0,0249_scg_s06_0_airplane_00_airplane1-bicycle2.png
subject-06,1,250,0.94974684715271,car,car,0,0250_scg_s06_0_car_00_car4-cat3.png
subject-06,1,251,0.872461080551147,bird,bird,0,0251_scg_s06_0_bird_00_bird1-oven1.png
subject-06,1,252,0.754281997680664,oven,oven,0,0252_scg_s06_0_oven_00_oven3-cat2.png
subject-06,1,253,0.844326019287109,bicycle,bicycle,0,0253_scg_s06_0_bicycle_00_bicycle9-cat3.png
subject-06,1,254,0.993985891342163,cat,cat,0,0254_scg_s06_0_cat_00_cat3-elephant2.png
subject-06,1,255,0.929126024246216,knife,knife,0,0255_scg_s06_0_knife_00_knife7-boat3.png
subject-06,1,256,0.773802995681763,bear,bear,0,0256_scg_s06_0_bear_00_bear5-boat2.png
subject-06,1,257,0.907879829406738,knife,knife,0,0257_scg_s06_0_knife_00_knife6-bird1.png
subject-06,1,258,1.01239490509033,clock,clock,0,0258_scg_s06_0_clock_00_clock3-car2.png
subject-06,1,259,0.788565158843994,bear,bear,0,0259_scg_s06_0_bear_00_bear8-bear1.png
subject-06,1,260,0.721994876861572,chair,chair,0,0260_scg_s06_0_chair_00_chair10-airplane2.png
subject-06,1,261,1.06587195396423,bear,cat,0,0261_scg_s06_0_cat_00_cat1-keyboard3.png
subject-06,1,262,0.864035129547119,truck,truck,0,0262_scg_s06_0_truck_00_truck1-knife1.png
subject-06,1,263,0.875568866729736,cat,cat,0,0263_scg_s06_0_cat_00_cat7-dog3.png
subject-06,1,264,0.957366943359375,dog,dog,0,0264_scg_s06_0_dog_00_dog8-dog3.png
subject-06,1,265,0.763493061065674,car,car,0,0265_scg_s06_0_car_00_car8-truck3.png
subject-06,1,266,0.745495080947876,bicycle,bicycle,0,0266_scg_s06_0_bicycle_00_bicycle3-keyboard1.png
subject-06,1,267,0.948729991912842,elephant,elephant,0,0267_scg_s06_0_elephant_00_elephant5-bear2.png
subject-06,1,268,0.887133121490479,car,cat,0,0268_scg_s06_0_cat_00_cat5-airplane2.png
subject-06,1,269,0.998833894729614,dog,dog,0,0269_scg_s06_0_dog_00_dog1-airplane3.png
subject-06,1,270,0.902806043624878,cat,cat,0,0270_scg_s06_0_cat_00_cat5-knife2.png
subject-06,1,271,0.946706056594849,bottle,bottle,0,0271_scg_s06_0_bottle_00_bottle3-knife3.png
subject-06,1,272,0.920315980911255,car,car,0,0272_scg_s06_0_car_00_car7-boat3.png
subject-06,1,273,1.07835388183594,bear,bear,0,0273_scg_s06_0_bear_00_bear1-bicycle3.png
subject-06,1,274,1.14378809928894,truck,truck,0,0274_scg_s06_0_truck_00_truck9-truck3.png
subject-06,1,275,0.835180997848511,oven,oven,0,0275_scg_s06_0_oven_00_oven2-truck3.png
subject-06,1,276,0.963569164276123,bird,bird,0,0276_scg_s06_0_bird_00_bird10-bird2.png
subject-06,1,277,0.938135862350464,truck,truck,0,0277_scg_s06_0_truck_00_truck5-keyboard1.png
subject-06,1,278,0.88912296295166,chair,chair,0,0278_scg_s06_0_chair_00_chair9-dog2.png
subject-06,1,279,1.46042895317078,bottle,bottle,0,0279_scg_s06_0_bottle_00_bottle7-cat2.png
subject-06,1,280,0.774605989456177,bicycle,bicycle,0,0280_scg_s06_0_bicycle_00_bicycle7-cat1.png
subject-06,1,281,1.50000500679016,truck,car,0,0281_scg_s06_0_car_00_car5-oven2.png
subject-06,1,282,0.808037996292114,chair,chair,0,0282_scg_s06_0_chair_00_chair6-truck2.png
subject-06,1,283,1.21229982376099,bird,bird,0,0283_scg_s06_0_bird_00_bird1-boat1.png
subject-06,1,284,1.02362108230591,car,dog,0,0284_scg_s06_0_dog_00_dog6-truck2.png
subject-06,1,285,1.03789305686951,bicycle,bicycle,0,0285_scg_s06_0_bicycle_00_bicycle5-dog2.png
subject-06,1,286,0.995869874954224,elephant,elephant,0,0286_scg_s06_0_elephant_00_elephant9-airplane2.png
subject-06,1,287,0.955606937408447,airplane,airplane,0,0287_scg_s06_0_airplane_00_airplane10-bear3.png
subject-06,1,288,0.982739925384521,knife,boat,0,0288_scg_s06_0_boat_00_boat1-elephant3.png
subject-06,1,289,1.10337519645691,airplane,airplane,0,0289_scg_s06_0_airplane_00_airplane6-keyboard3.png
subject-06,1,290,1.27127599716187,bird,airplane,0,0290_scg_s06_0_airplane_00_airplane8-bird1.png
subject-06,1,291,0.92094898223877,chair,chair,0,0291_scg_s06_0_chair_00_chair5-cat3.png
subject-06,1,292,0.904666900634766,knife,knife,0,0292_scg_s06_0_knife_00_knife6-knife1.png
subject-06,1,293,0.833159923553467,bottle,bottle,0,0293_scg_s06_0_bottle_00_bottle6-oven3.png
subject-06,1,294,1.0469799041748,car,car,0,0294_scg_s06_0_car_00_car2-chair1.png
subject-06,1,295,0.837334871292114,bottle,bottle,0,0295_scg_s06_0_bottle_00_bottle5-knife1.png
subject-06,1,296,0.816625118255615,airplane,bear,0,0296_scg_s06_0_bear_00_bear6-bottle3.png
subject-06,1,297,0.731389999389648,bird,bird,0,0297_scg_s06_0_bird_00_bird9-bottle3.png
subject-06,1,298,0.683132886886597,boat,boat,0,0298_scg_s06_0_boat_00_boat9-clock1.png
subject-06,1,299,0.740499973297119,bicycle,bicycle,0,0299_scg_s06_0_bicycle_00_bicycle4-chair2.png
subject-06,1,300,0.885576009750366,clock,clock,0,0300_scg_s06_0_clock_00_clock4-bird3.png
subject-06,1,301,0.737242937088013,boat,boat,0,0301_scg_s06_0_boat_00_boat8-elephant1.png
subject-06,1,302,0.851866006851196,bear,bear,0,0302_scg_s06_0_bear_00_bear9-keyboard3.png
subject-06,1,303,0.646749019622803,clock,clock,0,0303_scg_s06_0_clock_00_clock3-bird1.png
subject-06,1,304,0.937227964401245,bottle,bottle,0,0304_scg_s06_0_bottle_00_bottle5-keyboard2.png
subject-06,1,305,0.918699979782104,keyboard,keyboard,0,0305_scg_s06_0_keyboard_00_keyboard9-bird1.png
subject-06,1,306,0.654191970825195,cat,cat,0,0306_scg_s06_0_cat_00_cat6-clock3.png
subject-06,1,307,0.646688938140869,clock,clock,0,0307_scg_s06_0_clock_00_clock5-chair3.png
subject-06,1,308,0.958319902420044,knife,knife,0,0308_scg_s06_0_knife_00_knife10-knife1.png
subject-06,1,309,0.75699520111084,cat,cat,0,0309_scg_s06_0_cat_00_cat1-airplane1.png
subject-06,1,310,0.646658897399902,clock,clock,0,0310_scg_s06_0_clock_00_clock8-truck2.png
subject-06,1,311,0.920116186141968,truck,truck,0,0311_scg_s06_0_truck_00_truck3-clock3.png
subject-06,1,312,0.826369047164917,car,car,0,0312_scg_s06_0_car_00_car7-oven2.png
subject-06,1,313,0.813525915145874,elephant,elephant,0,0313_scg_s06_0_elephant_00_elephant8-bird2.png
subject-06,1,314,0.84949517250061,truck,truck,0,0314_scg_s06_0_truck_00_truck6-boat2.png
subject-06,1,315,0.793954133987427,chair,chair,0,0315_scg_s06_0_chair_00_chair7-bird1.png
subject-06,1,316,0.65168309211731,oven,oven,0,0316_scg_s06_0_oven_00_oven9-chair1.png
subject-06,1,317,0.71658992767334,keyboard,keyboard,0,0317_scg_s06_0_keyboard_00_keyboard10-keyboard1.png
subject-06,1,318,0.798372983932495,boat,boat,0,0318_scg_s06_0_boat_00_boat4-elephant2.png
subject-06,1,319,1.31875395774841,bird,bird,0,0319_scg_s06_0_bird_00_bird4-clock1.png
subject-06,1,320,0.976342916488647,truck,truck,0,0320_scg_s06_0_truck_00_truck8-dog3.png
subject-06,1,321,0.719705820083618,oven,oven,0,0321_scg_s06_0_oven_00_oven9-car2.png
subject-06,1,322,0.833410024642944,oven,oven,0,0322_scg_s06_0_oven_00_oven6-knife3.png
subject-06,1,323,0.661664009094238,boat,boat,0,0323_scg_s06_0_boat_00_boat6-car1.png
subject-06,1,324,1.08047795295715,elephant,elephant,0,0324_scg_s06_0_elephant_00_elephant1-chair1.png
subject-06,1,325,0.800145864486694,keyboard,keyboard,0,0325_scg_s06_0_keyboard_00_keyboard7-boat2.png
subject-06,1,326,0.890345096588135,bottle,bottle,0,0326_scg_s06_0_bottle_00_bottle4-truck1.png
subject-06,1,327,0.87171483039856,bear,bear,0,0327_scg_s06_0_bear_00_bear2-cat2.png
subject-06,1,328,0.702903985977173,keyboard,keyboard,0,0328_scg_s06_0_keyboard_00_keyboard5-oven2.png
subject-06,1,329,1.00630593299866,bicycle,bicycle,0,0329_scg_s06_0_bicycle_00_bicycle1-bear1.png
subject-06,1,330,1.28832507133484,car,car,0,0330_scg_s06_0_car_00_car7-dog3.png
subject-06,1,331,1.36202120780945,car,car,0,0331_scg_s06_0_car_00_car3-elephant3.png
subject-06,1,332,0.752101898193359,clock,clock,0,0332_scg_s06_0_clock_00_clock8-airplane2.png
subject-06,1,333,0.772223949432373,keyboard,keyboard,0,0333_scg_s06_0_keyboard_00_keyboard6-bottle2.png
subject-06,1,334,0.777463912963867,boat,boat,0,0334_scg_s06_0_boat_00_boat6-knife2.png
subject-06,1,335,0.857842206954956,car,car,0,0335_scg_s06_0_car_00_car6-truck3.png
subject-06,1,336,1.09307193756104,dog,dog,0,0336_scg_s06_0_dog_00_dog1-chair1.png
subject-06,1,337,0.745635986328125,car,car,0,0337_scg_s06_0_car_00_car6-bicycle3.png
subject-06,1,338,0.726546049118042,keyboard,keyboard,0,0338_scg_s06_0_keyboard_00_keyboard8-truck3.png
subject-06,1,339,1.02335000038147,cat,dog,0,0339_scg_s06_0_dog_00_dog4-bottle2.png
subject-06,1,340,0.658452033996582,clock,clock,0,0340_scg_s06_0_clock_00_clock2-elephant2.png
subject-06,1,341,0.618143081665039,cat,cat,0,0341_scg_s06_0_cat_00_cat2-bottle3.png
subject-06,1,342,0.776428937911987,bear,bear,0,0342_scg_s06_0_bear_00_bear4-oven2.png
subject-06,1,343,0.665628910064697,cat,cat,0,0343_scg_s06_0_cat_00_cat10-bicycle1.png
subject-06,1,344,0.642755031585693,cat,cat,0,0344_scg_s06_0_cat_00_cat5-bear2.png
subject-06,1,345,1.03081297874451,truck,truck,0,0345_scg_s06_0_truck_00_truck1-chair2.png
subject-06,1,346,0.874255895614624,airplane,airplane,0,0346_scg_s06_0_airplane_00_airplane3-oven1.png
subject-06,1,347,0.748070001602173,bicycle,bicycle,0,0347_scg_s06_0_bicycle_00_bicycle2-bicycle1.png
subject-06,1,348,0.905232191085815,oven,airplane,0,0348_scg_s06_0_airplane_00_airplane3-chair3.png
subject-06,1,349,0.616358041763306,boat,boat,0,0349_scg_s06_0_boat_00_boat5-car3.png
subject-06,1,350,0.606456995010376,clock,clock,0,0350_scg_s06_0_clock_00_clock7-bottle2.png
subject-06,1,351,0.650446176528931,boat,boat,0,0351_scg_s06_0_boat_00_boat9-boat3.png
subject-06,1,352,0.662811994552612,cat,cat,0,0352_scg_s06_0_cat_00_cat10-bird2.png
subject-06,1,353,0.730281829833984,bottle,bottle,0,0353_scg_s06_0_bottle_00_bottle4-car3.png
subject-06,1,354,0.988697052001953,elephant,elephant,0,0354_scg_s06_0_elephant_00_elephant5-bottle2.png
subject-06,1,355,1.03050684928894,dog,dog,0,0355_scg_s06_0_dog_00_dog4-airplane3.png
subject-06,1,356,0.919341087341309,dog,dog,0,0356_scg_s06_0_dog_00_dog1-bird1.png
subject-06,1,357,1.25627589225769,bird,bird,0,0357_scg_s06_0_bird_00_bird4-dog3.png
subject-06,1,358,0.66241192817688,clock,clock,0,0358_scg_s06_0_clock_00_clock7-truck3.png
subject-06,1,359,0.922836780548096,truck,truck,0,0359_scg_s06_0_truck_00_truck2-car3.png
subject-06,1,360,0.696851968765259,boat,boat,0,0360_scg_s06_0_boat_00_boat2-keyboard1.png
subject-06,1,361,0.725534915924072,cat,cat,0,0361_scg_s06_0_cat_00_cat10-airplane3.png
subject-06,1,362,0.844197034835815,truck,truck,0,0362_scg_s06_0_truck_00_truck6-dog2.png
subject-06,1,363,0.680166006088257,bicycle,bicycle,0,0363_scg_s06_0_bicycle_00_bicycle9-bear1.png
subject-06,1,364,0.754204034805298,bear,bear,0,0364_scg_s06_0_bear_00_bear7-oven3.png
subject-06,1,365,0.857660055160522,chair,chair,0,0365_scg_s06_0_chair_00_chair1-cat3.png
subject-06,1,366,1.0530469417572,knife,knife,0,0366_scg_s06_0_knife_00_knife8-cat2.png
subject-06,1,367,0.975449085235596,truck,truck,0,0367_scg_s06_0_truck_00_truck7-bear2.png
subject-06,1,368,0.804780006408691,bottle,bottle,0,0368_scg_s06_0_bottle_00_bottle5-cat1.png
subject-06,1,369,1.25686883926392,elephant,elephant,0,0369_scg_s06_0_elephant_00_elephant3-cat2.png
subject-06,1,370,0.753355026245117,truck,truck,0,0370_scg_s06_0_truck_00_truck3-dog3.png
subject-06,1,371,0.782135009765625,bottle,bottle,0,0371_scg_s06_0_bottle_00_bottle6-airplane1.png
subject-06,1,372,0.879904985427856,elephant,elephant,0,0372_scg_s06_0_elephant_00_elephant8-airplane3.png
subject-06,1,373,0.800128936767578,bottle,bottle,0,0373_scg_s06_0_bottle_00_bottle6-bottle3.png
subject-06,1,374,0.672819852828979,cat,cat,0,0374_scg_s06_0_cat_00_cat2-boat2.png
subject-06,1,375,1.11587595939636,keyboard,keyboard,0,0375_scg_s06_0_keyboard_00_keyboard7-truck2.png
subject-06,1,376,0.899679183959961,knife,knife,0,0376_scg_s06_0_knife_00_knife10-elephant3.png
subject-06,1,377,0.751662015914917,chair,chair,0,0377_scg_s06_0_chair_00_chair6-dog1.png
subject-06,1,378,1.07205700874329,knife,knife,0,0378_scg_s06_0_knife_00_knife4-clock3.png
subject-06,1,379,0.992475986480713,knife,keyboard,0,0379_scg_s06_0_keyboard_00_keyboard9-elephant2.png
subject-06,1,380,0.789685964584351,chair,chair,0,0380_scg_s06_0_chair_00_chair8-boat1.png
subject-06,1,381,0.709759950637817,bottle,bottle,0,0381_scg_s06_0_bottle_00_bottle9-bicycle1.png
subject-06,1,382,1.02104520797729,dog,dog,0,0382_scg_s06_0_dog_00_dog7-car2.png
subject-06,1,383,0.802416086196899,bicycle,bicycle,0,0383_scg_s06_0_bicycle_00_bicycle8-boat1.png
subject-06,1,384,1.0138840675354,elephant,elephant,0,0384_scg_s06_0_elephant_00_elephant6-cat2.png
subject-06,1,385,1.48857116699219,keyboard,keyboard,0,0385_scg_s06_0_keyboard_00_keyboard4-oven2.png
subject-06,1,386,1.08059692382812,elephant,elephant,0,0386_scg_s06_0_elephant_00_elephant6-knife2.png
subject-06,1,387,0.879153966903687,knife,knife,0,0387_scg_s06_0_knife_00_knife9-airplane2.png
subject-06,1,388,1.11250996589661,airplane,airplane,0,0388_scg_s06_0_airplane_00_airplane5-dog3.png
subject-06,1,389,0.80253791809082,keyboard,keyboard,0,0389_scg_s06_0_keyboard_00_keyboard1-clock1.png
subject-06,1,390,0.792079925537109,truck,truck,0,0390_scg_s06_0_truck_00_truck5-truck1.png
subject-06,1,391,0.982576847076416,keyboard,boat,0,0391_scg_s06_0_boat_00_boat7-oven3.png
subject-06,1,392,0.894017934799194,chair,chair,0,0392_scg_s06_0_chair_00_chair8-keyboard3.png
subject-06,1,393,0.762509822845459,chair,chair,0,0393_scg_s06_0_chair_00_chair2-bear2.png
subject-06,1,394,0.752522945404053,clock,clock,0,0394_scg_s06_0_clock_00_clock4-chair1.png
subject-06,1,395,1.48149394989014,bird,bird,0,0395_scg_s06_0_bird_00_bird8-bottle1.png
subject-06,1,396,0.716892957687378,chair,chair,0,0396_scg_s06_0_chair_00_chair4-bear2.png
subject-06,1,397,0.922660112380981,boat,boat,0,0397_scg_s06_0_boat_00_boat6-airplane2.png
subject-06,1,398,0.834528207778931,chair,chair,0,0398_scg_s06_0_chair_00_chair10-dog1.png
subject-06,1,399,1.50025391578674,airplane,airplane,0,0399_scg_s06_0_airplane_00_airplane4-elephant1.png
subject-06,1,400,1.03290700912476,bird,bird,0,0400_scg_s06_0_bird_00_bird1-elephant2.png
subject-06,1,401,1.17654204368591,keyboard,truck,0,0401_scg_s06_0_truck_00_truck3-keyboard3.png
subject-06,1,402,0.798425912857056,car,car,0,0402_scg_s06_0_car_00_car9-bicycle2.png
subject-06,1,403,0.948221921920776,knife,knife,0,0403_scg_s06_0_knife_00_knife2-bicycle3.png
subject-06,1,404,0.883754968643188,bottle,bottle,0,0404_scg_s06_0_bottle_00_bottle8-bottle3.png
subject-06,1,405,0.97173285484314,bicycle,bicycle,0,0405_scg_s06_0_bicycle_00_bicycle6-dog2.png
subject-06,1,406,0.715917110443115,bottle,bottle,0,0406_scg_s06_0_bottle_00_bottle9-bottle1.png
subject-06,1,407,0.722239971160889,clock,clock,0,0407_scg_s06_0_clock_00_clock7-boat3.png
subject-06,1,408,1.10460090637207,dog,dog,0,0408_scg_s06_0_dog_00_dog9-chair2.png
subject-06,1,409,1.47584700584412,bear,bear,0,0409_scg_s06_0_bear_00_bear9-bottle2.png
subject-06,1,410,1.06824994087219,dog,dog,0,0410_scg_s06_0_dog_00_dog5-elephant1.png
subject-06,1,411,NaN,na,bird,0,0411_scg_s06_0_bird_00_bird2-airplane3.png
subject-06,1,412,1.36152791976929,bicycle,bicycle,0,0412_scg_s06_0_bicycle_00_bicycle9-bird3.png
subject-06,1,413,0.850687026977539,clock,clock,0,0413_scg_s06_0_clock_00_clock8-chair2.png
subject-06,1,414,1.06301188468933,elephant,elephant,0,0414_scg_s06_0_elephant_00_elephant7-car3.png
subject-06,1,415,0.736641883850098,car,car,0,0415_scg_s06_0_car_00_car6-knife1.png
subject-06,1,416,0.775299072265625,clock,clock,0,0416_scg_s06_0_clock_00_clock10-oven2.png
subject-06,1,417,0.865963935852051,car,car,0,0417_scg_s06_0_car_00_car3-airplane3.png
subject-06,1,418,0.815515041351318,cat,cat,0,0418_scg_s06_0_cat_00_cat5-chair3.png
subject-06,1,419,0.858656883239746,car,car,0,0419_scg_s06_0_car_00_car2-cat3.png
subject-06,1,420,0.873193025588989,boat,boat,0,0420_scg_s06_0_boat_00_boat3-airplane2.png
subject-06,1,421,0.884415864944458,truck,truck,0,0421_scg_s06_0_truck_00_truck4-airplane3.png
subject-06,1,422,0.825674057006836,bicycle,bicycle,0,0422_scg_s06_0_bicycle_00_bicycle5-elephant1.png
subject-06,1,423,0.739967107772827,bird,bird,0,0423_scg_s06_0_bird_00_bird2-car3.png
subject-06,1,424,0.898809909820557,elephant,elephant,0,0424_scg_s06_0_elephant_00_elephant4-clock3.png
subject-06,1,425,1.00414609909058,keyboard,bear,0,0425_scg_s06_0_bear_00_bear10-keyboard3.png
subject-06,1,426,0.848567962646484,car,car,0,0426_scg_s06_0_car_00_car8-knife2.png
subject-06,1,427,0.722280979156494,bottle,bottle,0,0427_scg_s06_0_bottle_00_bottle8-bicycle1.png
subject-06,1,428,0.934062004089355,keyboard,truck,0,0428_scg_s06_0_truck_00_truck4-bottle2.png
subject-06,1,429,0.748813152313232,elephant,elephant,0,0429_scg_s06_0_elephant_00_elephant6-bicycle1.png
subject-06,1,430,0.808211088180542,chair,chair,0,0430_scg_s06_0_chair_00_chair10-clock1.png
subject-06,1,431,1.15916609764099,truck,truck,0,0431_scg_s06_0_truck_00_truck6-cat2.png
subject-06,1,432,1.17014312744141,bird,bird,0,0432_scg_s06_0_bird_00_bird4-airplane1.png
subject-06,1,433,0.897781133651733,bottle,dog,0,0433_scg_s06_0_dog_00_dog2-bottle2.png
subject-06,1,434,1.0500910282135,knife,bird,0,0434_scg_s06_0_bird_00_bird3-knife3.png
subject-06,1,435,0.877420902252197,keyboard,keyboard,0,0435_scg_s06_0_keyboard_00_keyboard9-boat2.png
subject-06,1,436,1.05178904533386,bird,bird,0,0436_scg_s06_0_bird_00_bird8-chair1.png
subject-06,1,437,1.07892084121704,chair,chair,0,0437_scg_s06_0_chair_00_chair1-dog1.png
subject-06,1,438,1.45714807510376,bear,bear,0,0438_scg_s06_0_bear_00_bear7-bicycle2.png
subject-06,1,439,0.893594026565552,airplane,airplane,0,0439_scg_s06_0_airplane_00_airplane5-bird2.png
subject-06,1,440,0.850874900817871,bear,bear,0,0440_scg_s06_0_bear_00_bear10-cat2.png
subject-06,1,441,0.864609956741333,clock,clock,0,0441_scg_s06_0_clock_00_clock6-knife2.png
subject-06,1,442,1.05223488807678,truck,truck,0,0442_scg_s06_0_truck_00_truck2-bicycle2.png
subject-06,1,443,1.23436784744263,knife,knife,0,0443_scg_s06_0_knife_00_knife6-truck1.png
subject-06,1,444,0.808717012405396,car,car,0,0444_scg_s06_0_car_00_car1-clock2.png
subject-06,1,445,1.07636189460754,truck,truck,0,0445_scg_s06_0_truck_00_truck2-chair1.png
subject-06,1,446,0.757869005203247,oven,oven,0,0446_scg_s06_0_oven_00_oven2-bird2.png
subject-06,1,447,0.862389087677002,cat,cat,0,0447_scg_s06_0_cat_00_cat3-truck3.png
subject-06,1,448,0.791511058807373,bird,bird,0,0448_scg_s06_0_bird_00_bird9-bear3.png
subject-06,1,449,0.895821094512939,airplane,airplane,0,0449_scg_s06_0_airplane_00_airplane7-bottle3.png
subject-06,1,450,0.747681856155396,bicycle,bicycle,0,0450_scg_s06_0_bicycle_00_bicycle7-elephant2.png
subject-06,1,451,0.922370910644531,keyboard,keyboard,0,0451_scg_s06_0_keyboard_00_keyboard6-elephant1.png
subject-06,1,452,0.890765905380249,elephant,elephant,0,0452_scg_s06_0_elephant_00_elephant3-oven1.png
subject-06,1,453,0.659393072128296,boat,boat,0,0453_scg_s06_0_boat_00_boat4-car3.png
subject-06,1,454,0.716877937316895,bottle,bottle,0,0454_scg_s06_0_bottle_00_bottle10-car1.png
subject-06,1,455,1.12072801589966,car,car,0,0455_scg_s06_0_car_00_car6-bottle1.png
subject-06,1,456,0.869627952575684,bottle,bottle,0,0456_scg_s06_0_bottle_00_bottle7-airplane3.png
subject-06,1,457,0.824477910995483,clock,knife,0,0457_scg_s06_0_knife_00_knife3-clock2.png
subject-06,1,458,0.61445689201355,cat,cat,0,0458_scg_s06_0_cat_00_cat4-clock2.png
subject-06,1,459,0.702002048492432,bicycle,bicycle,0,0459_scg_s06_0_bicycle_00_bicycle4-car2.png
subject-06,1,460,0.784773111343384,bear,bear,0,0460_scg_s06_0_bear_00_bear4-truck3.png
subject-06,1,461,0.719842910766602,oven,oven,0,0461_scg_s06_0_oven_00_oven4-dog1.png
subject-06,1,462,1.30180406570435,dog,dog,0,0462_scg_s06_0_dog_00_dog3-bird2.png
subject-06,1,463,1.12948203086853,chair,chair,0,0463_scg_s06_0_chair_00_chair9-bird3.png
subject-06,1,464,0.774877786636353,bicycle,bicycle,0,0464_scg_s06_0_bicycle_00_bicycle5-chair2.png
subject-06,1,465,0.888513088226318,keyboard,keyboard,0,0465_scg_s06_0_keyboard_00_keyboard3-bird3.png
subject-06,1,466,0.670201063156128,cat,cat,0,0466_scg_s06_0_cat_00_cat5-boat1.png
subject-06,1,467,0.728230953216553,chair,chair,0,0467_scg_s06_0_chair_00_chair9-keyboard2.png
subject-06,1,468,1.18567991256714,bear,dog,0,0468_scg_s06_0_dog_00_dog3-boat1.png
subject-06,1,469,1.21428799629211,clock,knife,0,0469_scg_s06_0_knife_00_knife1-keyboard3.png
subject-06,1,470,1.06003904342651,keyboard,keyboard,0,0470_scg_s06_0_keyboard_00_keyboard5-bottle1.png
subject-06,1,471,0.93389105796814,clock,clock,0,0471_scg_s06_0_clock_00_clock2-clock3.png
subject-06,1,472,0.861405849456787,bicycle,bicycle,0,0472_scg_s06_0_bicycle_00_bicycle9-bottle1.png
subject-06,1,473,0.727104902267456,clock,clock,0,0473_scg_s06_0_clock_00_clock7-bear2.png
subject-06,1,474,0.762626886367798,oven,oven,0,0474_scg_s06_0_oven_00_oven5-keyboard2.png
subject-06,1,475,0.744616031646729,car,car,0,0475_scg_s06_0_car_00_car7-car1.png
subject-06,1,476,0.873329877853394,dog,dog,0,0476_scg_s06_0_dog_00_dog8-bottle2.png
subject-06,1,477,1.01518297195435,airplane,airplane,0,0477_scg_s06_0_airplane_00_airplane2-cat1.png
subject-06,1,478,0.721040010452271,boat,boat,0,0478_scg_s06_0_boat_00_boat8-truck2.png
subject-06,1,479,0.751453876495361,bicycle,bicycle,0,0479_scg_s06_0_bicycle_00_bicycle4-keyboard3.png
subject-06,1,480,0.741773843765259,bottle,bottle,0,0480_scg_s06_0_bottle_00_bottle2-clock1.png
subject-06,1,481,0.816277980804443,bear,bear,0,0481_scg_s06_0_bear_00_bear8-airplane1.png
subject-06,1,482,0.881989002227783,airplane,airplane,0,0482_scg_s06_0_airplane_00_airplane10-oven2.png
subject-06,1,483,0.926153898239136,bicycle,bicycle,0,0483_scg_s06_0_bicycle_00_bicycle1-elephant2.png
subject-06,1,484,0.678007841110229,clock,clock,0,0484_scg_s06_0_clock_00_clock2-knife1.png
subject-06,1,485,0.798208951950073,bear,bear,0,0485_scg_s06_0_bear_00_bear4-elephant2.png
subject-06,1,486,0.939758062362671,knife,knife,0,0486_scg_s06_0_knife_00_knife5-dog1.png
subject-06,1,487,0.683901071548462,oven,oven,0,0487_scg_s06_0_oven_00_oven5-airplane1.png
subject-06,1,488,0.773805856704712,oven,oven,0,0488_scg_s06_0_oven_00_oven8-cat3.png
subject-06,1,489,0.639509201049805,oven,oven,0,0489_scg_s06_0_oven_00_oven10-airplane2.png
subject-06,1,490,0.745001077651978,keyboard,keyboard,0,0490_scg_s06_0_keyboard_00_keyboard5-cat1.png
subject-06,1,491,0.635262966156006,clock,clock,0,0491_scg_s06_0_clock_00_clock3-elephant3.png
subject-06,1,492,0.777175903320312,airplane,airplane,0,0492_scg_s06_0_airplane_00_airplane7-boat2.png
subject-06,1,493,0.690445184707642,cat,cat,0,0493_scg_s06_0_cat_00_cat5-dog3.png
subject-06,1,494,1.50015187263489,bottle,bottle,0,0494_scg_s06_0_bottle_00_bottle2-car2.png
subject-06,1,495,0.783833980560303,boat,boat,0,0495_scg_s06_0_boat_00_boat7-boat2.png
subject-06,1,496,0.627713918685913,keyboard,keyboard,0,0496_scg_s06_0_keyboard_00_keyboard5-bicycle1.png
subject-06,1,497,0.631498098373413,clock,clock,0,0497_scg_s06_0_clock_00_clock6-bottle1.png
subject-06,1,498,0.943464040756226,bear,bear,0,0498_scg_s06_0_bear_00_bear3-truck3.png
subject-06,1,499,0.748992919921875,knife,knife,0,0499_scg_s06_0_knife_00_knife5-clock1.png
subject-06,1,500,0.744638919830322,keyboard,keyboard,0,0500_scg_s06_0_keyboard_00_keyboard8-chair2.png
subject-06,1,501,0.72654390335083,bird,bird,0,0501_scg_s06_0_bird_00_bird9-keyboard1.png
subject-06,1,502,0.837455034255981,knife,knife,0,0502_scg_s06_0_knife_00_knife5-keyboard3.png
subject-06,1,503,0.881684064865112,elephant,elephant,0,0503_scg_s06_0_elephant_00_elephant5-car1.png
subject-06,1,504,0.78551197052002,oven,oven,0,0504_scg_s06_0_oven_00_oven3-bottle3.png
subject-06,1,505,1.12997579574585,chair,chair,0,0505_scg_s06_0_chair_00_chair9-chair3.png
subject-06,1,506,0.680835008621216,clock,clock,0,0506_scg_s06_0_clock_00_clock6-bicycle1.png
subject-06,1,507,0.807563066482544,keyboard,keyboard,0,0507_scg_s06_0_keyboard_00_keyboard6-dog2.png
subject-06,1,508,0.834418058395386,elephant,elephant,0,0508_scg_s06_0_elephant_00_elephant5-chair3.png
subject-06,1,509,0.707908153533936,cat,cat,0,0509_scg_s06_0_cat_00_cat1-cat3.png
subject-06,1,510,0.660143852233887,oven,oven,0,0510_scg_s06_0_oven_00_oven9-bird3.png
subject-06,1,511,1.01039791107178,chair,chair,0,0511_scg_s06_0_chair_00_chair10-cat1.png
subject-06,1,512,0.738362073898315,bicycle,bicycle,0,0512_scg_s06_0_bicycle_00_bicycle9-keyboard3.png
subject-06,1,513,0.896604061126709,oven,boat,0,0513_scg_s06_0_boat_00_boat7-keyboard3.png
subject-06,1,514,0.793473958969116,oven,oven,0,0514_scg_s06_0_oven_00_oven7-dog2.png
subject-06,1,515,0.830569982528687,oven,cat,0,0515_scg_s06_0_cat_00_cat3-oven2.png
subject-06,1,516,1.36525297164917,bird,boat,0,0516_scg_s06_0_boat_00_boat6-dog1.png
subject-06,1,517,1.08703398704529,truck,truck,0,0517_scg_s06_0_truck_00_truck7-bird2.png
subject-06,1,518,0.914193868637085,oven,bear,0,0518_scg_s06_0_bear_00_bear2-keyboard2.png
subject-06,1,519,0.97962212562561,elephant,elephant,0,0519_scg_s06_0_elephant_00_elephant8-cat1.png
subject-06,1,520,0.86163592338562,bottle,bottle,0,0520_scg_s06_0_bottle_00_bottle4-dog2.png
subject-06,1,521,0.894670009613037,oven,airplane,0,0521_scg_s06_0_airplane_00_airplane8-chair1.png
subject-06,1,522,0.793085098266602,bicycle,bicycle,0,0522_scg_s06_0_bicycle_00_bicycle4-boat1.png
subject-06,1,523,0.913409948348999,dog,dog,0,0523_scg_s06_0_dog_00_dog1-cat3.png
subject-06,1,524,1.1244330406189,elephant,clock,0,0524_scg_s06_0_clock_00_clock1-elephant2.png
subject-06,1,525,0.982304096221924,keyboard,knife,0,0525_scg_s06_0_knife_00_knife3-keyboard3.png
subject-06,1,526,0.871500968933105,keyboard,keyboard,0,0526_scg_s06_0_keyboard_00_keyboard7-dog1.png
subject-06,1,527,0.923321962356567,oven,airplane,0,0527_scg_s06_0_airplane_00_airplane9-oven2.png
subject-06,1,528,0.782270908355713,bear,bear,0,0528_scg_s06_0_bear_00_bear8-truck3.png
subject-06,1,529,0.918386936187744,knife,knife,0,0529_scg_s06_0_knife_00_knife9-bear3.png
subject-06,1,530,0.937825918197632,keyboard,keyboard,0,0530_scg_s06_0_keyboard_00_keyboard4-truck3.png
subject-06,1,531,0.727602005004883,oven,oven,0,0531_scg_s06_0_oven_00_oven4-chair1.png
subject-06,1,532,1.01808309555054,oven,dog,0,0532_scg_s06_0_dog_00_dog5-boat3.png
subject-06,1,533,1.14367914199829,bottle,bottle,0,0533_scg_s06_0_bottle_00_bottle6-bicycle3.png
subject-06,1,534,0.957753896713257,oven,oven,0,0534_scg_s06_0_oven_00_oven5-bicycle1.png
subject-06,1,535,0.977080106735229,dog,dog,0,0535_scg_s06_0_dog_00_dog3-elephant2.png
subject-06,1,536,0.742223978042603,bottle,bottle,0,0536_scg_s06_0_bottle_00_bottle5-boat1.png
subject-06,1,537,0.94883918762207,airplane,airplane,0,0537_scg_s06_0_airplane_00_airplane6-chair3.png
subject-06,1,538,1.02057600021362,airplane,airplane,0,0538_scg_s06_0_airplane_00_airplane7-airplane3.png
subject-06,1,539,0.717572927474976,oven,oven,0,0539_scg_s06_0_oven_00_oven3-clock3.png
subject-06,1,540,0.65391993522644,clock,clock,0,0540_scg_s06_0_clock_00_clock5-oven1.png
subject-06,1,541,1.02694797515869,keyboard,keyboard,0,0541_scg_s06_0_keyboard_00_keyboard8-airplane2.png
subject-06,1,542,0.809300184249878,cat,cat,0,0542_scg_s06_0_cat_00_cat1-oven1.png
subject-06,1,543,0.767013072967529,bicycle,bicycle,0,0543_scg_s06_0_bicycle_00_bicycle6-boat2.png
subject-06,1,544,0.817591190338135,keyboard,cat,0,0544_scg_s06_0_cat_00_cat10-bottle1.png
subject-06,1,545,1.09939908981323,bear,bear,0,0545_scg_s06_0_bear_00_bear2-car2.png
subject-06,1,546,1.21860003471375,cat,boat,0,0546_scg_s06_0_boat_00_boat6-elephant2.png
subject-06,1,547,0.916481971740723,bird,bear,0,0547_scg_s06_0_bear_00_bear6-cat3.png
subject-06,1,548,0.77460789680481,keyboard,keyboard,0,0548_scg_s06_0_keyboard_00_keyboard3-boat1.png
subject-06,1,549,0.71092414855957,boat,boat,0,0549_scg_s06_0_boat_00_boat10-truck1.png
subject-06,1,550,0.914367914199829,bicycle,bicycle,0,0550_scg_s06_0_bicycle_00_bicycle7-knife2.png
subject-06,1,551,0.98064398765564,knife,knife,0,0551_scg_s06_0_knife_00_knife6-boat3.png
subject-06,1,552,0.902614116668701,airplane,airplane,0,0552_scg_s06_0_airplane_00_airplane10-knife3.png
subject-06,1,553,0.718516111373901,clock,clock,0,0553_scg_s06_0_clock_00_clock2-dog1.png
subject-06,1,554,0.662801027297974,oven,oven,0,0554_scg_s06_0_oven_00_oven3-truck1.png
subject-06,1,555,0.681597948074341,keyboard,keyboard,0,0555_scg_s06_0_keyboard_00_keyboard9-keyboard2.png
subject-06,1,556,0.785126924514771,elephant,elephant,0,0556_scg_s06_0_elephant_00_elephant5-bicycle3.png
subject-06,1,557,0.889619112014771,bird,bird,0,0557_scg_s06_0_bird_00_bird3-bird2.png
subject-06,1,558,0.958136081695557,knife,knife,0,0558_scg_s06_0_knife_00_knife2-cat3.png
subject-06,1,559,0.908087015151978,airplane,airplane,0,0559_scg_s06_0_airplane_00_airplane9-boat1.png
subject-06,1,560,0.627011060714722,cat,cat,0,0560_scg_s06_0_cat_00_cat7-clock3.png
subject-06,1,561,0.89319109916687,truck,truck,0,0561_scg_s06_0_truck_00_truck2-airplane3.png
subject-06,1,562,0.698616981506348,airplane,airplane,0,0562_scg_s06_0_airplane_00_airplane10-dog3.png
subject-06,1,563,0.902689933776855,keyboard,keyboard,0,0563_scg_s06_0_keyboard_00_keyboard3-car2.png
subject-06,1,564,0.939425945281982,bird,dog,0,0564_scg_s06_0_dog_00_dog8-keyboard3.png
subject-06,1,565,0.745059967041016,bottle,bottle,0,0565_scg_s06_0_bottle_00_bottle9-truck1.png
subject-06,1,566,1.04931712150574,boat,boat,0,0566_scg_s06_0_boat_00_boat8-oven1.png
subject-06,1,567,0.784886121749878,elephant,elephant,0,0567_scg_s06_0_elephant_00_elephant8-truck3.png
subject-06,1,568,0.758541822433472,bottle,keyboard,0,0568_scg_s06_0_keyboard_00_keyboard4-bottle2.png
subject-06,1,569,0.80850887298584,elephant,elephant,0,0569_scg_s06_0_elephant_00_elephant7-bear3.png
subject-06,1,570,0.860033988952637,knife,knife,0,0570_scg_s06_0_knife_00_knife2-elephant2.png
subject-06,1,571,0.795678853988647,dog,dog,0,0571_scg_s06_0_dog_00_dog2-airplane2.png
subject-06,1,572,1.13889908790588,elephant,elephant,0,0572_scg_s06_0_elephant_00_elephant2-truck2.png
subject-06,1,573,0.628539085388184,clock,clock,0,0573_scg_s06_0_clock_00_clock1-clock2.png
subject-06,1,574,0.865288972854614,keyboard,keyboard,0,0574_scg_s06_0_keyboard_00_keyboard5-knife2.png
subject-06,1,575,1.10066294670105,chair,chair,0,0575_scg_s06_0_chair_00_chair10-bicycle1.png
subject-06,1,576,0.821004867553711,bear,bear,0,0576_scg_s06_0_bear_00_bear1-elephant1.png
subject-06,1,577,1.04900693893433,elephant,elephant,0,0577_scg_s06_0_elephant_00_elephant8-elephant1.png
subject-06,1,578,1.23647689819336,oven,oven,0,0578_scg_s06_0_oven_00_oven6-bird1.png
subject-06,1,579,0.879832029342651,bear,bear,0,0579_scg_s06_0_bear_00_bear7-dog3.png
subject-06,1,580,0.799854040145874,clock,clock,0,0580_scg_s06_0_clock_00_clock3-bicycle2.png
subject-06,1,581,0.673678874969482,oven,oven,0,0581_scg_s06_0_oven_00_oven5-dog3.png
subject-06,1,582,0.77872896194458,chair,chair,0,0582_scg_s06_0_chair_00_chair6-bird2.png
subject-06,1,583,1.0229389667511,elephant,elephant,0,0583_scg_s06_0_elephant_00_elephant1-airplane2.png
subject-06,1,584,0.88791298866272,clock,clock,0,0584_scg_s06_0_clock_00_clock9-bird2.png
subject-06,1,585,0.837577104568481,bicycle,bicycle,0,0585_scg_s06_0_bicycle_00_bicycle7-truck3.png
subject-06,1,586,0.842841148376465,knife,knife,0,0586_scg_s06_0_knife_00_knife2-dog1.png
subject-06,1,587,0.963751077651978,airplane,airplane,0,0587_scg_s06_0_airplane_00_airplane9-clock1.png
subject-06,1,588,0.791182041168213,boat,boat,0,0588_scg_s06_0_boat_00_boat6-bear1.png
subject-06,1,589,0.865640878677368,bottle,bottle,0,0589_scg_s06_0_bottle_00_bottle5-oven2.png
subject-06,1,590,0.955657958984375,car,car,0,0590_scg_s06_0_car_00_car6-chair3.png
subject-06,1,591,0.775211095809937,keyboard,keyboard,0,0591_scg_s06_0_keyboard_00_keyboard5-keyboard1.png
subject-06,1,592,1.05565905570984,chair,chair,0,0592_scg_s06_0_chair_00_chair7-bottle1.png
subject-06,1,593,0.761297941207886,bottle,bottle,0,0593_scg_s06_0_bottle_00_bottle1-car1.png
subject-06,1,594,0.818960905075073,airplane,airplane,0,0594_scg_s06_0_airplane_00_airplane10-car3.png
subject-06,1,595,0.852800846099854,bear,bear,0,0595_scg_s06_0_bear_00_bear5-chair1.png
subject-06,1,596,1.03468799591064,car,car,0,0596_scg_s06_0_car_00_car5-keyboard3.png
subject-06,1,597,0.662197828292847,clock,clock,0,0597_scg_s06_0_clock_00_clock8-cat1.png
subject-06,1,598,0.841484069824219,truck,truck,0,0598_scg_s06_0_truck_00_truck3-chair2.png
subject-06,1,599,0.700881004333496,bicycle,bicycle,0,0599_scg_s06_0_bicycle_00_bicycle5-keyboard3.png
subject-06,1,600,0.789141893386841,bear,bear,0,0600_scg_s06_0_bear_00_bear9-knife2.png
subject-06,1,601,0.754542112350464,car,car,0,0601_scg_s06_0_car_00_car1-airplane1.png
subject-06,1,602,0.706375122070312,bicycle,bicycle,0,0602_scg_s06_0_bicycle_00_bicycle7-oven1.png
subject-06,1,603,0.856084823608398,chair,chair,0,0603_scg_s06_0_chair_00_chair2-keyboard2.png
subject-06,1,604,0.946485996246338,airplane,cat,0,0604_scg_s06_0_cat_00_cat9-knife2.png
subject-06,1,605,0.696850061416626,oven,oven,0,0605_scg_s06_0_oven_00_oven6-airplane3.png
subject-06,1,606,0.924452066421509,dog,dog,0,0606_scg_s06_0_dog_00_dog6-cat1.png
subject-06,1,607,0.797640085220337,airplane,airplane,0,0607_scg_s06_0_airplane_00_airplane4-airplane1.png
subject-06,1,608,0.663825988769531,bear,bear,0,0608_scg_s06_0_bear_00_bear8-boat2.png
subject-06,1,609,0.807235956192017,bicycle,bicycle,0,0609_scg_s06_0_bicycle_00_bicycle4-bottle1.png
subject-06,1,610,0.781545877456665,oven,oven,0,0610_scg_s06_0_oven_00_oven6-truck1.png
subject-06,1,611,0.630765914916992,clock,clock,0,0611_scg_s06_0_clock_00_clock10-bird3.png
subject-06,1,612,0.888474941253662,airplane,airplane,0,0612_scg_s06_0_airplane_00_airplane8-oven2.png
subject-06,1,613,0.765815019607544,bottle,bottle,0,0613_scg_s06_0_bottle_00_bottle1-cat3.png
subject-06,1,614,1.09950184822083,truck,truck,0,0614_scg_s06_0_truck_00_truck8-bottle2.png
subject-06,1,615,0.689370155334473,bear,bear,0,0615_scg_s06_0_bear_00_bear3-dog3.png
subject-06,1,616,0.649985074996948,keyboard,keyboard,0,0616_scg_s06_0_keyboard_00_keyboard7-knife1.png
subject-06,1,617,0.737842082977295,bicycle,bicycle,0,0617_scg_s06_0_bicycle_00_bicycle8-bear2.png
subject-06,1,618,0.733369827270508,car,car,0,0618_scg_s06_0_car_00_car2-car3.png
subject-06,1,619,1.09143090248108,elephant,elephant,0,0619_scg_s06_0_elephant_00_elephant7-knife2.png
subject-06,1,620,0.918653011322021,dog,dog,0,0620_scg_s06_0_dog_00_dog4-keyboard2.png
subject-06,1,621,0.941737174987793,dog,dog,0,0621_scg_s06_0_dog_00_dog4-oven1.png
subject-06,1,622,0.907456874847412,bird,bird,0,0622_scg_s06_0_bird_00_bird6-oven1.png
subject-06,1,623,1.01204776763916,dog,elephant,0,0623_scg_s06_0_elephant_00_elephant4-bird1.png
subject-06,1,624,0.731200933456421,oven,oven,0,0624_scg_s06_0_oven_00_oven4-bicycle2.png
subject-06,1,625,0.705090045928955,clock,clock,0,0625_scg_s06_0_clock_00_clock10-airplane1.png
subject-06,1,626,0.803292036056519,chair,chair,0,0626_scg_s06_0_chair_00_chair5-car1.png
subject-06,1,627,1.04777479171753,car,car,0,0627_scg_s06_0_car_00_car7-airplane2.png
subject-06,1,628,0.866963148117065,boat,boat,0,0628_scg_s06_0_boat_00_boat9-airplane2.png
subject-06,1,629,0.824952125549316,knife,knife,0,0629_scg_s06_0_knife_00_knife5-oven2.png
subject-06,1,630,0.7744460105896,clock,clock,0,0630_scg_s06_0_clock_00_clock4-bottle3.png
subject-06,1,631,0.65519118309021,oven,cat,0,0631_scg_s06_0_cat_00_cat10-keyboard1.png
subject-06,1,632,0.835193872451782,chair,chair,0,0632_scg_s06_0_chair_00_chair9-bear1.png
subject-06,1,633,0.747193813323975,airplane,airplane,0,0633_scg_s06_0_airplane_00_airplane1-clock1.png
subject-06,1,634,0.758632898330688,bottle,bottle,0,0634_scg_s06_0_bottle_00_bottle6-dog3.png
subject-06,1,635,1.07817006111145,car,car,0,0635_scg_s06_0_car_00_car10-car1.png
subject-06,1,636,0.775459051132202,cat,cat,0,0636_scg_s06_0_cat_00_cat7-boat3.png
subject-06,1,637,0.749693155288696,elephant,elephant,0,0637_scg_s06_0_elephant_00_elephant2-bottle3.png
subject-06,1,638,0.794221162796021,car,car,0,0638_scg_s06_0_car_00_car4-bottle1.png
subject-06,1,639,0.806097984313965,bicycle,bicycle,0,0639_scg_s06_0_bicycle_00_bicycle5-cat1.png
subject-06,1,640,0.855869054794312,knife,knife,0,0640_scg_s06_0_knife_00_knife1-oven1.png
subject-06,1,641,0.699918031692505,cat,cat,0,0641_scg_s06_0_cat_00_cat5-elephant2.png
subject-06,1,642,0.620487928390503,cat,cat,0,0642_scg_s06_0_cat_00_cat1-boat1.png
subject-06,1,643,0.740818023681641,truck,truck,0,0643_scg_s06_0_truck_00_truck3-car3.png
subject-06,1,644,0.874873161315918,car,car,0,0644_scg_s06_0_car_00_car9-knife1.png
subject-06,1,645,0.679903984069824,cat,cat,0,0645_scg_s06_0_cat_00_cat4-dog3.png
subject-06,1,646,0.913776874542236,airplane,boat,0,0646_scg_s06_0_boat_00_boat7-clock3.png
subject-06,1,647,0.779623985290527,airplane,airplane,0,0647_scg_s06_0_airplane_00_airplane10-airplane1.png
subject-06,1,648,0.800633907318115,truck,truck,0,0648_scg_s06_0_truck_00_truck10-clock1.png
subject-06,1,649,0.760242938995361,chair,chair,0,0649_scg_s06_0_chair_00_chair1-bear1.png
subject-06,1,650,0.680333137512207,bear,bear,0,0650_scg_s06_0_bear_00_bear5-bicycle3.png
subject-06,1,651,0.737696170806885,chair,chair,0,0651_scg_s06_0_chair_00_chair9-elephant1.png
subject-06,1,652,0.857272863388062,airplane,airplane,0,0652_scg_s06_0_airplane_00_airplane5-oven3.png
subject-06,1,653,0.731003999710083,bottle,bottle,0,0653_scg_s06_0_bottle_00_bottle1-bird3.png
subject-06,1,654,0.752629041671753,bottle,cat,0,0654_scg_s06_0_cat_00_cat9-bottle2.png
subject-06,1,655,1.44742894172668,bear,bear,0,0655_scg_s06_0_bear_00_bear1-clock2.png
subject-06,1,656,1.16764211654663,bicycle,bicycle,0,0656_scg_s06_0_bicycle_00_bicycle2-knife2.png
subject-06,1,657,1.07396578788757,truck,truck,0,0657_scg_s06_0_truck_00_truck10-car3.png
subject-06,1,658,0.856226921081543,car,car,0,0658_scg_s06_0_car_00_car3-dog2.png
subject-06,1,659,0.637880086898804,boat,boat,0,0659_scg_s06_0_boat_00_boat9-bear3.png
subject-06,1,660,0.717831134796143,car,knife,0,0660_scg_s06_0_knife_00_knife7-car2.png
subject-06,1,661,0.775299072265625,car,car,0,0661_scg_s06_0_car_00_car8-airplane3.png
subject-06,1,662,0.926867008209229,chair,chair,0,0662_scg_s06_0_chair_00_chair7-car2.png
subject-06,1,663,0.884283065795898,bear,bear,0,0663_scg_s06_0_bear_00_bear4-clock3.png
subject-06,1,664,1.00172901153564,knife,knife,0,0664_scg_s06_0_knife_00_knife4-cat2.png
subject-06,1,665,0.698862075805664,bottle,bottle,0,0665_scg_s06_0_bottle_00_bottle5-bird3.png
subject-06,1,666,0.651510953903198,boat,boat,0,0666_scg_s06_0_boat_00_boat9-chair2.png
subject-06,1,667,0.739462852478027,car,car,0,0667_scg_s06_0_car_00_car10-bottle3.png
subject-06,1,668,0.705560922622681,oven,oven,0,0668_scg_s06_0_oven_00_oven5-elephant1.png
subject-06,1,669,0.686683893203735,cat,cat,0,0669_scg_s06_0_cat_00_cat7-truck2.png
subject-06,1,670,0.995933771133423,airplane,airplane,0,0670_scg_s06_0_airplane_00_airplane8-bicycle3.png
subject-06,1,671,0.865777015686035,truck,truck,0,0671_scg_s06_0_truck_00_truck1-dog1.png
subject-06,1,672,0.726122856140137,bottle,bottle,0,0672_scg_s06_0_bottle_00_bottle4-airplane1.png
subject-06,1,673,0.997688055038452,boat,boat,0,0673_scg_s06_0_boat_00_boat5-knife2.png
subject-06,1,674,0.878706932067871,knife,knife,0,0674_scg_s06_0_knife_00_knife2-bird1.png
subject-06,1,675,0.806658029556274,car,car,0,0675_scg_s06_0_car_00_car7-bird3.png
subject-06,1,676,0.834897994995117,chair,chair,0,0676_scg_s06_0_chair_00_chair2-boat1.png
subject-06,1,677,0.738831996917725,knife,knife,0,0677_scg_s06_0_knife_00_knife1-airplane1.png
subject-06,1,678,1.00543189048767,dog,dog,0,0678_scg_s06_0_dog_00_dog5-bear3.png
subject-06,1,679,0.786492109298706,dog,dog,0,0679_scg_s06_0_dog_00_dog10-keyboard2.png
subject-06,1,680,0.820142984390259,bear,bear,0,0680_scg_s06_0_bear_00_bear4-boat2.png
subject-06,1,681,0.793698072433472,bicycle,bicycle,0,0681_scg_s06_0_bicycle_00_bicycle6-car2.png
subject-06,1,682,0.905367851257324,bicycle,bicycle,0,0682_scg_s06_0_bicycle_00_bicycle4-bicycle3.png
subject-06,1,683,0.679188013076782,oven,oven,0,0683_scg_s06_0_oven_00_oven9-boat2.png
subject-06,1,684,0.591248989105225,bear,bear,0,0684_scg_s06_0_bear_00_bear2-oven1.png
subject-06,1,685,0.698172092437744,bicycle,bicycle,0,0685_scg_s06_0_bicycle_00_bicycle1-chair1.png
subject-06,1,686,0.609102964401245,bear,bear,0,0686_scg_s06_0_bear_00_bear10-elephant1.png
subject-06,1,687,0.798021793365479,boat,boat,0,0687_scg_s06_0_boat_00_boat3-car3.png
subject-06,1,688,0.703271865844727,boat,boat,0,0688_scg_s06_0_boat_00_boat6-bottle2.png
subject-06,1,689,0.598887920379639,oven,oven,0,0689_scg_s06_0_oven_00_oven3-elephant3.png
subject-06,1,690,0.91090989112854,elephant,elephant,0,0690_scg_s06_0_elephant_00_elephant8-knife2.png
subject-06,1,691,0.785037994384766,car,car,0,0691_scg_s06_0_car_00_car1-oven3.png
subject-06,1,692,1.20412802696228,keyboard,keyboard,0,0692_scg_s06_0_keyboard_00_keyboard1-airplane2.png
subject-06,1,693,0.840987205505371,bear,bear,0,0693_scg_s06_0_bear_00_bear4-cat3.png
subject-06,1,694,0.920389890670776,knife,knife,0,0694_scg_s06_0_knife_00_knife3-knife1.png
subject-06,1,695,0.73986291885376,truck,truck,0,0695_scg_s06_0_truck_00_truck2-bottle3.png
subject-06,1,696,0.805844068527222,bottle,bottle,0,0696_scg_s06_0_bottle_00_bottle5-elephant1.png
subject-06,1,697,0.721421003341675,car,car,0,0697_scg_s06_0_car_00_car4-elephant3.png
subject-06,1,698,0.703563213348389,truck,truck,0,0698_scg_s06_0_truck_00_truck2-clock1.png
subject-06,1,699,1.01570701599121,dog,dog,0,0699_scg_s06_0_dog_00_dog10-truck2.png
subject-06,1,700,0.943411111831665,bird,airplane,0,0700_scg_s06_0_airplane_00_airplane4-keyboard3.png
subject-06,1,701,0.8387610912323,bird,bird,0,0701_scg_s06_0_bird_00_bird5-dog2.png
subject-06,1,702,0.844336986541748,bear,bear,0,0702_scg_s06_0_bear_00_bear4-car3.png
subject-06,1,703,0.848699808120728,elephant,elephant,0,0703_scg_s06_0_elephant_00_elephant9-chair2.png
subject-06,1,704,0.630159854888916,cat,cat,0,0704_scg_s06_0_cat_00_cat5-bottle1.png
subject-06,1,705,0.910347938537598,bird,cat,0,0705_scg_s06_0_cat_00_cat4-keyboard2.png
subject-06,1,706,0.96048903465271,elephant,elephant,0,0706_scg_s06_0_elephant_00_elephant2-elephant3.png
subject-06,1,707,0.895981073379517,airplane,airplane,0,0707_scg_s06_0_airplane_00_airplane6-bottle2.png
subject-06,1,708,0.93178915977478,cat,cat,0,0708_scg_s06_0_cat_00_cat7-bottle1.png
subject-06,1,709,0.835005044937134,knife,knife,0,0709_scg_s06_0_knife_00_knife8-truck3.png
subject-06,1,710,1.16100692749023,knife,knife,0,0710_scg_s06_0_knife_00_knife1-bird2.png
subject-06,1,711,0.837919950485229,airplane,airplane,0,0711_scg_s06_0_airplane_00_airplane7-keyboard1.png
subject-06,1,712,1.02791595458984,cat,cat,0,0712_scg_s06_0_cat_00_cat5-car2.png
subject-06,1,713,1.22415494918823,bear,bear,0,0713_scg_s06_0_bear_00_bear1-bird2.png
subject-06,1,714,0.889398813247681,dog,dog,0,0714_scg_s06_0_dog_00_dog4-truck2.png
subject-06,1,715,0.792877197265625,keyboard,keyboard,0,0715_scg_s06_0_keyboard_00_keyboard10-truck1.png
subject-06,1,716,0.637279033660889,boat,boat,0,0716_scg_s06_0_boat_00_boat9-cat3.png
subject-06,1,717,1.24148607254028,dog,dog,0,0717_scg_s06_0_dog_00_dog10-bottle1.png
subject-06,1,718,1.50024104118347,oven,dog,0,0718_scg_s06_0_dog_00_dog7-chair2.png
subject-06,1,719,0.875596046447754,keyboard,keyboard,0,0719_scg_s06_0_keyboard_00_keyboard10-car1.png
subject-06,1,720,0.779167890548706,bicycle,bicycle,0,0720_scg_s06_0_bicycle_00_bicycle4-clock3.png
subject-06,1,721,1.0760190486908,bird,boat,0,0721_scg_s06_0_boat_00_boat10-bear3.png
subject-06,1,722,1.0252058506012,car,car,0,0722_scg_s06_0_car_00_car7-keyboard3.png
subject-06,1,723,0.98290491104126,truck,truck,0,0723_scg_s06_0_truck_00_truck6-bear2.png
subject-06,1,724,1.08856105804443,bird,bird,0,0724_scg_s06_0_bird_00_bird6-bottle3.png
subject-06,1,725,0.700037002563477,cat,cat,0,0725_scg_s06_0_cat_00_cat8-bird2.png
subject-06,1,726,0.749686002731323,truck,truck,0,0726_scg_s06_0_truck_00_truck9-chair3.png
subject-06,1,727,0.769649982452393,keyboard,keyboard,0,0727_scg_s06_0_keyboard_00_keyboard1-chair2.png
subject-06,1,728,0.665357112884521,cat,cat,0,0728_scg_s06_0_cat_00_cat9-clock2.png
subject-06,1,729,0.646331071853638,bear,bear,0,0729_scg_s06_0_bear_00_bear8-knife3.png
subject-06,1,730,0.672719955444336,truck,truck,0,0730_scg_s06_0_truck_00_truck9-boat3.png
subject-06,1,731,0.646660089492798,clock,clock,0,0731_scg_s06_0_clock_00_clock5-clock2.png
subject-06,1,732,0.720571041107178,car,car,0,0732_scg_s06_0_car_00_car8-bicycle2.png
subject-06,1,733,0.932269096374512,dog,dog,0,0733_scg_s06_0_dog_00_dog9-boat1.png
subject-06,1,734,0.828473091125488,keyboard,keyboard,0,0734_scg_s06_0_keyboard_00_keyboard9-bear2.png
subject-06,1,735,0.747380018234253,bear,bear,0,0735_scg_s06_0_bear_00_bear1-airplane3.png
subject-06,1,736,0.867398023605347,boat,boat,0,0736_scg_s06_0_boat_00_boat7-elephant3.png
subject-06,1,737,0.969214916229248,cat,dog,0,0737_scg_s06_0_dog_00_dog2-knife3.png
subject-06,1,738,0.866708993911743,car,car,0,0738_scg_s06_0_car_00_car8-chair1.png
subject-06,1,739,0.894207954406738,elephant,elephant,0,0739_scg_s06_0_elephant_00_elephant8-oven3.png
subject-06,1,740,0.751657962799072,bicycle,bicycle,0,0740_scg_s06_0_bicycle_00_bicycle10-airplane2.png
subject-06,1,741,0.731939077377319,boat,boat,0,0741_scg_s06_0_boat_00_boat6-truck3.png
subject-06,1,742,0.852227926254272,keyboard,keyboard,0,0742_scg_s06_0_keyboard_00_keyboard1-car3.png
subject-06,1,743,0.95088791847229,dog,dog,0,0743_scg_s06_0_dog_00_dog4-cat3.png
subject-06,1,744,0.617095947265625,clock,clock,0,0744_scg_s06_0_clock_00_clock1-truck3.png
subject-06,1,745,1.15105509757996,dog,dog,0,0745_scg_s06_0_dog_00_dog3-clock1.png
subject-06,1,746,0.781084060668945,bird,bird,0,0746_scg_s06_0_bird_00_bird4-bicycle2.png
subject-06,1,747,0.738723039627075,bear,bear,0,0747_scg_s06_0_bear_00_bear3-chair2.png
subject-06,1,748,0.72119402885437,oven,oven,0,0748_scg_s06_0_oven_00_oven2-dog3.png
subject-06,1,749,0.733174085617065,car,car,0,0749_scg_s06_0_car_00_car4-boat1.png
subject-06,1,750,0.747491836547852,cat,cat,0,0750_scg_s06_0_cat_00_cat10-clock1.png
subject-06,1,751,0.621057033538818,boat,boat,0,0751_scg_s06_0_boat_00_boat1-bird3.png
subject-06,1,752,0.885091066360474,airplane,airplane,0,0752_scg_s06_0_airplane_00_airplane2-bicycle1.png
subject-06,1,753,0.744664907455444,airplane,airplane,0,0753_scg_s06_0_airplane_00_airplane5-bicycle1.png
subject-06,1,754,0.640588998794556,oven,oven,0,0754_scg_s06_0_oven_00_oven10-bicycle1.png
subject-06,1,755,0.844414949417114,knife,knife,0,0755_scg_s06_0_knife_00_knife7-airplane3.png
subject-06,1,756,0.717978954315186,bottle,bottle,0,0756_scg_s06_0_bottle_00_bottle10-boat3.png
subject-06,1,757,0.799378871917725,bird,bird,0,0757_scg_s06_0_bird_00_bird6-boat2.png
subject-06,1,758,0.749519109725952,bird,bird,0,0758_scg_s06_0_bird_00_bird4-cat3.png
subject-06,1,759,0.994318008422852,bird,knife,0,0759_scg_s06_0_knife_00_knife2-car3.png
subject-06,1,760,0.767560005187988,clock,clock,0,0760_scg_s06_0_clock_00_clock3-bear3.png
subject-06,1,761,0.763452053070068,bottle,bottle,0,0761_scg_s06_0_bottle_00_bottle1-clock1.png
subject-06,1,762,0.729031085968018,chair,chair,0,0762_scg_s06_0_chair_00_chair5-bicycle1.png
subject-06,1,763,0.911520004272461,truck,truck,0,0763_scg_s06_0_truck_00_truck8-keyboard2.png
subject-06,1,764,0.771521806716919,keyboard,keyboard,0,0764_scg_s06_0_keyboard_00_keyboard6-chair1.png
subject-06,1,765,0.559486865997314,bird,bird,0,0765_scg_s06_0_bird_00_bird9-dog2.png
subject-06,1,766,0.955475091934204,knife,knife,0,0766_scg_s06_0_knife_00_knife1-truck2.png
subject-06,1,767,0.945925951004028,keyboard,oven,0,0767_scg_s06_0_oven_00_oven8-chair1.png
subject-06,1,768,1.2714159488678,elephant,elephant,0,0768_scg_s06_0_elephant_00_elephant2-cat1.png
subject-06,1,769,0.690510988235474,boat,boat,0,0769_scg_s06_0_boat_00_boat10-oven1.png
subject-06,1,770,0.702457904815674,bottle,keyboard,0,0770_scg_s06_0_keyboard_00_keyboard10-oven3.png
subject-06,1,771,0.652471780776978,cat,cat,0,0771_scg_s06_0_cat_00_cat3-bear2.png
subject-06,1,772,0.620790958404541,clock,clock,0,0772_scg_s06_0_clock_00_clock4-boat3.png
subject-06,1,773,0.678317070007324,car,dog,0,0773_scg_s06_0_dog_00_dog9-car1.png
subject-06,1,774,1.174311876297,bear,bear,0,0774_scg_s06_0_bear_00_bear9-dog1.png
subject-06,1,775,0.723304986953735,cat,cat,0,0775_scg_s06_0_cat_00_cat7-airplane2.png
subject-06,1,776,0.767704010009766,bottle,bottle,0,0776_scg_s06_0_bottle_00_bottle5-airplane1.png
subject-06,1,777,0.671846866607666,clock,clock,0,0777_scg_s06_0_clock_00_clock4-car2.png
subject-06,1,778,0.621228933334351,cat,cat,0,0778_scg_s06_0_cat_00_cat4-airplane1.png
subject-06,1,779,0.748492002487183,car,car,0,0779_scg_s06_0_car_00_car4-bicycle3.png
subject-06,1,780,1.01215600967407,keyboard,keyboard,0,0780_scg_s06_0_keyboard_00_keyboard4-keyboard2.png
subject-06,1,781,0.915799140930176,knife,knife,0,0781_scg_s06_0_knife_00_knife7-bottle3.png
subject-06,1,782,0.790333986282349,knife,knife,0,0782_scg_s06_0_knife_00_knife5-cat2.png
subject-06,1,783,0.810611009597778,oven,oven,0,0783_scg_s06_0_oven_00_oven10-oven3.png
subject-06,1,784,0.746425151824951,chair,chair,0,0784_scg_s06_0_chair_00_chair3-car3.png
subject-06,1,785,0.67551589012146,oven,oven,0,0785_scg_s06_0_oven_00_oven6-chair3.png
subject-06,1,786,0.93274998664856,keyboard,keyboard,0,0786_scg_s06_0_keyboard_00_keyboard3-bicycle2.png
subject-06,1,787,1.10792016983032,elephant,elephant,0,0787_scg_s06_0_elephant_00_elephant3-chair1.png
subject-06,1,788,0.765339851379395,keyboard,keyboard,0,0788_scg_s06_0_keyboard_00_keyboard1-bird2.png
subject-06,1,789,0.731083869934082,truck,truck,0,0789_scg_s06_0_truck_00_truck1-clock3.png
subject-06,1,790,0.97593092918396,knife,knife,0,0790_scg_s06_0_knife_00_knife4-airplane3.png
subject-06,1,791,0.741678953170776,clock,clock,0,0791_scg_s06_0_clock_00_clock10-dog3.png
subject-06,1,792,0.899369955062866,bird,bird,0,0792_scg_s06_0_bird_00_bird3-truck3.png
subject-06,1,793,0.841495990753174,bird,airplane,0,0793_scg_s06_0_airplane_00_airplane7-truck1.png
subject-06,1,794,0.907666921615601,car,car,0,0794_scg_s06_0_car_00_car6-boat1.png
subject-06,1,795,0.62958812713623,oven,oven,0,0795_scg_s06_0_oven_00_oven3-knife1.png
subject-06,1,796,0.60139012336731,oven,oven,0,0796_scg_s06_0_oven_00_oven1-clock3.png
subject-06,1,797,0.899586915969849,keyboard,keyboard,0,0797_scg_s06_0_keyboard_00_keyboard3-elephant2.png
subject-06,1,798,0.903063058853149,dog,dog,0,0798_scg_s06_0_dog_00_dog6-bicycle1.png
subject-06,1,799,0.891032934188843,car,car,0,0799_scg_s06_0_car_00_car3-truck1.png
subject-06,1,800,1.0433509349823,bird,bird,0,0800_scg_s06_0_bird_00_bird3-boat3.png
subject-06,1,801,0.97165584564209,knife,knife,0,0801_scg_s06_0_knife_00_knife2-bottle2.png
subject-06,1,802,0.820807933807373,boat,boat,0,0802_scg_s06_0_boat_00_boat3-cat3.png
subject-06,1,803,0.680945873260498,keyboard,keyboard,0,0803_scg_s06_0_keyboard_00_keyboard5-airplane3.png
subject-06,1,804,0.985558032989502,truck,truck,0,0804_scg_s06_0_truck_00_truck3-oven2.png
subject-06,1,805,1.11880397796631,airplane,airplane,0,0805_scg_s06_0_airplane_00_airplane1-chair2.png
subject-06,1,806,0.70041298866272,cat,cat,0,0806_scg_s06_0_cat_00_cat9-bird3.png
subject-06,1,807,0.790760040283203,bear,bear,0,0807_scg_s06_0_bear_00_bear5-airplane3.png
subject-06,1,808,1.00325012207031,chair,chair,0,0808_scg_s06_0_chair_00_chair7-truck3.png
subject-06,1,809,0.831013917922974,boat,boat,0,0809_scg_s06_0_boat_00_boat6-bicycle2.png
subject-06,1,810,1.07596802711487,airplane,airplane,0,0810_scg_s06_0_airplane_00_airplane8-clock2.png
subject-06,1,811,0.711632013320923,clock,clock,0,0811_scg_s06_0_clock_00_clock10-bottle1.png
subject-06,1,812,0.999699115753174,knife,knife,0,0812_scg_s06_0_knife_00_knife1-clock2.png
subject-06,1,813,1.07300305366516,dog,dog,0,0813_scg_s06_0_dog_00_dog8-bear3.png
subject-06,1,814,1.23994493484497,car,car,0,0814_scg_s06_0_car_00_car10-bicycle2.png
subject-06,1,815,0.697640895843506,boat,boat,0,0815_scg_s06_0_boat_00_boat4-bicycle3.png
subject-06,1,816,0.971185922622681,car,car,0,0816_scg_s06_0_car_00_car5-bottle1.png
subject-06,1,817,0.791525840759277,bird,bird,0,0817_scg_s06_0_bird_00_bird5-airplane3.png
subject-06,1,818,0.763335943222046,bird,bird,0,0818_scg_s06_0_bird_00_bird5-car2.png
subject-06,1,819,0.89879298210144,knife,knife,0,0819_scg_s06_0_knife_00_knife7-elephant2.png
subject-06,1,820,0.696722984313965,clock,clock,0,0820_scg_s06_0_clock_00_clock2-bicycle1.png
subject-06,1,821,0.801095008850098,dog,dog,0,0821_scg_s06_0_dog_00_dog4-elephant2.png
subject-06,1,822,0.843209028244019,elephant,elephant,0,0822_scg_s06_0_elephant_00_elephant1-oven2.png
subject-06,1,823,0.92519998550415,truck,truck,0,0823_scg_s06_0_truck_00_truck4-oven2.png
subject-06,1,824,0.844832897186279,bottle,bottle,0,0824_scg_s06_0_bottle_00_bottle4-bicycle1.png
subject-06,1,825,0.827139854431152,chair,chair,0,0825_scg_s06_0_chair_00_chair8-chair3.png
subject-06,1,826,0.976908922195435,chair,bird,0,0826_scg_s06_0_bird_00_bird3-oven1.png
subject-06,1,827,0.681152105331421,clock,clock,0,0827_scg_s06_0_clock_00_clock6-oven1.png
subject-06,1,828,0.846592903137207,airplane,airplane,0,0828_scg_s06_0_airplane_00_airplane2-dog1.png
subject-06,1,829,0.920152187347412,dog,dog,0,0829_scg_s06_0_dog_00_dog10-oven2.png
subject-06,1,830,0.708380937576294,clock,clock,0,0830_scg_s06_0_clock_00_clock5-airplane1.png
subject-06,1,831,0.643524885177612,bicycle,bicycle,0,0831_scg_s06_0_bicycle_00_bicycle2-bottle1.png
subject-06,1,832,0.88587212562561,dog,dog,0,0832_scg_s06_0_dog_00_dog1-boat3.png
subject-06,1,833,0.784001111984253,bicycle,bicycle,0,0833_scg_s06_0_bicycle_00_bicycle3-bird1.png
subject-06,1,834,0.766561985015869,dog,dog,0,0834_scg_s06_0_dog_00_dog4-bicycle1.png
subject-06,1,835,0.648466825485229,clock,clock,0,0835_scg_s06_0_clock_00_clock10-truck2.png
subject-06,1,836,0.789786815643311,bird,bird,0,0836_scg_s06_0_bird_00_bird7-boat1.png
subject-06,1,837,0.686109066009521,chair,chair,0,0837_scg_s06_0_chair_00_chair5-boat3.png
subject-06,1,838,1.15957403182983,elephant,elephant,0,0838_scg_s06_0_elephant_00_elephant9-boat3.png
subject-06,1,839,1.07965302467346,bear,bear,0,0839_scg_s06_0_bear_00_bear10-oven1.png
subject-06,1,840,1.35265707969666,bird,airplane,0,0840_scg_s06_0_airplane_00_airplane3-dog1.png
subject-06,1,841,1.1909921169281,elephant,elephant,0,0841_scg_s06_0_elephant_00_elephant7-bird1.png
subject-06,1,842,0.862134218215942,bicycle,bicycle,0,0842_scg_s06_0_bicycle_00_bicycle1-clock3.png
subject-06,1,843,1.00597405433655,airplane,airplane,0,0843_scg_s06_0_airplane_00_airplane5-knife1.png
subject-06,1,844,0.917639970779419,elephant,elephant,0,0844_scg_s06_0_elephant_00_elephant10-elephant1.png
subject-06,1,845,0.98113489151001,elephant,elephant,0,0845_scg_s06_0_elephant_00_elephant10-bear1.png
subject-06,1,846,0.712528944015503,cat,cat,0,0846_scg_s06_0_cat_00_cat9-truck1.png
subject-06,1,847,0.846282958984375,chair,chair,0,0847_scg_s06_0_chair_00_chair1-truck3.png
subject-06,1,848,0.897891998291016,dog,dog,0,0848_scg_s06_0_dog_00_dog3-knife3.png
subject-06,1,849,0.963621854782104,bicycle,bicycle,0,0849_scg_s06_0_bicycle_00_bicycle2-car2.png
subject-06,1,850,0.929845809936523,airplane,airplane,0,0850_scg_s06_0_airplane_00_airplane5-chair3.png
subject-06,1,851,0.741060972213745,bird,bird,0,0851_scg_s06_0_bird_00_bird5-keyboard2.png
subject-06,1,852,1.28885102272034,bird,bear,0,0852_scg_s06_0_bear_00_bear10-knife2.png
subject-06,1,853,0.627214908599854,oven,oven,0,0853_scg_s06_0_oven_00_oven1-bird3.png
subject-06,1,854,0.660550117492676,chair,chair,0,0854_scg_s06_0_chair_00_chair7-clock3.png
subject-06,1,855,0.950700998306274,keyboard,boat,0,0855_scg_s06_0_boat_00_boat3-keyboard2.png
subject-06,1,856,0.962355852127075,knife,knife,0,0856_scg_s06_0_knife_00_knife1-car3.png
subject-06,1,857,1.03599500656128,airplane,airplane,0,0857_scg_s06_0_airplane_00_airplane4-bird3.png
subject-06,1,858,0.769764184951782,bear,bear,0,0858_scg_s06_0_bear_00_bear10-chair2.png
subject-06,1,859,0.805905103683472,boat,boat,0,0859_scg_s06_0_boat_00_boat8-dog3.png
subject-06,1,860,0.82525897026062,bottle,bottle,0,0860_scg_s06_0_bottle_00_bottle2-chair3.png
subject-06,1,861,1.0128870010376,bear,bear,0,0861_scg_s06_0_bear_00_bear2-airplane1.png
subject-06,1,862,0.618075132369995,bottle,bottle,0,0862_scg_s06_0_bottle_00_bottle8-dog2.png
subject-06,1,863,0.998924970626831,bicycle,bicycle,0,0863_scg_s06_0_bicycle_00_bicycle8-truck1.png
subject-06,1,864,0.742585897445679,elephant,elephant,0,0864_scg_s06_0_elephant_00_elephant3-knife1.png
subject-06,1,865,0.616427898406982,oven,oven,0,0865_scg_s06_0_oven_00_oven9-bear2.png
subject-06,1,866,0.682523012161255,clock,clock,0,0866_scg_s06_0_clock_00_clock8-boat1.png
subject-06,1,867,0.715991020202637,truck,truck,0,0867_scg_s06_0_truck_00_truck10-airplane1.png
subject-06,1,868,0.950010061264038,cat,cat,0,0868_scg_s06_0_cat_00_cat4-truck3.png
subject-06,1,869,0.928000926971436,dog,dog,0,0869_scg_s06_0_dog_00_dog1-knife3.png
subject-06,1,870,0.856632232666016,bird,bird,0,0870_scg_s06_0_bird_00_bird3-dog1.png
subject-06,1,871,0.868694067001343,keyboard,keyboard,0,0871_scg_s06_0_keyboard_00_keyboard10-boat2.png
subject-06,1,872,0.7363121509552,keyboard,keyboard,0,0872_scg_s06_0_keyboard_00_keyboard3-clock3.png
subject-06,1,873,0.97106409072876,airplane,airplane,0,0873_scg_s06_0_airplane_00_airplane5-bottle3.png
subject-06,1,874,0.698801040649414,clock,clock,0,0874_scg_s06_0_clock_00_clock1-dog2.png
subject-06,1,875,0.912881135940552,elephant,elephant,0,0875_scg_s06_0_elephant_00_elephant6-dog2.png
subject-06,1,876,0.671152114868164,boat,boat,0,0876_scg_s06_0_boat_00_boat2-oven3.png
subject-06,1,877,0.752841949462891,truck,truck,0,0877_scg_s06_0_truck_00_truck7-truck2.png
subject-06,1,878,0.740664005279541,bird,bird,0,0878_scg_s06_0_bird_00_bird6-car3.png
subject-06,1,879,0.715523958206177,cat,cat,0,0879_scg_s06_0_cat_00_cat6-chair3.png
subject-06,1,880,0.835318088531494,truck,truck,0,0880_scg_s06_0_truck_00_truck3-bear3.png
subject-06,1,881,0.754889011383057,chair,chair,0,0881_scg_s06_0_chair_00_chair4-truck2.png
subject-06,1,882,0.712723016738892,boat,boat,0,0882_scg_s06_0_boat_00_boat1-chair3.png
subject-06,1,883,0.970820903778076,car,car,0,0883_scg_s06_0_car_00_car4-bird1.png
subject-06,1,884,0.752446174621582,clock,clock,0,0884_scg_s06_0_clock_00_clock6-clock2.png
subject-06,1,885,0.697023153305054,boat,boat,0,0885_scg_s06_0_boat_00_boat9-knife2.png
subject-06,1,886,0.914445161819458,boat,boat,0,0886_scg_s06_0_boat_00_boat4-boat3.png
subject-06,1,887,0.91182279586792,bicycle,bicycle,0,0887_scg_s06_0_bicycle_00_bicycle9-chair1.png
subject-06,1,888,0.840394973754883,car,car,0,0888_scg_s06_0_car_00_car9-cat1.png
subject-06,1,889,0.914283037185669,truck,truck,0,0889_scg_s06_0_truck_00_truck4-bear1.png
subject-06,1,890,0.740261793136597,cat,cat,0,0890_scg_s06_0_cat_00_cat4-oven1.png
subject-06,1,891,0.852177143096924,knife,knife,0,0891_scg_s06_0_knife_00_knife1-elephant1.png
subject-06,1,892,0.758330821990967,elephant,elephant,0,0892_scg_s06_0_elephant_00_elephant7-cat1.png
subject-06,1,893,1.03762197494507,dog,dog,0,0893_scg_s06_0_dog_00_dog3-bear3.png
subject-06,1,894,1.4501359462738,bird,bird,0,0894_scg_s06_0_bird_00_bird10-bear2.png
subject-06,1,895,1.15569305419922,keyboard,knife,0,0895_scg_s06_0_knife_00_knife10-chair1.png
subject-06,1,896,0.821967124938965,boat,boat,0,0896_scg_s06_0_boat_00_boat4-knife2.png
subject-06,1,897,0.641801834106445,bicycle,bicycle,0,0897_scg_s06_0_bicycle_00_bicycle1-airplane2.png
subject-06,1,898,0.885238885879517,keyboard,keyboard,0,0898_scg_s06_0_keyboard_00_keyboard1-elephant3.png
subject-06,1,899,0.859421014785767,truck,truck,0,0899_scg_s06_0_truck_00_truck7-boat1.png
subject-06,1,900,1.09408497810364,bird,bird,0,0900_scg_s06_0_bird_00_bird1-keyboard3.png
subject-06,1,901,0.916059017181396,bird,bear,0,0901_scg_s06_0_bear_00_bear6-chair1.png
subject-06,1,902,0.782204151153564,bottle,bottle,0,0902_scg_s06_0_bottle_00_bottle3-bicycle3.png
subject-06,1,903,0.815635204315186,car,car,0,0903_scg_s06_0_car_00_car10-elephant2.png
subject-06,1,904,0.759530067443848,bottle,boat,0,0904_scg_s06_0_boat_00_boat4-bottle2.png
subject-06,1,905,0.850514888763428,bottle,bottle,0,0905_scg_s06_0_bottle_00_bottle3-chair3.png
subject-06,1,906,0.829301118850708,dog,dog,0,0906_scg_s06_0_dog_00_dog4-clock1.png
subject-06,1,907,0.886933088302612,elephant,elephant,0,0907_scg_s06_0_elephant_00_elephant5-elephant1.png
subject-06,1,908,0.648036003112793,boat,boat,0,0908_scg_s06_0_boat_00_boat5-clock3.png
subject-06,1,909,0.881916999816895,bird,bird,0,0909_scg_s06_0_bird_00_bird9-bicycle3.png
subject-06,1,910,0.787805080413818,bicycle,bicycle,0,0910_scg_s06_0_bicycle_00_bicycle10-clock2.png
subject-06,1,911,1.05174589157104,bear,bear,0,0911_scg_s06_0_bear_00_bear3-car2.png
subject-06,1,912,1.07140898704529,car,airplane,0,0912_scg_s06_0_airplane_00_airplane3-car1.png
subject-06,1,913,0.885550022125244,elephant,elephant,0,0913_scg_s06_0_elephant_00_elephant4-car3.png
subject-06,1,914,0.981143951416016,truck,truck,0,0914_scg_s06_0_truck_00_truck6-bottle3.png
subject-06,1,915,1.15460896492004,keyboard,keyboard,0,0915_scg_s06_0_keyboard_00_keyboard7-oven2.png
subject-06,1,916,1.08836698532104,bicycle,dog,0,0916_scg_s06_0_dog_00_dog7-oven2.png
subject-06,1,917,1.04537391662598,bear,bear,0,0917_scg_s06_0_bear_00_bear3-bird3.png
subject-06,1,918,0.618942975997925,oven,oven,0,0918_scg_s06_0_oven_00_oven4-keyboard3.png
subject-06,1,919,0.763360023498535,bicycle,bicycle,0,0919_scg_s06_0_bicycle_00_bicycle7-bicycle2.png
subject-06,1,920,0.729593992233276,chair,chair,0,0920_scg_s06_0_chair_00_chair1-clock2.png
subject-06,1,921,1.10090494155884,dog,dog,0,0921_scg_s06_0_dog_00_dog5-car3.png
subject-06,1,922,0.836923837661743,knife,knife,0,0922_scg_s06_0_knife_00_knife5-truck3.png
subject-06,1,923,0.903550863265991,bottle,bottle,0,0923_scg_s06_0_bottle_00_bottle8-keyboard3.png
subject-06,1,924,0.822585105895996,bicycle,bicycle,0,0924_scg_s06_0_bicycle_00_bicycle6-bicycle3.png
subject-06,1,925,0.942816972732544,truck,truck,0,0925_scg_s06_0_truck_00_truck1-bird1.png
subject-06,1,926,0.79537296295166,boat,boat,0,0926_scg_s06_0_boat_00_boat1-oven1.png
subject-06,1,927,0.983191013336182,bicycle,bicycle,0,0927_scg_s06_0_bicycle_00_bicycle9-car1.png
subject-06,1,928,0.828548908233643,bird,bird,0,0928_scg_s06_0_bird_00_bird8-clock1.png
subject-06,1,929,0.75505805015564,chair,chair,0,0929_scg_s06_0_chair_00_chair4-cat2.png
subject-06,1,930,1.15937399864197,truck,car,0,0930_scg_s06_0_car_00_car5-knife2.png
subject-06,1,931,0.846797943115234,truck,truck,0,0931_scg_s06_0_truck_00_truck4-boat3.png
subject-06,1,932,0.928658008575439,knife,knife,0,0932_scg_s06_0_knife_00_knife8-car2.png
subject-06,1,933,1.10249590873718,elephant,elephant,0,0933_scg_s06_0_elephant_00_elephant6-truck3.png
subject-06,1,934,0.752899169921875,bird,bird,0,0934_scg_s06_0_bird_00_bird10-bicycle1.png
subject-06,1,935,0.792241096496582,knife,knife,0,0935_scg_s06_0_knife_00_knife6-clock2.png
subject-06,1,936,0.879887104034424,truck,airplane,0,0936_scg_s06_0_airplane_00_airplane4-truck2.png
subject-06,1,937,0.853523969650269,chair,chair,0,0937_scg_s06_0_chair_00_chair8-oven1.png
subject-06,1,938,0.757604837417603,bird,bird,0,0938_scg_s06_0_bird_00_bird6-elephant2.png
subject-06,1,939,0.625655889511108,clock,clock,0,0939_scg_s06_0_clock_00_clock9-cat1.png
subject-06,1,940,0.753657817840576,bicycle,bicycle,0,0940_scg_s06_0_bicycle_00_bicycle3-truck3.png
subject-06,1,941,0.757300853729248,bird,bird,0,0941_scg_s06_0_bird_00_bird7-knife2.png
subject-06,1,942,0.87739086151123,keyboard,cat,0,0942_scg_s06_0_cat_00_cat5-keyboard3.png
subject-06,1,943,0.97268009185791,keyboard,keyboard,0,0943_scg_s06_0_keyboard_00_keyboard6-car2.png
subject-06,1,944,0.800632953643799,truck,truck,0,0944_scg_s06_0_truck_00_truck7-elephant2.png
subject-06,1,945,0.891143083572388,airplane,knife,0,0945_scg_s06_0_knife_00_knife6-airplane1.png
subject-06,1,946,1.01086902618408,bicycle,bicycle,0,0946_scg_s06_0_bicycle_00_bicycle5-car3.png
subject-06,1,947,0.844270944595337,keyboard,keyboard,0,0947_scg_s06_0_keyboard_00_keyboard8-cat3.png
subject-06,1,948,0.971514940261841,airplane,airplane,0,0948_scg_s06_0_airplane_00_airplane2-bottle1.png
subject-06,1,949,0.745954990386963,clock,clock,0,0949_scg_s06_0_clock_00_clock10-knife3.png
subject-06,1,950,0.979402780532837,truck,truck,0,0950_scg_s06_0_truck_00_truck10-truck3.png
subject-06,1,951,0.785353183746338,cat,cat,0,0951_scg_s06_0_cat_00_cat4-bird2.png
subject-06,1,952,0.772197961807251,chair,chair,0,0952_scg_s06_0_chair_00_chair8-knife2.png
subject-06,1,953,0.892052173614502,elephant,elephant,0,0953_scg_s06_0_elephant_00_elephant3-keyboard2.png
subject-06,1,954,1.058189868927,dog,dog,0,0954_scg_s06_0_dog_00_dog9-airplane3.png
subject-06,1,955,0.769488096237183,chair,chair,0,0955_scg_s06_0_chair_00_chair3-airplane2.png
subject-06,1,956,0.781306028366089,oven,oven,0,0956_scg_s06_0_oven_00_oven9-airplane2.png
subject-06,1,957,1.39112401008606,car,car,0,0957_scg_s06_0_car_00_car5-bear3.png
subject-06,1,958,0.643529891967773,cat,cat,0,0958_scg_s06_0_cat_00_cat7-elephant1.png
subject-06,1,959,0.579370975494385,clock,clock,0,0959_scg_s06_0_clock_00_clock7-dog2.png
subject-06,1,960,0.79918098449707,chair,chair,0,0960_scg_s06_0_chair_00_chair7-airplane1.png
subject-06,1,961,0.856357097625732,car,car,0,0961_scg_s06_0_car_00_car3-oven3.png
subject-06,1,962,0.822201013565063,elephant,elephant,0,0962_scg_s06_0_elephant_00_elephant1-boat2.png
subject-06,1,963,0.763769865036011,bear,bear,0,0963_scg_s06_0_bear_00_bear5-oven3.png
subject-06,1,964,0.683578014373779,bottle,bottle,0,0964_scg_s06_0_bottle_00_bottle10-dog1.png
subject-06,1,965,0.887202024459839,bird,bear,0,0965_scg_s06_0_bear_00_bear10-car2.png
subject-06,1,966,0.653688192367554,car,car,0,0966_scg_s06_0_car_00_car10-chair1.png
subject-06,1,967,0.581896066665649,oven,oven,0,0967_scg_s06_0_oven_00_oven10-boat2.png
subject-06,1,968,0.817757129669189,keyboard,keyboard,0,0968_scg_s06_0_keyboard_00_keyboard3-cat1.png
subject-06,1,969,0.6752769947052,clock,clock,0,0969_scg_s06_0_clock_00_clock9-airplane1.png
subject-06,1,970,0.719459056854248,truck,truck,0,0970_scg_s06_0_truck_00_truck10-bicycle1.png
subject-06,1,971,0.793810844421387,elephant,elephant,0,0971_scg_s06_0_elephant_00_elephant8-boat2.png
subject-06,1,972,0.781595945358276,keyboard,keyboard,0,0972_scg_s06_0_keyboard_00_keyboard8-keyboard2.png
subject-06,1,973,0.910070180892944,bottle,bottle,0,0973_scg_s06_0_bottle_00_bottle10-truck3.png
subject-06,1,974,0.992741823196411,car,car,0,0974_scg_s06_0_car_00_car7-clock1.png
subject-06,1,975,0.84230899810791,bicycle,bicycle,0,0975_scg_s06_0_bicycle_00_bicycle4-cat1.png
subject-06,1,976,0.839864015579224,cat,dog,0,0976_scg_s06_0_dog_00_dog3-truck2.png
subject-06,1,977,0.792487144470215,bicycle,bicycle,0,0977_scg_s06_0_bicycle_00_bicycle8-chair2.png
subject-06,1,978,0.658447027206421,cat,cat,0,0978_scg_s06_0_cat_00_cat1-bird1.png
subject-06,1,979,0.716187000274658,oven,bottle,0,0979_scg_s06_0_bottle_00_bottle7-truck2.png
subject-06,1,980,0.615306854248047,clock,clock,0,0980_scg_s06_0_clock_00_clock6-car2.png
subject-06,1,981,0.680817127227783,chair,chair,0,0981_scg_s06_0_chair_00_chair9-bottle3.png
subject-06,1,982,0.709152936935425,oven,oven,0,0982_scg_s06_0_oven_00_oven6-oven3.png
subject-06,1,983,1.50002503395081,car,car,0,0983_scg_s06_0_car_00_car6-elephant3.png
subject-06,1,984,0.908223152160645,elephant,elephant,0,0984_scg_s06_0_elephant_00_elephant7-airplane3.png
subject-06,1,985,0.820475101470947,bird,bird,0,0985_scg_s06_0_bird_00_bird7-car2.png
subject-06,1,986,0.780960083007812,boat,boat,0,0986_scg_s06_0_boat_00_boat1-bear1.png
subject-06,1,987,0.816684007644653,car,car,0,0987_scg_s06_0_car_00_car10-dog1.png
subject-06,1,988,0.825979948043823,bicycle,bicycle,0,0988_scg_s06_0_bicycle_00_bicycle2-bird3.png
subject-06,1,989,0.891260147094727,knife,knife,0,0989_scg_s06_0_knife_00_knife4-bear1.png
subject-06,1,990,1.22541379928589,bicycle,bicycle,0,0990_scg_s06_0_bicycle_00_bicycle10-boat3.png
subject-06,1,991,0.861176013946533,airplane,airplane,0,0991_scg_s06_0_airplane_00_airplane9-airplane2.png
subject-06,1,992,0.705426931381226,bicycle,bicycle,0,0992_scg_s06_0_bicycle_00_bicycle1-dog3.png
subject-06,1,993,0.849063873291016,knife,knife,0,0993_scg_s06_0_knife_00_knife6-bottle3.png
subject-06,1,994,0.90507698059082,airplane,airplane,0,0994_scg_s06_0_airplane_00_airplane10-truck1.png
subject-06,1,995,1.20798993110657,bear,bear,0,0995_scg_s06_0_bear_00_bear8-bottle1.png
subject-06,1,996,1.04417610168457,airplane,airplane,0,0996_scg_s06_0_airplane_00_airplane7-clock3.png
subject-06,1,997,0.993681907653809,knife,knife,0,0997_scg_s06_0_knife_00_knife10-bear3.png
subject-06,1,998,0.921526193618774,dog,dog,0,0998_scg_s06_0_dog_00_dog4-bird1.png
subject-06,1,999,0.708636999130249,chair,chair,0,0999_scg_s06_0_chair_00_chair7-cat1.png
subject-06,1,1000,0.99092698097229,dog,dog,0,1000_scg_s06_0_dog_00_dog7-keyboard3.png
subject-06,1,1001,1.07790398597717,oven,oven,0,1001_scg_s06_0_oven_00_oven3-boat3.png
subject-06,1,1002,0.938199996948242,dog,dog,0,1002_scg_s06_0_dog_00_dog6-bird1.png
subject-06,1,1003,0.880569934844971,airplane,airplane,0,1003_scg_s06_0_airplane_00_airplane3-cat1.png
subject-06,1,1004,0.978157997131348,airplane,airplane,0,1004_scg_s06_0_airplane_00_airplane10-boat3.png
subject-06,1,1005,0.781394004821777,oven,oven,0,1005_scg_s06_0_oven_00_oven9-oven1.png
subject-06,1,1006,0.909962892532349,airplane,airplane,0,1006_scg_s06_0_airplane_00_airplane10-cat2.png
subject-06,1,1007,0.991929054260254,chair,chair,0,1007_scg_s06_0_chair_00_chair8-car1.png
subject-06,1,1008,0.811735868453979,bottle,bottle,0,1008_scg_s06_0_bottle_00_bottle7-elephant2.png
subject-06,1,1009,1.00856494903564,bird,bird,0,1009_scg_s06_0_bird_00_bird1-clock3.png
subject-06,1,1010,0.843462944030762,bottle,bottle,0,1010_scg_s06_0_bottle_00_bottle3-bear2.png
subject-06,1,1011,0.909748077392578,dog,dog,0,1011_scg_s06_0_dog_00_dog1-dog2.png
subject-06,1,1012,0.632009029388428,clock,clock,0,1012_scg_s06_0_clock_00_clock5-bicycle1.png
subject-06,1,1013,1.10393214225769,bear,bear,0,1013_scg_s06_0_bear_00_bear10-bottle1.png
subject-06,1,1014,0.869765043258667,car,car,0,1014_scg_s06_0_car_00_car8-clock2.png
subject-06,1,1015,0.75171685218811,bird,bird,0,1015_scg_s06_0_bird_00_bird8-boat3.png
subject-06,1,1016,0.703500986099243,truck,truck,0,1016_scg_s06_0_truck_00_truck2-keyboard1.png
subject-06,1,1017,0.823069095611572,airplane,airplane,0,1017_scg_s06_0_airplane_00_airplane4-cat3.png
subject-06,1,1018,0.835345029830933,bird,bird,0,1018_scg_s06_0_bird_00_bird3-bear3.png
subject-06,1,1019,0.954138994216919,boat,boat,0,1019_scg_s06_0_boat_00_boat1-truck3.png
subject-06,1,1020,0.74242091178894,oven,oven,0,1020_scg_s06_0_oven_00_oven9-clock2.png
subject-06,1,1021,0.848987102508545,truck,truck,0,1021_scg_s06_0_truck_00_truck5-airplane2.png
subject-06,1,1022,0.966161966323853,truck,truck,0,1022_scg_s06_0_truck_00_truck9-bottle2.png
subject-06,1,1023,0.948016881942749,truck,truck,0,1023_scg_s06_0_truck_00_truck2-boat3.png
subject-06,1,1024,0.963027954101562,keyboard,keyboard,0,1024_scg_s06_0_keyboard_00_keyboard7-bear2.png
subject-06,1,1025,0.813482046127319,cat,cat,0,1025_scg_s06_0_cat_00_cat6-oven1.png
subject-06,1,1026,1.00965809822083,truck,truck,0,1026_scg_s06_0_truck_00_truck3-bird2.png
subject-06,1,1027,0.708063125610352,bottle,bottle,0,1027_scg_s06_0_bottle_00_bottle5-clock3.png
subject-06,1,1028,0.844089984893799,bottle,bottle,0,1028_scg_s06_0_bottle_00_bottle3-airplane2.png
subject-06,1,1029,0.742095947265625,airplane,airplane,0,1029_scg_s06_0_airplane_00_airplane5-bear2.png
subject-06,1,1030,0.937986135482788,elephant,elephant,0,1030_scg_s06_0_elephant_00_elephant2-airplane3.png
subject-06,1,1031,0.819522857666016,knife,knife,0,1031_scg_s06_0_knife_00_knife10-dog1.png
subject-06,1,1032,0.762099981307983,bird,bird,0,1032_scg_s06_0_bird_00_bird5-oven3.png
subject-06,1,1033,0.781514167785645,car,car,0,1033_scg_s06_0_car_00_car9-keyboard2.png
subject-06,1,1034,0.892798900604248,bird,bird,0,1034_scg_s06_0_bird_00_bird7-truck2.png
subject-06,1,1035,0.790440082550049,truck,truck,0,1035_scg_s06_0_truck_00_truck3-knife2.png
subject-06,1,1036,0.794092178344727,cat,dog,0,1036_scg_s06_0_dog_00_dog3-dog1.png
subject-06,1,1037,0.760263919830322,airplane,airplane,0,1037_scg_s06_0_airplane_00_airplane8-elephant3.png
subject-06,1,1038,0.756319999694824,bottle,bottle,0,1038_scg_s06_0_bottle_00_bottle7-boat3.png
subject-06,1,1039,0.783692836761475,elephant,elephant,0,1039_scg_s06_0_elephant_00_elephant8-bicycle3.png
subject-06,1,1040,1.25776696205139,bicycle,bicycle,0,1040_scg_s06_0_bicycle_00_bicycle4-knife3.png
subject-06,1,1041,0.948001861572266,bicycle,bicycle,0,1041_scg_s06_0_bicycle_00_bicycle1-knife3.png
subject-06,1,1042,0.997724771499634,truck,truck,0,1042_scg_s06_0_truck_00_truck4-knife1.png
subject-06,1,1043,0.8020179271698,boat,boat,0,1043_scg_s06_0_boat_00_boat3-dog3.png
subject-06,1,1044,0.862334012985229,keyboard,keyboard,0,1044_scg_s06_0_keyboard_00_keyboard1-dog3.png
subject-06,1,1045,0.787565946578979,keyboard,keyboard,0,1045_scg_s06_0_keyboard_00_keyboard2-bicycle3.png
subject-06,1,1046,1.01039910316467,truck,truck,0,1046_scg_s06_0_truck_00_truck5-car1.png
subject-06,1,1047,0.752296209335327,bottle,bottle,0,1047_scg_s06_0_bottle_00_bottle6-bear2.png
subject-06,1,1048,0.717543840408325,cat,cat,0,1048_scg_s06_0_cat_00_cat3-bicycle1.png
subject-06,1,1049,0.691662788391113,car,car,0,1049_scg_s06_0_car_00_car5-truck3.png
subject-06,1,1050,0.75750994682312,airplane,airplane,0,1050_scg_s06_0_airplane_00_airplane4-dog2.png
subject-06,1,1051,0.72298002243042,car,car,0,1051_scg_s06_0_car_00_car1-car2.png
subject-06,1,1052,0.909616947174072,bicycle,bicycle,0,1052_scg_s06_0_bicycle_00_bicycle2-keyboard2.png
subject-06,1,1053,0.792304039001465,bird,bird,0,1053_scg_s06_0_bird_00_bird3-cat1.png
subject-06,1,1054,1.04982686042786,car,car,0,1054_scg_s06_0_car_00_car8-boat3.png
subject-06,1,1055,0.914901971817017,bottle,bottle,0,1055_scg_s06_0_bottle_00_bottle8-elephant3.png
subject-06,1,1056,0.897124052047729,bottle,bottle,0,1056_scg_s06_0_bottle_00_bottle8-knife1.png
subject-06,1,1057,0.670525074005127,oven,oven,0,1057_scg_s06_0_oven_00_oven6-bear2.png
subject-06,1,1058,0.728207111358643,chair,oven,0,1058_scg_s06_0_oven_00_oven7-cat1.png
subject-06,1,1059,0.941121816635132,airplane,airplane,0,1059_scg_s06_0_airplane_00_airplane7-cat3.png
subject-06,1,1060,0.805915117263794,bird,bird,0,1060_scg_s06_0_bird_00_bird5-cat2.png
subject-06,1,1061,0.730924129486084,airplane,airplane,0,1061_scg_s06_0_airplane_00_airplane6-bear3.png
subject-06,1,1062,0.873410940170288,oven,airplane,0,1062_scg_s06_0_airplane_00_airplane3-keyboard2.png
subject-06,1,1063,0.895635843276978,oven,knife,0,1063_scg_s06_0_knife_00_knife7-bird3.png
subject-06,1,1064,0.837315082550049,car,car,0,1064_scg_s06_0_car_00_car8-cat1.png
subject-06,1,1065,1.04201507568359,truck,truck,0,1065_scg_s06_0_truck_00_truck5-cat3.png
subject-06,1,1066,0.640011072158813,oven,oven,0,1066_scg_s06_0_oven_00_oven8-knife2.png
subject-06,1,1067,1.07402682304382,bear,bear,0,1067_scg_s06_0_bear_00_bear2-bird3.png
subject-06,1,1068,0.909043073654175,bicycle,bicycle,0,1068_scg_s06_0_bicycle_00_bicycle1-boat3.png
subject-06,1,1069,0.804742097854614,chair,chair,0,1069_scg_s06_0_chair_00_chair6-elephant2.png
subject-06,1,1070,0.716980218887329,clock,clock,0,1070_scg_s06_0_clock_00_clock8-knife1.png
subject-06,1,1071,0.95878005027771,chair,chair,0,1071_scg_s06_0_chair_00_chair8-bicycle3.png
subject-06,1,1072,1.17942500114441,car,car,0,1072_scg_s06_0_car_00_car9-bird1.png
subject-06,1,1073,0.682171106338501,oven,oven,0,1073_scg_s06_0_oven_00_oven2-chair1.png
subject-06,1,1074,0.717862129211426,cat,cat,0,1074_scg_s06_0_cat_00_cat2-cat1.png
subject-06,1,1075,0.81850790977478,oven,oven,0,1075_scg_s06_0_oven_00_oven9-keyboard1.png
subject-06,1,1076,0.81775689125061,clock,clock,0,1076_scg_s06_0_clock_00_clock4-airplane1.png
subject-06,1,1077,0.745516061782837,chair,chair,0,1077_scg_s06_0_chair_00_chair4-chair3.png
subject-06,1,1078,0.711287975311279,boat,boat,0,1078_scg_s06_0_boat_00_boat5-airplane1.png
subject-06,1,1079,0.761111974716187,cat,cat,0,1079_scg_s06_0_cat_00_cat4-chair2.png
subject-06,1,1080,1.3563768863678,car,car,0,1080_scg_s06_0_car_00_car4-car2.png
subject-06,1,1081,1.07604289054871,dog,dog,0,1081_scg_s06_0_dog_00_dog9-bear3.png
subject-06,1,1082,1.29313921928406,bear,bear,0,1082_scg_s06_0_bear_00_bear10-clock1.png
subject-06,1,1083,0.742370128631592,keyboard,keyboard,0,1083_scg_s06_0_keyboard_00_keyboard9-airplane3.png
subject-06,1,1084,0.901129007339478,chair,chair,0,1084_scg_s06_0_chair_00_chair10-bottle3.png
subject-06,1,1085,0.874680042266846,elephant,elephant,0,1085_scg_s06_0_elephant_00_elephant5-truck1.png
subject-06,1,1086,0.68129301071167,clock,clock,0,1086_scg_s06_0_clock_00_clock7-bicycle1.png
subject-06,1,1087,0.944817066192627,chair,oven,0,1087_scg_s06_0_oven_00_oven7-elephant1.png
subject-06,1,1088,0.92717981338501,keyboard,keyboard,0,1088_scg_s06_0_keyboard_00_keyboard9-truck3.png
subject-06,1,1089,0.695789098739624,boat,boat,0,1089_scg_s06_0_boat_00_boat5-bicycle3.png
subject-06,1,1090,0.907415866851807,dog,dog,0,1090_scg_s06_0_dog_00_dog9-bicycle3.png
subject-06,1,1091,1.05763101577759,bear,bear,0,1091_scg_s06_0_bear_00_bear4-knife1.png
subject-06,1,1092,0.747390985488892,oven,oven,0,1092_scg_s06_0_oven_00_oven2-bear3.png
subject-06,1,1093,1.11146092414856,truck,truck,0,1093_scg_s06_0_truck_00_truck2-bird2.png
subject-06,1,1094,0.809130907058716,clock,clock,0,1094_scg_s06_0_clock_00_clock10-boat2.png
