subj,session,trial,rt,object_response,category,condition,imagename
alexnet,1,1,NaN,bicycle,airplane,0,0001_scg_dnn_0_airplane_00_airplane1-bicycle2.png
alexnet,1,2,NaN,boat,airplane,0,0002_scg_dnn_0_airplane_00_airplane1-chair2.png
alexnet,1,3,NaN,dog,airplane,0,0003_scg_dnn_0_airplane_00_airplane1-clock1.png
alexnet,1,4,NaN,chair,airplane,0,0004_scg_dnn_0_airplane_00_airplane1-elephant1.png
alexnet,1,5,NaN,airplane,airplane,0,0005_scg_dnn_0_airplane_00_airplane10-airplane1.png
alexnet,1,6,NaN,bear,airplane,0,0006_scg_dnn_0_airplane_00_airplane10-bear3.png
alexnet,1,7,NaN,truck,airplane,0,0007_scg_dnn_0_airplane_00_airplane10-boat3.png
alexnet,1,8,NaN,car,airplane,0,0008_scg_dnn_0_airplane_00_airplane10-car3.png
alexnet,1,9,NaN,dog,airplane,0,0009_scg_dnn_0_airplane_00_airplane10-cat2.png
alexnet,1,10,NaN,dog,airplane,0,0010_scg_dnn_0_airplane_00_airplane10-dog3.png
alexnet,1,11,NaN,dog,airplane,0,0011_scg_dnn_0_airplane_00_airplane10-elephant1.png
alexnet,1,12,NaN,knife,airplane,0,0012_scg_dnn_0_airplane_00_airplane10-knife3.png
alexnet,1,13,NaN,oven,airplane,0,0013_scg_dnn_0_airplane_00_airplane10-oven2.png
alexnet,1,14,NaN,car,airplane,0,0014_scg_dnn_0_airplane_00_airplane10-truck1.png
alexnet,1,15,NaN,bear,airplane,0,0015_scg_dnn_0_airplane_00_airplane2-bear1.png
alexnet,1,16,NaN,bicycle,airplane,0,0016_scg_dnn_0_airplane_00_airplane2-bicycle1.png
alexnet,1,17,NaN,knife,airplane,0,0017_scg_dnn_0_airplane_00_airplane2-bird3.png
alexnet,1,18,NaN,bottle,airplane,0,0018_scg_dnn_0_airplane_00_airplane2-bottle1.png
alexnet,1,19,NaN,cat,airplane,0,0019_scg_dnn_0_airplane_00_airplane2-cat1.png
alexnet,1,20,NaN,dog,airplane,0,0020_scg_dnn_0_airplane_00_airplane2-dog1.png
alexnet,1,21,NaN,chair,airplane,0,0021_scg_dnn_0_airplane_00_airplane3-airplane2.png
alexnet,1,22,NaN,bottle,airplane,0,0022_scg_dnn_0_airplane_00_airplane3-car1.png
alexnet,1,23,NaN,dog,airplane,0,0023_scg_dnn_0_airplane_00_airplane3-cat1.png
alexnet,1,24,NaN,truck,airplane,0,0024_scg_dnn_0_airplane_00_airplane3-chair3.png
alexnet,1,25,NaN,bicycle,airplane,0,0025_scg_dnn_0_airplane_00_airplane3-clock1.png
alexnet,1,26,NaN,dog,airplane,0,0026_scg_dnn_0_airplane_00_airplane3-dog1.png
alexnet,1,27,NaN,bird,airplane,0,0027_scg_dnn_0_airplane_00_airplane3-elephant1.png
alexnet,1,28,NaN,keyboard,airplane,0,0028_scg_dnn_0_airplane_00_airplane3-keyboard2.png
alexnet,1,29,NaN,airplane,airplane,0,0029_scg_dnn_0_airplane_00_airplane3-oven1.png
alexnet,1,30,NaN,airplane,airplane,0,0030_scg_dnn_0_airplane_00_airplane4-airplane1.png
alexnet,1,31,NaN,dog,airplane,0,0031_scg_dnn_0_airplane_00_airplane4-bear3.png
alexnet,1,32,NaN,bird,airplane,0,0032_scg_dnn_0_airplane_00_airplane4-bicycle2.png
alexnet,1,33,NaN,knife,airplane,0,0033_scg_dnn_0_airplane_00_airplane4-bird3.png
alexnet,1,34,NaN,truck,airplane,0,0034_scg_dnn_0_airplane_00_airplane4-boat3.png
alexnet,1,35,NaN,bottle,airplane,0,0035_scg_dnn_0_airplane_00_airplane4-bottle1.png
alexnet,1,36,NaN,knife,airplane,0,0036_scg_dnn_0_airplane_00_airplane4-car1.png
alexnet,1,37,NaN,bird,airplane,0,0037_scg_dnn_0_airplane_00_airplane4-cat3.png
alexnet,1,38,NaN,cat,airplane,0,0038_scg_dnn_0_airplane_00_airplane4-dog2.png
alexnet,1,39,NaN,elephant,airplane,0,0039_scg_dnn_0_airplane_00_airplane4-elephant1.png
alexnet,1,40,NaN,airplane,airplane,0,0040_scg_dnn_0_airplane_00_airplane4-keyboard3.png
alexnet,1,41,NaN,chair,airplane,0,0041_scg_dnn_0_airplane_00_airplane4-knife1.png
alexnet,1,42,NaN,chair,airplane,0,0042_scg_dnn_0_airplane_00_airplane4-truck2.png
alexnet,1,43,NaN,bear,airplane,0,0043_scg_dnn_0_airplane_00_airplane5-bear2.png
alexnet,1,44,NaN,bicycle,airplane,0,0044_scg_dnn_0_airplane_00_airplane5-bicycle1.png
alexnet,1,45,NaN,bird,airplane,0,0045_scg_dnn_0_airplane_00_airplane5-bird2.png
alexnet,1,46,NaN,truck,airplane,0,0046_scg_dnn_0_airplane_00_airplane5-boat3.png
alexnet,1,47,NaN,bottle,airplane,0,0047_scg_dnn_0_airplane_00_airplane5-bottle3.png
alexnet,1,48,NaN,airplane,airplane,0,0048_scg_dnn_0_airplane_00_airplane5-chair3.png
alexnet,1,49,NaN,dog,airplane,0,0049_scg_dnn_0_airplane_00_airplane5-dog3.png
alexnet,1,50,NaN,knife,airplane,0,0050_scg_dnn_0_airplane_00_airplane5-knife1.png
alexnet,1,51,NaN,bird,airplane,0,0051_scg_dnn_0_airplane_00_airplane5-oven3.png
alexnet,1,52,NaN,bear,airplane,0,0052_scg_dnn_0_airplane_00_airplane6-bear3.png
alexnet,1,53,NaN,bicycle,airplane,0,0053_scg_dnn_0_airplane_00_airplane6-bottle2.png
alexnet,1,54,NaN,airplane,airplane,0,0054_scg_dnn_0_airplane_00_airplane6-chair3.png
alexnet,1,55,NaN,knife,airplane,0,0055_scg_dnn_0_airplane_00_airplane6-keyboard3.png
alexnet,1,56,NaN,knife,airplane,0,0056_scg_dnn_0_airplane_00_airplane6-knife1.png
alexnet,1,57,NaN,airplane,airplane,0,0057_scg_dnn_0_airplane_00_airplane7-airplane3.png
alexnet,1,58,NaN,knife,airplane,0,0058_scg_dnn_0_airplane_00_airplane7-bird3.png
alexnet,1,59,NaN,truck,airplane,0,0059_scg_dnn_0_airplane_00_airplane7-boat2.png
alexnet,1,60,NaN,bottle,airplane,0,0060_scg_dnn_0_airplane_00_airplane7-bottle3.png
alexnet,1,61,NaN,bottle,airplane,0,0061_scg_dnn_0_airplane_00_airplane7-car1.png
alexnet,1,62,NaN,cat,airplane,0,0062_scg_dnn_0_airplane_00_airplane7-cat3.png
alexnet,1,63,NaN,dog,airplane,0,0063_scg_dnn_0_airplane_00_airplane7-clock3.png
alexnet,1,64,NaN,airplane,airplane,0,0064_scg_dnn_0_airplane_00_airplane7-keyboard1.png
alexnet,1,65,NaN,knife,airplane,0,0065_scg_dnn_0_airplane_00_airplane7-truck1.png
alexnet,1,66,NaN,bird,airplane,0,0066_scg_dnn_0_airplane_00_airplane8-bicycle3.png
alexnet,1,67,NaN,truck,airplane,0,0067_scg_dnn_0_airplane_00_airplane8-bird1.png
alexnet,1,68,NaN,chair,airplane,0,0068_scg_dnn_0_airplane_00_airplane8-chair1.png
alexnet,1,69,NaN,bottle,airplane,0,0069_scg_dnn_0_airplane_00_airplane8-clock2.png
alexnet,1,70,NaN,dog,airplane,0,0070_scg_dnn_0_airplane_00_airplane8-elephant3.png
alexnet,1,71,NaN,truck,airplane,0,0071_scg_dnn_0_airplane_00_airplane8-oven2.png
alexnet,1,72,NaN,chair,airplane,0,0072_scg_dnn_0_airplane_00_airplane8-truck3.png
alexnet,1,73,NaN,airplane,airplane,0,0073_scg_dnn_0_airplane_00_airplane9-airplane2.png
alexnet,1,74,NaN,chair,airplane,0,0074_scg_dnn_0_airplane_00_airplane9-boat1.png
alexnet,1,75,NaN,bicycle,airplane,0,0075_scg_dnn_0_airplane_00_airplane9-car2.png
alexnet,1,76,NaN,clock,airplane,0,0076_scg_dnn_0_airplane_00_airplane9-clock1.png
alexnet,1,77,NaN,knife,airplane,0,0077_scg_dnn_0_airplane_00_airplane9-keyboard2.png
alexnet,1,78,NaN,knife,airplane,0,0078_scg_dnn_0_airplane_00_airplane9-knife3.png
alexnet,1,79,NaN,truck,airplane,0,0079_scg_dnn_0_airplane_00_airplane9-oven2.png
alexnet,1,80,NaN,chair,airplane,0,0080_scg_dnn_0_airplane_00_airplane9-truck1.png
alexnet,1,81,NaN,bird,bear,0,0081_scg_dnn_0_bear_00_bear1-airplane3.png
alexnet,1,82,NaN,bear,bear,0,0082_scg_dnn_0_bear_00_bear1-bear3.png
alexnet,1,83,NaN,bird,bear,0,0083_scg_dnn_0_bear_00_bear1-bicycle3.png
alexnet,1,84,NaN,dog,bear,0,0084_scg_dnn_0_bear_00_bear1-bird2.png
alexnet,1,85,NaN,chair,bear,0,0085_scg_dnn_0_bear_00_bear1-chair2.png
alexnet,1,86,NaN,bottle,bear,0,0086_scg_dnn_0_bear_00_bear1-clock2.png
alexnet,1,87,NaN,elephant,bear,0,0087_scg_dnn_0_bear_00_bear1-elephant1.png
alexnet,1,88,NaN,bear,bear,0,0088_scg_dnn_0_bear_00_bear10-bear2.png
alexnet,1,89,NaN,bottle,bear,0,0089_scg_dnn_0_bear_00_bear10-bottle1.png
alexnet,1,90,NaN,bicycle,bear,0,0090_scg_dnn_0_bear_00_bear10-car2.png
alexnet,1,91,NaN,cat,bear,0,0091_scg_dnn_0_bear_00_bear10-cat2.png
alexnet,1,92,NaN,chair,bear,0,0092_scg_dnn_0_bear_00_bear10-chair2.png
alexnet,1,93,NaN,dog,bear,0,0093_scg_dnn_0_bear_00_bear10-clock1.png
alexnet,1,94,NaN,elephant,bear,0,0094_scg_dnn_0_bear_00_bear10-elephant1.png
alexnet,1,95,NaN,keyboard,bear,0,0095_scg_dnn_0_bear_00_bear10-keyboard3.png
alexnet,1,96,NaN,bird,bear,0,0096_scg_dnn_0_bear_00_bear10-knife2.png
alexnet,1,97,NaN,knife,bear,0,0097_scg_dnn_0_bear_00_bear10-oven1.png
alexnet,1,98,NaN,car,bear,0,0098_scg_dnn_0_bear_00_bear10-truck1.png
alexnet,1,99,NaN,bird,bear,0,0099_scg_dnn_0_bear_00_bear2-airplane1.png
alexnet,1,100,NaN,dog,bear,0,0100_scg_dnn_0_bear_00_bear2-bird3.png
alexnet,1,101,NaN,bicycle,bear,0,0101_scg_dnn_0_bear_00_bear2-car2.png
alexnet,1,102,NaN,dog,bear,0,0102_scg_dnn_0_bear_00_bear2-cat2.png
alexnet,1,103,NaN,dog,bear,0,0103_scg_dnn_0_bear_00_bear2-dog1.png
alexnet,1,104,NaN,dog,bear,0,0104_scg_dnn_0_bear_00_bear2-elephant1.png
alexnet,1,105,NaN,keyboard,bear,0,0105_scg_dnn_0_bear_00_bear2-keyboard2.png
alexnet,1,106,NaN,boat,bear,0,0106_scg_dnn_0_bear_00_bear2-knife2.png
alexnet,1,107,NaN,chair,bear,0,0107_scg_dnn_0_bear_00_bear2-oven1.png
alexnet,1,108,NaN,truck,bear,0,0108_scg_dnn_0_bear_00_bear3-airplane1.png
alexnet,1,109,NaN,bird,bear,0,0109_scg_dnn_0_bear_00_bear3-bicycle2.png
alexnet,1,110,NaN,dog,bear,0,0110_scg_dnn_0_bear_00_bear3-bird3.png
alexnet,1,111,NaN,bicycle,bear,0,0111_scg_dnn_0_bear_00_bear3-car2.png
alexnet,1,112,NaN,dog,bear,0,0112_scg_dnn_0_bear_00_bear3-cat1.png
alexnet,1,113,NaN,chair,bear,0,0113_scg_dnn_0_bear_00_bear3-chair2.png
alexnet,1,114,NaN,dog,bear,0,0114_scg_dnn_0_bear_00_bear3-dog3.png
alexnet,1,115,NaN,keyboard,bear,0,0115_scg_dnn_0_bear_00_bear3-keyboard2.png
alexnet,1,116,NaN,bottle,bear,0,0116_scg_dnn_0_bear_00_bear3-truck3.png
alexnet,1,117,NaN,boat,bear,0,0117_scg_dnn_0_bear_00_bear4-boat2.png
alexnet,1,118,NaN,bird,bear,0,0118_scg_dnn_0_bear_00_bear4-car3.png
alexnet,1,119,NaN,dog,bear,0,0119_scg_dnn_0_bear_00_bear4-cat3.png
alexnet,1,120,NaN,cat,bear,0,0120_scg_dnn_0_bear_00_bear4-clock3.png
alexnet,1,121,NaN,elephant,bear,0,0121_scg_dnn_0_bear_00_bear4-elephant2.png
alexnet,1,122,NaN,knife,bear,0,0122_scg_dnn_0_bear_00_bear4-keyboard3.png
alexnet,1,123,NaN,knife,bear,0,0123_scg_dnn_0_bear_00_bear4-knife1.png
alexnet,1,124,NaN,chair,bear,0,0124_scg_dnn_0_bear_00_bear4-oven2.png
alexnet,1,125,NaN,dog,bear,0,0125_scg_dnn_0_bear_00_bear4-truck3.png
alexnet,1,126,NaN,bear,bear,0,0126_scg_dnn_0_bear_00_bear5-airplane3.png
alexnet,1,127,NaN,bird,bear,0,0127_scg_dnn_0_bear_00_bear5-bicycle3.png
alexnet,1,128,NaN,bottle,bear,0,0128_scg_dnn_0_bear_00_bear5-bird1.png
alexnet,1,129,NaN,boat,bear,0,0129_scg_dnn_0_bear_00_bear5-boat2.png
alexnet,1,130,NaN,clock,bear,0,0130_scg_dnn_0_bear_00_bear5-bottle1.png
alexnet,1,131,NaN,clock,bear,0,0131_scg_dnn_0_bear_00_bear5-chair1.png
alexnet,1,132,NaN,elephant,bear,0,0132_scg_dnn_0_bear_00_bear5-oven3.png
alexnet,1,133,NaN,bear,bear,0,0133_scg_dnn_0_bear_00_bear6-bear1.png
alexnet,1,134,NaN,dog,bear,0,0134_scg_dnn_0_bear_00_bear6-bird2.png
alexnet,1,135,NaN,bottle,bear,0,0135_scg_dnn_0_bear_00_bear6-boat3.png
alexnet,1,136,NaN,bottle,bear,0,0136_scg_dnn_0_bear_00_bear6-bottle3.png
alexnet,1,137,NaN,bicycle,bear,0,0137_scg_dnn_0_bear_00_bear6-car2.png
alexnet,1,138,NaN,bird,bear,0,0138_scg_dnn_0_bear_00_bear6-cat3.png
alexnet,1,139,NaN,chair,bear,0,0139_scg_dnn_0_bear_00_bear6-chair1.png
alexnet,1,140,NaN,bottle,bear,0,0140_scg_dnn_0_bear_00_bear6-clock1.png
alexnet,1,141,NaN,bear,bear,0,0141_scg_dnn_0_bear_00_bear7-bear2.png
alexnet,1,142,NaN,bird,bear,0,0142_scg_dnn_0_bear_00_bear7-bicycle2.png
alexnet,1,143,NaN,clock,bear,0,0143_scg_dnn_0_bear_00_bear7-clock1.png
alexnet,1,144,NaN,dog,bear,0,0144_scg_dnn_0_bear_00_bear7-dog3.png
alexnet,1,145,NaN,truck,bear,0,0145_scg_dnn_0_bear_00_bear7-oven3.png
alexnet,1,146,NaN,chair,bear,0,0146_scg_dnn_0_bear_00_bear7-truck1.png
alexnet,1,147,NaN,elephant,bear,0,0147_scg_dnn_0_bear_00_bear8-airplane1.png
alexnet,1,148,NaN,bear,bear,0,0148_scg_dnn_0_bear_00_bear8-bear1.png
alexnet,1,149,NaN,bird,bear,0,0149_scg_dnn_0_bear_00_bear8-bicycle3.png
alexnet,1,150,NaN,boat,bear,0,0150_scg_dnn_0_bear_00_bear8-boat2.png
alexnet,1,151,NaN,clock,bear,0,0151_scg_dnn_0_bear_00_bear8-bottle1.png
alexnet,1,152,NaN,dog,bear,0,0152_scg_dnn_0_bear_00_bear8-dog1.png
alexnet,1,153,NaN,elephant,bear,0,0153_scg_dnn_0_bear_00_bear8-elephant2.png
alexnet,1,154,NaN,dog,bear,0,0154_scg_dnn_0_bear_00_bear8-knife3.png
alexnet,1,155,NaN,truck,bear,0,0155_scg_dnn_0_bear_00_bear8-truck3.png
alexnet,1,156,NaN,boat,bear,0,0156_scg_dnn_0_bear_00_bear9-boat2.png
alexnet,1,157,NaN,bicycle,bear,0,0157_scg_dnn_0_bear_00_bear9-bottle2.png
alexnet,1,158,NaN,dog,bear,0,0158_scg_dnn_0_bear_00_bear9-dog1.png
alexnet,1,159,NaN,keyboard,bear,0,0159_scg_dnn_0_bear_00_bear9-keyboard3.png
alexnet,1,160,NaN,oven,bear,0,0160_scg_dnn_0_bear_00_bear9-knife2.png
alexnet,1,161,NaN,bicycle,bicycle,0,0161_scg_dnn_0_bicycle_00_bicycle1-airplane2.png
alexnet,1,162,NaN,bear,bicycle,0,0162_scg_dnn_0_bicycle_00_bicycle1-bear1.png
alexnet,1,163,NaN,bicycle,bicycle,0,0163_scg_dnn_0_bicycle_00_bicycle1-bicycle3.png
alexnet,1,164,NaN,bird,bicycle,0,0164_scg_dnn_0_bicycle_00_bicycle1-bird1.png
alexnet,1,165,NaN,bicycle,bicycle,0,0165_scg_dnn_0_bicycle_00_bicycle1-boat3.png
alexnet,1,166,NaN,bicycle,bicycle,0,0166_scg_dnn_0_bicycle_00_bicycle1-bottle3.png
alexnet,1,167,NaN,bicycle,bicycle,0,0167_scg_dnn_0_bicycle_00_bicycle1-chair1.png
alexnet,1,168,NaN,clock,bicycle,0,0168_scg_dnn_0_bicycle_00_bicycle1-clock3.png
alexnet,1,169,NaN,dog,bicycle,0,0169_scg_dnn_0_bicycle_00_bicycle1-dog3.png
alexnet,1,170,NaN,elephant,bicycle,0,0170_scg_dnn_0_bicycle_00_bicycle1-elephant2.png
alexnet,1,171,NaN,knife,bicycle,0,0171_scg_dnn_0_bicycle_00_bicycle1-knife3.png
alexnet,1,172,NaN,chair,bicycle,0,0172_scg_dnn_0_bicycle_00_bicycle1-oven1.png
alexnet,1,173,NaN,bicycle,bicycle,0,0173_scg_dnn_0_bicycle_00_bicycle1-truck1.png
alexnet,1,174,NaN,bicycle,bicycle,0,0174_scg_dnn_0_bicycle_00_bicycle10-airplane2.png
alexnet,1,175,NaN,bicycle,bicycle,0,0175_scg_dnn_0_bicycle_00_bicycle10-boat3.png
alexnet,1,176,NaN,bicycle,bicycle,0,0176_scg_dnn_0_bicycle_00_bicycle10-clock2.png
alexnet,1,177,NaN,dog,bicycle,0,0177_scg_dnn_0_bicycle_00_bicycle10-dog3.png
alexnet,1,178,NaN,elephant,bicycle,0,0178_scg_dnn_0_bicycle_00_bicycle10-elephant2.png
alexnet,1,179,NaN,bicycle,bicycle,0,0179_scg_dnn_0_bicycle_00_bicycle2-bicycle1.png
alexnet,1,180,NaN,knife,bicycle,0,0180_scg_dnn_0_bicycle_00_bicycle2-bird3.png
alexnet,1,181,NaN,clock,bicycle,0,0181_scg_dnn_0_bicycle_00_bicycle2-bottle1.png
alexnet,1,182,NaN,bicycle,bicycle,0,0182_scg_dnn_0_bicycle_00_bicycle2-car2.png
alexnet,1,183,NaN,dog,bicycle,0,0183_scg_dnn_0_bicycle_00_bicycle2-dog1.png
alexnet,1,184,NaN,keyboard,bicycle,0,0184_scg_dnn_0_bicycle_00_bicycle2-keyboard2.png
alexnet,1,185,NaN,knife,bicycle,0,0185_scg_dnn_0_bicycle_00_bicycle2-knife2.png
alexnet,1,186,NaN,bird,bicycle,0,0186_scg_dnn_0_bicycle_00_bicycle3-bird1.png
alexnet,1,187,NaN,elephant,bicycle,0,0187_scg_dnn_0_bicycle_00_bicycle3-elephant2.png
alexnet,1,188,NaN,bicycle,bicycle,0,0188_scg_dnn_0_bicycle_00_bicycle3-keyboard1.png
alexnet,1,189,NaN,bottle,bicycle,0,0189_scg_dnn_0_bicycle_00_bicycle3-oven3.png
alexnet,1,190,NaN,bottle,bicycle,0,0190_scg_dnn_0_bicycle_00_bicycle3-truck3.png
alexnet,1,191,NaN,bicycle,bicycle,0,0191_scg_dnn_0_bicycle_00_bicycle4-airplane1.png
alexnet,1,192,NaN,bicycle,bicycle,0,0192_scg_dnn_0_bicycle_00_bicycle4-bicycle3.png
alexnet,1,193,NaN,bicycle,bicycle,0,0193_scg_dnn_0_bicycle_00_bicycle4-boat1.png
alexnet,1,194,NaN,bicycle,bicycle,0,0194_scg_dnn_0_bicycle_00_bicycle4-bottle1.png
alexnet,1,195,NaN,bicycle,bicycle,0,0195_scg_dnn_0_bicycle_00_bicycle4-car2.png
alexnet,1,196,NaN,dog,bicycle,0,0196_scg_dnn_0_bicycle_00_bicycle4-cat1.png
alexnet,1,197,NaN,chair,bicycle,0,0197_scg_dnn_0_bicycle_00_bicycle4-chair2.png
alexnet,1,198,NaN,bicycle,bicycle,0,0198_scg_dnn_0_bicycle_00_bicycle4-clock3.png
alexnet,1,199,NaN,keyboard,bicycle,0,0199_scg_dnn_0_bicycle_00_bicycle4-keyboard3.png
alexnet,1,200,NaN,dog,bicycle,0,0200_scg_dnn_0_bicycle_00_bicycle4-knife3.png
alexnet,1,201,NaN,truck,bicycle,0,0201_scg_dnn_0_bicycle_00_bicycle4-oven3.png
alexnet,1,202,NaN,chair,bicycle,0,0202_scg_dnn_0_bicycle_00_bicycle4-truck3.png
alexnet,1,203,NaN,bird,bicycle,0,0203_scg_dnn_0_bicycle_00_bicycle5-bear1.png
alexnet,1,204,NaN,bicycle,bicycle,0,0204_scg_dnn_0_bicycle_00_bicycle5-bottle3.png
alexnet,1,205,NaN,bicycle,bicycle,0,0205_scg_dnn_0_bicycle_00_bicycle5-car3.png
alexnet,1,206,NaN,dog,bicycle,0,0206_scg_dnn_0_bicycle_00_bicycle5-cat1.png
alexnet,1,207,NaN,boat,bicycle,0,0207_scg_dnn_0_bicycle_00_bicycle5-chair2.png
alexnet,1,208,NaN,dog,bicycle,0,0208_scg_dnn_0_bicycle_00_bicycle5-dog2.png
alexnet,1,209,NaN,bicycle,bicycle,0,0209_scg_dnn_0_bicycle_00_bicycle5-elephant1.png
alexnet,1,210,NaN,knife,bicycle,0,0210_scg_dnn_0_bicycle_00_bicycle5-keyboard3.png
alexnet,1,211,NaN,chair,bicycle,0,0211_scg_dnn_0_bicycle_00_bicycle5-oven3.png
alexnet,1,212,NaN,bicycle,bicycle,0,0212_scg_dnn_0_bicycle_00_bicycle6-airplane2.png
alexnet,1,213,NaN,bicycle,bicycle,0,0213_scg_dnn_0_bicycle_00_bicycle6-bicycle3.png
alexnet,1,214,NaN,bicycle,bicycle,0,0214_scg_dnn_0_bicycle_00_bicycle6-boat2.png
alexnet,1,215,NaN,bicycle,bicycle,0,0215_scg_dnn_0_bicycle_00_bicycle6-car2.png
alexnet,1,216,NaN,dog,bicycle,0,0216_scg_dnn_0_bicycle_00_bicycle6-cat1.png
alexnet,1,217,NaN,cat,bicycle,0,0217_scg_dnn_0_bicycle_00_bicycle6-dog2.png
alexnet,1,218,NaN,dog,bicycle,0,0218_scg_dnn_0_bicycle_00_bicycle7-bear2.png
alexnet,1,219,NaN,bicycle,bicycle,0,0219_scg_dnn_0_bicycle_00_bicycle7-bicycle2.png
alexnet,1,220,NaN,dog,bicycle,0,0220_scg_dnn_0_bicycle_00_bicycle7-cat1.png
alexnet,1,221,NaN,bicycle,bicycle,0,0221_scg_dnn_0_bicycle_00_bicycle7-clock3.png
alexnet,1,222,NaN,elephant,bicycle,0,0222_scg_dnn_0_bicycle_00_bicycle7-elephant2.png
alexnet,1,223,NaN,bicycle,bicycle,0,0223_scg_dnn_0_bicycle_00_bicycle7-knife2.png
alexnet,1,224,NaN,bottle,bicycle,0,0224_scg_dnn_0_bicycle_00_bicycle7-oven1.png
alexnet,1,225,NaN,bottle,bicycle,0,0225_scg_dnn_0_bicycle_00_bicycle7-truck3.png
alexnet,1,226,NaN,dog,bicycle,0,0226_scg_dnn_0_bicycle_00_bicycle8-bear2.png
alexnet,1,227,NaN,bicycle,bicycle,0,0227_scg_dnn_0_bicycle_00_bicycle8-bird2.png
alexnet,1,228,NaN,bicycle,bicycle,0,0228_scg_dnn_0_bicycle_00_bicycle8-boat1.png
alexnet,1,229,NaN,chair,bicycle,0,0229_scg_dnn_0_bicycle_00_bicycle8-chair2.png
alexnet,1,230,NaN,bicycle,bicycle,0,0230_scg_dnn_0_bicycle_00_bicycle8-clock3.png
alexnet,1,231,NaN,bicycle,bicycle,0,0231_scg_dnn_0_bicycle_00_bicycle8-truck1.png
alexnet,1,232,NaN,bicycle,bicycle,0,0232_scg_dnn_0_bicycle_00_bicycle9-airplane2.png
alexnet,1,233,NaN,bear,bicycle,0,0233_scg_dnn_0_bicycle_00_bicycle9-bear1.png
alexnet,1,234,NaN,bicycle,bicycle,0,0234_scg_dnn_0_bicycle_00_bicycle9-bird3.png
alexnet,1,235,NaN,bicycle,bicycle,0,0235_scg_dnn_0_bicycle_00_bicycle9-bottle1.png
alexnet,1,236,NaN,bicycle,bicycle,0,0236_scg_dnn_0_bicycle_00_bicycle9-car1.png
alexnet,1,237,NaN,cat,bicycle,0,0237_scg_dnn_0_bicycle_00_bicycle9-cat3.png
alexnet,1,238,NaN,bicycle,bicycle,0,0238_scg_dnn_0_bicycle_00_bicycle9-chair1.png
alexnet,1,239,NaN,bottle,bicycle,0,0239_scg_dnn_0_bicycle_00_bicycle9-keyboard3.png
alexnet,1,240,NaN,bottle,bicycle,0,0240_scg_dnn_0_bicycle_00_bicycle9-knife3.png
alexnet,1,241,NaN,chair,bird,0,0241_scg_dnn_0_bird_00_bird1-airplane2.png
alexnet,1,242,NaN,bear,bird,0,0242_scg_dnn_0_bird_00_bird1-bear1.png
alexnet,1,243,NaN,bicycle,bird,0,0243_scg_dnn_0_bird_00_bird1-bicycle2.png
alexnet,1,244,NaN,boat,bird,0,0244_scg_dnn_0_bird_00_bird1-boat1.png
alexnet,1,245,NaN,truck,bird,0,0245_scg_dnn_0_bird_00_bird1-chair2.png
alexnet,1,246,NaN,bottle,bird,0,0246_scg_dnn_0_bird_00_bird1-clock3.png
alexnet,1,247,NaN,elephant,bird,0,0247_scg_dnn_0_bird_00_bird1-elephant2.png
alexnet,1,248,NaN,cat,bird,0,0248_scg_dnn_0_bird_00_bird1-keyboard3.png
alexnet,1,249,NaN,dog,bird,0,0249_scg_dnn_0_bird_00_bird1-knife3.png
alexnet,1,250,NaN,bottle,bird,0,0250_scg_dnn_0_bird_00_bird1-oven1.png
alexnet,1,251,NaN,bottle,bird,0,0251_scg_dnn_0_bird_00_bird1-truck1.png
alexnet,1,252,NaN,bear,bird,0,0252_scg_dnn_0_bird_00_bird10-bear2.png
alexnet,1,253,NaN,bicycle,bird,0,0253_scg_dnn_0_bird_00_bird10-bicycle1.png
alexnet,1,254,NaN,bird,bird,0,0254_scg_dnn_0_bird_00_bird10-bird2.png
alexnet,1,255,NaN,dog,bird,0,0255_scg_dnn_0_bird_00_bird10-cat1.png
alexnet,1,256,NaN,boat,bird,0,0256_scg_dnn_0_bird_00_bird10-chair1.png
alexnet,1,257,NaN,bicycle,bird,0,0257_scg_dnn_0_bird_00_bird10-clock1.png
alexnet,1,258,NaN,elephant,bird,0,0258_scg_dnn_0_bird_00_bird10-elephant2.png
alexnet,1,259,NaN,bottle,bird,0,0259_scg_dnn_0_bird_00_bird2-airplane3.png
alexnet,1,260,NaN,bicycle,bird,0,0260_scg_dnn_0_bird_00_bird2-bird2.png
alexnet,1,261,NaN,bird,bird,0,0261_scg_dnn_0_bird_00_bird2-car3.png
alexnet,1,262,NaN,cat,bird,0,0262_scg_dnn_0_bird_00_bird2-clock3.png
alexnet,1,263,NaN,dog,bird,0,0263_scg_dnn_0_bird_00_bird2-dog2.png
alexnet,1,264,NaN,knife,bird,0,0264_scg_dnn_0_bird_00_bird2-knife1.png
alexnet,1,265,NaN,bird,bird,0,0265_scg_dnn_0_bird_00_bird3-bear3.png
alexnet,1,266,NaN,bird,bird,0,0266_scg_dnn_0_bird_00_bird3-bird2.png
alexnet,1,267,NaN,truck,bird,0,0267_scg_dnn_0_bird_00_bird3-boat3.png
alexnet,1,268,NaN,bicycle,bird,0,0268_scg_dnn_0_bird_00_bird3-bottle2.png
alexnet,1,269,NaN,dog,bird,0,0269_scg_dnn_0_bird_00_bird3-cat1.png
alexnet,1,270,NaN,dog,bird,0,0270_scg_dnn_0_bird_00_bird3-dog1.png
alexnet,1,271,NaN,knife,bird,0,0271_scg_dnn_0_bird_00_bird3-knife3.png
alexnet,1,272,NaN,knife,bird,0,0272_scg_dnn_0_bird_00_bird3-oven1.png
alexnet,1,273,NaN,bottle,bird,0,0273_scg_dnn_0_bird_00_bird3-truck3.png
alexnet,1,274,NaN,knife,bird,0,0274_scg_dnn_0_bird_00_bird4-airplane1.png
alexnet,1,275,NaN,bird,bird,0,0275_scg_dnn_0_bird_00_bird4-bicycle2.png
alexnet,1,276,NaN,dog,bird,0,0276_scg_dnn_0_bird_00_bird4-cat3.png
alexnet,1,277,NaN,bird,bird,0,0277_scg_dnn_0_bird_00_bird4-clock1.png
alexnet,1,278,NaN,dog,bird,0,0278_scg_dnn_0_bird_00_bird4-dog3.png
alexnet,1,279,NaN,chair,bird,0,0279_scg_dnn_0_bird_00_bird5-airplane3.png
alexnet,1,280,NaN,dog,bird,0,0280_scg_dnn_0_bird_00_bird5-bear3.png
alexnet,1,281,NaN,bicycle,bird,0,0281_scg_dnn_0_bird_00_bird5-bicycle1.png
alexnet,1,282,NaN,dog,bird,0,0282_scg_dnn_0_bird_00_bird5-bird1.png
alexnet,1,283,NaN,bicycle,bird,0,0283_scg_dnn_0_bird_00_bird5-car2.png
alexnet,1,284,NaN,bird,bird,0,0284_scg_dnn_0_bird_00_bird5-cat2.png
alexnet,1,285,NaN,car,bird,0,0285_scg_dnn_0_bird_00_bird5-chair1.png
alexnet,1,286,NaN,dog,bird,0,0286_scg_dnn_0_bird_00_bird5-dog2.png
alexnet,1,287,NaN,knife,bird,0,0287_scg_dnn_0_bird_00_bird5-keyboard2.png
alexnet,1,288,NaN,truck,bird,0,0288_scg_dnn_0_bird_00_bird5-oven3.png
alexnet,1,289,NaN,chair,bird,0,0289_scg_dnn_0_bird_00_bird5-truck2.png
alexnet,1,290,NaN,chair,bird,0,0290_scg_dnn_0_bird_00_bird6-airplane2.png
alexnet,1,291,NaN,boat,bird,0,0291_scg_dnn_0_bird_00_bird6-boat2.png
alexnet,1,292,NaN,bottle,bird,0,0292_scg_dnn_0_bird_00_bird6-bottle3.png
alexnet,1,293,NaN,knife,bird,0,0293_scg_dnn_0_bird_00_bird6-car3.png
alexnet,1,294,NaN,elephant,bird,0,0294_scg_dnn_0_bird_00_bird6-elephant2.png
alexnet,1,295,NaN,knife,bird,0,0295_scg_dnn_0_bird_00_bird6-oven1.png
alexnet,1,296,NaN,chair,bird,0,0296_scg_dnn_0_bird_00_bird6-truck2.png
alexnet,1,297,NaN,bird,bird,0,0297_scg_dnn_0_bird_00_bird7-bird2.png
alexnet,1,298,NaN,boat,bird,0,0298_scg_dnn_0_bird_00_bird7-boat1.png
alexnet,1,299,NaN,clock,bird,0,0299_scg_dnn_0_bird_00_bird7-bottle1.png
alexnet,1,300,NaN,bicycle,bird,0,0300_scg_dnn_0_bird_00_bird7-car2.png
alexnet,1,301,NaN,bird,bird,0,0301_scg_dnn_0_bird_00_bird7-cat3.png
alexnet,1,302,NaN,knife,bird,0,0302_scg_dnn_0_bird_00_bird7-keyboard3.png
alexnet,1,303,NaN,oven,bird,0,0303_scg_dnn_0_bird_00_bird7-knife2.png
alexnet,1,304,NaN,truck,bird,0,0304_scg_dnn_0_bird_00_bird7-oven3.png
alexnet,1,305,NaN,truck,bird,0,0305_scg_dnn_0_bird_00_bird7-truck2.png
alexnet,1,306,NaN,truck,bird,0,0306_scg_dnn_0_bird_00_bird8-boat3.png
alexnet,1,307,NaN,bottle,bird,0,0307_scg_dnn_0_bird_00_bird8-bottle1.png
alexnet,1,308,NaN,bottle,bird,0,0308_scg_dnn_0_bird_00_bird8-car2.png
alexnet,1,309,NaN,chair,bird,0,0309_scg_dnn_0_bird_00_bird8-chair1.png
alexnet,1,310,NaN,bicycle,bird,0,0310_scg_dnn_0_bird_00_bird8-clock1.png
alexnet,1,311,NaN,elephant,bird,0,0311_scg_dnn_0_bird_00_bird8-elephant1.png
alexnet,1,312,NaN,keyboard,bird,0,0312_scg_dnn_0_bird_00_bird8-keyboard2.png
alexnet,1,313,NaN,chair,bird,0,0313_scg_dnn_0_bird_00_bird8-knife2.png
alexnet,1,314,NaN,bear,bird,0,0314_scg_dnn_0_bird_00_bird9-bear3.png
alexnet,1,315,NaN,bird,bird,0,0315_scg_dnn_0_bird_00_bird9-bicycle3.png
alexnet,1,316,NaN,bird,bird,0,0316_scg_dnn_0_bird_00_bird9-bottle3.png
alexnet,1,317,NaN,chair,bird,0,0317_scg_dnn_0_bird_00_bird9-chair1.png
alexnet,1,318,NaN,bird,bird,0,0318_scg_dnn_0_bird_00_bird9-dog2.png
alexnet,1,319,NaN,bird,bird,0,0319_scg_dnn_0_bird_00_bird9-elephant2.png
alexnet,1,320,NaN,dog,bird,0,0320_scg_dnn_0_bird_00_bird9-keyboard1.png
alexnet,1,321,NaN,bear,boat,0,0321_scg_dnn_0_boat_00_boat1-bear1.png
alexnet,1,322,NaN,bird,boat,0,0322_scg_dnn_0_boat_00_boat1-bicycle2.png
alexnet,1,323,NaN,oven,boat,0,0323_scg_dnn_0_boat_00_boat1-bird3.png
alexnet,1,324,NaN,bicycle,boat,0,0324_scg_dnn_0_boat_00_boat1-car2.png
alexnet,1,325,NaN,airplane,boat,0,0325_scg_dnn_0_boat_00_boat1-chair3.png
alexnet,1,326,NaN,dog,boat,0,0326_scg_dnn_0_boat_00_boat1-elephant3.png
alexnet,1,327,NaN,knife,boat,0,0327_scg_dnn_0_boat_00_boat1-keyboard3.png
alexnet,1,328,NaN,knife,boat,0,0328_scg_dnn_0_boat_00_boat1-oven1.png
alexnet,1,329,NaN,chair,boat,0,0329_scg_dnn_0_boat_00_boat1-truck3.png
alexnet,1,330,NaN,dog,boat,0,0330_scg_dnn_0_boat_00_boat10-bear3.png
alexnet,1,331,NaN,bottle,boat,0,0331_scg_dnn_0_boat_00_boat10-boat3.png
alexnet,1,332,NaN,dog,boat,0,0332_scg_dnn_0_boat_00_boat10-cat1.png
alexnet,1,333,NaN,car,boat,0,0333_scg_dnn_0_boat_00_boat10-oven1.png
alexnet,1,334,NaN,car,boat,0,0334_scg_dnn_0_boat_00_boat10-truck1.png
alexnet,1,335,NaN,bird,boat,0,0335_scg_dnn_0_boat_00_boat2-airplane1.png
alexnet,1,336,NaN,bear,boat,0,0336_scg_dnn_0_boat_00_boat2-bear3.png
alexnet,1,337,NaN,dog,boat,0,0337_scg_dnn_0_boat_00_boat2-bird1.png
alexnet,1,338,NaN,bottle,boat,0,0338_scg_dnn_0_boat_00_boat2-bottle2.png
alexnet,1,339,NaN,bird,boat,0,0339_scg_dnn_0_boat_00_boat2-keyboard1.png
alexnet,1,340,NaN,oven,boat,0,0340_scg_dnn_0_boat_00_boat2-oven3.png
alexnet,1,341,NaN,boat,boat,0,0341_scg_dnn_0_boat_00_boat3-airplane2.png
alexnet,1,342,NaN,bicycle,boat,0,0342_scg_dnn_0_boat_00_boat3-bicycle2.png
alexnet,1,343,NaN,bottle,boat,0,0343_scg_dnn_0_boat_00_boat3-car3.png
alexnet,1,344,NaN,cat,boat,0,0344_scg_dnn_0_boat_00_boat3-cat3.png
alexnet,1,345,NaN,airplane,boat,0,0345_scg_dnn_0_boat_00_boat3-chair3.png
alexnet,1,346,NaN,dog,boat,0,0346_scg_dnn_0_boat_00_boat3-clock3.png
alexnet,1,347,NaN,dog,boat,0,0347_scg_dnn_0_boat_00_boat3-dog3.png
alexnet,1,348,NaN,car,boat,0,0348_scg_dnn_0_boat_00_boat3-keyboard2.png
alexnet,1,349,NaN,bird,boat,0,0349_scg_dnn_0_boat_00_boat4-bicycle3.png
alexnet,1,350,NaN,bottle,boat,0,0350_scg_dnn_0_boat_00_boat4-bird1.png
alexnet,1,351,NaN,bottle,boat,0,0351_scg_dnn_0_boat_00_boat4-boat3.png
alexnet,1,352,NaN,bottle,boat,0,0352_scg_dnn_0_boat_00_boat4-bottle2.png
alexnet,1,353,NaN,boat,boat,0,0353_scg_dnn_0_boat_00_boat4-car3.png
alexnet,1,354,NaN,chair,boat,0,0354_scg_dnn_0_boat_00_boat4-chair2.png
alexnet,1,355,NaN,cat,boat,0,0355_scg_dnn_0_boat_00_boat4-dog2.png
alexnet,1,356,NaN,elephant,boat,0,0356_scg_dnn_0_boat_00_boat4-elephant2.png
alexnet,1,357,NaN,oven,boat,0,0357_scg_dnn_0_boat_00_boat4-knife2.png
alexnet,1,358,NaN,clock,boat,0,0358_scg_dnn_0_boat_00_boat5-airplane1.png
alexnet,1,359,NaN,bird,boat,0,0359_scg_dnn_0_boat_00_boat5-bicycle3.png
alexnet,1,360,NaN,truck,boat,0,0360_scg_dnn_0_boat_00_boat5-boat3.png
alexnet,1,361,NaN,bicycle,boat,0,0361_scg_dnn_0_boat_00_boat5-car3.png
alexnet,1,362,NaN,clock,boat,0,0362_scg_dnn_0_boat_00_boat5-clock3.png
alexnet,1,363,NaN,truck,boat,0,0363_scg_dnn_0_boat_00_boat5-knife2.png
alexnet,1,364,NaN,boat,boat,0,0364_scg_dnn_0_boat_00_boat6-airplane2.png
alexnet,1,365,NaN,bear,boat,0,0365_scg_dnn_0_boat_00_boat6-bear1.png
alexnet,1,366,NaN,bicycle,boat,0,0366_scg_dnn_0_boat_00_boat6-bicycle2.png
alexnet,1,367,NaN,bicycle,boat,0,0367_scg_dnn_0_boat_00_boat6-bottle2.png
alexnet,1,368,NaN,bicycle,boat,0,0368_scg_dnn_0_boat_00_boat6-car1.png
alexnet,1,369,NaN,bird,boat,0,0369_scg_dnn_0_boat_00_boat6-cat1.png
alexnet,1,370,NaN,bottle,boat,0,0370_scg_dnn_0_boat_00_boat6-clock2.png
alexnet,1,371,NaN,dog,boat,0,0371_scg_dnn_0_boat_00_boat6-dog1.png
alexnet,1,372,NaN,elephant,boat,0,0372_scg_dnn_0_boat_00_boat6-elephant2.png
alexnet,1,373,NaN,bird,boat,0,0373_scg_dnn_0_boat_00_boat6-knife2.png
alexnet,1,374,NaN,bottle,boat,0,0374_scg_dnn_0_boat_00_boat6-truck3.png
alexnet,1,375,NaN,boat,boat,0,0375_scg_dnn_0_boat_00_boat7-boat2.png
alexnet,1,376,NaN,clock,boat,0,0376_scg_dnn_0_boat_00_boat7-bottle1.png
alexnet,1,377,NaN,dog,boat,0,0377_scg_dnn_0_boat_00_boat7-cat3.png
alexnet,1,378,NaN,car,boat,0,0378_scg_dnn_0_boat_00_boat7-chair1.png
alexnet,1,379,NaN,bicycle,boat,0,0379_scg_dnn_0_boat_00_boat7-clock3.png
alexnet,1,380,NaN,elephant,boat,0,0380_scg_dnn_0_boat_00_boat7-elephant3.png
alexnet,1,381,NaN,bottle,boat,0,0381_scg_dnn_0_boat_00_boat7-keyboard3.png
alexnet,1,382,NaN,truck,boat,0,0382_scg_dnn_0_boat_00_boat7-oven3.png
alexnet,1,383,NaN,chair,boat,0,0383_scg_dnn_0_boat_00_boat7-truck2.png
alexnet,1,384,NaN,bird,boat,0,0384_scg_dnn_0_boat_00_boat8-bird2.png
alexnet,1,385,NaN,bottle,boat,0,0385_scg_dnn_0_boat_00_boat8-bottle1.png
alexnet,1,386,NaN,dog,boat,0,0386_scg_dnn_0_boat_00_boat8-dog3.png
alexnet,1,387,NaN,chair,boat,0,0387_scg_dnn_0_boat_00_boat8-elephant1.png
alexnet,1,388,NaN,knife,boat,0,0388_scg_dnn_0_boat_00_boat8-knife1.png
alexnet,1,389,NaN,oven,boat,0,0389_scg_dnn_0_boat_00_boat8-oven1.png
alexnet,1,390,NaN,boat,boat,0,0390_scg_dnn_0_boat_00_boat8-truck2.png
alexnet,1,391,NaN,chair,boat,0,0391_scg_dnn_0_boat_00_boat9-airplane2.png
alexnet,1,392,NaN,dog,boat,0,0392_scg_dnn_0_boat_00_boat9-bear3.png
alexnet,1,393,NaN,bottle,boat,0,0393_scg_dnn_0_boat_00_boat9-bird1.png
alexnet,1,394,NaN,truck,boat,0,0394_scg_dnn_0_boat_00_boat9-boat3.png
alexnet,1,395,NaN,cat,boat,0,0395_scg_dnn_0_boat_00_boat9-cat3.png
alexnet,1,396,NaN,boat,boat,0,0396_scg_dnn_0_boat_00_boat9-chair2.png
alexnet,1,397,NaN,boat,boat,0,0397_scg_dnn_0_boat_00_boat9-clock1.png
alexnet,1,398,NaN,dog,boat,0,0398_scg_dnn_0_boat_00_boat9-dog2.png
alexnet,1,399,NaN,car,boat,0,0399_scg_dnn_0_boat_00_boat9-keyboard2.png
alexnet,1,400,NaN,truck,boat,0,0400_scg_dnn_0_boat_00_boat9-knife2.png
alexnet,1,401,NaN,bear,bottle,0,0401_scg_dnn_0_bottle_00_bottle1-bear1.png
alexnet,1,402,NaN,bottle,bottle,0,0402_scg_dnn_0_bottle_00_bottle1-bird3.png
alexnet,1,403,NaN,boat,bottle,0,0403_scg_dnn_0_bottle_00_bottle1-car1.png
alexnet,1,404,NaN,bottle,bottle,0,0404_scg_dnn_0_bottle_00_bottle1-cat3.png
alexnet,1,405,NaN,chair,bottle,0,0405_scg_dnn_0_bottle_00_bottle1-chair2.png
alexnet,1,406,NaN,bottle,bottle,0,0406_scg_dnn_0_bottle_00_bottle1-clock1.png
alexnet,1,407,NaN,cat,bottle,0,0407_scg_dnn_0_bottle_00_bottle1-dog2.png
alexnet,1,408,NaN,bottle,bottle,0,0408_scg_dnn_0_bottle_00_bottle1-keyboard3.png
alexnet,1,409,NaN,bear,bottle,0,0409_scg_dnn_0_bottle_00_bottle10-bear2.png
alexnet,1,410,NaN,bottle,bottle,0,0410_scg_dnn_0_bottle_00_bottle10-boat3.png
alexnet,1,411,NaN,bottle,bottle,0,0411_scg_dnn_0_bottle_00_bottle10-car1.png
alexnet,1,412,NaN,bottle,bottle,0,0412_scg_dnn_0_bottle_00_bottle10-clock2.png
alexnet,1,413,NaN,dog,bottle,0,0413_scg_dnn_0_bottle_00_bottle10-dog1.png
alexnet,1,414,NaN,bottle,bottle,0,0414_scg_dnn_0_bottle_00_bottle10-truck3.png
alexnet,1,415,NaN,bottle,bottle,0,0415_scg_dnn_0_bottle_00_bottle2-bottle3.png
alexnet,1,416,NaN,bicycle,bottle,0,0416_scg_dnn_0_bottle_00_bottle2-car2.png
alexnet,1,417,NaN,chair,bottle,0,0417_scg_dnn_0_bottle_00_bottle2-chair3.png
alexnet,1,418,NaN,bottle,bottle,0,0418_scg_dnn_0_bottle_00_bottle2-clock1.png
alexnet,1,419,NaN,elephant,bottle,0,0419_scg_dnn_0_bottle_00_bottle2-elephant1.png
alexnet,1,420,NaN,bottle,bottle,0,0420_scg_dnn_0_bottle_00_bottle2-knife3.png
alexnet,1,421,NaN,bottle,bottle,0,0421_scg_dnn_0_bottle_00_bottle3-airplane2.png
alexnet,1,422,NaN,bear,bottle,0,0422_scg_dnn_0_bottle_00_bottle3-bear2.png
alexnet,1,423,NaN,bottle,bottle,0,0423_scg_dnn_0_bottle_00_bottle3-bicycle3.png
alexnet,1,424,NaN,bird,bottle,0,0424_scg_dnn_0_bottle_00_bottle3-bird1.png
alexnet,1,425,NaN,bottle,bottle,0,0425_scg_dnn_0_bottle_00_bottle3-boat3.png
alexnet,1,426,NaN,bottle,bottle,0,0426_scg_dnn_0_bottle_00_bottle3-bottle3.png
alexnet,1,427,NaN,bottle,bottle,0,0427_scg_dnn_0_bottle_00_bottle3-cat3.png
alexnet,1,428,NaN,chair,bottle,0,0428_scg_dnn_0_bottle_00_bottle3-chair3.png
alexnet,1,429,NaN,bottle,bottle,0,0429_scg_dnn_0_bottle_00_bottle3-knife3.png
alexnet,1,430,NaN,knife,bottle,0,0430_scg_dnn_0_bottle_00_bottle4-airplane1.png
alexnet,1,431,NaN,bicycle,bottle,0,0431_scg_dnn_0_bottle_00_bottle4-bicycle1.png
alexnet,1,432,NaN,bicycle,bottle,0,0432_scg_dnn_0_bottle_00_bottle4-car3.png
alexnet,1,433,NaN,dog,bottle,0,0433_scg_dnn_0_bottle_00_bottle4-dog2.png
alexnet,1,434,NaN,bottle,bottle,0,0434_scg_dnn_0_bottle_00_bottle4-oven2.png
alexnet,1,435,NaN,bottle,bottle,0,0435_scg_dnn_0_bottle_00_bottle4-truck1.png
alexnet,1,436,NaN,knife,bottle,0,0436_scg_dnn_0_bottle_00_bottle5-airplane1.png
alexnet,1,437,NaN,bottle,bottle,0,0437_scg_dnn_0_bottle_00_bottle5-bird3.png
alexnet,1,438,NaN,bottle,bottle,0,0438_scg_dnn_0_bottle_00_bottle5-boat1.png
alexnet,1,439,NaN,dog,bottle,0,0439_scg_dnn_0_bottle_00_bottle5-cat1.png
alexnet,1,440,NaN,bottle,bottle,0,0440_scg_dnn_0_bottle_00_bottle5-chair1.png
alexnet,1,441,NaN,bottle,bottle,0,0441_scg_dnn_0_bottle_00_bottle5-clock3.png
alexnet,1,442,NaN,elephant,bottle,0,0442_scg_dnn_0_bottle_00_bottle5-elephant1.png
alexnet,1,443,NaN,bottle,bottle,0,0443_scg_dnn_0_bottle_00_bottle5-keyboard2.png
alexnet,1,444,NaN,dog,bottle,0,0444_scg_dnn_0_bottle_00_bottle5-knife1.png
alexnet,1,445,NaN,bottle,bottle,0,0445_scg_dnn_0_bottle_00_bottle5-oven2.png
alexnet,1,446,NaN,bottle,bottle,0,0446_scg_dnn_0_bottle_00_bottle5-truck1.png
alexnet,1,447,NaN,bottle,bottle,0,0447_scg_dnn_0_bottle_00_bottle6-airplane1.png
alexnet,1,448,NaN,dog,bottle,0,0448_scg_dnn_0_bottle_00_bottle6-bear2.png
alexnet,1,449,NaN,bottle,bottle,0,0449_scg_dnn_0_bottle_00_bottle6-bicycle3.png
alexnet,1,450,NaN,bottle,bottle,0,0450_scg_dnn_0_bottle_00_bottle6-bird1.png
alexnet,1,451,NaN,bottle,bottle,0,0451_scg_dnn_0_bottle_00_bottle6-boat3.png
alexnet,1,452,NaN,bottle,bottle,0,0452_scg_dnn_0_bottle_00_bottle6-bottle3.png
alexnet,1,453,NaN,chair,bottle,0,0453_scg_dnn_0_bottle_00_bottle6-chair2.png
alexnet,1,454,NaN,dog,bottle,0,0454_scg_dnn_0_bottle_00_bottle6-dog3.png
alexnet,1,455,NaN,bottle,bottle,0,0455_scg_dnn_0_bottle_00_bottle6-knife3.png
alexnet,1,456,NaN,bottle,bottle,0,0456_scg_dnn_0_bottle_00_bottle6-oven3.png
alexnet,1,457,NaN,airplane,bottle,0,0457_scg_dnn_0_bottle_00_bottle7-airplane3.png
alexnet,1,458,NaN,bear,bottle,0,0458_scg_dnn_0_bottle_00_bottle7-bear1.png
alexnet,1,459,NaN,truck,bottle,0,0459_scg_dnn_0_bottle_00_bottle7-boat3.png
alexnet,1,460,NaN,dog,bottle,0,0460_scg_dnn_0_bottle_00_bottle7-cat2.png
alexnet,1,461,NaN,dog,bottle,0,0461_scg_dnn_0_bottle_00_bottle7-clock1.png
alexnet,1,462,NaN,elephant,bottle,0,0462_scg_dnn_0_bottle_00_bottle7-elephant2.png
alexnet,1,463,NaN,chair,bottle,0,0463_scg_dnn_0_bottle_00_bottle7-keyboard2.png
alexnet,1,464,NaN,truck,bottle,0,0464_scg_dnn_0_bottle_00_bottle7-oven2.png
alexnet,1,465,NaN,truck,bottle,0,0465_scg_dnn_0_bottle_00_bottle7-truck2.png
alexnet,1,466,NaN,bicycle,bottle,0,0466_scg_dnn_0_bottle_00_bottle8-bicycle1.png
alexnet,1,467,NaN,bottle,bottle,0,0467_scg_dnn_0_bottle_00_bottle8-bird1.png
alexnet,1,468,NaN,bottle,bottle,0,0468_scg_dnn_0_bottle_00_bottle8-bottle3.png
alexnet,1,469,NaN,dog,bottle,0,0469_scg_dnn_0_bottle_00_bottle8-dog2.png
alexnet,1,470,NaN,cat,bottle,0,0470_scg_dnn_0_bottle_00_bottle8-elephant3.png
alexnet,1,471,NaN,chair,bottle,0,0471_scg_dnn_0_bottle_00_bottle8-keyboard3.png
alexnet,1,472,NaN,bottle,bottle,0,0472_scg_dnn_0_bottle_00_bottle8-knife1.png
alexnet,1,473,NaN,bottle,bottle,0,0473_scg_dnn_0_bottle_00_bottle9-bicycle1.png
alexnet,1,474,NaN,bottle,bottle,0,0474_scg_dnn_0_bottle_00_bottle9-bottle1.png
alexnet,1,475,NaN,chair,bottle,0,0475_scg_dnn_0_bottle_00_bottle9-car3.png
alexnet,1,476,NaN,dog,bottle,0,0476_scg_dnn_0_bottle_00_bottle9-cat2.png
alexnet,1,477,NaN,elephant,bottle,0,0477_scg_dnn_0_bottle_00_bottle9-elephant2.png
alexnet,1,478,NaN,dog,bottle,0,0478_scg_dnn_0_bottle_00_bottle9-keyboard1.png
alexnet,1,479,NaN,truck,bottle,0,0479_scg_dnn_0_bottle_00_bottle9-oven2.png
alexnet,1,480,NaN,bottle,bottle,0,0480_scg_dnn_0_bottle_00_bottle9-truck1.png
alexnet,1,481,NaN,airplane,car,0,0481_scg_dnn_0_car_00_car1-airplane1.png
alexnet,1,482,NaN,car,car,0,0482_scg_dnn_0_car_00_car1-car2.png
alexnet,1,483,NaN,airplane,car,0,0483_scg_dnn_0_car_00_car1-chair3.png
alexnet,1,484,NaN,car,car,0,0484_scg_dnn_0_car_00_car1-clock2.png
alexnet,1,485,NaN,dog,car,0,0485_scg_dnn_0_car_00_car1-dog2.png
alexnet,1,486,NaN,keyboard,car,0,0486_scg_dnn_0_car_00_car1-keyboard2.png
alexnet,1,487,NaN,chair,car,0,0487_scg_dnn_0_car_00_car1-oven3.png
alexnet,1,488,NaN,bottle,car,0,0488_scg_dnn_0_car_00_car10-bicycle2.png
alexnet,1,489,NaN,bottle,car,0,0489_scg_dnn_0_car_00_car10-bottle3.png
alexnet,1,490,NaN,car,car,0,0490_scg_dnn_0_car_00_car10-car1.png
alexnet,1,491,NaN,car,car,0,0491_scg_dnn_0_car_00_car10-chair1.png
alexnet,1,492,NaN,dog,car,0,0492_scg_dnn_0_car_00_car10-dog1.png
alexnet,1,493,NaN,elephant,car,0,0493_scg_dnn_0_car_00_car10-elephant2.png
alexnet,1,494,NaN,car,car,0,0494_scg_dnn_0_car_00_car10-keyboard2.png
alexnet,1,495,NaN,car,car,0,0495_scg_dnn_0_car_00_car2-bird3.png
alexnet,1,496,NaN,car,car,0,0496_scg_dnn_0_car_00_car2-car3.png
alexnet,1,497,NaN,dog,car,0,0497_scg_dnn_0_car_00_car2-cat3.png
alexnet,1,498,NaN,car,car,0,0498_scg_dnn_0_car_00_car2-chair1.png
alexnet,1,499,NaN,dog,car,0,0499_scg_dnn_0_car_00_car2-knife3.png
alexnet,1,500,NaN,car,car,0,0500_scg_dnn_0_car_00_car3-airplane3.png
alexnet,1,501,NaN,bird,car,0,0501_scg_dnn_0_car_00_car3-bird2.png
alexnet,1,502,NaN,car,car,0,0502_scg_dnn_0_car_00_car3-boat1.png
alexnet,1,503,NaN,bottle,car,0,0503_scg_dnn_0_car_00_car3-bottle3.png
alexnet,1,504,NaN,dog,car,0,0504_scg_dnn_0_car_00_car3-dog2.png
alexnet,1,505,NaN,elephant,car,0,0505_scg_dnn_0_car_00_car3-elephant3.png
alexnet,1,506,NaN,truck,car,0,0506_scg_dnn_0_car_00_car3-oven3.png
alexnet,1,507,NaN,car,car,0,0507_scg_dnn_0_car_00_car3-truck1.png
alexnet,1,508,NaN,dog,car,0,0508_scg_dnn_0_car_00_car4-bear3.png
alexnet,1,509,NaN,bicycle,car,0,0509_scg_dnn_0_car_00_car4-bicycle3.png
alexnet,1,510,NaN,bird,car,0,0510_scg_dnn_0_car_00_car4-bird1.png
alexnet,1,511,NaN,boat,car,0,0511_scg_dnn_0_car_00_car4-boat1.png
alexnet,1,512,NaN,bottle,car,0,0512_scg_dnn_0_car_00_car4-bottle1.png
alexnet,1,513,NaN,car,car,0,0513_scg_dnn_0_car_00_car4-car2.png
alexnet,1,514,NaN,dog,car,0,0514_scg_dnn_0_car_00_car4-cat3.png
alexnet,1,515,NaN,clock,car,0,0515_scg_dnn_0_car_00_car4-clock1.png
alexnet,1,516,NaN,elephant,car,0,0516_scg_dnn_0_car_00_car4-elephant3.png
alexnet,1,517,NaN,truck,car,0,0517_scg_dnn_0_car_00_car4-oven2.png
alexnet,1,518,NaN,truck,car,0,0518_scg_dnn_0_car_00_car5-airplane3.png
alexnet,1,519,NaN,dog,car,0,0519_scg_dnn_0_car_00_car5-bear3.png
alexnet,1,520,NaN,clock,car,0,0520_scg_dnn_0_car_00_car5-bottle1.png
alexnet,1,521,NaN,dog,car,0,0521_scg_dnn_0_car_00_car5-cat1.png
alexnet,1,522,NaN,car,car,0,0522_scg_dnn_0_car_00_car5-keyboard3.png
alexnet,1,523,NaN,car,car,0,0523_scg_dnn_0_car_00_car5-knife2.png
alexnet,1,524,NaN,oven,car,0,0524_scg_dnn_0_car_00_car5-oven2.png
alexnet,1,525,NaN,car,car,0,0525_scg_dnn_0_car_00_car5-truck3.png
alexnet,1,526,NaN,bear,car,0,0526_scg_dnn_0_car_00_car6-bear1.png
alexnet,1,527,NaN,bottle,car,0,0527_scg_dnn_0_car_00_car6-bicycle3.png
alexnet,1,528,NaN,boat,car,0,0528_scg_dnn_0_car_00_car6-boat1.png
alexnet,1,529,NaN,clock,car,0,0529_scg_dnn_0_car_00_car6-bottle1.png
alexnet,1,530,NaN,truck,car,0,0530_scg_dnn_0_car_00_car6-chair3.png
alexnet,1,531,NaN,elephant,car,0,0531_scg_dnn_0_car_00_car6-elephant3.png
alexnet,1,532,NaN,car,car,0,0532_scg_dnn_0_car_00_car6-knife1.png
alexnet,1,533,NaN,car,car,0,0533_scg_dnn_0_car_00_car6-truck3.png
alexnet,1,534,NaN,car,car,0,0534_scg_dnn_0_car_00_car7-airplane2.png
alexnet,1,535,NaN,bear,car,0,0535_scg_dnn_0_car_00_car7-bear1.png
alexnet,1,536,NaN,car,car,0,0536_scg_dnn_0_car_00_car7-bird3.png
alexnet,1,537,NaN,truck,car,0,0537_scg_dnn_0_car_00_car7-boat3.png
alexnet,1,538,NaN,boat,car,0,0538_scg_dnn_0_car_00_car7-car1.png
alexnet,1,539,NaN,bottle,car,0,0539_scg_dnn_0_car_00_car7-clock1.png
alexnet,1,540,NaN,dog,car,0,0540_scg_dnn_0_car_00_car7-dog3.png
alexnet,1,541,NaN,elephant,car,0,0541_scg_dnn_0_car_00_car7-elephant3.png
alexnet,1,542,NaN,car,car,0,0542_scg_dnn_0_car_00_car7-keyboard3.png
alexnet,1,543,NaN,truck,car,0,0543_scg_dnn_0_car_00_car7-oven2.png
alexnet,1,544,NaN,car,car,0,0544_scg_dnn_0_car_00_car8-airplane3.png
alexnet,1,545,NaN,bear,car,0,0545_scg_dnn_0_car_00_car8-bear1.png
alexnet,1,546,NaN,bird,car,0,0546_scg_dnn_0_car_00_car8-bicycle2.png
alexnet,1,547,NaN,car,car,0,0547_scg_dnn_0_car_00_car8-boat3.png
alexnet,1,548,NaN,dog,car,0,0548_scg_dnn_0_car_00_car8-cat1.png
alexnet,1,549,NaN,car,car,0,0549_scg_dnn_0_car_00_car8-chair1.png
alexnet,1,550,NaN,car,car,0,0550_scg_dnn_0_car_00_car8-clock2.png
alexnet,1,551,NaN,dog,car,0,0551_scg_dnn_0_car_00_car8-dog1.png
alexnet,1,552,NaN,boat,car,0,0552_scg_dnn_0_car_00_car8-knife2.png
alexnet,1,553,NaN,car,car,0,0553_scg_dnn_0_car_00_car8-truck3.png
alexnet,1,554,NaN,bicycle,car,0,0554_scg_dnn_0_car_00_car9-bicycle2.png
alexnet,1,555,NaN,bottle,car,0,0555_scg_dnn_0_car_00_car9-bird1.png
alexnet,1,556,NaN,dog,car,0,0556_scg_dnn_0_car_00_car9-cat1.png
alexnet,1,557,NaN,car,car,0,0557_scg_dnn_0_car_00_car9-clock2.png
alexnet,1,558,NaN,car,car,0,0558_scg_dnn_0_car_00_car9-keyboard2.png
alexnet,1,559,NaN,oven,car,0,0559_scg_dnn_0_car_00_car9-knife1.png
alexnet,1,560,NaN,truck,car,0,0560_scg_dnn_0_car_00_car9-truck3.png
alexnet,1,561,NaN,knife,cat,0,0561_scg_dnn_0_cat_00_cat1-airplane1.png
alexnet,1,562,NaN,bird,cat,0,0562_scg_dnn_0_cat_00_cat1-bird1.png
alexnet,1,563,NaN,bottle,cat,0,0563_scg_dnn_0_cat_00_cat1-boat1.png
alexnet,1,564,NaN,cat,cat,0,0564_scg_dnn_0_cat_00_cat1-car2.png
alexnet,1,565,NaN,cat,cat,0,0565_scg_dnn_0_cat_00_cat1-cat3.png
alexnet,1,566,NaN,chair,cat,0,0566_scg_dnn_0_cat_00_cat1-chair2.png
alexnet,1,567,NaN,cat,cat,0,0567_scg_dnn_0_cat_00_cat1-dog1.png
alexnet,1,568,NaN,dog,cat,0,0568_scg_dnn_0_cat_00_cat1-keyboard3.png
alexnet,1,569,NaN,bottle,cat,0,0569_scg_dnn_0_cat_00_cat1-oven1.png
alexnet,1,570,NaN,truck,cat,0,0570_scg_dnn_0_cat_00_cat10-airplane3.png
alexnet,1,571,NaN,bear,cat,0,0571_scg_dnn_0_cat_00_cat10-bear1.png
alexnet,1,572,NaN,bicycle,cat,0,0572_scg_dnn_0_cat_00_cat10-bicycle1.png
alexnet,1,573,NaN,cat,cat,0,0573_scg_dnn_0_cat_00_cat10-bird2.png
alexnet,1,574,NaN,bottle,cat,0,0574_scg_dnn_0_cat_00_cat10-bottle1.png
alexnet,1,575,NaN,dog,cat,0,0575_scg_dnn_0_cat_00_cat10-clock1.png
alexnet,1,576,NaN,dog,cat,0,0576_scg_dnn_0_cat_00_cat10-elephant3.png
alexnet,1,577,NaN,bird,cat,0,0577_scg_dnn_0_cat_00_cat10-keyboard1.png
alexnet,1,578,NaN,oven,cat,0,0578_scg_dnn_0_cat_00_cat10-oven2.png
alexnet,1,579,NaN,knife,cat,0,0579_scg_dnn_0_cat_00_cat2-boat2.png
alexnet,1,580,NaN,cat,cat,0,0580_scg_dnn_0_cat_00_cat2-bottle3.png
alexnet,1,581,NaN,bird,cat,0,0581_scg_dnn_0_cat_00_cat2-car3.png
alexnet,1,582,NaN,cat,cat,0,0582_scg_dnn_0_cat_00_cat2-cat1.png
alexnet,1,583,NaN,dog,cat,0,0583_scg_dnn_0_cat_00_cat2-elephant1.png
alexnet,1,584,NaN,knife,cat,0,0584_scg_dnn_0_cat_00_cat2-knife3.png
alexnet,1,585,NaN,bottle,cat,0,0585_scg_dnn_0_cat_00_cat2-truck3.png
alexnet,1,586,NaN,bear,cat,0,0586_scg_dnn_0_cat_00_cat3-bear2.png
alexnet,1,587,NaN,bird,cat,0,0587_scg_dnn_0_cat_00_cat3-bicycle1.png
alexnet,1,588,NaN,cat,cat,0,0588_scg_dnn_0_cat_00_cat3-cat1.png
alexnet,1,589,NaN,elephant,cat,0,0589_scg_dnn_0_cat_00_cat3-elephant2.png
alexnet,1,590,NaN,clock,cat,0,0590_scg_dnn_0_cat_00_cat3-oven2.png
alexnet,1,591,NaN,truck,cat,0,0591_scg_dnn_0_cat_00_cat3-truck3.png
alexnet,1,592,NaN,knife,cat,0,0592_scg_dnn_0_cat_00_cat4-airplane1.png
alexnet,1,593,NaN,cat,cat,0,0593_scg_dnn_0_cat_00_cat4-bird2.png
alexnet,1,594,NaN,bicycle,cat,0,0594_scg_dnn_0_cat_00_cat4-car2.png
alexnet,1,595,NaN,bird,cat,0,0595_scg_dnn_0_cat_00_cat4-cat3.png
alexnet,1,596,NaN,chair,cat,0,0596_scg_dnn_0_cat_00_cat4-chair2.png
alexnet,1,597,NaN,bottle,cat,0,0597_scg_dnn_0_cat_00_cat4-clock2.png
alexnet,1,598,NaN,dog,cat,0,0598_scg_dnn_0_cat_00_cat4-dog3.png
alexnet,1,599,NaN,clock,cat,0,0599_scg_dnn_0_cat_00_cat4-keyboard2.png
alexnet,1,600,NaN,dog,cat,0,0600_scg_dnn_0_cat_00_cat4-knife1.png
alexnet,1,601,NaN,oven,cat,0,0601_scg_dnn_0_cat_00_cat4-oven1.png
alexnet,1,602,NaN,bottle,cat,0,0602_scg_dnn_0_cat_00_cat4-truck3.png
alexnet,1,603,NaN,chair,cat,0,0603_scg_dnn_0_cat_00_cat5-airplane2.png
alexnet,1,604,NaN,dog,cat,0,0604_scg_dnn_0_cat_00_cat5-bear2.png
alexnet,1,605,NaN,bird,cat,0,0605_scg_dnn_0_cat_00_cat5-bicycle3.png
alexnet,1,606,NaN,bottle,cat,0,0606_scg_dnn_0_cat_00_cat5-boat1.png
alexnet,1,607,NaN,bottle,cat,0,0607_scg_dnn_0_cat_00_cat5-bottle1.png
alexnet,1,608,NaN,bicycle,cat,0,0608_scg_dnn_0_cat_00_cat5-car2.png
alexnet,1,609,NaN,chair,cat,0,0609_scg_dnn_0_cat_00_cat5-chair3.png
alexnet,1,610,NaN,dog,cat,0,0610_scg_dnn_0_cat_00_cat5-dog3.png
alexnet,1,611,NaN,elephant,cat,0,0611_scg_dnn_0_cat_00_cat5-elephant2.png
alexnet,1,612,NaN,dog,cat,0,0612_scg_dnn_0_cat_00_cat5-keyboard3.png
alexnet,1,613,NaN,knife,cat,0,0613_scg_dnn_0_cat_00_cat5-knife2.png
alexnet,1,614,NaN,bear,cat,0,0614_scg_dnn_0_cat_00_cat6-bear1.png
alexnet,1,615,NaN,truck,cat,0,0615_scg_dnn_0_cat_00_cat6-chair3.png
alexnet,1,616,NaN,cat,cat,0,0616_scg_dnn_0_cat_00_cat6-clock3.png
alexnet,1,617,NaN,keyboard,cat,0,0617_scg_dnn_0_cat_00_cat6-keyboard3.png
alexnet,1,618,NaN,keyboard,cat,0,0618_scg_dnn_0_cat_00_cat6-oven1.png
alexnet,1,619,NaN,chair,cat,0,0619_scg_dnn_0_cat_00_cat7-airplane2.png
alexnet,1,620,NaN,bottle,cat,0,0620_scg_dnn_0_cat_00_cat7-boat3.png
alexnet,1,621,NaN,bottle,cat,0,0621_scg_dnn_0_cat_00_cat7-bottle1.png
alexnet,1,622,NaN,dog,cat,0,0622_scg_dnn_0_cat_00_cat7-clock3.png
alexnet,1,623,NaN,dog,cat,0,0623_scg_dnn_0_cat_00_cat7-dog3.png
alexnet,1,624,NaN,elephant,cat,0,0624_scg_dnn_0_cat_00_cat7-elephant1.png
alexnet,1,625,NaN,knife,cat,0,0625_scg_dnn_0_cat_00_cat7-knife2.png
alexnet,1,626,NaN,chair,cat,0,0626_scg_dnn_0_cat_00_cat7-truck2.png
alexnet,1,627,NaN,bear,cat,0,0627_scg_dnn_0_cat_00_cat8-bear1.png
alexnet,1,628,NaN,bird,cat,0,0628_scg_dnn_0_cat_00_cat8-bicycle3.png
alexnet,1,629,NaN,cat,cat,0,0629_scg_dnn_0_cat_00_cat8-bird2.png
alexnet,1,630,NaN,dog,cat,0,0630_scg_dnn_0_cat_00_cat8-car2.png
alexnet,1,631,NaN,bicycle,cat,0,0631_scg_dnn_0_cat_00_cat9-bicycle1.png
alexnet,1,632,NaN,knife,cat,0,0632_scg_dnn_0_cat_00_cat9-bird3.png
alexnet,1,633,NaN,boat,cat,0,0633_scg_dnn_0_cat_00_cat9-boat2.png
alexnet,1,634,NaN,bottle,cat,0,0634_scg_dnn_0_cat_00_cat9-bottle2.png
alexnet,1,635,NaN,dog,cat,0,0635_scg_dnn_0_cat_00_cat9-cat3.png
alexnet,1,636,NaN,chair,cat,0,0636_scg_dnn_0_cat_00_cat9-chair2.png
alexnet,1,637,NaN,bottle,cat,0,0637_scg_dnn_0_cat_00_cat9-clock2.png
alexnet,1,638,NaN,dog,cat,0,0638_scg_dnn_0_cat_00_cat9-dog2.png
alexnet,1,639,NaN,airplane,cat,0,0639_scg_dnn_0_cat_00_cat9-knife2.png
alexnet,1,640,NaN,car,cat,0,0640_scg_dnn_0_cat_00_cat9-truck1.png
alexnet,1,641,NaN,chair,chair,0,0641_scg_dnn_0_chair_00_chair1-airplane2.png
alexnet,1,642,NaN,bear,chair,0,0642_scg_dnn_0_chair_00_chair1-bear1.png
alexnet,1,643,NaN,bird,chair,0,0643_scg_dnn_0_chair_00_chair1-cat3.png
alexnet,1,644,NaN,chair,chair,0,0644_scg_dnn_0_chair_00_chair1-chair1.png
alexnet,1,645,NaN,bicycle,chair,0,0645_scg_dnn_0_chair_00_chair1-clock2.png
alexnet,1,646,NaN,dog,chair,0,0646_scg_dnn_0_chair_00_chair1-dog1.png
alexnet,1,647,NaN,chair,chair,0,0647_scg_dnn_0_chair_00_chair1-elephant1.png
alexnet,1,648,NaN,knife,chair,0,0648_scg_dnn_0_chair_00_chair1-oven3.png
alexnet,1,649,NaN,bottle,chair,0,0649_scg_dnn_0_chair_00_chair1-truck3.png
alexnet,1,650,NaN,chair,chair,0,0650_scg_dnn_0_chair_00_chair10-airplane2.png
alexnet,1,651,NaN,bicycle,chair,0,0651_scg_dnn_0_chair_00_chair10-bicycle1.png
alexnet,1,652,NaN,oven,chair,0,0652_scg_dnn_0_chair_00_chair10-bird3.png
alexnet,1,653,NaN,bottle,chair,0,0653_scg_dnn_0_chair_00_chair10-bottle3.png
alexnet,1,654,NaN,bicycle,chair,0,0654_scg_dnn_0_chair_00_chair10-car2.png
alexnet,1,655,NaN,dog,chair,0,0655_scg_dnn_0_chair_00_chair10-cat1.png
alexnet,1,656,NaN,chair,chair,0,0656_scg_dnn_0_chair_00_chair10-clock1.png
alexnet,1,657,NaN,dog,chair,0,0657_scg_dnn_0_chair_00_chair10-dog1.png
alexnet,1,658,NaN,oven,chair,0,0658_scg_dnn_0_chair_00_chair10-oven1.png
alexnet,1,659,NaN,bear,chair,0,0659_scg_dnn_0_chair_00_chair2-bear2.png
alexnet,1,660,NaN,chair,chair,0,0660_scg_dnn_0_chair_00_chair2-boat1.png
alexnet,1,661,NaN,chair,chair,0,0661_scg_dnn_0_chair_00_chair2-keyboard2.png
alexnet,1,662,NaN,chair,chair,0,0662_scg_dnn_0_chair_00_chair2-knife1.png
alexnet,1,663,NaN,chair,chair,0,0663_scg_dnn_0_chair_00_chair3-airplane2.png
alexnet,1,664,NaN,bird,chair,0,0664_scg_dnn_0_chair_00_chair3-bicycle3.png
alexnet,1,665,NaN,bottle,chair,0,0665_scg_dnn_0_chair_00_chair3-bottle3.png
alexnet,1,666,NaN,bicycle,chair,0,0666_scg_dnn_0_chair_00_chair3-car3.png
alexnet,1,667,NaN,dog,chair,0,0667_scg_dnn_0_chair_00_chair3-dog2.png
alexnet,1,668,NaN,knife,chair,0,0668_scg_dnn_0_chair_00_chair3-knife1.png
alexnet,1,669,NaN,elephant,chair,0,0669_scg_dnn_0_chair_00_chair4-bear2.png
alexnet,1,670,NaN,cat,chair,0,0670_scg_dnn_0_chair_00_chair4-cat2.png
alexnet,1,671,NaN,chair,chair,0,0671_scg_dnn_0_chair_00_chair4-chair3.png
alexnet,1,672,NaN,chair,chair,0,0672_scg_dnn_0_chair_00_chair4-keyboard2.png
alexnet,1,673,NaN,knife,chair,0,0673_scg_dnn_0_chair_00_chair4-oven2.png
alexnet,1,674,NaN,chair,chair,0,0674_scg_dnn_0_chair_00_chair4-truck2.png
alexnet,1,675,NaN,bicycle,chair,0,0675_scg_dnn_0_chair_00_chair5-bicycle1.png
alexnet,1,676,NaN,bird,chair,0,0676_scg_dnn_0_chair_00_chair5-bird1.png
alexnet,1,677,NaN,chair,chair,0,0677_scg_dnn_0_chair_00_chair5-boat3.png
alexnet,1,678,NaN,bottle,chair,0,0678_scg_dnn_0_chair_00_chair5-bottle3.png
alexnet,1,679,NaN,bicycle,chair,0,0679_scg_dnn_0_chair_00_chair5-car1.png
alexnet,1,680,NaN,cat,chair,0,0680_scg_dnn_0_chair_00_chair5-cat3.png
alexnet,1,681,NaN,chair,chair,0,0681_scg_dnn_0_chair_00_chair5-clock2.png
alexnet,1,682,NaN,keyboard,chair,0,0682_scg_dnn_0_chair_00_chair5-keyboard2.png
alexnet,1,683,NaN,clock,chair,0,0683_scg_dnn_0_chair_00_chair5-knife3.png
alexnet,1,684,NaN,chair,chair,0,0684_scg_dnn_0_chair_00_chair5-oven2.png
alexnet,1,685,NaN,bottle,chair,0,0685_scg_dnn_0_chair_00_chair5-truck3.png
alexnet,1,686,NaN,bird,chair,0,0686_scg_dnn_0_chair_00_chair6-bird2.png
alexnet,1,687,NaN,dog,chair,0,0687_scg_dnn_0_chair_00_chair6-dog1.png
alexnet,1,688,NaN,elephant,chair,0,0688_scg_dnn_0_chair_00_chair6-elephant2.png
alexnet,1,689,NaN,chair,chair,0,0689_scg_dnn_0_chair_00_chair6-truck2.png
alexnet,1,690,NaN,knife,chair,0,0690_scg_dnn_0_chair_00_chair7-airplane1.png
alexnet,1,691,NaN,dog,chair,0,0691_scg_dnn_0_chair_00_chair7-bird1.png
alexnet,1,692,NaN,chair,chair,0,0692_scg_dnn_0_chair_00_chair7-boat3.png
alexnet,1,693,NaN,bottle,chair,0,0693_scg_dnn_0_chair_00_chair7-bottle1.png
alexnet,1,694,NaN,chair,chair,0,0694_scg_dnn_0_chair_00_chair7-car2.png
alexnet,1,695,NaN,dog,chair,0,0695_scg_dnn_0_chair_00_chair7-cat1.png
alexnet,1,696,NaN,chair,chair,0,0696_scg_dnn_0_chair_00_chair7-chair1.png
alexnet,1,697,NaN,chair,chair,0,0697_scg_dnn_0_chair_00_chair7-clock3.png
alexnet,1,698,NaN,chair,chair,0,0698_scg_dnn_0_chair_00_chair7-elephant1.png
alexnet,1,699,NaN,chair,chair,0,0699_scg_dnn_0_chair_00_chair7-knife2.png
alexnet,1,700,NaN,chair,chair,0,0700_scg_dnn_0_chair_00_chair7-truck3.png
alexnet,1,701,NaN,knife,chair,0,0701_scg_dnn_0_chair_00_chair8-airplane1.png
alexnet,1,702,NaN,bear,chair,0,0702_scg_dnn_0_chair_00_chair8-bear1.png
alexnet,1,703,NaN,bottle,chair,0,0703_scg_dnn_0_chair_00_chair8-bicycle3.png
alexnet,1,704,NaN,bottle,chair,0,0704_scg_dnn_0_chair_00_chair8-boat1.png
alexnet,1,705,NaN,bicycle,chair,0,0705_scg_dnn_0_chair_00_chair8-car1.png
alexnet,1,706,NaN,chair,chair,0,0706_scg_dnn_0_chair_00_chair8-chair3.png
alexnet,1,707,NaN,bicycle,chair,0,0707_scg_dnn_0_chair_00_chair8-clock3.png
alexnet,1,708,NaN,elephant,chair,0,0708_scg_dnn_0_chair_00_chair8-elephant1.png
alexnet,1,709,NaN,chair,chair,0,0709_scg_dnn_0_chair_00_chair8-keyboard3.png
alexnet,1,710,NaN,bottle,chair,0,0710_scg_dnn_0_chair_00_chair8-knife2.png
alexnet,1,711,NaN,chair,chair,0,0711_scg_dnn_0_chair_00_chair8-oven1.png
alexnet,1,712,NaN,bear,chair,0,0712_scg_dnn_0_chair_00_chair9-bear1.png
alexnet,1,713,NaN,bird,chair,0,0713_scg_dnn_0_chair_00_chair9-bicycle3.png
alexnet,1,714,NaN,knife,chair,0,0714_scg_dnn_0_chair_00_chair9-bird3.png
alexnet,1,715,NaN,knife,chair,0,0715_scg_dnn_0_chair_00_chair9-boat2.png
alexnet,1,716,NaN,bird,chair,0,0716_scg_dnn_0_chair_00_chair9-bottle3.png
alexnet,1,717,NaN,chair,chair,0,0717_scg_dnn_0_chair_00_chair9-chair3.png
alexnet,1,718,NaN,cat,chair,0,0718_scg_dnn_0_chair_00_chair9-dog2.png
alexnet,1,719,NaN,chair,chair,0,0719_scg_dnn_0_chair_00_chair9-elephant1.png
alexnet,1,720,NaN,bottle,chair,0,0720_scg_dnn_0_chair_00_chair9-keyboard2.png
alexnet,1,721,NaN,cat,clock,0,0721_scg_dnn_0_clock_00_clock1-bear1.png
alexnet,1,722,NaN,truck,clock,0,0722_scg_dnn_0_clock_00_clock1-boat3.png
alexnet,1,723,NaN,bicycle,clock,0,0723_scg_dnn_0_clock_00_clock1-car1.png
alexnet,1,724,NaN,clock,clock,0,0724_scg_dnn_0_clock_00_clock1-clock2.png
alexnet,1,725,NaN,cat,clock,0,0725_scg_dnn_0_clock_00_clock1-dog2.png
alexnet,1,726,NaN,elephant,clock,0,0726_scg_dnn_0_clock_00_clock1-elephant2.png
alexnet,1,727,NaN,truck,clock,0,0727_scg_dnn_0_clock_00_clock1-truck3.png
alexnet,1,728,NaN,clock,clock,0,0728_scg_dnn_0_clock_00_clock10-airplane1.png
alexnet,1,729,NaN,clock,clock,0,0729_scg_dnn_0_clock_00_clock10-bird3.png
alexnet,1,730,NaN,clock,clock,0,0730_scg_dnn_0_clock_00_clock10-boat2.png
alexnet,1,731,NaN,clock,clock,0,0731_scg_dnn_0_clock_00_clock10-bottle1.png
alexnet,1,732,NaN,dog,clock,0,0732_scg_dnn_0_clock_00_clock10-cat1.png
alexnet,1,733,NaN,clock,clock,0,0733_scg_dnn_0_clock_00_clock10-clock3.png
alexnet,1,734,NaN,dog,clock,0,0734_scg_dnn_0_clock_00_clock10-dog3.png
alexnet,1,735,NaN,dog,clock,0,0735_scg_dnn_0_clock_00_clock10-knife3.png
alexnet,1,736,NaN,truck,clock,0,0736_scg_dnn_0_clock_00_clock10-oven2.png
alexnet,1,737,NaN,car,clock,0,0737_scg_dnn_0_clock_00_clock10-truck2.png
alexnet,1,738,NaN,clock,clock,0,0738_scg_dnn_0_clock_00_clock2-bear2.png
alexnet,1,739,NaN,clock,clock,0,0739_scg_dnn_0_clock_00_clock2-bicycle1.png
alexnet,1,740,NaN,clock,clock,0,0740_scg_dnn_0_clock_00_clock2-bottle3.png
alexnet,1,741,NaN,clock,clock,0,0741_scg_dnn_0_clock_00_clock2-clock3.png
alexnet,1,742,NaN,clock,clock,0,0742_scg_dnn_0_clock_00_clock2-dog1.png
alexnet,1,743,NaN,clock,clock,0,0743_scg_dnn_0_clock_00_clock2-elephant2.png
alexnet,1,744,NaN,clock,clock,0,0744_scg_dnn_0_clock_00_clock2-knife1.png
alexnet,1,745,NaN,clock,clock,0,0745_scg_dnn_0_clock_00_clock3-bear3.png
alexnet,1,746,NaN,clock,clock,0,0746_scg_dnn_0_clock_00_clock3-bicycle2.png
alexnet,1,747,NaN,clock,clock,0,0747_scg_dnn_0_clock_00_clock3-bird1.png
alexnet,1,748,NaN,clock,clock,0,0748_scg_dnn_0_clock_00_clock3-car2.png
alexnet,1,749,NaN,clock,clock,0,0749_scg_dnn_0_clock_00_clock3-cat1.png
alexnet,1,750,NaN,clock,clock,0,0750_scg_dnn_0_clock_00_clock3-dog2.png
alexnet,1,751,NaN,clock,clock,0,0751_scg_dnn_0_clock_00_clock3-elephant3.png
alexnet,1,752,NaN,clock,clock,0,0752_scg_dnn_0_clock_00_clock3-keyboard3.png
alexnet,1,753,NaN,clock,clock,0,0753_scg_dnn_0_clock_00_clock4-airplane1.png
alexnet,1,754,NaN,clock,clock,0,0754_scg_dnn_0_clock_00_clock4-bird3.png
alexnet,1,755,NaN,clock,clock,0,0755_scg_dnn_0_clock_00_clock4-boat3.png
alexnet,1,756,NaN,clock,clock,0,0756_scg_dnn_0_clock_00_clock4-bottle3.png
alexnet,1,757,NaN,clock,clock,0,0757_scg_dnn_0_clock_00_clock4-car2.png
alexnet,1,758,NaN,car,clock,0,0758_scg_dnn_0_clock_00_clock4-chair1.png
alexnet,1,759,NaN,elephant,clock,0,0759_scg_dnn_0_clock_00_clock4-elephant2.png
alexnet,1,760,NaN,clock,clock,0,0760_scg_dnn_0_clock_00_clock4-knife1.png
alexnet,1,761,NaN,clock,clock,0,0761_scg_dnn_0_clock_00_clock4-oven1.png
alexnet,1,762,NaN,clock,clock,0,0762_scg_dnn_0_clock_00_clock5-airplane1.png
alexnet,1,763,NaN,clock,clock,0,0763_scg_dnn_0_clock_00_clock5-bicycle1.png
alexnet,1,764,NaN,clock,clock,0,0764_scg_dnn_0_clock_00_clock5-chair3.png
alexnet,1,765,NaN,clock,clock,0,0765_scg_dnn_0_clock_00_clock5-clock2.png
alexnet,1,766,NaN,clock,clock,0,0766_scg_dnn_0_clock_00_clock5-elephant2.png
alexnet,1,767,NaN,clock,clock,0,0767_scg_dnn_0_clock_00_clock5-keyboard1.png
alexnet,1,768,NaN,clock,clock,0,0768_scg_dnn_0_clock_00_clock5-oven1.png
alexnet,1,769,NaN,clock,clock,0,0769_scg_dnn_0_clock_00_clock6-bicycle1.png
alexnet,1,770,NaN,clock,clock,0,0770_scg_dnn_0_clock_00_clock6-bird3.png
alexnet,1,771,NaN,clock,clock,0,0771_scg_dnn_0_clock_00_clock6-bottle1.png
alexnet,1,772,NaN,clock,clock,0,0772_scg_dnn_0_clock_00_clock6-car2.png
alexnet,1,773,NaN,clock,clock,0,0773_scg_dnn_0_clock_00_clock6-chair3.png
alexnet,1,774,NaN,clock,clock,0,0774_scg_dnn_0_clock_00_clock6-clock2.png
alexnet,1,775,NaN,clock,clock,0,0775_scg_dnn_0_clock_00_clock6-knife2.png
alexnet,1,776,NaN,oven,clock,0,0776_scg_dnn_0_clock_00_clock6-oven1.png
alexnet,1,777,NaN,car,clock,0,0777_scg_dnn_0_clock_00_clock6-truck3.png
alexnet,1,778,NaN,clock,clock,0,0778_scg_dnn_0_clock_00_clock7-bear2.png
alexnet,1,779,NaN,clock,clock,0,0779_scg_dnn_0_clock_00_clock7-bicycle1.png
alexnet,1,780,NaN,clock,clock,0,0780_scg_dnn_0_clock_00_clock7-boat3.png
alexnet,1,781,NaN,clock,clock,0,0781_scg_dnn_0_clock_00_clock7-bottle2.png
alexnet,1,782,NaN,clock,clock,0,0782_scg_dnn_0_clock_00_clock7-car1.png
alexnet,1,783,NaN,clock,clock,0,0783_scg_dnn_0_clock_00_clock7-cat2.png
alexnet,1,784,NaN,clock,clock,0,0784_scg_dnn_0_clock_00_clock7-dog2.png
alexnet,1,785,NaN,clock,clock,0,0785_scg_dnn_0_clock_00_clock7-keyboard2.png
alexnet,1,786,NaN,clock,clock,0,0786_scg_dnn_0_clock_00_clock7-truck3.png
alexnet,1,787,NaN,clock,clock,0,0787_scg_dnn_0_clock_00_clock8-airplane2.png
alexnet,1,788,NaN,bottle,clock,0,0788_scg_dnn_0_clock_00_clock8-bear2.png
alexnet,1,789,NaN,clock,clock,0,0789_scg_dnn_0_clock_00_clock8-boat1.png
alexnet,1,790,NaN,dog,clock,0,0790_scg_dnn_0_clock_00_clock8-cat1.png
alexnet,1,791,NaN,clock,clock,0,0791_scg_dnn_0_clock_00_clock8-chair2.png
alexnet,1,792,NaN,clock,clock,0,0792_scg_dnn_0_clock_00_clock8-keyboard1.png
alexnet,1,793,NaN,clock,clock,0,0793_scg_dnn_0_clock_00_clock8-knife1.png
alexnet,1,794,NaN,clock,clock,0,0794_scg_dnn_0_clock_00_clock8-oven3.png
alexnet,1,795,NaN,car,clock,0,0795_scg_dnn_0_clock_00_clock8-truck2.png
alexnet,1,796,NaN,clock,clock,0,0796_scg_dnn_0_clock_00_clock9-airplane1.png
alexnet,1,797,NaN,clock,clock,0,0797_scg_dnn_0_clock_00_clock9-bird2.png
alexnet,1,798,NaN,dog,clock,0,0798_scg_dnn_0_clock_00_clock9-cat1.png
alexnet,1,799,NaN,clock,clock,0,0799_scg_dnn_0_clock_00_clock9-chair3.png
alexnet,1,800,NaN,keyboard,clock,0,0800_scg_dnn_0_clock_00_clock9-keyboard2.png
alexnet,1,801,NaN,bottle,dog,0,0801_scg_dnn_0_dog_00_dog1-airplane3.png
alexnet,1,802,NaN,bear,dog,0,0802_scg_dnn_0_dog_00_dog1-bear1.png
alexnet,1,803,NaN,dog,dog,0,0803_scg_dnn_0_dog_00_dog1-bird1.png
alexnet,1,804,NaN,bottle,dog,0,0804_scg_dnn_0_dog_00_dog1-boat3.png
alexnet,1,805,NaN,boat,dog,0,0805_scg_dnn_0_dog_00_dog1-car2.png
alexnet,1,806,NaN,dog,dog,0,0806_scg_dnn_0_dog_00_dog1-cat3.png
alexnet,1,807,NaN,chair,dog,0,0807_scg_dnn_0_dog_00_dog1-chair1.png
alexnet,1,808,NaN,dog,dog,0,0808_scg_dnn_0_dog_00_dog1-dog2.png
alexnet,1,809,NaN,knife,dog,0,0809_scg_dnn_0_dog_00_dog1-knife3.png
alexnet,1,810,NaN,knife,dog,0,0810_scg_dnn_0_dog_00_dog10-airplane1.png
alexnet,1,811,NaN,bicycle,dog,0,0811_scg_dnn_0_dog_00_dog10-bicycle1.png
alexnet,1,812,NaN,bottle,dog,0,0812_scg_dnn_0_dog_00_dog10-bottle1.png
alexnet,1,813,NaN,bicycle,dog,0,0813_scg_dnn_0_dog_00_dog10-car3.png
alexnet,1,814,NaN,dog,dog,0,0814_scg_dnn_0_dog_00_dog10-clock1.png
alexnet,1,815,NaN,dog,dog,0,0815_scg_dnn_0_dog_00_dog10-dog1.png
alexnet,1,816,NaN,cat,dog,0,0816_scg_dnn_0_dog_00_dog10-elephant1.png
alexnet,1,817,NaN,keyboard,dog,0,0817_scg_dnn_0_dog_00_dog10-keyboard2.png
alexnet,1,818,NaN,truck,dog,0,0818_scg_dnn_0_dog_00_dog10-oven2.png
alexnet,1,819,NaN,chair,dog,0,0819_scg_dnn_0_dog_00_dog10-truck2.png
alexnet,1,820,NaN,truck,dog,0,0820_scg_dnn_0_dog_00_dog2-airplane2.png
alexnet,1,821,NaN,bicycle,dog,0,0821_scg_dnn_0_dog_00_dog2-bicycle2.png
alexnet,1,822,NaN,bottle,dog,0,0822_scg_dnn_0_dog_00_dog2-bottle2.png
alexnet,1,823,NaN,dog,dog,0,0823_scg_dnn_0_dog_00_dog2-cat1.png
alexnet,1,824,NaN,dog,dog,0,0824_scg_dnn_0_dog_00_dog2-dog3.png
alexnet,1,825,NaN,dog,dog,0,0825_scg_dnn_0_dog_00_dog2-knife3.png
alexnet,1,826,NaN,bird,dog,0,0826_scg_dnn_0_dog_00_dog3-bear3.png
alexnet,1,827,NaN,dog,dog,0,0827_scg_dnn_0_dog_00_dog3-bird2.png
alexnet,1,828,NaN,bottle,dog,0,0828_scg_dnn_0_dog_00_dog3-boat1.png
alexnet,1,829,NaN,elephant,dog,0,0829_scg_dnn_0_dog_00_dog3-clock1.png
alexnet,1,830,NaN,dog,dog,0,0830_scg_dnn_0_dog_00_dog3-dog1.png
alexnet,1,831,NaN,elephant,dog,0,0831_scg_dnn_0_dog_00_dog3-elephant2.png
alexnet,1,832,NaN,dog,dog,0,0832_scg_dnn_0_dog_00_dog3-keyboard1.png
alexnet,1,833,NaN,dog,dog,0,0833_scg_dnn_0_dog_00_dog3-knife3.png
alexnet,1,834,NaN,chair,dog,0,0834_scg_dnn_0_dog_00_dog3-truck2.png
alexnet,1,835,NaN,bottle,dog,0,0835_scg_dnn_0_dog_00_dog4-airplane3.png
alexnet,1,836,NaN,bicycle,dog,0,0836_scg_dnn_0_dog_00_dog4-bicycle1.png
alexnet,1,837,NaN,dog,dog,0,0837_scg_dnn_0_dog_00_dog4-bird1.png
alexnet,1,838,NaN,bicycle,dog,0,0838_scg_dnn_0_dog_00_dog4-bottle2.png
alexnet,1,839,NaN,dog,dog,0,0839_scg_dnn_0_dog_00_dog4-cat3.png
alexnet,1,840,NaN,chair,dog,0,0840_scg_dnn_0_dog_00_dog4-chair1.png
alexnet,1,841,NaN,bird,dog,0,0841_scg_dnn_0_dog_00_dog4-clock1.png
alexnet,1,842,NaN,elephant,dog,0,0842_scg_dnn_0_dog_00_dog4-elephant2.png
alexnet,1,843,NaN,clock,dog,0,0843_scg_dnn_0_dog_00_dog4-keyboard2.png
alexnet,1,844,NaN,bottle,dog,0,0844_scg_dnn_0_dog_00_dog4-oven1.png
alexnet,1,845,NaN,truck,dog,0,0845_scg_dnn_0_dog_00_dog4-truck2.png
alexnet,1,846,NaN,dog,dog,0,0846_scg_dnn_0_dog_00_dog5-bear3.png
alexnet,1,847,NaN,truck,dog,0,0847_scg_dnn_0_dog_00_dog5-boat3.png
alexnet,1,848,NaN,bicycle,dog,0,0848_scg_dnn_0_dog_00_dog5-car3.png
alexnet,1,849,NaN,dog,dog,0,0849_scg_dnn_0_dog_00_dog5-elephant1.png
alexnet,1,850,NaN,chair,dog,0,0850_scg_dnn_0_dog_00_dog5-knife2.png
alexnet,1,851,NaN,oven,dog,0,0851_scg_dnn_0_dog_00_dog5-oven1.png
alexnet,1,852,NaN,truck,dog,0,0852_scg_dnn_0_dog_00_dog5-truck2.png
alexnet,1,853,NaN,bicycle,dog,0,0853_scg_dnn_0_dog_00_dog6-bicycle1.png
alexnet,1,854,NaN,dog,dog,0,0854_scg_dnn_0_dog_00_dog6-bird1.png
alexnet,1,855,NaN,dog,dog,0,0855_scg_dnn_0_dog_00_dog6-cat1.png
alexnet,1,856,NaN,dog,dog,0,0856_scg_dnn_0_dog_00_dog6-clock1.png
alexnet,1,857,NaN,elephant,dog,0,0857_scg_dnn_0_dog_00_dog6-elephant2.png
alexnet,1,858,NaN,truck,dog,0,0858_scg_dnn_0_dog_00_dog6-truck2.png
alexnet,1,859,NaN,dog,dog,0,0859_scg_dnn_0_dog_00_dog7-bird3.png
alexnet,1,860,NaN,bicycle,dog,0,0860_scg_dnn_0_dog_00_dog7-car2.png
alexnet,1,861,NaN,chair,dog,0,0861_scg_dnn_0_dog_00_dog7-chair2.png
alexnet,1,862,NaN,bottle,dog,0,0862_scg_dnn_0_dog_00_dog7-keyboard3.png
alexnet,1,863,NaN,knife,dog,0,0863_scg_dnn_0_dog_00_dog7-knife3.png
alexnet,1,864,NaN,truck,dog,0,0864_scg_dnn_0_dog_00_dog7-oven2.png
alexnet,1,865,NaN,dog,dog,0,0865_scg_dnn_0_dog_00_dog8-bear3.png
alexnet,1,866,NaN,truck,dog,0,0866_scg_dnn_0_dog_00_dog8-boat3.png
alexnet,1,867,NaN,bicycle,dog,0,0867_scg_dnn_0_dog_00_dog8-bottle2.png
alexnet,1,868,NaN,dog,dog,0,0868_scg_dnn_0_dog_00_dog8-chair3.png
alexnet,1,869,NaN,bicycle,dog,0,0869_scg_dnn_0_dog_00_dog8-clock2.png
alexnet,1,870,NaN,dog,dog,0,0870_scg_dnn_0_dog_00_dog8-dog3.png
alexnet,1,871,NaN,bottle,dog,0,0871_scg_dnn_0_dog_00_dog8-keyboard3.png
alexnet,1,872,NaN,knife,dog,0,0872_scg_dnn_0_dog_00_dog8-oven3.png
alexnet,1,873,NaN,bottle,dog,0,0873_scg_dnn_0_dog_00_dog9-airplane3.png
alexnet,1,874,NaN,dog,dog,0,0874_scg_dnn_0_dog_00_dog9-bear3.png
alexnet,1,875,NaN,bird,dog,0,0875_scg_dnn_0_dog_00_dog9-bicycle3.png
alexnet,1,876,NaN,chair,dog,0,0876_scg_dnn_0_dog_00_dog9-boat1.png
alexnet,1,877,NaN,clock,dog,0,0877_scg_dnn_0_dog_00_dog9-bottle1.png
alexnet,1,878,NaN,chair,dog,0,0878_scg_dnn_0_dog_00_dog9-car1.png
alexnet,1,879,NaN,dog,dog,0,0879_scg_dnn_0_dog_00_dog9-cat1.png
alexnet,1,880,NaN,chair,dog,0,0880_scg_dnn_0_dog_00_dog9-chair2.png
alexnet,1,881,NaN,bottle,elephant,0,0881_scg_dnn_0_elephant_00_elephant1-airplane2.png
alexnet,1,882,NaN,elephant,elephant,0,0882_scg_dnn_0_elephant_00_elephant1-bear2.png
alexnet,1,883,NaN,truck,elephant,0,0883_scg_dnn_0_elephant_00_elephant1-boat2.png
alexnet,1,884,NaN,clock,elephant,0,0884_scg_dnn_0_elephant_00_elephant1-bottle1.png
alexnet,1,885,NaN,bicycle,elephant,0,0885_scg_dnn_0_elephant_00_elephant1-car3.png
alexnet,1,886,NaN,chair,elephant,0,0886_scg_dnn_0_elephant_00_elephant1-chair1.png
alexnet,1,887,NaN,dog,elephant,0,0887_scg_dnn_0_elephant_00_elephant1-dog2.png
alexnet,1,888,NaN,chair,elephant,0,0888_scg_dnn_0_elephant_00_elephant1-keyboard3.png
alexnet,1,889,NaN,truck,elephant,0,0889_scg_dnn_0_elephant_00_elephant1-oven2.png
alexnet,1,890,NaN,bear,elephant,0,0890_scg_dnn_0_elephant_00_elephant10-bear1.png
alexnet,1,891,NaN,elephant,elephant,0,0891_scg_dnn_0_elephant_00_elephant10-elephant1.png
alexnet,1,892,NaN,bicycle,elephant,0,0892_scg_dnn_0_elephant_00_elephant10-keyboard1.png
alexnet,1,893,NaN,dog,elephant,0,0893_scg_dnn_0_elephant_00_elephant10-knife3.png
alexnet,1,894,NaN,bottle,elephant,0,0894_scg_dnn_0_elephant_00_elephant2-airplane3.png
alexnet,1,895,NaN,dog,elephant,0,0895_scg_dnn_0_elephant_00_elephant2-bear3.png
alexnet,1,896,NaN,bird,elephant,0,0896_scg_dnn_0_elephant_00_elephant2-bird1.png
alexnet,1,897,NaN,bottle,elephant,0,0897_scg_dnn_0_elephant_00_elephant2-boat1.png
alexnet,1,898,NaN,bottle,elephant,0,0898_scg_dnn_0_elephant_00_elephant2-bottle3.png
alexnet,1,899,NaN,dog,elephant,0,0899_scg_dnn_0_elephant_00_elephant2-cat1.png
alexnet,1,900,NaN,clock,elephant,0,0900_scg_dnn_0_elephant_00_elephant2-clock1.png
alexnet,1,901,NaN,elephant,elephant,0,0901_scg_dnn_0_elephant_00_elephant2-elephant3.png
alexnet,1,902,NaN,bottle,elephant,0,0902_scg_dnn_0_elephant_00_elephant2-keyboard3.png
alexnet,1,903,NaN,bottle,elephant,0,0903_scg_dnn_0_elephant_00_elephant2-truck2.png
alexnet,1,904,NaN,cat,elephant,0,0904_scg_dnn_0_elephant_00_elephant3-cat2.png
alexnet,1,905,NaN,chair,elephant,0,0905_scg_dnn_0_elephant_00_elephant3-chair1.png
alexnet,1,906,NaN,chair,elephant,0,0906_scg_dnn_0_elephant_00_elephant3-keyboard2.png
alexnet,1,907,NaN,dog,elephant,0,0907_scg_dnn_0_elephant_00_elephant3-knife1.png
alexnet,1,908,NaN,bottle,elephant,0,0908_scg_dnn_0_elephant_00_elephant3-oven1.png
alexnet,1,909,NaN,chair,elephant,0,0909_scg_dnn_0_elephant_00_elephant3-truck1.png
alexnet,1,910,NaN,bicycle,elephant,0,0910_scg_dnn_0_elephant_00_elephant4-bicycle2.png
alexnet,1,911,NaN,bear,elephant,0,0911_scg_dnn_0_elephant_00_elephant4-bird1.png
alexnet,1,912,NaN,truck,elephant,0,0912_scg_dnn_0_elephant_00_elephant4-boat3.png
alexnet,1,913,NaN,bird,elephant,0,0913_scg_dnn_0_elephant_00_elephant4-car3.png
alexnet,1,914,NaN,airplane,elephant,0,0914_scg_dnn_0_elephant_00_elephant4-chair3.png
alexnet,1,915,NaN,dog,elephant,0,0915_scg_dnn_0_elephant_00_elephant4-clock3.png
alexnet,1,916,NaN,chair,elephant,0,0916_scg_dnn_0_elephant_00_elephant4-oven1.png
alexnet,1,917,NaN,bear,elephant,0,0917_scg_dnn_0_elephant_00_elephant5-bear2.png
alexnet,1,918,NaN,bird,elephant,0,0918_scg_dnn_0_elephant_00_elephant5-bicycle3.png
alexnet,1,919,NaN,bottle,elephant,0,0919_scg_dnn_0_elephant_00_elephant5-bottle2.png
alexnet,1,920,NaN,bicycle,elephant,0,0920_scg_dnn_0_elephant_00_elephant5-car1.png
alexnet,1,921,NaN,airplane,elephant,0,0921_scg_dnn_0_elephant_00_elephant5-chair3.png
alexnet,1,922,NaN,elephant,elephant,0,0922_scg_dnn_0_elephant_00_elephant5-elephant1.png
alexnet,1,923,NaN,car,elephant,0,0923_scg_dnn_0_elephant_00_elephant5-truck1.png
alexnet,1,924,NaN,bicycle,elephant,0,0924_scg_dnn_0_elephant_00_elephant6-bicycle1.png
alexnet,1,925,NaN,bird,elephant,0,0925_scg_dnn_0_elephant_00_elephant6-bird1.png
alexnet,1,926,NaN,bicycle,elephant,0,0926_scg_dnn_0_elephant_00_elephant6-bottle2.png
alexnet,1,927,NaN,bicycle,elephant,0,0927_scg_dnn_0_elephant_00_elephant6-car3.png
alexnet,1,928,NaN,cat,elephant,0,0928_scg_dnn_0_elephant_00_elephant6-cat2.png
alexnet,1,929,NaN,dog,elephant,0,0929_scg_dnn_0_elephant_00_elephant6-dog2.png
alexnet,1,930,NaN,oven,elephant,0,0930_scg_dnn_0_elephant_00_elephant6-knife2.png
alexnet,1,931,NaN,oven,elephant,0,0931_scg_dnn_0_elephant_00_elephant6-oven1.png
alexnet,1,932,NaN,chair,elephant,0,0932_scg_dnn_0_elephant_00_elephant6-truck3.png
alexnet,1,933,NaN,dog,elephant,0,0933_scg_dnn_0_elephant_00_elephant7-airplane3.png
alexnet,1,934,NaN,dog,elephant,0,0934_scg_dnn_0_elephant_00_elephant7-bear3.png
alexnet,1,935,NaN,bird,elephant,0,0935_scg_dnn_0_elephant_00_elephant7-bird1.png
alexnet,1,936,NaN,bird,elephant,0,0936_scg_dnn_0_elephant_00_elephant7-bottle3.png
alexnet,1,937,NaN,bird,elephant,0,0937_scg_dnn_0_elephant_00_elephant7-car3.png
alexnet,1,938,NaN,dog,elephant,0,0938_scg_dnn_0_elephant_00_elephant7-cat1.png
alexnet,1,939,NaN,cat,elephant,0,0939_scg_dnn_0_elephant_00_elephant7-clock2.png
alexnet,1,940,NaN,dog,elephant,0,0940_scg_dnn_0_elephant_00_elephant7-dog1.png
alexnet,1,941,NaN,keyboard,elephant,0,0941_scg_dnn_0_elephant_00_elephant7-keyboard3.png
alexnet,1,942,NaN,oven,elephant,0,0942_scg_dnn_0_elephant_00_elephant7-knife2.png
alexnet,1,943,NaN,chair,elephant,0,0943_scg_dnn_0_elephant_00_elephant8-airplane3.png
alexnet,1,944,NaN,bird,elephant,0,0944_scg_dnn_0_elephant_00_elephant8-bicycle3.png
alexnet,1,945,NaN,elephant,elephant,0,0945_scg_dnn_0_elephant_00_elephant8-bird2.png
alexnet,1,946,NaN,boat,elephant,0,0946_scg_dnn_0_elephant_00_elephant8-boat2.png
alexnet,1,947,NaN,dog,elephant,0,0947_scg_dnn_0_elephant_00_elephant8-cat1.png
alexnet,1,948,NaN,dog,elephant,0,0948_scg_dnn_0_elephant_00_elephant8-clock2.png
alexnet,1,949,NaN,dog,elephant,0,0949_scg_dnn_0_elephant_00_elephant8-dog1.png
alexnet,1,950,NaN,elephant,elephant,0,0950_scg_dnn_0_elephant_00_elephant8-elephant1.png
alexnet,1,951,NaN,chair,elephant,0,0951_scg_dnn_0_elephant_00_elephant8-knife2.png
alexnet,1,952,NaN,elephant,elephant,0,0952_scg_dnn_0_elephant_00_elephant8-oven3.png
alexnet,1,953,NaN,bottle,elephant,0,0953_scg_dnn_0_elephant_00_elephant8-truck3.png
alexnet,1,954,NaN,chair,elephant,0,0954_scg_dnn_0_elephant_00_elephant9-airplane2.png
alexnet,1,955,NaN,bicycle,elephant,0,0955_scg_dnn_0_elephant_00_elephant9-bicycle2.png
alexnet,1,956,NaN,truck,elephant,0,0956_scg_dnn_0_elephant_00_elephant9-boat3.png
alexnet,1,957,NaN,chair,elephant,0,0957_scg_dnn_0_elephant_00_elephant9-chair2.png
alexnet,1,958,NaN,dog,elephant,0,0958_scg_dnn_0_elephant_00_elephant9-clock3.png
alexnet,1,959,NaN,dog,elephant,0,0959_scg_dnn_0_elephant_00_elephant9-dog3.png
alexnet,1,960,NaN,elephant,elephant,0,0960_scg_dnn_0_elephant_00_elephant9-elephant3.png
alexnet,1,961,NaN,car,keyboard,0,0961_scg_dnn_0_keyboard_00_keyboard1-airplane2.png
alexnet,1,962,NaN,bear,keyboard,0,0962_scg_dnn_0_keyboard_00_keyboard1-bear2.png
alexnet,1,963,NaN,dog,keyboard,0,0963_scg_dnn_0_keyboard_00_keyboard1-bird2.png
alexnet,1,964,NaN,truck,keyboard,0,0964_scg_dnn_0_keyboard_00_keyboard1-car3.png
alexnet,1,965,NaN,bottle,keyboard,0,0965_scg_dnn_0_keyboard_00_keyboard1-chair2.png
alexnet,1,966,NaN,dog,keyboard,0,0966_scg_dnn_0_keyboard_00_keyboard1-clock1.png
alexnet,1,967,NaN,dog,keyboard,0,0967_scg_dnn_0_keyboard_00_keyboard1-dog3.png
alexnet,1,968,NaN,dog,keyboard,0,0968_scg_dnn_0_keyboard_00_keyboard1-elephant3.png
alexnet,1,969,NaN,keyboard,keyboard,0,0969_scg_dnn_0_keyboard_00_keyboard10-airplane3.png
alexnet,1,970,NaN,boat,keyboard,0,0970_scg_dnn_0_keyboard_00_keyboard10-boat2.png
alexnet,1,971,NaN,boat,keyboard,0,0971_scg_dnn_0_keyboard_00_keyboard10-car1.png
alexnet,1,972,NaN,keyboard,keyboard,0,0972_scg_dnn_0_keyboard_00_keyboard10-keyboard1.png
alexnet,1,973,NaN,chair,keyboard,0,0973_scg_dnn_0_keyboard_00_keyboard10-oven3.png
alexnet,1,974,NaN,chair,keyboard,0,0974_scg_dnn_0_keyboard_00_keyboard10-truck1.png
alexnet,1,975,NaN,bird,keyboard,0,0975_scg_dnn_0_keyboard_00_keyboard2-bicycle3.png
alexnet,1,976,NaN,bottle,keyboard,0,0976_scg_dnn_0_keyboard_00_keyboard2-bottle1.png
alexnet,1,977,NaN,clock,keyboard,0,0977_scg_dnn_0_keyboard_00_keyboard2-clock1.png
alexnet,1,978,NaN,dog,keyboard,0,0978_scg_dnn_0_keyboard_00_keyboard2-elephant1.png
alexnet,1,979,NaN,knife,keyboard,0,0979_scg_dnn_0_keyboard_00_keyboard2-knife1.png
alexnet,1,980,NaN,chair,keyboard,0,0980_scg_dnn_0_keyboard_00_keyboard3-bicycle2.png
alexnet,1,981,NaN,bottle,keyboard,0,0981_scg_dnn_0_keyboard_00_keyboard3-bird3.png
alexnet,1,982,NaN,boat,keyboard,0,0982_scg_dnn_0_keyboard_00_keyboard3-boat1.png
alexnet,1,983,NaN,boat,keyboard,0,0983_scg_dnn_0_keyboard_00_keyboard3-car2.png
alexnet,1,984,NaN,dog,keyboard,0,0984_scg_dnn_0_keyboard_00_keyboard3-cat1.png
alexnet,1,985,NaN,bottle,keyboard,0,0985_scg_dnn_0_keyboard_00_keyboard3-clock3.png
alexnet,1,986,NaN,elephant,keyboard,0,0986_scg_dnn_0_keyboard_00_keyboard3-elephant2.png
alexnet,1,987,NaN,dog,keyboard,0,0987_scg_dnn_0_keyboard_00_keyboard4-bird1.png
alexnet,1,988,NaN,bottle,keyboard,0,0988_scg_dnn_0_keyboard_00_keyboard4-bottle2.png
alexnet,1,989,NaN,dog,keyboard,0,0989_scg_dnn_0_keyboard_00_keyboard4-cat2.png
alexnet,1,990,NaN,cat,keyboard,0,0990_scg_dnn_0_keyboard_00_keyboard4-clock2.png
alexnet,1,991,NaN,chair,keyboard,0,0991_scg_dnn_0_keyboard_00_keyboard4-keyboard2.png
alexnet,1,992,NaN,oven,keyboard,0,0992_scg_dnn_0_keyboard_00_keyboard4-knife2.png
alexnet,1,993,NaN,oven,keyboard,0,0993_scg_dnn_0_keyboard_00_keyboard4-oven2.png
alexnet,1,994,NaN,boat,keyboard,0,0994_scg_dnn_0_keyboard_00_keyboard4-truck3.png
alexnet,1,995,NaN,keyboard,keyboard,0,0995_scg_dnn_0_keyboard_00_keyboard5-airplane3.png
alexnet,1,996,NaN,dog,keyboard,0,0996_scg_dnn_0_keyboard_00_keyboard5-bear3.png
alexnet,1,997,NaN,bicycle,keyboard,0,0997_scg_dnn_0_keyboard_00_keyboard5-bicycle1.png
alexnet,1,998,NaN,bottle,keyboard,0,0998_scg_dnn_0_keyboard_00_keyboard5-bird3.png
alexnet,1,999,NaN,bottle,keyboard,0,0999_scg_dnn_0_keyboard_00_keyboard5-bottle1.png
alexnet,1,1000,NaN,dog,keyboard,0,1000_scg_dnn_0_keyboard_00_keyboard5-cat1.png
alexnet,1,1001,NaN,dog,keyboard,0,1001_scg_dnn_0_keyboard_00_keyboard5-dog3.png
alexnet,1,1002,NaN,keyboard,keyboard,0,1002_scg_dnn_0_keyboard_00_keyboard5-keyboard1.png
alexnet,1,1003,NaN,car,keyboard,0,1003_scg_dnn_0_keyboard_00_keyboard5-knife2.png
alexnet,1,1004,NaN,car,keyboard,0,1004_scg_dnn_0_keyboard_00_keyboard5-oven2.png
alexnet,1,1005,NaN,bear,keyboard,0,1005_scg_dnn_0_keyboard_00_keyboard6-bear2.png
alexnet,1,1006,NaN,bottle,keyboard,0,1006_scg_dnn_0_keyboard_00_keyboard6-bicycle1.png
alexnet,1,1007,NaN,boat,keyboard,0,1007_scg_dnn_0_keyboard_00_keyboard6-boat2.png
alexnet,1,1008,NaN,bottle,keyboard,0,1008_scg_dnn_0_keyboard_00_keyboard6-bottle2.png
alexnet,1,1009,NaN,bottle,keyboard,0,1009_scg_dnn_0_keyboard_00_keyboard6-car2.png
alexnet,1,1010,NaN,clock,keyboard,0,1010_scg_dnn_0_keyboard_00_keyboard6-chair1.png
alexnet,1,1011,NaN,dog,keyboard,0,1011_scg_dnn_0_keyboard_00_keyboard6-dog2.png
alexnet,1,1012,NaN,dog,keyboard,0,1012_scg_dnn_0_keyboard_00_keyboard6-elephant1.png
alexnet,1,1013,NaN,oven,keyboard,0,1013_scg_dnn_0_keyboard_00_keyboard6-knife2.png
alexnet,1,1014,NaN,bear,keyboard,0,1014_scg_dnn_0_keyboard_00_keyboard7-bear2.png
alexnet,1,1015,NaN,boat,keyboard,0,1015_scg_dnn_0_keyboard_00_keyboard7-boat2.png
alexnet,1,1016,NaN,bottle,keyboard,0,1016_scg_dnn_0_keyboard_00_keyboard7-bottle1.png
alexnet,1,1017,NaN,knife,keyboard,0,1017_scg_dnn_0_keyboard_00_keyboard7-car3.png
alexnet,1,1018,NaN,airplane,keyboard,0,1018_scg_dnn_0_keyboard_00_keyboard7-chair3.png
alexnet,1,1019,NaN,cat,keyboard,0,1019_scg_dnn_0_keyboard_00_keyboard7-clock3.png
alexnet,1,1020,NaN,dog,keyboard,0,1020_scg_dnn_0_keyboard_00_keyboard7-dog1.png
alexnet,1,1021,NaN,knife,keyboard,0,1021_scg_dnn_0_keyboard_00_keyboard7-knife1.png
alexnet,1,1022,NaN,truck,keyboard,0,1022_scg_dnn_0_keyboard_00_keyboard7-oven2.png
alexnet,1,1023,NaN,car,keyboard,0,1023_scg_dnn_0_keyboard_00_keyboard7-truck2.png
alexnet,1,1024,NaN,chair,keyboard,0,1024_scg_dnn_0_keyboard_00_keyboard8-airplane2.png
alexnet,1,1025,NaN,bottle,keyboard,0,1025_scg_dnn_0_keyboard_00_keyboard8-cat3.png
alexnet,1,1026,NaN,oven,keyboard,0,1026_scg_dnn_0_keyboard_00_keyboard8-chair2.png
alexnet,1,1027,NaN,dog,keyboard,0,1027_scg_dnn_0_keyboard_00_keyboard8-dog3.png
alexnet,1,1028,NaN,keyboard,keyboard,0,1028_scg_dnn_0_keyboard_00_keyboard8-keyboard2.png
alexnet,1,1029,NaN,keyboard,keyboard,0,1029_scg_dnn_0_keyboard_00_keyboard8-oven1.png
alexnet,1,1030,NaN,truck,keyboard,0,1030_scg_dnn_0_keyboard_00_keyboard8-truck3.png
alexnet,1,1031,NaN,car,keyboard,0,1031_scg_dnn_0_keyboard_00_keyboard9-airplane3.png
alexnet,1,1032,NaN,bear,keyboard,0,1032_scg_dnn_0_keyboard_00_keyboard9-bear2.png
alexnet,1,1033,NaN,bird,keyboard,0,1033_scg_dnn_0_keyboard_00_keyboard9-bicycle2.png
alexnet,1,1034,NaN,bird,keyboard,0,1034_scg_dnn_0_keyboard_00_keyboard9-bird1.png
alexnet,1,1035,NaN,boat,keyboard,0,1035_scg_dnn_0_keyboard_00_keyboard9-boat2.png
alexnet,1,1036,NaN,dog,keyboard,0,1036_scg_dnn_0_keyboard_00_keyboard9-cat1.png
alexnet,1,1037,NaN,keyboard,keyboard,0,1037_scg_dnn_0_keyboard_00_keyboard9-chair2.png
alexnet,1,1038,NaN,elephant,keyboard,0,1038_scg_dnn_0_keyboard_00_keyboard9-elephant2.png
alexnet,1,1039,NaN,keyboard,keyboard,0,1039_scg_dnn_0_keyboard_00_keyboard9-keyboard2.png
alexnet,1,1040,NaN,boat,keyboard,0,1040_scg_dnn_0_keyboard_00_keyboard9-truck3.png
alexnet,1,1041,NaN,bird,knife,0,1041_scg_dnn_0_knife_00_knife1-airplane1.png
alexnet,1,1042,NaN,bird,knife,0,1042_scg_dnn_0_knife_00_knife1-bird2.png
alexnet,1,1043,NaN,bird,knife,0,1043_scg_dnn_0_knife_00_knife1-car3.png
alexnet,1,1044,NaN,chair,knife,0,1044_scg_dnn_0_knife_00_knife1-chair1.png
alexnet,1,1045,NaN,bottle,knife,0,1045_scg_dnn_0_knife_00_knife1-clock2.png
alexnet,1,1046,NaN,dog,knife,0,1046_scg_dnn_0_knife_00_knife1-dog1.png
alexnet,1,1047,NaN,elephant,knife,0,1047_scg_dnn_0_knife_00_knife1-elephant1.png
alexnet,1,1048,NaN,knife,knife,0,1048_scg_dnn_0_knife_00_knife1-keyboard3.png
alexnet,1,1049,NaN,knife,knife,0,1049_scg_dnn_0_knife_00_knife1-oven1.png
alexnet,1,1050,NaN,bird,knife,0,1050_scg_dnn_0_knife_00_knife1-truck2.png
alexnet,1,1051,NaN,dog,knife,0,1051_scg_dnn_0_knife_00_knife10-bear3.png
alexnet,1,1052,NaN,bird,knife,0,1052_scg_dnn_0_knife_00_knife10-chair1.png
alexnet,1,1053,NaN,dog,knife,0,1053_scg_dnn_0_knife_00_knife10-dog1.png
alexnet,1,1054,NaN,elephant,knife,0,1054_scg_dnn_0_knife_00_knife10-elephant3.png
alexnet,1,1055,NaN,knife,knife,0,1055_scg_dnn_0_knife_00_knife10-keyboard3.png
alexnet,1,1056,NaN,knife,knife,0,1056_scg_dnn_0_knife_00_knife10-knife1.png
alexnet,1,1057,NaN,chair,knife,0,1057_scg_dnn_0_knife_00_knife10-oven3.png
alexnet,1,1058,NaN,dog,knife,0,1058_scg_dnn_0_knife_00_knife2-bear2.png
alexnet,1,1059,NaN,bird,knife,0,1059_scg_dnn_0_knife_00_knife2-bicycle3.png
alexnet,1,1060,NaN,bottle,knife,0,1060_scg_dnn_0_knife_00_knife2-bird1.png
alexnet,1,1061,NaN,bottle,knife,0,1061_scg_dnn_0_knife_00_knife2-bottle2.png
alexnet,1,1062,NaN,bird,knife,0,1062_scg_dnn_0_knife_00_knife2-car3.png
alexnet,1,1063,NaN,bird,knife,0,1063_scg_dnn_0_knife_00_knife2-cat3.png
alexnet,1,1064,NaN,dog,knife,0,1064_scg_dnn_0_knife_00_knife2-dog1.png
alexnet,1,1065,NaN,elephant,knife,0,1065_scg_dnn_0_knife_00_knife2-elephant2.png
alexnet,1,1066,NaN,chair,knife,0,1066_scg_dnn_0_knife_00_knife2-truck2.png
alexnet,1,1067,NaN,bear,knife,0,1067_scg_dnn_0_knife_00_knife3-bear2.png
alexnet,1,1068,NaN,cat,knife,0,1068_scg_dnn_0_knife_00_knife3-cat1.png
alexnet,1,1069,NaN,clock,knife,0,1069_scg_dnn_0_knife_00_knife3-clock2.png
alexnet,1,1070,NaN,knife,knife,0,1070_scg_dnn_0_knife_00_knife3-keyboard3.png
alexnet,1,1071,NaN,knife,knife,0,1071_scg_dnn_0_knife_00_knife3-knife1.png
alexnet,1,1072,NaN,airplane,knife,0,1072_scg_dnn_0_knife_00_knife4-airplane3.png
alexnet,1,1073,NaN,bear,knife,0,1073_scg_dnn_0_knife_00_knife4-bear1.png
alexnet,1,1074,NaN,chair,knife,0,1074_scg_dnn_0_knife_00_knife4-boat1.png
alexnet,1,1075,NaN,bicycle,knife,0,1075_scg_dnn_0_knife_00_knife4-car2.png
alexnet,1,1076,NaN,dog,knife,0,1076_scg_dnn_0_knife_00_knife4-cat2.png
alexnet,1,1077,NaN,bottle,knife,0,1077_scg_dnn_0_knife_00_knife4-clock3.png
alexnet,1,1078,NaN,bicycle,knife,0,1078_scg_dnn_0_knife_00_knife4-keyboard1.png
alexnet,1,1079,NaN,bottle,knife,0,1079_scg_dnn_0_knife_00_knife4-knife2.png
alexnet,1,1080,NaN,truck,knife,0,1080_scg_dnn_0_knife_00_knife4-oven2.png
alexnet,1,1081,NaN,bird,knife,0,1081_scg_dnn_0_knife_00_knife5-bicycle2.png
alexnet,1,1082,NaN,bear,knife,0,1082_scg_dnn_0_knife_00_knife5-cat2.png
alexnet,1,1083,NaN,dog,knife,0,1083_scg_dnn_0_knife_00_knife5-clock1.png
alexnet,1,1084,NaN,dog,knife,0,1084_scg_dnn_0_knife_00_knife5-dog1.png
alexnet,1,1085,NaN,knife,knife,0,1085_scg_dnn_0_knife_00_knife5-keyboard3.png
alexnet,1,1086,NaN,knife,knife,0,1086_scg_dnn_0_knife_00_knife5-knife3.png
alexnet,1,1087,NaN,oven,knife,0,1087_scg_dnn_0_knife_00_knife5-oven2.png
alexnet,1,1088,NaN,bottle,knife,0,1088_scg_dnn_0_knife_00_knife5-truck3.png
alexnet,1,1089,NaN,clock,knife,0,1089_scg_dnn_0_knife_00_knife6-airplane1.png
alexnet,1,1090,NaN,cat,knife,0,1090_scg_dnn_0_knife_00_knife6-bicycle1.png
alexnet,1,1091,NaN,airplane,knife,0,1091_scg_dnn_0_knife_00_knife6-bird1.png
alexnet,1,1092,NaN,bottle,knife,0,1092_scg_dnn_0_knife_00_knife6-boat3.png
alexnet,1,1093,NaN,bottle,knife,0,1093_scg_dnn_0_knife_00_knife6-bottle3.png
alexnet,1,1094,NaN,chair,knife,0,1094_scg_dnn_0_knife_00_knife6-chair3.png
alexnet,1,1095,NaN,bottle,knife,0,1095_scg_dnn_0_knife_00_knife6-clock2.png
alexnet,1,1096,NaN,cat,knife,0,1096_scg_dnn_0_knife_00_knife6-dog2.png
alexnet,1,1097,NaN,knife,knife,0,1097_scg_dnn_0_knife_00_knife6-knife1.png
alexnet,1,1098,NaN,chair,knife,0,1098_scg_dnn_0_knife_00_knife6-oven3.png
alexnet,1,1099,NaN,chair,knife,0,1099_scg_dnn_0_knife_00_knife6-truck1.png
alexnet,1,1100,NaN,bottle,knife,0,1100_scg_dnn_0_knife_00_knife7-airplane3.png
alexnet,1,1101,NaN,bottle,knife,0,1101_scg_dnn_0_knife_00_knife7-bird3.png
alexnet,1,1102,NaN,truck,knife,0,1102_scg_dnn_0_knife_00_knife7-boat3.png
alexnet,1,1103,NaN,bird,knife,0,1103_scg_dnn_0_knife_00_knife7-bottle3.png
alexnet,1,1104,NaN,bird,knife,0,1104_scg_dnn_0_knife_00_knife7-car2.png
alexnet,1,1105,NaN,chair,knife,0,1105_scg_dnn_0_knife_00_knife7-chair2.png
alexnet,1,1106,NaN,elephant,knife,0,1106_scg_dnn_0_knife_00_knife7-elephant2.png
alexnet,1,1107,NaN,bicycle,knife,0,1107_scg_dnn_0_knife_00_knife8-bicycle1.png
alexnet,1,1108,NaN,boat,knife,0,1108_scg_dnn_0_knife_00_knife8-boat1.png
alexnet,1,1109,NaN,bottle,knife,0,1109_scg_dnn_0_knife_00_knife8-bottle3.png
alexnet,1,1110,NaN,knife,knife,0,1110_scg_dnn_0_knife_00_knife8-car2.png
alexnet,1,1111,NaN,bird,knife,0,1111_scg_dnn_0_knife_00_knife8-cat2.png
alexnet,1,1112,NaN,truck,knife,0,1112_scg_dnn_0_knife_00_knife8-truck3.png
alexnet,1,1113,NaN,chair,knife,0,1113_scg_dnn_0_knife_00_knife9-airplane2.png
alexnet,1,1114,NaN,bird,knife,0,1114_scg_dnn_0_knife_00_knife9-bear3.png
alexnet,1,1115,NaN,bottle,knife,0,1115_scg_dnn_0_knife_00_knife9-bicycle1.png
alexnet,1,1116,NaN,bird,knife,0,1116_scg_dnn_0_knife_00_knife9-bird1.png
alexnet,1,1117,NaN,bottle,knife,0,1117_scg_dnn_0_knife_00_knife9-boat1.png
alexnet,1,1118,NaN,bottle,knife,0,1118_scg_dnn_0_knife_00_knife9-bottle2.png
alexnet,1,1119,NaN,bird,knife,0,1119_scg_dnn_0_knife_00_knife9-chair1.png
alexnet,1,1120,NaN,elephant,knife,0,1120_scg_dnn_0_knife_00_knife9-elephant2.png
alexnet,1,1121,NaN,oven,oven,0,1121_scg_dnn_0_oven_00_oven1-bird3.png
alexnet,1,1122,NaN,truck,oven,0,1122_scg_dnn_0_oven_00_oven1-boat3.png
alexnet,1,1123,NaN,dog,oven,0,1123_scg_dnn_0_oven_00_oven1-cat1.png
alexnet,1,1124,NaN,keyboard,oven,0,1124_scg_dnn_0_oven_00_oven1-clock3.png
alexnet,1,1125,NaN,dog,oven,0,1125_scg_dnn_0_oven_00_oven1-dog3.png
alexnet,1,1126,NaN,chair,oven,0,1126_scg_dnn_0_oven_00_oven10-airplane2.png
alexnet,1,1127,NaN,bear,oven,0,1127_scg_dnn_0_oven_00_oven10-bear1.png
alexnet,1,1128,NaN,bicycle,oven,0,1128_scg_dnn_0_oven_00_oven10-bicycle1.png
alexnet,1,1129,NaN,oven,oven,0,1129_scg_dnn_0_oven_00_oven10-boat2.png
alexnet,1,1130,NaN,cat,oven,0,1130_scg_dnn_0_oven_00_oven10-cat2.png
alexnet,1,1131,NaN,oven,oven,0,1131_scg_dnn_0_oven_00_oven10-oven3.png
alexnet,1,1132,NaN,truck,oven,0,1132_scg_dnn_0_oven_00_oven10-truck2.png
alexnet,1,1133,NaN,dog,oven,0,1133_scg_dnn_0_oven_00_oven2-bear3.png
alexnet,1,1134,NaN,bicycle,oven,0,1134_scg_dnn_0_oven_00_oven2-bicycle1.png
alexnet,1,1135,NaN,clock,oven,0,1135_scg_dnn_0_oven_00_oven2-bird2.png
alexnet,1,1136,NaN,truck,oven,0,1136_scg_dnn_0_oven_00_oven2-boat3.png
alexnet,1,1137,NaN,bottle,oven,0,1137_scg_dnn_0_oven_00_oven2-bottle1.png
alexnet,1,1138,NaN,knife,oven,0,1138_scg_dnn_0_oven_00_oven2-car1.png
alexnet,1,1139,NaN,clock,oven,0,1139_scg_dnn_0_oven_00_oven2-chair1.png
alexnet,1,1140,NaN,dog,oven,0,1140_scg_dnn_0_oven_00_oven2-dog3.png
alexnet,1,1141,NaN,oven,oven,0,1141_scg_dnn_0_oven_00_oven2-oven3.png
alexnet,1,1142,NaN,clock,oven,0,1142_scg_dnn_0_oven_00_oven2-truck3.png
alexnet,1,1143,NaN,oven,oven,0,1143_scg_dnn_0_oven_00_oven3-airplane1.png
alexnet,1,1144,NaN,bear,oven,0,1144_scg_dnn_0_oven_00_oven3-bear2.png
alexnet,1,1145,NaN,truck,oven,0,1145_scg_dnn_0_oven_00_oven3-boat3.png
alexnet,1,1146,NaN,bottle,oven,0,1146_scg_dnn_0_oven_00_oven3-bottle3.png
alexnet,1,1147,NaN,oven,oven,0,1147_scg_dnn_0_oven_00_oven3-car2.png
alexnet,1,1148,NaN,cat,oven,0,1148_scg_dnn_0_oven_00_oven3-cat2.png
alexnet,1,1149,NaN,oven,oven,0,1149_scg_dnn_0_oven_00_oven3-clock3.png
alexnet,1,1150,NaN,cat,oven,0,1150_scg_dnn_0_oven_00_oven3-elephant3.png
alexnet,1,1151,NaN,oven,oven,0,1151_scg_dnn_0_oven_00_oven3-knife1.png
alexnet,1,1152,NaN,oven,oven,0,1152_scg_dnn_0_oven_00_oven3-truck1.png
alexnet,1,1153,NaN,bird,oven,0,1153_scg_dnn_0_oven_00_oven4-bicycle2.png
alexnet,1,1154,NaN,oven,oven,0,1154_scg_dnn_0_oven_00_oven4-bottle2.png
alexnet,1,1155,NaN,oven,oven,0,1155_scg_dnn_0_oven_00_oven4-car1.png
alexnet,1,1156,NaN,bottle,oven,0,1156_scg_dnn_0_oven_00_oven4-chair1.png
alexnet,1,1157,NaN,oven,oven,0,1157_scg_dnn_0_oven_00_oven4-clock2.png
alexnet,1,1158,NaN,dog,oven,0,1158_scg_dnn_0_oven_00_oven4-dog1.png
alexnet,1,1159,NaN,bird,oven,0,1159_scg_dnn_0_oven_00_oven4-elephant3.png
alexnet,1,1160,NaN,bottle,oven,0,1160_scg_dnn_0_oven_00_oven4-keyboard3.png
alexnet,1,1161,NaN,oven,oven,0,1161_scg_dnn_0_oven_00_oven4-knife2.png
alexnet,1,1162,NaN,oven,oven,0,1162_scg_dnn_0_oven_00_oven4-truck3.png
alexnet,1,1163,NaN,oven,oven,0,1163_scg_dnn_0_oven_00_oven5-airplane1.png
alexnet,1,1164,NaN,bottle,oven,0,1164_scg_dnn_0_oven_00_oven5-bicycle1.png
alexnet,1,1165,NaN,dog,oven,0,1165_scg_dnn_0_oven_00_oven5-bird1.png
alexnet,1,1166,NaN,bottle,oven,0,1166_scg_dnn_0_oven_00_oven5-bottle3.png
alexnet,1,1167,NaN,dog,oven,0,1167_scg_dnn_0_oven_00_oven5-dog3.png
alexnet,1,1168,NaN,elephant,oven,0,1168_scg_dnn_0_oven_00_oven5-elephant1.png
alexnet,1,1169,NaN,keyboard,oven,0,1169_scg_dnn_0_oven_00_oven5-keyboard2.png
alexnet,1,1170,NaN,oven,oven,0,1170_scg_dnn_0_oven_00_oven6-airplane3.png
alexnet,1,1171,NaN,elephant,oven,0,1171_scg_dnn_0_oven_00_oven6-bear2.png
alexnet,1,1172,NaN,clock,oven,0,1172_scg_dnn_0_oven_00_oven6-bicycle1.png
alexnet,1,1173,NaN,bird,oven,0,1173_scg_dnn_0_oven_00_oven6-bird1.png
alexnet,1,1174,NaN,truck,oven,0,1174_scg_dnn_0_oven_00_oven6-chair3.png
alexnet,1,1175,NaN,elephant,oven,0,1175_scg_dnn_0_oven_00_oven6-elephant2.png
alexnet,1,1176,NaN,dog,oven,0,1176_scg_dnn_0_oven_00_oven6-knife3.png
alexnet,1,1177,NaN,oven,oven,0,1177_scg_dnn_0_oven_00_oven6-oven3.png
alexnet,1,1178,NaN,oven,oven,0,1178_scg_dnn_0_oven_00_oven6-truck1.png
alexnet,1,1179,NaN,clock,oven,0,1179_scg_dnn_0_oven_00_oven7-bottle1.png
alexnet,1,1180,NaN,chair,oven,0,1180_scg_dnn_0_oven_00_oven7-car3.png
alexnet,1,1181,NaN,dog,oven,0,1181_scg_dnn_0_oven_00_oven7-cat1.png
alexnet,1,1182,NaN,car,oven,0,1182_scg_dnn_0_oven_00_oven7-clock2.png
alexnet,1,1183,NaN,dog,oven,0,1183_scg_dnn_0_oven_00_oven7-dog2.png
alexnet,1,1184,NaN,dog,oven,0,1184_scg_dnn_0_oven_00_oven7-elephant1.png
alexnet,1,1185,NaN,truck,oven,0,1185_scg_dnn_0_oven_00_oven7-keyboard1.png
alexnet,1,1186,NaN,oven,oven,0,1186_scg_dnn_0_oven_00_oven7-oven1.png
alexnet,1,1187,NaN,cat,oven,0,1187_scg_dnn_0_oven_00_oven8-cat3.png
alexnet,1,1188,NaN,keyboard,oven,0,1188_scg_dnn_0_oven_00_oven8-chair1.png
alexnet,1,1189,NaN,keyboard,oven,0,1189_scg_dnn_0_oven_00_oven8-keyboard3.png
alexnet,1,1190,NaN,oven,oven,0,1190_scg_dnn_0_oven_00_oven8-knife2.png
alexnet,1,1191,NaN,chair,oven,0,1191_scg_dnn_0_oven_00_oven9-airplane2.png
alexnet,1,1192,NaN,bear,oven,0,1192_scg_dnn_0_oven_00_oven9-bear2.png
alexnet,1,1193,NaN,oven,oven,0,1193_scg_dnn_0_oven_00_oven9-bird3.png
alexnet,1,1194,NaN,boat,oven,0,1194_scg_dnn_0_oven_00_oven9-boat2.png
alexnet,1,1195,NaN,oven,oven,0,1195_scg_dnn_0_oven_00_oven9-car2.png
alexnet,1,1196,NaN,clock,oven,0,1196_scg_dnn_0_oven_00_oven9-chair1.png
alexnet,1,1197,NaN,oven,oven,0,1197_scg_dnn_0_oven_00_oven9-clock2.png
alexnet,1,1198,NaN,oven,oven,0,1198_scg_dnn_0_oven_00_oven9-keyboard1.png
alexnet,1,1199,NaN,oven,oven,0,1199_scg_dnn_0_oven_00_oven9-knife3.png
alexnet,1,1200,NaN,oven,oven,0,1200_scg_dnn_0_oven_00_oven9-oven1.png
alexnet,1,1201,NaN,bear,truck,0,1201_scg_dnn_0_truck_00_truck1-bear1.png
alexnet,1,1202,NaN,bicycle,truck,0,1202_scg_dnn_0_truck_00_truck1-bicycle3.png
alexnet,1,1203,NaN,dog,truck,0,1203_scg_dnn_0_truck_00_truck1-bird1.png
alexnet,1,1204,NaN,truck,truck,0,1204_scg_dnn_0_truck_00_truck1-car3.png
alexnet,1,1205,NaN,dog,truck,0,1205_scg_dnn_0_truck_00_truck1-cat1.png
alexnet,1,1206,NaN,truck,truck,0,1206_scg_dnn_0_truck_00_truck1-chair2.png
alexnet,1,1207,NaN,truck,truck,0,1207_scg_dnn_0_truck_00_truck1-clock3.png
alexnet,1,1208,NaN,dog,truck,0,1208_scg_dnn_0_truck_00_truck1-dog1.png
alexnet,1,1209,NaN,truck,truck,0,1209_scg_dnn_0_truck_00_truck1-knife1.png
alexnet,1,1210,NaN,truck,truck,0,1210_scg_dnn_0_truck_00_truck10-airplane1.png
alexnet,1,1211,NaN,bicycle,truck,0,1211_scg_dnn_0_truck_00_truck10-bicycle1.png
alexnet,1,1212,NaN,truck,truck,0,1212_scg_dnn_0_truck_00_truck10-car3.png
alexnet,1,1213,NaN,truck,truck,0,1213_scg_dnn_0_truck_00_truck10-clock1.png
alexnet,1,1214,NaN,elephant,truck,0,1214_scg_dnn_0_truck_00_truck10-elephant3.png
alexnet,1,1215,NaN,truck,truck,0,1215_scg_dnn_0_truck_00_truck10-truck3.png
alexnet,1,1216,NaN,clock,truck,0,1216_scg_dnn_0_truck_00_truck2-airplane3.png
alexnet,1,1217,NaN,bicycle,truck,0,1217_scg_dnn_0_truck_00_truck2-bicycle2.png
alexnet,1,1218,NaN,bicycle,truck,0,1218_scg_dnn_0_truck_00_truck2-bird2.png
alexnet,1,1219,NaN,truck,truck,0,1219_scg_dnn_0_truck_00_truck2-boat3.png
alexnet,1,1220,NaN,bottle,truck,0,1220_scg_dnn_0_truck_00_truck2-bottle3.png
alexnet,1,1221,NaN,truck,truck,0,1221_scg_dnn_0_truck_00_truck2-car3.png
alexnet,1,1222,NaN,truck,truck,0,1222_scg_dnn_0_truck_00_truck2-chair1.png
alexnet,1,1223,NaN,bottle,truck,0,1223_scg_dnn_0_truck_00_truck2-clock1.png
alexnet,1,1224,NaN,elephant,truck,0,1224_scg_dnn_0_truck_00_truck2-elephant1.png
alexnet,1,1225,NaN,truck,truck,0,1225_scg_dnn_0_truck_00_truck2-keyboard1.png
alexnet,1,1226,NaN,truck,truck,0,1226_scg_dnn_0_truck_00_truck2-oven3.png
alexnet,1,1227,NaN,dog,truck,0,1227_scg_dnn_0_truck_00_truck3-bear3.png
alexnet,1,1228,NaN,bicycle,truck,0,1228_scg_dnn_0_truck_00_truck3-bicycle1.png
alexnet,1,1229,NaN,bird,truck,0,1229_scg_dnn_0_truck_00_truck3-bird2.png
alexnet,1,1230,NaN,truck,truck,0,1230_scg_dnn_0_truck_00_truck3-car3.png
alexnet,1,1231,NaN,dog,truck,0,1231_scg_dnn_0_truck_00_truck3-cat1.png
alexnet,1,1232,NaN,chair,truck,0,1232_scg_dnn_0_truck_00_truck3-chair2.png
alexnet,1,1233,NaN,clock,truck,0,1233_scg_dnn_0_truck_00_truck3-clock3.png
alexnet,1,1234,NaN,dog,truck,0,1234_scg_dnn_0_truck_00_truck3-dog3.png
alexnet,1,1235,NaN,knife,truck,0,1235_scg_dnn_0_truck_00_truck3-keyboard3.png
alexnet,1,1236,NaN,oven,truck,0,1236_scg_dnn_0_truck_00_truck3-knife2.png
alexnet,1,1237,NaN,truck,truck,0,1237_scg_dnn_0_truck_00_truck3-oven2.png
alexnet,1,1238,NaN,truck,truck,0,1238_scg_dnn_0_truck_00_truck4-airplane3.png
alexnet,1,1239,NaN,bear,truck,0,1239_scg_dnn_0_truck_00_truck4-bear1.png
alexnet,1,1240,NaN,truck,truck,0,1240_scg_dnn_0_truck_00_truck4-boat3.png
alexnet,1,1241,NaN,bicycle,truck,0,1241_scg_dnn_0_truck_00_truck4-bottle2.png
alexnet,1,1242,NaN,chair,truck,0,1242_scg_dnn_0_truck_00_truck4-knife1.png
alexnet,1,1243,NaN,truck,truck,0,1243_scg_dnn_0_truck_00_truck4-oven2.png
alexnet,1,1244,NaN,car,truck,0,1244_scg_dnn_0_truck_00_truck5-airplane2.png
alexnet,1,1245,NaN,bird,truck,0,1245_scg_dnn_0_truck_00_truck5-bird2.png
alexnet,1,1246,NaN,truck,truck,0,1246_scg_dnn_0_truck_00_truck5-car1.png
alexnet,1,1247,NaN,cat,truck,0,1247_scg_dnn_0_truck_00_truck5-cat3.png
alexnet,1,1248,NaN,dog,truck,0,1248_scg_dnn_0_truck_00_truck5-dog3.png
alexnet,1,1249,NaN,truck,truck,0,1249_scg_dnn_0_truck_00_truck5-keyboard1.png
alexnet,1,1250,NaN,bottle,truck,0,1250_scg_dnn_0_truck_00_truck5-knife3.png
alexnet,1,1251,NaN,car,truck,0,1251_scg_dnn_0_truck_00_truck5-truck1.png
alexnet,1,1252,NaN,bear,truck,0,1252_scg_dnn_0_truck_00_truck6-bear2.png
alexnet,1,1253,NaN,bottle,truck,0,1253_scg_dnn_0_truck_00_truck6-bicycle1.png
alexnet,1,1254,NaN,truck,truck,0,1254_scg_dnn_0_truck_00_truck6-boat2.png
alexnet,1,1255,NaN,bottle,truck,0,1255_scg_dnn_0_truck_00_truck6-bottle3.png
alexnet,1,1256,NaN,dog,truck,0,1256_scg_dnn_0_truck_00_truck6-cat2.png
alexnet,1,1257,NaN,truck,truck,0,1257_scg_dnn_0_truck_00_truck6-clock2.png
alexnet,1,1258,NaN,dog,truck,0,1258_scg_dnn_0_truck_00_truck6-dog2.png
alexnet,1,1259,NaN,truck,truck,0,1259_scg_dnn_0_truck_00_truck6-knife2.png
alexnet,1,1260,NaN,truck,truck,0,1260_scg_dnn_0_truck_00_truck6-oven3.png
alexnet,1,1261,NaN,car,truck,0,1261_scg_dnn_0_truck_00_truck6-truck2.png
alexnet,1,1262,NaN,dog,truck,0,1262_scg_dnn_0_truck_00_truck7-bear2.png
alexnet,1,1263,NaN,truck,truck,0,1263_scg_dnn_0_truck_00_truck7-bird2.png
alexnet,1,1264,NaN,truck,truck,0,1264_scg_dnn_0_truck_00_truck7-boat1.png
alexnet,1,1265,NaN,truck,truck,0,1265_scg_dnn_0_truck_00_truck7-chair2.png
alexnet,1,1266,NaN,elephant,truck,0,1266_scg_dnn_0_truck_00_truck7-elephant2.png
alexnet,1,1267,NaN,bottle,truck,0,1267_scg_dnn_0_truck_00_truck7-keyboard3.png
alexnet,1,1268,NaN,truck,truck,0,1268_scg_dnn_0_truck_00_truck7-oven2.png
alexnet,1,1269,NaN,truck,truck,0,1269_scg_dnn_0_truck_00_truck7-truck2.png
alexnet,1,1270,NaN,truck,truck,0,1270_scg_dnn_0_truck_00_truck8-bottle2.png
alexnet,1,1271,NaN,bird,truck,0,1271_scg_dnn_0_truck_00_truck8-cat2.png
alexnet,1,1272,NaN,dog,truck,0,1272_scg_dnn_0_truck_00_truck8-dog3.png
alexnet,1,1273,NaN,dog,truck,0,1273_scg_dnn_0_truck_00_truck8-elephant1.png
alexnet,1,1274,NaN,truck,truck,0,1274_scg_dnn_0_truck_00_truck8-keyboard2.png
alexnet,1,1275,NaN,truck,truck,0,1275_scg_dnn_0_truck_00_truck9-airplane2.png
alexnet,1,1276,NaN,truck,truck,0,1276_scg_dnn_0_truck_00_truck9-boat3.png
alexnet,1,1277,NaN,truck,truck,0,1277_scg_dnn_0_truck_00_truck9-bottle2.png
alexnet,1,1278,NaN,truck,truck,0,1278_scg_dnn_0_truck_00_truck9-chair3.png
alexnet,1,1279,NaN,elephant,truck,0,1279_scg_dnn_0_truck_00_truck9-elephant1.png
alexnet,1,1280,NaN,truck,truck,0,1280_scg_dnn_0_truck_00_truck9-truck3.png
