subj,session,trial,rt,object_response,category,condition,imagename
subject-01,1,1,1.16484999656677,keyboard,boat,0,0001_scg_s01_0_boat_00_boat1-truck3.png
subject-01,1,2,1.29456400871277,car,airplane,0,0002_scg_s01_0_airplane_00_airplane4-car1.png
subject-01,1,3,1.00046801567078,bird,bear,0,0003_scg_s01_0_bear_00_bear10-bottle1.png
subject-01,1,4,0.770151853561401,bottle,bottle,0,0004_scg_s01_0_bottle_00_bottle9-bottle1.png
subject-01,1,5,1.13618397712708,bicycle,dog,0,0005_scg_s01_0_dog_00_dog9-bicycle3.png
subject-01,1,6,0.698133945465088,clock,oven,0,0006_scg_s01_0_oven_00_oven3-cat2.png
subject-01,1,7,0.727321863174438,bicycle,bicycle,0,0007_scg_s01_0_bicycle_00_bicycle2-car2.png
subject-01,1,8,1.06547594070435,boat,knife,0,0008_scg_s01_0_knife_00_knife1-truck2.png
subject-01,1,9,1.50033807754517,oven,oven,0,0009_scg_s01_0_oven_00_oven3-truck1.png
subject-01,1,10,1.01483511924744,knife,knife,0,0010_scg_s01_0_knife_00_knife1-elephant1.png
subject-01,1,11,0.768991947174072,bicycle,bicycle,0,0011_scg_s01_0_bicycle_00_bicycle5-dog2.png
subject-01,1,12,0.658104181289673,chair,chair,0,0012_scg_s01_0_chair_00_chair7-boat3.png
subject-01,1,13,1.30266404151917,bird,bear,0,0013_scg_s01_0_bear_00_bear10-knife2.png
subject-01,1,14,0.818540096282959,airplane,airplane,0,0014_scg_s01_0_airplane_00_airplane7-clock3.png
subject-01,1,15,0.999674081802368,boat,boat,0,0015_scg_s01_0_boat_00_boat3-keyboard2.png
subject-01,1,16,1.02200102806091,bird,bird,0,0016_scg_s01_0_bird_00_bird8-knife2.png
subject-01,1,17,0.892281055450439,keyboard,keyboard,0,0017_scg_s01_0_keyboard_00_keyboard7-clock3.png
subject-01,1,18,0.660013914108276,clock,clock,0,0018_scg_s01_0_clock_00_clock2-bicycle1.png
subject-01,1,19,1.24985194206238,airplane,airplane,0,0019_scg_s01_0_airplane_00_airplane10-oven2.png
subject-01,1,20,1.34778690338135,bicycle,elephant,0,0020_scg_s01_0_elephant_00_elephant2-truck2.png
subject-01,1,21,NaN,na,boat,0,0021_scg_s01_0_boat_00_boat6-clock2.png
subject-01,1,22,1.12874102592468,knife,knife,0,0022_scg_s01_0_knife_00_knife5-knife3.png
subject-01,1,23,0.774041175842285,bear,bear,0,0023_scg_s01_0_bear_00_bear2-elephant1.png
subject-01,1,24,0.867305040359497,airplane,boat,0,0024_scg_s01_0_boat_00_boat7-keyboard3.png
subject-01,1,25,0.997384071350098,bottle,truck,0,0025_scg_s01_0_truck_00_truck6-dog2.png
subject-01,1,26,0.72480297088623,boat,bear,0,0026_scg_s01_0_bear_00_bear6-boat3.png
subject-01,1,27,0.978943824768066,dog,bear,0,0027_scg_s01_0_bear_00_bear4-oven2.png
subject-01,1,28,0.823370933532715,bear,bear,0,0028_scg_s01_0_bear_00_bear2-knife2.png
subject-01,1,29,0.798995971679688,knife,airplane,0,0029_scg_s01_0_airplane_00_airplane8-elephant3.png
subject-01,1,30,0.699002027511597,bicycle,bicycle,0,0030_scg_s01_0_bicycle_00_bicycle9-car1.png
subject-01,1,31,0.891610860824585,dog,dog,0,0031_scg_s01_0_dog_00_dog9-bear3.png
subject-01,1,32,0.773376941680908,bicycle,dog,0,0032_scg_s01_0_dog_00_dog2-bottle2.png
subject-01,1,33,0.70310115814209,clock,clock,0,0033_scg_s01_0_clock_00_clock10-knife3.png
subject-01,1,34,1.00113701820374,dog,boat,0,0034_scg_s01_0_boat_00_boat10-cat1.png
subject-01,1,35,0.778636932373047,knife,knife,0,0035_scg_s01_0_knife_00_knife2-cat3.png
subject-01,1,36,0.752084970474243,truck,truck,0,0036_scg_s01_0_truck_00_truck1-knife1.png
subject-01,1,37,1.15005993843079,clock,clock,0,0037_scg_s01_0_clock_00_clock8-cat1.png
subject-01,1,38,0.628119945526123,airplane,airplane,0,0038_scg_s01_0_airplane_00_airplane5-dog3.png
subject-01,1,39,0.742126941680908,keyboard,keyboard,0,0039_scg_s01_0_keyboard_00_keyboard9-chair2.png
subject-01,1,40,0.872649908065796,bear,bear,0,0040_scg_s01_0_bear_00_bear4-car3.png
subject-01,1,41,0.586605072021484,cat,cat,0,0041_scg_s01_0_cat_00_cat1-cat3.png
subject-01,1,42,0.50822114944458,cat,cat,0,0042_scg_s01_0_cat_00_cat7-elephant1.png
subject-01,1,43,0.407556772232056,cat,cat,0,0043_scg_s01_0_cat_00_cat7-clock3.png
subject-01,1,44,0.484079122543335,clock,clock,0,0044_scg_s01_0_clock_00_clock5-airplane1.png
subject-01,1,45,0.949187040328979,elephant,elephant,0,0045_scg_s01_0_elephant_00_elephant3-keyboard2.png
subject-01,1,46,0.756523132324219,elephant,elephant,0,0046_scg_s01_0_elephant_00_elephant2-elephant3.png
subject-01,1,47,0.603696823120117,bottle,bottle,0,0047_scg_s01_0_bottle_00_bottle7-boat3.png
subject-01,1,48,0.839517116546631,bicycle,bicycle,0,0048_scg_s01_0_bicycle_00_bicycle9-knife3.png
subject-01,1,49,0.615134000778198,bottle,bottle,0,0049_scg_s01_0_bottle_00_bottle3-bottle3.png
subject-01,1,50,0.960421800613403,knife,knife,0,0050_scg_s01_0_knife_00_knife1-oven1.png
subject-01,1,51,0.72817587852478,cat,cat,0,0051_scg_s01_0_cat_00_cat1-chair2.png
subject-01,1,52,0.866878986358643,chair,knife,0,0052_scg_s01_0_knife_00_knife6-chair3.png
subject-01,1,53,0.71120285987854,clock,clock,0,0053_scg_s01_0_clock_00_clock1-dog2.png
subject-01,1,54,0.741616010665894,elephant,elephant,0,0054_scg_s01_0_elephant_00_elephant9-boat3.png
subject-01,1,55,0.824460983276367,car,car,0,0055_scg_s01_0_car_00_car4-bottle1.png
subject-01,1,56,0.845015048980713,car,cat,0,0056_scg_s01_0_cat_00_cat3-truck3.png
subject-01,1,57,0.836919069290161,truck,truck,0,0057_scg_s01_0_truck_00_truck2-chair1.png
subject-01,1,58,0.645550012588501,knife,knife,0,0058_scg_s01_0_knife_00_knife5-bicycle2.png
subject-01,1,59,0.613595962524414,car,car,0,0059_scg_s01_0_car_00_car8-knife2.png
subject-01,1,60,0.520768165588379,bicycle,bicycle,0,0060_scg_s01_0_bicycle_00_bicycle5-cat1.png
subject-01,1,61,0.574568033218384,oven,oven,0,0061_scg_s01_0_oven_00_oven2-bottle1.png
subject-01,1,62,0.839653968811035,keyboard,oven,0,0062_scg_s01_0_oven_00_oven1-boat3.png
subject-01,1,63,0.677273988723755,oven,oven,0,0063_scg_s01_0_oven_00_oven3-clock3.png
subject-01,1,64,0.582904100418091,bottle,bottle,0,0064_scg_s01_0_bottle_00_bottle2-chair3.png
subject-01,1,65,1.11303496360779,knife,knife,0,0065_scg_s01_0_knife_00_knife7-bottle3.png
subject-01,1,66,0.667710781097412,knife,knife,0,0066_scg_s01_0_knife_00_knife8-truck3.png
subject-01,1,67,0.657789945602417,knife,keyboard,0,0067_scg_s01_0_keyboard_00_keyboard4-bird1.png
subject-01,1,68,0.708715915679932,knife,knife,0,0068_scg_s01_0_knife_00_knife2-bear2.png
subject-01,1,69,0.58483099937439,bicycle,bicycle,0,0069_scg_s01_0_bicycle_00_bicycle9-keyboard3.png
subject-01,1,70,0.522648096084595,bicycle,bicycle,0,0070_scg_s01_0_bicycle_00_bicycle4-knife3.png
subject-01,1,71,0.615321159362793,oven,oven,0,0071_scg_s01_0_oven_00_oven6-truck1.png
subject-01,1,72,0.73661208152771,bicycle,bicycle,0,0072_scg_s01_0_bicycle_00_bicycle5-chair2.png
subject-01,1,73,0.817839860916138,airplane,airplane,0,0073_scg_s01_0_airplane_00_airplane5-bottle3.png
subject-01,1,74,0.785401105880737,boat,bird,0,0074_scg_s01_0_bird_00_bird3-boat3.png
subject-01,1,75,0.853224039077759,elephant,elephant,0,0075_scg_s01_0_elephant_00_elephant1-airplane2.png
subject-01,1,76,1.16706013679504,airplane,bird,0,0076_scg_s01_0_bird_00_bird3-oven1.png
subject-01,1,77,0.756006002426147,oven,chair,0,0077_scg_s01_0_chair_00_chair6-elephant2.png
subject-01,1,78,NaN,na,dog,0,0078_scg_s01_0_dog_00_dog10-keyboard2.png
subject-01,1,79,0.77829909324646,elephant,elephant,0,0079_scg_s01_0_elephant_00_elephant3-truck1.png
subject-01,1,80,0.716609954833984,elephant,elephant,0,0080_scg_s01_0_elephant_00_elephant8-clock2.png
subject-01,1,81,0.630621194839478,bird,clock,0,0081_scg_s01_0_clock_00_clock10-oven2.png
subject-01,1,82,0.654046058654785,truck,truck,0,0082_scg_s01_0_truck_00_truck1-car3.png
subject-01,1,83,1.1378390789032,elephant,cat,0,0083_scg_s01_0_cat_00_cat10-airplane3.png
subject-01,1,84,0.835100173950195,bird,bird,0,0084_scg_s01_0_bird_00_bird4-bicycle2.png
subject-01,1,85,0.773324012756348,truck,truck,0,0085_scg_s01_0_truck_00_truck6-bear2.png
subject-01,1,86,1.23348784446716,knife,airplane,0,0086_scg_s01_0_airplane_00_airplane3-keyboard2.png
subject-01,1,87,1.03119516372681,truck,truck,0,0087_scg_s01_0_truck_00_truck2-keyboard1.png
subject-01,1,88,0.701514005661011,chair,chair,0,0088_scg_s01_0_chair_00_chair1-dog1.png
subject-01,1,89,0.840072154998779,bicycle,bicycle,0,0089_scg_s01_0_bicycle_00_bicycle1-boat3.png
subject-01,1,90,0.759472846984863,bird,bird,0,0090_scg_s01_0_bird_00_bird6-airplane2.png
subject-01,1,91,0.642987966537476,bicycle,bicycle,0,0091_scg_s01_0_bicycle_00_bicycle6-dog2.png
subject-01,1,92,0.602555990219116,bottle,bottle,0,0092_scg_s01_0_bottle_00_bottle5-keyboard2.png
subject-01,1,93,0.57876992225647,elephant,elephant,0,0093_scg_s01_0_elephant_00_elephant4-oven1.png
subject-01,1,94,0.646562099456787,car,car,0,0094_scg_s01_0_car_00_car7-car1.png
subject-01,1,95,0.592696189880371,knife,boat,0,0095_scg_s01_0_boat_00_boat1-bicycle2.png
subject-01,1,96,0.998371839523315,dog,dog,0,0096_scg_s01_0_dog_00_dog8-dog3.png
subject-01,1,97,0.750266075134277,bird,bird,0,0097_scg_s01_0_bird_00_bird9-keyboard1.png
subject-01,1,98,0.718241930007935,elephant,elephant,0,0098_scg_s01_0_elephant_00_elephant8-truck3.png
subject-01,1,99,0.525490999221802,bottle,bottle,0,0099_scg_s01_0_bottle_00_bottle1-dog2.png
subject-01,1,100,0.594422101974487,car,car,0,0100_scg_s01_0_car_00_car10-chair1.png
subject-01,1,101,0.800841093063354,car,car,0,0101_scg_s01_0_car_00_car8-dog1.png
subject-01,1,102,0.730923891067505,bicycle,bicycle,0,0102_scg_s01_0_bicycle_00_bicycle9-chair1.png
subject-01,1,103,0.776658058166504,chair,chair,0,0103_scg_s01_0_chair_00_chair7-car2.png
subject-01,1,104,0.712312936782837,truck,truck,0,0104_scg_s01_0_truck_00_truck3-dog3.png
subject-01,1,105,0.834131002426147,clock,clock,0,0105_scg_s01_0_clock_00_clock1-boat3.png
subject-01,1,106,0.764602899551392,truck,truck,0,0106_scg_s01_0_truck_00_truck8-cat2.png
subject-01,1,107,0.770438194274902,bird,bird,0,0107_scg_s01_0_bird_00_bird7-boat1.png
subject-01,1,108,0.708287000656128,boat,boat,0,0108_scg_s01_0_boat_00_boat4-car3.png
subject-01,1,109,0.992318153381348,bear,bear,0,0109_scg_s01_0_bear_00_bear1-clock2.png
subject-01,1,110,0.522094011306763,boat,boat,0,0110_scg_s01_0_boat_00_boat8-truck2.png
subject-01,1,111,0.719884157180786,car,car,0,0111_scg_s01_0_car_00_car2-bird3.png
subject-01,1,112,1.01800799369812,oven,oven,0,0112_scg_s01_0_oven_00_oven10-bear1.png
subject-01,1,113,0.601336002349854,chair,chair,0,0113_scg_s01_0_chair_00_chair8-clock3.png
subject-01,1,114,0.661267042160034,elephant,elephant,0,0114_scg_s01_0_elephant_00_elephant4-bicycle2.png
subject-01,1,115,0.674751043319702,knife,elephant,0,0115_scg_s01_0_elephant_00_elephant7-keyboard3.png
subject-01,1,116,0.605422973632812,boat,boat,0,0116_scg_s01_0_boat_00_boat5-car3.png
subject-01,1,117,0.534986972808838,bear,bear,0,0117_scg_s01_0_bear_00_bear5-boat2.png
subject-01,1,118,0.564635992050171,boat,car,0,0118_scg_s01_0_car_00_car1-keyboard2.png
subject-01,1,119,0.700883150100708,boat,boat,0,0119_scg_s01_0_boat_00_boat5-knife2.png
subject-01,1,120,0.662898778915405,cat,cat,0,0120_scg_s01_0_cat_00_cat3-bicycle1.png
subject-01,1,121,0.707054138183594,car,car,0,0121_scg_s01_0_car_00_car7-oven2.png
subject-01,1,122,0.782429933547974,knife,knife,0,0122_scg_s01_0_knife_00_knife6-bird1.png
subject-01,1,123,0.811731815338135,keyboard,keyboard,0,0123_scg_s01_0_keyboard_00_keyboard2-bottle1.png
subject-01,1,124,0.918726921081543,dog,dog,0,0124_scg_s01_0_dog_00_dog9-bottle1.png
subject-01,1,125,0.723706960678101,oven,oven,0,0125_scg_s01_0_oven_00_oven9-bear2.png
subject-01,1,126,0.545571088790894,boat,boat,0,0126_scg_s01_0_boat_00_boat9-knife2.png
subject-01,1,127,0.875301122665405,elephant,elephant,0,0127_scg_s01_0_elephant_00_elephant3-cat2.png
subject-01,1,128,0.69717812538147,clock,clock,0,0128_scg_s01_0_clock_00_clock4-bottle3.png
subject-01,1,129,0.703249931335449,truck,truck,0,0129_scg_s01_0_truck_00_truck2-car3.png
subject-01,1,130,0.594971179962158,bottle,bottle,0,0130_scg_s01_0_bottle_00_bottle10-car1.png
subject-01,1,131,0.930734872817993,bird,bird,0,0131_scg_s01_0_bird_00_bird10-chair1.png
subject-01,1,132,0.860795974731445,chair,chair,0,0132_scg_s01_0_chair_00_chair7-clock3.png
subject-01,1,133,0.828999042510986,bird,airplane,0,0133_scg_s01_0_airplane_00_airplane4-bottle1.png
subject-01,1,134,0.850726127624512,truck,truck,0,0134_scg_s01_0_truck_00_truck2-clock1.png
subject-01,1,135,0.86414098739624,knife,boat,0,0135_scg_s01_0_boat_00_boat4-bird1.png
subject-01,1,136,0.956629037857056,bicycle,bicycle,0,0136_scg_s01_0_bicycle_00_bicycle2-keyboard2.png
subject-01,1,137,1.05420303344727,knife,boat,0,0137_scg_s01_0_boat_00_boat4-dog2.png
subject-01,1,138,0.791996002197266,bottle,bottle,0,0138_scg_s01_0_bottle_00_bottle8-bottle3.png
subject-01,1,139,0.645659923553467,clock,clock,0,0139_scg_s01_0_clock_00_clock8-chair2.png
subject-01,1,140,0.481417894363403,clock,clock,0,0140_scg_s01_0_clock_00_clock8-oven3.png
subject-01,1,141,0.765493154525757,boat,keyboard,0,0141_scg_s01_0_keyboard_00_keyboard10-car1.png
subject-01,1,142,0.673424959182739,knife,knife,0,0142_scg_s01_0_knife_00_knife9-airplane2.png
subject-01,1,143,0.647421836853027,chair,chair,0,0143_scg_s01_0_chair_00_chair10-cat1.png
subject-01,1,144,0.777459859848022,bird,bird,0,0144_scg_s01_0_bird_00_bird10-bicycle1.png
subject-01,1,145,0.499442100524902,cat,cat,0,0145_scg_s01_0_cat_00_cat2-bottle3.png
subject-01,1,146,0.798252820968628,knife,knife,0,0146_scg_s01_0_knife_00_knife8-car2.png
subject-01,1,147,0.880499839782715,elephant,elephant,0,0147_scg_s01_0_elephant_00_elephant1-bottle1.png
subject-01,1,148,0.826600074768066,cat,bird,0,0148_scg_s01_0_bird_00_bird2-clock3.png
subject-01,1,149,0.740777015686035,knife,boat,0,0149_scg_s01_0_boat_00_boat6-car1.png
subject-01,1,150,1.20880603790283,bicycle,bicycle,0,0150_scg_s01_0_bicycle_00_bicycle7-bear2.png
subject-01,1,151,0.723950862884521,oven,oven,0,0151_scg_s01_0_oven_00_oven5-elephant1.png
subject-01,1,152,0.821877956390381,bird,airplane,0,0152_scg_s01_0_airplane_00_airplane3-dog1.png
subject-01,1,153,0.652128934860229,bird,bird,0,0153_scg_s01_0_bird_00_bird1-clock3.png
subject-01,1,154,0.606559991836548,bicycle,bicycle,0,0154_scg_s01_0_bicycle_00_bicycle1-bicycle3.png
subject-01,1,155,0.833709001541138,airplane,airplane,0,0155_scg_s01_0_airplane_00_airplane2-bottle1.png
subject-01,1,156,0.649720907211304,bicycle,bicycle,0,0156_scg_s01_0_bicycle_00_bicycle4-clock3.png
subject-01,1,157,0.748295068740845,elephant,elephant,0,0157_scg_s01_0_elephant_00_elephant7-bird1.png
subject-01,1,158,0.833410978317261,bird,bird,0,0158_scg_s01_0_bird_00_bird5-oven3.png
subject-01,1,159,0.778642892837524,chair,chair,0,0159_scg_s01_0_chair_00_chair6-dog1.png
subject-01,1,160,0.754585027694702,bicycle,bicycle,0,0160_scg_s01_0_bicycle_00_bicycle9-bear1.png
subject-01,1,161,0.560524940490723,oven,bird,0,0161_scg_s01_0_bird_00_bird3-bottle2.png
subject-01,1,162,1.09066009521484,car,car,0,0162_scg_s01_0_car_00_car10-dog1.png
subject-01,1,163,1.44257712364197,chair,elephant,0,0163_scg_s01_0_elephant_00_elephant1-oven2.png
subject-01,1,164,0.718693971633911,oven,oven,0,0164_scg_s01_0_oven_00_oven3-bear2.png
subject-01,1,165,0.832651853561401,bird,bird,0,0165_scg_s01_0_bird_00_bird5-bicycle1.png
subject-01,1,166,0.816435098648071,knife,knife,0,0166_scg_s01_0_knife_00_knife8-bicycle1.png
subject-01,1,167,0.777765035629272,car,car,0,0167_scg_s01_0_car_00_car3-bottle3.png
subject-01,1,168,0.667839050292969,cat,cat,0,0168_scg_s01_0_cat_00_cat5-bear2.png
subject-01,1,169,0.806526899337769,dog,bird,0,0169_scg_s01_0_bird_00_bird2-airplane3.png
subject-01,1,170,0.745207071304321,clock,clock,0,0170_scg_s01_0_clock_00_clock7-bear2.png
subject-01,1,171,0.775277137756348,chair,chair,0,0171_scg_s01_0_chair_00_chair4-keyboard2.png
subject-01,1,172,0.626888990402222,bird,bird,0,0172_scg_s01_0_bird_00_bird1-elephant2.png
subject-01,1,173,0.618833065032959,bottle,bottle,0,0173_scg_s01_0_bottle_00_bottle5-cat1.png
subject-01,1,174,0.6025710105896,bicycle,bicycle,0,0174_scg_s01_0_bicycle_00_bicycle6-car2.png
subject-01,1,175,0.654920816421509,bottle,bottle,0,0175_scg_s01_0_bottle_00_bottle1-keyboard3.png
subject-01,1,176,0.809257030487061,truck,truck,0,0176_scg_s01_0_truck_00_truck1-cat1.png
subject-01,1,177,0.731400966644287,bird,airplane,0,0177_scg_s01_0_airplane_00_airplane3-airplane2.png
subject-01,1,178,0.699185132980347,car,knife,0,0178_scg_s01_0_knife_00_knife1-airplane1.png
subject-01,1,179,0.674962043762207,bottle,bottle,0,0179_scg_s01_0_bottle_00_bottle5-elephant1.png
subject-01,1,180,0.842700004577637,bird,bird,0,0180_scg_s01_0_bird_00_bird1-bicycle2.png
subject-01,1,181,0.832216024398804,elephant,elephant,0,0181_scg_s01_0_elephant_00_elephant10-knife3.png
subject-01,1,182,0.623970985412598,chair,chair,0,0182_scg_s01_0_chair_00_chair3-bottle3.png
subject-01,1,183,0.576207876205444,oven,oven,0,0183_scg_s01_0_oven_00_oven1-bird3.png
subject-01,1,184,0.867638826370239,bottle,bottle,0,0184_scg_s01_0_bottle_00_bottle9-truck1.png
subject-01,1,185,0.881955146789551,dog,dog,0,0185_scg_s01_0_dog_00_dog4-clock1.png
subject-01,1,186,0.879554033279419,knife,knife,0,0186_scg_s01_0_knife_00_knife1-chair1.png
subject-01,1,187,0.919111013412476,knife,knife,0,0187_scg_s01_0_knife_00_knife10-oven3.png
subject-01,1,188,0.65718412399292,clock,clock,0,0188_scg_s01_0_clock_00_clock3-dog2.png
subject-01,1,189,0.716651201248169,chair,chair,0,0189_scg_s01_0_chair_00_chair9-bear1.png
subject-01,1,190,0.792165040969849,elephant,elephant,0,0190_scg_s01_0_elephant_00_elephant6-bird1.png
subject-01,1,191,0.805950164794922,knife,boat,0,0191_scg_s01_0_boat_00_boat6-knife2.png
subject-01,1,192,0.979160070419312,knife,keyboard,0,0192_scg_s01_0_keyboard_00_keyboard6-chair1.png
subject-01,1,193,0.665765047073364,bear,bear,0,0193_scg_s01_0_bear_00_bear2-bird3.png
subject-01,1,194,0.639081001281738,keyboard,keyboard,0,0194_scg_s01_0_keyboard_00_keyboard8-cat3.png
subject-01,1,195,0.76068115234375,oven,oven,0,0195_scg_s01_0_oven_00_oven7-keyboard1.png
subject-01,1,196,0.574609041213989,chair,chair,0,0196_scg_s01_0_chair_00_chair8-bicycle3.png
subject-01,1,197,0.696774959564209,oven,oven,0,0197_scg_s01_0_oven_00_oven6-airplane3.png
subject-01,1,198,0.710695028305054,oven,oven,0,0198_scg_s01_0_oven_00_oven2-oven3.png
subject-01,1,199,0.678128004074097,cat,cat,0,0199_scg_s01_0_cat_00_cat5-knife2.png
subject-01,1,200,0.554495811462402,cat,cat,0,0200_scg_s01_0_cat_00_cat2-truck3.png
subject-01,1,201,0.600425004959106,boat,chair,0,0201_scg_s01_0_chair_00_chair8-keyboard3.png
subject-01,1,202,0.735404968261719,bottle,bottle,0,0202_scg_s01_0_bottle_00_bottle6-bird1.png
subject-01,1,203,0.89601993560791,knife,boat,0,0203_scg_s01_0_boat_00_boat1-oven1.png
subject-01,1,204,0.887485980987549,boat,boat,0,0204_scg_s01_0_boat_00_boat1-car2.png
subject-01,1,205,0.649940967559814,truck,truck,0,0205_scg_s01_0_truck_00_truck2-oven3.png
subject-01,1,206,1.06982898712158,truck,truck,0,0206_scg_s01_0_truck_00_truck8-elephant1.png
subject-01,1,207,1.19942307472229,bicycle,bicycle,0,0207_scg_s01_0_bicycle_00_bicycle4-cat1.png
subject-01,1,208,0.899457216262817,dog,dog,0,0208_scg_s01_0_dog_00_dog8-clock2.png
subject-01,1,209,0.651298046112061,oven,oven,0,0209_scg_s01_0_oven_00_oven10-cat2.png
subject-01,1,210,0.64403510093689,boat,dog,0,0210_scg_s01_0_dog_00_dog9-car1.png
subject-01,1,211,0.566160202026367,airplane,airplane,0,0211_scg_s01_0_airplane_00_airplane5-bird2.png
subject-01,1,212,0.541872024536133,chair,chair,0,0212_scg_s01_0_chair_00_chair4-chair3.png
subject-01,1,213,0.555747032165527,bottle,bottle,0,0213_scg_s01_0_bottle_00_bottle2-car2.png
subject-01,1,214,0.792986869812012,elephant,elephant,0,0214_scg_s01_0_elephant_00_elephant4-clock3.png
subject-01,1,215,0.775381088256836,boat,airplane,0,0215_scg_s01_0_airplane_00_airplane10-car3.png
subject-01,1,216,0.56149697303772,chair,chair,0,0216_scg_s01_0_chair_00_chair7-truck3.png
subject-01,1,217,0.559170007705688,boat,boat,0,0217_scg_s01_0_boat_00_boat7-boat2.png
subject-01,1,218,0.70267391204834,car,car,0,0218_scg_s01_0_car_00_car3-truck1.png
subject-01,1,219,0.837614059448242,bird,bird,0,0219_scg_s01_0_bird_00_bird2-bird2.png
subject-01,1,220,1.30608797073364,airplane,knife,0,0220_scg_s01_0_knife_00_knife5-keyboard3.png
subject-01,1,221,0.727620840072632,knife,knife,0,0221_scg_s01_0_knife_00_knife2-truck2.png
subject-01,1,222,0.72745418548584,bicycle,bicycle,0,0222_scg_s01_0_bicycle_00_bicycle2-knife2.png
subject-01,1,223,1.02628302574158,keyboard,keyboard,0,0223_scg_s01_0_keyboard_00_keyboard7-truck2.png
subject-01,1,224,0.863667964935303,chair,chair,0,0224_scg_s01_0_chair_00_chair7-elephant1.png
subject-01,1,225,0.630817890167236,truck,truck,0,0225_scg_s01_0_truck_00_truck7-truck2.png
subject-01,1,226,0.815729141235352,bird,bird,0,0226_scg_s01_0_bird_00_bird8-car2.png
subject-01,1,227,0.72845196723938,airplane,airplane,0,0227_scg_s01_0_airplane_00_airplane7-boat2.png
subject-01,1,228,0.651605129241943,bicycle,bicycle,0,0228_scg_s01_0_bicycle_00_bicycle6-airplane2.png
subject-01,1,229,0.897779941558838,bicycle,dog,0,0229_scg_s01_0_dog_00_dog7-oven2.png
subject-01,1,230,1.22608280181885,car,car,0,0230_scg_s01_0_car_00_car4-elephant3.png
subject-01,1,231,0.663879156112671,bicycle,bicycle,0,0231_scg_s01_0_bicycle_00_bicycle8-boat1.png
subject-01,1,232,0.526898145675659,truck,truck,0,0232_scg_s01_0_truck_00_truck10-truck3.png
subject-01,1,233,0.510200023651123,boat,cat,0,0233_scg_s01_0_cat_00_cat5-chair3.png
subject-01,1,234,0.808459043502808,elephant,elephant,0,0234_scg_s01_0_elephant_00_elephant1-car3.png
subject-01,1,235,0.730553150177002,clock,clock,0,0235_scg_s01_0_clock_00_clock6-bottle1.png
subject-01,1,236,1.07466697692871,elephant,bird,0,0236_scg_s01_0_bird_00_bird3-bear3.png
subject-01,1,237,1.25048398971558,dog,dog,0,0237_scg_s01_0_dog_00_dog6-bicycle1.png
subject-01,1,238,0.828770875930786,knife,knife,0,0238_scg_s01_0_knife_00_knife4-knife2.png
subject-01,1,239,0.672544002532959,chair,chair,0,0239_scg_s01_0_chair_00_chair4-bear2.png
subject-01,1,240,0.915929079055786,truck,truck,0,0240_scg_s01_0_truck_00_truck3-knife2.png
subject-01,1,241,1.06830406188965,keyboard,knife,0,0241_scg_s01_0_knife_00_knife10-chair1.png
subject-01,1,242,0.822945117950439,bird,bird,0,0242_scg_s01_0_bird_00_bird9-bottle3.png
subject-01,1,243,0.799092054367065,dog,dog,0,0243_scg_s01_0_dog_00_dog4-cat3.png
subject-01,1,244,0.982473134994507,truck,truck,0,0244_scg_s01_0_truck_00_truck3-car3.png
subject-01,1,245,0.621705055236816,clock,clock,0,0245_scg_s01_0_clock_00_clock9-keyboard2.png
subject-01,1,246,0.681514978408813,keyboard,keyboard,0,0246_scg_s01_0_keyboard_00_keyboard8-oven1.png
subject-01,1,247,0.798868894577026,oven,dog,0,0247_scg_s01_0_dog_00_dog7-keyboard3.png
subject-01,1,248,1.31180691719055,chair,chair,0,0248_scg_s01_0_chair_00_chair10-clock1.png
subject-01,1,249,0.749466180801392,dog,dog,0,0249_scg_s01_0_dog_00_dog8-bear3.png
subject-01,1,250,1.13146495819092,oven,car,0,0250_scg_s01_0_car_00_car5-bear3.png
subject-01,1,251,0.793597936630249,bottle,bottle,0,0251_scg_s01_0_bottle_00_bottle6-knife3.png
subject-01,1,252,1.35974216461182,dog,dog,0,0252_scg_s01_0_dog_00_dog1-cat3.png
subject-01,1,253,0.80563497543335,elephant,elephant,0,0253_scg_s01_0_elephant_00_elephant8-boat2.png
subject-01,1,254,0.635400056838989,bicycle,bicycle,0,0254_scg_s01_0_bicycle_00_bicycle7-elephant2.png
subject-01,1,255,0.741138935089111,oven,oven,0,0255_scg_s01_0_oven_00_oven4-truck3.png
subject-01,1,256,0.663366079330444,dog,dog,0,0256_scg_s01_0_dog_00_dog3-knife3.png
subject-01,1,257,0.817065000534058,boat,knife,0,0257_scg_s01_0_knife_00_knife7-airplane3.png
subject-01,1,258,0.624911069869995,car,car,0,0258_scg_s01_0_car_00_car3-bird2.png
subject-01,1,259,0.915055990219116,knife,knife,0,0259_scg_s01_0_knife_00_knife9-elephant2.png
subject-01,1,260,0.661067962646484,truck,truck,0,0260_scg_s01_0_truck_00_truck9-elephant1.png
subject-01,1,261,0.567280054092407,bear,bear,0,0261_scg_s01_0_bear_00_bear8-dog1.png
subject-01,1,262,0.688935041427612,truck,truck,0,0262_scg_s01_0_truck_00_truck6-clock2.png
subject-01,1,263,0.526955842971802,bicycle,bicycle,0,0263_scg_s01_0_bicycle_00_bicycle4-car2.png
subject-01,1,264,0.595648050308228,truck,truck,0,0264_scg_s01_0_truck_00_truck4-boat3.png
subject-01,1,265,0.832974910736084,bottle,bottle,0,0265_scg_s01_0_bottle_00_bottle3-bird1.png
subject-01,1,266,0.71711802482605,bottle,bottle,0,0266_scg_s01_0_bottle_00_bottle7-airplane3.png
subject-01,1,267,0.614589929580688,bottle,bottle,0,0267_scg_s01_0_bottle_00_bottle6-bear2.png
subject-01,1,268,0.644582986831665,cat,cat,0,0268_scg_s01_0_cat_00_cat5-bicycle3.png
subject-01,1,269,0.742603063583374,truck,truck,0,0269_scg_s01_0_truck_00_truck7-chair2.png
subject-01,1,270,0.78830099105835,cat,bear,0,0270_scg_s01_0_bear_00_bear7-oven3.png
subject-01,1,271,0.78629207611084,car,car,0,0271_scg_s01_0_car_00_car6-knife1.png
subject-01,1,272,0.930271148681641,knife,boat,0,0272_scg_s01_0_boat_00_boat2-bird1.png
subject-01,1,273,1.15121507644653,bear,bear,0,0273_scg_s01_0_bear_00_bear1-elephant1.png
subject-01,1,274,0.764041900634766,clock,clock,0,0274_scg_s01_0_clock_00_clock1-clock2.png
subject-01,1,275,0.715665102005005,chair,chair,0,0275_scg_s01_0_chair_00_chair3-bicycle3.png
subject-01,1,276,0.482990026473999,clock,clock,0,0276_scg_s01_0_clock_00_clock6-car2.png
subject-01,1,277,0.834625959396362,oven,bear,0,0277_scg_s01_0_bear_00_bear3-keyboard2.png
subject-01,1,278,0.648231029510498,boat,boat,0,0278_scg_s01_0_boat_00_boat3-car3.png
subject-01,1,279,0.65346097946167,bicycle,bicycle,0,0279_scg_s01_0_bicycle_00_bicycle1-knife3.png
subject-01,1,280,0.782740116119385,elephant,elephant,0,0280_scg_s01_0_elephant_00_elephant7-airplane3.png
subject-01,1,281,0.664597034454346,oven,oven,0,0281_scg_s01_0_oven_00_oven9-knife3.png
subject-01,1,282,0.794404983520508,elephant,elephant,0,0282_scg_s01_0_elephant_00_elephant6-dog2.png
subject-01,1,283,0.763118028640747,keyboard,keyboard,0,0283_scg_s01_0_keyboard_00_keyboard7-knife1.png
subject-01,1,284,0.668941974639893,car,car,0,0284_scg_s01_0_car_00_car4-bicycle3.png
subject-01,1,285,0.536386013031006,clock,clock,0,0285_scg_s01_0_clock_00_clock5-oven1.png
subject-01,1,286,0.6582350730896,cat,cat,0,0286_scg_s01_0_cat_00_cat3-cat1.png
subject-01,1,287,0.712070941925049,bird,bird,0,0287_scg_s01_0_bird_00_bird4-dog3.png
subject-01,1,288,0.641976118087769,clock,clock,0,0288_scg_s01_0_clock_00_clock8-boat1.png
subject-01,1,289,0.647911071777344,chair,chair,0,0289_scg_s01_0_chair_00_chair2-knife1.png
subject-01,1,290,0.853794097900391,bicycle,bicycle,0,0290_scg_s01_0_bicycle_00_bicycle1-elephant2.png
subject-01,1,291,0.698988914489746,elephant,elephant,0,0291_scg_s01_0_elephant_00_elephant7-cat1.png
subject-01,1,292,0.556587934494019,clock,clock,0,0292_scg_s01_0_clock_00_clock9-bird2.png
subject-01,1,293,0.556236982345581,oven,oven,0,0293_scg_s01_0_oven_00_oven3-bottle3.png
subject-01,1,294,0.862591028213501,elephant,elephant,0,0294_scg_s01_0_elephant_00_elephant6-cat2.png
subject-01,1,295,0.830286026000977,car,car,0,0295_scg_s01_0_car_00_car6-boat1.png
subject-01,1,296,0.798740863800049,bear,bear,0,0296_scg_s01_0_bear_00_bear1-chair2.png
subject-01,1,297,0.720170974731445,bird,bird,0,0297_scg_s01_0_bird_00_bird5-truck2.png
subject-01,1,298,0.649105072021484,car,car,0,0298_scg_s01_0_car_00_car8-bicycle2.png
subject-01,1,299,0.83440899848938,knife,keyboard,0,0299_scg_s01_0_keyboard_00_keyboard9-bird1.png
subject-01,1,300,0.876909971237183,dog,dog,0,0300_scg_s01_0_dog_00_dog10-bicycle1.png
subject-01,1,301,0.737114191055298,bicycle,bicycle,0,0301_scg_s01_0_bicycle_00_bicycle3-elephant2.png
subject-01,1,302,0.558645963668823,clock,clock,0,0302_scg_s01_0_clock_00_clock3-elephant3.png
subject-01,1,303,0.672563076019287,airplane,airplane,0,0303_scg_s01_0_airplane_00_airplane9-airplane2.png
subject-01,1,304,0.764845132827759,car,car,0,0304_scg_s01_0_car_00_car9-bird1.png
subject-01,1,305,0.940777063369751,dog,dog,0,0305_scg_s01_0_dog_00_dog1-bird1.png
subject-01,1,306,1.13824081420898,bottle,bottle,0,0306_scg_s01_0_bottle_00_bottle5-oven2.png
subject-01,1,307,0.768603086471558,car,car,0,0307_scg_s01_0_car_00_car2-cat3.png
subject-01,1,308,0.612040042877197,clock,clock,0,0308_scg_s01_0_clock_00_clock4-car2.png
subject-01,1,309,0.817735910415649,elephant,elephant,0,0309_scg_s01_0_elephant_00_elephant5-truck1.png
subject-01,1,310,0.776895999908447,bear,bear,0,0310_scg_s01_0_bear_00_bear6-bird2.png
subject-01,1,311,0.630895137786865,clock,clock,0,0311_scg_s01_0_clock_00_clock5-bicycle1.png
subject-01,1,312,0.653195858001709,oven,oven,0,0312_scg_s01_0_oven_00_oven4-car1.png
subject-01,1,313,0.720040798187256,bear,bear,0,0313_scg_s01_0_bear_00_bear9-knife2.png
subject-01,1,314,0.718260049819946,knife,knife,0,0314_scg_s01_0_knife_00_knife5-truck3.png
subject-01,1,315,0.832259893417358,truck,truck,0,0315_scg_s01_0_truck_00_truck1-chair2.png
subject-01,1,316,0.640294075012207,cat,cat,0,0316_scg_s01_0_cat_00_cat1-dog1.png
subject-01,1,317,0.862319946289062,airplane,airplane,0,0317_scg_s01_0_airplane_00_airplane9-boat1.png
subject-01,1,318,1.2602059841156,knife,boat,0,0318_scg_s01_0_boat_00_boat2-bear3.png
subject-01,1,319,0.807101011276245,chair,chair,0,0319_scg_s01_0_chair_00_chair9-elephant1.png
subject-01,1,320,0.589911937713623,keyboard,keyboard,0,0320_scg_s01_0_keyboard_00_keyboard5-knife2.png
subject-01,1,321,0.679405927658081,chair,chair,0,0321_scg_s01_0_chair_00_chair9-dog2.png
subject-01,1,322,0.782241106033325,elephant,elephant,0,0322_scg_s01_0_elephant_00_elephant9-elephant3.png
subject-01,1,323,NaN,na,cat,0,0323_scg_s01_0_cat_00_cat7-knife2.png
subject-01,1,324,0.480287790298462,cat,cat,0,0324_scg_s01_0_cat_00_cat2-car3.png
subject-01,1,325,0.671678066253662,dog,dog,0,0325_scg_s01_0_dog_00_dog5-knife2.png
subject-01,1,326,0.569489002227783,car,car,0,0326_scg_s01_0_car_00_car5-bottle1.png
subject-01,1,327,0.65913200378418,keyboard,keyboard,0,0327_scg_s01_0_keyboard_00_keyboard9-keyboard2.png
subject-01,1,328,0.589076042175293,bicycle,bicycle,0,0328_scg_s01_0_bicycle_00_bicycle5-elephant1.png
subject-01,1,329,0.694571971893311,knife,keyboard,0,0329_scg_s01_0_keyboard_00_keyboard6-knife2.png
subject-01,1,330,0.762442111968994,bird,bear,0,0330_scg_s01_0_bear_00_bear10-chair2.png
subject-01,1,331,0.851810932159424,dog,dog,0,0331_scg_s01_0_dog_00_dog5-elephant1.png
subject-01,1,332,0.713965892791748,knife,keyboard,0,0332_scg_s01_0_keyboard_00_keyboard9-elephant2.png
subject-01,1,333,0.781995058059692,bicycle,bicycle,0,0333_scg_s01_0_bicycle_00_bicycle4-boat1.png
subject-01,1,334,0.905109882354736,knife,knife,0,0334_scg_s01_0_knife_00_knife9-bird1.png
subject-01,1,335,0.612508058547974,cat,cat,0,0335_scg_s01_0_cat_00_cat10-bear1.png
subject-01,1,336,0.748802900314331,cat,cat,0,0336_scg_s01_0_cat_00_cat4-oven1.png
subject-01,1,337,0.649493932723999,dog,dog,0,0337_scg_s01_0_dog_00_dog10-clock1.png
subject-01,1,338,0.741564035415649,boat,bottle,0,0338_scg_s01_0_bottle_00_bottle7-cat2.png
subject-01,1,339,0.501610994338989,clock,clock,0,0339_scg_s01_0_clock_00_clock10-bottle1.png
subject-01,1,340,0.852857112884521,bird,bird,0,0340_scg_s01_0_bird_00_bird9-bear3.png
subject-01,1,341,0.727831840515137,truck,truck,0,0341_scg_s01_0_truck_00_truck7-elephant2.png
subject-01,1,342,0.871593952178955,chair,chair,0,0342_scg_s01_0_chair_00_chair1-chair1.png
subject-01,1,343,0.963579893112183,bird,cat,0,0343_scg_s01_0_cat_00_cat4-truck3.png
subject-01,1,344,1.03106594085693,chair,oven,0,0344_scg_s01_0_oven_00_oven7-elephant1.png
subject-01,1,345,0.575296878814697,bottle,bottle,0,0345_scg_s01_0_bottle_00_bottle8-dog2.png
subject-01,1,346,0.566769123077393,cat,cat,0,0346_scg_s01_0_cat_00_cat10-bicycle1.png
subject-01,1,347,0.743152141571045,bottle,bottle,0,0347_scg_s01_0_bottle_00_bottle7-clock1.png
subject-01,1,348,0.757281064987183,airplane,airplane,0,0348_scg_s01_0_airplane_00_airplane3-elephant1.png
subject-01,1,349,0.695295810699463,car,car,0,0349_scg_s01_0_car_00_car7-bird3.png
subject-01,1,350,0.677070140838623,knife,knife,0,0350_scg_s01_0_knife_00_knife10-bear3.png
subject-01,1,351,0.799165010452271,car,car,0,0351_scg_s01_0_car_00_car3-dog2.png
subject-01,1,352,0.491966009140015,car,car,0,0352_scg_s01_0_car_00_car9-knife1.png
subject-01,1,353,0.545794010162354,cat,cat,0,0353_scg_s01_0_cat_00_cat7-airplane2.png
subject-01,1,354,0.752025842666626,elephant,elephant,0,0354_scg_s01_0_elephant_00_elephant8-dog1.png
subject-01,1,355,0.73601222038269,keyboard,keyboard,0,0355_scg_s01_0_keyboard_00_keyboard8-keyboard2.png
subject-01,1,356,0.873432159423828,truck,truck,0,0356_scg_s01_0_truck_00_truck6-cat2.png
subject-01,1,357,0.775249004364014,dog,dog,0,0357_scg_s01_0_dog_00_dog10-car3.png
subject-01,1,358,0.635436058044434,bottle,bottle,0,0358_scg_s01_0_bottle_00_bottle3-boat3.png
subject-01,1,359,0.657171964645386,chair,chair,0,0359_scg_s01_0_chair_00_chair10-oven1.png
subject-01,1,360,0.816634178161621,knife,boat,0,0360_scg_s01_0_boat_00_boat6-cat1.png
subject-01,1,361,0.900950908660889,car,car,0,0361_scg_s01_0_car_00_car8-chair1.png
subject-01,1,362,0.768362998962402,chair,keyboard,0,0362_scg_s01_0_keyboard_00_keyboard7-chair3.png
subject-01,1,363,0.675017833709717,bird,bird,0,0363_scg_s01_0_bird_00_bird7-keyboard3.png
subject-01,1,364,1.46497702598572,elephant,bear,0,0364_scg_s01_0_bear_00_bear9-bottle2.png
subject-01,1,365,0.656822919845581,bicycle,bicycle,0,0365_scg_s01_0_bicycle_00_bicycle10-airplane2.png
subject-01,1,366,0.800359010696411,chair,boat,0,0366_scg_s01_0_boat_00_boat7-truck2.png
subject-01,1,367,0.638466119766235,bird,bird,0,0367_scg_s01_0_bird_00_bird7-cat3.png
subject-01,1,368,0.597900152206421,dog,dog,0,0368_scg_s01_0_dog_00_dog4-oven1.png
subject-01,1,369,0.612663984298706,chair,elephant,0,0369_scg_s01_0_elephant_00_elephant6-truck3.png
subject-01,1,370,0.883126020431519,bird,boat,0,0370_scg_s01_0_boat_00_boat6-truck3.png
subject-01,1,371,0.580235004425049,truck,truck,0,0371_scg_s01_0_truck_00_truck9-bottle2.png
subject-01,1,372,0.877875089645386,bird,bird,0,0372_scg_s01_0_bird_00_bird6-bottle3.png
subject-01,1,373,1.05397510528564,car,car,0,0373_scg_s01_0_car_00_car10-car1.png
subject-01,1,374,0.475363969802856,clock,clock,0,0374_scg_s01_0_clock_00_clock4-airplane1.png
subject-01,1,375,0.698131084442139,keyboard,cat,0,0375_scg_s01_0_cat_00_cat5-keyboard3.png
subject-01,1,376,0.627629041671753,clock,clock,0,0376_scg_s01_0_clock_00_clock7-dog2.png
subject-01,1,377,1.08710598945618,bear,bear,0,0377_scg_s01_0_bear_00_bear5-airplane3.png
subject-01,1,378,0.763365030288696,keyboard,keyboard,0,0378_scg_s01_0_keyboard_00_keyboard1-bear2.png
subject-01,1,379,0.685532093048096,oven,oven,0,0379_scg_s01_0_oven_00_oven5-bicycle1.png
subject-01,1,380,0.591132164001465,bicycle,bicycle,0,0380_scg_s01_0_bicycle_00_bicycle3-oven3.png
subject-01,1,381,0.504408121109009,clock,clock,0,0381_scg_s01_0_clock_00_clock3-bicycle2.png
subject-01,1,382,0.725865125656128,bird,bird,0,0382_scg_s01_0_bird_00_bird1-airplane2.png
subject-01,1,383,0.717532873153687,chair,airplane,0,0383_scg_s01_0_airplane_00_airplane6-chair3.png
subject-01,1,384,0.656357049942017,dog,dog,0,0384_scg_s01_0_dog_00_dog4-bird1.png
subject-01,1,385,0.662456035614014,dog,dog,0,0385_scg_s01_0_dog_00_dog10-bottle1.png
subject-01,1,386,0.784343004226685,bird,bird,0,0386_scg_s01_0_bird_00_bird7-oven3.png
subject-01,1,387,0.592970848083496,boat,bear,0,0387_scg_s01_0_bear_00_bear4-keyboard3.png
subject-01,1,388,0.961019039154053,truck,truck,0,0388_scg_s01_0_truck_00_truck9-chair3.png
subject-01,1,389,0.797171115875244,dog,dog,0,0389_scg_s01_0_dog_00_dog9-chair2.png
subject-01,1,390,0.851629972457886,elephant,elephant,0,0390_scg_s01_0_elephant_00_elephant5-bicycle3.png
subject-01,1,391,0.735612869262695,keyboard,keyboard,0,0391_scg_s01_0_keyboard_00_keyboard1-elephant3.png
subject-01,1,392,0.679692983627319,elephant,elephant,0,0392_scg_s01_0_elephant_00_elephant8-elephant1.png
subject-01,1,393,0.842097997665405,truck,truck,0,0393_scg_s01_0_truck_00_truck5-knife3.png
subject-01,1,394,0.647720098495483,oven,chair,0,0394_scg_s01_0_chair_00_chair6-bird2.png
subject-01,1,395,0.645482778549194,bicycle,bicycle,0,0395_scg_s01_0_bicycle_00_bicycle7-clock3.png
subject-01,1,396,0.76767110824585,bear,bear,0,0396_scg_s01_0_bear_00_bear1-airplane3.png
subject-01,1,397,0.613940954208374,bear,bear,0,0397_scg_s01_0_bear_00_bear1-bear3.png
subject-01,1,398,0.6650710105896,bottle,bottle,0,0398_scg_s01_0_bottle_00_bottle6-boat3.png
subject-01,1,399,0.702287912368774,bird,airplane,0,0399_scg_s01_0_airplane_00_airplane7-cat3.png
subject-01,1,400,0.662019014358521,knife,keyboard,0,0400_scg_s01_0_keyboard_00_keyboard6-elephant1.png
subject-01,1,401,0.545689821243286,keyboard,keyboard,0,0401_scg_s01_0_keyboard_00_keyboard5-dog3.png
subject-01,1,402,0.719056844711304,knife,knife,0,0402_scg_s01_0_knife_00_knife6-bottle3.png
subject-01,1,403,0.657099008560181,bear,bear,0,0403_scg_s01_0_bear_00_bear8-bicycle3.png
subject-01,1,404,0.749457120895386,dog,elephant,0,0404_scg_s01_0_elephant_00_elephant1-keyboard3.png
subject-01,1,405,0.571035146713257,bicycle,bicycle,0,0405_scg_s01_0_bicycle_00_bicycle10-boat3.png
subject-01,1,406,0.646888971328735,elephant,elephant,0,0406_scg_s01_0_elephant_00_elephant9-airplane2.png
subject-01,1,407,0.707283020019531,dog,dog,0,0407_scg_s01_0_dog_00_dog5-boat3.png
subject-01,1,408,0.582937955856323,car,car,0,0408_scg_s01_0_car_00_car6-bottle1.png
subject-01,1,409,0.688965082168579,bear,bear,0,0409_scg_s01_0_bear_00_bear1-bicycle3.png
subject-01,1,410,0.635961055755615,boat,cat,0,0410_scg_s01_0_cat_00_cat10-oven2.png
subject-01,1,411,0.48169207572937,clock,clock,0,0411_scg_s01_0_clock_00_clock10-bird3.png
subject-01,1,412,0.595489978790283,bird,bird,0,0412_scg_s01_0_bird_00_bird6-oven1.png
subject-01,1,413,0.679509878158569,chair,bottle,0,0413_scg_s01_0_bottle_00_bottle7-oven2.png
subject-01,1,414,0.615143060684204,bicycle,bicycle,0,0414_scg_s01_0_bicycle_00_bicycle3-truck3.png
subject-01,1,415,0.752647876739502,oven,oven,0,0415_scg_s01_0_oven_00_oven4-dog1.png
subject-01,1,416,1.18298006057739,car,car,0,0416_scg_s01_0_car_00_car5-cat1.png
subject-01,1,417,0.61851692199707,bottle,bottle,0,0417_scg_s01_0_bottle_00_bottle6-oven3.png
subject-01,1,418,0.765600919723511,cat,cat,0,0418_scg_s01_0_cat_00_cat9-bottle2.png
subject-01,1,419,0.603248119354248,clock,bird,0,0419_scg_s01_0_bird_00_bird3-knife3.png
subject-01,1,420,0.980127811431885,chair,chair,0,0420_scg_s01_0_chair_00_chair10-airplane2.png
subject-01,1,421,1.47243285179138,bear,bear,0,0421_scg_s01_0_bear_00_bear5-chair1.png
subject-01,1,422,1.26471900939941,knife,boat,0,0422_scg_s01_0_boat_00_boat4-knife2.png
subject-01,1,423,0.848817825317383,airplane,airplane,0,0423_scg_s01_0_airplane_00_airplane9-truck1.png
subject-01,1,424,0.892642974853516,truck,car,0,0424_scg_s01_0_car_00_car1-oven3.png
subject-01,1,425,0.671638011932373,bear,bear,0,0425_scg_s01_0_bear_00_bear2-cat2.png
subject-01,1,426,0.622736930847168,cat,boat,0,0426_scg_s01_0_boat_00_boat9-dog2.png
subject-01,1,427,0.590613126754761,dog,dog,0,0427_scg_s01_0_dog_00_dog4-chair1.png
subject-01,1,428,0.774662971496582,bear,bear,0,0428_scg_s01_0_bear_00_bear10-keyboard3.png
subject-01,1,429,0.626044034957886,car,car,0,0429_scg_s01_0_car_00_car3-oven3.png
subject-01,1,430,0.469467163085938,clock,clock,0,0430_scg_s01_0_clock_00_clock7-truck3.png
subject-01,1,431,0.84534478187561,truck,truck,0,0431_scg_s01_0_truck_00_truck5-dog3.png
subject-01,1,432,0.659476041793823,car,car,0,0432_scg_s01_0_car_00_car8-boat3.png
subject-01,1,433,0.757055997848511,elephant,elephant,0,0433_scg_s01_0_elephant_00_elephant6-bottle2.png
subject-01,1,434,0.756371974945068,truck,truck,0,0434_scg_s01_0_truck_00_truck10-clock1.png
subject-01,1,435,0.824899911880493,keyboard,keyboard,0,0435_scg_s01_0_keyboard_00_keyboard9-airplane3.png
subject-01,1,436,0.662633895874023,dog,dog,0,0436_scg_s01_0_dog_00_dog10-elephant1.png
subject-01,1,437,0.622334003448486,clock,airplane,0,0437_scg_s01_0_airplane_00_airplane5-oven3.png
subject-01,1,438,0.606941938400269,bear,bear,0,0438_scg_s01_0_bear_00_bear4-cat3.png
subject-01,1,439,0.690823078155518,oven,oven,0,0439_scg_s01_0_oven_00_oven1-cat1.png
subject-01,1,440,0.780557870864868,bottle,bottle,0,0440_scg_s01_0_bottle_00_bottle6-bicycle3.png
subject-01,1,441,0.940158128738403,chair,chair,0,0441_scg_s01_0_chair_00_chair5-keyboard2.png
subject-01,1,442,0.678488969802856,car,car,0,0442_scg_s01_0_car_00_car4-cat3.png
subject-01,1,443,0.808522939682007,elephant,elephant,0,0443_scg_s01_0_elephant_00_elephant2-bird1.png
subject-01,1,444,0.708752870559692,knife,boat,0,0444_scg_s01_0_boat_00_boat4-boat3.png
subject-01,1,445,0.768621921539307,keyboard,keyboard,0,0445_scg_s01_0_keyboard_00_keyboard5-bird3.png
subject-01,1,446,0.644450902938843,bottle,bottle,0,0446_scg_s01_0_bottle_00_bottle9-car3.png
subject-01,1,447,0.620191812515259,bottle,bottle,0,0447_scg_s01_0_bottle_00_bottle10-bear2.png
subject-01,1,448,0.664341926574707,cat,cat,0,0448_scg_s01_0_cat_00_cat4-clock2.png
subject-01,1,449,0.856609106063843,boat,boat,0,0449_scg_s01_0_boat_00_boat3-bicycle2.png
subject-01,1,450,0.587062120437622,boat,boat,0,0450_scg_s01_0_boat_00_boat8-bird2.png
subject-01,1,451,0.600347995758057,keyboard,keyboard,0,0451_scg_s01_0_keyboard_00_keyboard5-airplane3.png
subject-01,1,452,0.83031702041626,knife,elephant,0,0452_scg_s01_0_elephant_00_elephant2-keyboard3.png
subject-01,1,453,0.706598997116089,truck,truck,0,0453_scg_s01_0_truck_00_truck2-airplane3.png
subject-01,1,454,0.836101055145264,truck,truck,0,0454_scg_s01_0_truck_00_truck5-bird2.png
subject-01,1,455,0.841192007064819,bird,airplane,0,0455_scg_s01_0_airplane_00_airplane3-car1.png
subject-01,1,456,0.839848041534424,bird,dog,0,0456_scg_s01_0_dog_00_dog8-keyboard3.png
subject-01,1,457,0.677743911743164,keyboard,keyboard,0,0457_scg_s01_0_keyboard_00_keyboard9-truck3.png
subject-01,1,458,0.823538064956665,truck,oven,0,0458_scg_s01_0_oven_00_oven7-clock2.png
subject-01,1,459,0.745130062103271,bicycle,bicycle,0,0459_scg_s01_0_bicycle_00_bicycle4-truck3.png
subject-01,1,460,0.82697606086731,elephant,elephant,0,0460_scg_s01_0_elephant_00_elephant2-clock1.png
subject-01,1,461,0.802864074707031,car,car,0,0461_scg_s01_0_car_00_car1-car2.png
subject-01,1,462,0.940752029418945,car,oven,0,0462_scg_s01_0_oven_00_oven5-bird1.png
subject-01,1,463,0.784170150756836,dog,dog,0,0463_scg_s01_0_dog_00_dog3-bird2.png
subject-01,1,464,0.80861496925354,bird,bird,0,0464_scg_s01_0_bird_00_bird5-cat2.png
subject-01,1,465,0.722241878509521,bird,bird,0,0465_scg_s01_0_bird_00_bird1-oven1.png
subject-01,1,466,0.566434860229492,cat,cat,0,0466_scg_s01_0_cat_00_cat1-boat1.png
subject-01,1,467,0.728955984115601,airplane,airplane,0,0467_scg_s01_0_airplane_00_airplane2-bicycle1.png
subject-01,1,468,0.818444013595581,bottle,bottle,0,0468_scg_s01_0_bottle_00_bottle9-bicycle1.png
subject-01,1,469,0.794109106063843,bird,cat,0,0469_scg_s01_0_cat_00_cat4-car2.png
subject-01,1,470,0.802564859390259,clock,clock,0,0470_scg_s01_0_clock_00_clock1-car1.png
subject-01,1,471,0.746407985687256,truck,truck,0,0471_scg_s01_0_truck_00_truck5-car1.png
subject-01,1,472,0.754683971405029,bottle,bottle,0,0472_scg_s01_0_bottle_00_bottle9-keyboard1.png
subject-01,1,473,1.19339084625244,truck,car,0,0473_scg_s01_0_car_00_car5-airplane3.png
subject-01,1,474,0.66926097869873,truck,truck,0,0474_scg_s01_0_truck_00_truck3-bicycle1.png
subject-01,1,475,0.629621982574463,clock,clock,0,0475_scg_s01_0_clock_00_clock10-airplane1.png
subject-01,1,476,0.675579071044922,keyboard,keyboard,0,0476_scg_s01_0_keyboard_00_keyboard4-cat2.png
subject-01,1,477,0.905625820159912,dog,dog,0,0477_scg_s01_0_dog_00_dog8-oven3.png
subject-01,1,478,0.84127402305603,dog,boat,0,0478_scg_s01_0_boat_00_boat9-bear3.png
subject-01,1,479,0.925323963165283,truck,dog,0,0479_scg_s01_0_dog_00_dog5-oven1.png
subject-01,1,480,0.754871129989624,car,bird,0,0480_scg_s01_0_bird_00_bird7-truck2.png
subject-01,1,481,0.851845026016235,car,car,0,0481_scg_s01_0_car_00_car2-knife3.png
subject-01,1,482,0.774632930755615,bird,airplane,0,0482_scg_s01_0_airplane_00_airplane4-bear3.png
subject-01,1,483,0.890978097915649,truck,car,0,0483_scg_s01_0_car_00_car1-chair3.png
subject-01,1,484,0.726636171340942,car,car,0,0484_scg_s01_0_car_00_car7-clock1.png
subject-01,1,485,0.751097202301025,bear,bear,0,0485_scg_s01_0_bear_00_bear10-bear2.png
subject-01,1,486,0.579678058624268,keyboard,keyboard,0,0486_scg_s01_0_keyboard_00_keyboard10-boat2.png
subject-01,1,487,0.879625082015991,bird,airplane,0,0487_scg_s01_0_airplane_00_airplane2-bear1.png
subject-01,1,488,1.03872394561768,elephant,elephant,0,0488_scg_s01_0_elephant_00_elephant4-chair3.png
subject-01,1,489,0.690655946731567,keyboard,keyboard,0,0489_scg_s01_0_keyboard_00_keyboard4-truck3.png
subject-01,1,490,0.650537967681885,bird,bird,0,0490_scg_s01_0_bird_00_bird5-chair1.png
subject-01,1,491,0.475136041641235,clock,clock,0,0491_scg_s01_0_clock_00_clock6-bird3.png
subject-01,1,492,0.47321605682373,boat,boat,0,0492_scg_s01_0_boat_00_boat8-knife1.png
subject-01,1,493,0.741069078445435,keyboard,keyboard,0,0493_scg_s01_0_keyboard_00_keyboard3-car2.png
subject-01,1,494,0.717633962631226,clock,clock,0,0494_scg_s01_0_clock_00_clock7-bicycle1.png
subject-01,1,495,0.838809013366699,dog,dog,0,0495_scg_s01_0_dog_00_dog1-airplane3.png
subject-01,1,496,0.782413959503174,bird,knife,0,0496_scg_s01_0_knife_00_knife6-airplane1.png
subject-01,1,497,0.65062689781189,car,car,0,0497_scg_s01_0_car_00_car3-boat1.png
subject-01,1,498,0.71247410774231,bicycle,bicycle,0,0498_scg_s01_0_bicycle_00_bicycle2-bottle1.png
subject-01,1,499,0.956629037857056,knife,boat,0,0499_scg_s01_0_boat_00_boat6-dog1.png
subject-01,1,500,0.624225854873657,chair,chair,0,0500_scg_s01_0_chair_00_chair8-airplane1.png
subject-01,1,501,0.646080017089844,truck,truck,0,0501_scg_s01_0_truck_00_truck2-bicycle2.png
subject-01,1,502,0.645566940307617,keyboard,keyboard,0,0502_scg_s01_0_keyboard_00_keyboard7-car3.png
subject-01,1,503,1.07400989532471,elephant,elephant,0,0503_scg_s01_0_elephant_00_elephant4-boat3.png
subject-01,1,504,0.803016901016235,bird,bird,0,0504_scg_s01_0_bird_00_bird5-car2.png
subject-01,1,505,0.562456130981445,truck,truck,0,0505_scg_s01_0_truck_00_truck4-bear1.png
subject-01,1,506,1.09068012237549,bottle,bottle,0,0506_scg_s01_0_bottle_00_bottle4-airplane1.png
subject-01,1,507,1.07526993751526,bicycle,dog,0,0507_scg_s01_0_dog_00_dog7-chair2.png
subject-01,1,508,0.650674104690552,bottle,knife,0,0508_scg_s01_0_knife_00_knife9-bottle2.png
subject-01,1,509,0.650615930557251,bicycle,bicycle,0,0509_scg_s01_0_bicycle_00_bicycle8-chair2.png
subject-01,1,510,0.540165901184082,elephant,elephant,0,0510_scg_s01_0_elephant_00_elephant7-bottle3.png
subject-01,1,511,0.916515111923218,cat,cat,0,0511_scg_s01_0_cat_00_cat4-keyboard2.png
subject-01,1,512,0.745710134506226,elephant,elephant,0,0512_scg_s01_0_elephant_00_elephant9-bicycle2.png
subject-01,1,513,0.806190967559814,bottle,bottle,0,0513_scg_s01_0_bottle_00_bottle1-bird3.png
subject-01,1,514,1.00450205802917,elephant,elephant,0,0514_scg_s01_0_elephant_00_elephant5-bottle2.png
subject-01,1,515,0.787548065185547,dog,dog,0,0515_scg_s01_0_dog_00_dog5-truck2.png
subject-01,1,516,0.723020076751709,keyboard,keyboard,0,0516_scg_s01_0_keyboard_00_keyboard4-oven2.png
subject-01,1,517,0.71489691734314,chair,chair,0,0517_scg_s01_0_chair_00_chair8-oven1.png
subject-01,1,518,0.81136679649353,bicycle,bicycle,0,0518_scg_s01_0_bicycle_00_bicycle9-bird3.png
subject-01,1,519,0.655534982681274,bicycle,bicycle,0,0519_scg_s01_0_bicycle_00_bicycle7-bicycle2.png
subject-01,1,520,0.8070969581604,knife,knife,0,0520_scg_s01_0_knife_00_knife4-clock3.png
subject-01,1,521,0.484667062759399,clock,clock,0,0521_scg_s01_0_clock_00_clock4-bird3.png
subject-01,1,522,0.553320169448853,bird,bird,0,0522_scg_s01_0_bird_00_bird9-chair1.png
subject-01,1,523,0.81340217590332,knife,knife,0,0523_scg_s01_0_knife_00_knife10-keyboard3.png
subject-01,1,524,0.543026924133301,bottle,bottle,0,0524_scg_s01_0_bottle_00_bottle3-knife3.png
subject-01,1,525,0.589882135391235,oven,oven,0,0525_scg_s01_0_oven_00_oven10-bicycle1.png
subject-01,1,526,0.897845029830933,car,car,0,0526_scg_s01_0_car_00_car4-car2.png
subject-01,1,527,0.642333984375,bird,bird,0,0527_scg_s01_0_bird_00_bird3-cat1.png
subject-01,1,528,0.811954975128174,car,car,0,0528_scg_s01_0_car_00_car10-keyboard2.png
subject-01,1,529,1.34801006317139,truck,boat,0,0529_scg_s01_0_boat_00_boat1-chair3.png
subject-01,1,530,0.748957872390747,boat,boat,0,0530_scg_s01_0_boat_00_boat5-airplane1.png
subject-01,1,531,0.678652048110962,elephant,elephant,0,0531_scg_s01_0_elephant_00_elephant7-car3.png
subject-01,1,532,0.556895017623901,clock,clock,0,0532_scg_s01_0_clock_00_clock8-airplane2.png
subject-01,1,533,0.686659812927246,car,car,0,0533_scg_s01_0_car_00_car4-oven2.png
subject-01,1,534,0.8228919506073,truck,truck,0,0534_scg_s01_0_truck_00_truck2-elephant1.png
subject-01,1,535,0.815158843994141,chair,chair,0,0535_scg_s01_0_chair_00_chair7-knife2.png
subject-01,1,536,0.615960121154785,airplane,airplane,0,0536_scg_s01_0_airplane_00_airplane10-airplane1.png
subject-01,1,537,0.700570106506348,chair,chair,0,0537_scg_s01_0_chair_00_chair3-knife1.png
subject-01,1,538,0.84611988067627,car,car,0,0538_scg_s01_0_car_00_car6-bear1.png
subject-01,1,539,0.911301851272583,knife,knife,0,0539_scg_s01_0_knife_00_knife5-cat2.png
subject-01,1,540,0.681658983230591,car,car,0,0540_scg_s01_0_car_00_car8-truck3.png
subject-01,1,541,0.628427028656006,keyboard,keyboard,0,0541_scg_s01_0_keyboard_00_keyboard7-oven2.png
subject-01,1,542,0.518310070037842,oven,oven,0,0542_scg_s01_0_oven_00_oven5-airplane1.png
subject-01,1,543,0.447883129119873,clock,clock,0,0543_scg_s01_0_clock_00_clock8-bear2.png
subject-01,1,544,0.670192003250122,cat,cat,0,0544_scg_s01_0_cat_00_cat10-bottle1.png
subject-01,1,545,0.715965986251831,bird,airplane,0,0545_scg_s01_0_airplane_00_airplane7-keyboard1.png
subject-01,1,546,0.612967014312744,cat,knife,0,0546_scg_s01_0_knife_00_knife7-elephant2.png
subject-01,1,547,1.06502389907837,knife,airplane,0,0547_scg_s01_0_airplane_00_airplane4-bicycle2.png
subject-01,1,548,0.556749105453491,cat,cat,0,0548_scg_s01_0_cat_00_cat7-dog3.png
subject-01,1,549,0.548502922058105,clock,clock,0,0549_scg_s01_0_clock_00_clock6-chair3.png
subject-01,1,550,1.06382298469543,knife,knife,0,0550_scg_s01_0_knife_00_knife6-oven3.png
subject-01,1,551,0.761330842971802,elephant,elephant,0,0551_scg_s01_0_elephant_00_elephant8-cat1.png
subject-01,1,552,0.714999914169312,elephant,bear,0,0552_scg_s01_0_bear_00_bear5-bird1.png
subject-01,1,553,0.582949876785278,clock,clock,0,0553_scg_s01_0_clock_00_clock9-cat1.png
subject-01,1,554,0.842320919036865,bottle,bottle,0,0554_scg_s01_0_bottle_00_bottle8-knife1.png
subject-01,1,555,0.726657867431641,bear,bear,0,0555_scg_s01_0_bear_00_bear5-bottle1.png
subject-01,1,556,0.819583177566528,oven,oven,0,0556_scg_s01_0_oven_00_oven7-bottle1.png
subject-01,1,557,0.871894836425781,knife,airplane,0,0557_scg_s01_0_airplane_00_airplane4-knife1.png
subject-01,1,558,0.648656845092773,bird,bird,0,0558_scg_s01_0_bird_00_bird6-elephant2.png
subject-01,1,559,0.740288972854614,dog,dog,0,0559_scg_s01_0_dog_00_dog2-airplane2.png
subject-01,1,560,0.546187877655029,keyboard,keyboard,0,0560_scg_s01_0_keyboard_00_keyboard8-chair2.png
subject-01,1,561,0.613152980804443,bicycle,bicycle,0,0561_scg_s01_0_bicycle_00_bicycle7-knife2.png
subject-01,1,562,0.551018953323364,bird,bird,0,0562_scg_s01_0_bird_00_bird2-car3.png
subject-01,1,563,0.594971895217896,bird,bird,0,0563_scg_s01_0_bird_00_bird9-bicycle3.png
subject-01,1,564,0.770725011825562,cat,cat,0,0564_scg_s01_0_cat_00_cat10-elephant3.png
subject-01,1,565,0.792903900146484,elephant,elephant,0,0565_scg_s01_0_elephant_00_elephant6-bicycle1.png
subject-01,1,566,1.30724692344666,bird,airplane,0,0566_scg_s01_0_airplane_00_airplane4-boat3.png
subject-01,1,567,0.691222906112671,truck,truck,0,0567_scg_s01_0_truck_00_truck3-chair2.png
subject-01,1,568,0.707525014877319,chair,chair,0,0568_scg_s01_0_chair_00_chair5-bottle3.png
subject-01,1,569,0.705169916152954,truck,truck,0,0569_scg_s01_0_truck_00_truck4-oven2.png
subject-01,1,570,0.65698504447937,cat,cat,0,0570_scg_s01_0_cat_00_cat4-dog3.png
subject-01,1,571,1.24890422821045,elephant,bear,0,0571_scg_s01_0_bear_00_bear7-truck1.png
subject-01,1,572,1.10017800331116,bear,bear,0,0572_scg_s01_0_bear_00_bear8-bottle1.png
subject-01,1,573,0.891457080841064,clock,clock,0,0573_scg_s01_0_clock_00_clock8-truck2.png
subject-01,1,574,0.796648979187012,knife,airplane,0,0574_scg_s01_0_airplane_00_airplane10-knife3.png
subject-01,1,575,0.773298025131226,chair,chair,0,0575_scg_s01_0_chair_00_chair5-bicycle1.png
subject-01,1,576,0.664933919906616,cat,cat,0,0576_scg_s01_0_cat_00_cat6-keyboard3.png
subject-01,1,577,0.570708990097046,oven,oven,0,0577_scg_s01_0_oven_00_oven9-oven1.png
subject-01,1,578,0.539046049118042,bear,bear,0,0578_scg_s01_0_bear_00_bear7-bear2.png
subject-01,1,579,0.768733978271484,cat,bird,0,0579_scg_s01_0_bird_00_bird2-dog2.png
subject-01,1,580,0.715100049972534,bicycle,bicycle,0,0580_scg_s01_0_bicycle_00_bicycle5-car3.png
subject-01,1,581,0.636521100997925,bird,bear,0,0581_scg_s01_0_bear_00_bear6-bottle3.png
subject-01,1,582,0.812719106674194,elephant,elephant,0,0582_scg_s01_0_elephant_00_elephant10-keyboard1.png
subject-01,1,583,1.3347270488739,chair,knife,0,0583_scg_s01_0_knife_00_knife7-chair2.png
subject-01,1,584,0.986227035522461,truck,truck,0,0584_scg_s01_0_truck_00_truck10-bicycle1.png
subject-01,1,585,0.745149850845337,chair,chair,0,0585_scg_s01_0_chair_00_chair7-cat1.png
subject-01,1,586,0.712791919708252,clock,clock,0,0586_scg_s01_0_clock_00_clock10-boat2.png
subject-01,1,587,0.634473085403442,truck,airplane,0,0587_scg_s01_0_airplane_00_airplane10-boat3.png
subject-01,1,588,0.819010972976685,bicycle,bicycle,0,0588_scg_s01_0_bicycle_00_bicycle1-clock3.png
subject-01,1,589,0.65545392036438,bird,bird,0,0589_scg_s01_0_bird_00_bird3-truck3.png
subject-01,1,590,0.471307039260864,cat,cat,0,0590_scg_s01_0_cat_00_cat4-knife1.png
subject-01,1,591,1.08467197418213,bicycle,bicycle,0,0591_scg_s01_0_bicycle_00_bicycle3-keyboard1.png
subject-01,1,592,1.500333070755,car,car,0,0592_scg_s01_0_car_00_car2-chair1.png
subject-01,1,593,0.867552042007446,dog,dog,0,0593_scg_s01_0_dog_00_dog3-truck2.png
subject-01,1,594,0.705568075180054,cat,cat,0,0594_scg_s01_0_cat_00_cat10-bird2.png
subject-01,1,595,1.11914801597595,bottle,oven,0,0595_scg_s01_0_oven_00_oven6-elephant2.png
subject-01,1,596,0.627925872802734,oven,oven,0,0596_scg_s01_0_oven_00_oven6-knife3.png
subject-01,1,597,0.579227924346924,boat,boat,0,0597_scg_s01_0_boat_00_boat9-airplane2.png
subject-01,1,598,0.954699993133545,cat,cat,0,0598_scg_s01_0_cat_00_cat9-clock2.png
subject-01,1,599,0.668660879135132,bird,airplane,0,0599_scg_s01_0_airplane_00_airplane9-oven2.png
subject-01,1,600,0.721127033233643,bicycle,bicycle,0,0600_scg_s01_0_bicycle_00_bicycle1-bottle3.png
subject-01,1,601,0.644742965698242,clock,clock,0,0601_scg_s01_0_clock_00_clock5-elephant2.png
subject-01,1,602,0.666857957839966,bottle,bottle,0,0602_scg_s01_0_bottle_00_bottle5-chair1.png
subject-01,1,603,0.82625412940979,knife,truck,0,0603_scg_s01_0_truck_00_truck3-bear3.png
subject-01,1,604,0.862313985824585,bird,dog,0,0604_scg_s01_0_dog_00_dog6-bird1.png
subject-01,1,605,0.678238153457642,bicycle,bicycle,0,0605_scg_s01_0_bicycle_00_bicycle2-bicycle1.png
subject-01,1,606,1.04629802703857,bottle,bottle,0,0606_scg_s01_0_bottle_00_bottle2-bottle3.png
subject-01,1,607,0.759754180908203,airplane,airplane,0,0607_scg_s01_0_airplane_00_airplane1-chair2.png
subject-01,1,608,0.797567129135132,truck,truck,0,0608_scg_s01_0_truck_00_truck1-bicycle3.png
subject-01,1,609,0.824857950210571,dog,elephant,0,0609_scg_s01_0_elephant_00_elephant2-cat1.png
subject-01,1,610,0.603538036346436,boat,boat,0,0610_scg_s01_0_boat_00_boat4-chair2.png
subject-01,1,611,0.671383142471313,chair,chair,0,0611_scg_s01_0_chair_00_chair8-bear1.png
subject-01,1,612,0.73136305809021,clock,clock,0,0612_scg_s01_0_clock_00_clock7-boat3.png
subject-01,1,613,0.714660882949829,cat,cat,0,0613_scg_s01_0_cat_00_cat2-boat2.png
subject-01,1,614,0.926601886749268,dog,dog,0,0614_scg_s01_0_dog_00_dog4-bottle2.png
subject-01,1,615,0.686110019683838,bird,bird,0,0615_scg_s01_0_bird_00_bird10-clock1.png
subject-01,1,616,0.731611967086792,elephant,elephant,0,0616_scg_s01_0_elephant_00_elephant10-bear1.png
subject-01,1,617,1.45885300636292,dog,dog,0,0617_scg_s01_0_dog_00_dog1-dog2.png
subject-01,1,618,0.667644023895264,elephant,elephant,0,0618_scg_s01_0_elephant_00_elephant3-oven1.png
subject-01,1,619,0.68939208984375,bicycle,bicycle,0,0619_scg_s01_0_bicycle_00_bicycle10-clock2.png
subject-01,1,620,0.719245910644531,bottle,bottle,0,0620_scg_s01_0_bottle_00_bottle2-knife3.png
subject-01,1,621,0.570610046386719,clock,clock,0,0621_scg_s01_0_clock_00_clock2-dog1.png
subject-01,1,622,0.706346988677979,chair,chair,0,0622_scg_s01_0_chair_00_chair8-chair3.png
subject-01,1,623,0.576719045639038,bottle,bottle,0,0623_scg_s01_0_bottle_00_bottle1-chair2.png
subject-01,1,624,0.812139987945557,bear,bear,0,0624_scg_s01_0_bear_00_bear10-oven1.png
subject-01,1,625,0.70324182510376,elephant,elephant,0,0625_scg_s01_0_elephant_00_elephant2-boat1.png
subject-01,1,626,0.609884023666382,airplane,airplane,0,0626_scg_s01_0_airplane_00_airplane4-bird3.png
subject-01,1,627,0.716084957122803,truck,truck,0,0627_scg_s01_0_truck_00_truck2-bird2.png
subject-01,1,628,0.599722146987915,truck,truck,0,0628_scg_s01_0_truck_00_truck3-oven2.png
subject-01,1,629,0.751519918441772,knife,knife,0,0629_scg_s01_0_knife_00_knife1-bird2.png
subject-01,1,630,0.860574007034302,chair,chair,0,0630_scg_s01_0_chair_00_chair3-car3.png
subject-01,1,631,0.544809103012085,clock,clock,0,0631_scg_s01_0_clock_00_clock6-knife2.png
subject-01,1,632,0.651005029678345,knife,knife,0,0632_scg_s01_0_knife_00_knife9-bear3.png
subject-01,1,633,0.542541980743408,chair,chair,0,0633_scg_s01_0_chair_00_chair9-bottle3.png
subject-01,1,634,0.611526012420654,cat,cat,0,0634_scg_s01_0_cat_00_cat5-car2.png
subject-01,1,635,0.99583888053894,bear,bear,0,0635_scg_s01_0_bear_00_bear4-clock3.png
subject-01,1,636,0.79353404045105,chair,chair,0,0636_scg_s01_0_chair_00_chair1-elephant1.png
subject-01,1,637,0.937560081481934,dog,dog,0,0637_scg_s01_0_dog_00_dog1-chair1.png
subject-01,1,638,0.799576997756958,chair,chair,0,0638_scg_s01_0_chair_00_chair10-bird3.png
subject-01,1,639,0.875924825668335,bear,bear,0,0639_scg_s01_0_bear_00_bear2-car2.png
subject-01,1,640,0.74384593963623,chair,chair,0,0640_scg_s01_0_chair_00_chair1-truck3.png
subject-01,1,641,1.49615216255188,bicycle,bicycle,0,0641_scg_s01_0_bicycle_00_bicycle8-bird2.png
subject-01,1,642,0.847535848617554,car,car,0,0642_scg_s01_0_car_00_car1-airplane1.png
subject-01,1,643,0.663648843765259,car,car,0,0643_scg_s01_0_car_00_car10-bottle3.png
subject-01,1,644,0.669723033905029,bicycle,bicycle,0,0644_scg_s01_0_bicycle_00_bicycle4-chair2.png
subject-01,1,645,0.60538387298584,elephant,elephant,0,0645_scg_s01_0_elephant_00_elephant6-oven1.png
subject-01,1,646,0.650676965713501,oven,oven,0,0646_scg_s01_0_oven_00_oven8-cat3.png
subject-01,1,647,0.686861038208008,bird,bird,0,0647_scg_s01_0_bird_00_bird8-clock1.png
subject-01,1,648,0.68721604347229,elephant,bird,0,0648_scg_s01_0_bird_00_bird10-elephant2.png
subject-01,1,649,0.578400850296021,knife,boat,0,0649_scg_s01_0_boat_00_boat4-bicycle3.png
subject-01,1,650,0.784803152084351,chair,chair,0,0650_scg_s01_0_chair_00_chair1-cat3.png
subject-01,1,651,0.889569044113159,bicycle,bottle,0,0651_scg_s01_0_bottle_00_bottle7-keyboard2.png
subject-01,1,652,0.725353956222534,knife,boat,0,0652_scg_s01_0_boat_00_boat1-keyboard3.png
subject-01,1,653,0.739579916000366,bottle,bottle,0,0653_scg_s01_0_bottle_00_bottle8-bicycle1.png
subject-01,1,654,0.693334102630615,bicycle,bicycle,0,0654_scg_s01_0_bicycle_00_bicycle5-keyboard3.png
subject-01,1,655,0.615356922149658,clock,clock,0,0655_scg_s01_0_clock_00_clock7-bottle2.png
subject-01,1,656,0.52908992767334,clock,clock,0,0656_scg_s01_0_clock_00_clock3-keyboard3.png
subject-01,1,657,0.64294695854187,cat,bear,0,0657_scg_s01_0_bear_00_bear3-dog3.png
subject-01,1,658,0.626787185668945,knife,knife,0,0658_scg_s01_0_knife_00_knife2-dog1.png
subject-01,1,659,0.72501802444458,elephant,elephant,0,0659_scg_s01_0_elephant_00_elephant4-car3.png
subject-01,1,660,0.642621040344238,clock,clock,0,0660_scg_s01_0_clock_00_clock9-chair3.png
subject-01,1,661,0.618522882461548,cat,dog,0,0661_scg_s01_0_dog_00_dog2-knife3.png
subject-01,1,662,0.762076139450073,bicycle,bicycle,0,0662_scg_s01_0_bicycle_00_bicycle4-airplane1.png
subject-01,1,663,0.577781915664673,keyboard,keyboard,0,0663_scg_s01_0_keyboard_00_keyboard10-oven3.png
subject-01,1,664,0.676104068756104,bicycle,bicycle,0,0664_scg_s01_0_bicycle_00_bicycle5-bottle3.png
subject-01,1,665,0.774461030960083,bird,bird,0,0665_scg_s01_0_bird_00_bird5-bird1.png
subject-01,1,666,0.619637966156006,bottle,bottle,0,0666_scg_s01_0_bottle_00_bottle1-car1.png
subject-01,1,667,0.601371049880981,cat,cat,0,0667_scg_s01_0_cat_00_cat4-chair2.png
subject-01,1,668,0.548027038574219,boat,boat,0,0668_scg_s01_0_boat_00_boat8-dog3.png
subject-01,1,669,0.707895040512085,truck,truck,0,0669_scg_s01_0_truck_00_truck7-bear2.png
subject-01,1,670,0.729655981063843,car,car,0,0670_scg_s01_0_car_00_car1-clock2.png
subject-01,1,671,0.721657991409302,dog,dog,0,0671_scg_s01_0_dog_00_dog9-cat1.png
subject-01,1,672,0.4895179271698,cat,cat,0,0672_scg_s01_0_cat_00_cat8-bird2.png
subject-01,1,673,0.554625034332275,bottle,bottle,0,0673_scg_s01_0_bottle_00_bottle4-truck1.png
subject-01,1,674,0.655622005462646,knife,knife,0,0674_scg_s01_0_knife_00_knife10-dog1.png
subject-01,1,675,0.553698062896729,chair,chair,0,0675_scg_s01_0_chair_00_chair10-bicycle1.png
subject-01,1,676,0.684074878692627,bird,bird,0,0676_scg_s01_0_bird_00_bird5-keyboard2.png
subject-01,1,677,0.689291000366211,clock,clock,0,0677_scg_s01_0_clock_00_clock3-cat1.png
subject-01,1,678,0.527544021606445,airplane,airplane,0,0678_scg_s01_0_airplane_00_airplane7-bird3.png
subject-01,1,679,0.764770984649658,oven,oven,0,0679_scg_s01_0_oven_00_oven9-keyboard1.png
subject-01,1,680,0.616858005523682,knife,knife,0,0680_scg_s01_0_knife_00_knife9-chair1.png
subject-01,1,681,0.715443134307861,oven,airplane,0,0681_scg_s01_0_airplane_00_airplane8-oven2.png
subject-01,1,682,0.982944965362549,car,car,0,0682_scg_s01_0_car_00_car6-chair3.png
subject-01,1,683,0.942847013473511,keyboard,keyboard,0,0683_scg_s01_0_keyboard_00_keyboard6-dog2.png
subject-01,1,684,0.613234043121338,bird,bird,0,0684_scg_s01_0_bird_00_bird9-dog2.png
subject-01,1,685,0.773020029067993,car,car,0,0685_scg_s01_0_car_00_car2-car3.png
subject-01,1,686,0.824731826782227,chair,chair,0,0686_scg_s01_0_chair_00_chair5-truck3.png
subject-01,1,687,0.6923987865448,airplane,airplane,0,0687_scg_s01_0_airplane_00_airplane6-knife1.png
subject-01,1,688,0.977729082107544,elephant,bird,0,0688_scg_s01_0_bird_00_bird3-bird2.png
subject-01,1,689,0.807374000549316,car,cat,0,0689_scg_s01_0_cat_00_cat3-oven2.png
subject-01,1,690,0.767460107803345,bird,bird,0,0690_scg_s01_0_bird_00_bird2-knife1.png
subject-01,1,691,0.689401149749756,keyboard,keyboard,0,0691_scg_s01_0_keyboard_00_keyboard1-airplane2.png
subject-01,1,692,1.06281995773315,truck,truck,0,0692_scg_s01_0_truck_00_truck6-truck2.png
subject-01,1,693,0.570317983627319,clock,clock,0,0693_scg_s01_0_clock_00_clock3-bear3.png
subject-01,1,694,0.660385131835938,dog,dog,0,0694_scg_s01_0_dog_00_dog7-bird3.png
subject-01,1,695,0.536700010299683,airplane,airplane,0,0695_scg_s01_0_airplane_00_airplane8-clock2.png
subject-01,1,696,0.704150199890137,chair,chair,0,0696_scg_s01_0_chair_00_chair8-car1.png
subject-01,1,697,0.472078084945679,oven,oven,0,0697_scg_s01_0_oven_00_oven3-airplane1.png
subject-01,1,698,0.473042011260986,oven,oven,0,0698_scg_s01_0_oven_00_oven6-bicycle1.png
subject-01,1,699,0.638370037078857,airplane,airplane,0,0699_scg_s01_0_airplane_00_airplane10-elephant1.png
subject-01,1,700,0.785325050354004,car,car,0,0700_scg_s01_0_car_00_car5-knife2.png
subject-01,1,701,0.614543199539185,knife,knife,0,0701_scg_s01_0_knife_00_knife1-car3.png
subject-01,1,702,0.874214887619019,bird,cat,0,0702_scg_s01_0_cat_00_cat7-boat3.png
subject-01,1,703,0.825993061065674,chair,chair,0,0703_scg_s01_0_chair_00_chair9-chair3.png
subject-01,1,704,0.569945812225342,cat,cat,0,0704_scg_s01_0_cat_00_cat9-bicycle1.png
subject-01,1,705,0.614970922470093,oven,oven,0,0705_scg_s01_0_oven_00_oven6-chair3.png
subject-01,1,706,0.750871896743774,dog,boat,0,0706_scg_s01_0_boat_00_boat7-bottle1.png
subject-01,1,707,0.688693046569824,bear,bear,0,0707_scg_s01_0_bear_00_bear9-keyboard3.png
subject-01,1,708,0.616324901580811,clock,clock,0,0708_scg_s01_0_clock_00_clock4-chair1.png
subject-01,1,709,0.745958089828491,keyboard,keyboard,0,0709_scg_s01_0_keyboard_00_keyboard5-bicycle1.png
subject-01,1,710,0.785479068756104,dog,bear,0,0710_scg_s01_0_bear_00_bear6-clock1.png
subject-01,1,711,0.599027872085571,chair,chair,0,0711_scg_s01_0_chair_00_chair7-bird1.png
subject-01,1,712,0.559007167816162,boat,boat,0,0712_scg_s01_0_boat_00_boat9-chair2.png
subject-01,1,713,0.53989315032959,chair,chair,0,0713_scg_s01_0_chair_00_chair7-bottle1.png
subject-01,1,714,0.962283849716187,keyboard,keyboard,0,0714_scg_s01_0_keyboard_00_keyboard1-chair2.png
subject-01,1,715,1.1763927936554,knife,boat,0,0715_scg_s01_0_boat_00_boat1-elephant3.png
subject-01,1,716,0.898983001708984,knife,knife,0,0716_scg_s01_0_knife_00_knife9-boat1.png
subject-01,1,717,0.653239011764526,bicycle,bicycle,0,0717_scg_s01_0_bicycle_00_bicycle6-bicycle3.png
subject-01,1,718,0.559069156646729,clock,clock,0,0718_scg_s01_0_clock_00_clock2-clock3.png
subject-01,1,719,0.586788892745972,boat,boat,0,0719_scg_s01_0_boat_00_boat5-boat3.png
subject-01,1,720,0.700876951217651,bottle,bottle,0,0720_scg_s01_0_bottle_00_bottle10-dog1.png
subject-01,1,721,0.668517827987671,bear,bear,0,0721_scg_s01_0_bear_00_bear4-elephant2.png
subject-01,1,722,0.798370122909546,elephant,cat,0,0722_scg_s01_0_cat_00_cat10-keyboard1.png
subject-01,1,723,0.688416004180908,bird,bird,0,0723_scg_s01_0_bird_00_bird8-bottle1.png
subject-01,1,724,0.640352964401245,chair,chair,0,0724_scg_s01_0_chair_00_chair5-oven2.png
subject-01,1,725,0.708291053771973,truck,truck,0,0725_scg_s01_0_truck_00_truck4-bottle2.png
subject-01,1,726,0.705361127853394,keyboard,keyboard,0,0726_scg_s01_0_keyboard_00_keyboard8-dog3.png
subject-01,1,727,0.619570016860962,chair,knife,0,0727_scg_s01_0_knife_00_knife4-oven2.png
subject-01,1,728,0.549486875534058,cat,cat,0,0728_scg_s01_0_cat_00_cat1-car2.png
subject-01,1,729,0.723004817962646,elephant,elephant,0,0729_scg_s01_0_elephant_00_elephant10-elephant1.png
subject-01,1,730,0.720629215240479,boat,boat,0,0730_scg_s01_0_boat_00_boat10-truck1.png
subject-01,1,731,0.659785985946655,elephant,elephant,0,0731_scg_s01_0_elephant_00_elephant3-chair1.png
subject-01,1,732,0.481543064117432,boat,boat,0,0732_scg_s01_0_boat_00_boat5-clock3.png
subject-01,1,733,0.857297897338867,knife,boat,0,0733_scg_s01_0_boat_00_boat2-keyboard1.png
subject-01,1,734,0.87230396270752,dog,dog,0,0734_scg_s01_0_dog_00_dog1-bear1.png
subject-01,1,735,0.804840087890625,elephant,boat,0,0735_scg_s01_0_boat_00_boat3-dog3.png
subject-01,1,736,0.595165967941284,airplane,airplane,0,0736_scg_s01_0_airplane_00_airplane1-bicycle2.png
subject-01,1,737,0.654999971389771,car,car,0,0737_scg_s01_0_car_00_car9-truck3.png
subject-01,1,738,0.722393989562988,bear,bear,0,0738_scg_s01_0_bear_00_bear8-truck3.png
subject-01,1,739,0.644290924072266,bird,bird,0,0739_scg_s01_0_bird_00_bird10-cat1.png
subject-01,1,740,0.64205002784729,oven,oven,0,0740_scg_s01_0_oven_00_oven2-boat3.png
subject-01,1,741,0.514986038208008,cat,cat,0,0741_scg_s01_0_cat_00_cat2-knife3.png
subject-01,1,742,0.791521072387695,bicycle,bicycle,0,0742_scg_s01_0_bicycle_00_bicycle9-bottle1.png
subject-01,1,743,0.559252977371216,clock,clock,0,0743_scg_s01_0_clock_00_clock5-keyboard1.png
subject-01,1,744,0.502267122268677,cat,cat,0,0744_scg_s01_0_cat_00_cat7-bottle1.png
subject-01,1,745,0.686898946762085,keyboard,keyboard,0,0745_scg_s01_0_keyboard_00_keyboard1-car3.png
subject-01,1,746,0.838268041610718,knife,knife,0,0746_scg_s01_0_knife_00_knife8-boat1.png
subject-01,1,747,0.615792036056519,keyboard,bear,0,0747_scg_s01_0_bear_00_bear2-keyboard2.png
subject-01,1,748,0.482421875,cat,cat,0,0748_scg_s01_0_cat_00_cat6-bear1.png
subject-01,1,749,0.664257049560547,car,car,0,0749_scg_s01_0_car_00_car10-bicycle2.png
subject-01,1,750,0.580507040023804,airplane,airplane,0,0750_scg_s01_0_airplane_00_airplane4-elephant1.png
subject-01,1,751,0.916643142700195,airplane,boat,0,0751_scg_s01_0_boat_00_boat6-bottle2.png
subject-01,1,752,0.475867986679077,cat,cat,0,0752_scg_s01_0_cat_00_cat2-elephant1.png
subject-01,1,753,0.743079900741577,oven,oven,0,0753_scg_s01_0_oven_00_oven7-oven1.png
subject-01,1,754,0.494385957717896,oven,oven,0,0754_scg_s01_0_oven_00_oven4-clock2.png
subject-01,1,755,0.600066900253296,bicycle,bicycle,0,0755_scg_s01_0_bicycle_00_bicycle1-dog3.png
subject-01,1,756,0.597900867462158,chair,dog,0,0756_scg_s01_0_dog_00_dog8-chair3.png
subject-01,1,757,0.666006088256836,keyboard,keyboard,0,0757_scg_s01_0_keyboard_00_keyboard5-keyboard1.png
subject-01,1,758,0.542845964431763,bottle,bottle,0,0758_scg_s01_0_bottle_00_bottle5-knife1.png
subject-01,1,759,0.726854085922241,bear,bear,0,0759_scg_s01_0_bear_00_bear3-bird3.png
subject-01,1,760,0.686676025390625,car,car,0,0760_scg_s01_0_car_00_car6-truck3.png
subject-01,1,761,0.576332092285156,cat,cat,0,0761_scg_s01_0_cat_00_cat6-chair3.png
subject-01,1,762,0.610090017318726,car,car,0,0762_scg_s01_0_car_00_car3-airplane3.png
subject-01,1,763,0.561230182647705,dog,dog,0,0763_scg_s01_0_dog_00_dog10-truck2.png
subject-01,1,764,0.788936138153076,boat,knife,0,0764_scg_s01_0_knife_00_knife1-keyboard3.png
subject-01,1,765,0.635355949401855,bicycle,bicycle,0,0765_scg_s01_0_bicycle_00_bicycle2-dog1.png
subject-01,1,766,0.580962896347046,bear,bear,0,0766_scg_s01_0_bear_00_bear8-elephant2.png
subject-01,1,767,0.855034828186035,cat,cat,0,0767_scg_s01_0_cat_00_cat9-bird3.png
subject-01,1,768,0.722644805908203,bottle,bottle,0,0768_scg_s01_0_bottle_00_bottle3-bicycle3.png
subject-01,1,769,0.844862937927246,keyboard,keyboard,0,0769_scg_s01_0_keyboard_00_keyboard9-cat1.png
subject-01,1,770,0.942176103591919,knife,keyboard,0,0770_scg_s01_0_keyboard_00_keyboard2-knife1.png
subject-01,1,771,0.717833042144775,bird,airplane,0,0771_scg_s01_0_airplane_00_airplane4-truck2.png
subject-01,1,772,0.677379846572876,bird,bird,0,0772_scg_s01_0_bird_00_bird10-bear2.png
subject-01,1,773,0.645745992660522,elephant,elephant,0,0773_scg_s01_0_elephant_00_elephant6-car3.png
subject-01,1,774,0.84576416015625,dog,dog,0,0774_scg_s01_0_dog_00_dog10-dog1.png
subject-01,1,775,0.743484020233154,elephant,bear,0,0775_scg_s01_0_bear_00_bear10-truck1.png
subject-01,1,776,0.44928503036499,oven,oven,0,0776_scg_s01_0_oven_00_oven2-bird2.png
subject-01,1,777,0.671087026596069,knife,knife,0,0777_scg_s01_0_knife_00_knife2-bird1.png
subject-01,1,778,0.801707983016968,knife,knife,0,0778_scg_s01_0_knife_00_knife8-bottle3.png
subject-01,1,779,0.594125986099243,cat,cat,0,0779_scg_s01_0_cat_00_cat1-oven1.png
subject-01,1,780,0.599106073379517,boat,boat,0,0780_scg_s01_0_boat_00_boat9-clock1.png
subject-01,1,781,0.721518039703369,oven,oven,0,0781_scg_s01_0_oven_00_oven4-chair1.png
subject-01,1,782,0.505318880081177,oven,oven,0,0782_scg_s01_0_oven_00_oven10-oven3.png
subject-01,1,783,1.17867088317871,car,car,0,0783_scg_s01_0_car_00_car4-clock1.png
subject-01,1,784,0.625162124633789,oven,oven,0,0784_scg_s01_0_oven_00_oven9-airplane2.png
subject-01,1,785,0.654000043869019,bottle,bottle,0,0785_scg_s01_0_bottle_00_bottle10-boat3.png
subject-01,1,786,0.736243009567261,car,car,0,0786_scg_s01_0_car_00_car7-dog3.png
subject-01,1,787,0.812521934509277,truck,truck,0,0787_scg_s01_0_truck_00_truck3-clock3.png
subject-01,1,788,0.796300888061523,chair,chair,0,0788_scg_s01_0_chair_00_chair1-airplane2.png
subject-01,1,789,1.0561580657959,dog,bear,0,0789_scg_s01_0_bear_00_bear3-car2.png
subject-01,1,790,1.42189788818359,airplane,airplane,0,0790_scg_s01_0_airplane_00_airplane7-car1.png
subject-01,1,791,0.94534707069397,car,car,0,0791_scg_s01_0_car_00_car8-clock2.png
subject-01,1,792,0.911367893218994,truck,truck,0,0792_scg_s01_0_truck_00_truck8-dog3.png
subject-01,1,793,0.735368013381958,airplane,airplane,0,0793_scg_s01_0_airplane_00_airplane10-dog3.png
subject-01,1,794,0.654780149459839,dog,dog,0,0794_scg_s01_0_dog_00_dog1-boat3.png
subject-01,1,795,0.539210796356201,bird,bird,0,0795_scg_s01_0_bird_00_bird3-dog1.png
subject-01,1,796,0.68498706817627,bird,bird,0,0796_scg_s01_0_bird_00_bird8-elephant1.png
subject-01,1,797,1.03726696968079,car,knife,0,0797_scg_s01_0_knife_00_knife7-car2.png
subject-01,1,798,0.659542083740234,airplane,airplane,0,0798_scg_s01_0_airplane_00_airplane10-truck1.png
subject-01,1,799,0.635485887527466,car,car,0,0799_scg_s01_0_car_00_car4-bear3.png
subject-01,1,800,0.549805879592896,chair,chair,0,0800_scg_s01_0_chair_00_chair1-clock2.png
subject-01,1,801,0.579097032546997,car,car,0,0801_scg_s01_0_car_00_car4-boat1.png
subject-01,1,802,0.562879800796509,truck,truck,0,0802_scg_s01_0_truck_00_truck9-boat3.png
subject-01,1,803,0.714694976806641,knife,knife,0,0803_scg_s01_0_knife_00_knife5-dog1.png
subject-01,1,804,0.644814014434814,bottle,bottle,0,0804_scg_s01_0_bottle_00_bottle5-boat1.png
subject-01,1,805,0.867140054702759,clock,clock,0,0805_scg_s01_0_clock_00_clock8-keyboard1.png
subject-01,1,806,0.676153898239136,airplane,airplane,0,0806_scg_s01_0_airplane_00_airplane5-bear2.png
subject-01,1,807,0.757919073104858,bicycle,bicycle,0,0807_scg_s01_0_bicycle_00_bicycle1-bird1.png
subject-01,1,808,0.520411968231201,bicycle,bicycle,0,0808_scg_s01_0_bicycle_00_bicycle10-elephant2.png
subject-01,1,809,0.550631999969482,airplane,airplane,0,0809_scg_s01_0_airplane_00_airplane7-airplane3.png
subject-01,1,810,0.547957897186279,airplane,airplane,0,0810_scg_s01_0_airplane_00_airplane8-chair1.png
subject-01,1,811,0.684453964233398,chair,chair,0,0811_scg_s01_0_chair_00_chair8-elephant1.png
subject-01,1,812,0.700378894805908,boat,boat,0,0812_scg_s01_0_boat_00_boat10-boat3.png
subject-01,1,813,0.598416805267334,chair,chair,0,0813_scg_s01_0_chair_00_chair5-bird1.png
subject-01,1,814,0.651028156280518,chair,chair,0,0814_scg_s01_0_chair_00_chair2-boat1.png
subject-01,1,815,0.959590911865234,truck,truck,0,0815_scg_s01_0_truck_00_truck5-truck1.png
subject-01,1,816,0.572950124740601,clock,clock,0,0816_scg_s01_0_clock_00_clock7-car1.png
subject-01,1,817,0.795214176177979,dog,bear,0,0817_scg_s01_0_bear_00_bear3-bicycle2.png
subject-01,1,818,0.647178888320923,cat,cat,0,0818_scg_s01_0_cat_00_cat6-oven1.png
subject-01,1,819,0.468777894973755,oven,oven,0,0819_scg_s01_0_oven_00_oven4-bottle2.png
subject-01,1,820,0.769661903381348,elephant,elephant,0,0820_scg_s01_0_elephant_00_elephant9-dog3.png
subject-01,1,821,0.521014928817749,oven,oven,0,0821_scg_s01_0_oven_00_oven4-knife2.png
subject-01,1,822,0.797247886657715,knife,knife,0,0822_scg_s01_0_knife_00_knife2-bicycle3.png
subject-01,1,823,0.765339136123657,bird,bird,0,0823_scg_s01_0_bird_00_bird8-boat3.png
subject-01,1,824,0.792443037033081,car,car,0,0824_scg_s01_0_car_00_car7-boat3.png
subject-01,1,825,0.79278302192688,bottle,bottle,0,0825_scg_s01_0_bottle_00_bottle6-airplane1.png
subject-01,1,826,0.636269092559814,bottle,bottle,0,0826_scg_s01_0_bottle_00_bottle9-elephant2.png
subject-01,1,827,1.28818488121033,knife,clock,0,0827_scg_s01_0_clock_00_clock1-elephant2.png
subject-01,1,828,1.27982902526855,clock,clock,0,0828_scg_s01_0_clock_00_clock3-car2.png
subject-01,1,829,0.55284595489502,oven,oven,0,0829_scg_s01_0_oven_00_oven3-boat3.png
subject-01,1,830,0.477289915084839,oven,oven,0,0830_scg_s01_0_oven_00_oven3-elephant3.png
subject-01,1,831,0.466063022613525,oven,oven,0,0831_scg_s01_0_oven_00_oven6-bird1.png
subject-01,1,832,0.7796471118927,car,car,0,0832_scg_s01_0_car_00_car5-keyboard3.png
subject-01,1,833,0.685815095901489,bicycle,bicycle,0,0833_scg_s01_0_bicycle_00_bicycle4-oven3.png
subject-01,1,834,0.844645977020264,airplane,airplane,0,0834_scg_s01_0_airplane_00_airplane6-bear3.png
subject-01,1,835,0.851277828216553,bird,boat,0,0835_scg_s01_0_boat_00_boat6-elephant2.png
subject-01,1,836,0.594006061553955,bottle,bottle,0,0836_scg_s01_0_bottle_00_bottle1-bear1.png
subject-01,1,837,0.986617088317871,elephant,elephant,0,0837_scg_s01_0_elephant_00_elephant1-bear2.png
subject-01,1,838,0.470422983169556,boat,boat,0,0838_scg_s01_0_boat_00_boat2-oven3.png
subject-01,1,839,0.622288942337036,cat,car,0,0839_scg_s01_0_car_00_car1-dog2.png
subject-01,1,840,0.649893045425415,bicycle,bicycle,0,0840_scg_s01_0_bicycle_00_bicycle2-bird3.png
subject-01,1,841,0.481935977935791,cat,cat,0,0841_scg_s01_0_cat_00_cat2-cat1.png
subject-01,1,842,0.693938016891479,truck,truck,0,0842_scg_s01_0_truck_00_truck7-boat1.png
subject-01,1,843,0.945533037185669,bear,bear,0,0843_scg_s01_0_bear_00_bear3-airplane1.png
subject-01,1,844,0.568952798843384,oven,oven,0,0844_scg_s01_0_oven_00_oven10-airplane2.png
subject-01,1,845,0.65131688117981,car,car,0,0845_scg_s01_0_car_00_car5-oven2.png
subject-01,1,846,0.588881015777588,car,car,0,0846_scg_s01_0_car_00_car9-bicycle2.png
subject-01,1,847,0.548448085784912,chair,chair,0,0847_scg_s01_0_chair_00_chair4-cat2.png
subject-01,1,848,0.445887088775635,boat,boat,0,0848_scg_s01_0_boat_00_boat2-bottle2.png
subject-01,1,849,0.576126098632812,boat,boat,0,0849_scg_s01_0_boat_00_boat8-oven1.png
subject-01,1,850,0.56836199760437,keyboard,keyboard,0,0850_scg_s01_0_keyboard_00_keyboard3-bird3.png
subject-01,1,851,0.581786870956421,truck,truck,0,0851_scg_s01_0_truck_00_truck8-bottle2.png
subject-01,1,852,0.757549047470093,bear,bear,0,0852_scg_s01_0_bear_00_bear7-clock1.png
subject-01,1,853,0.517392158508301,bicycle,bicycle,0,0853_scg_s01_0_bicycle_00_bicycle4-bicycle3.png
subject-01,1,854,0.769305944442749,elephant,elephant,0,0854_scg_s01_0_elephant_00_elephant7-knife2.png
subject-01,1,855,0.661242008209229,elephant,elephant,0,0855_scg_s01_0_elephant_00_elephant7-dog1.png
subject-01,1,856,0.813225030899048,knife,knife,0,0856_scg_s01_0_knife_00_knife4-bear1.png
subject-01,1,857,0.61130690574646,knife,keyboard,0,0857_scg_s01_0_keyboard_00_keyboard1-bird2.png
subject-01,1,858,0.773531913757324,bicycle,bicycle,0,0858_scg_s01_0_bicycle_00_bicycle1-truck1.png
subject-01,1,859,0.701054811477661,bird,bird,0,0859_scg_s01_0_bird_00_bird4-airplane1.png
subject-01,1,860,0.901076793670654,knife,airplane,0,0860_scg_s01_0_airplane_00_airplane2-cat1.png
subject-01,1,861,0.761712074279785,knife,airplane,0,0861_scg_s01_0_airplane_00_airplane8-bird1.png
subject-01,1,862,0.591145038604736,bird,bird,0,0862_scg_s01_0_bird_00_bird1-bear1.png
subject-01,1,863,0.718950033187866,bottle,bottle,0,0863_scg_s01_0_bottle_00_bottle9-oven2.png
subject-01,1,864,0.49755597114563,clock,clock,0,0864_scg_s01_0_clock_00_clock4-oven1.png
subject-01,1,865,0.830246925354004,dog,dog,0,0865_scg_s01_0_dog_00_dog4-airplane3.png
subject-01,1,866,0.61307692527771,cat,cat,0,0866_scg_s01_0_cat_00_cat9-cat3.png
subject-01,1,867,0.899035930633545,chair,chair,0,0867_scg_s01_0_chair_00_chair5-knife3.png
subject-01,1,868,0.664954900741577,dog,dog,0,0868_scg_s01_0_dog_00_dog10-oven2.png
subject-01,1,869,0.718292951583862,chair,chair,0,0869_scg_s01_0_chair_00_chair8-boat1.png
subject-01,1,870,0.639740943908691,knife,bottle,0,0870_scg_s01_0_bottle_00_bottle8-keyboard3.png
subject-01,1,871,0.469320058822632,keyboard,keyboard,0,0871_scg_s01_0_keyboard_00_keyboard5-bottle1.png
subject-01,1,872,0.943315982818604,knife,knife,0,0872_scg_s01_0_knife_00_knife4-boat1.png
subject-01,1,873,0.705796957015991,chair,chair,0,0873_scg_s01_0_chair_00_chair9-keyboard2.png
subject-01,1,874,0.641402006149292,oven,oven,0,0874_scg_s01_0_oven_00_oven10-boat2.png
subject-01,1,875,0.562956094741821,elephant,elephant,0,0875_scg_s01_0_elephant_00_elephant8-bicycle3.png
subject-01,1,876,0.815069913864136,elephant,elephant,0,0876_scg_s01_0_elephant_00_elephant1-boat2.png
subject-01,1,877,0.676695108413696,chair,chair,0,0877_scg_s01_0_chair_00_chair5-clock2.png
subject-01,1,878,0.799083948135376,truck,truck,0,0878_scg_s01_0_truck_00_truck4-airplane3.png
subject-01,1,879,0.58857798576355,bottle,bottle,0,0879_scg_s01_0_bottle_00_bottle4-car3.png
subject-01,1,880,0.864347219467163,airplane,airplane,0,0880_scg_s01_0_airplane_00_airplane9-clock1.png
subject-01,1,881,0.524619817733765,cat,cat,0,0881_scg_s01_0_cat_00_cat9-truck1.png
subject-01,1,882,0.63821005821228,dog,dog,0,0882_scg_s01_0_dog_00_dog6-cat1.png
subject-01,1,883,0.683917999267578,knife,knife,0,0883_scg_s01_0_knife_00_knife6-clock2.png
subject-01,1,884,0.681318998336792,airplane,airplane,0,0884_scg_s01_0_airplane_00_airplane5-boat3.png
subject-01,1,885,0.733376979827881,elephant,elephant,0,0885_scg_s01_0_elephant_00_elephant1-chair1.png
subject-01,1,886,0.541659832000732,bottle,bottle,0,0886_scg_s01_0_bottle_00_bottle1-clock1.png
subject-01,1,887,1.12272715568542,keyboard,keyboard,0,0887_scg_s01_0_keyboard_00_keyboard5-oven2.png
subject-01,1,888,0.691384077072144,cat,bear,0,0888_scg_s01_0_bear_00_bear9-dog1.png
subject-01,1,889,1.12114882469177,elephant,elephant,0,0889_scg_s01_0_elephant_00_elephant6-knife2.png
subject-01,1,890,0.826543092727661,knife,knife,0,0890_scg_s01_0_knife_00_knife4-keyboard1.png
subject-01,1,891,0.732434034347534,bicycle,bicycle,0,0891_scg_s01_0_bicycle_00_bicycle6-cat1.png
subject-01,1,892,0.64646315574646,dog,dog,0,0892_scg_s01_0_dog_00_dog9-airplane3.png
subject-01,1,893,0.639202833175659,elephant,elephant,0,0893_scg_s01_0_elephant_00_elephant8-knife2.png
subject-01,1,894,0.584686040878296,car,car,0,0894_scg_s01_0_car_00_car7-airplane2.png
subject-01,1,895,0.696072816848755,knife,bottle,0,0895_scg_s01_0_bottle_00_bottle7-truck2.png
subject-01,1,896,0.958039999008179,bear,bear,0,0896_scg_s01_0_bear_00_bear2-oven1.png
subject-01,1,897,0.748155832290649,bottle,bottle,0,0897_scg_s01_0_bottle_00_bottle8-bird1.png
subject-01,1,898,0.631703853607178,oven,oven,0,0898_scg_s01_0_oven_00_oven4-keyboard3.png
subject-01,1,899,0.983971118927002,cat,cat,0,0899_scg_s01_0_cat_00_cat3-elephant2.png
subject-01,1,900,0.599980115890503,cat,cat,0,0900_scg_s01_0_cat_00_cat9-chair2.png
subject-01,1,901,0.659979104995728,cat,cat,0,0901_scg_s01_0_cat_00_cat9-knife2.png
subject-01,1,902,0.674808025360107,bird,bird,0,0902_scg_s01_0_bird_00_bird7-bird2.png
subject-01,1,903,0.950394868850708,truck,truck,0,0903_scg_s01_0_truck_00_truck7-bird2.png
subject-01,1,904,0.834176063537598,chair,chair,0,0904_scg_s01_0_chair_00_chair9-boat2.png
subject-01,1,905,0.84540581703186,chair,chair,0,0905_scg_s01_0_chair_00_chair8-knife2.png
subject-01,1,906,0.72968602180481,chair,chair,0,0906_scg_s01_0_chair_00_chair5-boat3.png
subject-01,1,907,0.505925893783569,clock,clock,0,0907_scg_s01_0_clock_00_clock9-airplane1.png
subject-01,1,908,0.789503812789917,bird,airplane,0,0908_scg_s01_0_airplane_00_airplane4-keyboard3.png
subject-01,1,909,0.675547122955322,bottle,bottle,0,0909_scg_s01_0_bottle_00_bottle8-elephant3.png
subject-01,1,910,0.699511051177979,boat,boat,0,0910_scg_s01_0_boat_00_boat7-oven3.png
subject-01,1,911,1.04269695281982,oven,oven,0,0911_scg_s01_0_oven_00_oven1-clock3.png
subject-01,1,912,0.534881114959717,cat,cat,0,0912_scg_s01_0_cat_00_cat1-airplane1.png
subject-01,1,913,0.703047037124634,truck,truck,0,0913_scg_s01_0_truck_00_truck2-boat3.png
subject-01,1,914,0.901346921920776,bird,dog,0,0914_scg_s01_0_dog_00_dog1-car2.png
subject-01,1,915,0.715372085571289,bicycle,bicycle,0,0915_scg_s01_0_bicycle_00_bicycle7-cat1.png
subject-01,1,916,0.861299991607666,bird,bird,0,0916_scg_s01_0_bird_00_bird5-airplane3.png
subject-01,1,917,0.86732292175293,dog,dog,0,0917_scg_s01_0_dog_00_dog4-truck2.png
subject-01,1,918,0.873185873031616,truck,truck,0,0918_scg_s01_0_truck_00_truck10-airplane1.png
subject-01,1,919,0.78945779800415,bear,bear,0,0919_scg_s01_0_bear_00_bear2-dog1.png
subject-01,1,920,0.671394109725952,oven,oven,0,0920_scg_s01_0_oven_00_oven6-bear2.png
subject-01,1,921,0.608642101287842,bear,bear,0,0921_scg_s01_0_bear_00_bear5-bicycle3.png
subject-01,1,922,0.746620893478394,truck,truck,0,0922_scg_s01_0_truck_00_truck1-bird1.png
subject-01,1,923,0.820574998855591,bottle,bottle,0,0923_scg_s01_0_bottle_00_bottle2-elephant1.png
subject-01,1,924,0.974990129470825,bird,boat,0,0924_scg_s01_0_boat_00_boat10-bear3.png
subject-01,1,925,0.781574964523315,dog,dog,0,0925_scg_s01_0_dog_00_dog4-elephant2.png
subject-01,1,926,0.811462879180908,elephant,elephant,0,0926_scg_s01_0_elephant_00_elephant5-car1.png
subject-01,1,927,0.781926870346069,bicycle,bicycle,0,0927_scg_s01_0_bicycle_00_bicycle4-keyboard3.png
subject-01,1,928,0.793387889862061,chair,oven,0,0928_scg_s01_0_oven_00_oven7-cat1.png
subject-01,1,929,0.610012054443359,boat,boat,0,0929_scg_s01_0_boat_00_boat7-elephant3.png
subject-01,1,930,0.569687843322754,keyboard,keyboard,0,0930_scg_s01_0_keyboard_00_keyboard1-clock1.png
subject-01,1,931,0.645920991897583,keyboard,keyboard,0,0931_scg_s01_0_keyboard_00_keyboard9-bear2.png
subject-01,1,932,0.521784067153931,keyboard,keyboard,0,0932_scg_s01_0_keyboard_00_keyboard8-airplane2.png
subject-01,1,933,0.506412982940674,oven,oven,0,0933_scg_s01_0_oven_00_oven2-car1.png
subject-01,1,934,0.628065824508667,knife,boat,0,0934_scg_s01_0_boat_00_boat4-elephant2.png
subject-01,1,935,0.948271036148071,airplane,airplane,0,0935_scg_s01_0_airplane_00_airplane10-cat2.png
subject-01,1,936,0.756046056747437,airplane,airplane,0,0936_scg_s01_0_airplane_00_airplane7-truck1.png
subject-01,1,937,0.561856985092163,bicycle,bicycle,0,0937_scg_s01_0_bicycle_00_bicycle7-oven1.png
subject-01,1,938,1.08920001983643,bird,bird,0,0938_scg_s01_0_bird_00_bird4-cat3.png
subject-01,1,939,0.676078081130981,bicycle,bicycle,0,0939_scg_s01_0_bicycle_00_bicycle1-airplane2.png
subject-01,1,940,0.882076978683472,knife,knife,0,0940_scg_s01_0_knife_00_knife4-cat2.png
subject-01,1,941,0.754464149475098,bear,bear,0,0941_scg_s01_0_bear_00_bear8-airplane1.png
subject-01,1,942,0.792889833450317,knife,airplane,0,0942_scg_s01_0_airplane_00_airplane2-bird3.png
subject-01,1,943,0.84355902671814,knife,keyboard,0,0943_scg_s01_0_keyboard_00_keyboard2-clock1.png
subject-01,1,944,0.528090953826904,bicycle,bicycle,0,0944_scg_s01_0_bicycle_00_bicycle6-boat2.png
subject-01,1,945,0.617908000946045,chair,chair,0,0945_scg_s01_0_chair_00_chair9-bird3.png
subject-01,1,946,0.52349591255188,clock,clock,0,0946_scg_s01_0_clock_00_clock2-bear2.png
subject-01,1,947,0.63981294631958,oven,oven,0,0947_scg_s01_0_oven_00_oven9-car2.png
subject-01,1,948,0.621275901794434,bicycle,bicycle,0,0948_scg_s01_0_bicycle_00_bicycle9-cat3.png
subject-01,1,949,0.681459903717041,oven,oven,0,0949_scg_s01_0_oven_00_oven2-truck3.png
subject-01,1,950,0.68137001991272,dog,dog,0,0950_scg_s01_0_dog_00_dog3-bear3.png
subject-01,1,951,0.865456104278564,elephant,elephant,0,0951_scg_s01_0_elephant_00_elephant9-chair2.png
subject-01,1,952,0.64944314956665,bottle,bottle,0,0952_scg_s01_0_bottle_00_bottle9-cat2.png
subject-01,1,953,0.62199592590332,elephant,elephant,0,0953_scg_s01_0_elephant_00_elephant7-bear3.png
subject-01,1,954,0.957835912704468,bear,bear,0,0954_scg_s01_0_bear_00_bear1-bird2.png
subject-01,1,955,0.604365825653076,bear,bear,0,0955_scg_s01_0_bear_00_bear4-truck3.png
subject-01,1,956,0.688436985015869,truck,truck,0,0956_scg_s01_0_truck_00_truck4-knife1.png
subject-01,1,957,0.677818059921265,dog,dog,0,0957_scg_s01_0_dog_00_dog7-car2.png
subject-01,1,958,1.50005912780762,airplane,chair,0,0958_scg_s01_0_chair_00_chair6-truck2.png
subject-01,1,959,0.713066101074219,chair,oven,0,0959_scg_s01_0_oven_00_oven7-dog2.png
subject-01,1,960,0.594673156738281,keyboard,keyboard,0,0960_scg_s01_0_keyboard_00_keyboard9-bicycle2.png
subject-01,1,961,0.87860107421875,bird,airplane,0,0961_scg_s01_0_airplane_00_airplane3-cat1.png
subject-01,1,962,0.816544055938721,bird,bird,0,0962_scg_s01_0_bird_00_bird8-keyboard2.png
subject-01,1,963,0.877195835113525,bird,boat,0,0963_scg_s01_0_boat_00_boat7-chair1.png
subject-01,1,964,0.722685813903809,airplane,airplane,0,0964_scg_s01_0_airplane_00_airplane1-clock1.png
subject-01,1,965,0.695904970169067,elephant,truck,0,0965_scg_s01_0_truck_00_truck7-keyboard3.png
subject-01,1,966,0.679572105407715,bicycle,bicycle,0,0966_scg_s01_0_bicycle_00_bicycle3-bird1.png
subject-01,1,967,0.856149911880493,bicycle,clock,0,0967_scg_s01_0_clock_00_clock10-truck2.png
subject-01,1,968,0.869469881057739,bear,elephant,0,0968_scg_s01_0_elephant_00_elephant4-bird1.png
subject-01,1,969,0.482873916625977,clock,clock,0,0969_scg_s01_0_clock_00_clock6-truck3.png
subject-01,1,970,0.697014808654785,keyboard,keyboard,0,0970_scg_s01_0_keyboard_00_keyboard5-bear3.png
subject-01,1,971,0.472723007202148,clock,clock,0,0971_scg_s01_0_clock_00_clock4-elephant2.png
subject-01,1,972,0.393669843673706,clock,clock,0,0972_scg_s01_0_clock_00_clock2-knife1.png
subject-01,1,973,0.738075971603394,keyboard,oven,0,0973_scg_s01_0_oven_00_oven8-keyboard3.png
subject-01,1,974,0.513692140579224,boat,boat,0,0974_scg_s01_0_boat_00_boat9-bird1.png
subject-01,1,975,0.741236925125122,bear,bear,0,0975_scg_s01_0_bear_00_bear7-dog3.png
subject-01,1,976,0.486708164215088,oven,oven,0,0976_scg_s01_0_oven_00_oven10-truck2.png
subject-01,1,977,0.94717001914978,knife,knife,0,0977_scg_s01_0_knife_00_knife6-truck1.png
subject-01,1,978,0.45534610748291,clock,clock,0,0978_scg_s01_0_clock_00_clock6-clock2.png
subject-01,1,979,0.682898998260498,truck,truck,0,0979_scg_s01_0_truck_00_truck6-bicycle1.png
subject-01,1,980,0.644945859909058,elephant,elephant,0,0980_scg_s01_0_elephant_00_elephant2-bottle3.png
subject-01,1,981,0.650393962860107,bottle,bottle,0,0981_scg_s01_0_bottle_00_bottle3-cat3.png
subject-01,1,982,0.764656066894531,elephant,elephant,0,0982_scg_s01_0_elephant_00_elephant2-bear3.png
subject-01,1,983,0.585600137710571,cat,cat,0,0983_scg_s01_0_cat_00_cat10-clock1.png
subject-01,1,984,0.459541797637939,oven,dog,0,0984_scg_s01_0_dog_00_dog6-truck2.png
subject-01,1,985,0.680027008056641,knife,knife,0,0985_scg_s01_0_knife_00_knife6-bicycle1.png
subject-01,1,986,0.64860200881958,chair,chair,0,0986_scg_s01_0_chair_00_chair7-airplane1.png
subject-01,1,987,0.762279033660889,cat,cat,0,0987_scg_s01_0_cat_00_cat8-car2.png
subject-01,1,988,0.629947900772095,knife,keyboard,0,0988_scg_s01_0_keyboard_00_keyboard3-elephant2.png
subject-01,1,989,0.730782985687256,bottle,boat,0,0989_scg_s01_0_boat_00_boat4-bottle2.png
subject-01,1,990,0.58317494392395,keyboard,keyboard,0,0990_scg_s01_0_keyboard_00_keyboard10-truck1.png
subject-01,1,991,0.766327857971191,keyboard,keyboard,0,0991_scg_s01_0_keyboard_00_keyboard6-bicycle1.png
subject-01,1,992,0.993754148483276,keyboard,airplane,0,0992_scg_s01_0_airplane_00_airplane9-keyboard2.png
subject-01,1,993,0.872528076171875,knife,knife,0,0993_scg_s01_0_knife_00_knife3-keyboard3.png
subject-01,1,994,0.71678900718689,keyboard,keyboard,0,0994_scg_s01_0_keyboard_00_keyboard5-cat1.png
subject-01,1,995,0.813911914825439,bird,bird,0,0995_scg_s01_0_bird_00_bird9-elephant2.png
subject-01,1,996,0.627691984176636,clock,clock,0,0996_scg_s01_0_clock_00_clock4-boat3.png
subject-01,1,997,0.727572917938232,dog,dog,0,0997_scg_s01_0_dog_00_dog4-bicycle1.png
subject-01,1,998,0.479343891143799,clock,clock,0,0998_scg_s01_0_clock_00_clock1-bear1.png
subject-01,1,999,0.563322067260742,airplane,airplane,0,0999_scg_s01_0_airplane_00_airplane8-truck3.png
subject-01,1,1000,0.806258916854858,airplane,boat,0,1000_scg_s01_0_boat_00_boat6-airplane2.png
subject-01,1,1001,0.652696132659912,knife,knife,0,1001_scg_s01_0_knife_00_knife9-bicycle1.png
subject-01,1,1002,0.57407808303833,clock,clock,0,1002_scg_s01_0_clock_00_clock7-keyboard2.png
subject-01,1,1003,0.718074798583984,boat,knife,0,1003_scg_s01_0_knife_00_knife6-knife1.png
subject-01,1,1004,0.818462133407593,knife,knife,0,1004_scg_s01_0_knife_00_knife1-clock2.png
subject-01,1,1005,0.748739004135132,car,car,0,1005_scg_s01_0_car_00_car8-airplane3.png
subject-01,1,1006,0.838567018508911,knife,knife,0,1006_scg_s01_0_knife_00_knife10-elephant3.png
subject-01,1,1007,0.584043025970459,truck,truck,0,1007_scg_s01_0_truck_00_truck10-elephant3.png
subject-01,1,1008,0.473578929901123,oven,oven,0,1008_scg_s01_0_oven_00_oven3-knife1.png
subject-01,1,1009,0.558894872665405,clock,clock,0,1009_scg_s01_0_clock_00_clock2-elephant2.png
subject-01,1,1010,0.735192060470581,keyboard,keyboard,0,1010_scg_s01_0_keyboard_00_keyboard8-truck3.png
subject-01,1,1011,0.640902996063232,elephant,elephant,0,1011_scg_s01_0_elephant_00_elephant8-oven3.png
subject-01,1,1012,0.727358102798462,knife,dog,0,1012_scg_s01_0_dog_00_dog2-bicycle2.png
subject-01,1,1013,0.671209096908569,boat,boat,0,1013_scg_s01_0_boat_00_boat3-cat3.png
subject-01,1,1014,0.793030977249146,knife,knife,0,1014_scg_s01_0_knife_00_knife6-boat3.png
subject-01,1,1015,0.656174182891846,truck,truck,0,1015_scg_s01_0_truck_00_truck9-airplane2.png
subject-01,1,1016,1.1917610168457,chair,chair,0,1016_scg_s01_0_chair_00_chair2-bear2.png
subject-01,1,1017,0.67560601234436,car,car,0,1017_scg_s01_0_car_00_car7-bear1.png
subject-01,1,1018,0.721832036972046,dog,cat,0,1018_scg_s01_0_cat_00_cat1-keyboard3.png
subject-01,1,1019,0.757730007171631,oven,oven,0,1019_scg_s01_0_oven_00_oven9-chair1.png
subject-01,1,1020,0.620308876037598,clock,clock,0,1020_scg_s01_0_clock_00_clock3-bird1.png
subject-01,1,1021,0.896069049835205,truck,truck,0,1021_scg_s01_0_truck_00_truck2-bottle3.png
subject-01,1,1022,0.755269050598145,bear,bear,0,1022_scg_s01_0_bear_00_bear9-boat2.png
subject-01,1,1023,0.485986948013306,clock,clock,0,1023_scg_s01_0_clock_00_clock7-cat2.png
subject-01,1,1024,0.553960084915161,cat,cat,0,1024_scg_s01_0_cat_00_cat8-bicycle3.png
subject-01,1,1025,0.912665128707886,dog,dog,0,1025_scg_s01_0_dog_00_dog9-boat1.png
subject-01,1,1026,1.00474882125854,dog,dog,0,1026_scg_s01_0_dog_00_dog5-car3.png
subject-01,1,1027,0.657048940658569,cat,knife,0,1027_scg_s01_0_knife_00_knife3-cat1.png
subject-01,1,1028,0.632368087768555,car,car,0,1028_scg_s01_0_car_00_car3-elephant3.png
subject-01,1,1029,1.13046288490295,keyboard,keyboard,0,1029_scg_s01_0_keyboard_00_keyboard1-dog3.png
subject-01,1,1030,0.635596990585327,dog,dog,0,1030_scg_s01_0_dog_00_dog6-clock1.png
subject-01,1,1031,0.952888965606689,truck,truck,0,1031_scg_s01_0_truck_00_truck8-keyboard2.png
subject-01,1,1032,0.661803960800171,elephant,elephant,0,1032_scg_s01_0_elephant_00_elephant1-dog2.png
subject-01,1,1033,0.673696041107178,truck,boat,0,1033_scg_s01_0_boat_00_boat3-chair3.png
subject-01,1,1034,0.541599035263062,oven,oven,0,1034_scg_s01_0_oven_00_oven2-bear3.png
subject-01,1,1035,0.465781927108765,boat,boat,0,1035_scg_s01_0_boat_00_boat9-cat3.png
subject-01,1,1036,0.717684984207153,truck,truck,0,1036_scg_s01_0_truck_00_truck1-clock3.png
subject-01,1,1037,0.79975700378418,truck,truck,0,1037_scg_s01_0_truck_00_truck3-bird2.png
subject-01,1,1038,0.860111951828003,dog,dog,0,1038_scg_s01_0_dog_00_dog1-knife3.png
subject-01,1,1039,0.660068035125732,dog,bear,0,1039_scg_s01_0_bear_00_bear6-cat3.png
subject-01,1,1040,0.925189018249512,bird,cat,0,1040_scg_s01_0_cat_00_cat4-airplane1.png
subject-01,1,1041,0.708464860916138,bicycle,bicycle,0,1041_scg_s01_0_bicycle_00_bicycle8-truck1.png
subject-01,1,1042,0.722432851791382,truck,truck,0,1042_scg_s01_0_truck_00_truck6-oven3.png
subject-01,1,1043,0.612117052078247,knife,knife,0,1043_scg_s01_0_knife_00_knife8-cat2.png
subject-01,1,1044,0.459305047988892,boat,boat,0,1044_scg_s01_0_boat_00_boat9-boat3.png
subject-01,1,1045,0.68132209777832,oven,oven,0,1045_scg_s01_0_oven_00_oven2-dog3.png
subject-01,1,1046,1.50039911270142,bird,bird,0,1046_scg_s01_0_bird_00_bird5-dog2.png
subject-01,1,1047,0.541211843490601,oven,oven,0,1047_scg_s01_0_oven_00_oven6-oven3.png
subject-01,1,1048,1.00949311256409,bicycle,bicycle,0,1048_scg_s01_0_bicycle_00_bicycle9-airplane2.png
subject-01,1,1049,0.615281820297241,bottle,bottle,0,1049_scg_s01_0_bottle_00_bottle3-bear2.png
subject-01,1,1050,0.683405876159668,bear,bear,0,1050_scg_s01_0_bear_00_bear5-oven3.png
subject-01,1,1051,0.634829044342041,chair,chair,0,1051_scg_s01_0_chair_00_chair9-bicycle3.png
subject-01,1,1052,0.96517014503479,keyboard,airplane,0,1052_scg_s01_0_airplane_00_airplane9-knife3.png
subject-01,1,1053,0.562514066696167,keyboard,keyboard,0,1053_scg_s01_0_keyboard_00_keyboard4-keyboard2.png
subject-01,1,1054,0.484232902526855,chair,chair,0,1054_scg_s01_0_chair_00_chair10-car2.png
subject-01,1,1055,0.706003904342651,bicycle,bicycle,0,1055_scg_s01_0_bicycle_00_bicycle4-bottle1.png
subject-01,1,1056,0.644136190414429,bottle,bottle,0,1056_scg_s01_0_bottle_00_bottle4-bicycle1.png
subject-01,1,1057,0.963593006134033,car,car,0,1057_scg_s01_0_car_00_car5-truck3.png
subject-01,1,1058,0.633320808410645,oven,oven,0,1058_scg_s01_0_oven_00_oven2-chair1.png
subject-01,1,1059,0.685208082199097,chair,chair,0,1059_scg_s01_0_chair_00_chair10-bottle3.png
subject-01,1,1060,0.53724217414856,chair,chair,0,1060_scg_s01_0_chair_00_chair5-cat3.png
subject-01,1,1061,0.675745010375977,dog,bear,0,1061_scg_s01_0_bear_00_bear10-clock1.png
subject-01,1,1062,1.04324698448181,dog,bird,0,1062_scg_s01_0_bird_00_bird1-keyboard3.png
subject-01,1,1063,0.843456983566284,chair,boat,0,1063_scg_s01_0_boat_00_boat7-clock3.png
subject-01,1,1064,0.550563812255859,bottle,bottle,0,1064_scg_s01_0_bottle_00_bottle1-cat3.png
subject-01,1,1065,0.72637414932251,boat,boat,0,1065_scg_s01_0_boat_00_boat6-bear1.png
subject-01,1,1066,0.440484046936035,boat,boat,0,1066_scg_s01_0_boat_00_boat9-keyboard2.png
subject-01,1,1067,0.408241033554077,boat,boat,0,1067_scg_s01_0_boat_00_boat5-bicycle3.png
subject-01,1,1068,0.583338022232056,elephant,elephant,0,1068_scg_s01_0_elephant_00_elephant8-airplane3.png
subject-01,1,1069,0.897454977035522,knife,knife,0,1069_scg_s01_0_knife_00_knife5-oven2.png
subject-01,1,1070,0.703614950180054,dog,dog,0,1070_scg_s01_0_dog_00_dog2-cat1.png
subject-01,1,1071,0.654544830322266,bicycle,bicycle,0,1071_scg_s01_0_bicycle_00_bicycle8-bear2.png
subject-01,1,1072,0.7310471534729,airplane,airplane,0,1072_scg_s01_0_airplane_00_airplane7-bottle3.png
subject-01,1,1073,0.74055290222168,cat,bear,0,1073_scg_s01_0_bear_00_bear3-cat1.png
subject-01,1,1074,0.678323030471802,boat,boat,0,1074_scg_s01_0_boat_00_boat2-airplane1.png
subject-01,1,1075,0.801530838012695,knife,boat,0,1075_scg_s01_0_boat_00_boat1-bird3.png
subject-01,1,1076,0.782268047332764,knife,knife,0,1076_scg_s01_0_knife_00_knife10-knife1.png
subject-01,1,1077,0.598991870880127,boat,boat,0,1077_scg_s01_0_boat_00_boat10-oven1.png
subject-01,1,1078,0.658746004104614,elephant,elephant,0,1078_scg_s01_0_elephant_00_elephant7-clock2.png
subject-01,1,1079,0.589165925979614,chair,chair,0,1079_scg_s01_0_chair_00_chair3-airplane2.png
subject-01,1,1080,0.886986970901489,knife,knife,0,1080_scg_s01_0_knife_00_knife2-car3.png
subject-01,1,1081,0.584814071655273,clock,clock,0,1081_scg_s01_0_clock_00_clock1-truck3.png
subject-01,1,1082,0.652734041213989,bird,bear,0,1082_scg_s01_0_bear_00_bear6-car2.png
subject-01,1,1083,0.537291765213013,bird,bird,0,1083_scg_s01_0_bird_00_bird6-car3.png
subject-01,1,1084,0.512205123901367,cat,cat,0,1084_scg_s01_0_cat_00_cat7-truck2.png
subject-01,1,1085,0.555588006973267,car,car,0,1085_scg_s01_0_car_00_car9-clock2.png
subject-01,1,1086,0.493427991867065,keyboard,keyboard,0,1086_scg_s01_0_keyboard_00_keyboard6-boat2.png
subject-01,1,1087,0.477848052978516,clock,clock,0,1087_scg_s01_0_clock_00_clock8-knife1.png
subject-01,1,1088,0.567739009857178,boat,boat,0,1088_scg_s01_0_boat_00_boat8-elephant1.png
subject-01,1,1089,0.652082920074463,chair,chair,0,1089_scg_s01_0_chair_00_chair10-dog1.png
subject-01,1,1090,0.519642114639282,oven,oven,0,1090_scg_s01_0_oven_00_oven5-bottle3.png
subject-01,1,1091,0.75766396522522,truck,truck,0,1091_scg_s01_0_truck_00_truck1-dog1.png
subject-01,1,1092,0.862990140914917,truck,truck,0,1092_scg_s01_0_truck_00_truck6-bottle3.png
subject-01,1,1093,0.878729104995728,cat,cat,0,1093_scg_s01_0_cat_00_cat9-boat2.png
