subj,session,trial,rt,object_response,category,condition,imagename
subject-07,1,1,0.664959192276001,car,car,0,0001_scg_s07_0_car_00_car4-clock1.png
subject-07,1,2,1.00688815116882,elephant,elephant,0,0002_scg_s07_0_elephant_00_elephant4-oven1.png
subject-07,1,3,0.898613929748535,bear,bear,0,0003_scg_s07_0_bear_00_bear9-dog1.png
subject-07,1,4,0.988832950592041,bicycle,bicycle,0,0004_scg_s07_0_bicycle_00_bicycle4-chair2.png
subject-07,1,5,0.793652057647705,oven,knife,0,0005_scg_s07_0_knife_00_knife5-dog1.png
subject-07,1,6,0.743623018264771,truck,truck,0,0006_scg_s07_0_truck_00_truck3-bird2.png
subject-07,1,7,1.22504091262817,oven,oven,0,0007_scg_s07_0_oven_00_oven9-bird3.png
subject-07,1,8,1.13893914222717,elephant,elephant,0,0008_scg_s07_0_elephant_00_elephant9-chair2.png
subject-07,1,9,0.882704019546509,car,car,0,0009_scg_s07_0_car_00_car4-car2.png
subject-07,1,10,1.01065683364868,bottle,keyboard,0,0010_scg_s07_0_keyboard_00_keyboard10-oven3.png
subject-07,1,11,0.884042024612427,knife,knife,0,0011_scg_s07_0_knife_00_knife2-bear2.png
subject-07,1,12,0.976330995559692,clock,clock,0,0012_scg_s07_0_clock_00_clock6-clock2.png
subject-07,1,13,0.896730899810791,bicycle,bicycle,0,0013_scg_s07_0_bicycle_00_bicycle5-chair2.png
subject-07,1,14,0.9045250415802,car,car,0,0014_scg_s07_0_car_00_car1-car2.png
subject-07,1,15,0.756637811660767,cat,boat,0,0015_scg_s07_0_boat_00_boat6-cat1.png
subject-07,1,16,0.816567897796631,bird,bird,0,0016_scg_s07_0_bird_00_bird1-clock3.png
subject-07,1,17,0.574216842651367,clock,clock,0,0017_scg_s07_0_clock_00_clock1-boat3.png
subject-07,1,18,0.688076019287109,clock,clock,0,0018_scg_s07_0_clock_00_clock2-bottle3.png
subject-07,1,19,0.755934000015259,keyboard,keyboard,0,0019_scg_s07_0_keyboard_00_keyboard8-keyboard2.png
subject-07,1,20,0.867913007736206,clock,clock,0,0020_scg_s07_0_clock_00_clock8-oven3.png
subject-07,1,21,0.998193979263306,knife,knife,0,0021_scg_s07_0_knife_00_knife8-boat1.png
subject-07,1,22,0.666324138641357,car,car,0,0022_scg_s07_0_car_00_car6-bicycle3.png
subject-07,1,23,0.953539133071899,bird,bird,0,0023_scg_s07_0_bird_00_bird2-car3.png
subject-07,1,24,0.745170831680298,boat,boat,0,0024_scg_s07_0_boat_00_boat4-chair2.png
subject-07,1,25,0.795082092285156,bear,bear,0,0025_scg_s07_0_bear_00_bear4-cat3.png
subject-07,1,26,0.963243007659912,bird,bird,0,0026_scg_s07_0_bird_00_bird9-bicycle3.png
subject-07,1,27,0.684245109558105,keyboard,keyboard,0,0027_scg_s07_0_keyboard_00_keyboard8-airplane2.png
subject-07,1,28,1.16745710372925,chair,elephant,0,0028_scg_s07_0_elephant_00_elephant3-keyboard2.png
subject-07,1,29,0.948183059692383,oven,boat,0,0029_scg_s07_0_boat_00_boat7-oven3.png
subject-07,1,30,0.645895957946777,car,car,0,0030_scg_s07_0_car_00_car7-boat3.png
subject-07,1,31,0.965301990509033,dog,dog,0,0031_scg_s07_0_dog_00_dog1-cat3.png
subject-07,1,32,1.24997615814209,chair,chair,0,0032_scg_s07_0_chair_00_chair1-airplane2.png
subject-07,1,33,0.894461154937744,dog,dog,0,0033_scg_s07_0_dog_00_dog9-airplane3.png
subject-07,1,34,0.867243051528931,chair,chair,0,0034_scg_s07_0_chair_00_chair5-keyboard2.png
subject-07,1,35,0.965153932571411,boat,keyboard,0,0035_scg_s07_0_keyboard_00_keyboard5-bear3.png
subject-07,1,36,0.74061393737793,bottle,bottle,0,0036_scg_s07_0_bottle_00_bottle9-bicycle1.png
subject-07,1,37,1.39385199546814,dog,dog,0,0037_scg_s07_0_dog_00_dog4-cat3.png
subject-07,1,38,0.790952920913696,car,car,0,0038_scg_s07_0_car_00_car6-truck3.png
subject-07,1,39,0.872373104095459,truck,truck,0,0039_scg_s07_0_truck_00_truck3-car3.png
subject-07,1,40,0.708862066268921,clock,clock,0,0040_scg_s07_0_clock_00_clock7-bear2.png
subject-07,1,41,1.07677006721497,oven,truck,0,0041_scg_s07_0_truck_00_truck4-airplane3.png
subject-07,1,42,0.941825866699219,bird,bird,0,0042_scg_s07_0_bird_00_bird10-cat1.png
subject-07,1,43,0.918113946914673,keyboard,keyboard,0,0043_scg_s07_0_keyboard_00_keyboard1-clock1.png
subject-07,1,44,0.67588996887207,car,car,0,0044_scg_s07_0_car_00_car2-bird3.png
subject-07,1,45,1.32695293426514,car,car,0,0045_scg_s07_0_car_00_car9-knife1.png
subject-07,1,46,0.917135953903198,knife,boat,0,0046_scg_s07_0_boat_00_boat1-elephant3.png
subject-07,1,47,0.660401105880737,bear,bear,0,0047_scg_s07_0_bear_00_bear8-elephant2.png
subject-07,1,48,0.849747896194458,dog,dog,0,0048_scg_s07_0_dog_00_dog9-bicycle3.png
subject-07,1,49,1.03260588645935,oven,boat,0,0049_scg_s07_0_boat_00_boat3-cat3.png
subject-07,1,50,0.846909046173096,knife,knife,0,0050_scg_s07_0_knife_00_knife2-dog1.png
subject-07,1,51,1.12034583091736,bicycle,bicycle,0,0051_scg_s07_0_bicycle_00_bicycle7-clock3.png
subject-07,1,52,1.15666913986206,knife,bird,0,0052_scg_s07_0_bird_00_bird6-oven1.png
subject-07,1,53,1.02425003051758,bear,bear,0,0053_scg_s07_0_bear_00_bear4-knife1.png
subject-07,1,54,0.889652967453003,keyboard,keyboard,0,0054_scg_s07_0_keyboard_00_keyboard4-bird1.png
subject-07,1,55,0.790011167526245,cat,cat,0,0055_scg_s07_0_cat_00_cat4-clock2.png
subject-07,1,56,1.04257392883301,elephant,elephant,0,0056_scg_s07_0_elephant_00_elephant9-dog3.png
subject-07,1,57,0.853258848190308,bird,bird,0,0057_scg_s07_0_bird_00_bird6-car3.png
subject-07,1,58,1.02709293365479,bicycle,bicycle,0,0058_scg_s07_0_bicycle_00_bicycle1-oven1.png
subject-07,1,59,0.802927017211914,clock,clock,0,0059_scg_s07_0_clock_00_clock6-car2.png
subject-07,1,60,0.855159997940063,car,dog,0,0060_scg_s07_0_dog_00_dog6-truck2.png
subject-07,1,61,0.766450166702271,clock,clock,0,0061_scg_s07_0_clock_00_clock4-bird3.png
subject-07,1,62,1.20337510108948,car,clock,0,0062_scg_s07_0_clock_00_clock9-keyboard2.png
subject-07,1,63,0.841058969497681,bear,bear,0,0063_scg_s07_0_bear_00_bear8-bottle1.png
subject-07,1,64,0.893532991409302,oven,oven,0,0064_scg_s07_0_oven_00_oven7-oven1.png
subject-07,1,65,1.01388502120972,keyboard,boat,0,0065_scg_s07_0_boat_00_boat8-oven1.png
subject-07,1,66,1.09777593612671,airplane,knife,0,0066_scg_s07_0_knife_00_knife4-airplane3.png
subject-07,1,67,0.811861038208008,bicycle,bicycle,0,0067_scg_s07_0_bicycle_00_bicycle9-bottle1.png
subject-07,1,68,0.893712043762207,bicycle,bicycle,0,0068_scg_s07_0_bicycle_00_bicycle10-clock2.png
subject-07,1,69,1.06748700141907,boat,boat,0,0069_scg_s07_0_boat_00_boat3-airplane2.png
subject-07,1,70,0.735994100570679,bottle,bottle,0,0070_scg_s07_0_bottle_00_bottle8-bird1.png
subject-07,1,71,NaN,na,cat,0,0071_scg_s07_0_cat_00_cat8-car2.png
subject-07,1,72,1.037034034729,elephant,elephant,0,0072_scg_s07_0_elephant_00_elephant4-chair3.png
subject-07,1,73,0.895163774490356,car,airplane,0,0073_scg_s07_0_airplane_00_airplane6-chair3.png
subject-07,1,74,0.746656894683838,bicycle,bicycle,0,0074_scg_s07_0_bicycle_00_bicycle1-airplane2.png
subject-07,1,75,1.46671319007874,cat,airplane,0,0075_scg_s07_0_airplane_00_airplane8-bicycle3.png
subject-07,1,76,0.766683101654053,keyboard,keyboard,0,0076_scg_s07_0_keyboard_00_keyboard6-car2.png
subject-07,1,77,0.748271942138672,bird,bird,0,0077_scg_s07_0_bird_00_bird7-boat1.png
subject-07,1,78,0.826940059661865,bottle,bottle,0,0078_scg_s07_0_bottle_00_bottle6-airplane1.png
subject-07,1,79,1.27037906646729,clock,clock,0,0079_scg_s07_0_clock_00_clock7-cat2.png
subject-07,1,80,0.85268497467041,car,car,0,0080_scg_s07_0_car_00_car10-elephant2.png
subject-07,1,81,0.888173818588257,oven,bottle,0,0081_scg_s07_0_bottle_00_bottle7-keyboard2.png
subject-07,1,82,0.868498086929321,chair,chair,0,0082_scg_s07_0_chair_00_chair9-boat2.png
subject-07,1,83,0.726068019866943,oven,oven,0,0083_scg_s07_0_oven_00_oven4-dog1.png
subject-07,1,84,0.786097049713135,cat,cat,0,0084_scg_s07_0_cat_00_cat4-airplane1.png
subject-07,1,85,1.24318599700928,elephant,elephant,0,0085_scg_s07_0_elephant_00_elephant3-cat2.png
subject-07,1,86,0.718647003173828,cat,cat,0,0086_scg_s07_0_cat_00_cat1-airplane1.png
subject-07,1,87,0.968786954879761,bear,bear,0,0087_scg_s07_0_bear_00_bear9-bottle2.png
subject-07,1,88,1.11200904846191,boat,cat,0,0088_scg_s07_0_cat_00_cat10-bicycle1.png
subject-07,1,89,0.818502902984619,bear,bear,0,0089_scg_s07_0_bear_00_bear3-cat1.png
subject-07,1,90,0.840629100799561,chair,chair,0,0090_scg_s07_0_chair_00_chair8-boat1.png
subject-07,1,91,0.747236967086792,knife,knife,0,0091_scg_s07_0_knife_00_knife2-bird1.png
subject-07,1,92,0.736760854721069,chair,chair,0,0092_scg_s07_0_chair_00_chair1-truck3.png
subject-07,1,93,1.32489800453186,elephant,elephant,0,0093_scg_s07_0_elephant_00_elephant5-bicycle3.png
subject-07,1,94,0.938637971878052,keyboard,keyboard,0,0094_scg_s07_0_keyboard_00_keyboard6-bottle2.png
subject-07,1,95,0.6822350025177,bird,bird,0,0095_scg_s07_0_bird_00_bird1-boat1.png
subject-07,1,96,0.909837007522583,airplane,airplane,0,0096_scg_s07_0_airplane_00_airplane5-bird2.png
subject-07,1,97,1.20021390914917,boat,bottle,0,0097_scg_s07_0_bottle_00_bottle7-elephant2.png
subject-07,1,98,0.743757963180542,clock,clock,0,0098_scg_s07_0_clock_00_clock2-bicycle1.png
subject-07,1,99,0.996093034744263,elephant,bear,0,0099_scg_s07_0_bear_00_bear7-truck1.png
subject-07,1,100,1.06425380706787,oven,oven,0,0100_scg_s07_0_oven_00_oven10-bear1.png
subject-07,1,101,0.918210983276367,elephant,elephant,0,0101_scg_s07_0_elephant_00_elephant8-elephant1.png
subject-07,1,102,0.670437097549438,truck,truck,0,0102_scg_s07_0_truck_00_truck5-car1.png
subject-07,1,103,0.867918014526367,airplane,airplane,0,0103_scg_s07_0_airplane_00_airplane10-boat3.png
subject-07,1,104,0.965657949447632,bicycle,bicycle,0,0104_scg_s07_0_bicycle_00_bicycle7-oven1.png
subject-07,1,105,1.5001118183136,bicycle,bicycle,0,0105_scg_s07_0_bicycle_00_bicycle4-knife3.png
subject-07,1,106,1.24325203895569,cat,dog,0,0106_scg_s07_0_dog_00_dog3-clock1.png
subject-07,1,107,0.825575828552246,truck,truck,0,0107_scg_s07_0_truck_00_truck4-boat3.png
subject-07,1,108,1.00131797790527,car,car,0,0108_scg_s07_0_car_00_car10-bicycle2.png
subject-07,1,109,0.891268968582153,bird,cat,0,0109_scg_s07_0_cat_00_cat4-bird2.png
subject-07,1,110,0.672797918319702,oven,oven,0,0110_scg_s07_0_oven_00_oven3-car2.png
subject-07,1,111,1.13868808746338,bottle,bottle,0,0111_scg_s07_0_bottle_00_bottle9-keyboard1.png
subject-07,1,112,1.02111411094666,dog,dog,0,0112_scg_s07_0_dog_00_dog10-dog1.png
subject-07,1,113,0.95699405670166,boat,boat,0,0113_scg_s07_0_boat_00_boat2-bottle2.png
subject-07,1,114,1.35184097290039,bear,airplane,0,0114_scg_s07_0_airplane_00_airplane10-dog3.png
subject-07,1,115,0.77325701713562,clock,clock,0,0115_scg_s07_0_clock_00_clock3-bird1.png
subject-07,1,116,0.648949146270752,chair,chair,0,0116_scg_s07_0_chair_00_chair10-bottle3.png
subject-07,1,117,0.747750997543335,oven,oven,0,0117_scg_s07_0_oven_00_oven9-chair1.png
subject-07,1,118,0.743149995803833,clock,clock,0,0118_scg_s07_0_clock_00_clock5-airplane1.png
subject-07,1,119,1.03558897972107,car,oven,0,0119_scg_s07_0_oven_00_oven6-oven3.png
subject-07,1,120,0.92579197883606,bird,bird,0,0120_scg_s07_0_bird_00_bird7-oven3.png
subject-07,1,121,0.907021045684814,truck,truck,0,0121_scg_s07_0_truck_00_truck4-knife1.png
subject-07,1,122,0.966421127319336,bicycle,bicycle,0,0122_scg_s07_0_bicycle_00_bicycle5-dog2.png
subject-07,1,123,1.19566607475281,chair,bird,0,0123_scg_s07_0_bird_00_bird8-chair1.png
subject-07,1,124,0.961687803268433,keyboard,bear,0,0124_scg_s07_0_bear_00_bear3-keyboard2.png
subject-07,1,125,1.25988006591797,knife,bottle,0,0125_scg_s07_0_bottle_00_bottle9-elephant2.png
subject-07,1,126,1.44096112251282,bicycle,bicycle,0,0126_scg_s07_0_bicycle_00_bicycle4-clock3.png
subject-07,1,127,0.722608089447021,oven,oven,0,0127_scg_s07_0_oven_00_oven10-bicycle1.png
subject-07,1,128,0.753232002258301,chair,chair,0,0128_scg_s07_0_chair_00_chair3-dog2.png
subject-07,1,129,1.12790203094482,bottle,bottle,0,0129_scg_s07_0_bottle_00_bottle1-dog2.png
subject-07,1,130,0.812160968780518,oven,keyboard,0,0130_scg_s07_0_keyboard_00_keyboard3-bird3.png
subject-07,1,131,0.669424057006836,bottle,bottle,0,0131_scg_s07_0_bottle_00_bottle3-cat3.png
subject-07,1,132,0.981373071670532,chair,cat,0,0132_scg_s07_0_cat_00_cat5-boat1.png
subject-07,1,133,0.76544189453125,bear,bear,0,0133_scg_s07_0_bear_00_bear5-bird1.png
subject-07,1,134,0.631121873855591,oven,oven,0,0134_scg_s07_0_oven_00_oven2-chair1.png
subject-07,1,135,NaN,na,keyboard,0,0135_scg_s07_0_keyboard_00_keyboard6-elephant1.png
subject-07,1,136,0.855615139007568,oven,knife,0,0136_scg_s07_0_knife_00_knife2-car3.png
subject-07,1,137,0.800025939941406,clock,truck,0,0137_scg_s07_0_truck_00_truck6-knife2.png
subject-07,1,138,0.673810005187988,keyboard,keyboard,0,0138_scg_s07_0_keyboard_00_keyboard5-dog3.png
subject-07,1,139,1.29431700706482,knife,elephant,0,0139_scg_s07_0_elephant_00_elephant10-knife3.png
subject-07,1,140,1.49177193641663,dog,dog,0,0140_scg_s07_0_dog_00_dog3-bird2.png
subject-07,1,141,0.9689040184021,elephant,elephant,0,0141_scg_s07_0_elephant_00_elephant1-car3.png
subject-07,1,142,0.858345985412598,bear,bear,0,0142_scg_s07_0_bear_00_bear7-clock1.png
subject-07,1,143,1.22430515289307,cat,bear,0,0143_scg_s07_0_bear_00_bear4-keyboard3.png
subject-07,1,144,0.89769983291626,keyboard,keyboard,0,0144_scg_s07_0_keyboard_00_keyboard10-airplane3.png
subject-07,1,145,0.787182092666626,car,car,0,0145_scg_s07_0_car_00_car5-airplane3.png
subject-07,1,146,0.869292974472046,oven,bicycle,0,0146_scg_s07_0_bicycle_00_bicycle2-keyboard2.png
subject-07,1,147,0.93733811378479,truck,truck,0,0147_scg_s07_0_truck_00_truck3-bicycle1.png
subject-07,1,148,0.627655029296875,chair,chair,0,0148_scg_s07_0_chair_00_chair5-bicycle1.png
subject-07,1,149,1.10942006111145,elephant,elephant,0,0149_scg_s07_0_elephant_00_elephant4-boat3.png
subject-07,1,150,1.45359396934509,chair,knife,0,0150_scg_s07_0_knife_00_knife1-chair1.png
subject-07,1,151,1.08167409896851,oven,bottle,0,0151_scg_s07_0_bottle_00_bottle7-truck2.png
subject-07,1,152,0.771198987960815,car,car,0,0152_scg_s07_0_car_00_car7-airplane2.png
subject-07,1,153,1.05339121818542,knife,knife,0,0153_scg_s07_0_knife_00_knife1-clock2.png
subject-07,1,154,0.811383008956909,cat,cat,0,0154_scg_s07_0_cat_00_cat5-elephant2.png
subject-07,1,155,0.884155035018921,keyboard,keyboard,0,0155_scg_s07_0_keyboard_00_keyboard7-boat2.png
subject-07,1,156,0.982435941696167,truck,truck,0,0156_scg_s07_0_truck_00_truck10-elephant3.png
subject-07,1,157,1.10529494285583,bicycle,bicycle,0,0157_scg_s07_0_bicycle_00_bicycle1-boat3.png
subject-07,1,158,0.925827980041504,truck,truck,0,0158_scg_s07_0_truck_00_truck9-bottle2.png
subject-07,1,159,0.645187139511108,keyboard,keyboard,0,0159_scg_s07_0_keyboard_00_keyboard10-boat2.png
subject-07,1,160,1.18090105056763,keyboard,bear,0,0160_scg_s07_0_bear_00_bear9-keyboard3.png
subject-07,1,161,0.925425052642822,car,car,0,0161_scg_s07_0_car_00_car7-car1.png
subject-07,1,162,0.768631935119629,airplane,airplane,0,0162_scg_s07_0_airplane_00_airplane5-bicycle1.png
subject-07,1,163,0.959012985229492,bicycle,bicycle,0,0163_scg_s07_0_bicycle_00_bicycle9-chair1.png
subject-07,1,164,0.724504947662354,clock,clock,0,0164_scg_s07_0_clock_00_clock4-knife1.png
subject-07,1,165,1.01481890678406,cat,dog,0,0165_scg_s07_0_dog_00_dog6-bird1.png
subject-07,1,166,0.642229080200195,truck,truck,0,0166_scg_s07_0_truck_00_truck2-oven3.png
subject-07,1,167,0.670337915420532,clock,clock,0,0167_scg_s07_0_clock_00_clock2-dog1.png
subject-07,1,168,1.12827801704407,bottle,bottle,0,0168_scg_s07_0_bottle_00_bottle8-dog2.png
subject-07,1,169,1.16337180137634,bottle,bottle,0,0169_scg_s07_0_bottle_00_bottle5-knife1.png
subject-07,1,170,0.761322975158691,chair,oven,0,0170_scg_s07_0_oven_00_oven6-chair3.png
subject-07,1,171,1.06486201286316,elephant,elephant,0,0171_scg_s07_0_elephant_00_elephant9-bicycle2.png
subject-07,1,172,1.06405091285706,airplane,airplane,0,0172_scg_s07_0_airplane_00_airplane10-truck1.png
subject-07,1,173,1.10763096809387,knife,knife,0,0173_scg_s07_0_knife_00_knife8-bicycle1.png
subject-07,1,174,0.906305074691772,chair,oven,0,0174_scg_s07_0_oven_00_oven3-boat3.png
subject-07,1,175,0.833880186080933,bicycle,bicycle,0,0175_scg_s07_0_bicycle_00_bicycle4-keyboard3.png
subject-07,1,176,1.31472706794739,bicycle,bicycle,0,0176_scg_s07_0_bicycle_00_bicycle5-bear1.png
subject-07,1,177,0.772866010665894,bird,bird,0,0177_scg_s07_0_bird_00_bird1-airplane2.png
subject-07,1,178,1.36825203895569,boat,boat,0,0178_scg_s07_0_boat_00_boat5-boat3.png
subject-07,1,179,0.919634103775024,keyboard,keyboard,0,0179_scg_s07_0_keyboard_00_keyboard9-truck3.png
subject-07,1,180,1.20151686668396,dog,dog,0,0180_scg_s07_0_dog_00_dog7-bird3.png
subject-07,1,181,1.20056486129761,elephant,bird,0,0181_scg_s07_0_bird_00_bird8-keyboard2.png
subject-07,1,182,0.876515865325928,dog,dog,0,0182_scg_s07_0_dog_00_dog9-chair2.png
subject-07,1,183,1.01780819892883,boat,knife,0,0183_scg_s07_0_knife_00_knife7-elephant2.png
subject-07,1,184,0.794146060943604,oven,airplane,0,0184_scg_s07_0_airplane_00_airplane3-cat1.png
subject-07,1,185,0.900898933410645,bear,bear,0,0185_scg_s07_0_bear_00_bear2-oven1.png
subject-07,1,186,1.31255507469177,oven,oven,0,0186_scg_s07_0_oven_00_oven9-keyboard1.png
subject-07,1,187,1.14866089820862,cat,boat,0,0187_scg_s07_0_boat_00_boat7-cat3.png
subject-07,1,188,0.616864919662476,oven,oven,0,0188_scg_s07_0_oven_00_oven5-bicycle1.png
subject-07,1,189,1.2125461101532,elephant,elephant,0,0189_scg_s07_0_elephant_00_elephant8-oven3.png
subject-07,1,190,0.826810121536255,bird,bird,0,0190_scg_s07_0_bird_00_bird7-car2.png
subject-07,1,191,1.05447292327881,car,cat,0,0191_scg_s07_0_cat_00_cat3-elephant2.png
subject-07,1,192,NaN,na,elephant,0,0192_scg_s07_0_elephant_00_elephant2-bird1.png
subject-07,1,193,0.793754100799561,oven,oven,0,0193_scg_s07_0_oven_00_oven4-bicycle2.png
subject-07,1,194,0.691493988037109,chair,chair,0,0194_scg_s07_0_chair_00_chair1-clock2.png
subject-07,1,195,0.842822074890137,keyboard,keyboard,0,0195_scg_s07_0_keyboard_00_keyboard5-cat1.png
subject-07,1,196,0.670435905456543,cat,cat,0,0196_scg_s07_0_cat_00_cat1-boat1.png
subject-07,1,197,0.988253116607666,bear,bear,0,0197_scg_s07_0_bear_00_bear4-oven2.png
subject-07,1,198,1.4476478099823,clock,clock,0,0198_scg_s07_0_clock_00_clock9-airplane1.png
subject-07,1,199,0.629128932952881,oven,car,0,0199_scg_s07_0_car_00_car3-oven3.png
subject-07,1,200,0.773346900939941,bottle,bottle,0,0200_scg_s07_0_bottle_00_bottle10-car1.png
subject-07,1,201,0.960121870040894,car,airplane,0,0201_scg_s07_0_airplane_00_airplane4-car1.png
subject-07,1,202,0.842047929763794,keyboard,chair,0,0202_scg_s07_0_chair_00_chair4-keyboard2.png
subject-07,1,203,1.04796385765076,oven,bird,0,0203_scg_s07_0_bird_00_bird1-keyboard3.png
subject-07,1,204,0.860882997512817,bear,bear,0,0204_scg_s07_0_bear_00_bear2-cat2.png
subject-07,1,205,0.841915845870972,chair,chair,0,0205_scg_s07_0_chair_00_chair7-knife2.png
subject-07,1,206,1.14110684394836,bicycle,bicycle,0,0206_scg_s07_0_bicycle_00_bicycle1-bicycle3.png
subject-07,1,207,0.862576007843018,knife,airplane,0,0207_scg_s07_0_airplane_00_airplane6-keyboard3.png
subject-07,1,208,1.02045512199402,elephant,elephant,0,0208_scg_s07_0_elephant_00_elephant8-bicycle3.png
subject-07,1,209,0.757128000259399,bear,bear,0,0209_scg_s07_0_bear_00_bear2-elephant1.png
subject-07,1,210,1.06315517425537,car,car,0,0210_scg_s07_0_car_00_car3-elephant3.png
subject-07,1,211,0.928095102310181,truck,truck,0,0211_scg_s07_0_truck_00_truck2-car3.png
subject-07,1,212,1.36987709999084,boat,airplane,0,0212_scg_s07_0_airplane_00_airplane8-oven2.png
subject-07,1,213,0.567795038223267,clock,clock,0,0213_scg_s07_0_clock_00_clock2-elephant2.png
subject-07,1,214,0.833748817443848,oven,dog,0,0214_scg_s07_0_dog_00_dog1-knife3.png
subject-07,1,215,NaN,na,dog,0,0215_scg_s07_0_dog_00_dog10-elephant1.png
subject-07,1,216,0.855576992034912,car,car,0,0216_scg_s07_0_car_00_car7-bird3.png
subject-07,1,217,0.653187036514282,oven,keyboard,0,0217_scg_s07_0_keyboard_00_keyboard2-clock1.png
subject-07,1,218,0.802929878234863,car,car,0,0218_scg_s07_0_car_00_car5-truck3.png
subject-07,1,219,0.841748952865601,keyboard,keyboard,0,0219_scg_s07_0_keyboard_00_keyboard1-chair2.png
subject-07,1,220,0.907124996185303,truck,truck,0,0220_scg_s07_0_truck_00_truck5-cat3.png
subject-07,1,221,0.726922035217285,oven,oven,0,0221_scg_s07_0_oven_00_oven5-dog3.png
subject-07,1,222,1.04724311828613,cat,dog,0,0222_scg_s07_0_dog_00_dog10-truck2.png
subject-07,1,223,1.03684306144714,dog,dog,0,0223_scg_s07_0_dog_00_dog4-elephant2.png
subject-07,1,224,1.06508016586304,car,car,0,0224_scg_s07_0_car_00_car5-oven2.png
subject-07,1,225,0.783931016921997,oven,oven,0,0225_scg_s07_0_oven_00_oven9-boat2.png
subject-07,1,226,0.782070875167847,clock,clock,0,0226_scg_s07_0_clock_00_clock9-bird2.png
subject-07,1,227,1.03179812431335,airplane,boat,0,0227_scg_s07_0_boat_00_boat10-oven1.png
subject-07,1,228,0.822218179702759,clock,clock,0,0228_scg_s07_0_clock_00_clock4-car2.png
subject-07,1,229,1.38282990455627,oven,oven,0,0229_scg_s07_0_oven_00_oven5-bird1.png
subject-07,1,230,0.9241042137146,keyboard,boat,0,0230_scg_s07_0_boat_00_boat3-keyboard2.png
subject-07,1,231,0.806135892868042,bird,airplane,0,0231_scg_s07_0_airplane_00_airplane3-car1.png
subject-07,1,232,1.07991790771484,airplane,airplane,0,0232_scg_s07_0_airplane_00_airplane9-truck1.png
subject-07,1,233,1.00876307487488,car,car,0,0233_scg_s07_0_car_00_car9-cat1.png
subject-07,1,234,0.721565008163452,boat,bird,0,0234_scg_s07_0_bird_00_bird1-elephant2.png
subject-07,1,235,0.903541088104248,keyboard,keyboard,0,0235_scg_s07_0_keyboard_00_keyboard5-keyboard1.png
subject-07,1,236,0.791530132293701,bicycle,bicycle,0,0236_scg_s07_0_bicycle_00_bicycle1-dog3.png
subject-07,1,237,1.08966684341431,airplane,knife,0,0237_scg_s07_0_knife_00_knife1-keyboard3.png
subject-07,1,238,0.733942985534668,bottle,knife,0,0238_scg_s07_0_knife_00_knife9-bottle2.png
subject-07,1,239,1.28319001197815,bottle,knife,0,0239_scg_s07_0_knife_00_knife8-car2.png
subject-07,1,240,0.865978956222534,bear,bear,0,0240_scg_s07_0_bear_00_bear1-airplane3.png
subject-07,1,241,0.741898059844971,oven,oven,0,0241_scg_s07_0_oven_00_oven3-cat2.png
subject-07,1,242,0.777887105941772,car,car,0,0242_scg_s07_0_car_00_car10-dog1.png
subject-07,1,243,0.994923830032349,elephant,elephant,0,0243_scg_s07_0_elephant_00_elephant1-bottle1.png
subject-07,1,244,1.09250903129578,keyboard,knife,0,0244_scg_s07_0_knife_00_knife8-cat2.png
subject-07,1,245,1.05869102478027,airplane,airplane,0,0245_scg_s07_0_airplane_00_airplane5-oven3.png
subject-07,1,246,0.740004062652588,oven,car,0,0246_scg_s07_0_car_00_car1-dog2.png
subject-07,1,247,1.03866004943848,chair,oven,0,0247_scg_s07_0_oven_00_oven7-cat1.png
subject-07,1,248,0.673287868499756,oven,oven,0,0248_scg_s07_0_oven_00_oven4-knife2.png
subject-07,1,249,0.815662860870361,bottle,bottle,0,0249_scg_s07_0_bottle_00_bottle5-boat1.png
subject-07,1,250,1.08096694946289,bicycle,bicycle,0,0250_scg_s07_0_bicycle_00_bicycle2-bicycle1.png
subject-07,1,251,0.995601892471313,bird,knife,0,0251_scg_s07_0_knife_00_knife5-bicycle2.png
subject-07,1,252,0.585597991943359,clock,clock,0,0252_scg_s07_0_clock_00_clock4-airplane1.png
subject-07,1,253,1.26595091819763,chair,dog,0,0253_scg_s07_0_dog_00_dog8-chair3.png
subject-07,1,254,0.725395917892456,boat,knife,0,0254_scg_s07_0_knife_00_knife6-bottle3.png
subject-07,1,255,0.700987100601196,car,car,0,0255_scg_s07_0_car_00_car8-bear1.png
subject-07,1,256,0.7585768699646,bottle,bottle,0,0256_scg_s07_0_bottle_00_bottle5-truck1.png
subject-07,1,257,1.18775010108948,elephant,elephant,0,0257_scg_s07_0_elephant_00_elephant6-knife2.png
subject-07,1,258,0.801798105239868,chair,boat,0,0258_scg_s07_0_boat_00_boat3-chair3.png
subject-07,1,259,0.821126937866211,oven,oven,0,0259_scg_s07_0_oven_00_oven10-truck2.png
subject-07,1,260,0.879202842712402,boat,knife,0,0260_scg_s07_0_knife_00_knife9-elephant2.png
subject-07,1,261,1.01489210128784,elephant,elephant,0,0261_scg_s07_0_elephant_00_elephant10-keyboard1.png
subject-07,1,262,1.21047782897949,oven,keyboard,0,0262_scg_s07_0_keyboard_00_keyboard7-truck2.png
subject-07,1,263,0.516864776611328,car,car,0,0263_scg_s07_0_car_00_car10-keyboard2.png
subject-07,1,264,0.777178049087524,elephant,elephant,0,0264_scg_s07_0_elephant_00_elephant6-car3.png
subject-07,1,265,0.825988054275513,chair,chair,0,0265_scg_s07_0_chair_00_chair5-knife3.png
subject-07,1,266,0.932591199874878,keyboard,keyboard,0,0266_scg_s07_0_keyboard_00_keyboard5-airplane3.png
subject-07,1,267,0.968447208404541,dog,bear,0,0267_scg_s07_0_bear_00_bear10-keyboard3.png
subject-07,1,268,1.10317516326904,dog,dog,0,0268_scg_s07_0_dog_00_dog8-dog3.png
subject-07,1,269,0.725495100021362,elephant,elephant,0,0269_scg_s07_0_elephant_00_elephant4-bicycle2.png
subject-07,1,270,0.815523147583008,elephant,elephant,0,0270_scg_s07_0_elephant_00_elephant3-knife1.png
subject-07,1,271,0.867115020751953,keyboard,keyboard,0,0271_scg_s07_0_keyboard_00_keyboard3-clock3.png
subject-07,1,272,0.633422136306763,bear,bear,0,0272_scg_s07_0_bear_00_bear7-dog3.png
subject-07,1,273,1.08654999732971,bicycle,bicycle,0,0273_scg_s07_0_bicycle_00_bicycle4-boat1.png
subject-07,1,274,0.859462022781372,car,car,0,0274_scg_s07_0_car_00_car4-oven2.png
subject-07,1,275,0.933923006057739,car,boat,0,0275_scg_s07_0_boat_00_boat1-car2.png
subject-07,1,276,1.06769108772278,car,car,0,0276_scg_s07_0_car_00_car7-keyboard3.png
subject-07,1,277,0.841130971908569,cat,cat,0,0277_scg_s07_0_cat_00_cat8-bird2.png
subject-07,1,278,1.03137898445129,dog,dog,0,0278_scg_s07_0_dog_00_dog10-airplane1.png
subject-07,1,279,0.921936988830566,chair,chair,0,0279_scg_s07_0_chair_00_chair6-bird2.png
subject-07,1,280,0.712402105331421,cat,cat,0,0280_scg_s07_0_cat_00_cat5-car2.png
subject-07,1,281,0.693973064422607,bird,knife,0,0281_scg_s07_0_knife_00_knife4-knife2.png
subject-07,1,282,0.738594055175781,bear,bear,0,0282_scg_s07_0_bear_00_bear8-bear1.png
subject-07,1,283,1.02058696746826,truck,truck,0,0283_scg_s07_0_truck_00_truck3-dog3.png
subject-07,1,284,0.870565176010132,chair,chair,0,0284_scg_s07_0_chair_00_chair2-bear2.png
subject-07,1,285,1.07720804214478,elephant,elephant,0,0285_scg_s07_0_elephant_00_elephant5-truck1.png
subject-07,1,286,0.764559030532837,car,keyboard,0,0286_scg_s07_0_keyboard_00_keyboard9-keyboard2.png
subject-07,1,287,0.938201904296875,bear,bear,0,0287_scg_s07_0_bear_00_bear10-bottle1.png
subject-07,1,288,0.87392783164978,cat,cat,0,0288_scg_s07_0_cat_00_cat5-knife2.png
subject-07,1,289,0.647052049636841,cat,cat,0,0289_scg_s07_0_cat_00_cat7-elephant1.png
subject-07,1,290,0.721006155014038,cat,bird,0,0290_scg_s07_0_bird_00_bird2-clock3.png
subject-07,1,291,0.649558067321777,keyboard,keyboard,0,0291_scg_s07_0_keyboard_00_keyboard2-bicycle3.png
subject-07,1,292,0.860964059829712,chair,keyboard,0,0292_scg_s07_0_keyboard_00_keyboard7-chair3.png
subject-07,1,293,0.82625412940979,chair,airplane,0,0293_scg_s07_0_airplane_00_airplane4-boat3.png
subject-07,1,294,1.15403699874878,bottle,bottle,0,0294_scg_s07_0_bottle_00_bottle1-clock1.png
subject-07,1,295,0.760202884674072,elephant,elephant,0,0295_scg_s07_0_elephant_00_elephant3-truck1.png
subject-07,1,296,0.88807201385498,chair,chair,0,0296_scg_s07_0_chair_00_chair3-bicycle3.png
subject-07,1,297,1.15960788726807,knife,elephant,0,0297_scg_s07_0_elephant_00_elephant7-keyboard3.png
subject-07,1,298,1.0494589805603,dog,dog,0,0298_scg_s07_0_dog_00_dog6-clock1.png
subject-07,1,299,1.1479320526123,cat,cat,0,0299_scg_s07_0_cat_00_cat1-car2.png
subject-07,1,300,0.892633199691772,bottle,bottle,0,0300_scg_s07_0_bottle_00_bottle5-clock3.png
subject-07,1,301,0.72010612487793,bear,bear,0,0301_scg_s07_0_bear_00_bear8-truck3.png
subject-07,1,302,0.916146993637085,car,car,0,0302_scg_s07_0_car_00_car3-truck1.png
subject-07,1,303,0.798070907592773,chair,chair,0,0303_scg_s07_0_chair_00_chair7-boat3.png
subject-07,1,304,1.11725497245789,airplane,airplane,0,0304_scg_s07_0_airplane_00_airplane9-clock1.png
subject-07,1,305,0.991539001464844,bird,bird,0,0305_scg_s07_0_bird_00_bird10-bird2.png
subject-07,1,306,0.826807022094727,truck,truck,0,0306_scg_s07_0_truck_00_truck10-truck3.png
subject-07,1,307,0.570881843566895,chair,chair,0,0307_scg_s07_0_chair_00_chair7-bottle1.png
subject-07,1,308,0.858349084854126,bird,bird,0,0308_scg_s07_0_bird_00_bird6-bottle3.png
subject-07,1,309,1.31608104705811,chair,chair,0,0309_scg_s07_0_chair_00_chair9-elephant1.png
subject-07,1,310,0.760087013244629,truck,truck,0,0310_scg_s07_0_truck_00_truck3-knife2.png
subject-07,1,311,1.2092809677124,airplane,airplane,0,0311_scg_s07_0_airplane_00_airplane3-elephant1.png
subject-07,1,312,0.961389064788818,cat,cat,0,0312_scg_s07_0_cat_00_cat10-bear1.png
subject-07,1,313,1.09492897987366,cat,cat,0,0313_scg_s07_0_cat_00_cat7-truck2.png
subject-07,1,314,1.50027298927307,elephant,bear,0,0314_scg_s07_0_bear_00_bear4-truck3.png
subject-07,1,315,0.734573125839233,car,car,0,0315_scg_s07_0_car_00_car8-boat3.png
subject-07,1,316,0.961444854736328,oven,elephant,0,0316_scg_s07_0_elephant_00_elephant2-truck2.png
subject-07,1,317,0.727162837982178,clock,knife,0,0317_scg_s07_0_knife_00_knife9-bicycle1.png
subject-07,1,318,0.625146150588989,chair,chair,0,0318_scg_s07_0_chair_00_chair1-chair1.png
subject-07,1,319,0.607110023498535,cat,cat,0,0319_scg_s07_0_cat_00_cat10-clock1.png
subject-07,1,320,0.919264078140259,chair,knife,0,0320_scg_s07_0_knife_00_knife9-airplane2.png
subject-07,1,321,0.784801006317139,dog,dog,0,0321_scg_s07_0_dog_00_dog6-cat1.png
subject-07,1,322,0.782714128494263,airplane,keyboard,0,0322_scg_s07_0_keyboard_00_keyboard7-dog1.png
subject-07,1,323,0.726825952529907,car,car,0,0323_scg_s07_0_car_00_car10-chair1.png
subject-07,1,324,0.959781169891357,bird,bicycle,0,0324_scg_s07_0_bicycle_00_bicycle6-bicycle3.png
subject-07,1,325,0.695827960968018,oven,airplane,0,0325_scg_s07_0_airplane_00_airplane2-dog1.png
subject-07,1,326,0.739401817321777,car,car,0,0326_scg_s07_0_car_00_car6-chair3.png
subject-07,1,327,0.605988025665283,clock,keyboard,0,0327_scg_s07_0_keyboard_00_keyboard4-knife2.png
subject-07,1,328,0.93958592414856,clock,oven,0,0328_scg_s07_0_oven_00_oven8-cat3.png
subject-07,1,329,1.00452899932861,bicycle,bicycle,0,0329_scg_s07_0_bicycle_00_bicycle5-elephant1.png
subject-07,1,330,0.781092166900635,boat,boat,0,0330_scg_s07_0_boat_00_boat2-bird1.png
subject-07,1,331,0.952948093414307,car,car,0,0331_scg_s07_0_car_00_car8-dog1.png
subject-07,1,332,1.13449597358704,oven,chair,0,0332_scg_s07_0_chair_00_chair9-keyboard2.png
subject-07,1,333,0.783318042755127,keyboard,dog,0,0333_scg_s07_0_dog_00_dog2-bicycle2.png
subject-07,1,334,0.735691070556641,truck,truck,0,0334_scg_s07_0_truck_00_truck2-keyboard1.png
subject-07,1,335,1.23650217056274,bear,bear,0,0335_scg_s07_0_bear_00_bear5-bicycle3.png
subject-07,1,336,1.15935206413269,dog,airplane,0,0336_scg_s07_0_airplane_00_airplane2-cat1.png
subject-07,1,337,1.44738411903381,truck,boat,0,0337_scg_s07_0_boat_00_boat8-truck2.png
subject-07,1,338,1.228679895401,bear,bear,0,0338_scg_s07_0_bear_00_bear3-bird3.png
subject-07,1,339,0.805136919021606,oven,oven,0,0339_scg_s07_0_oven_00_oven4-keyboard3.png
subject-07,1,340,0.663352012634277,chair,chair,0,0340_scg_s07_0_chair_00_chair1-dog1.png
subject-07,1,341,0.937403917312622,bottle,bottle,0,0341_scg_s07_0_bottle_00_bottle4-oven2.png
subject-07,1,342,0.828330993652344,chair,chair,0,0342_scg_s07_0_chair_00_chair1-oven3.png
subject-07,1,343,0.926050901412964,bird,bird,0,0343_scg_s07_0_bird_00_bird5-truck2.png
subject-07,1,344,1.01364612579346,car,car,0,0344_scg_s07_0_car_00_car3-bottle3.png
subject-07,1,345,1.15716886520386,bird,bird,0,0345_scg_s07_0_bird_00_bird7-bird2.png
subject-07,1,346,NaN,na,dog,0,0346_scg_s07_0_dog_00_dog5-elephant1.png
subject-07,1,347,0.587967872619629,clock,clock,0,0347_scg_s07_0_clock_00_clock6-knife2.png
subject-07,1,348,0.862131834030151,chair,elephant,0,0348_scg_s07_0_elephant_00_elephant5-chair3.png
subject-07,1,349,0.849663019180298,clock,clock,0,0349_scg_s07_0_clock_00_clock3-cat1.png
subject-07,1,350,0.661659955978394,oven,oven,0,0350_scg_s07_0_oven_00_oven3-bottle3.png
subject-07,1,351,0.635075092315674,oven,oven,0,0351_scg_s07_0_oven_00_oven7-car3.png
subject-07,1,352,1.02295613288879,elephant,elephant,0,0352_scg_s07_0_elephant_00_elephant9-clock3.png
subject-07,1,353,0.873815059661865,clock,knife,0,0353_scg_s07_0_knife_00_knife3-clock2.png
subject-07,1,354,0.964499950408936,bear,bear,0,0354_scg_s07_0_bear_00_bear10-knife2.png
subject-07,1,355,0.714546918869019,bottle,bottle,0,0355_scg_s07_0_bottle_00_bottle10-boat3.png
subject-07,1,356,0.621618032455444,oven,oven,0,0356_scg_s07_0_oven_00_oven2-oven3.png
subject-07,1,357,0.971283912658691,bear,bear,0,0357_scg_s07_0_bear_00_bear10-clock1.png
subject-07,1,358,0.961745023727417,chair,car,0,0358_scg_s07_0_car_00_car2-knife3.png
subject-07,1,359,1.0352828502655,cat,bottle,0,0359_scg_s07_0_bottle_00_bottle4-airplane1.png
subject-07,1,360,0.640865087509155,oven,airplane,0,0360_scg_s07_0_airplane_00_airplane2-bird3.png
subject-07,1,361,0.91310715675354,bicycle,bicycle,0,0361_scg_s07_0_bicycle_00_bicycle8-clock3.png
subject-07,1,362,0.670727014541626,oven,knife,0,0362_scg_s07_0_knife_00_knife6-truck1.png
subject-07,1,363,1.02867698669434,chair,keyboard,0,0363_scg_s07_0_keyboard_00_keyboard1-elephant3.png
subject-07,1,364,0.850438833236694,cat,elephant,0,0364_scg_s07_0_elephant_00_elephant2-cat1.png
subject-07,1,365,0.654726982116699,cat,cat,0,0365_scg_s07_0_cat_00_cat6-keyboard3.png
subject-07,1,366,0.974842071533203,chair,chair,0,0366_scg_s07_0_chair_00_chair2-keyboard2.png
subject-07,1,367,1.132080078125,oven,boat,0,0367_scg_s07_0_boat_00_boat1-oven1.png
subject-07,1,368,1.22031807899475,chair,bottle,0,0368_scg_s07_0_bottle_00_bottle2-chair3.png
subject-07,1,369,1.27201199531555,cat,chair,0,0369_scg_s07_0_chair_00_chair5-cat3.png
subject-07,1,370,0.85433292388916,oven,car,0,0370_scg_s07_0_car_00_car4-cat3.png
subject-07,1,371,0.760493993759155,truck,truck,0,0371_scg_s07_0_truck_00_truck3-chair2.png
subject-07,1,372,0.755839109420776,boat,boat,0,0372_scg_s07_0_boat_00_boat6-dog1.png
subject-07,1,373,1.19730186462402,clock,clock,0,0373_scg_s07_0_clock_00_clock6-chair3.png
subject-07,1,374,0.724698066711426,keyboard,car,0,0374_scg_s07_0_car_00_car1-keyboard2.png
subject-07,1,375,0.682770967483521,bottle,bottle,0,0375_scg_s07_0_bottle_00_bottle2-elephant1.png
subject-07,1,376,0.948323965072632,cat,bird,0,0376_scg_s07_0_bird_00_bird10-elephant2.png
subject-07,1,377,0.66889500617981,oven,knife,0,0377_scg_s07_0_knife_00_knife4-car2.png
subject-07,1,378,0.834894895553589,car,bird,0,0378_scg_s07_0_bird_00_bird3-bird2.png
subject-07,1,379,0.632385015487671,chair,chair,0,0379_scg_s07_0_chair_00_chair4-bear2.png
subject-07,1,380,0.790149211883545,chair,chair,0,0380_scg_s07_0_chair_00_chair4-cat2.png
subject-07,1,381,0.618487119674683,cat,cat,0,0381_scg_s07_0_cat_00_cat9-bicycle1.png
subject-07,1,382,0.952330112457275,chair,chair,0,0382_scg_s07_0_chair_00_chair7-car2.png
subject-07,1,383,1.01004886627197,elephant,elephant,0,0383_scg_s07_0_elephant_00_elephant7-dog1.png
subject-07,1,384,0.821866035461426,chair,airplane,0,0384_scg_s07_0_airplane_00_airplane8-chair1.png
subject-07,1,385,0.773838043212891,chair,airplane,0,0385_scg_s07_0_airplane_00_airplane8-clock2.png
subject-07,1,386,0.961386919021606,oven,oven,0,0386_scg_s07_0_oven_00_oven9-bear2.png
subject-07,1,387,0.683925867080688,oven,keyboard,0,0387_scg_s07_0_keyboard_00_keyboard3-cat1.png
subject-07,1,388,0.747031927108765,clock,clock,0,0388_scg_s07_0_clock_00_clock10-clock3.png
subject-07,1,389,0.591291904449463,cat,cat,0,0389_scg_s07_0_cat_00_cat1-bird1.png
subject-07,1,390,0.657519102096558,oven,oven,0,0390_scg_s07_0_oven_00_oven5-keyboard2.png
subject-07,1,391,1.12127995491028,dog,keyboard,0,0391_scg_s07_0_keyboard_00_keyboard1-airplane2.png
subject-07,1,392,1.12684297561646,cat,cat,0,0392_scg_s07_0_cat_00_cat5-dog3.png
subject-07,1,393,1.29910087585449,keyboard,knife,0,0393_scg_s07_0_knife_00_knife10-elephant3.png
subject-07,1,394,1.17571210861206,truck,truck,0,0394_scg_s07_0_truck_00_truck5-truck1.png
subject-07,1,395,1.25798416137695,truck,truck,0,0395_scg_s07_0_truck_00_truck5-dog3.png
subject-07,1,396,0.693892955780029,oven,boat,0,0396_scg_s07_0_boat_00_boat4-boat3.png
subject-07,1,397,1.1116578578949,chair,boat,0,0397_scg_s07_0_boat_00_boat7-keyboard3.png
subject-07,1,398,1.35570216178894,boat,bear,0,0398_scg_s07_0_bear_00_bear10-chair2.png
subject-07,1,399,0.799359083175659,clock,clock,0,0399_scg_s07_0_clock_00_clock5-bicycle1.png
subject-07,1,400,1.09499406814575,oven,bear,0,0400_scg_s07_0_bear_00_bear6-bird2.png
subject-07,1,401,0.822869062423706,bear,elephant,0,0401_scg_s07_0_elephant_00_elephant1-airplane2.png
subject-07,1,402,1.41902112960815,chair,chair,0,0402_scg_s07_0_chair_00_chair10-car2.png
subject-07,1,403,0.909144163131714,bear,elephant,0,0403_scg_s07_0_elephant_00_elephant6-cat2.png
subject-07,1,404,1.15084505081177,bottle,bottle,0,0404_scg_s07_0_bottle_00_bottle6-bottle3.png
subject-07,1,405,1.18719601631165,chair,chair,0,0405_scg_s07_0_chair_00_chair8-car1.png
subject-07,1,406,1.29868698120117,clock,cat,0,0406_scg_s07_0_cat_00_cat10-oven2.png
subject-07,1,407,0.942261934280396,bottle,elephant,0,0407_scg_s07_0_elephant_00_elephant6-bottle2.png
subject-07,1,408,NaN,na,bottle,0,0408_scg_s07_0_bottle_00_bottle5-cat1.png
subject-07,1,409,0.93320894241333,bear,elephant,0,0409_scg_s07_0_elephant_00_elephant4-bird1.png
subject-07,1,410,0.939530849456787,bottle,knife,0,0410_scg_s07_0_knife_00_knife2-bottle2.png
subject-07,1,411,1.50031900405884,truck,truck,0,0411_scg_s07_0_truck_00_truck2-elephant1.png
subject-07,1,412,1.00108194351196,elephant,elephant,0,0412_scg_s07_0_elephant_00_elephant10-elephant1.png
subject-07,1,413,1.1568169593811,bear,bear,0,0413_scg_s07_0_bear_00_bear5-bottle1.png
subject-07,1,414,0.787054061889648,truck,truck,0,0414_scg_s07_0_truck_00_truck2-airplane3.png
subject-07,1,415,0.636950969696045,chair,dog,0,0415_scg_s07_0_dog_00_dog8-keyboard3.png
subject-07,1,416,1.10756492614746,knife,boat,0,0416_scg_s07_0_boat_00_boat4-knife2.png
subject-07,1,417,1.1583731174469,bicycle,bicycle,0,0417_scg_s07_0_bicycle_00_bicycle4-cat1.png
subject-07,1,418,1.24067497253418,oven,oven,0,0418_scg_s07_0_oven_00_oven8-knife2.png
subject-07,1,419,0.84624195098877,bicycle,bicycle,0,0419_scg_s07_0_bicycle_00_bicycle5-oven3.png
subject-07,1,420,0.849977016448975,dog,dog,0,0420_scg_s07_0_dog_00_dog4-oven1.png
subject-07,1,421,1.29188680648804,dog,dog,0,0421_scg_s07_0_dog_00_dog6-bicycle1.png
subject-07,1,422,0.797883987426758,oven,oven,0,0422_scg_s07_0_oven_00_oven10-cat2.png
subject-07,1,423,1.44006109237671,boat,boat,0,0423_scg_s07_0_boat_00_boat4-bicycle3.png
subject-07,1,424,0.992150068283081,oven,car,0,0424_scg_s07_0_car_00_car6-elephant3.png
subject-07,1,425,0.850102186203003,bottle,bottle,0,0425_scg_s07_0_bottle_00_bottle6-knife3.png
subject-07,1,426,0.99898886680603,keyboard,boat,0,0426_scg_s07_0_boat_00_boat8-dog3.png
subject-07,1,427,1.02731800079346,chair,chair,0,0427_scg_s07_0_chair_00_chair2-knife1.png
subject-07,1,428,0.763309001922607,bear,bear,0,0428_scg_s07_0_bear_00_bear8-dog1.png
subject-07,1,429,1.34335899353027,oven,keyboard,0,0429_scg_s07_0_keyboard_00_keyboard6-bicycle1.png
subject-07,1,430,1.20915508270264,elephant,elephant,0,0430_scg_s07_0_elephant_00_elephant8-airplane3.png
subject-07,1,431,1.14436388015747,elephant,bear,0,0431_scg_s07_0_bear_00_bear3-truck3.png
subject-07,1,432,0.848448991775513,chair,boat,0,0432_scg_s07_0_boat_00_boat10-boat3.png
subject-07,1,433,0.892217874526978,car,knife,0,0433_scg_s07_0_knife_00_knife5-truck3.png
subject-07,1,434,0.864141941070557,bottle,bottle,0,0434_scg_s07_0_bottle_00_bottle4-car3.png
subject-07,1,435,0.915998935699463,elephant,elephant,0,0435_scg_s07_0_elephant_00_elephant6-bicycle1.png
subject-07,1,436,0.865703105926514,bear,bear,0,0436_scg_s07_0_bear_00_bear2-car2.png
subject-07,1,437,1.22946882247925,car,car,0,0437_scg_s07_0_car_00_car8-airplane3.png
subject-07,1,438,0.927109956741333,boat,boat,0,0438_scg_s07_0_boat_00_boat2-oven3.png
subject-07,1,439,0.717185020446777,chair,oven,0,0439_scg_s07_0_oven_00_oven4-chair1.png
subject-07,1,440,1.22621989250183,bicycle,bicycle,0,0440_scg_s07_0_bicycle_00_bicycle8-truck1.png
subject-07,1,441,1.03035187721252,chair,chair,0,0441_scg_s07_0_chair_00_chair8-elephant1.png
subject-07,1,442,0.935205936431885,dog,dog,0,0442_scg_s07_0_dog_00_dog5-car3.png
subject-07,1,443,0.801365852355957,cat,cat,0,0443_scg_s07_0_cat_00_cat1-chair2.png
subject-07,1,444,0.950911998748779,bear,cat,0,0444_scg_s07_0_cat_00_cat7-boat3.png
subject-07,1,445,0.963384866714478,knife,truck,0,0445_scg_s07_0_truck_00_truck3-keyboard3.png
subject-07,1,446,1.00783514976501,elephant,elephant,0,0446_scg_s07_0_elephant_00_elephant2-bottle3.png
subject-07,1,447,0.758108854293823,chair,chair,0,0447_scg_s07_0_chair_00_chair3-bottle3.png
subject-07,1,448,1.03170299530029,bear,bear,0,0448_scg_s07_0_bear_00_bear8-airplane1.png
subject-07,1,449,1.2037239074707,bird,bird,0,0449_scg_s07_0_bird_00_bird8-boat3.png
subject-07,1,450,1.0176739692688,oven,oven,0,0450_scg_s07_0_oven_00_oven6-truck1.png
subject-07,1,451,1.28089380264282,boat,boat,0,0451_scg_s07_0_boat_00_boat2-keyboard1.png
subject-07,1,452,0.795044898986816,bird,bird,0,0452_scg_s07_0_bird_00_bird5-bicycle1.png
subject-07,1,453,1.26678609848022,bear,bear,0,0453_scg_s07_0_bear_00_bear5-oven3.png
subject-07,1,454,0.972702980041504,oven,oven,0,0454_scg_s07_0_oven_00_oven2-bottle1.png
subject-07,1,455,0.893594980239868,chair,chair,0,0455_scg_s07_0_chair_00_chair10-dog1.png
subject-07,1,456,1.35145616531372,keyboard,cat,0,0456_scg_s07_0_cat_00_cat2-bottle3.png
subject-07,1,457,0.963915109634399,cat,cat,0,0457_scg_s07_0_cat_00_cat2-car3.png
subject-07,1,458,0.87031888961792,dog,dog,0,0458_scg_s07_0_dog_00_dog3-dog1.png
subject-07,1,459,1.09102606773376,bear,airplane,0,0459_scg_s07_0_airplane_00_airplane6-bear3.png
subject-07,1,460,0.85646390914917,oven,airplane,0,0460_scg_s07_0_airplane_00_airplane4-knife1.png
subject-07,1,461,0.785040140151978,car,car,0,0461_scg_s07_0_car_00_car5-knife2.png
subject-07,1,462,0.704828977584839,clock,clock,0,0462_scg_s07_0_clock_00_clock3-bear3.png
subject-07,1,463,1.14674997329712,airplane,airplane,0,0463_scg_s07_0_airplane_00_airplane5-bottle3.png
subject-07,1,464,0.79119610786438,oven,bird,0,0464_scg_s07_0_bird_00_bird7-truck2.png
subject-07,1,465,0.567138910293579,clock,clock,0,0465_scg_s07_0_clock_00_clock5-keyboard1.png
subject-07,1,466,0.892793893814087,bicycle,bicycle,0,0466_scg_s07_0_bicycle_00_bicycle3-keyboard1.png
subject-07,1,467,1.08005094528198,bicycle,bicycle,0,0467_scg_s07_0_bicycle_00_bicycle8-bird2.png
subject-07,1,468,0.905972003936768,clock,clock,0,0468_scg_s07_0_clock_00_clock3-elephant3.png
subject-07,1,469,1.17189717292786,keyboard,bicycle,0,0469_scg_s07_0_bicycle_00_bicycle6-cat1.png
subject-07,1,470,0.9615318775177,bicycle,bicycle,0,0470_scg_s07_0_bicycle_00_bicycle7-knife2.png
subject-07,1,471,1.17309188842773,knife,airplane,0,0471_scg_s07_0_airplane_00_airplane7-keyboard1.png
subject-07,1,472,1.2558491230011,knife,boat,0,0472_scg_s07_0_boat_00_boat1-keyboard3.png
subject-07,1,473,NaN,na,bottle,0,0473_scg_s07_0_bottle_00_bottle1-chair2.png
subject-07,1,474,0.949203014373779,dog,dog,0,0474_scg_s07_0_dog_00_dog9-bottle1.png
subject-07,1,475,1.24581098556519,cat,bird,0,0475_scg_s07_0_bird_00_bird2-dog2.png
subject-07,1,476,1.02776384353638,bird,bird,0,0476_scg_s07_0_bird_00_bird3-cat1.png
subject-07,1,477,1.43180894851685,chair,chair,0,0477_scg_s07_0_chair_00_chair7-cat1.png
subject-07,1,478,0.659340143203735,bicycle,bicycle,0,0478_scg_s07_0_bicycle_00_bicycle1-clock3.png
subject-07,1,479,0.841449022293091,oven,knife,0,0479_scg_s07_0_knife_00_knife9-bear3.png
subject-07,1,480,0.937439918518066,truck,truck,0,0480_scg_s07_0_truck_00_truck2-bottle3.png
subject-07,1,481,1.50037884712219,car,chair,0,0481_scg_s07_0_chair_00_chair8-keyboard3.png
subject-07,1,482,0.576602935791016,clock,clock,0,0482_scg_s07_0_clock_00_clock7-keyboard2.png
subject-07,1,483,0.726505994796753,oven,keyboard,0,0483_scg_s07_0_keyboard_00_keyboard9-cat1.png
subject-07,1,484,0.824827909469604,cat,bird,0,0484_scg_s07_0_bird_00_bird3-dog1.png
subject-07,1,485,0.636868953704834,boat,cat,0,0485_scg_s07_0_cat_00_cat10-airplane3.png
subject-07,1,486,0.703022003173828,oven,boat,0,0486_scg_s07_0_boat_00_boat6-clock2.png
subject-07,1,487,0.906402111053467,bottle,bottle,0,0487_scg_s07_0_bottle_00_bottle8-bicycle1.png
subject-07,1,488,0.872544050216675,boat,boat,0,0488_scg_s07_0_boat_00_boat9-airplane2.png
subject-07,1,489,0.638312101364136,bicycle,bicycle,0,0489_scg_s07_0_bicycle_00_bicycle8-boat1.png
subject-07,1,490,0.704230070114136,bottle,truck,0,0490_scg_s07_0_truck_00_truck6-dog2.png
subject-07,1,491,1.35208511352539,bear,cat,0,0491_scg_s07_0_cat_00_cat8-bear1.png
subject-07,1,492,0.665837049484253,chair,knife,0,0492_scg_s07_0_knife_00_knife6-oven3.png
subject-07,1,493,0.82381010055542,truck,truck,0,0493_scg_s07_0_truck_00_truck4-bottle2.png
subject-07,1,494,0.889714002609253,chair,boat,0,0494_scg_s07_0_boat_00_boat7-truck2.png
subject-07,1,495,1.23979806900024,oven,cat,0,0495_scg_s07_0_cat_00_cat4-keyboard2.png
subject-07,1,496,1.08188199996948,chair,chair,0,0496_scg_s07_0_chair_00_chair10-clock1.png
subject-07,1,497,1.38530707359314,keyboard,dog,0,0497_scg_s07_0_dog_00_dog9-boat1.png
subject-07,1,498,1.50030708312988,clock,bottle,0,0498_scg_s07_0_bottle_00_bottle5-chair1.png
subject-07,1,499,1.1324098110199,elephant,elephant,0,0499_scg_s07_0_elephant_00_elephant1-boat2.png
subject-07,1,500,0.927958965301514,chair,chair,0,0500_scg_s07_0_chair_00_chair5-oven2.png
subject-07,1,501,0.964489936828613,chair,chair,0,0501_scg_s07_0_chair_00_chair9-bear1.png
subject-07,1,502,1.50026297569275,chair,clock,0,0502_scg_s07_0_clock_00_clock4-chair1.png
subject-07,1,503,0.988204002380371,chair,knife,0,0503_scg_s07_0_knife_00_knife10-chair1.png
subject-07,1,504,0.800376892089844,chair,knife,0,0504_scg_s07_0_knife_00_knife9-boat1.png
subject-07,1,505,0.828147888183594,chair,chair,0,0505_scg_s07_0_chair_00_chair3-knife1.png
subject-07,1,506,1.38424491882324,chair,oven,0,0506_scg_s07_0_oven_00_oven9-car2.png
subject-07,1,507,1.17420601844788,bottle,bottle,0,0507_scg_s07_0_bottle_00_bottle2-knife3.png
subject-07,1,508,1.07215785980225,dog,dog,0,0508_scg_s07_0_dog_00_dog1-airplane3.png
subject-07,1,509,1.03906202316284,bird,clock,0,0509_scg_s07_0_clock_00_clock10-cat1.png
subject-07,1,510,1.13430285453796,airplane,airplane,0,0510_scg_s07_0_airplane_00_airplane9-oven2.png
subject-07,1,511,1.22231698036194,truck,truck,0,0511_scg_s07_0_truck_00_truck1-cat1.png
subject-07,1,512,1.22575712203979,bicycle,bicycle,0,0512_scg_s07_0_bicycle_00_bicycle4-oven3.png
subject-07,1,513,0.92839503288269,bottle,bottle,0,0513_scg_s07_0_bottle_00_bottle4-truck1.png
subject-07,1,514,0.725949048995972,keyboard,keyboard,0,0514_scg_s07_0_keyboard_00_keyboard6-knife2.png
subject-07,1,515,0.700180053710938,bird,bird,0,0515_scg_s07_0_bird_00_bird8-elephant1.png
subject-07,1,516,0.695679187774658,oven,knife,0,0516_scg_s07_0_knife_00_knife5-oven2.png
subject-07,1,517,0.607106924057007,bottle,bottle,0,0517_scg_s07_0_bottle_00_bottle7-airplane3.png
subject-07,1,518,1.11931991577148,clock,bicycle,0,0518_scg_s07_0_bicycle_00_bicycle6-dog2.png
subject-07,1,519,0.722996950149536,clock,clock,0,0519_scg_s07_0_clock_00_clock10-knife3.png
subject-07,1,520,1.50012016296387,oven,oven,0,0520_scg_s07_0_oven_00_oven3-bear2.png
subject-07,1,521,0.700332880020142,bicycle,bicycle,0,0521_scg_s07_0_bicycle_00_bicycle4-truck3.png
subject-07,1,522,0.797510862350464,airplane,airplane,0,0522_scg_s07_0_airplane_00_airplane10-oven2.png
subject-07,1,523,0.886209964752197,truck,truck,0,0523_scg_s07_0_truck_00_truck1-bicycle3.png
subject-07,1,524,0.954349040985107,bird,bird,0,0524_scg_s07_0_bird_00_bird7-knife2.png
subject-07,1,525,0.734055042266846,bird,bird,0,0525_scg_s07_0_bird_00_bird9-bear3.png
subject-07,1,526,0.808043003082275,bottle,bottle,0,0526_scg_s07_0_bottle_00_bottle6-boat3.png
subject-07,1,527,0.727578163146973,truck,truck,0,0527_scg_s07_0_truck_00_truck5-keyboard1.png
subject-07,1,528,1.01726484298706,boat,airplane,0,0528_scg_s07_0_airplane_00_airplane3-airplane2.png
subject-07,1,529,0.720466136932373,bird,bird,0,0529_scg_s07_0_bird_00_bird10-bear2.png
subject-07,1,530,1.05384302139282,bear,boat,0,0530_scg_s07_0_boat_00_boat10-bear3.png
subject-07,1,531,1.03345203399658,dog,dog,0,0531_scg_s07_0_dog_00_dog1-boat3.png
subject-07,1,532,0.848448991775513,bird,bird,0,0532_scg_s07_0_bird_00_bird10-chair1.png
subject-07,1,533,0.830218076705933,truck,truck,0,0533_scg_s07_0_truck_00_truck9-airplane2.png
subject-07,1,534,0.934170007705688,boat,cat,0,0534_scg_s07_0_cat_00_cat5-airplane2.png
subject-07,1,535,1.11340403556824,cat,airplane,0,0535_scg_s07_0_airplane_00_airplane4-cat3.png
subject-07,1,536,0.88136100769043,bottle,bottle,0,0536_scg_s07_0_bottle_00_bottle9-bottle1.png
subject-07,1,537,0.709624052047729,clock,bicycle,0,0537_scg_s07_0_bicycle_00_bicycle5-keyboard3.png
subject-07,1,538,0.675242185592651,cat,cat,0,0538_scg_s07_0_cat_00_cat2-boat2.png
subject-07,1,539,0.594845056533813,clock,clock,0,0539_scg_s07_0_clock_00_clock1-bear1.png
subject-07,1,540,0.852562189102173,oven,oven,0,0540_scg_s07_0_oven_00_oven7-bottle1.png
subject-07,1,541,0.696503877639771,bird,airplane,0,0541_scg_s07_0_airplane_00_airplane7-cat3.png
subject-07,1,542,0.746814012527466,truck,truck,0,0542_scg_s07_0_truck_00_truck2-clock1.png
subject-07,1,543,0.750885963439941,keyboard,knife,0,0543_scg_s07_0_knife_00_knife2-truck2.png
subject-07,1,544,0.824920892715454,bird,bird,0,0544_scg_s07_0_bird_00_bird5-bear3.png
subject-07,1,545,0.969033002853394,elephant,elephant,0,0545_scg_s07_0_elephant_00_elephant2-airplane3.png
subject-07,1,546,0.810765981674194,airplane,airplane,0,0546_scg_s07_0_airplane_00_airplane10-knife3.png
subject-07,1,547,0.684067964553833,keyboard,keyboard,0,0547_scg_s07_0_keyboard_00_keyboard9-boat2.png
subject-07,1,548,0.845260858535767,airplane,airplane,0,0548_scg_s07_0_airplane_00_airplane10-elephant1.png
subject-07,1,549,0.827115058898926,bear,bear,0,0549_scg_s07_0_bear_00_bear1-bicycle3.png
subject-07,1,550,1.39924812316895,boat,boat,0,0550_scg_s07_0_boat_00_boat3-clock3.png
subject-07,1,551,0.642958879470825,clock,clock,0,0551_scg_s07_0_clock_00_clock1-truck3.png
subject-07,1,552,0.801213979721069,airplane,airplane,0,0552_scg_s07_0_airplane_00_airplane5-chair3.png
subject-07,1,553,0.936158895492554,clock,clock,0,0553_scg_s07_0_clock_00_clock6-bottle1.png
subject-07,1,554,0.925766944885254,airplane,cat,0,0554_scg_s07_0_cat_00_cat6-chair3.png
subject-07,1,555,0.667611837387085,oven,oven,0,0555_scg_s07_0_oven_00_oven2-bear3.png
subject-07,1,556,0.657135009765625,clock,clock,0,0556_scg_s07_0_clock_00_clock8-cat1.png
subject-07,1,557,0.699420928955078,cat,boat,0,0557_scg_s07_0_boat_00_boat7-bottle1.png
subject-07,1,558,0.743616104125977,cat,boat,0,0558_scg_s07_0_boat_00_boat10-cat1.png
subject-07,1,559,0.931289911270142,bottle,bottle,0,0559_scg_s07_0_bottle_00_bottle3-bicycle3.png
subject-07,1,560,0.666774988174438,chair,chair,0,0560_scg_s07_0_chair_00_chair7-airplane1.png
subject-07,1,561,0.708034992218018,bear,bear,0,0561_scg_s07_0_bear_00_bear2-dog1.png
subject-07,1,562,1.38775491714478,knife,knife,0,0562_scg_s07_0_knife_00_knife6-airplane1.png
subject-07,1,563,0.623384952545166,bird,bird,0,0563_scg_s07_0_bird_00_bird9-dog2.png
subject-07,1,564,0.72127103805542,dog,dog,0,0564_scg_s07_0_dog_00_dog2-dog3.png
subject-07,1,565,0.787492990493774,elephant,elephant,0,0565_scg_s07_0_elephant_00_elephant7-car3.png
subject-07,1,566,0.769068956375122,keyboard,keyboard,0,0566_scg_s07_0_keyboard_00_keyboard8-chair2.png
subject-07,1,567,0.873304128646851,chair,knife,0,0567_scg_s07_0_knife_00_knife6-chair3.png
subject-07,1,568,0.925683975219727,bottle,airplane,0,0568_scg_s07_0_airplane_00_airplane5-knife1.png
subject-07,1,569,0.574972867965698,clock,clock,0,0569_scg_s07_0_clock_00_clock10-dog3.png
subject-07,1,570,0.76506495475769,elephant,elephant,0,0570_scg_s07_0_elephant_00_elephant10-bear1.png
subject-07,1,571,0.990992069244385,bottle,bottle,0,0571_scg_s07_0_bottle_00_bottle6-dog3.png
subject-07,1,572,0.888684034347534,knife,knife,0,0572_scg_s07_0_knife_00_knife1-oven1.png
subject-07,1,573,0.738854169845581,car,car,0,0573_scg_s07_0_car_00_car7-bear1.png
subject-07,1,574,0.658224105834961,keyboard,keyboard,0,0574_scg_s07_0_keyboard_00_keyboard7-car3.png
subject-07,1,575,1.09459614753723,oven,oven,0,0575_scg_s07_0_oven_00_oven1-boat3.png
subject-07,1,576,0.989838123321533,knife,knife,0,0576_scg_s07_0_knife_00_knife6-bicycle1.png
subject-07,1,577,1.0013279914856,bear,bear,0,0577_scg_s07_0_bear_00_bear8-knife3.png
subject-07,1,578,0.721853971481323,cat,airplane,0,0578_scg_s07_0_airplane_00_airplane4-bottle1.png
subject-07,1,579,0.965367078781128,keyboard,airplane,0,0579_scg_s07_0_airplane_00_airplane3-keyboard2.png
subject-07,1,580,0.684828996658325,truck,truck,0,0580_scg_s07_0_truck_00_truck10-airplane1.png
subject-07,1,581,0.734518051147461,oven,oven,0,0581_scg_s07_0_oven_00_oven6-knife3.png
subject-07,1,582,0.784336090087891,truck,truck,0,0582_scg_s07_0_truck_00_truck3-bear3.png
subject-07,1,583,0.712518215179443,cat,cat,0,0583_scg_s07_0_cat_00_cat9-cat3.png
subject-07,1,584,1.00264716148376,dog,dog,0,0584_scg_s07_0_dog_00_dog7-chair2.png
subject-07,1,585,0.96105694770813,boat,boat,0,0585_scg_s07_0_boat_00_boat9-boat3.png
subject-07,1,586,0.742148160934448,car,car,0,0586_scg_s07_0_car_00_car5-cat1.png
subject-07,1,587,0.645367860794067,keyboard,keyboard,0,0587_scg_s07_0_keyboard_00_keyboard1-car3.png
subject-07,1,588,0.67082691192627,bird,bird,0,0588_scg_s07_0_bird_00_bird1-bicycle2.png
subject-07,1,589,0.690339088439941,keyboard,keyboard,0,0589_scg_s07_0_keyboard_00_keyboard6-bear2.png
subject-07,1,590,0.709546089172363,clock,clock,0,0590_scg_s07_0_clock_00_clock5-clock2.png
subject-07,1,591,0.813867092132568,bird,bird,0,0591_scg_s07_0_bird_00_bird7-cat3.png
subject-07,1,592,0.598331212997437,keyboard,keyboard,0,0592_scg_s07_0_keyboard_00_keyboard6-chair1.png
subject-07,1,593,0.610507011413574,bottle,boat,0,0593_scg_s07_0_boat_00_boat4-bottle2.png
subject-07,1,594,0.651380062103271,airplane,airplane,0,0594_scg_s07_0_airplane_00_airplane1-chair2.png
subject-07,1,595,0.763550043106079,truck,truck,0,0595_scg_s07_0_truck_00_truck3-oven2.png
subject-07,1,596,0.637511014938354,oven,oven,0,0596_scg_s07_0_oven_00_oven10-oven3.png
subject-07,1,597,0.749473094940186,bottle,boat,0,0597_scg_s07_0_boat_00_boat5-car3.png
subject-07,1,598,0.777879953384399,boat,boat,0,0598_scg_s07_0_boat_00_boat3-bicycle2.png
subject-07,1,599,0.873188972473145,car,car,0,0599_scg_s07_0_car_00_car4-elephant3.png
subject-07,1,600,1.23983097076416,truck,truck,0,0600_scg_s07_0_truck_00_truck1-chair2.png
subject-07,1,601,0.791232109069824,chair,chair,0,0601_scg_s07_0_chair_00_chair5-boat3.png
subject-07,1,602,0.711548089981079,keyboard,keyboard,0,0602_scg_s07_0_keyboard_00_keyboard8-dog3.png
subject-07,1,603,0.730665922164917,bottle,bird,0,0603_scg_s07_0_bird_00_bird3-bottle2.png
subject-07,1,604,0.958332061767578,elephant,elephant,0,0604_scg_s07_0_elephant_00_elephant5-bear2.png
subject-07,1,605,0.608330965042114,dog,dog,0,0605_scg_s07_0_dog_00_dog4-clock1.png
subject-07,1,606,0.844061136245728,dog,dog,0,0606_scg_s07_0_dog_00_dog5-boat3.png
subject-07,1,607,0.901479005813599,bear,bear,0,0607_scg_s07_0_bear_00_bear1-clock2.png
subject-07,1,608,0.88951301574707,bottle,airplane,0,0608_scg_s07_0_airplane_00_airplane6-bottle2.png
subject-07,1,609,0.633597850799561,bird,bird,0,0609_scg_s07_0_bird_00_bird5-dog2.png
subject-07,1,610,0.601678848266602,bottle,bottle,0,0610_scg_s07_0_bottle_00_bottle6-chair2.png
subject-07,1,611,0.727236032485962,keyboard,keyboard,0,0611_scg_s07_0_keyboard_00_keyboard9-bicycle2.png
subject-07,1,612,0.864158868789673,bicycle,bicycle,0,0612_scg_s07_0_bicycle_00_bicycle6-boat2.png
subject-07,1,613,1.04378700256348,dog,cat,0,0613_scg_s07_0_cat_00_cat1-keyboard3.png
subject-07,1,614,0.541980028152466,oven,oven,0,0614_scg_s07_0_oven_00_oven5-bottle3.png
subject-07,1,615,0.661731958389282,dog,dog,0,0615_scg_s07_0_dog_00_dog9-bear3.png
subject-07,1,616,0.789691925048828,truck,truck,0,0616_scg_s07_0_truck_00_truck7-truck2.png
subject-07,1,617,0.748033046722412,cat,boat,0,0617_scg_s07_0_boat_00_boat9-bear3.png
subject-07,1,618,0.683750867843628,airplane,airplane,0,0618_scg_s07_0_airplane_00_airplane2-bicycle1.png
subject-07,1,619,0.879353046417236,chair,chair,0,0619_scg_s07_0_chair_00_chair5-car1.png
subject-07,1,620,0.615715980529785,oven,boat,0,0620_scg_s07_0_boat_00_boat9-dog2.png
subject-07,1,621,0.688997983932495,bear,bear,0,0621_scg_s07_0_bear_00_bear5-boat2.png
subject-07,1,622,0.663722991943359,bottle,bottle,0,0622_scg_s07_0_bottle_00_bottle9-car3.png
subject-07,1,623,0.753387928009033,bottle,bottle,0,0623_scg_s07_0_bottle_00_bottle3-airplane2.png
subject-07,1,624,0.928060054779053,keyboard,keyboard,0,0624_scg_s07_0_keyboard_00_keyboard4-cat2.png
subject-07,1,625,0.97780704498291,airplane,airplane,0,0625_scg_s07_0_airplane_00_airplane1-elephant1.png
subject-07,1,626,0.77354907989502,oven,oven,0,0626_scg_s07_0_oven_00_oven4-clock2.png
subject-07,1,627,0.655840158462524,truck,truck,0,0627_scg_s07_0_truck_00_truck8-cat2.png
subject-07,1,628,0.636909008026123,bottle,airplane,0,0628_scg_s07_0_airplane_00_airplane8-truck3.png
subject-07,1,629,0.641319990158081,bottle,bottle,0,0629_scg_s07_0_bottle_00_bottle6-oven3.png
subject-07,1,630,0.847836017608643,knife,knife,0,0630_scg_s07_0_knife_00_knife4-boat1.png
subject-07,1,631,1.08176398277283,dog,dog,0,0631_scg_s07_0_dog_00_dog3-knife3.png
subject-07,1,632,1.00923109054565,bicycle,dog,0,0632_scg_s07_0_dog_00_dog7-oven2.png
subject-07,1,633,0.851267099380493,bird,bird,0,0633_scg_s07_0_bird_00_bird4-airplane1.png
subject-07,1,634,0.877032995223999,truck,truck,0,0634_scg_s07_0_truck_00_truck7-bear2.png
subject-07,1,635,0.920608997344971,bottle,bottle,0,0635_scg_s07_0_bottle_00_bottle5-elephant1.png
subject-07,1,636,0.649043798446655,bicycle,bicycle,0,0636_scg_s07_0_bicycle_00_bicycle7-bicycle2.png
subject-07,1,637,0.709532022476196,airplane,airplane,0,0637_scg_s07_0_airplane_00_airplane7-car1.png
subject-07,1,638,0.743211984634399,bicycle,bicycle,0,0638_scg_s07_0_bicycle_00_bicycle6-airplane2.png
subject-07,1,639,0.641908168792725,cat,cat,0,0639_scg_s07_0_cat_00_cat9-boat2.png
subject-07,1,640,0.708015918731689,bottle,bottle,0,0640_scg_s07_0_bottle_00_bottle5-keyboard2.png
subject-07,1,641,0.850149869918823,dog,dog,0,0641_scg_s07_0_dog_00_dog4-bird1.png
subject-07,1,642,0.908205986022949,boat,airplane,0,0642_scg_s07_0_airplane_00_airplane8-elephant3.png
subject-07,1,643,1.15791010856628,bird,bird,0,0643_scg_s07_0_bird_00_bird2-bird2.png
subject-07,1,644,0.826236009597778,bottle,knife,0,0644_scg_s07_0_knife_00_knife5-knife3.png
subject-07,1,645,0.784410953521729,car,car,0,0645_scg_s07_0_car_00_car8-cat1.png
subject-07,1,646,0.603472948074341,oven,oven,0,0646_scg_s07_0_oven_00_oven3-airplane1.png
subject-07,1,647,0.77724289894104,cat,cat,0,0647_scg_s07_0_cat_00_cat4-knife1.png
subject-07,1,648,0.772994041442871,knife,knife,0,0648_scg_s07_0_knife_00_knife1-bird2.png
subject-07,1,649,0.907037019729614,keyboard,boat,0,0649_scg_s07_0_boat_00_boat6-elephant2.png
subject-07,1,650,0.858917951583862,chair,chair,0,0650_scg_s07_0_chair_00_chair9-bicycle3.png
subject-07,1,651,0.657263040542603,bicycle,bicycle,0,0651_scg_s07_0_bicycle_00_bicycle8-chair2.png
subject-07,1,652,0.79125714302063,oven,oven,0,0652_scg_s07_0_oven_00_oven2-bicycle1.png
subject-07,1,653,0.935853004455566,cat,cat,0,0653_scg_s07_0_cat_00_cat4-dog3.png
subject-07,1,654,0.725672006607056,bird,bird,0,0654_scg_s07_0_bird_00_bird7-bottle1.png
subject-07,1,655,0.88152813911438,car,car,0,0655_scg_s07_0_car_00_car5-keyboard3.png
subject-07,1,656,0.779054164886475,clock,clock,0,0656_scg_s07_0_clock_00_clock9-cat1.png
subject-07,1,657,1.50015902519226,car,boat,0,0657_scg_s07_0_boat_00_boat8-bottle1.png
subject-07,1,658,0.849238872528076,car,car,0,0658_scg_s07_0_car_00_car9-keyboard2.png
subject-07,1,659,0.670015096664429,cat,cat,0,0659_scg_s07_0_cat_00_cat9-bird3.png
subject-07,1,660,0.589624881744385,clock,clock,0,0660_scg_s07_0_clock_00_clock4-boat3.png
subject-07,1,661,0.716841220855713,clock,clock,0,0661_scg_s07_0_clock_00_clock10-bottle1.png
subject-07,1,662,0.743354082107544,bird,bird,0,0662_scg_s07_0_bird_00_bird9-bottle3.png
subject-07,1,663,0.870957851409912,chair,chair,0,0663_scg_s07_0_chair_00_chair7-clock3.png
subject-07,1,664,0.882315874099731,bottle,bottle,0,0664_scg_s07_0_bottle_00_bottle10-truck3.png
subject-07,1,665,0.886628150939941,oven,bear,0,0665_scg_s07_0_bear_00_bear10-oven1.png
subject-07,1,666,1.09264397621155,elephant,bear,0,0666_scg_s07_0_bear_00_bear9-boat2.png
subject-07,1,667,0.826871156692505,knife,knife,0,0667_scg_s07_0_knife_00_knife1-airplane1.png
subject-07,1,668,0.686230897903442,car,car,0,0668_scg_s07_0_car_00_car8-truck3.png
subject-07,1,669,0.652405023574829,chair,chair,0,0669_scg_s07_0_chair_00_chair1-cat3.png
subject-07,1,670,0.594779014587402,clock,clock,0,0670_scg_s07_0_clock_00_clock5-chair3.png
subject-07,1,671,1.273432970047,oven,boat,0,0671_scg_s07_0_boat_00_boat6-bicycle2.png
subject-07,1,672,0.833297967910767,airplane,airplane,0,0672_scg_s07_0_airplane_00_airplane7-boat2.png
subject-07,1,673,1.05909395217896,bicycle,bicycle,0,0673_scg_s07_0_bicycle_00_bicycle5-cat1.png
subject-07,1,674,0.657088041305542,oven,oven,0,0674_scg_s07_0_oven_00_oven3-elephant3.png
subject-07,1,675,0.668834924697876,chair,chair,0,0675_scg_s07_0_chair_00_chair3-airplane2.png
subject-07,1,676,0.581719160079956,boat,boat,0,0676_scg_s07_0_boat_00_boat4-bird1.png
subject-07,1,677,0.59348201751709,car,car,0,0677_scg_s07_0_car_00_car4-boat1.png
subject-07,1,678,0.560971975326538,oven,oven,0,0678_scg_s07_0_oven_00_oven9-clock2.png
subject-07,1,679,0.894712924957275,cat,cat,0,0679_scg_s07_0_cat_00_cat3-bicycle1.png
subject-07,1,680,0.974623918533325,chair,boat,0,0680_scg_s07_0_boat_00_boat6-truck3.png
subject-07,1,681,0.810475826263428,boat,dog,0,0681_scg_s07_0_dog_00_dog3-elephant2.png
subject-07,1,682,0.951421022415161,knife,knife,0,0682_scg_s07_0_knife_00_knife6-dog2.png
subject-07,1,683,0.679129123687744,car,car,0,0683_scg_s07_0_car_00_car8-chair1.png
subject-07,1,684,0.531496047973633,clock,clock,0,0684_scg_s07_0_clock_00_clock7-dog2.png
subject-07,1,685,0.697176933288574,chair,chair,0,0685_scg_s07_0_chair_00_chair5-bottle3.png
subject-07,1,686,0.780036211013794,bottle,bottle,0,0686_scg_s07_0_bottle_00_bottle1-keyboard3.png
subject-07,1,687,0.830073118209839,truck,truck,0,0687_scg_s07_0_truck_00_truck7-bird2.png
subject-07,1,688,0.63358211517334,chair,chair,0,0688_scg_s07_0_chair_00_chair7-truck3.png
subject-07,1,689,0.710600137710571,cat,cat,0,0689_scg_s07_0_cat_00_cat3-cat1.png
subject-07,1,690,0.968929052352905,elephant,elephant,0,0690_scg_s07_0_elephant_00_elephant7-bottle3.png
subject-07,1,691,0.804769992828369,dog,dog,0,0691_scg_s07_0_dog_00_dog4-airplane3.png
subject-07,1,692,0.746351957321167,oven,oven,0,0692_scg_s07_0_oven_00_oven7-clock2.png
subject-07,1,693,0.758339166641235,boat,elephant,0,0693_scg_s07_0_elephant_00_elephant6-bird1.png
subject-07,1,694,0.648124933242798,chair,keyboard,0,0694_scg_s07_0_keyboard_00_keyboard7-oven2.png
subject-07,1,695,0.659777164459229,clock,clock,0,0695_scg_s07_0_clock_00_clock5-elephant2.png
subject-07,1,696,0.647810935974121,oven,oven,0,0696_scg_s07_0_oven_00_oven6-bicycle1.png
subject-07,1,697,0.697642087936401,cat,cat,0,0697_scg_s07_0_cat_00_cat4-oven1.png
subject-07,1,698,0.909085988998413,cat,cat,0,0698_scg_s07_0_cat_00_cat9-knife2.png
subject-07,1,699,0.591295003890991,oven,truck,0,0699_scg_s07_0_truck_00_truck4-oven2.png
subject-07,1,700,0.741432905197144,bicycle,bicycle,0,0700_scg_s07_0_bicycle_00_bicycle2-knife2.png
subject-07,1,701,1.00690793991089,bear,bear,0,0701_scg_s07_0_bear_00_bear10-elephant1.png
subject-07,1,702,0.810536861419678,bicycle,bicycle,0,0702_scg_s07_0_bicycle_00_bicycle4-bicycle3.png
subject-07,1,703,0.746961116790771,cat,elephant,0,0703_scg_s07_0_elephant_00_elephant2-keyboard3.png
subject-07,1,704,0.728577136993408,boat,knife,0,0704_scg_s07_0_knife_00_knife4-oven2.png
subject-07,1,705,0.657516956329346,bottle,bottle,0,0705_scg_s07_0_bottle_00_bottle1-bear1.png
subject-07,1,706,0.69831395149231,oven,oven,0,0706_scg_s07_0_oven_00_oven1-bird3.png
subject-07,1,707,1.00019407272339,elephant,elephant,0,0707_scg_s07_0_elephant_00_elephant7-bird1.png
subject-07,1,708,0.797950029373169,oven,oven,0,0708_scg_s07_0_oven_00_oven2-dog3.png
subject-07,1,709,0.626243114471436,oven,oven,0,0709_scg_s07_0_oven_00_oven9-oven1.png
subject-07,1,710,0.95959210395813,elephant,bear,0,0710_scg_s07_0_bear_00_bear7-oven3.png
subject-07,1,711,0.779726028442383,chair,chair,0,0711_scg_s07_0_chair_00_chair7-bird1.png
subject-07,1,712,1.21620488166809,boat,boat,0,0712_scg_s07_0_boat_00_boat5-airplane1.png
subject-07,1,713,0.766026020050049,chair,chair,0,0713_scg_s07_0_chair_00_chair8-oven1.png
subject-07,1,714,1.24006485939026,clock,clock,0,0714_scg_s07_0_clock_00_clock6-truck3.png
subject-07,1,715,0.819150924682617,elephant,elephant,0,0715_scg_s07_0_elephant_00_elephant9-elephant3.png
subject-07,1,716,1.02284097671509,car,bear,0,0716_scg_s07_0_bear_00_bear2-keyboard2.png
subject-07,1,717,0.834747076034546,oven,cat,0,0717_scg_s07_0_cat_00_cat5-keyboard3.png
subject-07,1,718,0.608608961105347,clock,clock,0,0718_scg_s07_0_clock_00_clock10-oven2.png
subject-07,1,719,0.660138130187988,chair,keyboard,0,0719_scg_s07_0_keyboard_00_keyboard4-oven2.png
subject-07,1,720,0.885573863983154,airplane,airplane,0,0720_scg_s07_0_airplane_00_airplane4-dog2.png
subject-07,1,721,0.872679948806763,boat,boat,0,0721_scg_s07_0_boat_00_boat8-bird2.png
subject-07,1,722,0.700196027755737,bird,bird,0,0722_scg_s07_0_bird_00_bird5-airplane3.png
subject-07,1,723,0.879957914352417,dog,dog,0,0723_scg_s07_0_dog_00_dog4-bottle2.png
subject-07,1,724,0.75423789024353,bear,bear,0,0724_scg_s07_0_bear_00_bear4-boat2.png
subject-07,1,725,0.606297016143799,oven,oven,0,0725_scg_s07_0_oven_00_oven5-airplane1.png
subject-07,1,726,0.710107088088989,elephant,elephant,0,0726_scg_s07_0_elephant_00_elephant7-cat1.png
subject-07,1,727,0.521718978881836,clock,clock,0,0727_scg_s07_0_clock_00_clock2-knife1.png
subject-07,1,728,0.711032867431641,bear,bear,0,0728_scg_s07_0_bear_00_bear2-bird3.png
subject-07,1,729,0.729321002960205,bottle,bottle,0,0729_scg_s07_0_bottle_00_bottle10-clock2.png
subject-07,1,730,0.756979942321777,dog,dog,0,0730_scg_s07_0_dog_00_dog10-clock1.png
subject-07,1,731,0.669181823730469,bottle,keyboard,0,0731_scg_s07_0_keyboard_00_keyboard2-bottle1.png
subject-07,1,732,1.04813003540039,bottle,bottle,0,0732_scg_s07_0_bottle_00_bottle1-car1.png
subject-07,1,733,1.36798286437988,bird,bird,0,0733_scg_s07_0_bird_00_bird6-elephant2.png
subject-07,1,734,1.47851300239563,boat,boat,0,0734_scg_s07_0_boat_00_boat9-cat3.png
subject-07,1,735,0.630048036575317,bottle,bottle,0,0735_scg_s07_0_bottle_00_bottle2-car2.png
subject-07,1,736,0.933470964431763,bird,airplane,0,0736_scg_s07_0_airplane_00_airplane1-clock1.png
subject-07,1,737,0.9775230884552,bear,bear,0,0737_scg_s07_0_bear_00_bear3-bicycle2.png
subject-07,1,738,0.783324003219604,bicycle,bicycle,0,0738_scg_s07_0_bicycle_00_bicycle9-car1.png
subject-07,1,739,0.8764328956604,bicycle,bicycle,0,0739_scg_s07_0_bicycle_00_bicycle9-knife3.png
subject-07,1,740,0.683002948760986,oven,keyboard,0,0740_scg_s07_0_keyboard_00_keyboard3-elephant2.png
subject-07,1,741,1.0548620223999,dog,airplane,0,0741_scg_s07_0_airplane_00_airplane5-dog3.png
subject-07,1,742,0.990435838699341,keyboard,keyboard,0,0742_scg_s07_0_keyboard_00_keyboard1-bear2.png
subject-07,1,743,0.593945980072021,clock,clock,0,0743_scg_s07_0_clock_00_clock10-bird3.png
subject-07,1,744,0.604995012283325,oven,oven,0,0744_scg_s07_0_oven_00_oven2-boat3.png
subject-07,1,745,0.877445936203003,car,cat,0,0745_scg_s07_0_cat_00_cat10-bottle1.png
subject-07,1,746,0.91355299949646,bear,bear,0,0746_scg_s07_0_bear_00_bear3-chair2.png
subject-07,1,747,0.711714029312134,keyboard,keyboard,0,0747_scg_s07_0_keyboard_00_keyboard3-bicycle2.png
subject-07,1,748,1.12948298454285,elephant,elephant,0,0748_scg_s07_0_elephant_00_elephant7-bear3.png
subject-07,1,749,1.22495889663696,cat,cat,0,0749_scg_s07_0_cat_00_cat9-clock2.png
subject-07,1,750,0.661440134048462,bottle,bottle,0,0750_scg_s07_0_bottle_00_bottle9-cat2.png
subject-07,1,751,1.04882001876831,bird,bird,0,0751_scg_s07_0_bird_00_bird6-boat2.png
subject-07,1,752,1.31480002403259,bird,bird,0,0752_scg_s07_0_bird_00_bird4-cat3.png
subject-07,1,753,0.842916965484619,knife,knife,0,0753_scg_s07_0_knife_00_knife4-clock3.png
subject-07,1,754,1.2472288608551,bird,knife,0,0754_scg_s07_0_knife_00_knife7-bottle3.png
subject-07,1,755,0.958554029464722,knife,airplane,0,0755_scg_s07_0_airplane_00_airplane9-knife3.png
subject-07,1,756,1.17050909996033,chair,boat,0,0756_scg_s07_0_boat_00_boat7-chair1.png
subject-07,1,757,0.838402032852173,keyboard,keyboard,0,0757_scg_s07_0_keyboard_00_keyboard5-knife2.png
subject-07,1,758,0.996031045913696,bottle,elephant,0,0758_scg_s07_0_elephant_00_elephant8-knife2.png
subject-07,1,759,0.988958120346069,oven,chair,0,0759_scg_s07_0_chair_00_chair6-truck2.png
subject-07,1,760,0.902873039245605,dog,dog,0,0760_scg_s07_0_dog_00_dog1-bird1.png
subject-07,1,761,0.852658033370972,bear,bear,0,0761_scg_s07_0_bear_00_bear5-chair1.png
subject-07,1,762,0.711314916610718,bicycle,bicycle,0,0762_scg_s07_0_bicycle_00_bicycle9-airplane2.png
subject-07,1,763,1.42780303955078,car,knife,0,0763_scg_s07_0_knife_00_knife1-dog1.png
subject-07,1,764,0.718553066253662,elephant,elephant,0,0764_scg_s07_0_elephant_00_elephant4-car3.png
subject-07,1,765,0.645857095718384,cat,cat,0,0765_scg_s07_0_cat_00_cat9-dog2.png
subject-07,1,766,0.850471973419189,bird,bird,0,0766_scg_s07_0_bird_00_bird8-knife2.png
subject-07,1,767,0.769997119903564,chair,chair,0,0767_scg_s07_0_chair_00_chair3-car3.png
subject-07,1,768,0.711457967758179,bird,bird,0,0768_scg_s07_0_bird_00_bird2-knife1.png
subject-07,1,769,1.257483959198,cat,cat,0,0769_scg_s07_0_cat_00_cat6-bear1.png
subject-07,1,770,0.877049922943115,truck,truck,0,0770_scg_s07_0_truck_00_truck6-clock2.png
subject-07,1,771,0.689468860626221,oven,oven,0,0771_scg_s07_0_oven_00_oven7-elephant1.png
subject-07,1,772,0.946660041809082,dog,dog,0,0772_scg_s07_0_dog_00_dog8-bear3.png
subject-07,1,773,0.766398906707764,boat,bear,0,0773_scg_s07_0_bear_00_bear6-boat3.png
subject-07,1,774,0.778662919998169,bear,bear,0,0774_scg_s07_0_bear_00_bear4-elephant2.png
subject-07,1,775,0.743790864944458,dog,dog,0,0775_scg_s07_0_dog_00_dog3-bear3.png
subject-07,1,776,0.771843910217285,truck,truck,0,0776_scg_s07_0_truck_00_truck8-dog3.png
subject-07,1,777,0.637576818466187,chair,chair,0,0777_scg_s07_0_chair_00_chair10-cat1.png
subject-07,1,778,1.16295695304871,oven,oven,0,0778_scg_s07_0_oven_00_oven10-boat2.png
subject-07,1,779,0.614598989486694,clock,clock,0,0779_scg_s07_0_clock_00_clock1-clock2.png
subject-07,1,780,1.24017786979675,car,car,0,0780_scg_s07_0_car_00_car1-clock2.png
subject-07,1,781,1.06817102432251,cat,dog,0,0781_scg_s07_0_dog_00_dog3-boat1.png
subject-07,1,782,0.733688831329346,airplane,airplane,0,0782_scg_s07_0_airplane_00_airplane5-bear2.png
subject-07,1,783,0.816066980361938,car,car,0,0783_scg_s07_0_car_00_car7-dog3.png
subject-07,1,784,0.628016948699951,cat,cat,0,0784_scg_s07_0_cat_00_cat10-bird2.png
subject-07,1,785,0.747873067855835,bicycle,bicycle,0,0785_scg_s07_0_bicycle_00_bicycle3-oven3.png
subject-07,1,786,1.31116008758545,boat,boat,0,0786_scg_s07_0_boat_00_boat3-car3.png
subject-07,1,787,0.73128604888916,bottle,bottle,0,0787_scg_s07_0_bottle_00_bottle1-cat3.png
subject-07,1,788,0.707592010498047,keyboard,keyboard,0,0788_scg_s07_0_keyboard_00_keyboard7-knife1.png
subject-07,1,789,0.7572340965271,cat,cat,0,0789_scg_s07_0_cat_00_cat3-truck3.png
subject-07,1,790,1.50008893013,dog,dog,0,0790_scg_s07_0_dog_00_dog3-keyboard1.png
subject-07,1,791,0.765081167221069,cat,cat,0,0791_scg_s07_0_cat_00_cat6-clock3.png
subject-07,1,792,0.771156072616577,chair,chair,0,0792_scg_s07_0_chair_00_chair9-bottle3.png
subject-07,1,793,0.942762851715088,oven,keyboard,0,0793_scg_s07_0_keyboard_00_keyboard2-elephant1.png
subject-07,1,794,0.892117023468018,elephant,elephant,0,0794_scg_s07_0_elephant_00_elephant8-dog1.png
subject-07,1,795,0.774492979049683,car,car,0,0795_scg_s07_0_car_00_car1-chair3.png
subject-07,1,796,0.648238897323608,boat,keyboard,0,0796_scg_s07_0_keyboard_00_keyboard9-elephant2.png
subject-07,1,797,0.60607385635376,cat,cat,0,0797_scg_s07_0_cat_00_cat4-cat3.png
subject-07,1,798,0.664477109909058,car,car,0,0798_scg_s07_0_car_00_car6-bear1.png
subject-07,1,799,1.47612500190735,airplane,knife,0,0799_scg_s07_0_knife_00_knife2-bicycle3.png
subject-07,1,800,0.982195854187012,bird,bird,0,0800_scg_s07_0_bird_00_bird7-keyboard3.png
subject-07,1,801,0.86243200302124,cat,cat,0,0801_scg_s07_0_cat_00_cat10-keyboard1.png
subject-07,1,802,1.32018804550171,bear,dog,0,0802_scg_s07_0_dog_00_dog4-keyboard2.png
subject-07,1,803,0.994117975234985,boat,airplane,0,0803_scg_s07_0_airplane_00_airplane4-bicycle2.png
subject-07,1,804,0.967709064483643,oven,bottle,0,0804_scg_s07_0_bottle_00_bottle3-chair3.png
subject-07,1,805,1.17728614807129,bird,airplane,0,0805_scg_s07_0_airplane_00_airplane8-bird1.png
subject-07,1,806,0.913427114486694,truck,truck,0,0806_scg_s07_0_truck_00_truck9-truck3.png
subject-07,1,807,0.857214212417603,dog,dog,0,0807_scg_s07_0_dog_00_dog7-keyboard3.png
subject-07,1,808,0.831393957138062,truck,truck,0,0808_scg_s07_0_truck_00_truck1-clock3.png
subject-07,1,809,0.968212842941284,oven,keyboard,0,0809_scg_s07_0_keyboard_00_keyboard7-bear2.png
subject-07,1,810,0.463539838790894,cat,cat,0,0810_scg_s07_0_cat_00_cat5-bear2.png
subject-07,1,811,0.637709140777588,bottle,keyboard,0,0811_scg_s07_0_keyboard_00_keyboard4-bottle2.png
subject-07,1,812,0.549381017684937,boat,boat,0,0812_scg_s07_0_boat_00_boat8-knife1.png
subject-07,1,813,0.67751407623291,bear,bear,0,0813_scg_s07_0_bear_00_bear5-airplane3.png
subject-07,1,814,0.74868106842041,elephant,bear,0,0814_scg_s07_0_bear_00_bear6-bottle3.png
subject-07,1,815,0.700345993041992,bicycle,bicycle,0,0815_scg_s07_0_bicycle_00_bicycle10-dog3.png
subject-07,1,816,0.617923974990845,bird,bird,0,0816_scg_s07_0_bird_00_bird8-car2.png
subject-07,1,817,0.845462083816528,bottle,bottle,0,0817_scg_s07_0_bottle_00_bottle2-clock1.png
subject-07,1,818,1.02578997612,cat,keyboard,0,0818_scg_s07_0_keyboard_00_keyboard10-keyboard1.png
subject-07,1,819,0.875433921813965,bird,bottle,0,0819_scg_s07_0_bottle_00_bottle7-bear1.png
subject-07,1,820,0.618632078170776,bicycle,bicycle,0,0820_scg_s07_0_bicycle_00_bicycle1-bottle3.png
subject-07,1,821,0.609576940536499,bird,bird,0,0821_scg_s07_0_bird_00_bird5-keyboard2.png
subject-07,1,822,0.697328090667725,bicycle,bicycle,0,0822_scg_s07_0_bicycle_00_bicycle3-bird1.png
subject-07,1,823,1.50008511543274,knife,knife,0,0823_scg_s07_0_knife_00_knife3-cat1.png
subject-07,1,824,0.904324054718018,elephant,elephant,0,0824_scg_s07_0_elephant_00_elephant8-clock2.png
subject-07,1,825,0.793643951416016,bicycle,bicycle,0,0825_scg_s07_0_bicycle_00_bicycle2-bird3.png
subject-07,1,826,0.836062908172607,bird,bear,0,0826_scg_s07_0_bear_00_bear10-car2.png
subject-07,1,827,0.70477294921875,chair,oven,0,0827_scg_s07_0_oven_00_oven8-chair1.png
subject-07,1,828,0.578794956207275,bicycle,bicycle,0,0828_scg_s07_0_bicycle_00_bicycle7-bear2.png
subject-07,1,829,0.613192081451416,truck,truck,0,0829_scg_s07_0_truck_00_truck10-car3.png
subject-07,1,830,0.719052076339722,car,car,0,0830_scg_s07_0_car_00_car3-bird2.png
subject-07,1,831,0.569775104522705,cat,cat,0,0831_scg_s07_0_cat_00_cat1-cat3.png
subject-07,1,832,0.673354864120483,chair,oven,0,0832_scg_s07_0_oven_00_oven6-elephant2.png
subject-07,1,833,0.625491857528687,bird,bird,0,0833_scg_s07_0_bird_00_bird3-truck3.png
subject-07,1,834,0.675257921218872,chair,knife,0,0834_scg_s07_0_knife_00_knife10-oven3.png
subject-07,1,835,0.832674026489258,bear,bear,0,0835_scg_s07_0_bear_00_bear3-airplane1.png
subject-07,1,836,1.09639096260071,truck,truck,0,0836_scg_s07_0_truck_00_truck4-bear1.png
subject-07,1,837,0.916711807250977,car,car,0,0837_scg_s07_0_car_00_car8-knife2.png
subject-07,1,838,0.744050979614258,bicycle,bicycle,0,0838_scg_s07_0_bicycle_00_bicycle1-chair1.png
subject-07,1,839,0.62656307220459,oven,keyboard,0,0839_scg_s07_0_keyboard_00_keyboard1-dog3.png
subject-07,1,840,0.662930011749268,oven,oven,0,0840_scg_s07_0_oven_00_oven1-dog3.png
subject-07,1,841,0.653549909591675,keyboard,keyboard,0,0841_scg_s07_0_keyboard_00_keyboard9-chair2.png
subject-07,1,842,0.725573062896729,boat,boat,0,0842_scg_s07_0_boat_00_boat9-clock1.png
subject-07,1,843,0.9231858253479,bicycle,bicycle,0,0843_scg_s07_0_bicycle_00_bicycle4-bottle1.png
subject-07,1,844,0.827102899551392,cat,bird,0,0844_scg_s07_0_bird_00_bird3-oven1.png
subject-07,1,845,0.701296806335449,car,car,0,0845_scg_s07_0_car_00_car10-car1.png
subject-07,1,846,0.783339977264404,keyboard,keyboard,0,0846_scg_s07_0_keyboard_00_keyboard4-keyboard2.png
subject-07,1,847,0.870949029922485,truck,truck,0,0847_scg_s07_0_truck_00_truck7-elephant2.png
subject-07,1,848,0.677202939987183,chair,chair,0,0848_scg_s07_0_chair_00_chair8-bear1.png
subject-07,1,849,0.581811904907227,boat,boat,0,0849_scg_s07_0_boat_00_boat2-airplane1.png
subject-07,1,850,1.24836707115173,bear,airplane,0,0850_scg_s07_0_airplane_00_airplane2-bear1.png
subject-07,1,851,1.12013387680054,bear,elephant,0,0851_scg_s07_0_elephant_00_elephant6-dog2.png
subject-07,1,852,0.595801115036011,clock,clock,0,0852_scg_s07_0_clock_00_clock8-airplane2.png
subject-07,1,853,0.67563796043396,chair,dog,0,0853_scg_s07_0_dog_00_dog1-chair1.png
subject-07,1,854,0.750150203704834,bird,bird,0,0854_scg_s07_0_bird_00_bird10-bicycle1.png
subject-07,1,855,0.821816921234131,truck,truck,0,0855_scg_s07_0_truck_00_truck1-car3.png
subject-07,1,856,1.05729293823242,knife,knife,0,0856_scg_s07_0_knife_00_knife8-bottle3.png
subject-07,1,857,0.685305118560791,clock,clock,0,0857_scg_s07_0_clock_00_clock8-keyboard1.png
subject-07,1,858,0.712932109832764,boat,boat,0,0858_scg_s07_0_boat_00_boat7-elephant3.png
subject-07,1,859,1.33952116966248,truck,truck,0,0859_scg_s07_0_truck_00_truck8-keyboard2.png
subject-07,1,860,0.745357036590576,bear,elephant,0,0860_scg_s07_0_elephant_00_elephant2-bear3.png
subject-07,1,861,0.603325128555298,cat,cat,0,0861_scg_s07_0_cat_00_cat2-cat1.png
subject-07,1,862,0.983874082565308,truck,truck,0,0862_scg_s07_0_truck_00_truck6-boat2.png
subject-07,1,863,0.697980880737305,bicycle,bicycle,0,0863_scg_s07_0_bicycle_00_bicycle2-bottle1.png
subject-07,1,864,0.901984930038452,truck,truck,0,0864_scg_s07_0_truck_00_truck3-clock3.png
subject-07,1,865,0.589761972427368,bird,bird,0,0865_scg_s07_0_bird_00_bird5-car2.png
subject-07,1,866,0.817008018493652,elephant,elephant,0,0866_scg_s07_0_elephant_00_elephant8-bird2.png
subject-07,1,867,0.666590929031372,cat,cat,0,0867_scg_s07_0_cat_00_cat2-elephant1.png
subject-07,1,868,0.62454080581665,boat,boat,0,0868_scg_s07_0_boat_00_boat4-car3.png
subject-07,1,869,0.758085966110229,car,car,0,0869_scg_s07_0_car_00_car8-bicycle2.png
subject-07,1,870,0.531061172485352,clock,clock,0,0870_scg_s07_0_clock_00_clock2-clock3.png
subject-07,1,871,0.903577089309692,chair,boat,0,0871_scg_s07_0_boat_00_boat1-truck3.png
subject-07,1,872,0.63906192779541,clock,clock,0,0872_scg_s07_0_clock_00_clock3-keyboard3.png
subject-07,1,873,0.880786895751953,dog,dog,0,0873_scg_s07_0_dog_00_dog10-bicycle1.png
subject-07,1,874,0.914511919021606,chair,knife,0,0874_scg_s07_0_knife_00_knife7-chair2.png
subject-07,1,875,0.767128944396973,car,knife,0,0875_scg_s07_0_knife_00_knife7-car2.png
subject-07,1,876,0.717150926589966,dog,dog,0,0876_scg_s07_0_dog_00_dog10-car3.png
subject-07,1,877,0.738065004348755,bird,airplane,0,0877_scg_s07_0_airplane_00_airplane3-dog1.png
subject-07,1,878,1.11747121810913,car,car,0,0878_scg_s07_0_car_00_car2-car3.png
subject-07,1,879,0.829092025756836,cat,dog,0,0879_scg_s07_0_dog_00_dog7-car2.png
subject-07,1,880,1.2247200012207,airplane,airplane,0,0880_scg_s07_0_airplane_00_airplane6-knife1.png
subject-07,1,881,0.827758073806763,dog,dog,0,0881_scg_s07_0_dog_00_dog5-bear3.png
subject-07,1,882,1.19393301010132,knife,elephant,0,0882_scg_s07_0_elephant_00_elephant6-truck3.png
subject-07,1,883,1.14381814002991,dog,dog,0,0883_scg_s07_0_dog_00_dog2-cat1.png
subject-07,1,884,0.894200086593628,cat,cat,0,0884_scg_s07_0_cat_00_cat7-knife2.png
subject-07,1,885,0.830779075622559,cat,cat,0,0885_scg_s07_0_cat_00_cat9-truck1.png
subject-07,1,886,0.582207918167114,cat,cat,0,0886_scg_s07_0_cat_00_cat9-bottle2.png
subject-07,1,887,0.602461099624634,bicycle,bicycle,0,0887_scg_s07_0_bicycle_00_bicycle5-bottle3.png
subject-07,1,888,0.975171089172363,clock,clock,0,0888_scg_s07_0_clock_00_clock7-truck3.png
subject-07,1,889,0.941425085067749,bear,bear,0,0889_scg_s07_0_bear_00_bear1-bear3.png
subject-07,1,890,0.761684894561768,bicycle,bicycle,0,0890_scg_s07_0_bicycle_00_bicycle1-bear1.png
subject-07,1,891,0.719155788421631,chair,chair,0,0891_scg_s07_0_chair_00_chair10-airplane2.png
subject-07,1,892,1.01388311386108,airplane,airplane,0,0892_scg_s07_0_airplane_00_airplane3-oven1.png
subject-07,1,893,0.842322826385498,chair,chair,0,0893_scg_s07_0_chair_00_chair9-dog2.png
subject-07,1,894,0.594125986099243,chair,chair,0,0894_scg_s07_0_chair_00_chair10-oven1.png
subject-07,1,895,0.782132863998413,bird,bird,0,0895_scg_s07_0_bird_00_bird1-knife3.png
subject-07,1,896,0.71055006980896,keyboard,keyboard,0,0896_scg_s07_0_keyboard_00_keyboard7-clock3.png
subject-07,1,897,0.868355989456177,truck,oven,0,0897_scg_s07_0_oven_00_oven7-keyboard1.png
subject-07,1,898,0.839802026748657,chair,chair,0,0898_scg_s07_0_chair_00_chair6-dog1.png
subject-07,1,899,0.691360950469971,bicycle,bicycle,0,0899_scg_s07_0_bicycle_00_bicycle1-truck1.png
subject-07,1,900,0.84679388999939,boat,boat,0,0900_scg_s07_0_boat_00_boat6-bear1.png
subject-07,1,901,0.882893085479736,truck,truck,0,0901_scg_s07_0_truck_00_truck6-bicycle1.png
subject-07,1,902,0.979260206222534,dog,dog,0,0902_scg_s07_0_dog_00_dog9-cat1.png
subject-07,1,903,1.19203901290894,boat,airplane,0,0903_scg_s07_0_airplane_00_airplane4-elephant1.png
subject-07,1,904,0.827466011047363,truck,truck,0,0904_scg_s07_0_truck_00_truck3-cat1.png
subject-07,1,905,0.746757030487061,bicycle,bicycle,0,0905_scg_s07_0_bicycle_00_bicycle3-elephant2.png
subject-07,1,906,0.696370840072632,bird,bird,0,0906_scg_s07_0_bird_00_bird1-bear1.png
subject-07,1,907,0.562458038330078,clock,clock,0,0907_scg_s07_0_clock_00_clock3-car2.png
subject-07,1,908,0.641094923019409,chair,chair,0,0908_scg_s07_0_chair_00_chair4-truck2.png
subject-07,1,909,0.707334041595459,chair,elephant,0,0909_scg_s07_0_elephant_00_elephant8-truck3.png
subject-07,1,910,0.878511905670166,dog,dog,0,0910_scg_s07_0_dog_00_dog10-oven2.png
subject-07,1,911,0.598459005355835,chair,chair,0,0911_scg_s07_0_chair_00_chair5-truck3.png
subject-07,1,912,0.67254114151001,car,car,0,0912_scg_s07_0_car_00_car2-cat3.png
subject-07,1,913,0.883977174758911,airplane,airplane,0,0913_scg_s07_0_airplane_00_airplane9-keyboard2.png
subject-07,1,914,0.628592967987061,truck,truck,0,0914_scg_s07_0_truck_00_truck6-bear2.png
subject-07,1,915,0.724323987960815,bottle,bottle,0,0915_scg_s07_0_bottle_00_bottle10-dog1.png
subject-07,1,916,0.665411949157715,bicycle,bicycle,0,0916_scg_s07_0_bicycle_00_bicycle9-keyboard3.png
subject-07,1,917,0.785936117172241,airplane,airplane,0,0917_scg_s07_0_airplane_00_airplane9-car2.png
subject-07,1,918,0.606218099594116,car,car,0,0918_scg_s07_0_car_00_car10-bottle3.png
subject-07,1,919,1.38304591178894,boat,boat,0,0919_scg_s07_0_boat_00_boat5-bicycle3.png
subject-07,1,920,0.758813858032227,oven,dog,0,0920_scg_s07_0_dog_00_dog5-knife2.png
subject-07,1,921,0.641305923461914,clock,clock,0,0921_scg_s07_0_clock_00_clock8-truck2.png
subject-07,1,922,0.958163976669312,elephant,elephant,0,0922_scg_s07_0_elephant_00_elephant7-knife2.png
subject-07,1,923,0.756292819976807,keyboard,keyboard,0,0923_scg_s07_0_keyboard_00_keyboard5-bird3.png
subject-07,1,924,0.797824144363403,boat,boat,0,0924_scg_s07_0_boat_00_boat1-bicycle2.png
subject-07,1,925,0.623748064041138,bottle,bottle,0,0925_scg_s07_0_bottle_00_bottle4-bicycle1.png
subject-07,1,926,0.675843954086304,keyboard,keyboard,0,0926_scg_s07_0_keyboard_00_keyboard7-bottle1.png
subject-07,1,927,0.655486822128296,bicycle,bicycle,0,0927_scg_s07_0_bicycle_00_bicycle7-cat1.png
subject-07,1,928,0.821082830429077,elephant,elephant,0,0928_scg_s07_0_elephant_00_elephant8-boat2.png
subject-07,1,929,0.750131130218506,car,car,0,0929_scg_s07_0_car_00_car4-bird1.png
subject-07,1,930,0.661643981933594,cat,cat,0,0930_scg_s07_0_cat_00_cat2-knife3.png
subject-07,1,931,0.613137006759644,bird,bird,0,0931_scg_s07_0_bird_00_bird8-clock1.png
subject-07,1,932,0.639827966690063,bottle,bottle,0,0932_scg_s07_0_bottle_00_bottle6-bird1.png
subject-07,1,933,0.805310010910034,airplane,airplane,0,0933_scg_s07_0_airplane_00_airplane2-bottle1.png
subject-07,1,934,0.67877197265625,bear,bear,0,0934_scg_s07_0_bear_00_bear1-bird2.png
subject-07,1,935,0.583418846130371,oven,knife,0,0935_scg_s07_0_knife_00_knife7-airplane3.png
subject-07,1,936,1.16486001014709,dog,dog,0,0936_scg_s07_0_dog_00_dog10-bottle1.png
subject-07,1,937,0.847264051437378,bird,bird,0,0937_scg_s07_0_bird_00_bird5-cat2.png
subject-07,1,938,1.11867499351501,keyboard,truck,0,0938_scg_s07_0_truck_00_truck7-keyboard3.png
subject-07,1,939,0.725065946578979,bottle,airplane,0,0939_scg_s07_0_airplane_00_airplane4-truck2.png
subject-07,1,940,1.0345630645752,bear,bear,0,0940_scg_s07_0_bear_00_bear2-knife2.png
subject-07,1,941,0.732984066009521,bicycle,bicycle,0,0941_scg_s07_0_bicycle_00_bicycle7-elephant2.png
subject-07,1,942,1.16635608673096,bear,car,0,0942_scg_s07_0_car_00_car4-bear3.png
subject-07,1,943,1.27023196220398,boat,bird,0,0943_scg_s07_0_bird_00_bird1-chair2.png
subject-07,1,944,0.667670011520386,boat,boat,0,0944_scg_s07_0_boat_00_boat9-chair2.png
subject-07,1,945,0.83356499671936,chair,bird,0,0945_scg_s07_0_bird_00_bird1-truck1.png
subject-07,1,946,0.683211088180542,oven,oven,0,0946_scg_s07_0_oven_00_oven2-truck3.png
subject-07,1,947,1.07126092910767,elephant,elephant,0,0947_scg_s07_0_elephant_00_elephant7-airplane3.png
subject-07,1,948,0.665808916091919,airplane,airplane,0,0948_scg_s07_0_airplane_00_airplane4-bird3.png
subject-07,1,949,0.607346057891846,bottle,bottle,0,0949_scg_s07_0_bottle_00_bottle7-boat3.png
subject-07,1,950,0.726605176925659,boat,truck,0,0950_scg_s07_0_truck_00_truck5-knife3.png
subject-07,1,951,0.792158842086792,chair,chair,0,0951_scg_s07_0_chair_00_chair7-chair1.png
subject-07,1,952,0.596500158309937,clock,clock,0,0952_scg_s07_0_clock_00_clock3-bicycle2.png
subject-07,1,953,0.679023027420044,bicycle,bicycle,0,0953_scg_s07_0_bicycle_00_bicycle5-car3.png
subject-07,1,954,0.591080188751221,oven,oven,0,0954_scg_s07_0_oven_00_oven3-clock3.png
subject-07,1,955,0.740782022476196,truck,truck,0,0955_scg_s07_0_truck_00_truck5-airplane2.png
subject-07,1,956,0.731289863586426,oven,oven,0,0956_scg_s07_0_oven_00_oven10-airplane2.png
subject-07,1,957,0.73218297958374,car,car,0,0957_scg_s07_0_car_00_car6-knife1.png
subject-07,1,958,0.87639594078064,car,car,0,0958_scg_s07_0_car_00_car9-bird1.png
subject-07,1,959,1.08577704429626,bear,bear,0,0959_scg_s07_0_bear_00_bear10-cat2.png
subject-07,1,960,0.737932205200195,bird,cat,0,0960_scg_s07_0_cat_00_cat4-car2.png
subject-07,1,961,0.595893859863281,clock,clock,0,0961_scg_s07_0_clock_00_clock4-elephant2.png
subject-07,1,962,0.770546197891235,car,keyboard,0,0962_scg_s07_0_keyboard_00_keyboard10-car1.png
subject-07,1,963,1.50026202201843,chair,chair,0,0963_scg_s07_0_chair_00_chair8-clock3.png
subject-07,1,964,0.73966383934021,chair,oven,0,0964_scg_s07_0_oven_00_oven4-elephant3.png
subject-07,1,965,0.773686170578003,car,car,0,0965_scg_s07_0_car_00_car9-bicycle2.png
subject-07,1,966,1.05317878723145,car,car,0,0966_scg_s07_0_car_00_car5-bear3.png
subject-07,1,967,0.789041996002197,airplane,airplane,0,0967_scg_s07_0_airplane_00_airplane10-airplane1.png
subject-07,1,968,1.19042110443115,car,bird,0,0968_scg_s07_0_bird_00_bird3-boat3.png
subject-07,1,969,0.642352104187012,oven,truck,0,0969_scg_s07_0_truck_00_truck1-bird1.png
subject-07,1,970,0.653494834899902,bottle,bottle,0,0970_scg_s07_0_bottle_00_bottle2-bottle3.png
subject-07,1,971,0.928055047988892,chair,keyboard,0,0971_scg_s07_0_keyboard_00_keyboard9-bird1.png
subject-07,1,972,0.556625127792358,boat,dog,0,0972_scg_s07_0_dog_00_dog4-truck2.png
subject-07,1,973,0.944388151168823,knife,knife,0,0973_scg_s07_0_knife_00_knife4-keyboard1.png
subject-07,1,974,0.810164928436279,dog,dog,0,0974_scg_s07_0_dog_00_dog1-bear1.png
subject-07,1,975,1.50016117095947,elephant,elephant,0,0975_scg_s07_0_elephant_00_elephant3-oven1.png
subject-07,1,976,0.740831136703491,bicycle,bicycle,0,0976_scg_s07_0_bicycle_00_bicycle4-car2.png
subject-07,1,977,0.761198043823242,bird,bird,0,0977_scg_s07_0_bird_00_bird1-oven1.png
subject-07,1,978,0.817219018936157,oven,oven,0,0978_scg_s07_0_oven_00_oven6-bear2.png
subject-07,1,979,1.09853315353394,bottle,dog,0,0979_scg_s07_0_dog_00_dog2-bottle2.png
subject-07,1,980,0.626338958740234,boat,boat,0,0980_scg_s07_0_boat_00_boat6-car1.png
subject-07,1,981,0.651921033859253,bear,bear,0,0981_scg_s07_0_bear_00_bear8-bicycle3.png
subject-07,1,982,0.608983993530273,bicycle,bicycle,0,0982_scg_s07_0_bicycle_00_bicycle9-bird3.png
subject-07,1,983,0.853296995162964,bicycle,bicycle,0,0983_scg_s07_0_bicycle_00_bicycle6-car2.png
subject-07,1,984,1.50029492378235,oven,knife,0,0984_scg_s07_0_knife_00_knife10-keyboard3.png
subject-07,1,985,0.885531902313232,bicycle,bicycle,0,0985_scg_s07_0_bicycle_00_bicycle10-elephant2.png
subject-07,1,986,0.697895050048828,boat,bottle,0,0986_scg_s07_0_bottle_00_bottle7-cat2.png
subject-07,1,987,1.07811188697815,car,car,0,0987_scg_s07_0_car_00_car8-clock2.png
subject-07,1,988,0.629494905471802,cat,cat,0,0988_scg_s07_0_cat_00_cat1-oven1.png
subject-07,1,989,0.741745948791504,truck,truck,0,0989_scg_s07_0_truck_00_truck7-chair2.png
subject-07,1,990,0.699764966964722,elephant,elephant,0,0990_scg_s07_0_elephant_00_elephant7-clock2.png
subject-07,1,991,0.603113174438477,bottle,bottle,0,0991_scg_s07_0_bottle_00_bottle8-bottle3.png
subject-07,1,992,0.8143470287323,airplane,airplane,0,0992_scg_s07_0_airplane_00_airplane4-airplane1.png
subject-07,1,993,0.69637393951416,bottle,bottle,0,0993_scg_s07_0_bottle_00_bottle3-boat3.png
subject-07,1,994,0.75166392326355,bear,bear,0,0994_scg_s07_0_bear_00_bear4-clock3.png
subject-07,1,995,0.804558038711548,boat,boat,0,0995_scg_s07_0_boat_00_boat5-clock3.png
subject-07,1,996,0.707441091537476,airplane,airplane,0,0996_scg_s07_0_airplane_00_airplane9-boat1.png
subject-07,1,997,0.988224983215332,knife,boat,0,0997_scg_s07_0_boat_00_boat8-elephant1.png
subject-07,1,998,0.915492057800293,bear,bear,0,0998_scg_s07_0_bear_00_bear1-chair2.png
subject-07,1,999,1.01929903030396,truck,truck,0,0999_scg_s07_0_truck_00_truck1-bear1.png
subject-07,1,1000,0.593652963638306,chair,chair,0,1000_scg_s07_0_chair_00_chair1-elephant1.png
subject-07,1,1001,0.975656032562256,bicycle,bicycle,0,1001_scg_s07_0_bicycle_00_bicycle2-dog1.png
subject-07,1,1002,1.16577005386353,bicycle,bicycle,0,1002_scg_s07_0_bicycle_00_bicycle8-bear2.png
subject-07,1,1003,0.652717113494873,cat,cat,0,1003_scg_s07_0_cat_00_cat7-dog3.png
subject-07,1,1004,0.918245077133179,bear,bear,0,1004_scg_s07_0_bear_00_bear1-elephant1.png
subject-07,1,1005,1.16837286949158,truck,oven,0,1005_scg_s07_0_oven_00_oven6-bird1.png
subject-07,1,1006,0.787970066070557,elephant,elephant,0,1006_scg_s07_0_elephant_00_elephant5-bottle2.png
subject-07,1,1007,0.645634889602661,bottle,bottle,0,1007_scg_s07_0_bottle_00_bottle8-elephant3.png
subject-07,1,1008,1.03358483314514,keyboard,keyboard,0,1008_scg_s07_0_keyboard_00_keyboard4-truck3.png
subject-07,1,1009,NaN,na,cat,0,1009_scg_s07_0_cat_00_cat2-truck3.png
subject-07,1,1010,0.659921169281006,oven,knife,0,1010_scg_s07_0_knife_00_knife6-clock2.png
subject-07,1,1011,1.05535197257996,bear,bear,0,1011_scg_s07_0_bear_00_bear6-bear1.png
subject-07,1,1012,0.937762975692749,cat,dog,0,1012_scg_s07_0_dog_00_dog2-knife3.png
subject-07,1,1013,0.579074859619141,bicycle,bicycle,0,1013_scg_s07_0_bicycle_00_bicycle1-knife3.png
subject-07,1,1014,0.566308975219727,bottle,bottle,0,1014_scg_s07_0_bottle_00_bottle9-truck1.png
subject-07,1,1015,1.06308889389038,bird,bird,0,1015_scg_s07_0_bird_00_bird5-oven3.png
subject-07,1,1016,1.02838897705078,bottle,bottle,0,1016_scg_s07_0_bottle_00_bottle3-knife3.png
subject-07,1,1017,0.855917930603027,keyboard,keyboard,0,1017_scg_s07_0_keyboard_00_keyboard8-oven1.png
subject-07,1,1018,0.768023014068604,keyboard,keyboard,0,1018_scg_s07_0_keyboard_00_keyboard3-car2.png
subject-07,1,1019,0.679017066955566,truck,truck,0,1019_scg_s07_0_truck_00_truck9-chair3.png
subject-07,1,1020,0.83732008934021,elephant,elephant,0,1020_scg_s07_0_elephant_00_elephant2-elephant3.png
subject-07,1,1021,0.933040857315063,truck,truck,0,1021_scg_s07_0_truck_00_truck6-bottle3.png
subject-07,1,1022,0.953907012939453,clock,clock,0,1022_scg_s07_0_clock_00_clock9-chair3.png
subject-07,1,1023,0.651531934738159,bear,bear,0,1023_scg_s07_0_bear_00_bear8-boat2.png
subject-07,1,1024,1.2233259677887,truck,truck,0,1024_scg_s07_0_truck_00_truck7-oven2.png
subject-07,1,1025,1.01290082931519,car,knife,0,1025_scg_s07_0_knife_00_knife1-truck2.png
subject-07,1,1026,1.00841093063354,car,car,0,1026_scg_s07_0_car_00_car3-dog2.png
subject-07,1,1027,0.86624813079834,airplane,airplane,0,1027_scg_s07_0_airplane_00_airplane1-bicycle2.png
subject-07,1,1028,0.648308992385864,bicycle,bicycle,0,1028_scg_s07_0_bicycle_00_bicycle9-bear1.png
subject-07,1,1029,1.15200614929199,car,knife,0,1029_scg_s07_0_knife_00_knife8-truck3.png
subject-07,1,1030,0.917174100875854,car,car,0,1030_scg_s07_0_car_00_car6-boat1.png
subject-07,1,1031,0.828258037567139,clock,clock,0,1031_scg_s07_0_clock_00_clock7-car1.png
subject-07,1,1032,0.87050986289978,bicycle,bicycle,0,1032_scg_s07_0_bicycle_00_bicycle9-cat3.png
subject-07,1,1033,0.811894178390503,car,car,0,1033_scg_s07_0_car_00_car4-bicycle3.png
subject-07,1,1034,0.815181970596313,truck,truck,0,1034_scg_s07_0_truck_00_truck6-truck2.png
subject-07,1,1035,0.865297794342041,car,car,0,1035_scg_s07_0_car_00_car7-clock1.png
subject-07,1,1036,0.931221008300781,car,car,0,1036_scg_s07_0_car_00_car7-oven2.png
subject-07,1,1037,0.696955919265747,oven,oven,0,1037_scg_s07_0_oven_00_oven9-airplane2.png
subject-07,1,1038,0.670880079269409,keyboard,keyboard,0,1038_scg_s07_0_keyboard_00_keyboard5-bottle1.png
subject-07,1,1039,0.691344976425171,chair,chair,0,1039_scg_s07_0_chair_00_chair5-clock2.png
subject-07,1,1040,1.07116198539734,elephant,elephant,0,1040_scg_s07_0_elephant_00_elephant9-airplane2.png
subject-07,1,1041,0.706962108612061,car,car,0,1041_scg_s07_0_car_00_car2-chair1.png
subject-07,1,1042,0.811063051223755,truck,truck,0,1042_scg_s07_0_truck_00_truck8-bottle2.png
subject-07,1,1043,1.37624716758728,dog,dog,0,1043_scg_s07_0_dog_00_dog10-keyboard2.png
subject-07,1,1044,0.980433940887451,knife,knife,0,1044_scg_s07_0_knife_00_knife7-bird3.png
subject-07,1,1045,0.824190855026245,truck,truck,0,1045_scg_s07_0_truck_00_truck10-bicycle1.png
subject-07,1,1046,0.62227201461792,cat,cat,0,1046_scg_s07_0_cat_00_cat5-bottle1.png
subject-07,1,1047,0.864459037780762,dog,dog,0,1047_scg_s07_0_dog_00_dog8-bottle2.png
subject-07,1,1048,0.646610021591187,cat,dog,0,1048_scg_s07_0_dog_00_dog3-truck2.png
subject-07,1,1049,0.579555988311768,cat,cat,0,1049_scg_s07_0_cat_00_cat4-chair2.png
subject-07,1,1050,0.599619150161743,bicycle,bicycle,0,1050_scg_s07_0_bicycle_00_bicycle2-car2.png
subject-07,1,1051,0.636348962783813,clock,clock,0,1051_scg_s07_0_clock_00_clock6-oven1.png
subject-07,1,1052,0.585646152496338,bottle,bottle,0,1052_scg_s07_0_bottle_00_bottle5-airplane1.png
subject-07,1,1053,0.684509038925171,oven,oven,0,1053_scg_s07_0_oven_00_oven3-knife1.png
subject-07,1,1054,0.587676048278809,oven,oven,0,1054_scg_s07_0_oven_00_oven2-bird2.png
subject-07,1,1055,0.60814094543457,bird,bird,0,1055_scg_s07_0_bird_00_bird9-elephant2.png
subject-07,1,1056,0.82770299911499,airplane,airplane,0,1056_scg_s07_0_airplane_00_airplane7-truck1.png
subject-07,1,1057,1.05365920066833,boat,bottle,0,1057_scg_s07_0_bottle_00_bottle7-oven2.png
subject-07,1,1058,1.04348301887512,truck,truck,0,1058_scg_s07_0_truck_00_truck9-boat3.png
subject-07,1,1059,0.764030933380127,cat,bear,0,1059_scg_s07_0_bear_00_bear6-clock1.png
subject-07,1,1060,0.825822114944458,dog,dog,0,1060_scg_s07_0_dog_00_dog1-dog2.png
subject-07,1,1061,0.693964004516602,keyboard,keyboard,0,1061_scg_s07_0_keyboard_00_keyboard4-clock2.png
subject-07,1,1062,1.08221983909607,bottle,boat,0,1062_scg_s07_0_boat_00_boat7-clock3.png
subject-07,1,1063,1.2161819934845,elephant,elephant,0,1063_scg_s07_0_elephant_00_elephant6-oven1.png
subject-07,1,1064,0.759865045547485,knife,knife,0,1064_scg_s07_0_knife_00_knife4-cat2.png
subject-07,1,1065,1.06436705589294,clock,clock,0,1065_scg_s07_0_clock_00_clock6-bicycle1.png
subject-07,1,1066,1.02962303161621,dog,dog,0,1066_scg_s07_0_dog_00_dog6-elephant2.png
subject-07,1,1067,0.911661148071289,elephant,elephant,0,1067_scg_s07_0_elephant_00_elephant9-boat3.png
subject-07,1,1068,0.786170959472656,airplane,airplane,0,1068_scg_s07_0_airplane_00_airplane10-car3.png
subject-07,1,1069,0.680952072143555,car,boat,0,1069_scg_s07_0_boat_00_boat10-truck1.png
subject-07,1,1070,0.601302862167358,clock,clock,0,1070_scg_s07_0_clock_00_clock10-boat2.png
subject-07,1,1071,0.728640079498291,cat,cat,0,1071_scg_s07_0_cat_00_cat9-chair2.png
subject-07,1,1072,0.554252862930298,bicycle,bicycle,0,1072_scg_s07_0_bicycle_00_bicycle4-airplane1.png
subject-07,1,1073,0.736387968063354,bicycle,bicycle,0,1073_scg_s07_0_bicycle_00_bicycle10-airplane2.png
subject-07,1,1074,0.764363050460815,keyboard,keyboard,0,1074_scg_s07_0_keyboard_00_keyboard5-bicycle1.png
subject-07,1,1075,0.814175128936768,chair,chair,0,1075_scg_s07_0_chair_00_chair7-elephant1.png
subject-07,1,1076,0.741343975067139,bottle,bottle,0,1076_scg_s07_0_bottle_00_bottle8-knife1.png
subject-07,1,1077,1.26039099693298,airplane,airplane,0,1077_scg_s07_0_airplane_00_airplane7-airplane3.png
subject-07,1,1078,0.744150876998901,elephant,elephant,0,1078_scg_s07_0_elephant_00_elephant8-cat1.png
subject-07,1,1079,1.04566407203674,cat,cat,0,1079_scg_s07_0_cat_00_cat7-airplane2.png
subject-07,1,1080,0.696998119354248,truck,truck,0,1080_scg_s07_0_truck_00_truck6-oven3.png
subject-07,1,1081,0.747745990753174,bear,bear,0,1081_scg_s07_0_bear_00_bear2-airplane1.png
subject-07,1,1082,0.899960994720459,bird,dog,0,1082_scg_s07_0_dog_00_dog5-oven1.png
subject-07,1,1083,0.649874925613403,clock,airplane,0,1083_scg_s07_0_airplane_00_airplane3-clock1.png
subject-07,1,1084,0.610780954360962,car,car,0,1084_scg_s07_0_car_00_car9-truck3.png
subject-07,1,1085,0.806120157241821,truck,truck,0,1085_scg_s07_0_truck_00_truck6-cat2.png
subject-07,1,1086,0.952177047729492,bicycle,bicycle,0,1086_scg_s07_0_bicycle_00_bicycle1-elephant2.png
subject-07,1,1087,1.0211021900177,dog,elephant,0,1087_scg_s07_0_elephant_00_elephant2-clock1.png
subject-07,1,1088,0.724457025527954,bicycle,bicycle,0,1088_scg_s07_0_bicycle_00_bicycle7-truck3.png
subject-07,1,1089,0.773844957351685,truck,truck,0,1089_scg_s07_0_truck_00_truck2-bicycle2.png
subject-07,1,1090,0.717513084411621,keyboard,keyboard,0,1090_scg_s07_0_keyboard_00_keyboard6-boat2.png
subject-07,1,1091,0.760164976119995,bear,bear,0,1091_scg_s07_0_bear_00_bear9-knife2.png
subject-07,1,1092,1.41734719276428,bird,bird,0,1092_scg_s07_0_bird_00_bird9-keyboard1.png
subject-07,1,1093,1.15951991081238,knife,knife,0,1093_scg_s07_0_knife_00_knife3-knife1.png
subject-07,1,1094,0.894869089126587,car,car,0,1094_scg_s07_0_car_00_car5-bottle1.png
subject-07,1,1095,0.828480005264282,chair,chair,0,1095_scg_s07_0_chair_00_chair8-knife2.png
subject-07,1,1096,0.61887788772583,cat,cat,0,1096_scg_s07_0_cat_00_cat6-oven1.png
