subj,session,trial,rt,object_response,category,condition,imagename
subject-07,2,1,NaN,na,bird,4-0-10,1281_eid_s07_4-0-10_bird_10_n01560419_5202.JPEG
subject-07,2,2,0.821894884109497,clock,clock,1-3-10,1282_eid_s07_1-3-10_clock_10_n04548280_3178.JPEG
subject-07,2,3,0.785729885101318,boat,boat,4-10-10,1283_eid_s07_4-10-10_boat_10_n03662601_7958.JPEG
subject-07,2,4,1.11018705368042,elephant,elephant,2-0-10,1284_eid_s07_2-0-10_elephant_10_n02504013_677.JPEG
subject-07,2,5,1.40312004089355,cat,keyboard,16-3-10,1285_eid_s07_16-3-10_keyboard_10_n03085013_3489.JPEG
subject-07,2,6,0.710676908493042,clock,clock,2-0-10,1286_eid_s07_2-0-10_clock_10_n03196217_8614.JPEG
subject-07,2,7,1.10246205329895,airplane,elephant,16-3-10,1287_eid_s07_16-3-10_elephant_10_n02504458_3146.JPEG
subject-07,2,8,1.15902090072632,oven,chair,8-0-10,1288_eid_s07_8-0-10_chair_10_n03376595_13234.JPEG
subject-07,2,9,0.712779998779297,bear,bear,1-0-10,1289_eid_s07_1-0-10_bear_10_n02132136_3873.JPEG
subject-07,2,10,0.89864706993103,cat,elephant,64-0-10,1290_eid_s07_64-0-10_elephant_10_n02504013_1515.JPEG
subject-07,2,11,1.07659316062927,cat,elephant,64-0-10,1291_eid_s07_64-0-10_elephant_10_n02504458_458.JPEG
subject-07,2,12,0.655136108398438,airplane,airplane,4-0-10,1292_eid_s07_4-0-10_airplane_10_n02690373_10129.JPEG
subject-07,2,13,0.708930969238281,bear,bear,1-3-10,1293_eid_s07_1-3-10_bear_10_n02134418_499.JPEG
subject-07,2,14,0.917783975601196,cat,cat,2-10-10,1294_eid_s07_2-10-10_cat_10_n02123394_50.JPEG
subject-07,2,15,1.50019001960754,oven,knife,1-10-10,1295_eid_s07_1-10-10_knife_10_n03041632_932.JPEG
subject-07,2,16,1.01693987846375,cat,car,64-3-10,1296_eid_s07_64-3-10_car_10_n02814533_7115.JPEG
subject-07,2,17,NaN,na,keyboard,128-3-10,1297_eid_s07_128-3-10_keyboard_10_n04505470_2889.JPEG
subject-07,2,18,0.886791944503784,cat,bird,64-3-10,1298_eid_s07_64-3-10_bird_10_n01843065_4052.JPEG
subject-07,2,19,0.886697053909302,oven,clock,1-0-10,1299_eid_s07_1-0-10_clock_10_n03196217_7353.JPEG
subject-07,2,20,0.981685876846313,bird,bird,1-10-10,1300_eid_s07_1-10-10_bird_10_n02002724_1788.JPEG
subject-07,2,21,0.975848197937012,cat,dog,2-0-10,1301_eid_s07_2-0-10_dog_10_n02109961_6221.JPEG
subject-07,2,22,0.968414068222046,boat,boat,128-0-10,1302_eid_s07_128-0-10_boat_10_n04612504_33430.JPEG
subject-07,2,23,1.08727407455444,boat,bear,128-10-10,1303_eid_s07_128-10-10_bear_10_n02134084_26.JPEG
subject-07,2,24,1.1880509853363,cat,oven,32-3-10,1304_eid_s07_32-3-10_oven_10_n04111531_1580.JPEG
subject-07,2,25,1.10359692573547,boat,airplane,128-0-10,1305_eid_s07_128-0-10_airplane_10_n02690373_60.JPEG
subject-07,2,26,1.01405692100525,truck,truck,2-3-10,1306_eid_s07_2-3-10_truck_10_n03417042_10442.JPEG
subject-07,2,27,1.29862689971924,truck,bird,64-3-10,1307_eid_s07_64-3-10_bird_10_n01601694_12462.JPEG
subject-07,2,28,0.986461877822876,boat,truck,64-10-10,1308_eid_s07_64-10-10_truck_10_n03796401_322.JPEG
subject-07,2,29,1.04108595848083,oven,clock,2-3-10,1309_eid_s07_2-3-10_clock_10_n03196217_1519.JPEG
subject-07,2,30,0.986675024032593,chair,chair,4-3-10,1310_eid_s07_4-3-10_chair_10_n04429376_14186.JPEG
subject-07,2,31,0.978650093078613,boat,boat,64-3-10,1311_eid_s07_64-3-10_boat_10_n04273569_17942.JPEG
subject-07,2,32,1.25703501701355,oven,bottle,16-10-10,1312_eid_s07_16-10-10_bottle_10_n03983396_7573.JPEG
subject-07,2,33,1.03566789627075,airplane,bird,32-0-10,1313_eid_s07_32-0-10_bird_10_n02037110_10413.JPEG
subject-07,2,34,1.38406705856323,dog,dog,1-10-10,1314_eid_s07_1-10-10_dog_10_n02087046_8991.JPEG
subject-07,2,35,0.89275598526001,cat,cat,8-0-10,1315_eid_s07_8-0-10_cat_10_n02125311_456.JPEG
subject-07,2,36,0.895611047744751,cat,bird,128-3-10,1316_eid_s07_128-3-10_bird_10_n01531178_6273.JPEG
subject-07,2,37,1.06636309623718,boat,cat,64-3-10,1317_eid_s07_64-3-10_cat_10_n02123159_5205.JPEG
subject-07,2,38,1.09076619148254,oven,oven,4-0-10,1318_eid_s07_4-0-10_oven_10_n04111531_6393.JPEG
subject-07,2,39,0.7694251537323,cat,cat,32-10-10,1319_eid_s07_32-10-10_cat_10_n02123159_2147.JPEG
subject-07,2,40,1.00133109092712,keyboard,keyboard,2-10-10,1320_eid_s07_2-10-10_keyboard_10_n03085013_19630.JPEG
subject-07,2,41,1.17205476760864,oven,bottle,4-10-10,1321_eid_s07_4-10-10_bottle_10_n04557648_4059.JPEG
subject-07,2,42,1.50036096572876,car,clock,64-10-10,1322_eid_s07_64-10-10_clock_10_n03196217_981.JPEG
subject-07,2,43,1.0805721282959,boat,elephant,128-3-10,1323_eid_s07_128-3-10_elephant_10_n02504458_9957.JPEG
subject-07,2,44,0.936908960342407,cat,bear,128-3-10,1324_eid_s07_128-3-10_bear_10_n02134418_4942.JPEG
subject-07,2,45,0.899753093719482,boat,airplane,128-3-10,1325_eid_s07_128-3-10_airplane_10_n02690373_5056.JPEG
subject-07,2,46,1.12905716896057,bird,knife,32-3-10,1326_eid_s07_32-3-10_knife_10_n03041632_37949.JPEG
subject-07,2,47,1.50040197372437,bear,bicycle,64-3-10,1327_eid_s07_64-3-10_bicycle_10_n03792782_5106.JPEG
subject-07,2,48,1.16115808486938,cat,bottle,128-0-10,1328_eid_s07_128-0-10_bottle_10_n03937543_161.JPEG
subject-07,2,49,0.885052919387817,oven,oven,1-3-10,1329_eid_s07_1-3-10_oven_10_n04111531_4951.JPEG
subject-07,2,50,1.06369805335999,cat,dog,128-10-10,1330_eid_s07_128-10-10_dog_10_n02090721_583.JPEG
subject-07,2,51,0.903316974639893,boat,airplane,16-0-10,1331_eid_s07_16-0-10_airplane_10_n02690373_1663.JPEG
subject-07,2,52,1.18771004676819,boat,dog,128-3-10,1332_eid_s07_128-3-10_dog_10_n02110063_13550.JPEG
subject-07,2,53,1.03643608093262,oven,chair,2-0-10,1333_eid_s07_2-0-10_chair_10_n02791124_495.JPEG
subject-07,2,54,0.952994823455811,cat,elephant,64-0-10,1334_eid_s07_64-0-10_elephant_10_n02504458_1140.JPEG
subject-07,2,55,1.2315628528595,oven,keyboard,8-0-10,1335_eid_s07_8-0-10_keyboard_10_n04505470_2158.JPEG
subject-07,2,56,0.995972156524658,clock,clock,4-10-10,1336_eid_s07_4-10-10_clock_10_n03196217_2414.JPEG
subject-07,2,57,1.00371503829956,cat,dog,64-10-10,1337_eid_s07_64-10-10_dog_10_n02111500_1590.JPEG
subject-07,2,58,1.02828097343445,bicycle,bicycle,4-10-10,1338_eid_s07_4-10-10_bicycle_10_n02835271_5785.JPEG
subject-07,2,59,1.20688700675964,boat,bear,1-10-10,1339_eid_s07_1-10-10_bear_10_n02134418_2572.JPEG
subject-07,2,60,1.09050989151001,airplane,elephant,16-0-10,1340_eid_s07_16-0-10_elephant_10_n02504458_4058.JPEG
subject-07,2,61,0.969295978546143,bear,boat,2-10-10,1341_eid_s07_2-10-10_boat_10_n04612504_14914.JPEG
subject-07,2,62,1.2232038974762,oven,boat,32-10-10,1342_eid_s07_32-10-10_boat_10_n02951358_2441.JPEG
subject-07,2,63,0.759310007095337,cat,dog,4-0-10,1343_eid_s07_4-0-10_dog_10_n02112018_7126.JPEG
subject-07,2,64,0.813516139984131,boat,bird,128-10-10,1344_eid_s07_128-10-10_bird_10_n02018207_9697.JPEG
subject-07,2,65,0.924201011657715,oven,oven,2-0-10,1345_eid_s07_2-0-10_oven_10_n04111531_8750.JPEG
subject-07,2,66,1.26980519294739,bird,bird,4-3-10,1346_eid_s07_4-3-10_bird_10_n02056570_9327.JPEG
subject-07,2,67,1.2089250087738,chair,bottle,16-10-10,1347_eid_s07_16-10-10_bottle_10_n04560804_6469.JPEG
subject-07,2,68,1.500079870224,oven,clock,1-10-10,1348_eid_s07_1-10-10_clock_10_n03196217_1021.JPEG
subject-07,2,69,0.764755964279175,keyboard,keyboard,1-3-10,1349_eid_s07_1-3-10_keyboard_10_n03085013_23800.JPEG
subject-07,2,70,0.881132125854492,oven,oven,1-0-10,1350_eid_s07_1-0-10_oven_10_n04111531_2662.JPEG
subject-07,2,71,0.765350103378296,boat,boat,2-0-10,1351_eid_s07_2-0-10_boat_10_n03662601_5489.JPEG
subject-07,2,72,NaN,na,oven,16-3-10,1352_eid_s07_16-3-10_oven_10_n04111531_8793.JPEG
subject-07,2,73,1.35159492492676,dog,dog,2-0-10,1353_eid_s07_2-0-10_dog_10_n02088364_5577.JPEG
subject-07,2,74,1.27530002593994,cat,elephant,128-0-10,1354_eid_s07_128-0-10_elephant_10_n02504458_5996.JPEG
subject-07,2,75,0.961781024932861,chair,chair,16-3-10,1355_eid_s07_16-3-10_chair_10_n03376595_364.JPEG
subject-07,2,76,0.800091028213501,oven,oven,2-10-10,1356_eid_s07_2-10-10_oven_10_n04111531_4959.JPEG
subject-07,2,77,0.908468961715698,cat,knife,128-10-10,1357_eid_s07_128-10-10_knife_10_n03041632_1607.JPEG
subject-07,2,78,1.27323293685913,airplane,truck,32-0-10,1358_eid_s07_32-0-10_truck_10_n04467665_27782.JPEG
subject-07,2,79,1.07359504699707,airplane,cat,16-0-10,1359_eid_s07_16-0-10_cat_10_n02123045_5747.JPEG
subject-07,2,80,0.905987024307251,oven,oven,2-0-10,1360_eid_s07_2-0-10_oven_10_n04111531_4.JPEG
subject-07,2,81,1.50040197372437,boat,truck,64-0-10,1361_eid_s07_64-0-10_truck_10_n04467665_4166.JPEG
subject-07,2,82,1.22994494438171,airplane,airplane,32-0-10,1362_eid_s07_32-0-10_airplane_10_n02690373_9441.JPEG
subject-07,2,83,1.29259395599365,boat,airplane,16-3-10,1363_eid_s07_16-3-10_airplane_10_n02690373_9626.JPEG
subject-07,2,84,1.50008511543274,boat,boat,16-0-10,1364_eid_s07_16-0-10_boat_10_n03344393_3558.JPEG
subject-07,2,85,0.748744964599609,elephant,elephant,4-3-10,1365_eid_s07_4-3-10_elephant_10_n02504458_418.JPEG
subject-07,2,86,1.14119219779968,car,car,16-10-10,1366_eid_s07_16-10-10_car_10_n03100240_5807.JPEG
subject-07,2,87,0.880978107452393,keyboard,keyboard,8-0-10,1367_eid_s07_8-0-10_keyboard_10_n04505470_1691.JPEG
subject-07,2,88,1.02722215652466,oven,clock,16-10-10,1368_eid_s07_16-10-10_clock_10_n03196217_3086.JPEG
subject-07,2,89,1.129802942276,cat,car,16-0-10,1369_eid_s07_16-0-10_car_10_n02814533_94425.JPEG
subject-07,2,90,0.978557109832764,oven,cat,4-0-10,1370_eid_s07_4-0-10_cat_10_n02123597_7485.JPEG
subject-07,2,91,0.932690858840942,oven,oven,16-10-10,1371_eid_s07_16-10-10_oven_10_n04111531_6899.JPEG
subject-07,2,92,1.17925095558167,cat,bear,2-0-10,1372_eid_s07_2-0-10_bear_10_n02133161_16188.JPEG
subject-07,2,93,0.974101066589355,clock,clock,1-0-10,1373_eid_s07_1-0-10_clock_10_n04548280_4035.JPEG
subject-07,2,94,1.27678990364075,truck,truck,2-3-10,1374_eid_s07_2-3-10_truck_10_n03796401_17633.JPEG
subject-07,2,95,1.26808595657349,knife,knife,4-3-10,1375_eid_s07_4-3-10_knife_10_n03041632_13194.JPEG
subject-07,2,96,1.13857579231262,airplane,boat,8-10-10,1376_eid_s07_8-10-10_boat_10_n03344393_6505.JPEG
subject-07,2,97,1.07116198539734,chair,chair,2-0-10,1377_eid_s07_2-0-10_chair_10_n04429376_42324.JPEG
subject-07,2,98,1.08776688575745,cat,dog,128-0-10,1378_eid_s07_128-0-10_dog_10_n02093256_13506.JPEG
subject-07,2,99,0.874184846878052,bicycle,bicycle,2-3-10,1379_eid_s07_2-3-10_bicycle_10_n03792782_5020.JPEG
subject-07,2,100,0.968623876571655,boat,boat,32-3-10,1380_eid_s07_32-3-10_boat_10_n04273569_16615.JPEG
subject-07,2,101,0.806018829345703,airplane,airplane,4-10-10,1381_eid_s07_4-10-10_airplane_10_n02690373_5204.JPEG
subject-07,2,102,0.908560991287231,truck,truck,1-0-10,1382_eid_s07_1-0-10_truck_10_n04467665_4165.JPEG
subject-07,2,103,1.1577320098877,bear,dog,16-0-10,1383_eid_s07_16-0-10_dog_10_n02091244_1541.JPEG
subject-07,2,104,1.22841906547546,cat,car,32-10-10,1384_eid_s07_32-10-10_car_10_n04285008_4679.JPEG
subject-07,2,105,1.02865314483643,oven,chair,8-3-10,1385_eid_s07_8-3-10_chair_10_n03376595_2931.JPEG
subject-07,2,106,1.11539816856384,elephant,elephant,1-3-10,1386_eid_s07_1-3-10_elephant_10_n02504458_3099.JPEG
subject-07,2,107,1.03956580162048,boat,boat,16-10-10,1387_eid_s07_16-10-10_boat_10_n04612504_5635.JPEG
subject-07,2,108,0.923454999923706,elephant,elephant,2-3-10,1388_eid_s07_2-3-10_elephant_10_n02504458_935.JPEG
subject-07,2,109,0.968793153762817,airplane,airplane,4-10-10,1389_eid_s07_4-10-10_airplane_10_n02690373_9812.JPEG
subject-07,2,110,1.25556206703186,cat,elephant,128-10-10,1390_eid_s07_128-10-10_elephant_10_n02504458_325.JPEG
subject-07,2,111,0.927921056747437,airplane,airplane,64-10-10,1391_eid_s07_64-10-10_airplane_10_n02690373_10727.JPEG
subject-07,2,112,1.23620200157166,boat,truck,128-3-10,1392_eid_s07_128-3-10_truck_10_n03796401_27059.JPEG
subject-07,2,113,1.50033378601074,car,boat,1-3-10,1393_eid_s07_1-3-10_boat_10_n04273569_20506.JPEG
subject-07,2,114,1.05260801315308,oven,bottle,16-0-10,1394_eid_s07_16-0-10_bottle_10_n02823428_7957.JPEG
subject-07,2,115,0.846386909484863,airplane,boat,32-10-10,1395_eid_s07_32-10-10_boat_10_n04273569_2534.JPEG
subject-07,2,116,1.08473086357117,keyboard,keyboard,16-10-10,1396_eid_s07_16-10-10_keyboard_10_n03085013_13615.JPEG
subject-07,2,117,0.979321956634521,bicycle,bicycle,8-10-10,1397_eid_s07_8-10-10_bicycle_10_n03792782_12908.JPEG
subject-07,2,118,1.26593399047852,truck,truck,8-0-10,1398_eid_s07_8-0-10_truck_10_n03417042_26814.JPEG
subject-07,2,119,1.06641793251038,chair,chair,4-0-10,1399_eid_s07_4-0-10_chair_10_n04099969_5513.JPEG
subject-07,2,120,1.0770149230957,cat,elephant,32-0-10,1400_eid_s07_32-0-10_elephant_10_n02504458_5182.JPEG
subject-07,2,121,1.16342997550964,bear,dog,8-0-10,1401_eid_s07_8-0-10_dog_10_n02108000_2400.JPEG
subject-07,2,122,1.35572504997253,boat,bicycle,32-0-10,1402_eid_s07_32-0-10_bicycle_10_n03792782_1108.JPEG
subject-07,2,123,0.746003150939941,bear,bear,2-0-10,1403_eid_s07_2-0-10_bear_10_n02132136_2313.JPEG
subject-07,2,124,0.808627843856812,bicycle,bicycle,8-10-10,1404_eid_s07_8-10-10_bicycle_10_n03792782_3249.JPEG
subject-07,2,125,0.903057098388672,cat,bird,32-0-10,1405_eid_s07_32-0-10_bird_10_n01532829_3349.JPEG
subject-07,2,126,1.0813000202179,chair,chair,8-0-10,1406_eid_s07_8-0-10_chair_10_n03376595_9591.JPEG
subject-07,2,127,1.10585999488831,cat,keyboard,64-0-10,1407_eid_s07_64-0-10_keyboard_10_n04505470_4807.JPEG
subject-07,2,128,1.03568482398987,cat,dog,2-10-10,1408_eid_s07_2-10-10_dog_10_n02100735_2685.JPEG
subject-07,2,129,1.26017308235168,oven,bottle,2-10-10,1409_eid_s07_2-10-10_bottle_10_n04579145_6285.JPEG
subject-07,2,130,NaN,na,oven,2-0-10,1410_eid_s07_2-0-10_oven_10_n04111531_807.JPEG
subject-07,2,131,0.824404001235962,cat,clock,16-0-10,1411_eid_s07_16-0-10_clock_10_n04548280_4354.JPEG
subject-07,2,132,1.0923900604248,cat,bicycle,64-0-10,1412_eid_s07_64-0-10_bicycle_10_n03792782_19267.JPEG
subject-07,2,133,1.08735799789429,clock,clock,16-3-10,1413_eid_s07_16-3-10_clock_10_n03196217_6185.JPEG
subject-07,2,134,1.09788918495178,chair,chair,4-10-10,1414_eid_s07_4-10-10_chair_10_n04099969_8946.JPEG
subject-07,2,135,0.898568868637085,bear,bear,32-3-10,1415_eid_s07_32-3-10_bear_10_n02134084_791.JPEG
subject-07,2,136,0.869292020797729,boat,bear,128-0-10,1416_eid_s07_128-0-10_bear_10_n02133161_15954.JPEG
subject-07,2,137,1.23927402496338,airplane,knife,8-3-10,1417_eid_s07_8-3-10_knife_10_n03041632_4305.JPEG
subject-07,2,138,1.00984382629395,boat,bear,64-3-10,1418_eid_s07_64-3-10_bear_10_n02133161_3340.JPEG
subject-07,2,139,0.91027307510376,cat,bear,16-3-10,1419_eid_s07_16-3-10_bear_10_n02132136_13912.JPEG
subject-07,2,140,1.27453708648682,boat,boat,32-0-10,1420_eid_s07_32-0-10_boat_10_n04273569_9235.JPEG
subject-07,2,141,0.791449069976807,oven,oven,1-0-10,1421_eid_s07_1-0-10_oven_10_n04111531_4671.JPEG
subject-07,2,142,1.08386206626892,cat,chair,64-3-10,1422_eid_s07_64-3-10_chair_10_n04099969_5584.JPEG
subject-07,2,143,1.07061791419983,dog,dog,4-10-10,1423_eid_s07_4-10-10_dog_10_n02110958_3146.JPEG
subject-07,2,144,0.965216875076294,boat,knife,128-3-10,1424_eid_s07_128-3-10_knife_10_n03041632_28135.JPEG
subject-07,2,145,0.859754085540771,cat,dog,64-0-10,1425_eid_s07_64-0-10_dog_10_n02091244_3874.JPEG
subject-07,2,146,1.13057494163513,bear,bicycle,16-0-10,1426_eid_s07_16-0-10_bicycle_10_n03792782_42626.JPEG
subject-07,2,147,0.746700048446655,cat,cat,4-10-10,1427_eid_s07_4-10-10_cat_10_n02124075_208.JPEG
subject-07,2,148,0.709341049194336,airplane,airplane,16-3-10,1428_eid_s07_16-3-10_airplane_10_n02690373_18693.JPEG
subject-07,2,149,1.01731896400452,bottle,bicycle,16-0-10,1429_eid_s07_16-0-10_bicycle_10_n03792782_8062.JPEG
subject-07,2,150,0.879723072052002,boat,dog,64-3-10,1430_eid_s07_64-3-10_dog_10_n02096051_1793.JPEG
subject-07,2,151,1.0062530040741,boat,bottle,64-3-10,1431_eid_s07_64-3-10_bottle_10_n04591713_8653.JPEG
subject-07,2,152,0.681753158569336,chair,chair,2-10-10,1432_eid_s07_2-10-10_chair_10_n03376595_2534.JPEG
subject-07,2,153,0.860411882400513,oven,oven,4-10-10,1433_eid_s07_4-10-10_oven_10_n04111531_9962.JPEG
subject-07,2,154,0.917330026626587,clock,clock,32-10-10,1434_eid_s07_32-10-10_clock_10_n03196217_6320.JPEG
subject-07,2,155,0.887947082519531,knife,knife,1-0-10,1435_eid_s07_1-0-10_knife_10_n03041632_2644.JPEG
subject-07,2,156,1.22040700912476,bird,dog,1-0-10,1436_eid_s07_1-0-10_dog_10_n02099849_1890.JPEG
subject-07,2,157,0.750870943069458,boat,elephant,32-0-10,1437_eid_s07_32-0-10_elephant_10_n02504013_10802.JPEG
subject-07,2,158,1.01513695716858,cat,cat,4-0-10,1438_eid_s07_4-0-10_cat_10_n02123597_2323.JPEG
subject-07,2,159,0.747676849365234,airplane,airplane,1-0-10,1439_eid_s07_1-0-10_airplane_10_n02690373_20996.JPEG
subject-07,2,160,0.656399011611938,cat,cat,32-10-10,1440_eid_s07_32-10-10_cat_10_n02123394_4915.JPEG
subject-07,2,161,1.47270393371582,dog,chair,64-10-10,1441_eid_s07_64-10-10_chair_10_n04099969_1696.JPEG
subject-07,2,162,1.0053551197052,cat,oven,32-0-10,1442_eid_s07_32-0-10_oven_10_n04111531_11230.JPEG
subject-07,2,163,0.805801868438721,cat,knife,32-3-10,1443_eid_s07_32-3-10_knife_10_n03041632_8468.JPEG
subject-07,2,164,0.992238998413086,airplane,airplane,2-10-10,1444_eid_s07_2-10-10_airplane_10_n02690373_4269.JPEG
subject-07,2,165,0.992893934249878,bear,bear,4-0-10,1445_eid_s07_4-0-10_bear_10_n02132136_3432.JPEG
subject-07,2,166,1.00906705856323,oven,keyboard,8-3-10,1446_eid_s07_8-3-10_keyboard_10_n03085013_19345.JPEG
subject-07,2,167,1.01216506958008,chair,chair,8-0-10,1447_eid_s07_8-0-10_chair_10_n04099969_12707.JPEG
subject-07,2,168,0.898563861846924,bicycle,bicycle,2-0-10,1448_eid_s07_2-0-10_bicycle_10_n02835271_14743.JPEG
subject-07,2,169,1.03133296966553,cat,bottle,64-0-10,1449_eid_s07_64-0-10_bottle_10_n04557648_32506.JPEG
subject-07,2,170,1.04780292510986,clock,clock,8-10-10,1450_eid_s07_8-10-10_clock_10_n04548280_1039.JPEG
subject-07,2,171,1.11030507087708,boat,airplane,32-0-10,1451_eid_s07_32-0-10_airplane_10_n02690373_2232.JPEG
subject-07,2,172,1.08901190757751,cat,oven,8-10-10,1452_eid_s07_8-10-10_oven_10_n04111531_4901.JPEG
subject-07,2,173,1.38073706626892,cat,knife,32-0-10,1453_eid_s07_32-0-10_knife_10_n03041632_45090.JPEG
subject-07,2,174,1.06240200996399,dog,boat,8-0-10,1454_eid_s07_8-0-10_boat_10_n03662601_3903.JPEG
subject-07,2,175,0.971000909805298,bear,bear,16-3-10,1455_eid_s07_16-3-10_bear_10_n02133161_10538.JPEG
subject-07,2,176,0.86529016494751,oven,bottle,16-10-10,1456_eid_s07_16-10-10_bottle_10_n04591713_6887.JPEG
subject-07,2,177,0.827752828598022,knife,knife,2-0-10,1457_eid_s07_2-0-10_knife_10_n03041632_50996.JPEG
subject-07,2,178,1.11413192749023,elephant,elephant,4-3-10,1458_eid_s07_4-3-10_elephant_10_n02504013_6078.JPEG
subject-07,2,179,0.985311985015869,cat,car,128-0-10,1459_eid_s07_128-0-10_car_10_n02814533_89376.JPEG
subject-07,2,180,1.07172203063965,bear,chair,32-0-10,1460_eid_s07_32-0-10_chair_10_n04099969_5901.JPEG
subject-07,2,181,1.24229288101196,cat,cat,128-0-10,1461_eid_s07_128-0-10_cat_10_n02123045_2302.JPEG
subject-07,2,182,1.19678997993469,keyboard,truck,32-3-10,1462_eid_s07_32-3-10_truck_10_n03417042_10754.JPEG
subject-07,2,183,1.24552798271179,chair,chair,2-0-10,1463_eid_s07_2-0-10_chair_10_n04429376_8902.JPEG
subject-07,2,184,1.06125712394714,car,car,1-10-10,1464_eid_s07_1-10-10_car_10_n03100240_23804.JPEG
subject-07,2,185,1.137619972229,car,car,16-10-10,1465_eid_s07_16-10-10_car_10_n03100240_16896.JPEG
subject-07,2,186,1.2452700138092,cat,keyboard,128-10-10,1466_eid_s07_128-10-10_keyboard_10_n03085013_24159.JPEG
subject-07,2,187,1.04796504974365,cat,keyboard,16-0-10,1467_eid_s07_16-0-10_keyboard_10_n03085013_3691.JPEG
subject-07,2,188,0.956309080123901,truck,truck,4-3-10,1468_eid_s07_4-3-10_truck_10_n03417042_7212.JPEG
subject-07,2,189,1.1673378944397,boat,chair,128-0-10,1469_eid_s07_128-0-10_chair_10_n04429376_57014.JPEG
subject-07,2,190,0.929856061935425,oven,oven,2-3-10,1470_eid_s07_2-3-10_oven_10_n04111531_1298.JPEG
subject-07,2,191,0.968110799789429,car,car,16-10-10,1471_eid_s07_16-10-10_car_10_n04285008_12189.JPEG
subject-07,2,192,0.976234912872314,boat,boat,2-10-10,1472_eid_s07_2-10-10_boat_10_n02951358_10707.JPEG
subject-07,2,193,0.946409940719604,knife,boat,16-10-10,1473_eid_s07_16-10-10_boat_10_n04273569_21583.JPEG
subject-07,2,194,0.786866903305054,elephant,elephant,1-10-10,1474_eid_s07_1-10-10_elephant_10_n02504013_5364.JPEG
subject-07,2,195,1.24164199829102,bottle,bottle,1-3-10,1475_eid_s07_1-3-10_bottle_10_n04560804_14724.JPEG
subject-07,2,196,1.18195414543152,cat,bottle,16-0-10,1476_eid_s07_16-0-10_bottle_10_n03983396_12552.JPEG
subject-07,2,197,1.13562393188477,car,clock,8-10-10,1477_eid_s07_8-10-10_clock_10_n02708093_260.JPEG
subject-07,2,198,0.968117952346802,car,car,16-0-10,1478_eid_s07_16-0-10_car_10_n04285008_3445.JPEG
subject-07,2,199,1.40647506713867,bear,bear,32-3-10,1479_eid_s07_32-3-10_bear_10_n02133161_2010.JPEG
subject-07,2,200,1.4932279586792,cat,bird,32-0-10,1480_eid_s07_32-0-10_bird_10_n01860187_10995.JPEG
subject-07,2,201,0.925384998321533,boat,boat,4-3-10,1481_eid_s07_4-3-10_boat_10_n02951358_3704.JPEG
subject-07,2,202,0.958331108093262,bear,bear,32-3-10,1482_eid_s07_32-3-10_bear_10_n02134418_5505.JPEG
subject-07,2,203,0.896823167800903,car,car,2-0-10,1483_eid_s07_2-0-10_car_10_n02814533_27502.JPEG
subject-07,2,204,1.07432985305786,bottle,cat,128-10-10,1484_eid_s07_128-10-10_cat_10_n02124075_9528.JPEG
subject-07,2,205,1.02897214889526,cat,clock,16-3-10,1485_eid_s07_16-3-10_clock_10_n04548280_702.JPEG
subject-07,2,206,1.03221106529236,bear,chair,64-0-10,1486_eid_s07_64-0-10_chair_10_n04099969_7399.JPEG
subject-07,2,207,0.832988977432251,boat,boat,128-3-10,1487_eid_s07_128-3-10_boat_10_n04612504_8636.JPEG
subject-07,2,208,1.24310207366943,keyboard,knife,64-10-10,1488_eid_s07_64-10-10_knife_10_n03041632_39342.JPEG
subject-07,2,209,1.30649781227112,boat,clock,128-0-10,1489_eid_s07_128-0-10_clock_10_n03196217_1499.JPEG
subject-07,2,210,0.854748964309692,truck,truck,1-10-10,1490_eid_s07_1-10-10_truck_10_n03417042_104.JPEG
subject-07,2,211,1.06355214118958,car,bird,128-3-10,1491_eid_s07_128-3-10_bird_10_n02013706_1111.JPEG
subject-07,2,212,0.935148000717163,cat,bicycle,64-3-10,1492_eid_s07_64-3-10_bicycle_10_n02835271_26139.JPEG
subject-07,2,213,0.854132890701294,clock,clock,16-10-10,1493_eid_s07_16-10-10_clock_10_n02708093_3500.JPEG
subject-07,2,214,0.686660051345825,airplane,airplane,16-0-10,1494_eid_s07_16-0-10_airplane_10_n02690373_19438.JPEG
subject-07,2,215,1.30124711990356,knife,dog,2-10-10,1495_eid_s07_2-10-10_dog_10_n02108551_14921.JPEG
subject-07,2,216,0.987904071807861,clock,clock,1-3-10,1496_eid_s07_1-3-10_clock_10_n04548280_98.JPEG
subject-07,2,217,0.88240909576416,bear,bear,1-3-10,1497_eid_s07_1-3-10_bear_10_n02134084_1654.JPEG
subject-07,2,218,1.09087014198303,bear,bottle,16-0-10,1498_eid_s07_16-0-10_bottle_10_n04560804_921.JPEG
subject-07,2,219,1.16142392158508,bicycle,elephant,16-3-10,1499_eid_s07_16-3-10_elephant_10_n02504013_22813.JPEG
subject-07,2,220,0.961935043334961,boat,bottle,16-10-10,1500_eid_s07_16-10-10_bottle_10_n04560804_2436.JPEG
subject-07,2,221,0.94858193397522,bottle,bottle,8-10-10,1501_eid_s07_8-10-10_bottle_10_n03937543_8737.JPEG
subject-07,2,222,1.0565230846405,cat,cat,1-3-10,1502_eid_s07_1-3-10_cat_10_n02123159_2593.JPEG
subject-07,2,223,0.88079309463501,truck,truck,2-10-10,1503_eid_s07_2-10-10_truck_10_n03417042_9668.JPEG
subject-07,2,224,1.27330493927002,boat,chair,128-3-10,1504_eid_s07_128-3-10_chair_10_n04099969_18016.JPEG
subject-07,2,225,0.874169111251831,cat,knife,64-10-10,1505_eid_s07_64-10-10_knife_10_n03041632_2973.JPEG
subject-07,2,226,0.98457407951355,airplane,airplane,4-10-10,1506_eid_s07_4-10-10_airplane_10_n02690373_6090.JPEG
subject-07,2,227,0.930994987487793,cat,oven,64-0-10,1507_eid_s07_64-0-10_oven_10_n04111531_3671.JPEG
subject-07,2,228,0.955601215362549,airplane,bear,64-10-10,1508_eid_s07_64-10-10_bear_10_n02134084_668.JPEG
subject-07,2,229,0.964033126831055,truck,truck,2-3-10,1509_eid_s07_2-3-10_truck_10_n03796401_9953.JPEG
subject-07,2,230,0.988653898239136,cat,bottle,16-0-10,1510_eid_s07_16-0-10_bottle_10_n04579145_3149.JPEG
subject-07,2,231,1.2668559551239,airplane,bicycle,32-0-10,1511_eid_s07_32-0-10_bicycle_10_n03792782_10763.JPEG
subject-07,2,232,0.837363004684448,clock,clock,2-3-10,1512_eid_s07_2-3-10_clock_10_n02708093_4878.JPEG
subject-07,2,233,0.80002498626709,airplane,boat,16-0-10,1513_eid_s07_16-0-10_boat_10_n02951358_12464.JPEG
subject-07,2,234,0.908383846282959,bird,bird,2-0-10,1514_eid_s07_2-0-10_bird_10_n01601694_9470.JPEG
subject-07,2,235,1.14847087860107,cat,car,64-3-10,1515_eid_s07_64-3-10_car_10_n03100240_8057.JPEG
subject-07,2,236,0.954703092575073,elephant,elephant,1-10-10,1516_eid_s07_1-10-10_elephant_10_n02504458_2133.JPEG
subject-07,2,237,1.24932599067688,airplane,bicycle,64-3-10,1517_eid_s07_64-3-10_bicycle_10_n03792782_8945.JPEG
subject-07,2,238,0.941964864730835,oven,oven,2-10-10,1518_eid_s07_2-10-10_oven_10_n04111531_7619.JPEG
subject-07,2,239,0.765721082687378,bird,bird,2-10-10,1519_eid_s07_2-10-10_bird_10_n02009229_4248.JPEG
subject-07,2,240,0.952617883682251,boat,chair,32-0-10,1520_eid_s07_32-0-10_chair_10_n02791124_2379.JPEG
subject-07,2,241,0.683058023452759,clock,clock,1-3-10,1521_eid_s07_1-3-10_clock_10_n02708093_3399.JPEG
subject-07,2,242,1.16158986091614,knife,knife,1-0-10,1522_eid_s07_1-0-10_knife_10_n03041632_3101.JPEG
subject-07,2,243,1.3321840763092,clock,clock,2-3-10,1523_eid_s07_2-3-10_clock_10_n02708093_1015.JPEG
subject-07,2,244,1.31089496612549,oven,truck,4-3-10,1524_eid_s07_4-3-10_truck_10_n03417042_8119.JPEG
subject-07,2,245,1.12736988067627,bicycle,bicycle,8-3-10,1525_eid_s07_8-3-10_bicycle_10_n02835271_19935.JPEG
subject-07,2,246,0.759643077850342,bird,bird,2-3-10,1526_eid_s07_2-3-10_bird_10_n01819313_855.JPEG
subject-07,2,247,1.15204286575317,cat,cat,1-3-10,1527_eid_s07_1-3-10_cat_10_n02125311_8312.JPEG
subject-07,2,248,0.952856063842773,cat,truck,128-0-10,1528_eid_s07_128-0-10_truck_10_n04467665_2340.JPEG
subject-07,2,249,0.923326969146729,car,car,8-3-10,1529_eid_s07_8-3-10_car_10_n02814533_40350.JPEG
subject-07,2,250,0.79393196105957,bird,bird,2-10-10,1530_eid_s07_2-10-10_bird_10_n01514859_7144.JPEG
subject-07,2,251,1.04215598106384,dog,dog,1-0-10,1531_eid_s07_1-0-10_dog_10_n02093754_579.JPEG
subject-07,2,252,1.36471700668335,bear,chair,32-0-10,1532_eid_s07_32-0-10_chair_10_n04099969_13105.JPEG
subject-07,2,253,0.943238019943237,airplane,airplane,2-3-10,1533_eid_s07_2-3-10_airplane_10_n02690373_5342.JPEG
subject-07,2,254,0.767153024673462,cat,oven,128-3-10,1534_eid_s07_128-3-10_oven_10_n04111531_21382.JPEG
subject-07,2,255,0.919096946716309,cat,bird,128-10-10,1535_eid_s07_128-10-10_bird_10_n01820546_1157.JPEG
subject-07,2,256,1.2597119808197,bear,chair,64-0-10,1536_eid_s07_64-0-10_chair_10_n02791124_28.JPEG
subject-07,2,257,0.855916023254395,bear,bear,16-0-10,1537_eid_s07_16-0-10_bear_10_n02132136_3616.JPEG
subject-07,2,258,1.26215887069702,cat,bird,16-10-10,1538_eid_s07_16-10-10_bird_10_n01532829_5775.JPEG
subject-07,2,259,0.889018774032593,truck,truck,4-3-10,1539_eid_s07_4-3-10_truck_10_n03417042_27486.JPEG
subject-07,2,260,1.14973402023315,boat,cat,128-0-10,1540_eid_s07_128-0-10_cat_10_n02123394_867.JPEG
subject-07,2,261,0.866366863250732,cat,dog,16-10-10,1541_eid_s07_16-10-10_dog_10_n02107142_16549.JPEG
subject-07,2,262,1.22040677070618,cat,knife,64-0-10,1542_eid_s07_64-0-10_knife_10_n03041632_13742.JPEG
subject-07,2,263,1.28316307067871,cat,elephant,4-10-10,1543_eid_s07_4-10-10_elephant_10_n02504458_2100.JPEG
subject-07,2,264,1.09400415420532,airplane,airplane,2-3-10,1544_eid_s07_2-3-10_airplane_10_n02690373_7276.JPEG
subject-07,2,265,1.0458550453186,keyboard,keyboard,1-10-10,1545_eid_s07_1-10-10_keyboard_10_n03085013_22820.JPEG
subject-07,2,266,0.948192834854126,cat,cat,16-3-10,1546_eid_s07_16-3-10_cat_10_n02123045_11826.JPEG
subject-07,2,267,0.702553987503052,clock,clock,2-0-10,1547_eid_s07_2-0-10_clock_10_n02708093_2043.JPEG
subject-07,2,268,1.06433701515198,car,car,4-10-10,1548_eid_s07_4-10-10_car_10_n04285008_8101.JPEG
subject-07,2,269,0.86536717414856,airplane,airplane,2-0-10,1549_eid_s07_2-0-10_airplane_10_n02690373_2498.JPEG
subject-07,2,270,1.00328707695007,truck,truck,2-3-10,1550_eid_s07_2-3-10_truck_10_n03796401_1789.JPEG
subject-07,2,271,0.781616926193237,car,car,1-3-10,1551_eid_s07_1-3-10_car_10_n03100240_7013.JPEG
subject-07,2,272,1.02199792861938,airplane,bear,4-0-10,1552_eid_s07_4-0-10_bear_10_n02134084_9156.JPEG
subject-07,2,273,0.922423839569092,oven,oven,8-3-10,1553_eid_s07_8-3-10_oven_10_n04111531_6172.JPEG
subject-07,2,274,1.01501297950745,chair,bird,32-10-10,1554_eid_s07_32-10-10_bird_10_n01818515_44085.JPEG
subject-07,2,275,1.27727508544922,bear,cat,128-3-10,1555_eid_s07_128-3-10_cat_10_n02123045_10263.JPEG
subject-07,2,276,0.817841053009033,chair,chair,16-0-10,1556_eid_s07_16-0-10_chair_10_n04429376_20025.JPEG
subject-07,2,277,1.2425491809845,oven,chair,32-10-10,1557_eid_s07_32-10-10_chair_10_n04429376_3278.JPEG
subject-07,2,278,0.913110971450806,cat,dog,4-3-10,1558_eid_s07_4-3-10_dog_10_n02096051_7557.JPEG
subject-07,2,279,1.00558304786682,truck,truck,8-3-10,1559_eid_s07_8-3-10_truck_10_n03417042_16737.JPEG
subject-07,2,280,1.48460602760315,bear,car,128-0-10,1560_eid_s07_128-0-10_car_10_n02814533_46219.JPEG
subject-07,2,281,1.30917882919312,car,chair,8-10-10,1561_eid_s07_8-10-10_chair_10_n02791124_3725.JPEG
subject-07,2,282,1.07134103775024,cat,bird,16-3-10,1562_eid_s07_16-3-10_bird_10_n01818515_449.JPEG
subject-07,2,283,0.725759029388428,clock,clock,4-0-10,1563_eid_s07_4-0-10_clock_10_n02708093_1546.JPEG
subject-07,2,284,1.01013493537903,dog,dog,1-3-10,1564_eid_s07_1-3-10_dog_10_n02108551_10977.JPEG
subject-07,2,285,0.858509063720703,airplane,chair,128-10-10,1565_eid_s07_128-10-10_chair_10_n02791124_5189.JPEG
subject-07,2,286,1.3102400302887,boat,airplane,64-0-10,1566_eid_s07_64-0-10_airplane_10_n02690373_4728.JPEG
subject-07,2,287,0.933914184570312,airplane,chair,16-0-10,1567_eid_s07_16-0-10_chair_10_n03376595_14029.JPEG
subject-07,2,288,1.31061291694641,boat,dog,8-0-10,1568_eid_s07_8-0-10_dog_10_n02112018_4232.JPEG
subject-07,2,289,0.843096971511841,bird,bird,8-10-10,1569_eid_s07_8-10-10_bird_10_n01558993_7625.JPEG
subject-07,2,290,0.697394847869873,airplane,airplane,2-0-10,1570_eid_s07_2-0-10_airplane_10_n02690373_5075.JPEG
subject-07,2,291,0.946150064468384,dog,dog,2-0-10,1571_eid_s07_2-0-10_dog_10_n02105855_7279.JPEG
subject-07,2,292,0.846396923065186,cat,truck,64-10-10,1572_eid_s07_64-10-10_truck_10_n03796401_19845.JPEG
subject-07,2,293,1.27691102027893,bear,oven,16-0-10,1573_eid_s07_16-0-10_oven_10_n04111531_9026.JPEG
subject-07,2,294,0.754878997802734,chair,chair,4-3-10,1574_eid_s07_4-3-10_chair_10_n04099969_9561.JPEG
subject-07,2,295,NaN,na,bear,4-0-10,1575_eid_s07_4-0-10_bear_10_n02133161_958.JPEG
subject-07,2,296,1.00127291679382,bird,bicycle,2-3-10,1576_eid_s07_2-3-10_bicycle_10_n03792782_5333.JPEG
subject-07,2,297,1.23195195198059,airplane,bottle,32-0-10,1577_eid_s07_32-0-10_bottle_10_n04557648_2206.JPEG
subject-07,2,298,0.871619939804077,cat,cat,16-3-10,1578_eid_s07_16-3-10_cat_10_n02123159_2482.JPEG
subject-07,2,299,0.963855028152466,keyboard,keyboard,4-10-10,1579_eid_s07_4-10-10_keyboard_10_n03085013_23271.JPEG
subject-07,2,300,1.20216012001038,keyboard,keyboard,16-3-10,1580_eid_s07_16-3-10_keyboard_10_n04505470_4566.JPEG
subject-07,2,301,1.13233304023743,airplane,airplane,4-0-10,1581_eid_s07_4-0-10_airplane_10_n02690373_2059.JPEG
subject-07,2,302,0.989189863204956,cat,keyboard,32-3-10,1582_eid_s07_32-3-10_keyboard_10_n04505470_4447.JPEG
subject-07,2,303,0.802542924880981,elephant,elephant,1-3-10,1583_eid_s07_1-3-10_elephant_10_n02504458_7642.JPEG
subject-07,2,304,1.18482112884521,chair,chair,2-0-10,1584_eid_s07_2-0-10_chair_10_n04099969_8474.JPEG
subject-07,2,305,0.955642938613892,cat,cat,4-0-10,1585_eid_s07_4-0-10_cat_10_n02123597_13671.JPEG
subject-07,2,306,0.678034782409668,airplane,airplane,8-0-10,1586_eid_s07_8-0-10_airplane_10_n02690373_6002.JPEG
subject-07,2,307,1.13285994529724,bear,cat,128-0-10,1587_eid_s07_128-0-10_cat_10_n02123159_1266.JPEG
subject-07,2,308,1.2571861743927,airplane,car,32-0-10,1588_eid_s07_32-0-10_car_10_n04285008_1026.JPEG
subject-07,2,309,0.773686170578003,bicycle,bicycle,16-0-10,1589_eid_s07_16-0-10_bicycle_10_n03792782_5130.JPEG
subject-07,2,310,0.798070907592773,boat,boat,1-10-10,1590_eid_s07_1-10-10_boat_10_n03662601_9127.JPEG
subject-07,2,311,0.728820085525513,bicycle,bicycle,2-0-10,1591_eid_s07_2-0-10_bicycle_10_n03792782_5318.JPEG
subject-07,2,312,0.615056037902832,oven,oven,2-3-10,1592_eid_s07_2-3-10_oven_10_n04111531_2163.JPEG
subject-07,2,313,0.631817102432251,clock,clock,2-0-10,1593_eid_s07_2-0-10_clock_10_n03196217_599.JPEG
subject-07,2,314,1.23848986625671,bear,boat,16-3-10,1594_eid_s07_16-3-10_boat_10_n02951358_7471.JPEG
subject-07,2,315,1.03286981582642,keyboard,keyboard,32-10-10,1595_eid_s07_32-10-10_keyboard_10_n04505470_3388.JPEG
subject-07,2,316,1.10957598686218,cat,truck,64-0-10,1596_eid_s07_64-0-10_truck_10_n04467665_3298.JPEG
subject-07,2,317,0.942122936248779,oven,clock,16-10-10,1597_eid_s07_16-10-10_clock_10_n03196217_5935.JPEG
subject-07,2,318,0.734546899795532,bicycle,bicycle,4-0-10,1598_eid_s07_4-0-10_bicycle_10_n03792782_5966.JPEG
subject-07,2,319,0.997284173965454,bird,bird,4-3-10,1599_eid_s07_4-3-10_bird_10_n02028035_7000.JPEG
subject-07,2,320,1.16682505607605,cat,cat,16-10-10,1600_eid_s07_16-10-10_cat_10_n02123159_8246.JPEG
subject-07,2,321,1.15948009490967,dog,dog,16-10-10,1601_eid_s07_16-10-10_dog_10_n02113624_411.JPEG
subject-07,2,322,0.891862154006958,cat,cat,8-0-10,1602_eid_s07_8-0-10_cat_10_n02123597_10529.JPEG
subject-07,2,323,1.22240400314331,elephant,knife,32-10-10,1603_eid_s07_32-10-10_knife_10_n03041632_41493.JPEG
subject-07,2,324,0.930770874023438,airplane,airplane,64-3-10,1604_eid_s07_64-3-10_airplane_10_n02690373_1005.JPEG
subject-07,2,325,1.33145618438721,airplane,boat,128-0-10,1605_eid_s07_128-0-10_boat_10_n03344393_11452.JPEG
subject-07,2,326,0.95573902130127,airplane,airplane,1-3-10,1606_eid_s07_1-3-10_airplane_10_n02690373_379.JPEG
subject-07,2,327,0.97220516204834,oven,oven,1-0-10,1607_eid_s07_1-0-10_oven_10_n04111531_5582.JPEG
subject-07,2,328,0.927077054977417,bird,bird,16-10-10,1608_eid_s07_16-10-10_bird_10_n01534433_10537.JPEG
subject-07,2,329,0.91913890838623,boat,elephant,128-0-10,1609_eid_s07_128-0-10_elephant_10_n02504013_4895.JPEG
subject-07,2,330,1.0894980430603,bear,bird,64-0-10,1610_eid_s07_64-0-10_bird_10_n02017213_13787.JPEG
subject-07,2,331,1.17389416694641,bear,bicycle,128-3-10,1611_eid_s07_128-3-10_bicycle_10_n02835271_7873.JPEG
subject-07,2,332,0.768762111663818,cat,cat,64-3-10,1612_eid_s07_64-3-10_cat_10_n02123159_13226.JPEG
subject-07,2,333,1.02905988693237,knife,knife,1-10-10,1613_eid_s07_1-10-10_knife_10_n03041632_32459.JPEG
subject-07,2,334,1.46939516067505,keyboard,oven,64-10-10,1614_eid_s07_64-10-10_oven_10_n04111531_4452.JPEG
subject-07,2,335,0.807894945144653,cat,cat,8-10-10,1615_eid_s07_8-10-10_cat_10_n02123159_5711.JPEG
subject-07,2,336,1.07066106796265,truck,truck,1-3-10,1616_eid_s07_1-3-10_truck_10_n03417042_19020.JPEG
subject-07,2,337,0.848798036575317,bear,bear,1-3-10,1617_eid_s07_1-3-10_bear_10_n02134418_280.JPEG
subject-07,2,338,1.00864601135254,oven,clock,2-0-10,1618_eid_s07_2-0-10_clock_10_n03196217_5120.JPEG
subject-07,2,339,0.85519003868103,clock,clock,4-10-10,1619_eid_s07_4-10-10_clock_10_n02708093_7060.JPEG
subject-07,2,340,0.811708211898804,bicycle,bicycle,1-10-10,1620_eid_s07_1-10-10_bicycle_10_n03792782_21125.JPEG
subject-07,2,341,0.888571977615356,truck,truck,8-10-10,1621_eid_s07_8-10-10_truck_10_n04467665_38695.JPEG
subject-07,2,342,0.858990907669067,cat,car,128-3-10,1622_eid_s07_128-3-10_car_10_n03100240_3336.JPEG
subject-07,2,343,1.09726715087891,airplane,boat,16-3-10,1623_eid_s07_16-3-10_boat_10_n03344393_1610.JPEG
subject-07,2,344,0.929703950881958,bicycle,bird,32-0-10,1624_eid_s07_32-0-10_bird_10_n01622779_6540.JPEG
subject-07,2,345,1.50006890296936,dog,airplane,64-3-10,1625_eid_s07_64-3-10_airplane_10_n02690373_3493.JPEG
subject-07,2,346,1.24680614471436,bottle,clock,8-3-10,1626_eid_s07_8-3-10_clock_10_n04548280_5204.JPEG
subject-07,2,347,1.06830310821533,bird,bird,2-0-10,1627_eid_s07_2-0-10_bird_10_n01798484_9959.JPEG
subject-07,2,348,1.17666602134705,bottle,bottle,1-0-10,1628_eid_s07_1-0-10_bottle_10_n03983396_4188.JPEG
subject-07,2,349,1.16066408157349,bear,bear,32-10-10,1629_eid_s07_32-10-10_bear_10_n02133161_1571.JPEG
subject-07,2,350,0.971472024917603,knife,knife,8-10-10,1630_eid_s07_8-10-10_knife_10_n03041632_11475.JPEG
subject-07,2,351,1.24832987785339,bear,bottle,64-0-10,1631_eid_s07_64-0-10_bottle_10_n03983396_11303.JPEG
subject-07,2,352,1.00283002853394,bird,chair,32-3-10,1632_eid_s07_32-3-10_chair_10_n04099969_21455.JPEG
subject-07,2,353,1.07227993011475,airplane,bird,32-0-10,1633_eid_s07_32-0-10_bird_10_n01833805_7976.JPEG
subject-07,2,354,NaN,na,clock,128-3-10,1634_eid_s07_128-3-10_clock_10_n02708093_2393.JPEG
subject-07,2,355,1.10555696487427,bicycle,keyboard,32-10-10,1635_eid_s07_32-10-10_keyboard_10_n03085013_1483.JPEG
subject-07,2,356,0.73003101348877,oven,oven,8-10-10,1636_eid_s07_8-10-10_oven_10_n04111531_4562.JPEG
subject-07,2,357,0.675719022750854,bear,bear,2-3-10,1637_eid_s07_2-3-10_bear_10_n02134084_24242.JPEG
subject-07,2,358,1.06821608543396,bicycle,airplane,128-10-10,1638_eid_s07_128-10-10_airplane_10_n02690373_1512.JPEG
subject-07,2,359,0.860728025436401,oven,oven,4-3-10,1639_eid_s07_4-3-10_oven_10_n04111531_8081.JPEG
subject-07,2,360,1.00760293006897,dog,dog,8-0-10,1640_eid_s07_8-0-10_dog_10_n02107908_8473.JPEG
subject-07,2,361,0.848015069961548,bicycle,bicycle,1-0-10,1641_eid_s07_1-0-10_bicycle_10_n03792782_551.JPEG
subject-07,2,362,1.11856698989868,bird,cat,2-0-10,1642_eid_s07_2-0-10_cat_10_n02123159_6415.JPEG
subject-07,2,363,0.842951059341431,bear,bear,4-10-10,1643_eid_s07_4-10-10_bear_10_n02133161_8668.JPEG
subject-07,2,364,1.27869486808777,dog,truck,64-10-10,1644_eid_s07_64-10-10_truck_10_n03417042_17817.JPEG
subject-07,2,365,1.01907014846802,cat,bear,128-3-10,1645_eid_s07_128-3-10_bear_10_n02134418_5027.JPEG
subject-07,2,366,0.95763897895813,truck,truck,16-10-10,1646_eid_s07_16-10-10_truck_10_n03796401_12130.JPEG
subject-07,2,367,0.966190099716187,bicycle,airplane,128-10-10,1647_eid_s07_128-10-10_airplane_10_n02690373_19666.JPEG
subject-07,2,368,1.0608229637146,bear,truck,16-0-10,1648_eid_s07_16-0-10_truck_10_n03796401_24309.JPEG
subject-07,2,369,0.961210012435913,car,car,4-0-10,1649_eid_s07_4-0-10_car_10_n04285008_3414.JPEG
subject-07,2,370,1.01495599746704,knife,boat,4-3-10,1650_eid_s07_4-3-10_boat_10_n02951358_9958.JPEG
subject-07,2,371,NaN,na,truck,2-0-10,1651_eid_s07_2-0-10_truck_10_n03417042_7049.JPEG
subject-07,2,372,1.22436499595642,dog,bear,2-3-10,1652_eid_s07_2-3-10_bear_10_n02134418_225.JPEG
subject-07,2,373,1.18688797950745,cat,truck,64-0-10,1653_eid_s07_64-0-10_truck_10_n03417042_8248.JPEG
subject-07,2,374,1.26309609413147,boat,bear,2-10-10,1654_eid_s07_2-10-10_bear_10_n02134418_6088.JPEG
subject-07,2,375,0.903487920761108,elephant,elephant,4-10-10,1655_eid_s07_4-10-10_elephant_10_n02504458_11289.JPEG
subject-07,2,376,1.28016209602356,bottle,bird,32-3-10,1656_eid_s07_32-3-10_bird_10_n02006656_2048.JPEG
subject-07,2,377,0.787815093994141,keyboard,keyboard,8-3-10,1657_eid_s07_8-3-10_keyboard_10_n03085013_20483.JPEG
subject-07,2,378,1.26662111282349,knife,bottle,1-10-10,1658_eid_s07_1-10-10_bottle_10_n04557648_3046.JPEG
subject-07,2,379,1.15912199020386,clock,airplane,32-10-10,1659_eid_s07_32-10-10_airplane_10_n02690373_4671.JPEG
subject-07,2,380,1.21552681922913,airplane,cat,16-0-10,1660_eid_s07_16-0-10_cat_10_n02123394_3307.JPEG
subject-07,2,381,1.27003383636475,oven,bottle,8-0-10,1661_eid_s07_8-0-10_bottle_10_n03983396_4364.JPEG
subject-07,2,382,0.954624891281128,airplane,truck,32-3-10,1662_eid_s07_32-3-10_truck_10_n04467665_74008.JPEG
subject-07,2,383,0.98701810836792,elephant,elephant,8-0-10,1663_eid_s07_8-0-10_elephant_10_n02504013_1916.JPEG
subject-07,2,384,1.50025987625122,oven,bird,4-10-10,1664_eid_s07_4-10-10_bird_10_n01514859_2635.JPEG
subject-07,2,385,0.812257051467896,cat,bicycle,64-0-10,1665_eid_s07_64-0-10_bicycle_10_n02835271_20907.JPEG
subject-07,2,386,0.866600036621094,keyboard,chair,16-10-10,1666_eid_s07_16-10-10_chair_10_n02791124_13704.JPEG
subject-07,2,387,1.30543303489685,cat,boat,64-0-10,1667_eid_s07_64-0-10_boat_10_n02951358_3747.JPEG
subject-07,2,388,1.02950596809387,airplane,airplane,128-3-10,1668_eid_s07_128-3-10_airplane_10_n02690373_2150.JPEG
subject-07,2,389,1.10847496986389,bear,oven,128-0-10,1669_eid_s07_128-0-10_oven_10_n04111531_9123.JPEG
subject-07,2,390,1.07632088661194,bottle,clock,128-10-10,1670_eid_s07_128-10-10_clock_10_n04548280_4758.JPEG
subject-07,2,391,1.29214191436768,cat,keyboard,128-0-10,1671_eid_s07_128-0-10_keyboard_10_n03085013_8325.JPEG
subject-07,2,392,0.792129993438721,bicycle,bicycle,8-10-10,1672_eid_s07_8-10-10_bicycle_10_n02835271_6074.JPEG
subject-07,2,393,1.2768759727478,dog,dog,4-3-10,1673_eid_s07_4-3-10_dog_10_n02102177_4393.JPEG
subject-07,2,394,1.22510004043579,bird,knife,16-0-10,1674_eid_s07_16-0-10_knife_10_n03041632_23667.JPEG
subject-07,2,395,0.971616983413696,boat,airplane,128-3-10,1675_eid_s07_128-3-10_airplane_10_n02690373_18412.JPEG
subject-07,2,396,0.955893993377686,boat,boat,1-10-10,1676_eid_s07_1-10-10_boat_10_n02951358_11369.JPEG
subject-07,2,397,0.788679122924805,oven,oven,1-0-10,1677_eid_s07_1-0-10_oven_10_n04111531_18949.JPEG
subject-07,2,398,1.02932906150818,airplane,truck,32-3-10,1678_eid_s07_32-3-10_truck_10_n04467665_3387.JPEG
subject-07,2,399,0.867900848388672,elephant,elephant,4-3-10,1679_eid_s07_4-3-10_elephant_10_n02504458_4939.JPEG
subject-07,2,400,1.23829388618469,dog,bottle,128-10-10,1680_eid_s07_128-10-10_bottle_10_n04591713_16710.JPEG
subject-07,2,401,1.24658012390137,cat,bird,16-3-10,1681_eid_s07_16-3-10_bird_10_n02018795_3913.JPEG
subject-07,2,402,1.13118100166321,bear,bicycle,8-3-10,1682_eid_s07_8-3-10_bicycle_10_n02835271_14016.JPEG
subject-07,2,403,1.31013321876526,bird,chair,64-10-10,1683_eid_s07_64-10-10_chair_10_n04429376_19101.JPEG
subject-07,2,404,0.980388879776001,boat,boat,128-3-10,1684_eid_s07_128-3-10_boat_10_n03662601_10734.JPEG
subject-07,2,405,0.950150966644287,truck,truck,8-10-10,1685_eid_s07_8-10-10_truck_10_n03417042_16664.JPEG
subject-07,2,406,0.972501039505005,dog,dog,4-0-10,1686_eid_s07_4-0-10_dog_10_n02112350_3925.JPEG
subject-07,2,407,1.28908896446228,cat,car,32-3-10,1687_eid_s07_32-3-10_car_10_n04285008_6087.JPEG
subject-07,2,408,0.751059055328369,cat,cat,2-10-10,1688_eid_s07_2-10-10_cat_10_n02124075_12698.JPEG
subject-07,2,409,1.31415605545044,boat,knife,128-3-10,1689_eid_s07_128-3-10_knife_10_n03041632_32785.JPEG
subject-07,2,410,0.938540935516357,oven,keyboard,16-10-10,1690_eid_s07_16-10-10_keyboard_10_n03085013_7613.JPEG
subject-07,2,411,1.02261781692505,car,boat,128-0-10,1691_eid_s07_128-0-10_boat_10_n04273569_8603.JPEG
subject-07,2,412,1.26128196716309,bear,bird,64-10-10,1692_eid_s07_64-10-10_bird_10_n01616318_3082.JPEG
subject-07,2,413,0.993507146835327,bottle,bottle,8-10-10,1693_eid_s07_8-10-10_bottle_10_n04579145_2519.JPEG
subject-07,2,414,0.940345048904419,cat,cat,1-10-10,1694_eid_s07_1-10-10_cat_10_n02125311_21893.JPEG
subject-07,2,415,0.872779130935669,airplane,bicycle,16-0-10,1695_eid_s07_16-0-10_bicycle_10_n03792782_11331.JPEG
subject-07,2,416,0.789499998092651,boat,boat,4-3-10,1696_eid_s07_4-3-10_boat_10_n04612504_10005.JPEG
subject-07,2,417,0.798102855682373,cat,oven,16-10-10,1697_eid_s07_16-10-10_oven_10_n04111531_14325.JPEG
subject-07,2,418,0.86035418510437,clock,clock,4-10-10,1698_eid_s07_4-10-10_clock_10_n02708093_4798.JPEG
subject-07,2,419,0.73700213432312,oven,oven,1-10-10,1699_eid_s07_1-10-10_oven_10_n04111531_14280.JPEG
subject-07,2,420,0.72356104850769,boat,boat,2-3-10,1700_eid_s07_2-3-10_boat_10_n04612504_972.JPEG
subject-07,2,421,1.02919507026672,airplane,cat,8-10-10,1701_eid_s07_8-10-10_cat_10_n02123159_1619.JPEG
subject-07,2,422,1.15377807617188,bear,bear,1-10-10,1702_eid_s07_1-10-10_bear_10_n02134084_4184.JPEG
subject-07,2,423,0.924479007720947,oven,oven,32-10-10,1703_eid_s07_32-10-10_oven_10_n04111531_2006.JPEG
subject-07,2,424,1.00813913345337,dog,dog,16-10-10,1704_eid_s07_16-10-10_dog_10_n02105855_9207.JPEG
subject-07,2,425,0.916688919067383,elephant,elephant,2-3-10,1705_eid_s07_2-3-10_elephant_10_n02504013_1644.JPEG
subject-07,2,426,0.763313055038452,oven,oven,4-10-10,1706_eid_s07_4-10-10_oven_10_n04111531_4234.JPEG
subject-07,2,427,0.931519985198975,cat,cat,1-0-10,1707_eid_s07_1-0-10_cat_10_n02124075_5643.JPEG
subject-07,2,428,1.08528399467468,elephant,elephant,1-3-10,1708_eid_s07_1-3-10_elephant_10_n02504458_361.JPEG
subject-07,2,429,0.832226037979126,cat,dog,128-3-10,1709_eid_s07_128-3-10_dog_10_n02109961_63208.JPEG
subject-07,2,430,1.09384608268738,cat,dog,32-3-10,1710_eid_s07_32-3-10_dog_10_n02091244_1917.JPEG
subject-07,2,431,0.756300926208496,oven,oven,4-3-10,1711_eid_s07_4-3-10_oven_10_n04111531_10093.JPEG
subject-07,2,432,0.97867488861084,cat,bottle,128-10-10,1712_eid_s07_128-10-10_bottle_10_n02823428_2569.JPEG
subject-07,2,433,0.963016033172607,airplane,airplane,1-10-10,1713_eid_s07_1-10-10_airplane_10_n02690373_9.JPEG
subject-07,2,434,0.741644144058228,truck,truck,1-0-10,1714_eid_s07_1-0-10_truck_10_n03417042_8518.JPEG
subject-07,2,435,1.13362693786621,dog,dog,4-3-10,1715_eid_s07_4-3-10_dog_10_n02089078_6727.JPEG
subject-07,2,436,1.50008392333984,cat,cat,64-3-10,1716_eid_s07_64-3-10_cat_10_n02123394_1168.JPEG
subject-07,2,437,0.680356025695801,bicycle,bicycle,4-10-10,1717_eid_s07_4-10-10_bicycle_10_n03792782_3334.JPEG
subject-07,2,438,1.03169894218445,bottle,bottle,2-0-10,1718_eid_s07_2-0-10_bottle_10_n02823428_7763.JPEG
subject-07,2,439,1.00221300125122,airplane,truck,32-10-10,1719_eid_s07_32-10-10_truck_10_n03417042_15045.JPEG
subject-07,2,440,0.880568981170654,bear,cat,16-0-10,1720_eid_s07_16-0-10_cat_10_n02123159_4020.JPEG
subject-07,2,441,0.735432147979736,oven,oven,8-3-10,1721_eid_s07_8-3-10_oven_10_n04111531_21248.JPEG
subject-07,2,442,1.07419490814209,bird,bird,8-0-10,1722_eid_s07_8-0-10_bird_10_n01796340_11430.JPEG
subject-07,2,443,1.34447813034058,cat,bottle,128-3-10,1723_eid_s07_128-3-10_bottle_10_n04557648_4442.JPEG
subject-07,2,444,0.968833923339844,oven,keyboard,128-10-10,1724_eid_s07_128-10-10_keyboard_10_n03085013_20891.JPEG
subject-07,2,445,1.19148588180542,bird,boat,8-3-10,1725_eid_s07_8-3-10_boat_10_n03662601_34529.JPEG
subject-07,2,446,1.13786506652832,bear,truck,64-0-10,1726_eid_s07_64-0-10_truck_10_n03417042_1148.JPEG
subject-07,2,447,0.948712110519409,boat,bicycle,32-0-10,1727_eid_s07_32-0-10_bicycle_10_n03792782_50904.JPEG
subject-07,2,448,0.941284894943237,elephant,elephant,4-0-10,1728_eid_s07_4-0-10_elephant_10_n02504458_4988.JPEG
subject-07,2,449,0.958078145980835,bird,bird,8-10-10,1729_eid_s07_8-10-10_bird_10_n02018207_12944.JPEG
subject-07,2,450,0.88034200668335,bear,bird,128-10-10,1730_eid_s07_128-10-10_bird_10_n01824575_3217.JPEG
subject-07,2,451,1.04279208183289,boat,bicycle,8-0-10,1731_eid_s07_8-0-10_bicycle_10_n02835271_15175.JPEG
subject-07,2,452,1.22914409637451,knife,knife,2-0-10,1732_eid_s07_2-0-10_knife_10_n03041632_86554.JPEG
subject-07,2,453,1.10608506202698,airplane,car,128-10-10,1733_eid_s07_128-10-10_car_10_n03100240_5160.JPEG
subject-07,2,454,0.808336019515991,oven,oven,4-3-10,1734_eid_s07_4-3-10_oven_10_n04111531_20099.JPEG
subject-07,2,455,0.684258937835693,boat,chair,64-3-10,1735_eid_s07_64-3-10_chair_10_n02791124_15606.JPEG
subject-07,2,456,1.2386589050293,boat,clock,32-3-10,1736_eid_s07_32-3-10_clock_10_n02708093_2469.JPEG
subject-07,2,457,1.09296202659607,airplane,cat,64-0-10,1737_eid_s07_64-0-10_cat_10_n02123394_4894.JPEG
subject-07,2,458,0.893715143203735,car,car,8-10-10,1738_eid_s07_8-10-10_car_10_n04285008_3056.JPEG
subject-07,2,459,1.23198509216309,clock,bottle,16-10-10,1739_eid_s07_16-10-10_bottle_10_n04560804_4968.JPEG
subject-07,2,460,0.764826059341431,car,truck,8-0-10,1740_eid_s07_8-0-10_truck_10_n03796401_26659.JPEG
subject-07,2,461,1.10248708724976,airplane,truck,16-0-10,1741_eid_s07_16-0-10_truck_10_n03417042_19905.JPEG
subject-07,2,462,1.03301906585693,oven,car,128-10-10,1742_eid_s07_128-10-10_car_10_n03100240_17780.JPEG
subject-07,2,463,0.82544994354248,keyboard,keyboard,1-0-10,1743_eid_s07_1-0-10_keyboard_10_n04505470_4684.JPEG
subject-07,2,464,0.949897050857544,airplane,airplane,8-0-10,1744_eid_s07_8-0-10_airplane_10_n02690373_5007.JPEG
subject-07,2,465,1.03352093696594,cat,bear,64-10-10,1745_eid_s07_64-10-10_bear_10_n02134418_1259.JPEG
subject-07,2,466,0.664130926132202,elephant,elephant,2-10-10,1746_eid_s07_2-10-10_elephant_10_n02504458_11884.JPEG
subject-07,2,467,0.788507223129272,oven,bottle,4-3-10,1747_eid_s07_4-3-10_bottle_10_n04560804_350.JPEG
subject-07,2,468,0.888900995254517,bear,bottle,16-0-10,1748_eid_s07_16-0-10_bottle_10_n04591713_3982.JPEG
subject-07,2,469,0.903356075286865,truck,truck,4-10-10,1749_eid_s07_4-10-10_truck_10_n03796401_4868.JPEG
subject-07,2,470,1.39550185203552,truck,dog,32-10-10,1750_eid_s07_32-10-10_dog_10_n02105162_7374.JPEG
subject-07,2,471,0.828214168548584,oven,oven,64-10-10,1751_eid_s07_64-10-10_oven_10_n04111531_11848.JPEG
subject-07,2,472,0.828535079956055,cat,knife,64-10-10,1752_eid_s07_64-10-10_knife_10_n03041632_36806.JPEG
subject-07,2,473,1.02892303466797,boat,dog,128-0-10,1753_eid_s07_128-0-10_dog_10_n02101006_11871.JPEG
subject-07,2,474,0.815579891204834,oven,bird,128-10-10,1754_eid_s07_128-10-10_bird_10_n01818515_2284.JPEG
subject-07,2,475,0.778233051300049,bird,bird,4-3-10,1755_eid_s07_4-3-10_bird_10_n01824575_1212.JPEG
subject-07,2,476,0.932962894439697,knife,knife,8-0-10,1756_eid_s07_8-0-10_knife_10_n03041632_45775.JPEG
subject-07,2,477,NaN,na,truck,2-0-10,1757_eid_s07_2-0-10_truck_10_n03796401_5351.JPEG
subject-07,2,478,1.22606897354126,oven,clock,4-3-10,1758_eid_s07_4-3-10_clock_10_n04548280_7135.JPEG
subject-07,2,479,1.25954699516296,boat,boat,64-0-10,1759_eid_s07_64-0-10_boat_10_n04273569_16456.JPEG
subject-07,2,480,0.911278963088989,cat,oven,64-3-10,1760_eid_s07_64-3-10_oven_10_n04111531_3072.JPEG
subject-07,2,481,0.859580039978027,bottle,bottle,16-10-10,1761_eid_s07_16-10-10_bottle_10_n04579145_1536.JPEG
subject-07,2,482,0.781990051269531,boat,boat,1-3-10,1762_eid_s07_1-3-10_boat_10_n02951358_2732.JPEG
subject-07,2,483,1.42076802253723,oven,chair,4-0-10,1763_eid_s07_4-0-10_chair_10_n04429376_4773.JPEG
subject-07,2,484,0.929103851318359,cat,chair,32-3-10,1764_eid_s07_32-3-10_chair_10_n04429376_28352.JPEG
subject-07,2,485,1.02570486068726,elephant,elephant,16-0-10,1765_eid_s07_16-0-10_elephant_10_n02504458_3953.JPEG
subject-07,2,486,1.01221680641174,oven,car,16-10-10,1766_eid_s07_16-10-10_car_10_n04285008_7542.JPEG
subject-07,2,487,1.03487610816956,car,cat,128-0-10,1767_eid_s07_128-0-10_cat_10_n02123045_7014.JPEG
subject-07,2,488,0.913029909133911,bicycle,bicycle,16-10-10,1768_eid_s07_16-10-10_bicycle_10_n03792782_10243.JPEG
subject-07,2,489,1.21356511116028,cat,bottle,32-0-10,1769_eid_s07_32-0-10_bottle_10_n03937543_6399.JPEG
subject-07,2,490,0.822110176086426,bottle,bottle,8-3-10,1770_eid_s07_8-3-10_bottle_10_n04591713_5989.JPEG
subject-07,2,491,1.16862487792969,boat,cat,64-3-10,1771_eid_s07_64-3-10_cat_10_n02125311_38252.JPEG
subject-07,2,492,0.783156156539917,boat,boat,4-10-10,1772_eid_s07_4-10-10_boat_10_n03662601_8171.JPEG
subject-07,2,493,0.831516027450562,cat,keyboard,16-3-10,1773_eid_s07_16-3-10_keyboard_10_n03085013_3078.JPEG
subject-07,2,494,0.984149932861328,boat,boat,2-0-10,1774_eid_s07_2-0-10_boat_10_n02951358_51218.JPEG
subject-07,2,495,1.1327908039093,bear,bear,2-0-10,1775_eid_s07_2-0-10_bear_10_n02133161_14154.JPEG
subject-07,2,496,1.05525517463684,cat,bottle,32-0-10,1776_eid_s07_32-0-10_bottle_10_n03937543_3632.JPEG
subject-07,2,497,0.895876884460449,airplane,airplane,4-3-10,1777_eid_s07_4-3-10_airplane_10_n02690373_5773.JPEG
subject-07,2,498,1.08857703208923,airplane,airplane,8-0-10,1778_eid_s07_8-0-10_airplane_10_n02690373_290.JPEG
subject-07,2,499,0.804829835891724,clock,clock,2-0-10,1779_eid_s07_2-0-10_clock_10_n02708093_910.JPEG
subject-07,2,500,0.821604013442993,cat,cat,4-0-10,1780_eid_s07_4-0-10_cat_10_n02125311_27769.JPEG
subject-07,2,501,1.22781300544739,keyboard,knife,32-3-10,1781_eid_s07_32-3-10_knife_10_n03041632_25603.JPEG
subject-07,2,502,0.952327013015747,oven,oven,16-0-10,1782_eid_s07_16-0-10_oven_10_n04111531_10339.JPEG
subject-07,2,503,0.828176975250244,keyboard,clock,32-3-10,1783_eid_s07_32-3-10_clock_10_n03196217_4537.JPEG
subject-07,2,504,1.22295212745667,bottle,knife,32-0-10,1784_eid_s07_32-0-10_knife_10_n03041632_3005.JPEG
subject-07,2,505,1.01533913612366,keyboard,keyboard,2-0-10,1785_eid_s07_2-0-10_keyboard_10_n03085013_14279.JPEG
subject-07,2,506,1.35105800628662,oven,car,32-10-10,1786_eid_s07_32-10-10_car_10_n03100240_17587.JPEG
subject-07,2,507,1.14563798904419,truck,truck,4-0-10,1787_eid_s07_4-0-10_truck_10_n03796401_11628.JPEG
subject-07,2,508,1.29220199584961,cat,cat,16-0-10,1788_eid_s07_16-0-10_cat_10_n02123045_2038.JPEG
subject-07,2,509,0.776485919952393,airplane,airplane,1-0-10,1789_eid_s07_1-0-10_airplane_10_n02690373_3709.JPEG
subject-07,2,510,1.14704513549805,airplane,bicycle,8-0-10,1790_eid_s07_8-0-10_bicycle_10_n03792782_20007.JPEG
subject-07,2,511,0.755542993545532,bear,bear,32-10-10,1791_eid_s07_32-10-10_bear_10_n02133161_610.JPEG
subject-07,2,512,0.979858875274658,airplane,airplane,16-10-10,1792_eid_s07_16-10-10_airplane_10_n02690373_2935.JPEG
subject-07,2,513,0.798871040344238,boat,boat,4-0-10,1793_eid_s07_4-0-10_boat_10_n02951358_34766.JPEG
subject-07,2,514,1.03181195259094,dog,dog,4-10-10,1794_eid_s07_4-10-10_dog_10_n02093859_4247.JPEG
subject-07,2,515,1.00008511543274,cat,chair,64-0-10,1795_eid_s07_64-0-10_chair_10_n04429376_694.JPEG
subject-07,2,516,0.932622909545898,boat,elephant,64-3-10,1796_eid_s07_64-3-10_elephant_10_n02504458_1712.JPEG
subject-07,2,517,0.710819959640503,boat,boat,4-10-10,1797_eid_s07_4-10-10_boat_10_n02951358_9622.JPEG
subject-07,2,518,0.917862892150879,bird,bird,16-3-10,1798_eid_s07_16-3-10_bird_10_n01582220_6675.JPEG
subject-07,2,519,1.08007597923279,oven,oven,1-3-10,1799_eid_s07_1-3-10_oven_10_n04111531_7252.JPEG
subject-07,2,520,1.08074307441711,boat,car,16-0-10,1800_eid_s07_16-0-10_car_10_n02814533_4833.JPEG
subject-07,2,521,1.39451313018799,oven,oven,8-3-10,1801_eid_s07_8-3-10_oven_10_n04111531_5290.JPEG
subject-07,2,522,NaN,na,knife,64-0-10,1802_eid_s07_64-0-10_knife_10_n03041632_48062.JPEG
subject-07,2,523,0.957393169403076,airplane,airplane,16-10-10,1803_eid_s07_16-10-10_airplane_10_n02690373_5374.JPEG
subject-07,2,524,0.798005104064941,cat,cat,128-3-10,1804_eid_s07_128-3-10_cat_10_n02123597_8809.JPEG
subject-07,2,525,0.682451009750366,bird,bird,8-3-10,1805_eid_s07_8-3-10_bird_10_n01855672_9585.JPEG
subject-07,2,526,1.14483308792114,truck,truck,4-10-10,1806_eid_s07_4-10-10_truck_10_n04467665_66118.JPEG
subject-07,2,527,1.04518604278564,truck,truck,4-10-10,1807_eid_s07_4-10-10_truck_10_n03417042_1258.JPEG
subject-07,2,528,0.758813858032227,bicycle,bicycle,1-0-10,1808_eid_s07_1-0-10_bicycle_10_n03792782_4844.JPEG
subject-07,2,529,0.759161949157715,boat,boat,2-3-10,1809_eid_s07_2-3-10_boat_10_n03662601_1834.JPEG
subject-07,2,530,1.00593686103821,airplane,airplane,16-10-10,1810_eid_s07_16-10-10_airplane_10_n02690373_8446.JPEG
subject-07,2,531,1.25260901451111,bear,oven,128-3-10,1811_eid_s07_128-3-10_oven_10_n04111531_594.JPEG
subject-07,2,532,0.985377073287964,oven,clock,64-10-10,1812_eid_s07_64-10-10_clock_10_n02708093_2442.JPEG
subject-07,2,533,0.893711090087891,bird,boat,8-0-10,1813_eid_s07_8-0-10_boat_10_n03662601_23903.JPEG
subject-07,2,534,1.17006397247314,airplane,boat,32-3-10,1814_eid_s07_32-3-10_boat_10_n04273569_7097.JPEG
subject-07,2,535,0.878428936004639,clock,clock,2-3-10,1815_eid_s07_2-3-10_clock_10_n04548280_5516.JPEG
subject-07,2,536,1.28660821914673,boat,airplane,128-0-10,1816_eid_s07_128-0-10_airplane_10_n02690373_15411.JPEG
subject-07,2,537,1.11676788330078,car,car,2-3-10,1817_eid_s07_2-3-10_car_10_n04285008_6373.JPEG
subject-07,2,538,1.27881002426147,cat,elephant,128-3-10,1818_eid_s07_128-3-10_elephant_10_n02504013_3017.JPEG
subject-07,2,539,0.884974002838135,airplane,truck,32-10-10,1819_eid_s07_32-10-10_truck_10_n04467665_23847.JPEG
subject-07,2,540,1.14659595489502,bicycle,bicycle,32-10-10,1820_eid_s07_32-10-10_bicycle_10_n03792782_18180.JPEG
subject-07,2,541,0.647212982177734,cat,cat,4-3-10,1821_eid_s07_4-3-10_cat_10_n02123597_2549.JPEG
subject-07,2,542,1.03987908363342,airplane,dog,32-10-10,1822_eid_s07_32-10-10_dog_10_n02108915_270.JPEG
subject-07,2,543,0.809861898422241,dog,dog,2-3-10,1823_eid_s07_2-3-10_dog_10_n02091244_283.JPEG
subject-07,2,544,1.43988585472107,bottle,bottle,2-3-10,1824_eid_s07_2-3-10_bottle_10_n03937543_4362.JPEG
subject-07,2,545,0.732567071914673,cat,cat,2-10-10,1825_eid_s07_2-10-10_cat_10_n02123597_4664.JPEG
subject-07,2,546,0.765460014343262,knife,knife,2-10-10,1826_eid_s07_2-10-10_knife_10_n03041632_13645.JPEG
subject-07,2,547,0.804347991943359,bottle,bottle,4-0-10,1827_eid_s07_4-0-10_bottle_10_n04557648_999.JPEG
subject-07,2,548,0.812957048416138,cat,bottle,16-0-10,1828_eid_s07_16-0-10_bottle_10_n04557648_3405.JPEG
subject-07,2,549,0.689327001571655,clock,clock,2-0-10,1829_eid_s07_2-0-10_clock_10_n04548280_310.JPEG
subject-07,2,550,1.02615690231323,boat,elephant,32-3-10,1830_eid_s07_32-3-10_elephant_10_n02504458_1041.JPEG
subject-07,2,551,1.15660905838013,keyboard,bicycle,32-0-10,1831_eid_s07_32-0-10_bicycle_10_n02835271_25613.JPEG
subject-07,2,552,0.973064184188843,cat,cat,64-0-10,1832_eid_s07_64-0-10_cat_10_n02124075_3661.JPEG
subject-07,2,553,0.832810878753662,boat,bicycle,128-10-10,1833_eid_s07_128-10-10_bicycle_10_n03792782_19362.JPEG
subject-07,2,554,0.7413330078125,elephant,elephant,4-10-10,1834_eid_s07_4-10-10_elephant_10_n02504013_6572.JPEG
subject-07,2,555,1.1363410949707,bear,chair,64-0-10,1835_eid_s07_64-0-10_chair_10_n04099969_12279.JPEG
subject-07,2,556,0.974809885025024,elephant,elephant,2-0-10,1836_eid_s07_2-0-10_elephant_10_n02504013_6139.JPEG
subject-07,2,557,0.937320947647095,knife,chair,16-10-10,1837_eid_s07_16-10-10_chair_10_n03376595_8915.JPEG
subject-07,2,558,0.921962022781372,airplane,airplane,2-10-10,1838_eid_s07_2-10-10_airplane_10_n02690373_7239.JPEG
subject-07,2,559,0.954570055007935,dog,dog,8-10-10,1839_eid_s07_8-10-10_dog_10_n02105251_4660.JPEG
subject-07,2,560,0.901177167892456,car,clock,64-3-10,1840_eid_s07_64-3-10_clock_10_n04548280_4743.JPEG
subject-07,2,561,0.99409294128418,bear,bird,32-0-10,1841_eid_s07_32-0-10_bird_10_n02025239_3562.JPEG
subject-07,2,562,1.18646693229675,boat,boat,64-0-10,1842_eid_s07_64-0-10_boat_10_n03344393_8319.JPEG
subject-07,2,563,1.0868399143219,airplane,airplane,32-10-10,1843_eid_s07_32-10-10_airplane_10_n02690373_18479.JPEG
subject-07,2,564,0.964534997940063,chair,chair,2-0-10,1844_eid_s07_2-0-10_chair_10_n04099969_16670.JPEG
subject-07,2,565,0.88720703125,bear,bear,1-0-10,1845_eid_s07_1-0-10_bear_10_n02134084_19791.JPEG
subject-07,2,566,0.819729089736938,boat,boat,1-3-10,1846_eid_s07_1-3-10_boat_10_n04612504_17921.JPEG
subject-07,2,567,1.05788516998291,knife,knife,8-3-10,1847_eid_s07_8-3-10_knife_10_n03041632_21723.JPEG
subject-07,2,568,1.29641699790955,bear,oven,64-3-10,1848_eid_s07_64-3-10_oven_10_n04111531_1945.JPEG
subject-07,2,569,0.829100131988525,bottle,bottle,4-10-10,1849_eid_s07_4-10-10_bottle_10_n02823428_728.JPEG
subject-07,2,570,1.12141585350037,bear,bird,16-0-10,1850_eid_s07_16-0-10_bird_10_n01795545_16921.JPEG
subject-07,2,571,0.982197999954224,boat,boat,4-3-10,1851_eid_s07_4-3-10_boat_10_n02951358_9933.JPEG
subject-07,2,572,1.00656604766846,airplane,knife,16-0-10,1852_eid_s07_16-0-10_knife_10_n03041632_44363.JPEG
subject-07,2,573,1.08515191078186,oven,truck,128-0-10,1853_eid_s07_128-0-10_truck_10_n03796401_23366.JPEG
subject-07,2,574,0.885885000228882,clock,clock,8-0-10,1854_eid_s07_8-0-10_clock_10_n04548280_2229.JPEG
subject-07,2,575,0.862323999404907,airplane,airplane,16-10-10,1855_eid_s07_16-10-10_airplane_10_n02690373_763.JPEG
subject-07,2,576,1.02484512329102,airplane,bear,8-0-10,1856_eid_s07_8-0-10_bear_10_n02134084_404.JPEG
subject-07,2,577,0.941379070281982,boat,chair,8-3-10,1857_eid_s07_8-3-10_chair_10_n02791124_6654.JPEG
subject-07,2,578,0.771823883056641,cat,cat,2-3-10,1858_eid_s07_2-3-10_cat_10_n02124075_14998.JPEG
subject-07,2,579,0.69146990776062,bird,bird,4-0-10,1859_eid_s07_4-0-10_bird_10_n01855672_3292.JPEG
subject-07,2,580,0.937858819961548,bear,bird,32-3-10,1860_eid_s07_32-3-10_bird_10_n01855672_13383.JPEG
subject-07,2,581,0.722402095794678,cat,bicycle,16-10-10,1861_eid_s07_16-10-10_bicycle_10_n03792782_17737.JPEG
subject-07,2,582,0.908915996551514,bird,truck,128-10-10,1862_eid_s07_128-10-10_truck_10_n04467665_679.JPEG
subject-07,2,583,1.01460194587708,keyboard,bicycle,128-10-10,1863_eid_s07_128-10-10_bicycle_10_n02835271_9135.JPEG
subject-07,2,584,0.815412998199463,car,car,2-0-10,1864_eid_s07_2-0-10_car_10_n02814533_8609.JPEG
subject-07,2,585,0.815746784210205,cat,cat,4-10-10,1865_eid_s07_4-10-10_cat_10_n02123045_2693.JPEG
subject-07,2,586,0.81601095199585,bicycle,bicycle,1-10-10,1866_eid_s07_1-10-10_bicycle_10_n03792782_19053.JPEG
subject-07,2,587,0.770526885986328,cat,clock,32-0-10,1867_eid_s07_32-0-10_clock_10_n04548280_8454.JPEG
subject-07,2,588,1.50023293495178,airplane,bird,32-3-10,1868_eid_s07_32-3-10_bird_10_n01537544_1031.JPEG
subject-07,2,589,0.84135103225708,cat,cat,32-3-10,1869_eid_s07_32-3-10_cat_10_n02124075_9372.JPEG
subject-07,2,590,0.729936122894287,clock,clock,8-10-10,1870_eid_s07_8-10-10_clock_10_n03196217_9197.JPEG
subject-07,2,591,0.967466831207275,keyboard,clock,64-10-10,1871_eid_s07_64-10-10_clock_10_n02708093_1291.JPEG
subject-07,2,592,0.738215923309326,car,car,1-3-10,1872_eid_s07_1-3-10_car_10_n03100240_9259.JPEG
subject-07,2,593,0.906721830368042,airplane,airplane,2-0-10,1873_eid_s07_2-0-10_airplane_10_n02690373_1296.JPEG
subject-07,2,594,0.8231360912323,car,truck,4-10-10,1874_eid_s07_4-10-10_truck_10_n04467665_356.JPEG
subject-07,2,595,1.03937196731567,bear,bear,4-10-10,1875_eid_s07_4-10-10_bear_10_n02133161_4675.JPEG
subject-07,2,596,0.878380060195923,bird,bird,2-0-10,1876_eid_s07_2-0-10_bird_10_n01824575_1192.JPEG
subject-07,2,597,1.01074004173279,bear,elephant,16-0-10,1877_eid_s07_16-0-10_elephant_10_n02504458_5050.JPEG
subject-07,2,598,1.01130604743958,bird,bird,8-0-10,1878_eid_s07_8-0-10_bird_10_n01601694_17557.JPEG
subject-07,2,599,0.949660062789917,bottle,bottle,2-3-10,1879_eid_s07_2-3-10_bottle_10_n03983396_12065.JPEG
subject-07,2,600,1.25807690620422,elephant,dog,128-0-10,1880_eid_s07_128-0-10_dog_10_n02085936_7495.JPEG
subject-07,2,601,0.980616092681885,bicycle,bicycle,16-10-10,1881_eid_s07_16-10-10_bicycle_10_n02835271_23711.JPEG
subject-07,2,602,0.820937156677246,car,truck,4-3-10,1882_eid_s07_4-3-10_truck_10_n04467665_12820.JPEG
subject-07,2,603,0.875602006912231,bird,bird,1-0-10,1883_eid_s07_1-0-10_bird_10_n01855672_5551.JPEG
subject-07,2,604,1.0440559387207,oven,clock,32-3-10,1884_eid_s07_32-3-10_clock_10_n03196217_11614.JPEG
subject-07,2,605,1.26080799102783,dog,cat,4-3-10,1885_eid_s07_4-3-10_cat_10_n02123394_3920.JPEG
subject-07,2,606,1.11500692367554,bottle,bottle,128-10-10,1886_eid_s07_128-10-10_bottle_10_n02823428_6885.JPEG
subject-07,2,607,0.831735134124756,cat,car,32-3-10,1887_eid_s07_32-3-10_car_10_n03100240_7452.JPEG
subject-07,2,608,0.686600923538208,bottle,bird,32-0-10,1888_eid_s07_32-0-10_bird_10_n02009912_22415.JPEG
subject-07,2,609,0.773303031921387,oven,oven,1-10-10,1889_eid_s07_1-10-10_oven_10_n04111531_1723.JPEG
subject-07,2,610,0.995902061462402,truck,truck,1-3-10,1890_eid_s07_1-3-10_truck_10_n03796401_21490.JPEG
subject-07,2,611,0.772078037261963,oven,keyboard,32-3-10,1891_eid_s07_32-3-10_keyboard_10_n03085013_23286.JPEG
subject-07,2,612,0.888782024383545,truck,truck,2-10-10,1892_eid_s07_2-10-10_truck_10_n03417042_877.JPEG
subject-07,2,613,1.08104181289673,bear,bicycle,16-0-10,1893_eid_s07_16-0-10_bicycle_10_n02835271_13437.JPEG
subject-07,2,614,1.1732759475708,dog,dog,2-3-10,1894_eid_s07_2-3-10_dog_10_n02113712_4414.JPEG
subject-07,2,615,0.959469079971313,bicycle,keyboard,16-10-10,1895_eid_s07_16-10-10_keyboard_10_n04505470_9331.JPEG
subject-07,2,616,1.16015219688416,car,clock,4-3-10,1896_eid_s07_4-3-10_clock_10_n03196217_6741.JPEG
subject-07,2,617,0.782711029052734,car,car,16-10-10,1897_eid_s07_16-10-10_car_10_n04285008_9317.JPEG
subject-07,2,618,0.84495997428894,knife,knife,8-10-10,1898_eid_s07_8-10-10_knife_10_n03041632_22570.JPEG
subject-07,2,619,1.05337190628052,bear,car,16-0-10,1899_eid_s07_16-0-10_car_10_n02814533_22847.JPEG
subject-07,2,620,1.48389601707458,elephant,keyboard,32-0-10,1900_eid_s07_32-0-10_keyboard_10_n03085013_19051.JPEG
subject-07,2,621,1.36256504058838,elephant,bear,64-10-10,1901_eid_s07_64-10-10_bear_10_n02134418_73.JPEG
subject-07,2,622,0.947601795196533,truck,truck,1-3-10,1902_eid_s07_1-3-10_truck_10_n03796401_10276.JPEG
subject-07,2,623,0.771969079971313,chair,chair,1-3-10,1903_eid_s07_1-3-10_chair_10_n04429376_18301.JPEG
subject-07,2,624,0.902369022369385,cat,bicycle,64-3-10,1904_eid_s07_64-3-10_bicycle_10_n03792782_4046.JPEG
subject-07,2,625,1.00233602523804,car,elephant,32-3-10,1905_eid_s07_32-3-10_elephant_10_n02504013_9178.JPEG
subject-07,2,626,1.1414270401001,boat,oven,32-3-10,1906_eid_s07_32-3-10_oven_10_n04111531_5950.JPEG
subject-07,2,627,0.988034009933472,bear,bird,32-3-10,1907_eid_s07_32-3-10_bird_10_n02025239_3193.JPEG
subject-07,2,628,1.0044469833374,cat,keyboard,2-3-10,1908_eid_s07_2-3-10_keyboard_10_n03085013_24124.JPEG
subject-07,2,629,0.683272838592529,dog,dog,1-10-10,1909_eid_s07_1-10-10_dog_10_n02093991_3584.JPEG
subject-07,2,630,0.922018051147461,car,car,2-0-10,1910_eid_s07_2-0-10_car_10_n04285008_14345.JPEG
subject-07,2,631,1.23011994361877,bear,airplane,128-10-10,1911_eid_s07_128-10-10_airplane_10_n02690373_4358.JPEG
subject-07,2,632,0.846599102020264,airplane,airplane,32-10-10,1912_eid_s07_32-10-10_airplane_10_n02690373_1306.JPEG
subject-07,2,633,0.847190141677856,bird,bird,1-10-10,1913_eid_s07_1-10-10_bird_10_n01829413_7624.JPEG
subject-07,2,634,1.28511381149292,keyboard,elephant,128-10-10,1914_eid_s07_128-10-10_elephant_10_n02504458_6762.JPEG
subject-07,2,635,1.22887396812439,dog,dog,16-3-10,1915_eid_s07_16-3-10_dog_10_n02109047_18904.JPEG
subject-07,2,636,0.937188148498535,boat,elephant,4-10-10,1916_eid_s07_4-10-10_elephant_10_n02504458_7359.JPEG
subject-07,2,637,0.769510984420776,bicycle,bicycle,1-3-10,1917_eid_s07_1-3-10_bicycle_10_n03792782_6023.JPEG
subject-07,2,638,0.999515056610107,keyboard,keyboard,4-10-10,1918_eid_s07_4-10-10_keyboard_10_n04505470_264.JPEG
subject-07,2,639,1.03803491592407,dog,dog,4-3-10,1919_eid_s07_4-3-10_dog_10_n02104029_1010.JPEG
subject-07,2,640,1.16801190376282,oven,keyboard,128-0-10,1920_eid_s07_128-0-10_keyboard_10_n04505470_9457.JPEG
subject-07,2,641,0.938772916793823,bear,cat,32-3-10,1921_eid_s07_32-3-10_cat_10_n02123045_1571.JPEG
subject-07,2,642,1.33914089202881,oven,bottle,128-10-10,1922_eid_s07_128-10-10_bottle_10_n04591713_3104.JPEG
subject-07,2,643,0.946993112564087,keyboard,keyboard,1-3-10,1923_eid_s07_1-3-10_keyboard_10_n03085013_21795.JPEG
subject-07,2,644,0.999485015869141,airplane,clock,8-0-10,1924_eid_s07_8-0-10_clock_10_n03196217_3352.JPEG
subject-07,2,645,0.770203113555908,bird,bird,1-3-10,1925_eid_s07_1-3-10_bird_10_n01532829_11568.JPEG
subject-07,2,646,0.846386909484863,boat,chair,128-10-10,1926_eid_s07_128-10-10_chair_10_n03376595_17854.JPEG
subject-07,2,647,1.10778498649597,keyboard,elephant,128-10-10,1927_eid_s07_128-10-10_elephant_10_n02504013_1479.JPEG
subject-07,2,648,1.12226295471191,cat,bird,32-0-10,1928_eid_s07_32-0-10_bird_10_n01833805_2918.JPEG
subject-07,2,649,0.722239971160889,car,car,8-0-10,1929_eid_s07_8-0-10_car_10_n04285008_6013.JPEG
subject-07,2,650,1.20677804946899,boat,chair,128-3-10,1930_eid_s07_128-3-10_chair_10_n02791124_4287.JPEG
subject-07,2,651,1.42306590080261,truck,cat,64-0-10,1931_eid_s07_64-0-10_cat_10_n02123597_10596.JPEG
subject-07,2,652,1.1557309627533,car,car,8-0-10,1932_eid_s07_8-0-10_car_10_n04285008_10899.JPEG
subject-07,2,653,1.04016900062561,airplane,airplane,32-10-10,1933_eid_s07_32-10-10_airplane_10_n02690373_10374.JPEG
subject-07,2,654,0.975244998931885,bird,elephant,1-3-10,1934_eid_s07_1-3-10_elephant_10_n02504013_7518.JPEG
subject-07,2,655,1.15973782539368,bird,bird,8-10-10,1935_eid_s07_8-10-10_bird_10_n01818515_14616.JPEG
subject-07,2,656,NaN,na,bottle,64-10-10,1936_eid_s07_64-10-10_bottle_10_n02823428_784.JPEG
subject-07,2,657,1.13034701347351,knife,keyboard,16-10-10,1937_eid_s07_16-10-10_keyboard_10_n03085013_22442.JPEG
subject-07,2,658,0.843859910964966,airplane,airplane,4-3-10,1938_eid_s07_4-3-10_airplane_10_n02690373_7487.JPEG
subject-07,2,659,0.735745906829834,bicycle,bicycle,4-10-10,1939_eid_s07_4-10-10_bicycle_10_n03792782_3456.JPEG
subject-07,2,660,1.08231782913208,boat,knife,128-0-10,1940_eid_s07_128-0-10_knife_10_n03041632_2386.JPEG
subject-07,2,661,0.928673028945923,bear,knife,8-0-10,1941_eid_s07_8-0-10_knife_10_n03041632_13108.JPEG
subject-07,2,662,0.959049940109253,bear,dog,16-3-10,1942_eid_s07_16-3-10_dog_10_n02096437_839.JPEG
subject-07,2,663,0.792035102844238,cat,bicycle,8-3-10,1943_eid_s07_8-3-10_bicycle_10_n02835271_14316.JPEG
subject-07,2,664,1.05986213684082,car,bicycle,128-0-10,1944_eid_s07_128-0-10_bicycle_10_n03792782_14160.JPEG
subject-07,2,665,0.776643037796021,oven,oven,2-0-10,1945_eid_s07_2-0-10_oven_10_n04111531_11749.JPEG
subject-07,2,666,1.50012588500977,airplane,airplane,128-10-10,1946_eid_s07_128-10-10_airplane_10_n02690373_7591.JPEG
subject-07,2,667,1.24464178085327,elephant,elephant,2-3-10,1947_eid_s07_2-3-10_elephant_10_n02504458_900.JPEG
subject-07,2,668,1.25115704536438,clock,clock,4-0-10,1948_eid_s07_4-0-10_clock_10_n03196217_3035.JPEG
subject-07,2,669,1.12890601158142,bird,keyboard,16-3-10,1949_eid_s07_16-3-10_keyboard_10_n03085013_24077.JPEG
subject-07,2,670,1.01326990127563,cat,dog,32-0-10,1950_eid_s07_32-0-10_dog_10_n02105641_8995.JPEG
subject-07,2,671,0.859794139862061,oven,knife,4-3-10,1951_eid_s07_4-3-10_knife_10_n03041632_29886.JPEG
subject-07,2,672,0.951737880706787,bear,chair,32-0-10,1952_eid_s07_32-0-10_chair_10_n02791124_9091.JPEG
subject-07,2,673,0.797947883605957,keyboard,keyboard,4-10-10,1953_eid_s07_4-10-10_keyboard_10_n04505470_4893.JPEG
subject-07,2,674,1.18173098564148,bottle,dog,64-10-10,1954_eid_s07_64-10-10_dog_10_n02113712_20245.JPEG
subject-07,2,675,0.911079883575439,bicycle,bicycle,2-10-10,1955_eid_s07_2-10-10_bicycle_10_n03792782_17110.JPEG
subject-07,2,676,1.00359511375427,car,car,8-0-10,1956_eid_s07_8-0-10_car_10_n02814533_126.JPEG
subject-07,2,677,1.30414605140686,car,bicycle,16-3-10,1957_eid_s07_16-3-10_bicycle_10_n02835271_20000.JPEG
subject-07,2,678,0.909524917602539,airplane,airplane,8-3-10,1958_eid_s07_8-3-10_airplane_10_n02690373_8743.JPEG
subject-07,2,679,1.14790010452271,boat,chair,128-3-10,1959_eid_s07_128-3-10_chair_10_n02791124_3657.JPEG
subject-07,2,680,1.00270700454712,oven,truck,4-0-10,1960_eid_s07_4-0-10_truck_10_n03796401_6256.JPEG
subject-07,2,681,0.965328931808472,car,car,2-3-10,1961_eid_s07_2-3-10_car_10_n02814533_34383.JPEG
subject-07,2,682,1.17138314247131,chair,chair,2-10-10,1962_eid_s07_2-10-10_chair_10_n04099969_65.JPEG
subject-07,2,683,1.50017714500427,airplane,airplane,32-3-10,1963_eid_s07_32-3-10_airplane_10_n02690373_19134.JPEG
subject-07,2,684,1.25854206085205,bear,bear,1-0-10,1964_eid_s07_1-0-10_bear_10_n02134084_3697.JPEG
subject-07,2,685,1.05901288986206,cat,bottle,16-3-10,1965_eid_s07_16-3-10_bottle_10_n03937543_5356.JPEG
subject-07,2,686,1.00267601013184,bicycle,bicycle,1-0-10,1966_eid_s07_1-0-10_bicycle_10_n03792782_33116.JPEG
subject-07,2,687,1.00356411933899,car,car,8-3-10,1967_eid_s07_8-3-10_car_10_n02814533_43694.JPEG
subject-07,2,688,1.12766885757446,bear,bear,16-10-10,1968_eid_s07_16-10-10_bear_10_n02132136_14595.JPEG
subject-07,2,689,0.936384201049805,car,car,1-10-10,1969_eid_s07_1-10-10_car_10_n03100240_6.JPEG
subject-07,2,690,0.612897872924805,keyboard,keyboard,4-10-10,1970_eid_s07_4-10-10_keyboard_10_n04505470_8603.JPEG
subject-07,2,691,1.15138006210327,keyboard,bird,32-3-10,1971_eid_s07_32-3-10_bird_10_n02051845_10700.JPEG
subject-07,2,692,0.867985963821411,dog,dog,2-10-10,1972_eid_s07_2-10-10_dog_10_n02113978_2189.JPEG
subject-07,2,693,0.905653953552246,boat,clock,128-3-10,1973_eid_s07_128-3-10_clock_10_n03196217_3232.JPEG
subject-07,2,694,0.951675891876221,chair,chair,4-3-10,1974_eid_s07_4-3-10_chair_10_n03376595_12251.JPEG
subject-07,2,695,0.812234878540039,car,bicycle,8-10-10,1975_eid_s07_8-10-10_bicycle_10_n02835271_7762.JPEG
subject-07,2,696,0.783079147338867,bicycle,bird,128-10-10,1976_eid_s07_128-10-10_bird_10_n01592084_1233.JPEG
subject-07,2,697,1.24369788169861,clock,clock,8-3-10,1977_eid_s07_8-3-10_clock_10_n03196217_3438.JPEG
subject-07,2,698,1.09008002281189,airplane,airplane,64-10-10,1978_eid_s07_64-10-10_airplane_10_n02690373_3988.JPEG
subject-07,2,699,1.03650498390198,cat,oven,16-0-10,1979_eid_s07_16-0-10_oven_10_n04111531_7130.JPEG
subject-07,2,700,0.791106939315796,chair,chair,1-0-10,1980_eid_s07_1-0-10_chair_10_n04099969_1486.JPEG
subject-07,2,701,0.853473901748657,chair,chair,2-3-10,1981_eid_s07_2-3-10_chair_10_n04099969_2620.JPEG
subject-07,2,702,0.929491996765137,bird,bird,4-0-10,1982_eid_s07_4-0-10_bird_10_n01601694_24399.JPEG
subject-07,2,703,1.25120186805725,keyboard,knife,2-10-10,1983_eid_s07_2-10-10_knife_10_n03041632_9580.JPEG
subject-07,2,704,1.28995299339294,elephant,truck,16-10-10,1984_eid_s07_16-10-10_truck_10_n03796401_1556.JPEG
subject-07,2,705,1.33636713027954,bird,boat,64-10-10,1985_eid_s07_64-10-10_boat_10_n03662601_3034.JPEG
subject-07,2,706,0.836726188659668,keyboard,keyboard,1-0-10,1986_eid_s07_1-0-10_keyboard_10_n04505470_4505.JPEG
subject-07,2,707,0.829223155975342,chair,chair,2-10-10,1987_eid_s07_2-10-10_chair_10_n03376595_1762.JPEG
subject-07,2,708,0.899864912033081,bird,bird,4-3-10,1988_eid_s07_4-3-10_bird_10_n02027492_8230.JPEG
subject-07,2,709,0.862446069717407,car,car,2-10-10,1989_eid_s07_2-10-10_car_10_n03100240_12104.JPEG
subject-07,2,710,1.19828510284424,bird,airplane,4-0-10,1990_eid_s07_4-0-10_airplane_10_n02690373_1704.JPEG
subject-07,2,711,0.998632192611694,cat,keyboard,64-3-10,1991_eid_s07_64-3-10_keyboard_10_n03085013_19547.JPEG
subject-07,2,712,1.10662508010864,bear,boat,64-3-10,1992_eid_s07_64-3-10_boat_10_n03662601_34099.JPEG
subject-07,2,713,0.890896081924438,boat,boat,2-10-10,1993_eid_s07_2-10-10_boat_10_n03662601_5057.JPEG
subject-07,2,714,1.13748788833618,bird,chair,8-0-10,1994_eid_s07_8-0-10_chair_10_n03376595_3882.JPEG
subject-07,2,715,0.913284063339233,keyboard,keyboard,8-10-10,1995_eid_s07_8-10-10_keyboard_10_n04505470_3970.JPEG
subject-07,2,716,0.759891033172607,elephant,elephant,4-0-10,1996_eid_s07_4-0-10_elephant_10_n02504013_4044.JPEG
subject-07,2,717,1.03643703460693,bottle,bottle,2-3-10,1997_eid_s07_2-3-10_bottle_10_n03983396_5657.JPEG
subject-07,2,718,0.944720983505249,truck,truck,4-3-10,1998_eid_s07_4-3-10_truck_10_n03796401_2007.JPEG
subject-07,2,719,1.09602499008179,bear,bicycle,128-3-10,1999_eid_s07_128-3-10_bicycle_10_n03792782_11824.JPEG
subject-07,2,720,1.27079796791077,bear,car,128-0-10,2000_eid_s07_128-0-10_car_10_n03100240_1248.JPEG
subject-07,2,721,1.11760377883911,cat,bear,128-3-10,2001_eid_s07_128-3-10_bear_10_n02134418_301.JPEG
subject-07,2,722,0.995968103408813,chair,chair,4-0-10,2002_eid_s07_4-0-10_chair_10_n03376595_1862.JPEG
subject-07,2,723,0.748270034790039,bird,bird,1-3-10,2003_eid_s07_1-3-10_bird_10_n02033041_3136.JPEG
subject-07,2,724,0.918662071228027,cat,dog,4-10-10,2004_eid_s07_4-10-10_dog_10_n02112018_563.JPEG
subject-07,2,725,0.749089002609253,clock,clock,8-10-10,2005_eid_s07_8-10-10_clock_10_n02708093_1104.JPEG
subject-07,2,726,1.06544208526611,oven,dog,128-0-10,2006_eid_s07_128-0-10_dog_10_n02111500_7370.JPEG
subject-07,2,727,0.712034940719604,bicycle,bicycle,1-0-10,2007_eid_s07_1-0-10_bicycle_10_n03792782_13074.JPEG
subject-07,2,728,0.78242015838623,cat,car,4-0-10,2008_eid_s07_4-0-10_car_10_n04285008_7610.JPEG
subject-07,2,729,0.905225038528442,bird,bear,4-3-10,2009_eid_s07_4-3-10_bear_10_n02133161_3544.JPEG
subject-07,2,730,1.25946807861328,cat,cat,1-3-10,2010_eid_s07_1-3-10_cat_10_n02124075_13663.JPEG
subject-07,2,731,1.0895209312439,car,elephant,128-3-10,2011_eid_s07_128-3-10_elephant_10_n02504458_5766.JPEG
subject-07,2,732,0.90388298034668,boat,truck,64-3-10,2012_eid_s07_64-3-10_truck_10_n03417042_1336.JPEG
subject-07,2,733,1.17977905273438,airplane,boat,16-0-10,2013_eid_s07_16-0-10_boat_10_n03344393_2621.JPEG
subject-07,2,734,0.866154909133911,bottle,bottle,4-10-10,2014_eid_s07_4-10-10_bottle_10_n04557648_10296.JPEG
subject-07,2,735,0.767140865325928,bicycle,bicycle,1-10-10,2015_eid_s07_1-10-10_bicycle_10_n02835271_9188.JPEG
subject-07,2,736,1.08179187774658,keyboard,car,4-3-10,2016_eid_s07_4-3-10_car_10_n04285008_885.JPEG
subject-07,2,737,1.04335999488831,knife,knife,16-3-10,2017_eid_s07_16-3-10_knife_10_n03041632_44133.JPEG
subject-07,2,738,0.782025098800659,boat,bird,64-0-10,2018_eid_s07_64-0-10_bird_10_n02009912_31550.JPEG
subject-07,2,739,1.50029611587524,car,keyboard,128-0-10,2019_eid_s07_128-0-10_keyboard_10_n03085013_21008.JPEG
subject-07,2,740,1.00494909286499,elephant,elephant,8-0-10,2020_eid_s07_8-0-10_elephant_10_n02504458_4117.JPEG
subject-07,2,741,1.43722891807556,car,airplane,128-10-10,2021_eid_s07_128-10-10_airplane_10_n02690373_7072.JPEG
subject-07,2,742,0.967742919921875,boat,bottle,128-0-10,2022_eid_s07_128-0-10_bottle_10_n04557648_26401.JPEG
subject-07,2,743,1.5000331401825,bear,knife,128-10-10,2023_eid_s07_128-10-10_knife_10_n03041632_24376.JPEG
subject-07,2,744,0.869021892547607,bottle,bottle,32-10-10,2024_eid_s07_32-10-10_bottle_10_n04557648_2806.JPEG
subject-07,2,745,0.806534051895142,bird,bird,8-10-10,2025_eid_s07_8-10-10_bird_10_n02009229_7457.JPEG
subject-07,2,746,0.974654912948608,truck,truck,4-3-10,2026_eid_s07_4-3-10_truck_10_n03417042_441.JPEG
subject-07,2,747,0.851052045822144,airplane,airplane,1-0-10,2027_eid_s07_1-0-10_airplane_10_n02690373_8925.JPEG
subject-07,2,748,1.18939399719238,airplane,car,128-10-10,2028_eid_s07_128-10-10_car_10_n03100240_7572.JPEG
subject-07,2,749,1.04409909248352,car,chair,2-10-10,2029_eid_s07_2-10-10_chair_10_n02791124_6091.JPEG
subject-07,2,750,1.38967895507812,truck,cat,64-10-10,2030_eid_s07_64-10-10_cat_10_n02123159_8198.JPEG
subject-07,2,751,0.698112010955811,oven,oven,8-10-10,2031_eid_s07_8-10-10_oven_10_n04111531_1054.JPEG
subject-07,2,752,1.01993703842163,oven,keyboard,4-0-10,2032_eid_s07_4-0-10_keyboard_10_n03085013_24154.JPEG
subject-07,2,753,1.2287929058075,car,keyboard,128-0-10,2033_eid_s07_128-0-10_keyboard_10_n04505470_2599.JPEG
subject-07,2,754,1.12556195259094,boat,bottle,64-0-10,2034_eid_s07_64-0-10_bottle_10_n03983396_8552.JPEG
subject-07,2,755,0.820130109786987,elephant,elephant,1-3-10,2035_eid_s07_1-3-10_elephant_10_n02504458_7411.JPEG
subject-07,2,756,0.988540172576904,car,car,2-0-10,2036_eid_s07_2-0-10_car_10_n03100240_3927.JPEG
subject-07,2,757,1.44305610656738,boat,elephant,32-0-10,2037_eid_s07_32-0-10_elephant_10_n02504013_5533.JPEG
subject-07,2,758,0.851001977920532,bird,bird,32-10-10,2038_eid_s07_32-10-10_bird_10_n01819313_5424.JPEG
subject-07,2,759,0.919581890106201,airplane,airplane,1-3-10,2039_eid_s07_1-3-10_airplane_10_n02690373_13604.JPEG
subject-07,2,760,0.911409139633179,airplane,airplane,8-10-10,2040_eid_s07_8-10-10_airplane_10_n02690373_6674.JPEG
subject-07,2,761,0.857677936553955,bottle,bottle,4-10-10,2041_eid_s07_4-10-10_bottle_10_n03937543_4723.JPEG
subject-07,2,762,1.24229884147644,keyboard,keyboard,64-10-10,2042_eid_s07_64-10-10_keyboard_10_n04505470_4887.JPEG
subject-07,2,763,1.09634494781494,cat,airplane,16-3-10,2043_eid_s07_16-3-10_airplane_10_n02690373_9404.JPEG
subject-07,2,764,0.975105047225952,bird,bear,4-3-10,2044_eid_s07_4-3-10_bear_10_n02134084_13700.JPEG
subject-07,2,765,0.981298923492432,keyboard,keyboard,2-10-10,2045_eid_s07_2-10-10_keyboard_10_n03085013_3286.JPEG
subject-07,2,766,0.927875995635986,bicycle,bicycle,8-3-10,2046_eid_s07_8-3-10_bicycle_10_n03792782_17673.JPEG
subject-07,2,767,0.990559101104736,car,truck,32-10-10,2047_eid_s07_32-10-10_truck_10_n03417042_3254.JPEG
subject-07,2,768,0.843871831893921,oven,bottle,128-10-10,2048_eid_s07_128-10-10_bottle_10_n03937543_3496.JPEG
subject-07,2,769,1.12127280235291,boat,bottle,32-3-10,2049_eid_s07_32-3-10_bottle_10_n04557648_2007.JPEG
subject-07,2,770,1.30721092224121,bicycle,bicycle,2-3-10,2050_eid_s07_2-3-10_bicycle_10_n03792782_17538.JPEG
subject-07,2,771,1.02175188064575,airplane,airplane,32-10-10,2051_eid_s07_32-10-10_airplane_10_n02690373_6046.JPEG
subject-07,2,772,0.970326900482178,bear,bear,16-10-10,2052_eid_s07_16-10-10_bear_10_n02134084_11887.JPEG
subject-07,2,773,0.725092887878418,boat,boat,2-10-10,2053_eid_s07_2-10-10_boat_10_n03662601_7845.JPEG
subject-07,2,774,1.07723808288574,airplane,airplane,4-10-10,2054_eid_s07_4-10-10_airplane_10_n02690373_7915.JPEG
subject-07,2,775,1.00133991241455,keyboard,keyboard,1-10-10,2055_eid_s07_1-10-10_keyboard_10_n03085013_22417.JPEG
subject-07,2,776,1.14015698432922,car,keyboard,128-10-10,2056_eid_s07_128-10-10_keyboard_10_n03085013_24566.JPEG
subject-07,2,777,1.11598110198975,bear,bear,8-3-10,2057_eid_s07_8-3-10_bear_10_n02134084_6869.JPEG
subject-07,2,778,1.01055192947388,bottle,truck,64-10-10,2058_eid_s07_64-10-10_truck_10_n03796401_28309.JPEG
subject-07,2,779,0.902312994003296,bottle,dog,128-10-10,2059_eid_s07_128-10-10_dog_10_n02102040_3225.JPEG
subject-07,2,780,0.971265077590942,airplane,airplane,32-3-10,2060_eid_s07_32-3-10_airplane_10_n02690373_4617.JPEG
subject-07,2,781,0.803796052932739,bird,dog,8-0-10,2061_eid_s07_8-0-10_dog_10_n02091831_1694.JPEG
subject-07,2,782,0.704252004623413,keyboard,keyboard,1-3-10,2062_eid_s07_1-3-10_keyboard_10_n03085013_20478.JPEG
subject-07,2,783,0.843077898025513,knife,knife,1-3-10,2063_eid_s07_1-3-10_knife_10_n03041632_55711.JPEG
subject-07,2,784,0.867707967758179,oven,chair,1-3-10,2064_eid_s07_1-3-10_chair_10_n02791124_1865.JPEG
subject-07,2,785,1.09040808677673,boat,oven,128-0-10,2065_eid_s07_128-0-10_oven_10_n04111531_10216.JPEG
subject-07,2,786,0.72276496887207,cat,cat,4-3-10,2066_eid_s07_4-3-10_cat_10_n02123159_7555.JPEG
subject-07,2,787,1.28307604789734,bear,cat,32-0-10,2067_eid_s07_32-0-10_cat_10_n02123394_2311.JPEG
subject-07,2,788,0.829883098602295,car,knife,64-0-10,2068_eid_s07_64-0-10_knife_10_n03041632_43634.JPEG
subject-07,2,789,0.932672023773193,bottle,bicycle,128-10-10,2069_eid_s07_128-10-10_bicycle_10_n02835271_23830.JPEG
subject-07,2,790,0.909667015075684,oven,knife,4-10-10,2070_eid_s07_4-10-10_knife_10_n03041632_2468.JPEG
subject-07,2,791,1.16321301460266,truck,boat,128-0-10,2071_eid_s07_128-0-10_boat_10_n04273569_1195.JPEG
subject-07,2,792,0.733741998672485,oven,oven,8-0-10,2072_eid_s07_8-0-10_oven_10_n04111531_15743.JPEG
subject-07,2,793,1.24850106239319,chair,chair,1-10-10,2073_eid_s07_1-10-10_chair_10_n04429376_7732.JPEG
subject-07,2,794,0.95706582069397,boat,bicycle,64-3-10,2074_eid_s07_64-3-10_bicycle_10_n02835271_3773.JPEG
subject-07,2,795,1.19086408615112,boat,car,128-3-10,2075_eid_s07_128-3-10_car_10_n04285008_10189.JPEG
subject-07,2,796,0.71554708480835,car,car,2-10-10,2076_eid_s07_2-10-10_car_10_n02814533_73944.JPEG
subject-07,2,797,1.36792707443237,bottle,bird,128-3-10,2077_eid_s07_128-3-10_bird_10_n01514859_6940.JPEG
subject-07,2,798,1.01340007781982,boat,bear,128-0-10,2078_eid_s07_128-0-10_bear_10_n02132136_282.JPEG
subject-07,2,799,0.829864978790283,boat,oven,64-10-10,2079_eid_s07_64-10-10_oven_10_n04111531_8658.JPEG
subject-07,2,800,0.730648994445801,boat,boat,64-0-10,2080_eid_s07_64-0-10_boat_10_n04273569_5276.JPEG
subject-07,2,801,0.846982002258301,airplane,airplane,4-3-10,2081_eid_s07_4-3-10_airplane_10_n02690373_4507.JPEG
subject-07,2,802,0.898684024810791,knife,knife,4-0-10,2082_eid_s07_4-0-10_knife_10_n03041632_29276.JPEG
subject-07,2,803,0.890547037124634,airplane,airplane,128-10-10,2083_eid_s07_128-10-10_airplane_10_n02690373_8214.JPEG
subject-07,2,804,1.33765697479248,bottle,truck,128-10-10,2084_eid_s07_128-10-10_truck_10_n03796401_23014.JPEG
subject-07,2,805,0.838303089141846,bicycle,bicycle,2-10-10,2085_eid_s07_2-10-10_bicycle_10_n02835271_13935.JPEG
subject-07,2,806,0.771024942398071,airplane,truck,64-10-10,2086_eid_s07_64-10-10_truck_10_n04467665_23715.JPEG
subject-07,2,807,0.776226997375488,keyboard,keyboard,8-10-10,2087_eid_s07_8-10-10_keyboard_10_n04505470_4789.JPEG
subject-07,2,808,1.1524441242218,boat,truck,128-0-10,2088_eid_s07_128-0-10_truck_10_n03796401_18074.JPEG
subject-07,2,809,1.21560311317444,bird,bear,4-0-10,2089_eid_s07_4-0-10_bear_10_n02134418_492.JPEG
subject-07,2,810,1.20009207725525,bird,dog,64-10-10,2090_eid_s07_64-10-10_dog_10_n02106166_20463.JPEG
subject-07,2,811,1.03221988677979,boat,boat,1-3-10,2091_eid_s07_1-3-10_boat_10_n04273569_18503.JPEG
subject-07,2,812,0.992645025253296,elephant,elephant,16-10-10,2092_eid_s07_16-10-10_elephant_10_n02504458_3344.JPEG
subject-07,2,813,1.09339904785156,chair,chair,1-10-10,2093_eid_s07_1-10-10_chair_10_n03376595_9322.JPEG
subject-07,2,814,1.20933985710144,bird,bird,16-3-10,2094_eid_s07_16-3-10_bird_10_n01855032_8188.JPEG
subject-07,2,815,0.919219017028809,bear,elephant,128-0-10,2095_eid_s07_128-0-10_elephant_10_n02504013_2264.JPEG
subject-07,2,816,0.78994607925415,bottle,bottle,1-0-10,2096_eid_s07_1-0-10_bottle_10_n03983396_3969.JPEG
subject-07,2,817,1.47907400131226,clock,car,64-10-10,2097_eid_s07_64-10-10_car_10_n02814533_48732.JPEG
subject-07,2,818,1.32550692558289,bear,cat,32-10-10,2098_eid_s07_32-10-10_cat_10_n02125311_8177.JPEG
subject-07,2,819,0.880111932754517,bottle,bird,128-10-10,2099_eid_s07_128-10-10_bird_10_n02018795_4762.JPEG
subject-07,2,820,1.22614979743958,keyboard,keyboard,2-0-10,2100_eid_s07_2-0-10_keyboard_10_n04505470_1236.JPEG
subject-07,2,821,1.32366919517517,boat,car,32-3-10,2101_eid_s07_32-3-10_car_10_n04285008_12018.JPEG
subject-07,2,822,0.869674921035767,airplane,elephant,32-0-10,2102_eid_s07_32-0-10_elephant_10_n02504013_7218.JPEG
subject-07,2,823,0.762305974960327,bottle,elephant,128-10-10,2103_eid_s07_128-10-10_elephant_10_n02504013_5021.JPEG
subject-07,2,824,0.800652980804443,airplane,airplane,8-3-10,2104_eid_s07_8-3-10_airplane_10_n02690373_9401.JPEG
subject-07,2,825,1.30114912986755,truck,elephant,16-0-10,2105_eid_s07_16-0-10_elephant_10_n02504458_5308.JPEG
subject-07,2,826,1.02282500267029,chair,truck,8-3-10,2106_eid_s07_8-3-10_truck_10_n03417042_3024.JPEG
subject-07,2,827,0.86333703994751,bottle,dog,64-10-10,2107_eid_s07_64-10-10_dog_10_n02105855_19169.JPEG
subject-07,2,828,1.41463589668274,bear,keyboard,16-0-10,2108_eid_s07_16-0-10_keyboard_10_n03085013_18832.JPEG
subject-07,2,829,0.839004993438721,bottle,bottle,4-0-10,2109_eid_s07_4-0-10_bottle_10_n04557648_1104.JPEG
subject-07,2,830,0.777616024017334,cat,cat,32-10-10,2110_eid_s07_32-10-10_cat_10_n02123045_436.JPEG
subject-07,2,831,1.01624798774719,bird,car,8-3-10,2111_eid_s07_8-3-10_car_10_n03100240_14746.JPEG
subject-07,2,832,0.916978120803833,boat,clock,32-0-10,2112_eid_s07_32-0-10_clock_10_n02708093_5758.JPEG
subject-07,2,833,0.677265882492065,boat,boat,1-3-10,2113_eid_s07_1-3-10_boat_10_n03662601_3503.JPEG
subject-07,2,834,1.50028991699219,boat,bear,2-10-10,2114_eid_s07_2-10-10_bear_10_n02134418_2606.JPEG
subject-07,2,835,1.35361099243164,cat,dog,64-0-10,2115_eid_s07_64-0-10_dog_10_n02113712_9678.JPEG
subject-07,2,836,0.992191076278687,truck,boat,16-3-10,2116_eid_s07_16-3-10_boat_10_n04612504_11855.JPEG
subject-07,2,837,0.776051998138428,car,car,2-3-10,2117_eid_s07_2-3-10_car_10_n02814533_7377.JPEG
subject-07,2,838,0.906512022018433,boat,boat,16-0-10,2118_eid_s07_16-0-10_boat_10_n02951358_14069.JPEG
subject-07,2,839,1.04712390899658,bird,chair,64-0-10,2119_eid_s07_64-0-10_chair_10_n04099969_1622.JPEG
subject-07,2,840,1.26136183738708,boat,oven,16-0-10,2120_eid_s07_16-0-10_oven_10_n04111531_21068.JPEG
subject-07,2,841,1.03211688995361,bear,clock,64-0-10,2121_eid_s07_64-0-10_clock_10_n02708093_8032.JPEG
subject-07,2,842,1.01645398139954,keyboard,keyboard,32-3-10,2122_eid_s07_32-3-10_keyboard_10_n04505470_510.JPEG
subject-07,2,843,0.947257041931152,elephant,bear,2-0-10,2123_eid_s07_2-0-10_bear_10_n02132136_5406.JPEG
subject-07,2,844,1.11768007278442,oven,bicycle,64-10-10,2124_eid_s07_64-10-10_bicycle_10_n02835271_9594.JPEG
subject-07,2,845,0.986150026321411,bottle,bottle,2-3-10,2125_eid_s07_2-3-10_bottle_10_n03937543_2870.JPEG
subject-07,2,846,1.12507009506226,bear,bicycle,128-10-10,2126_eid_s07_128-10-10_bicycle_10_n03792782_10035.JPEG
subject-07,2,847,1.16349911689758,elephant,elephant,4-3-10,2127_eid_s07_4-3-10_elephant_10_n02504458_1291.JPEG
subject-07,2,848,0.823072910308838,clock,clock,2-3-10,2128_eid_s07_2-3-10_clock_10_n03196217_9176.JPEG
subject-07,2,849,0.763643026351929,elephant,elephant,2-0-10,2129_eid_s07_2-0-10_elephant_10_n02504013_2945.JPEG
subject-07,2,850,0.901969194412231,bear,car,64-3-10,2130_eid_s07_64-3-10_car_10_n03100240_21243.JPEG
subject-07,2,851,0.870521068572998,bird,bird,4-3-10,2131_eid_s07_4-3-10_bird_10_n01592084_4494.JPEG
subject-07,2,852,1.07093596458435,car,keyboard,128-0-10,2132_eid_s07_128-0-10_keyboard_10_n03085013_24332.JPEG
subject-07,2,853,1.44044089317322,boat,keyboard,128-3-10,2133_eid_s07_128-3-10_keyboard_10_n03085013_679.JPEG
subject-07,2,854,0.950783967971802,dog,dog,8-3-10,2134_eid_s07_8-3-10_dog_10_n02086910_14955.JPEG
subject-07,2,855,0.99536395072937,car,car,1-10-10,2135_eid_s07_1-10-10_car_10_n02814533_41569.JPEG
subject-07,2,856,0.827646970748901,airplane,boat,32-10-10,2136_eid_s07_32-10-10_boat_10_n02951358_14052.JPEG
subject-07,2,857,0.850489854812622,cat,chair,8-0-10,2137_eid_s07_8-0-10_chair_10_n04429376_1366.JPEG
subject-07,2,858,0.926697969436646,boat,bottle,32-3-10,2138_eid_s07_32-3-10_bottle_10_n03937543_4561.JPEG
subject-07,2,859,1.46551299095154,bear,car,16-3-10,2139_eid_s07_16-3-10_car_10_n02814533_7283.JPEG
subject-07,2,860,1.01233410835266,bird,dog,32-0-10,2140_eid_s07_32-0-10_dog_10_n02088238_9467.JPEG
subject-07,2,861,1.42574715614319,dog,cat,64-10-10,2141_eid_s07_64-10-10_cat_10_n02123597_10205.JPEG
subject-07,2,862,NaN,na,cat,128-10-10,2142_eid_s07_128-10-10_cat_10_n02123597_4485.JPEG
subject-07,2,863,0.904680013656616,airplane,truck,16-0-10,2143_eid_s07_16-0-10_truck_10_n04467665_53618.JPEG
subject-07,2,864,0.739996910095215,elephant,elephant,2-10-10,2144_eid_s07_2-10-10_elephant_10_n02504458_3175.JPEG
subject-07,2,865,0.861639976501465,cat,knife,64-3-10,2145_eid_s07_64-3-10_knife_10_n03041632_81943.JPEG
subject-07,2,866,0.886362075805664,bear,cat,128-3-10,2146_eid_s07_128-3-10_cat_10_n02123045_1555.JPEG
subject-07,2,867,0.800071954727173,cat,truck,32-0-10,2147_eid_s07_32-0-10_truck_10_n03417042_15553.JPEG
subject-07,2,868,0.876551151275635,bird,bird,4-3-10,2148_eid_s07_4-3-10_bird_10_n01532829_5299.JPEG
subject-07,2,869,1.16107487678528,car,knife,32-3-10,2149_eid_s07_32-3-10_knife_10_n03041632_9759.JPEG
subject-07,2,870,0.983812093734741,car,car,1-3-10,2150_eid_s07_1-3-10_car_10_n03100240_12874.JPEG
subject-07,2,871,0.930203914642334,bicycle,bicycle,2-10-10,2151_eid_s07_2-10-10_bicycle_10_n02835271_14820.JPEG
subject-07,2,872,1.13044810295105,bear,oven,32-10-10,2152_eid_s07_32-10-10_oven_10_n04111531_5802.JPEG
subject-07,2,873,1.02313709259033,bear,boat,32-0-10,2153_eid_s07_32-0-10_boat_10_n03344393_6541.JPEG
subject-07,2,874,1.44749808311462,elephant,boat,8-0-10,2154_eid_s07_8-0-10_boat_10_n03344393_579.JPEG
subject-07,2,875,1.05395102500916,keyboard,keyboard,1-3-10,2155_eid_s07_1-3-10_keyboard_10_n03085013_3920.JPEG
subject-07,2,876,1.5000331401825,clock,bird,128-0-10,2156_eid_s07_128-0-10_bird_10_n01843383_10168.JPEG
subject-07,2,877,0.9011390209198,bird,bird,8-10-10,2157_eid_s07_8-10-10_bird_10_n01833805_934.JPEG
subject-07,2,878,0.70964503288269,boat,airplane,64-0-10,2158_eid_s07_64-0-10_airplane_10_n02690373_19742.JPEG
subject-07,2,879,0.932162046432495,cat,boat,16-0-10,2159_eid_s07_16-0-10_boat_10_n02951358_10512.JPEG
subject-07,2,880,1.20250415802002,clock,clock,4-3-10,2160_eid_s07_4-3-10_clock_10_n02708093_8100.JPEG
subject-07,2,881,0.941254854202271,elephant,airplane,16-3-10,2161_eid_s07_16-3-10_airplane_10_n02690373_3272.JPEG
subject-07,2,882,1.1415638923645,clock,boat,16-10-10,2162_eid_s07_16-10-10_boat_10_n03662601_10413.JPEG
subject-07,2,883,1.48525094985962,bear,truck,128-10-10,2163_eid_s07_128-10-10_truck_10_n03417042_7530.JPEG
subject-07,2,884,1.50003814697266,bottle,dog,32-10-10,2164_eid_s07_32-10-10_dog_10_n02089078_7240.JPEG
subject-07,2,885,1.04644918441772,boat,bicycle,32-0-10,2165_eid_s07_32-0-10_bicycle_10_n02835271_1573.JPEG
subject-07,2,886,1.22237396240234,bicycle,bird,64-3-10,2166_eid_s07_64-3-10_bird_10_n01614925_15274.JPEG
subject-07,2,887,0.970819234848022,bear,dog,16-0-10,2167_eid_s07_16-0-10_dog_10_n02088632_5950.JPEG
subject-07,2,888,1.23144507408142,bear,cat,128-10-10,2168_eid_s07_128-10-10_cat_10_n02123597_11981.JPEG
subject-07,2,889,1.10184907913208,car,car,8-10-10,2169_eid_s07_8-10-10_car_10_n03100240_23227.JPEG
subject-07,2,890,0.92451000213623,cat,dog,4-0-10,2170_eid_s07_4-0-10_dog_10_n02112018_8482.JPEG
subject-07,2,891,0.962246894836426,chair,chair,4-10-10,2171_eid_s07_4-10-10_chair_10_n04099969_6406.JPEG
subject-07,2,892,0.992680788040161,car,bottle,128-3-10,2172_eid_s07_128-3-10_bottle_10_n03983396_8143.JPEG
subject-07,2,893,0.907524108886719,bear,bear,4-0-10,2173_eid_s07_4-0-10_bear_10_n02132136_1858.JPEG
subject-07,2,894,0.907077074050903,bottle,bottle,1-3-10,2174_eid_s07_1-3-10_bottle_10_n04560804_28164.JPEG
subject-07,2,895,1.06175208091736,truck,truck,1-10-10,2175_eid_s07_1-10-10_truck_10_n03417042_5105.JPEG
subject-07,2,896,0.754362106323242,bear,bear,8-3-10,2176_eid_s07_8-3-10_bear_10_n02134418_3322.JPEG
subject-07,2,897,1.20679807662964,boat,bottle,16-3-10,2177_eid_s07_16-3-10_bottle_10_n04591713_7165.JPEG
subject-07,2,898,0.968470811843872,cat,boat,32-0-10,2178_eid_s07_32-0-10_boat_10_n03344393_7039.JPEG
subject-07,2,899,1.11485385894775,bear,cat,64-0-10,2179_eid_s07_64-0-10_cat_10_n02123045_11809.JPEG
subject-07,2,900,0.829603910446167,cat,bear,128-10-10,2180_eid_s07_128-10-10_bear_10_n02134084_7171.JPEG
subject-07,2,901,0.892356157302856,chair,chair,8-10-10,2181_eid_s07_8-10-10_chair_10_n03376595_2491.JPEG
subject-07,2,902,1.11673998832703,car,elephant,32-10-10,2182_eid_s07_32-10-10_elephant_10_n02504458_5614.JPEG
subject-07,2,903,0.86921215057373,bear,bear,4-0-10,2183_eid_s07_4-0-10_bear_10_n02133161_195.JPEG
subject-07,2,904,0.95753812789917,chair,chair,4-0-10,2184_eid_s07_4-0-10_chair_10_n04099969_3453.JPEG
subject-07,2,905,0.866379022598267,car,car,4-0-10,2185_eid_s07_4-0-10_car_10_n03100240_4602.JPEG
subject-07,2,906,1.15073990821838,cat,bottle,128-3-10,2186_eid_s07_128-3-10_bottle_10_n04557648_1820.JPEG
subject-07,2,907,1.09729695320129,elephant,elephant,32-10-10,2187_eid_s07_32-10-10_elephant_10_n02504458_511.JPEG
subject-07,2,908,1.12774801254272,chair,chair,1-0-10,2188_eid_s07_1-0-10_chair_10_n04429376_7621.JPEG
subject-07,2,909,0.743221998214722,bicycle,bicycle,1-10-10,2189_eid_s07_1-10-10_bicycle_10_n03792782_25799.JPEG
subject-07,2,910,0.857883930206299,bicycle,bicycle,16-10-10,2190_eid_s07_16-10-10_bicycle_10_n03792782_1289.JPEG
subject-07,2,911,0.790228843688965,boat,boat,2-10-10,2191_eid_s07_2-10-10_boat_10_n03344393_3423.JPEG
subject-07,2,912,1.03651809692383,bicycle,bird,16-10-10,2192_eid_s07_16-10-10_bird_10_n01833805_785.JPEG
subject-07,2,913,0.78037691116333,bird,bird,16-10-10,2193_eid_s07_16-10-10_bird_10_n01855672_8616.JPEG
subject-07,2,914,1.26516890525818,bird,bear,16-0-10,2194_eid_s07_16-0-10_bear_10_n02132136_2372.JPEG
subject-07,2,915,0.781446933746338,cat,cat,2-3-10,2195_eid_s07_2-3-10_cat_10_n02123045_13045.JPEG
subject-07,2,916,1.00385093688965,airplane,airplane,64-10-10,2196_eid_s07_64-10-10_airplane_10_n02690373_871.JPEG
subject-07,2,917,0.887479066848755,bottle,bottle,1-0-10,2197_eid_s07_1-0-10_bottle_10_n04591713_1822.JPEG
subject-07,2,918,0.917985916137695,knife,knife,8-0-10,2198_eid_s07_8-0-10_knife_10_n03041632_42887.JPEG
subject-07,2,919,1.00252294540405,cat,truck,16-3-10,2199_eid_s07_16-3-10_truck_10_n03417042_5691.JPEG
subject-07,2,920,0.995116949081421,chair,chair,2-3-10,2200_eid_s07_2-3-10_chair_10_n04099969_48172.JPEG
subject-07,2,921,0.857547998428345,cat,chair,16-3-10,2201_eid_s07_16-3-10_chair_10_n04099969_9129.JPEG
subject-07,2,922,0.787889003753662,bicycle,bicycle,1-10-10,2202_eid_s07_1-10-10_bicycle_10_n02835271_17357.JPEG
subject-07,2,923,1.31764197349548,keyboard,clock,16-0-10,2203_eid_s07_16-0-10_clock_10_n04548280_10167.JPEG
subject-07,2,924,1.04642391204834,clock,clock,2-10-10,2204_eid_s07_2-10-10_clock_10_n03196217_7836.JPEG
subject-07,2,925,0.993494033813477,bear,knife,32-3-10,2205_eid_s07_32-3-10_knife_10_n03041632_23968.JPEG
subject-07,2,926,1.07800316810608,bear,bear,16-3-10,2206_eid_s07_16-3-10_bear_10_n02133161_9978.JPEG
subject-07,2,927,1.20856499671936,clock,clock,4-10-10,2207_eid_s07_4-10-10_clock_10_n02708093_8038.JPEG
subject-07,2,928,0.777759075164795,bottle,dog,1-10-10,2208_eid_s07_1-10-10_dog_10_n02093428_7571.JPEG
subject-07,2,929,0.938264846801758,clock,bottle,8-3-10,2209_eid_s07_8-3-10_bottle_10_n04557648_10262.JPEG
subject-07,2,930,0.793045043945312,dog,dog,1-3-10,2210_eid_s07_1-3-10_dog_10_n02101006_17876.JPEG
subject-07,2,931,1.12320899963379,knife,chair,32-10-10,2211_eid_s07_32-10-10_chair_10_n02791124_3361.JPEG
subject-07,2,932,1.09391617774963,keyboard,oven,8-0-10,2212_eid_s07_8-0-10_oven_10_n04111531_11260.JPEG
subject-07,2,933,1.0548779964447,boat,boat,8-3-10,2213_eid_s07_8-3-10_boat_10_n04612504_16492.JPEG
subject-07,2,934,1.09341382980347,chair,chair,4-0-10,2214_eid_s07_4-0-10_chair_10_n04099969_72.JPEG
subject-07,2,935,0.779558897018433,airplane,airplane,8-3-10,2215_eid_s07_8-3-10_airplane_10_n02690373_17157.JPEG
subject-07,2,936,1.0480329990387,knife,knife,8-0-10,2216_eid_s07_8-0-10_knife_10_n03041632_927.JPEG
subject-07,2,937,0.785935878753662,chair,chair,16-10-10,2217_eid_s07_16-10-10_chair_10_n04429376_12972.JPEG
subject-07,2,938,0.832630157470703,oven,oven,8-10-10,2218_eid_s07_8-10-10_oven_10_n04111531_23068.JPEG
subject-07,2,939,0.870966196060181,airplane,airplane,32-10-10,2219_eid_s07_32-10-10_airplane_10_n02690373_3216.JPEG
subject-07,2,940,1.1475191116333,boat,boat,64-0-10,2220_eid_s07_64-0-10_boat_10_n03662601_1524.JPEG
subject-07,2,941,1.31000185012817,bear,boat,128-3-10,2221_eid_s07_128-3-10_boat_10_n03344393_10327.JPEG
subject-07,2,942,1.26195693016052,oven,chair,8-0-10,2222_eid_s07_8-0-10_chair_10_n02791124_606.JPEG
subject-07,2,943,0.870316982269287,clock,clock,4-0-10,2223_eid_s07_4-0-10_clock_10_n02708093_5096.JPEG
subject-07,2,944,0.846065044403076,cat,cat,1-0-10,2224_eid_s07_1-0-10_cat_10_n02125311_53045.JPEG
subject-07,2,945,0.900789976119995,bicycle,bicycle,16-10-10,2225_eid_s07_16-10-10_bicycle_10_n03792782_18687.JPEG
subject-07,2,946,1.02345895767212,keyboard,keyboard,8-10-10,2226_eid_s07_8-10-10_keyboard_10_n03085013_21097.JPEG
subject-07,2,947,1.50036096572876,cat,bear,32-0-10,2227_eid_s07_32-0-10_bear_10_n02134418_3211.JPEG
subject-07,2,948,0.932602167129517,boat,oven,64-0-10,2228_eid_s07_64-0-10_oven_10_n04111531_7664.JPEG
subject-07,2,949,1.22494292259216,cat,clock,32-3-10,2229_eid_s07_32-3-10_clock_10_n02708093_4727.JPEG
subject-07,2,950,0.924676179885864,bicycle,bicycle,16-10-10,2230_eid_s07_16-10-10_bicycle_10_n02835271_12871.JPEG
subject-07,2,951,0.993191957473755,airplane,airplane,1-10-10,2231_eid_s07_1-10-10_airplane_10_n02690373_10203.JPEG
subject-07,2,952,0.74003005027771,car,car,2-10-10,2232_eid_s07_2-10-10_car_10_n02814533_53757.JPEG
subject-07,2,953,1.02447414398193,cat,oven,4-3-10,2233_eid_s07_4-3-10_oven_10_n04111531_4785.JPEG
subject-07,2,954,1.37874102592468,elephant,elephant,64-0-10,2234_eid_s07_64-0-10_elephant_10_n02504458_12365.JPEG
subject-07,2,955,1.50010704994202,airplane,boat,8-3-10,2235_eid_s07_8-3-10_boat_10_n03344393_6328.JPEG
subject-07,2,956,1.20719599723816,car,elephant,64-3-10,2236_eid_s07_64-3-10_elephant_10_n02504458_4322.JPEG
subject-07,2,957,0.990962982177734,bear,bear,16-0-10,2237_eid_s07_16-0-10_bear_10_n02132136_1031.JPEG
