subj,session,trial,rt,object_response,category,condition,imagename
subject-07,3,1,0.85397481918335,cat,knife,32-10-10,2561_eid_s07_32-10-10_knife_10_n03041632_27709.JPEG
subject-07,3,2,1.10458111763,boat,airplane,128-3-10,2562_eid_s07_128-3-10_airplane_10_n02690373_757.JPEG
subject-07,3,3,0.69821310043335,cat,dog,8-3-10,2563_eid_s07_8-3-10_dog_10_n02107312_4855.JPEG
subject-07,3,4,0.752050876617432,cat,clock,16-0-10,2564_eid_s07_16-0-10_clock_10_n04548280_983.JPEG
subject-07,3,5,0.88823413848877,cat,cat,8-10-10,2565_eid_s07_8-10-10_cat_10_n02123045_359.JPEG
subject-07,3,6,1.23626494407654,bottle,knife,4-10-10,2566_eid_s07_4-10-10_knife_10_n03041632_3063.JPEG
subject-07,3,7,1.41472792625427,bear,bicycle,16-3-10,2567_eid_s07_16-3-10_bicycle_10_n03792782_11868.JPEG
subject-07,3,8,1.34631991386414,airplane,bear,8-0-10,2568_eid_s07_8-0-10_bear_10_n02134418_5363.JPEG
subject-07,3,9,1.21620297431946,keyboard,keyboard,8-3-10,2569_eid_s07_8-3-10_keyboard_10_n03085013_19536.JPEG
subject-07,3,10,1.10795783996582,cat,cat,4-10-10,2570_eid_s07_4-10-10_cat_10_n02123045_8666.JPEG
subject-07,3,11,0.802357912063599,chair,chair,2-3-10,2571_eid_s07_2-3-10_chair_10_n04099969_5531.JPEG
subject-07,3,12,1.02622604370117,boat,boat,64-10-10,2572_eid_s07_64-10-10_boat_10_n02951358_3222.JPEG
subject-07,3,13,1.04233813285828,bear,dog,8-10-10,2573_eid_s07_8-10-10_dog_10_n02106550_10966.JPEG
subject-07,3,14,0.843933820724487,clock,clock,16-3-10,2574_eid_s07_16-3-10_clock_10_n04548280_3219.JPEG
subject-07,3,15,1.39248299598694,boat,airplane,64-10-10,2575_eid_s07_64-10-10_airplane_10_n02690373_7279.JPEG
subject-07,3,16,1.30117678642273,boat,oven,16-3-10,2576_eid_s07_16-3-10_oven_10_n04111531_7430.JPEG
subject-07,3,17,1.00297403335571,oven,oven,2-10-10,2577_eid_s07_2-10-10_oven_10_n04111531_409.JPEG
subject-07,3,18,1.00248098373413,keyboard,keyboard,2-10-10,2578_eid_s07_2-10-10_keyboard_10_n03085013_23503.JPEG
subject-07,3,19,0.92671012878418,keyboard,keyboard,4-0-10,2579_eid_s07_4-0-10_keyboard_10_n03085013_16871.JPEG
subject-07,3,20,1.10485482215881,car,truck,1-0-10,2580_eid_s07_1-0-10_truck_10_n04467665_35560.JPEG
subject-07,3,21,0.969053030014038,boat,keyboard,64-0-10,2581_eid_s07_64-0-10_keyboard_10_n03085013_19380.JPEG
subject-07,3,22,1.50013494491577,dog,dog,1-10-10,2582_eid_s07_1-10-10_dog_10_n02090721_4651.JPEG
subject-07,3,23,1.34773397445679,elephant,oven,4-3-10,2583_eid_s07_4-3-10_oven_10_n04111531_14055.JPEG
subject-07,3,24,1.17451691627502,chair,chair,2-3-10,2584_eid_s07_2-3-10_chair_10_n02791124_60.JPEG
subject-07,3,25,1.44954109191895,boat,cat,32-3-10,2585_eid_s07_32-3-10_cat_10_n02123045_6245.JPEG
subject-07,3,26,1.45184588432312,bicycle,bottle,16-3-10,2586_eid_s07_16-3-10_bottle_10_n02823428_4541.JPEG
subject-07,3,27,1.10516309738159,boat,bicycle,128-10-10,2587_eid_s07_128-10-10_bicycle_10_n02835271_1919.JPEG
subject-07,3,28,1.25880599021912,boat,bottle,32-0-10,2588_eid_s07_32-0-10_bottle_10_n04557648_11215.JPEG
subject-07,3,29,1.50006890296936,bird,bird,8-0-10,2589_eid_s07_8-0-10_bird_10_n01819313_5341.JPEG
subject-07,3,30,1.06381797790527,boat,bicycle,16-3-10,2590_eid_s07_16-3-10_bicycle_10_n03792782_891.JPEG
subject-07,3,31,1.39664387702942,elephant,elephant,8-0-10,2591_eid_s07_8-0-10_elephant_10_n02504458_5137.JPEG
subject-07,3,32,1.09660601615906,chair,chair,4-10-10,2592_eid_s07_4-10-10_chair_10_n04429376_13328.JPEG
subject-07,3,33,1.22862601280212,boat,keyboard,128-3-10,2593_eid_s07_128-3-10_keyboard_10_n04505470_5068.JPEG
subject-07,3,34,1.06061291694641,clock,clock,16-3-10,2594_eid_s07_16-3-10_clock_10_n02708093_2619.JPEG
subject-07,3,35,0.900875091552734,elephant,elephant,1-0-10,2595_eid_s07_1-0-10_elephant_10_n02504458_4226.JPEG
subject-07,3,36,1.01105809211731,car,car,16-3-10,2596_eid_s07_16-3-10_car_10_n03100240_8232.JPEG
subject-07,3,37,1.0738160610199,clock,clock,4-3-10,2597_eid_s07_4-3-10_clock_10_n02708093_6874.JPEG
subject-07,3,38,0.706079959869385,cat,cat,4-3-10,2598_eid_s07_4-3-10_cat_10_n02123597_8099.JPEG
subject-07,3,39,0.83436107635498,airplane,airplane,1-10-10,2599_eid_s07_1-10-10_airplane_10_n02690373_6755.JPEG
subject-07,3,40,1.13677406311035,boat,airplane,32-0-10,2600_eid_s07_32-0-10_airplane_10_n02690373_5427.JPEG
subject-07,3,41,0.860990762710571,chair,chair,1-3-10,2601_eid_s07_1-3-10_chair_10_n02791124_2282.JPEG
subject-07,3,42,1.14686584472656,car,car,32-10-10,2602_eid_s07_32-10-10_car_10_n02814533_43040.JPEG
subject-07,3,43,0.879369020462036,knife,knife,4-10-10,2603_eid_s07_4-10-10_knife_10_n03041632_11797.JPEG
subject-07,3,44,1.08738708496094,truck,car,32-3-10,2604_eid_s07_32-3-10_car_10_n02814533_95276.JPEG
subject-07,3,45,0.973684072494507,car,car,1-10-10,2605_eid_s07_1-10-10_car_10_n03100240_17711.JPEG
subject-07,3,46,0.753993988037109,cat,chair,16-0-10,2606_eid_s07_16-0-10_chair_10_n04099969_5908.JPEG
subject-07,3,47,0.940468072891235,boat,airplane,128-0-10,2607_eid_s07_128-0-10_airplane_10_n02690373_3775.JPEG
subject-07,3,48,0.781092882156372,cat,cat,8-10-10,2608_eid_s07_8-10-10_cat_10_n02123394_1480.JPEG
subject-07,3,49,1.01920413970947,cat,boat,8-10-10,2609_eid_s07_8-10-10_boat_10_n02951358_30635.JPEG
subject-07,3,50,0.991819858551025,cat,airplane,32-0-10,2610_eid_s07_32-0-10_airplane_10_n02690373_2837.JPEG
subject-07,3,51,0.832282066345215,bicycle,bicycle,8-3-10,2611_eid_s07_8-3-10_bicycle_10_n03792782_6876.JPEG
subject-07,3,52,0.848710060119629,chair,chair,1-10-10,2612_eid_s07_1-10-10_chair_10_n02791124_1541.JPEG
subject-07,3,53,0.934885025024414,elephant,elephant,2-0-10,2613_eid_s07_2-0-10_elephant_10_n02504458_6248.JPEG
subject-07,3,54,1.06746101379395,cat,oven,4-0-10,2614_eid_s07_4-0-10_oven_10_n04111531_10313.JPEG
subject-07,3,55,0.940035104751587,oven,truck,1-3-10,2615_eid_s07_1-3-10_truck_10_n03417042_4126.JPEG
subject-07,3,56,0.83658504486084,boat,airplane,128-0-10,2616_eid_s07_128-0-10_airplane_10_n02690373_10079.JPEG
subject-07,3,57,0.839462995529175,truck,truck,2-10-10,2617_eid_s07_2-10-10_truck_10_n03417042_10318.JPEG
subject-07,3,58,1.02167010307312,bear,truck,32-0-10,2618_eid_s07_32-0-10_truck_10_n03417042_2633.JPEG
subject-07,3,59,1.00346398353577,car,dog,32-3-10,2619_eid_s07_32-3-10_dog_10_n02092339_2253.JPEG
subject-07,3,60,0.89804482460022,clock,oven,4-10-10,2620_eid_s07_4-10-10_oven_10_n04111531_4868.JPEG
subject-07,3,61,0.892637014389038,keyboard,keyboard,1-0-10,2621_eid_s07_1-0-10_keyboard_10_n04505470_8575.JPEG
subject-07,3,62,0.932946920394897,car,car,2-3-10,2622_eid_s07_2-3-10_car_10_n03100240_2420.JPEG
subject-07,3,63,1.05685710906982,bicycle,bicycle,4-3-10,2623_eid_s07_4-3-10_bicycle_10_n02835271_1896.JPEG
subject-07,3,64,0.973584175109863,dog,dog,4-0-10,2624_eid_s07_4-0-10_dog_10_n02107574_6269.JPEG
subject-07,3,65,NaN,na,knife,1-0-10,2625_eid_s07_1-0-10_knife_10_n03041632_13612.JPEG
subject-07,3,66,0.832352161407471,bicycle,cat,8-10-10,2626_eid_s07_8-10-10_cat_10_n02123394_5638.JPEG
subject-07,3,67,0.81102991104126,bicycle,bear,64-0-10,2627_eid_s07_64-0-10_bear_10_n02132136_31284.JPEG
subject-07,3,68,0.910860061645508,dog,bicycle,32-3-10,2628_eid_s07_32-3-10_bicycle_10_n02835271_19557.JPEG
subject-07,3,69,1.02916193008423,cat,keyboard,4-3-10,2629_eid_s07_4-3-10_keyboard_10_n03085013_2255.JPEG
subject-07,3,70,1.24572706222534,elephant,boat,64-3-10,2630_eid_s07_64-3-10_boat_10_n04273569_5698.JPEG
subject-07,3,71,0.801436901092529,cat,dog,16-3-10,2631_eid_s07_16-3-10_dog_10_n02106382_7021.JPEG
subject-07,3,72,1.03392887115479,bicycle,bear,128-3-10,2632_eid_s07_128-3-10_bear_10_n02132136_5365.JPEG
subject-07,3,73,0.952581882476807,boat,airplane,128-3-10,2633_eid_s07_128-3-10_airplane_10_n02690373_1670.JPEG
subject-07,3,74,0.969314813613892,cat,elephant,8-3-10,2634_eid_s07_8-3-10_elephant_10_n02504013_2402.JPEG
subject-07,3,75,0.963742017745972,bicycle,oven,64-10-10,2635_eid_s07_64-10-10_oven_10_n04111531_12053.JPEG
subject-07,3,76,1.04992508888245,car,car,8-10-10,2636_eid_s07_8-10-10_car_10_n04285008_8410.JPEG
subject-07,3,77,1.49760890007019,chair,truck,16-10-10,2637_eid_s07_16-10-10_truck_10_n04467665_22974.JPEG
subject-07,3,78,1.25441718101501,clock,oven,32-10-10,2638_eid_s07_32-10-10_oven_10_n04111531_6094.JPEG
subject-07,3,79,0.954497814178467,bottle,bottle,8-3-10,2639_eid_s07_8-3-10_bottle_10_n04591713_1316.JPEG
subject-07,3,80,1.05720090866089,dog,dog,1-10-10,2640_eid_s07_1-10-10_dog_10_n02111129_5457.JPEG
subject-07,3,81,1.0752911567688,dog,dog,1-3-10,2641_eid_s07_1-3-10_dog_10_n02097130_11721.JPEG
subject-07,3,82,1.43188905715942,bird,keyboard,64-10-10,2642_eid_s07_64-10-10_keyboard_10_n04505470_4898.JPEG
subject-07,3,83,1.24796605110168,cat,clock,128-10-10,2643_eid_s07_128-10-10_clock_10_n04548280_354.JPEG
subject-07,3,84,1.07269382476807,boat,keyboard,16-0-10,2644_eid_s07_16-0-10_keyboard_10_n04505470_4562.JPEG
subject-07,3,85,1.26713490486145,boat,bear,128-0-10,2645_eid_s07_128-0-10_bear_10_n02134418_5735.JPEG
subject-07,3,86,1.16988301277161,knife,knife,16-3-10,2646_eid_s07_16-3-10_knife_10_n03041632_33739.JPEG
subject-07,3,87,1.08855295181274,airplane,airplane,32-0-10,2647_eid_s07_32-0-10_airplane_10_n02690373_427.JPEG
subject-07,3,88,0.845004081726074,cat,cat,1-3-10,2648_eid_s07_1-3-10_cat_10_n02125311_16171.JPEG
subject-07,3,89,0.915359973907471,clock,clock,1-10-10,2649_eid_s07_1-10-10_clock_10_n04548280_9220.JPEG
subject-07,3,90,0.901971817016602,bicycle,bicycle,32-10-10,2650_eid_s07_32-10-10_bicycle_10_n03792782_5639.JPEG
subject-07,3,91,1.06667494773865,bicycle,oven,16-0-10,2651_eid_s07_16-0-10_oven_10_n04111531_22916.JPEG
subject-07,3,92,0.914944171905518,boat,bird,32-3-10,2652_eid_s07_32-3-10_bird_10_n01855672_6755.JPEG
subject-07,3,93,1.1330680847168,airplane,airplane,32-3-10,2653_eid_s07_32-3-10_airplane_10_n02690373_17718.JPEG
subject-07,3,94,0.995984077453613,dog,dog,1-0-10,2654_eid_s07_1-0-10_dog_10_n02109047_30089.JPEG
subject-07,3,95,1.10650300979614,elephant,elephant,4-3-10,2655_eid_s07_4-3-10_elephant_10_n02504013_929.JPEG
subject-07,3,96,1.05530285835266,boat,bottle,32-3-10,2656_eid_s07_32-3-10_bottle_10_n02823428_5018.JPEG
subject-07,3,97,0.75800609588623,bicycle,bicycle,1-0-10,2657_eid_s07_1-0-10_bicycle_10_n02835271_5056.JPEG
subject-07,3,98,1.27623009681702,bear,bird,16-0-10,2658_eid_s07_16-0-10_bird_10_n01829413_8190.JPEG
subject-07,3,99,1.18684911727905,boat,bear,32-0-10,2659_eid_s07_32-0-10_bear_10_n02132136_23846.JPEG
subject-07,3,100,1.21944308280945,bear,bicycle,8-10-10,2660_eid_s07_8-10-10_bicycle_10_n03792782_8098.JPEG
subject-07,3,101,0.836277961730957,bottle,bottle,8-3-10,2661_eid_s07_8-3-10_bottle_10_n04557648_19475.JPEG
subject-07,3,102,1.39194011688232,bottle,boat,128-10-10,2662_eid_s07_128-10-10_boat_10_n02951358_16653.JPEG
subject-07,3,103,1.36189484596252,cat,boat,128-10-10,2663_eid_s07_128-10-10_boat_10_n03662601_989.JPEG
subject-07,3,104,0.764738082885742,bicycle,bicycle,8-0-10,2664_eid_s07_8-0-10_bicycle_10_n03792782_61058.JPEG
subject-07,3,105,0.951169967651367,bird,bird,4-10-10,2665_eid_s07_4-10-10_bird_10_n02002556_4216.JPEG
subject-07,3,106,1.10779500007629,airplane,airplane,2-10-10,2666_eid_s07_2-10-10_airplane_10_n02690373_6942.JPEG
subject-07,3,107,1.18573403358459,cat,elephant,32-3-10,2667_eid_s07_32-3-10_elephant_10_n02504013_6933.JPEG
subject-07,3,108,0.988332986831665,bicycle,bird,64-10-10,2668_eid_s07_64-10-10_bird_10_n02018795_5713.JPEG
subject-07,3,109,0.88765287399292,boat,knife,64-0-10,2669_eid_s07_64-0-10_knife_10_n03041632_37618.JPEG
subject-07,3,110,0.790766954421997,keyboard,keyboard,16-10-10,2670_eid_s07_16-10-10_keyboard_10_n03085013_19607.JPEG
subject-07,3,111,0.755570888519287,cat,cat,4-10-10,2671_eid_s07_4-10-10_cat_10_n02124075_8133.JPEG
subject-07,3,112,0.801515102386475,clock,clock,2-3-10,2672_eid_s07_2-3-10_clock_10_n04548280_4225.JPEG
subject-07,3,113,0.85820198059082,chair,chair,1-10-10,2673_eid_s07_1-10-10_chair_10_n02791124_4538.JPEG
subject-07,3,114,1.5001540184021,bottle,knife,64-10-10,2674_eid_s07_64-10-10_knife_10_n03041632_56436.JPEG
subject-07,3,115,0.846597194671631,boat,bicycle,128-3-10,2675_eid_s07_128-3-10_bicycle_10_n02835271_7350.JPEG
subject-07,3,116,1.17093110084534,bicycle,clock,64-0-10,2676_eid_s07_64-0-10_clock_10_n02708093_6352.JPEG
subject-07,3,117,0.973266124725342,bottle,boat,8-0-10,2677_eid_s07_8-0-10_boat_10_n03344393_10515.JPEG
subject-07,3,118,1.04411506652832,dog,dog,1-0-10,2678_eid_s07_1-0-10_dog_10_n02095314_4191.JPEG
subject-07,3,119,1.00064992904663,boat,car,64-0-10,2679_eid_s07_64-0-10_car_10_n04285008_7109.JPEG
subject-07,3,120,0.856545925140381,boat,keyboard,64-3-10,2680_eid_s07_64-3-10_keyboard_10_n03085013_31266.JPEG
subject-07,3,121,1.06486105918884,knife,knife,1-0-10,2681_eid_s07_1-0-10_knife_10_n03041632_26405.JPEG
subject-07,3,122,1.05115699768066,airplane,airplane,2-3-10,2682_eid_s07_2-3-10_airplane_10_n02690373_6978.JPEG
subject-07,3,123,1.1539580821991,bicycle,car,64-0-10,2683_eid_s07_64-0-10_car_10_n04285008_10914.JPEG
subject-07,3,124,0.956225872039795,knife,knife,4-0-10,2684_eid_s07_4-0-10_knife_10_n03041632_40887.JPEG
subject-07,3,125,0.956282138824463,car,truck,16-10-10,2685_eid_s07_16-10-10_truck_10_n03417042_1578.JPEG
subject-07,3,126,1.00461411476135,bicycle,oven,128-0-10,2686_eid_s07_128-0-10_oven_10_n04111531_15735.JPEG
subject-07,3,127,1.07523107528687,airplane,bicycle,64-10-10,2687_eid_s07_64-10-10_bicycle_10_n03792782_5040.JPEG
subject-07,3,128,1.25581812858582,cat,chair,4-0-10,2688_eid_s07_4-0-10_chair_10_n02791124_9616.JPEG
subject-07,3,129,0.918277978897095,cat,car,128-10-10,2689_eid_s07_128-10-10_car_10_n02814533_23234.JPEG
subject-07,3,130,0.712599039077759,bicycle,boat,32-10-10,2690_eid_s07_32-10-10_boat_10_n03662601_11723.JPEG
subject-07,3,131,0.807117938995361,clock,bottle,2-3-10,2691_eid_s07_2-3-10_bottle_10_n02823428_721.JPEG
subject-07,3,132,1.00943493843079,bird,bird,16-10-10,2692_eid_s07_16-10-10_bird_10_n02013706_1024.JPEG
subject-07,3,133,0.966341018676758,bird,bird,4-0-10,2693_eid_s07_4-0-10_bird_10_n02006656_3852.JPEG
subject-07,3,134,1.05245900154114,boat,truck,32-3-10,2694_eid_s07_32-3-10_truck_10_n04467665_41.JPEG
subject-07,3,135,0.855073928833008,keyboard,keyboard,4-0-10,2695_eid_s07_4-0-10_keyboard_10_n04505470_533.JPEG
subject-07,3,136,0.801464080810547,bird,cat,8-0-10,2696_eid_s07_8-0-10_cat_10_n02124075_7520.JPEG
subject-07,3,137,1.24408602714539,bird,boat,8-3-10,2697_eid_s07_8-3-10_boat_10_n03344393_4073.JPEG
subject-07,3,138,1.35324716567993,cat,knife,16-0-10,2698_eid_s07_16-0-10_knife_10_n03041632_36277.JPEG
subject-07,3,139,NaN,na,bear,2-10-10,2699_eid_s07_2-10-10_bear_10_n02132136_131.JPEG
subject-07,3,140,0.795480966567993,cat,cat,4-3-10,2700_eid_s07_4-3-10_cat_10_n02123045_9404.JPEG
subject-07,3,141,0.990010023117065,boat,knife,64-3-10,2701_eid_s07_64-3-10_knife_10_n03041632_5102.JPEG
subject-07,3,142,1.24636578559875,boat,bottle,32-3-10,2702_eid_s07_32-3-10_bottle_10_n04560804_25678.JPEG
subject-07,3,143,1.27062392234802,boat,boat,16-0-10,2703_eid_s07_16-0-10_boat_10_n03662601_21992.JPEG
subject-07,3,144,0.789172172546387,bear,bear,1-10-10,2704_eid_s07_1-10-10_bear_10_n02132136_10875.JPEG
subject-07,3,145,0.937443971633911,bear,oven,16-0-10,2705_eid_s07_16-0-10_oven_10_n04111531_9334.JPEG
subject-07,3,146,0.893870830535889,boat,keyboard,128-0-10,2706_eid_s07_128-0-10_keyboard_10_n03085013_20822.JPEG
subject-07,3,147,0.708968162536621,cat,dog,1-0-10,2707_eid_s07_1-0-10_dog_10_n02098286_969.JPEG
subject-07,3,148,0.95598578453064,boat,cat,128-0-10,2708_eid_s07_128-0-10_cat_10_n02123045_432.JPEG
subject-07,3,149,1.15229201316833,oven,truck,2-3-10,2709_eid_s07_2-3-10_truck_10_n04467665_33667.JPEG
subject-07,3,150,0.868672847747803,bicycle,bicycle,1-10-10,2710_eid_s07_1-10-10_bicycle_10_n02835271_4599.JPEG
subject-07,3,151,1.0223388671875,knife,knife,64-10-10,2711_eid_s07_64-10-10_knife_10_n03041632_41077.JPEG
subject-07,3,152,1.26712489128113,boat,bird,128-3-10,2712_eid_s07_128-3-10_bird_10_n01514859_11955.JPEG
subject-07,3,153,0.953397989273071,car,car,1-0-10,2713_eid_s07_1-0-10_car_10_n02814533_16767.JPEG
subject-07,3,154,1.43369221687317,clock,clock,64-3-10,2714_eid_s07_64-3-10_clock_10_n04548280_584.JPEG
subject-07,3,155,1.21221804618835,oven,oven,2-3-10,2715_eid_s07_2-3-10_oven_10_n04111531_16161.JPEG
subject-07,3,156,1.13593912124634,bicycle,boat,32-0-10,2716_eid_s07_32-0-10_boat_10_n03662601_14014.JPEG
subject-07,3,157,1.0604259967804,cat,bear,16-10-10,2717_eid_s07_16-10-10_bear_10_n02134084_9920.JPEG
subject-07,3,158,0.908711910247803,airplane,airplane,2-10-10,2718_eid_s07_2-10-10_airplane_10_n02690373_10207.JPEG
subject-07,3,159,1.44152593612671,keyboard,chair,64-3-10,2719_eid_s07_64-3-10_chair_10_n03376595_11572.JPEG
subject-07,3,160,0.96626615524292,cat,airplane,16-0-10,2720_eid_s07_16-0-10_airplane_10_n02690373_9376.JPEG
subject-07,3,161,0.922677040100098,bottle,bottle,4-0-10,2721_eid_s07_4-0-10_bottle_10_n02823428_56.JPEG
subject-07,3,162,0.855309963226318,boat,truck,128-3-10,2722_eid_s07_128-3-10_truck_10_n03417042_28552.JPEG
subject-07,3,163,1.15768003463745,bicycle,bicycle,16-3-10,2723_eid_s07_16-3-10_bicycle_10_n03792782_19040.JPEG
subject-07,3,164,0.982074975967407,bear,bicycle,64-3-10,2724_eid_s07_64-3-10_bicycle_10_n02835271_2753.JPEG
subject-07,3,165,1.09811115264893,bicycle,oven,8-10-10,2725_eid_s07_8-10-10_oven_10_n04111531_7034.JPEG
subject-07,3,166,0.738698959350586,cat,cat,16-10-10,2726_eid_s07_16-10-10_cat_10_n02123159_415.JPEG
subject-07,3,167,1.05651307106018,bicycle,bicycle,128-10-10,2727_eid_s07_128-10-10_bicycle_10_n03792782_1623.JPEG
subject-07,3,168,0.835242986679077,cat,oven,4-10-10,2728_eid_s07_4-10-10_oven_10_n04111531_7764.JPEG
subject-07,3,169,0.860700845718384,bottle,bottle,1-10-10,2729_eid_s07_1-10-10_bottle_10_n04591713_4585.JPEG
subject-07,3,170,1.00860810279846,clock,clock,32-10-10,2730_eid_s07_32-10-10_clock_10_n04548280_7050.JPEG
subject-07,3,171,0.932907104492188,oven,oven,4-10-10,2731_eid_s07_4-10-10_oven_10_n04111531_10446.JPEG
subject-07,3,172,1.02108883857727,chair,chair,1-0-10,2732_eid_s07_1-0-10_chair_10_n04429376_18546.JPEG
subject-07,3,173,1.14517211914062,chair,chair,1-3-10,2733_eid_s07_1-3-10_chair_10_n04099969_3119.JPEG
subject-07,3,174,0.923254013061523,oven,clock,64-3-10,2734_eid_s07_64-3-10_clock_10_n04548280_963.JPEG
subject-07,3,175,0.818100929260254,car,bear,64-0-10,2735_eid_s07_64-0-10_bear_10_n02133161_2264.JPEG
subject-07,3,176,1.0343770980835,keyboard,keyboard,4-0-10,2736_eid_s07_4-0-10_keyboard_10_n04505470_550.JPEG
subject-07,3,177,0.936951875686646,truck,bottle,64-0-10,2737_eid_s07_64-0-10_bottle_10_n02823428_10541.JPEG
subject-07,3,178,0.831827163696289,keyboard,keyboard,8-0-10,2738_eid_s07_8-0-10_keyboard_10_n04505470_2792.JPEG
subject-07,3,179,0.834306001663208,bear,bear,1-3-10,2739_eid_s07_1-3-10_bear_10_n02134418_5.JPEG
subject-07,3,180,0.912654876708984,bicycle,bicycle,1-0-10,2740_eid_s07_1-0-10_bicycle_10_n03792782_85.JPEG
subject-07,3,181,0.691107988357544,cat,cat,1-0-10,2741_eid_s07_1-0-10_cat_10_n02123597_3634.JPEG
subject-07,3,182,1.08592486381531,truck,oven,64-3-10,2742_eid_s07_64-3-10_oven_10_n04111531_21918.JPEG
subject-07,3,183,1.02540397644043,truck,truck,1-10-10,2743_eid_s07_1-10-10_truck_10_n03417042_5809.JPEG
subject-07,3,184,0.858367919921875,clock,clock,32-10-10,2744_eid_s07_32-10-10_clock_10_n04548280_3531.JPEG
subject-07,3,185,0.790809154510498,boat,clock,128-0-10,2745_eid_s07_128-0-10_clock_10_n02708093_7963.JPEG
subject-07,3,186,1.30120897293091,bicycle,dog,64-0-10,2746_eid_s07_64-0-10_dog_10_n02101006_8370.JPEG
subject-07,3,187,1.36383700370789,bicycle,elephant,128-3-10,2747_eid_s07_128-3-10_elephant_10_n02504013_3739.JPEG
subject-07,3,188,1.19600582122803,bird,bird,4-10-10,2748_eid_s07_4-10-10_bird_10_n01514859_10519.JPEG
subject-07,3,189,1.07660102844238,cat,elephant,2-3-10,2749_eid_s07_2-3-10_elephant_10_n02504013_3089.JPEG
subject-07,3,190,1.00848484039307,bicycle,bear,8-0-10,2750_eid_s07_8-0-10_bear_10_n02134418_2438.JPEG
subject-07,3,191,1.02517008781433,cat,oven,4-10-10,2751_eid_s07_4-10-10_oven_10_n04111531_6128.JPEG
subject-07,3,192,1.10559701919556,elephant,dog,32-10-10,2752_eid_s07_32-10-10_dog_10_n02108000_6460.JPEG
subject-07,3,193,1.42201113700867,keyboard,oven,32-10-10,2753_eid_s07_32-10-10_oven_10_n04111531_13691.JPEG
subject-07,3,194,0.954309940338135,bear,bird,16-3-10,2754_eid_s07_16-3-10_bird_10_n02007558_16923.JPEG
subject-07,3,195,1.03281617164612,bird,bird,8-10-10,2755_eid_s07_8-10-10_bird_10_n02028035_2893.JPEG
subject-07,3,196,1.02719306945801,dog,bird,16-0-10,2756_eid_s07_16-0-10_bird_10_n02011460_7011.JPEG
subject-07,3,197,0.913527965545654,clock,elephant,64-10-10,2757_eid_s07_64-10-10_elephant_10_n02504013_4547.JPEG
subject-07,3,198,1.11609792709351,airplane,dog,32-3-10,2758_eid_s07_32-3-10_dog_10_n02090721_5767.JPEG
subject-07,3,199,1.09455394744873,bear,oven,64-0-10,2759_eid_s07_64-0-10_oven_10_n04111531_15943.JPEG
subject-07,3,200,0.94537091255188,boat,dog,128-3-10,2760_eid_s07_128-3-10_dog_10_n02108422_4642.JPEG
subject-07,3,201,1.16194915771484,clock,clock,128-10-10,2761_eid_s07_128-10-10_clock_10_n02708093_6597.JPEG
subject-07,3,202,1.15644001960754,airplane,boat,32-10-10,2762_eid_s07_32-10-10_boat_10_n03344393_10556.JPEG
subject-07,3,203,1.04270505905151,bicycle,dog,16-0-10,2763_eid_s07_16-0-10_dog_10_n02113799_7448.JPEG
subject-07,3,204,1.05311417579651,bird,bird,1-10-10,2764_eid_s07_1-10-10_bird_10_n01820546_3203.JPEG
subject-07,3,205,0.909962892532349,bird,bird,4-10-10,2765_eid_s07_4-10-10_bird_10_n01843065_4176.JPEG
subject-07,3,206,1.01831698417664,elephant,elephant,8-3-10,2766_eid_s07_8-3-10_elephant_10_n02504458_5899.JPEG
subject-07,3,207,0.950754165649414,car,car,2-0-10,2767_eid_s07_2-0-10_car_10_n02814533_1754.JPEG
subject-07,3,208,1.28530406951904,bird,bicycle,4-0-10,2768_eid_s07_4-0-10_bicycle_10_n03792782_7864.JPEG
subject-07,3,209,0.763489961624146,cat,cat,8-10-10,2769_eid_s07_8-10-10_cat_10_n02123394_829.JPEG
subject-07,3,210,0.766218900680542,boat,bear,128-3-10,2770_eid_s07_128-3-10_bear_10_n02134418_573.JPEG
subject-07,3,211,0.620664119720459,airplane,airplane,2-3-10,2771_eid_s07_2-3-10_airplane_10_n02690373_462.JPEG
subject-07,3,212,0.676994800567627,keyboard,keyboard,4-3-10,2772_eid_s07_4-3-10_keyboard_10_n03085013_21641.JPEG
subject-07,3,213,0.909700870513916,airplane,airplane,16-3-10,2773_eid_s07_16-3-10_airplane_10_n02690373_1800.JPEG
subject-07,3,214,0.696285009384155,bottle,bottle,4-10-10,2774_eid_s07_4-10-10_bottle_10_n04579145_139.JPEG
subject-07,3,215,0.830762147903442,cat,truck,32-3-10,2775_eid_s07_32-3-10_truck_10_n04467665_51519.JPEG
subject-07,3,216,0.831246852874756,bear,bottle,64-3-10,2776_eid_s07_64-3-10_bottle_10_n03983396_7066.JPEG
subject-07,3,217,0.933564901351929,bicycle,bird,8-0-10,2777_eid_s07_8-0-10_bird_10_n01819313_12295.JPEG
subject-07,3,218,0.943742990493774,boat,car,64-0-10,2778_eid_s07_64-0-10_car_10_n04285008_4390.JPEG
subject-07,3,219,1.00612998008728,bicycle,clock,16-0-10,2779_eid_s07_16-0-10_clock_10_n02708093_725.JPEG
subject-07,3,220,1.03884291648865,bear,oven,128-0-10,2780_eid_s07_128-0-10_oven_10_n04111531_741.JPEG
subject-07,3,221,0.773123025894165,airplane,dog,16-3-10,2781_eid_s07_16-3-10_dog_10_n02099712_2797.JPEG
subject-07,3,222,1.08903098106384,bird,elephant,16-10-10,2782_eid_s07_16-10-10_elephant_10_n02504013_8516.JPEG
subject-07,3,223,0.734979152679443,elephant,elephant,1-0-10,2783_eid_s07_1-0-10_elephant_10_n02504458_5190.JPEG
subject-07,3,224,1.0293710231781,dog,bicycle,8-0-10,2784_eid_s07_8-0-10_bicycle_10_n02835271_13006.JPEG
subject-07,3,225,0.985481023788452,keyboard,keyboard,1-10-10,2785_eid_s07_1-10-10_keyboard_10_n04505470_10699.JPEG
subject-07,3,226,1.03411388397217,chair,chair,2-0-10,2786_eid_s07_2-0-10_chair_10_n04429376_48374.JPEG
subject-07,3,227,0.842485189437866,boat,boat,128-0-10,2787_eid_s07_128-0-10_boat_10_n03662601_15766.JPEG
subject-07,3,228,1.14500617980957,bear,chair,128-0-10,2788_eid_s07_128-0-10_chair_10_n04099969_5010.JPEG
subject-07,3,229,1.00941205024719,bear,bear,2-3-10,2789_eid_s07_2-3-10_bear_10_n02134084_22323.JPEG
subject-07,3,230,1.05019497871399,cat,bottle,16-3-10,2790_eid_s07_16-3-10_bottle_10_n04557648_29471.JPEG
subject-07,3,231,0.89908504486084,car,car,4-3-10,2791_eid_s07_4-3-10_car_10_n02814533_84322.JPEG
subject-07,3,232,1.35359501838684,dog,dog,32-10-10,2792_eid_s07_32-10-10_dog_10_n02102318_19694.JPEG
subject-07,3,233,1.00190615653992,truck,truck,2-3-10,2793_eid_s07_2-3-10_truck_10_n04467665_49826.JPEG
subject-07,3,234,1.0504298210144,cat,truck,64-0-10,2794_eid_s07_64-0-10_truck_10_n03417042_29408.JPEG
subject-07,3,235,0.898737192153931,car,car,2-0-10,2795_eid_s07_2-0-10_car_10_n03100240_6979.JPEG
subject-07,3,236,0.77744197845459,bird,bird,2-10-10,2796_eid_s07_2-10-10_bird_10_n02009912_5976.JPEG
subject-07,3,237,1.25560808181763,bear,truck,128-0-10,2797_eid_s07_128-0-10_truck_10_n03796401_16686.JPEG
subject-07,3,238,0.82867693901062,bird,bicycle,32-10-10,2798_eid_s07_32-10-10_bicycle_10_n03792782_16408.JPEG
subject-07,3,239,1.12802696228027,oven,oven,1-3-10,2799_eid_s07_1-3-10_oven_10_n04111531_5328.JPEG
subject-07,3,240,1.06085896492004,truck,chair,128-0-10,2800_eid_s07_128-0-10_chair_10_n02791124_6796.JPEG
subject-07,3,241,1.06314492225647,car,bird,128-3-10,2801_eid_s07_128-3-10_bird_10_n01843065_12011.JPEG
subject-07,3,242,0.84941291809082,bear,bear,16-3-10,2802_eid_s07_16-3-10_bear_10_n02134418_2943.JPEG
subject-07,3,243,0.827900886535645,cat,bird,64-0-10,2803_eid_s07_64-0-10_bird_10_n01601694_3614.JPEG
subject-07,3,244,0.862398862838745,truck,truck,2-10-10,2804_eid_s07_2-10-10_truck_10_n04467665_2200.JPEG
subject-07,3,245,0.840149879455566,bicycle,bicycle,1-3-10,2805_eid_s07_1-3-10_bicycle_10_n02835271_25149.JPEG
subject-07,3,246,0.84322190284729,bear,truck,128-3-10,2806_eid_s07_128-3-10_truck_10_n03796401_876.JPEG
subject-07,3,247,1.02940487861633,airplane,bicycle,64-10-10,2807_eid_s07_64-10-10_bicycle_10_n03792782_4213.JPEG
subject-07,3,248,1.0298159122467,bear,airplane,128-3-10,2808_eid_s07_128-3-10_airplane_10_n02690373_2611.JPEG
subject-07,3,249,1.40838694572449,oven,chair,16-0-10,2809_eid_s07_16-0-10_chair_10_n04099969_2235.JPEG
subject-07,3,250,0.919234037399292,dog,dog,2-3-10,2810_eid_s07_2-3-10_dog_10_n02106662_23730.JPEG
subject-07,3,251,1.0510721206665,bottle,bear,64-10-10,2811_eid_s07_64-10-10_bear_10_n02134084_32651.JPEG
subject-07,3,252,0.823992013931274,airplane,airplane,1-3-10,2812_eid_s07_1-3-10_airplane_10_n02690373_6319.JPEG
subject-07,3,253,0.791242837905884,bear,elephant,8-10-10,2813_eid_s07_8-10-10_elephant_10_n02504013_6549.JPEG
subject-07,3,254,0.786039113998413,keyboard,keyboard,4-3-10,2814_eid_s07_4-3-10_keyboard_10_n03085013_24522.JPEG
subject-07,3,255,0.796475887298584,bottle,oven,128-10-10,2815_eid_s07_128-10-10_oven_10_n04111531_12161.JPEG
subject-07,3,256,0.774851083755493,bear,airplane,64-0-10,2816_eid_s07_64-0-10_airplane_10_n02690373_4306.JPEG
subject-07,3,257,0.875334978103638,cat,car,32-0-10,2817_eid_s07_32-0-10_car_10_n04285008_12698.JPEG
subject-07,3,258,0.845863103866577,truck,truck,16-10-10,2818_eid_s07_16-10-10_truck_10_n03417042_23440.JPEG
subject-07,3,259,0.810222864151001,bear,oven,128-3-10,2819_eid_s07_128-3-10_oven_10_n04111531_22120.JPEG
subject-07,3,260,0.98046612739563,bicycle,bicycle,8-0-10,2820_eid_s07_8-0-10_bicycle_10_n03792782_3613.JPEG
subject-07,3,261,0.95903205871582,truck,truck,4-10-10,2821_eid_s07_4-10-10_truck_10_n03796401_6684.JPEG
subject-07,3,262,0.829529047012329,cat,dog,16-0-10,2822_eid_s07_16-0-10_dog_10_n02106030_4261.JPEG
subject-07,3,263,1.16931200027466,bear,chair,32-0-10,2823_eid_s07_32-0-10_chair_10_n02791124_3710.JPEG
subject-07,3,264,1.23888778686523,boat,bird,128-3-10,2824_eid_s07_128-3-10_bird_10_n01820546_18865.JPEG
subject-07,3,265,1.15546202659607,bottle,chair,32-3-10,2825_eid_s07_32-3-10_chair_10_n02791124_1217.JPEG
subject-07,3,266,1.17166519165039,airplane,bicycle,32-3-10,2826_eid_s07_32-3-10_bicycle_10_n03792782_5284.JPEG
subject-07,3,267,0.844331026077271,cat,dog,32-3-10,2827_eid_s07_32-3-10_dog_10_n02111277_27585.JPEG
subject-07,3,268,0.838830947875977,cat,clock,32-10-10,2828_eid_s07_32-10-10_clock_10_n02708093_4912.JPEG
subject-07,3,269,0.984800815582275,airplane,elephant,128-10-10,2829_eid_s07_128-10-10_elephant_10_n02504458_4853.JPEG
subject-07,3,270,1.14194703102112,bear,boat,64-10-10,2830_eid_s07_64-10-10_boat_10_n04612504_7652.JPEG
subject-07,3,271,1.19472193717957,car,bicycle,128-0-10,2831_eid_s07_128-0-10_bicycle_10_n02835271_8180.JPEG
subject-07,3,272,0.859338998794556,airplane,airplane,4-3-10,2832_eid_s07_4-3-10_airplane_10_n02690373_6676.JPEG
subject-07,3,273,1.32972121238708,airplane,boat,16-3-10,2833_eid_s07_16-3-10_boat_10_n03662601_6940.JPEG
subject-07,3,274,1.04621410369873,oven,oven,16-10-10,2834_eid_s07_16-10-10_oven_10_n04111531_3099.JPEG
subject-07,3,275,NaN,na,clock,8-3-10,2835_eid_s07_8-3-10_clock_10_n04548280_4989.JPEG
subject-07,3,276,1.027498960495,knife,bottle,2-0-10,2836_eid_s07_2-0-10_bottle_10_n04591713_3348.JPEG
subject-07,3,277,0.737920999526978,bear,keyboard,32-3-10,2837_eid_s07_32-3-10_keyboard_10_n04505470_2601.JPEG
subject-07,3,278,1.17040109634399,elephant,car,16-0-10,2838_eid_s07_16-0-10_car_10_n03100240_17153.JPEG
subject-07,3,279,0.982837200164795,boat,chair,64-0-10,2839_eid_s07_64-0-10_chair_10_n02791124_390.JPEG
subject-07,3,280,0.763353109359741,airplane,airplane,1-10-10,2840_eid_s07_1-10-10_airplane_10_n02690373_3334.JPEG
subject-07,3,281,0.825937032699585,clock,clock,1-10-10,2841_eid_s07_1-10-10_clock_10_n03196217_5441.JPEG
subject-07,3,282,1.12801384925842,clock,bottle,2-3-10,2842_eid_s07_2-3-10_bottle_10_n04557648_16526.JPEG
subject-07,3,283,0.776678800582886,cat,dog,64-0-10,2843_eid_s07_64-0-10_dog_10_n02108551_10994.JPEG
subject-07,3,284,1.09309101104736,elephant,elephant,4-0-10,2844_eid_s07_4-0-10_elephant_10_n02504458_1441.JPEG
subject-07,3,285,0.741539001464844,airplane,airplane,2-0-10,2845_eid_s07_2-0-10_airplane_10_n02690373_6524.JPEG
subject-07,3,286,0.865844011306763,bear,bottle,16-0-10,2846_eid_s07_16-0-10_bottle_10_n03937543_4360.JPEG
subject-07,3,287,1.18229508399963,boat,bear,64-0-10,2847_eid_s07_64-0-10_bear_10_n02134084_7219.JPEG
subject-07,3,288,0.843976020812988,keyboard,keyboard,8-0-10,2848_eid_s07_8-0-10_keyboard_10_n03085013_21282.JPEG
subject-07,3,289,0.822735071182251,car,car,4-3-10,2849_eid_s07_4-3-10_car_10_n02814533_11391.JPEG
subject-07,3,290,0.97892689704895,boat,boat,2-3-10,2850_eid_s07_2-3-10_boat_10_n04273569_15190.JPEG
subject-07,3,291,1.43552207946777,oven,oven,16-0-10,2851_eid_s07_16-0-10_oven_10_n04111531_17809.JPEG
subject-07,3,292,1.2681930065155,bird,clock,32-3-10,2852_eid_s07_32-3-10_clock_10_n04548280_8646.JPEG
subject-07,3,293,0.722336053848267,bird,airplane,8-0-10,2853_eid_s07_8-0-10_airplane_10_n02690373_3712.JPEG
subject-07,3,294,1.01243686676025,keyboard,keyboard,2-3-10,2854_eid_s07_2-3-10_keyboard_10_n03085013_19585.JPEG
subject-07,3,295,1.05260705947876,airplane,truck,8-0-10,2855_eid_s07_8-0-10_truck_10_n04467665_58523.JPEG
subject-07,3,296,0.709311008453369,bicycle,bicycle,4-0-10,2856_eid_s07_4-0-10_bicycle_10_n02835271_2050.JPEG
subject-07,3,297,0.626101016998291,oven,oven,2-0-10,2857_eid_s07_2-0-10_oven_10_n04111531_9688.JPEG
subject-07,3,298,0.735944032669067,airplane,car,16-3-10,2858_eid_s07_16-3-10_car_10_n04285008_2829.JPEG
subject-07,3,299,0.874645948410034,knife,knife,4-10-10,2859_eid_s07_4-10-10_knife_10_n03041632_5162.JPEG
subject-07,3,300,0.831123828887939,bicycle,bicycle,4-10-10,2860_eid_s07_4-10-10_bicycle_10_n02835271_2315.JPEG
subject-07,3,301,0.809942007064819,chair,chair,4-3-10,2861_eid_s07_4-3-10_chair_10_n02791124_3180.JPEG
subject-07,3,302,1.03394508361816,boat,truck,64-0-10,2862_eid_s07_64-0-10_truck_10_n03417042_28394.JPEG
subject-07,3,303,0.936580896377563,airplane,airplane,4-10-10,2863_eid_s07_4-10-10_airplane_10_n02690373_3074.JPEG
subject-07,3,304,0.992830991744995,oven,keyboard,64-3-10,2864_eid_s07_64-3-10_keyboard_10_n04505470_659.JPEG
subject-07,3,305,0.79201602935791,clock,clock,1-3-10,2865_eid_s07_1-3-10_clock_10_n04548280_7258.JPEG
subject-07,3,306,0.962244033813477,bicycle,bear,8-0-10,2866_eid_s07_8-0-10_bear_10_n02134084_41483.JPEG
subject-07,3,307,0.926566123962402,boat,boat,8-10-10,2867_eid_s07_8-10-10_boat_10_n04612504_7680.JPEG
subject-07,3,308,0.873367786407471,knife,oven,8-0-10,2868_eid_s07_8-0-10_oven_10_n04111531_73.JPEG
subject-07,3,309,1.35911989212036,keyboard,chair,128-3-10,2869_eid_s07_128-3-10_chair_10_n02791124_2467.JPEG
subject-07,3,310,1.32146310806274,dog,elephant,4-0-10,2870_eid_s07_4-0-10_elephant_10_n02504458_415.JPEG
subject-07,3,311,0.862084150314331,clock,clock,16-10-10,2871_eid_s07_16-10-10_clock_10_n03196217_417.JPEG
subject-07,3,312,0.688585996627808,bird,bird,2-10-10,2872_eid_s07_2-10-10_bird_10_n01828970_28663.JPEG
subject-07,3,313,0.913099050521851,knife,knife,32-10-10,2873_eid_s07_32-10-10_knife_10_n03041632_23129.JPEG
subject-07,3,314,0.961690902709961,bottle,clock,128-10-10,2874_eid_s07_128-10-10_clock_10_n02708093_485.JPEG
subject-07,3,315,0.707153081893921,bicycle,bicycle,1-3-10,2875_eid_s07_1-3-10_bicycle_10_n02835271_10064.JPEG
subject-07,3,316,0.923394918441772,knife,knife,1-10-10,2876_eid_s07_1-10-10_knife_10_n03041632_41381.JPEG
subject-07,3,317,0.817789077758789,bird,bird,2-3-10,2877_eid_s07_2-3-10_bird_10_n01514859_6357.JPEG
subject-07,3,318,0.958237886428833,elephant,elephant,64-10-10,2878_eid_s07_64-10-10_elephant_10_n02504013_8972.JPEG
subject-07,3,319,0.774217844009399,elephant,elephant,4-0-10,2879_eid_s07_4-0-10_elephant_10_n02504013_1719.JPEG
subject-07,3,320,1.04659819602966,chair,chair,1-10-10,2880_eid_s07_1-10-10_chair_10_n04429376_12450.JPEG
subject-07,3,321,0.732805967330933,chair,chair,8-3-10,2881_eid_s07_8-3-10_chair_10_n02791124_5893.JPEG
subject-07,3,322,1.19594717025757,clock,cat,64-10-10,2882_eid_s07_64-10-10_cat_10_n02123159_6341.JPEG
subject-07,3,323,1.14944505691528,knife,knife,16-10-10,2883_eid_s07_16-10-10_knife_10_n03041632_22738.JPEG
subject-07,3,324,1.1141619682312,bear,truck,16-3-10,2884_eid_s07_16-3-10_truck_10_n03417042_12300.JPEG
subject-07,3,325,0.816434144973755,bird,bird,4-3-10,2885_eid_s07_4-3-10_bird_10_n01819313_15959.JPEG
subject-07,3,326,0.786993980407715,bird,bird,4-10-10,2886_eid_s07_4-10-10_bird_10_n02011460_2848.JPEG
subject-07,3,327,0.981332778930664,bear,bear,32-0-10,2887_eid_s07_32-0-10_bear_10_n02134084_13175.JPEG
subject-07,3,328,1.0189311504364,airplane,boat,4-0-10,2888_eid_s07_4-0-10_boat_10_n04273569_29194.JPEG
subject-07,3,329,1.22178292274475,bird,knife,64-10-10,2889_eid_s07_64-10-10_knife_10_n03041632_1201.JPEG
subject-07,3,330,0.686289072036743,bird,airplane,16-3-10,2890_eid_s07_16-3-10_airplane_10_n02690373_5146.JPEG
subject-07,3,331,0.594771146774292,cat,cat,1-3-10,2891_eid_s07_1-3-10_cat_10_n02123159_5389.JPEG
subject-07,3,332,0.656718015670776,car,car,4-3-10,2892_eid_s07_4-3-10_car_10_n03100240_62.JPEG
subject-07,3,333,1.02443218231201,cat,keyboard,128-3-10,2893_eid_s07_128-3-10_keyboard_10_n03085013_23583.JPEG
subject-07,3,334,0.817002058029175,cat,bottle,64-0-10,2894_eid_s07_64-0-10_bottle_10_n03937543_6432.JPEG
subject-07,3,335,0.610687017440796,airplane,airplane,1-0-10,2895_eid_s07_1-0-10_airplane_10_n02690373_18845.JPEG
subject-07,3,336,0.911005020141602,chair,chair,8-3-10,2896_eid_s07_8-3-10_chair_10_n03376595_10316.JPEG
subject-07,3,337,0.891427040100098,chair,bottle,4-0-10,2897_eid_s07_4-0-10_bottle_10_n04557648_1959.JPEG
subject-07,3,338,0.937965154647827,bear,bear,16-3-10,2898_eid_s07_16-3-10_bear_10_n02134418_967.JPEG
subject-07,3,339,0.886037111282349,bicycle,bicycle,1-10-10,2899_eid_s07_1-10-10_bicycle_10_n03792782_5864.JPEG
subject-07,3,340,1.22631597518921,oven,truck,64-10-10,2900_eid_s07_64-10-10_truck_10_n03417042_15898.JPEG
subject-07,3,341,0.858124971389771,boat,boat,1-3-10,2901_eid_s07_1-3-10_boat_10_n04612504_199.JPEG
subject-07,3,342,1.19054794311523,boat,truck,64-10-10,2902_eid_s07_64-10-10_truck_10_n04467665_72661.JPEG
subject-07,3,343,1.03909301757812,knife,knife,4-3-10,2903_eid_s07_4-3-10_knife_10_n03041632_737.JPEG
subject-07,3,344,1.11740398406982,truck,bottle,128-3-10,2904_eid_s07_128-3-10_bottle_10_n02823428_11340.JPEG
subject-07,3,345,0.804283857345581,knife,knife,1-10-10,2905_eid_s07_1-10-10_knife_10_n03041632_10140.JPEG
subject-07,3,346,0.760718822479248,knife,knife,2-0-10,2906_eid_s07_2-0-10_knife_10_n03041632_24798.JPEG
subject-07,3,347,0.82267689704895,boat,keyboard,64-0-10,2907_eid_s07_64-0-10_keyboard_10_n03085013_31513.JPEG
subject-07,3,348,0.795342922210693,cat,cat,64-10-10,2908_eid_s07_64-10-10_cat_10_n02123045_13283.JPEG
subject-07,3,349,0.881947994232178,car,car,16-3-10,2909_eid_s07_16-3-10_car_10_n02814533_4087.JPEG
subject-07,3,350,1.03029799461365,truck,boat,64-3-10,2910_eid_s07_64-3-10_boat_10_n04612504_12130.JPEG
subject-07,3,351,0.89277195930481,knife,bottle,128-10-10,2911_eid_s07_128-10-10_bottle_10_n03983396_8982.JPEG
subject-07,3,352,0.695230007171631,boat,bottle,64-0-10,2912_eid_s07_64-0-10_bottle_10_n04591713_1658.JPEG
subject-07,3,353,1.06769704818726,elephant,elephant,8-0-10,2913_eid_s07_8-0-10_elephant_10_n02504458_7302.JPEG
subject-07,3,354,0.930601119995117,bird,bird,1-0-10,2914_eid_s07_1-0-10_bird_10_n01796340_13729.JPEG
subject-07,3,355,0.911180973052979,car,car,2-3-10,2915_eid_s07_2-3-10_car_10_n04285008_1959.JPEG
subject-07,3,356,0.964900016784668,bird,bird,1-10-10,2916_eid_s07_1-10-10_bird_10_n01843383_834.JPEG
subject-07,3,357,0.859736919403076,airplane,airplane,1-10-10,2917_eid_s07_1-10-10_airplane_10_n02690373_9529.JPEG
subject-07,3,358,1.11614203453064,dog,dog,8-0-10,2918_eid_s07_8-0-10_dog_10_n02092339_4465.JPEG
subject-07,3,359,0.808340072631836,boat,airplane,64-0-10,2919_eid_s07_64-0-10_airplane_10_n02690373_9535.JPEG
subject-07,3,360,1.07255601882935,cat,dog,16-3-10,2920_eid_s07_16-3-10_dog_10_n02102040_2950.JPEG
subject-07,3,361,0.97508692741394,knife,bottle,16-3-10,2921_eid_s07_16-3-10_bottle_10_n03937543_1827.JPEG
subject-07,3,362,0.715563058853149,chair,chair,8-10-10,2922_eid_s07_8-10-10_chair_10_n03376595_6524.JPEG
subject-07,3,363,1.0861029624939,chair,dog,16-0-10,2923_eid_s07_16-0-10_dog_10_n02091831_5967.JPEG
subject-07,3,364,0.742574214935303,airplane,airplane,1-3-10,2924_eid_s07_1-3-10_airplane_10_n02690373_7536.JPEG
subject-07,3,365,0.85900092124939,knife,knife,16-10-10,2925_eid_s07_16-10-10_knife_10_n03041632_55083.JPEG
subject-07,3,366,0.883463859558105,bird,bird,4-10-10,2926_eid_s07_4-10-10_bird_10_n01797886_1645.JPEG
subject-07,3,367,1.16415905952454,boat,clock,64-3-10,2927_eid_s07_64-3-10_clock_10_n02708093_6957.JPEG
subject-07,3,368,0.766952037811279,dog,dog,1-10-10,2928_eid_s07_1-10-10_dog_10_n02087394_3556.JPEG
subject-07,3,369,0.715658903121948,car,car,8-10-10,2929_eid_s07_8-10-10_car_10_n04285008_6636.JPEG
subject-07,3,370,0.831425905227661,oven,oven,2-0-10,2930_eid_s07_2-0-10_oven_10_n04111531_20914.JPEG
subject-07,3,371,1.1100537776947,bear,dog,32-0-10,2931_eid_s07_32-0-10_dog_10_n02096294_176.JPEG
subject-07,3,372,0.742655992507935,boat,boat,128-0-10,2932_eid_s07_128-0-10_boat_10_n03344393_3831.JPEG
subject-07,3,373,0.983532905578613,boat,bottle,128-3-10,2933_eid_s07_128-3-10_bottle_10_n04579145_569.JPEG
subject-07,3,374,0.69964599609375,bird,bird,4-0-10,2934_eid_s07_4-0-10_bird_10_n02013706_2216.JPEG
subject-07,3,375,0.785728931427002,bicycle,bicycle,1-3-10,2935_eid_s07_1-3-10_bicycle_10_n02835271_8796.JPEG
subject-07,3,376,0.934337854385376,bicycle,bicycle,64-10-10,2936_eid_s07_64-10-10_bicycle_10_n02835271_8109.JPEG
subject-07,3,377,0.920817136764526,clock,clock,2-10-10,2937_eid_s07_2-10-10_clock_10_n04548280_4995.JPEG
subject-07,3,378,0.669409990310669,bicycle,bicycle,2-3-10,2938_eid_s07_2-3-10_bicycle_10_n02835271_1394.JPEG
subject-07,3,379,1.00162100791931,bicycle,car,32-10-10,2939_eid_s07_32-10-10_car_10_n04285008_12070.JPEG
subject-07,3,380,0.717501163482666,airplane,airplane,1-10-10,2940_eid_s07_1-10-10_airplane_10_n02690373_852.JPEG
subject-07,3,381,0.949727058410645,bicycle,bicycle,4-0-10,2941_eid_s07_4-0-10_bicycle_10_n02835271_8830.JPEG
subject-07,3,382,0.812315940856934,car,car,4-0-10,2942_eid_s07_4-0-10_car_10_n03100240_24648.JPEG
subject-07,3,383,0.782045125961304,boat,clock,128-3-10,2943_eid_s07_128-3-10_clock_10_n04548280_4349.JPEG
subject-07,3,384,0.838482856750488,airplane,clock,16-10-10,2944_eid_s07_16-10-10_clock_10_n04548280_9867.JPEG
subject-07,3,385,0.832895994186401,bird,truck,16-3-10,2945_eid_s07_16-3-10_truck_10_n03796401_2543.JPEG
subject-07,3,386,0.941013097763062,bird,cat,1-0-10,2946_eid_s07_1-0-10_cat_10_n02125311_19827.JPEG
subject-07,3,387,0.918948173522949,bicycle,bicycle,2-0-10,2947_eid_s07_2-0-10_bicycle_10_n03792782_57971.JPEG
subject-07,3,388,0.743412971496582,bird,bird,2-3-10,2948_eid_s07_2-3-10_bird_10_n02002556_6322.JPEG
subject-07,3,389,1.03800892829895,elephant,truck,16-3-10,2949_eid_s07_16-3-10_truck_10_n03417042_1437.JPEG
subject-07,3,390,0.956345081329346,boat,bear,32-3-10,2950_eid_s07_32-3-10_bear_10_n02132136_4913.JPEG
subject-07,3,391,1.21083092689514,boat,boat,1-0-10,2951_eid_s07_1-0-10_boat_10_n03344393_3535.JPEG
subject-07,3,392,1.14381098747253,boat,bicycle,128-3-10,2952_eid_s07_128-3-10_bicycle_10_n03792782_6160.JPEG
subject-07,3,393,1.28428387641907,bear,dog,32-0-10,2953_eid_s07_32-0-10_dog_10_n02105641_5908.JPEG
subject-07,3,394,1.1480770111084,truck,bottle,64-0-10,2954_eid_s07_64-0-10_bottle_10_n04557648_4008.JPEG
subject-07,3,395,0.92679500579834,chair,truck,64-10-10,2955_eid_s07_64-10-10_truck_10_n03796401_24833.JPEG
subject-07,3,396,1.11350607872009,bicycle,clock,128-3-10,2956_eid_s07_128-3-10_clock_10_n04548280_8277.JPEG
subject-07,3,397,0.924000978469849,keyboard,keyboard,2-0-10,2957_eid_s07_2-0-10_keyboard_10_n03085013_6643.JPEG
subject-07,3,398,0.973656892776489,dog,dog,1-0-10,2958_eid_s07_1-0-10_dog_10_n02099601_4614.JPEG
subject-07,3,399,0.819443941116333,chair,chair,4-0-10,2959_eid_s07_4-0-10_chair_10_n03376595_8973.JPEG
subject-07,3,400,0.721767902374268,cat,cat,2-10-10,2960_eid_s07_2-10-10_cat_10_n02123045_4580.JPEG
subject-07,3,401,1.3000180721283,bicycle,truck,128-3-10,2961_eid_s07_128-3-10_truck_10_n03417042_18268.JPEG
subject-07,3,402,0.778548002243042,bicycle,chair,64-0-10,2962_eid_s07_64-0-10_chair_10_n02791124_6731.JPEG
subject-07,3,403,0.689181089401245,bear,bear,4-3-10,2963_eid_s07_4-3-10_bear_10_n02132136_10684.JPEG
subject-07,3,404,0.837867021560669,bicycle,chair,64-3-10,2964_eid_s07_64-3-10_chair_10_n03376595_9603.JPEG
subject-07,3,405,0.716120004653931,bicycle,dog,64-3-10,2965_eid_s07_64-3-10_dog_10_n02096437_6409.JPEG
subject-07,3,406,1.50000786781311,cat,keyboard,128-10-10,2966_eid_s07_128-10-10_keyboard_10_n04505470_5125.JPEG
subject-07,3,407,1.35275483131409,boat,knife,64-0-10,2967_eid_s07_64-0-10_knife_10_n03041632_13656.JPEG
subject-07,3,408,0.863070011138916,bicycle,bear,64-3-10,2968_eid_s07_64-3-10_bear_10_n02133161_4938.JPEG
subject-07,3,409,1.06433796882629,bear,car,32-3-10,2969_eid_s07_32-3-10_car_10_n02814533_40700.JPEG
subject-07,3,410,0.842485904693604,knife,clock,16-10-10,2970_eid_s07_16-10-10_clock_10_n03196217_4286.JPEG
subject-07,3,411,0.73082709312439,cat,cat,2-10-10,2971_eid_s07_2-10-10_cat_10_n02123394_8675.JPEG
subject-07,3,412,0.963535070419312,airplane,airplane,8-10-10,2972_eid_s07_8-10-10_airplane_10_n02690373_111.JPEG
subject-07,3,413,0.9879469871521,truck,truck,8-10-10,2973_eid_s07_8-10-10_truck_10_n04467665_8824.JPEG
subject-07,3,414,1.07462692260742,cat,car,16-0-10,2974_eid_s07_16-0-10_car_10_n02814533_91790.JPEG
subject-07,3,415,0.698980808258057,oven,clock,8-0-10,2975_eid_s07_8-0-10_clock_10_n03196217_6094.JPEG
subject-07,3,416,1.09330701828003,bear,bear,32-3-10,2976_eid_s07_32-3-10_bear_10_n02134418_12172.JPEG
subject-07,3,417,0.895711183547974,knife,knife,2-10-10,2977_eid_s07_2-10-10_knife_10_n03041632_87380.JPEG
subject-07,3,418,0.804588079452515,knife,knife,4-0-10,2978_eid_s07_4-0-10_knife_10_n03041632_16826.JPEG
subject-07,3,419,1.05287599563599,elephant,elephant,4-10-10,2979_eid_s07_4-10-10_elephant_10_n02504013_2844.JPEG
subject-07,3,420,0.885389089584351,knife,knife,4-10-10,2980_eid_s07_4-10-10_knife_10_n03041632_7116.JPEG
subject-07,3,421,0.903856039047241,boat,airplane,64-3-10,2981_eid_s07_64-3-10_airplane_10_n02690373_3827.JPEG
subject-07,3,422,1.28278684616089,clock,oven,16-0-10,2982_eid_s07_16-0-10_oven_10_n04111531_22388.JPEG
subject-07,3,423,0.784949064254761,bicycle,oven,64-0-10,2983_eid_s07_64-0-10_oven_10_n04111531_891.JPEG
subject-07,3,424,0.75544285774231,bicycle,bird,64-10-10,2984_eid_s07_64-10-10_bird_10_n01796340_14357.JPEG
subject-07,3,425,1.17998194694519,car,car,2-10-10,2985_eid_s07_2-10-10_car_10_n04285008_3103.JPEG
subject-07,3,426,1.37358903884888,knife,knife,8-0-10,2986_eid_s07_8-0-10_knife_10_n03041632_28009.JPEG
subject-07,3,427,1.074059009552,bear,car,128-0-10,2987_eid_s07_128-0-10_car_10_n02814533_15907.JPEG
subject-07,3,428,1.02263116836548,bicycle,car,128-10-10,2988_eid_s07_128-10-10_car_10_n04285008_4005.JPEG
subject-07,3,429,0.871623992919922,airplane,airplane,1-0-10,2989_eid_s07_1-0-10_airplane_10_n02690373_3669.JPEG
subject-07,3,430,1.11999607086182,truck,keyboard,64-0-10,2990_eid_s07_64-0-10_keyboard_10_n03085013_5141.JPEG
subject-07,3,431,1.14431691169739,truck,keyboard,16-0-10,2991_eid_s07_16-0-10_keyboard_10_n03085013_23629.JPEG
subject-07,3,432,1.25499701499939,knife,chair,8-0-10,2992_eid_s07_8-0-10_chair_10_n04429376_4586.JPEG
subject-07,3,433,1.0633499622345,bicycle,bicycle,2-0-10,2993_eid_s07_2-0-10_bicycle_10_n02835271_507.JPEG
subject-07,3,434,0.819792032241821,bicycle,bear,128-0-10,2994_eid_s07_128-0-10_bear_10_n02132136_355.JPEG
subject-07,3,435,0.952039957046509,elephant,bear,32-10-10,2995_eid_s07_32-10-10_bear_10_n02133161_12739.JPEG
subject-07,3,436,0.645918130874634,car,car,1-0-10,2996_eid_s07_1-0-10_car_10_n02814533_37736.JPEG
subject-07,3,437,0.754754066467285,keyboard,oven,1-0-10,2997_eid_s07_1-0-10_oven_10_n04111531_10199.JPEG
subject-07,3,438,1.08689379692078,airplane,knife,16-0-10,2998_eid_s07_16-0-10_knife_10_n03041632_30565.JPEG
subject-07,3,439,1.15996503829956,boat,airplane,4-3-10,2999_eid_s07_4-3-10_airplane_10_n02690373_4982.JPEG
subject-07,3,440,1.04606199264526,dog,cat,16-10-10,3000_eid_s07_16-10-10_cat_10_n02125311_13652.JPEG
subject-07,3,441,NaN,na,chair,2-0-10,3001_eid_s07_2-0-10_chair_10_n04099969_4049.JPEG
subject-07,3,442,0.702967882156372,oven,oven,2-3-10,3002_eid_s07_2-3-10_oven_10_n04111531_4665.JPEG
subject-07,3,443,1.35681295394897,bottle,chair,2-3-10,3003_eid_s07_2-3-10_chair_10_n02791124_9831.JPEG
subject-07,3,444,1.25941896438599,bear,cat,64-3-10,3004_eid_s07_64-3-10_cat_10_n02125311_32481.JPEG
subject-07,3,445,1.32992887496948,bird,cat,4-3-10,3005_eid_s07_4-3-10_cat_10_n02123394_1156.JPEG
subject-07,3,446,1.5003228187561,dog,dog,8-0-10,3006_eid_s07_8-0-10_dog_10_n02093991_4481.JPEG
subject-07,3,447,1.09486198425293,cat,car,64-10-10,3007_eid_s07_64-10-10_car_10_n02814533_76061.JPEG
subject-07,3,448,0.767663955688477,cat,cat,4-0-10,3008_eid_s07_4-0-10_cat_10_n02124075_14929.JPEG
subject-07,3,449,0.899873018264771,bear,car,32-0-10,3009_eid_s07_32-0-10_car_10_n02814533_5618.JPEG
subject-07,3,450,0.978399991989136,cat,clock,64-10-10,3010_eid_s07_64-10-10_clock_10_n03196217_5404.JPEG
subject-07,3,451,0.926752090454102,bear,oven,32-0-10,3011_eid_s07_32-0-10_oven_10_n04111531_7452.JPEG
subject-07,3,452,0.805521965026855,dog,dog,4-0-10,3012_eid_s07_4-0-10_dog_10_n02087394_1964.JPEG
subject-07,3,453,1.10798597335815,bird,keyboard,32-10-10,3013_eid_s07_32-10-10_keyboard_10_n03085013_25875.JPEG
subject-07,3,454,0.770806074142456,bear,cat,64-0-10,3014_eid_s07_64-0-10_cat_10_n02123159_9653.JPEG
subject-07,3,455,1.00201392173767,elephant,elephant,4-3-10,3015_eid_s07_4-3-10_elephant_10_n02504013_22633.JPEG
subject-07,3,456,1.01848602294922,boat,bird,128-3-10,3016_eid_s07_128-3-10_bird_10_n01820546_483.JPEG
subject-07,3,457,1.35878396034241,truck,elephant,32-3-10,3017_eid_s07_32-3-10_elephant_10_n02504458_8269.JPEG
subject-07,3,458,0.782876014709473,oven,oven,1-3-10,3018_eid_s07_1-3-10_oven_10_n04111531_8046.JPEG
subject-07,3,459,0.785073041915894,keyboard,keyboard,4-0-10,3019_eid_s07_4-0-10_keyboard_10_n03085013_31250.JPEG
subject-07,3,460,0.901648044586182,boat,boat,2-0-10,3020_eid_s07_2-0-10_boat_10_n03344393_1753.JPEG
subject-07,3,461,1.21217513084412,bicycle,bottle,32-3-10,3021_eid_s07_32-3-10_bottle_10_n03937543_2313.JPEG
subject-07,3,462,1.11454701423645,keyboard,keyboard,4-3-10,3022_eid_s07_4-3-10_keyboard_10_n04505470_3959.JPEG
subject-07,3,463,1.09328818321228,airplane,truck,64-10-10,3023_eid_s07_64-10-10_truck_10_n04467665_53877.JPEG
subject-07,3,464,1.27175498008728,cat,bottle,32-10-10,3024_eid_s07_32-10-10_bottle_10_n02823428_1774.JPEG
subject-07,3,465,1.06567597389221,bear,oven,32-3-10,3025_eid_s07_32-3-10_oven_10_n04111531_2630.JPEG
subject-07,3,466,1.07889699935913,boat,car,64-3-10,3026_eid_s07_64-3-10_car_10_n02814533_22693.JPEG
subject-07,3,467,1.06748080253601,bottle,elephant,16-3-10,3027_eid_s07_16-3-10_elephant_10_n02504013_9141.JPEG
subject-07,3,468,0.954063892364502,truck,truck,4-0-10,3028_eid_s07_4-0-10_truck_10_n04467665_76122.JPEG
subject-07,3,469,1.20859003067017,airplane,airplane,2-3-10,3029_eid_s07_2-3-10_airplane_10_n02690373_6104.JPEG
subject-07,3,470,1.50032782554626,bird,bird,128-10-10,3030_eid_s07_128-10-10_bird_10_n02009229_76.JPEG
subject-07,3,471,0.996978998184204,bicycle,truck,64-3-10,3031_eid_s07_64-3-10_truck_10_n03417042_10751.JPEG
subject-07,3,472,0.883469104766846,truck,truck,4-0-10,3032_eid_s07_4-0-10_truck_10_n04467665_24190.JPEG
subject-07,3,473,0.67719292640686,airplane,airplane,2-10-10,3033_eid_s07_2-10-10_airplane_10_n02690373_10176.JPEG
subject-07,3,474,1.03153395652771,knife,knife,2-3-10,3034_eid_s07_2-3-10_knife_10_n03041632_19275.JPEG
subject-07,3,475,1.30973100662231,bird,elephant,8-10-10,3035_eid_s07_8-10-10_elephant_10_n02504013_2802.JPEG
subject-07,3,476,0.844412088394165,bear,chair,64-3-10,3036_eid_s07_64-3-10_chair_10_n02791124_5405.JPEG
subject-07,3,477,1.0115978717804,bicycle,bicycle,4-3-10,3037_eid_s07_4-3-10_bicycle_10_n02835271_21540.JPEG
subject-07,3,478,0.737725973129272,keyboard,keyboard,2-3-10,3038_eid_s07_2-3-10_keyboard_10_n03085013_20180.JPEG
subject-07,3,479,1.29241800308228,bear,bottle,32-0-10,3039_eid_s07_32-0-10_bottle_10_n04560804_915.JPEG
subject-07,3,480,1.40292406082153,bottle,bottle,32-10-10,3040_eid_s07_32-10-10_bottle_10_n04560804_1255.JPEG
subject-07,3,481,1.07318806648254,cat,cat,2-0-10,3041_eid_s07_2-0-10_cat_10_n02124075_13484.JPEG
subject-07,3,482,0.767126083374023,cat,knife,8-3-10,3042_eid_s07_8-3-10_knife_10_n03041632_24326.JPEG
subject-07,3,483,0.775192975997925,elephant,elephant,1-0-10,3043_eid_s07_1-0-10_elephant_10_n02504013_6710.JPEG
subject-07,3,484,0.823264122009277,boat,boat,128-3-10,3044_eid_s07_128-3-10_boat_10_n03662601_8185.JPEG
subject-07,3,485,0.879724025726318,bear,bear,32-3-10,3045_eid_s07_32-3-10_bear_10_n02132136_16490.JPEG
subject-07,3,486,1.17217493057251,truck,airplane,128-0-10,3046_eid_s07_128-0-10_airplane_10_n02690373_7748.JPEG
subject-07,3,487,1.32069802284241,bottle,chair,128-10-10,3047_eid_s07_128-10-10_chair_10_n04099969_1856.JPEG
subject-07,3,488,1.17709112167358,bottle,oven,128-10-10,3048_eid_s07_128-10-10_oven_10_n04111531_7096.JPEG
subject-07,3,489,0.693831920623779,bicycle,bicycle,16-10-10,3049_eid_s07_16-10-10_bicycle_10_n03792782_42780.JPEG
subject-07,3,490,1.15796804428101,oven,oven,1-3-10,3050_eid_s07_1-3-10_oven_10_n04111531_9712.JPEG
subject-07,3,491,1.19035601615906,boat,bear,128-0-10,3051_eid_s07_128-0-10_bear_10_n02132136_12391.JPEG
subject-07,3,492,1.09288597106934,dog,bear,32-10-10,3052_eid_s07_32-10-10_bear_10_n02134418_4216.JPEG
subject-07,3,493,0.817601203918457,boat,boat,1-10-10,3053_eid_s07_1-10-10_boat_10_n02951358_1516.JPEG
subject-07,3,494,1.28766298294067,clock,clock,16-0-10,3054_eid_s07_16-0-10_clock_10_n02708093_7122.JPEG
subject-07,3,495,0.628695964813232,boat,boat,1-3-10,3055_eid_s07_1-3-10_boat_10_n04273569_23140.JPEG
subject-07,3,496,0.844732046127319,bicycle,bicycle,2-10-10,3056_eid_s07_2-10-10_bicycle_10_n02835271_9670.JPEG
subject-07,3,497,0.809015035629272,truck,truck,1-10-10,3057_eid_s07_1-10-10_truck_10_n04467665_1410.JPEG
subject-07,3,498,1.21713185310364,dog,car,16-10-10,3058_eid_s07_16-10-10_car_10_n02814533_22500.JPEG
subject-07,3,499,1.50026822090149,keyboard,oven,1-0-10,3059_eid_s07_1-0-10_oven_10_n04111531_4148.JPEG
subject-07,3,500,0.989600896835327,oven,oven,1-3-10,3060_eid_s07_1-3-10_oven_10_n04111531_22517.JPEG
subject-07,3,501,0.736221790313721,dog,dog,2-0-10,3061_eid_s07_2-0-10_dog_10_n02112018_14468.JPEG
subject-07,3,502,0.838500022888184,bear,dog,32-3-10,3062_eid_s07_32-3-10_dog_10_n02105162_2524.JPEG
subject-07,3,503,0.800156116485596,dog,dog,1-0-10,3063_eid_s07_1-0-10_dog_10_n02104365_1822.JPEG
subject-07,3,504,0.778795957565308,car,car,8-3-10,3064_eid_s07_8-3-10_car_10_n04285008_10944.JPEG
subject-07,3,505,0.819139003753662,clock,clock,4-10-10,3065_eid_s07_4-10-10_clock_10_n02708093_6197.JPEG
subject-07,3,506,1.08127593994141,boat,boat,1-10-10,3066_eid_s07_1-10-10_boat_10_n04273569_22166.JPEG
subject-07,3,507,1.39793300628662,bear,chair,16-10-10,3067_eid_s07_16-10-10_chair_10_n03376595_9134.JPEG
subject-07,3,508,0.999865055084229,knife,knife,1-3-10,3068_eid_s07_1-3-10_knife_10_n03041632_24113.JPEG
subject-07,3,509,1.10213899612427,boat,bird,64-3-10,3069_eid_s07_64-3-10_bird_10_n01616318_2453.JPEG
subject-07,3,510,0.726733922958374,cat,cat,1-0-10,3070_eid_s07_1-0-10_cat_10_n02123159_4881.JPEG
subject-07,3,511,0.837766885757446,elephant,bear,8-3-10,3071_eid_s07_8-3-10_bear_10_n02134418_1871.JPEG
subject-07,3,512,1.17815184593201,bear,oven,64-3-10,3072_eid_s07_64-3-10_oven_10_n04111531_5357.JPEG
subject-07,3,513,0.884526014328003,clock,clock,1-10-10,3073_eid_s07_1-10-10_clock_10_n04548280_8494.JPEG
subject-07,3,514,0.678393125534058,oven,oven,2-3-10,3074_eid_s07_2-3-10_oven_10_n04111531_2473.JPEG
subject-07,3,515,0.77877402305603,airplane,airplane,1-3-10,3075_eid_s07_1-3-10_airplane_10_n02690373_6380.JPEG
subject-07,3,516,0.673632144927979,airplane,airplane,64-10-10,3076_eid_s07_64-10-10_airplane_10_n02690373_6655.JPEG
subject-07,3,517,1.03637099266052,bear,bicycle,32-3-10,3077_eid_s07_32-3-10_bicycle_10_n02835271_8534.JPEG
subject-07,3,518,0.784834146499634,elephant,elephant,16-3-10,3078_eid_s07_16-3-10_elephant_10_n02504013_7497.JPEG
subject-07,3,519,0.917820930480957,bicycle,bear,128-10-10,3079_eid_s07_128-10-10_bear_10_n02132136_22545.JPEG
subject-07,3,520,0.674148082733154,boat,truck,64-3-10,3080_eid_s07_64-3-10_truck_10_n03796401_2101.JPEG
subject-07,3,521,1.12067294120789,bottle,clock,128-10-10,3081_eid_s07_128-10-10_clock_10_n02708093_3566.JPEG
subject-07,3,522,0.831027984619141,bear,elephant,32-3-10,3082_eid_s07_32-3-10_elephant_10_n02504458_1190.JPEG
subject-07,3,523,0.771369934082031,cat,bottle,16-0-10,3083_eid_s07_16-0-10_bottle_10_n04560804_4456.JPEG
subject-07,3,524,1.07993292808533,keyboard,clock,128-10-10,3084_eid_s07_128-10-10_clock_10_n04548280_668.JPEG
subject-07,3,525,1.18231511116028,clock,clock,8-0-10,3085_eid_s07_8-0-10_clock_10_n04548280_4686.JPEG
subject-07,3,526,0.906925916671753,clock,clock,1-0-10,3086_eid_s07_1-0-10_clock_10_n02708093_3841.JPEG
subject-07,3,527,0.825639009475708,elephant,truck,32-3-10,3087_eid_s07_32-3-10_truck_10_n03796401_18267.JPEG
subject-07,3,528,0.904614925384521,cat,bear,16-0-10,3088_eid_s07_16-0-10_bear_10_n02134084_5281.JPEG
subject-07,3,529,0.82065486907959,bear,elephant,32-0-10,3089_eid_s07_32-0-10_elephant_10_n02504458_11158.JPEG
subject-07,3,530,0.844413042068481,bear,truck,64-0-10,3090_eid_s07_64-0-10_truck_10_n03796401_4390.JPEG
subject-07,3,531,1.03850293159485,bicycle,bicycle,128-0-10,3091_eid_s07_128-0-10_bicycle_10_n03792782_4295.JPEG
subject-07,3,532,0.895541906356812,airplane,airplane,2-3-10,3092_eid_s07_2-3-10_airplane_10_n02690373_6328.JPEG
subject-07,3,533,1.03609704971313,elephant,elephant,1-10-10,3093_eid_s07_1-10-10_elephant_10_n02504458_5641.JPEG
subject-07,3,534,0.935750007629395,bear,bicycle,32-0-10,3094_eid_s07_32-0-10_bicycle_10_n02835271_14433.JPEG
subject-07,3,535,1.34606599807739,bear,bottle,128-0-10,3095_eid_s07_128-0-10_bottle_10_n04557648_2758.JPEG
subject-07,3,536,1.27092003822327,boat,boat,8-0-10,3096_eid_s07_8-0-10_boat_10_n04612504_4440.JPEG
subject-07,3,537,1.10306596755981,bird,bird,16-10-10,3097_eid_s07_16-10-10_bird_10_n01614925_1846.JPEG
subject-07,3,538,1.07364201545715,car,car,2-0-10,3098_eid_s07_2-0-10_car_10_n04285008_15027.JPEG
subject-07,3,539,0.892283916473389,cat,oven,128-10-10,3099_eid_s07_128-10-10_oven_10_n04111531_13906.JPEG
subject-07,3,540,0.808755874633789,elephant,elephant,8-0-10,3100_eid_s07_8-0-10_elephant_10_n02504013_6001.JPEG
subject-07,3,541,0.986985921859741,bear,car,64-10-10,3101_eid_s07_64-10-10_car_10_n03100240_8107.JPEG
subject-07,3,542,1.16522812843323,elephant,bird,8-3-10,3102_eid_s07_8-3-10_bird_10_n01817953_5869.JPEG
subject-07,3,543,0.875879049301147,cat,chair,64-10-10,3103_eid_s07_64-10-10_chair_10_n02791124_1466.JPEG
subject-07,3,544,0.923989057540894,keyboard,keyboard,8-0-10,3104_eid_s07_8-0-10_keyboard_10_n04505470_2235.JPEG
subject-07,3,545,1.38584017753601,bear,boat,16-3-10,3105_eid_s07_16-3-10_boat_10_n03344393_6903.JPEG
subject-07,3,546,0.972476959228516,oven,car,16-0-10,3106_eid_s07_16-0-10_car_10_n03100240_1397.JPEG
subject-07,3,547,0.883062124252319,bear,bear,8-10-10,3107_eid_s07_8-10-10_bear_10_n02133161_7184.JPEG
subject-07,3,548,1.19971013069153,dog,oven,4-3-10,3108_eid_s07_4-3-10_oven_10_n04111531_9174.JPEG
subject-07,3,549,0.748265981674194,boat,boat,1-3-10,3109_eid_s07_1-3-10_boat_10_n03662601_7324.JPEG
subject-07,3,550,1.3105411529541,bird,bird,32-10-10,3110_eid_s07_32-10-10_bird_10_n02033041_1805.JPEG
subject-07,3,551,0.86676287651062,bottle,bottle,1-10-10,3111_eid_s07_1-10-10_bottle_10_n02823428_8167.JPEG
subject-07,3,552,1.0207200050354,oven,truck,32-10-10,3112_eid_s07_32-10-10_truck_10_n03796401_2934.JPEG
subject-07,3,553,1.49107384681702,bird,bird,2-3-10,3113_eid_s07_2-3-10_bird_10_n02018795_18249.JPEG
subject-07,3,554,0.723155975341797,knife,knife,8-10-10,3114_eid_s07_8-10-10_knife_10_n03041632_21590.JPEG
subject-07,3,555,0.755915880203247,bear,bear,64-3-10,3115_eid_s07_64-3-10_bear_10_n02132136_360.JPEG
subject-07,3,556,0.944553852081299,bird,car,64-10-10,3116_eid_s07_64-10-10_car_10_n04285008_10223.JPEG
subject-07,3,557,0.844520807266235,oven,oven,1-0-10,3117_eid_s07_1-0-10_oven_10_n04111531_11279.JPEG
subject-07,3,558,1.00099205970764,bottle,bottle,4-0-10,3118_eid_s07_4-0-10_bottle_10_n04560804_17540.JPEG
subject-07,3,559,0.80053186416626,cat,dog,16-3-10,3119_eid_s07_16-3-10_dog_10_n02107142_1753.JPEG
subject-07,3,560,0.841189861297607,bear,bear,8-10-10,3120_eid_s07_8-10-10_bear_10_n02134084_9127.JPEG
subject-07,3,561,0.72740912437439,knife,knife,8-0-10,3121_eid_s07_8-0-10_knife_10_n03041632_4879.JPEG
subject-07,3,562,0.697895050048828,elephant,bicycle,32-10-10,3122_eid_s07_32-10-10_bicycle_10_n02835271_7248.JPEG
subject-07,3,563,0.6826491355896,bear,oven,64-0-10,3123_eid_s07_64-0-10_oven_10_n04111531_7728.JPEG
subject-07,3,564,0.683362007141113,bird,bird,1-10-10,3124_eid_s07_1-10-10_bird_10_n02037110_11994.JPEG
subject-07,3,565,0.88499116897583,keyboard,bird,128-0-10,3125_eid_s07_128-0-10_bird_10_n02037110_946.JPEG
subject-07,3,566,0.693320989608765,bird,bird,1-0-10,3126_eid_s07_1-0-10_bird_10_n02006656_1142.JPEG
subject-07,3,567,0.93343710899353,elephant,elephant,8-10-10,3127_eid_s07_8-10-10_elephant_10_n02504013_5424.JPEG
subject-07,3,568,1.38010406494141,bear,cat,128-3-10,3128_eid_s07_128-3-10_cat_10_n02123597_11061.JPEG
subject-07,3,569,1.12888503074646,elephant,knife,16-10-10,3129_eid_s07_16-10-10_knife_10_n03041632_18126.JPEG
subject-07,3,570,0.639093160629272,bicycle,bicycle,4-3-10,3130_eid_s07_4-3-10_bicycle_10_n03792782_16707.JPEG
subject-07,3,571,0.899559020996094,boat,bicycle,128-3-10,3131_eid_s07_128-3-10_bicycle_10_n02835271_22739.JPEG
subject-07,3,572,0.923908948898315,clock,clock,2-3-10,3132_eid_s07_2-3-10_clock_10_n04548280_2769.JPEG
subject-07,3,573,0.694629907608032,boat,boat,2-0-10,3133_eid_s07_2-0-10_boat_10_n03344393_8022.JPEG
subject-07,3,574,1.16540193557739,truck,chair,128-0-10,3134_eid_s07_128-0-10_chair_10_n04099969_38700.JPEG
subject-07,3,575,0.867767810821533,elephant,oven,1-10-10,3135_eid_s07_1-10-10_oven_10_n04111531_21208.JPEG
subject-07,3,576,1.05441498756409,bear,dog,64-3-10,3136_eid_s07_64-3-10_dog_10_n02110958_5104.JPEG
subject-07,3,577,1.21044516563416,bear,bear,128-0-10,3137_eid_s07_128-0-10_bear_10_n02134418_1121.JPEG
subject-07,3,578,0.664707899093628,bird,bird,2-0-10,3138_eid_s07_2-0-10_bird_10_n02051845_5166.JPEG
subject-07,3,579,0.712644100189209,cat,cat,2-10-10,3139_eid_s07_2-10-10_cat_10_n02124075_8028.JPEG
subject-07,3,580,0.791248083114624,airplane,boat,4-10-10,3140_eid_s07_4-10-10_boat_10_n04273569_2886.JPEG
subject-07,3,581,0.847999095916748,bottle,boat,32-0-10,3141_eid_s07_32-0-10_boat_10_n03344393_14213.JPEG
subject-07,3,582,0.855345010757446,boat,bear,32-0-10,3142_eid_s07_32-0-10_bear_10_n02133161_15867.JPEG
subject-07,3,583,1.24208307266235,bicycle,dog,128-0-10,3143_eid_s07_128-0-10_dog_10_n02112018_7341.JPEG
subject-07,3,584,0.904841184616089,cat,cat,32-3-10,3144_eid_s07_32-3-10_cat_10_n02123159_6534.JPEG
subject-07,3,585,0.739342927932739,car,car,1-10-10,3145_eid_s07_1-10-10_car_10_n04285008_4841.JPEG
subject-07,3,586,0.771756172180176,bottle,bottle,1-10-10,3146_eid_s07_1-10-10_bottle_10_n04591713_5851.JPEG
subject-07,3,587,1.04261898994446,boat,boat,64-0-10,3147_eid_s07_64-0-10_boat_10_n03662601_3476.JPEG
subject-07,3,588,0.888334989547729,car,oven,32-3-10,3148_eid_s07_32-3-10_oven_10_n04111531_9822.JPEG
subject-07,3,589,0.737014055252075,oven,oven,1-0-10,3149_eid_s07_1-0-10_oven_10_n04111531_16251.JPEG
subject-07,3,590,1.25349307060242,boat,car,128-3-10,3150_eid_s07_128-3-10_car_10_n03100240_23831.JPEG
subject-07,3,591,1.00216698646545,cat,bottle,64-10-10,3151_eid_s07_64-10-10_bottle_10_n04560804_14245.JPEG
subject-07,3,592,0.833156108856201,bear,bear,1-3-10,3152_eid_s07_1-3-10_bear_10_n02133161_9844.JPEG
subject-07,3,593,0.841456890106201,bottle,bottle,1-0-10,3153_eid_s07_1-0-10_bottle_10_n04560804_16363.JPEG
subject-07,3,594,1.02015113830566,cat,truck,64-3-10,3154_eid_s07_64-3-10_truck_10_n03796401_7258.JPEG
subject-07,3,595,0.706379890441895,boat,chair,128-3-10,3155_eid_s07_128-3-10_chair_10_n03376595_13441.JPEG
subject-07,3,596,0.93044900894165,airplane,boat,32-3-10,3156_eid_s07_32-3-10_boat_10_n03344393_5597.JPEG
subject-07,3,597,0.763211965560913,truck,car,64-0-10,3157_eid_s07_64-0-10_car_10_n03100240_1284.JPEG
subject-07,3,598,1.50028109550476,knife,bottle,8-3-10,3158_eid_s07_8-3-10_bottle_10_n04591713_9599.JPEG
subject-07,3,599,1.21942090988159,bottle,bear,32-10-10,3159_eid_s07_32-10-10_bear_10_n02132136_3109.JPEG
subject-07,3,600,0.960066080093384,bicycle,bottle,8-3-10,3160_eid_s07_8-3-10_bottle_10_n02823428_3731.JPEG
subject-07,3,601,0.962719917297363,airplane,car,32-0-10,3161_eid_s07_32-0-10_car_10_n02814533_37548.JPEG
subject-07,3,602,1.14098310470581,bottle,knife,128-10-10,3162_eid_s07_128-10-10_knife_10_n03041632_1556.JPEG
subject-07,3,603,0.741250991821289,airplane,airplane,4-0-10,3163_eid_s07_4-0-10_airplane_10_n02690373_866.JPEG
subject-07,3,604,1.23573899269104,bottle,clock,8-0-10,3164_eid_s07_8-0-10_clock_10_n03196217_5795.JPEG
subject-07,3,605,1.01375603675842,cat,truck,32-0-10,3165_eid_s07_32-0-10_truck_10_n03796401_15673.JPEG
subject-07,3,606,0.862468004226685,knife,knife,4-0-10,3166_eid_s07_4-0-10_knife_10_n03041632_105081.JPEG
subject-07,3,607,0.933014869689941,truck,truck,1-3-10,3167_eid_s07_1-3-10_truck_10_n03417042_28584.JPEG
subject-07,3,608,0.849905967712402,boat,bottle,128-0-10,3168_eid_s07_128-0-10_bottle_10_n03983396_9264.JPEG
subject-07,3,609,1.34402894973755,keyboard,cat,16-3-10,3169_eid_s07_16-3-10_cat_10_n02123159_3010.JPEG
subject-07,3,610,1.50027203559875,cat,knife,32-3-10,3170_eid_s07_32-3-10_knife_10_n03041632_95293.JPEG
subject-07,3,611,0.979038953781128,bicycle,bottle,16-10-10,3171_eid_s07_16-10-10_bottle_10_n02823428_1092.JPEG
subject-07,3,612,0.716643095016479,car,car,8-3-10,3172_eid_s07_8-3-10_car_10_n03100240_1821.JPEG
subject-07,3,613,0.610437870025635,clock,clock,1-3-10,3173_eid_s07_1-3-10_clock_10_n02708093_149.JPEG
subject-07,3,614,1.0810878276825,knife,knife,16-0-10,3174_eid_s07_16-0-10_knife_10_n03041632_23803.JPEG
subject-07,3,615,0.951199054718018,car,car,8-10-10,3175_eid_s07_8-10-10_car_10_n03100240_12146.JPEG
subject-07,3,616,0.692049026489258,chair,chair,1-10-10,3176_eid_s07_1-10-10_chair_10_n03376595_1810.JPEG
subject-07,3,617,0.899970054626465,bird,bird,1-3-10,3177_eid_s07_1-3-10_bird_10_n01796340_20393.JPEG
subject-07,3,618,0.994402170181274,knife,elephant,64-10-10,3178_eid_s07_64-10-10_elephant_10_n02504458_2709.JPEG
subject-07,3,619,0.848760843276978,car,car,16-0-10,3179_eid_s07_16-0-10_car_10_n02814533_89801.JPEG
subject-07,3,620,0.997040987014771,chair,bicycle,8-0-10,3180_eid_s07_8-0-10_bicycle_10_n03792782_13051.JPEG
subject-07,3,621,1.1589891910553,knife,knife,128-10-10,3181_eid_s07_128-10-10_knife_10_n03041632_3516.JPEG
subject-07,3,622,0.791167974472046,boat,bird,64-0-10,3182_eid_s07_64-0-10_bird_10_n02018795_1157.JPEG
subject-07,3,623,0.899418115615845,dog,dog,8-3-10,3183_eid_s07_8-3-10_dog_10_n02091032_5810.JPEG
subject-07,3,624,0.976907968521118,elephant,oven,64-3-10,3184_eid_s07_64-3-10_oven_10_n04111531_13277.JPEG
subject-07,3,625,NaN,na,oven,32-0-10,3185_eid_s07_32-0-10_oven_10_n04111531_14876.JPEG
subject-07,3,626,0.963461875915527,knife,oven,8-3-10,3186_eid_s07_8-3-10_oven_10_n04111531_23340.JPEG
subject-07,3,627,0.849414110183716,boat,oven,128-0-10,3187_eid_s07_128-0-10_oven_10_n04111531_3611.JPEG
subject-07,3,628,0.949587106704712,keyboard,keyboard,4-0-10,3188_eid_s07_4-0-10_keyboard_10_n03085013_2500.JPEG
subject-07,3,629,0.975718975067139,knife,truck,16-3-10,3189_eid_s07_16-3-10_truck_10_n03796401_22241.JPEG
subject-07,3,630,0.745532989501953,truck,dog,128-3-10,3190_eid_s07_128-3-10_dog_10_n02106166_15380.JPEG
subject-07,3,631,0.845542907714844,bear,elephant,64-3-10,3191_eid_s07_64-3-10_elephant_10_n02504013_9149.JPEG
subject-07,3,632,0.653777837753296,airplane,airplane,4-10-10,3192_eid_s07_4-10-10_airplane_10_n02690373_2941.JPEG
subject-07,3,633,0.878468990325928,elephant,elephant,64-10-10,3193_eid_s07_64-10-10_elephant_10_n02504458_3101.JPEG
subject-07,3,634,0.964927196502686,truck,truck,8-10-10,3194_eid_s07_8-10-10_truck_10_n03417042_303.JPEG
subject-07,3,635,0.858650922775269,bottle,bottle,1-3-10,3195_eid_s07_1-3-10_bottle_10_n04591713_2817.JPEG
subject-07,3,636,1.1535210609436,truck,elephant,64-3-10,3196_eid_s07_64-3-10_elephant_10_n02504458_5982.JPEG
subject-07,3,637,1.24787998199463,truck,truck,2-3-10,3197_eid_s07_2-3-10_truck_10_n03417042_17726.JPEG
subject-07,3,638,0.994220972061157,bicycle,bicycle,4-3-10,3198_eid_s07_4-3-10_bicycle_10_n03792782_14616.JPEG
subject-07,3,639,0.859225988388062,chair,knife,32-10-10,3199_eid_s07_32-10-10_knife_10_n03041632_46422.JPEG
subject-07,3,640,0.675554990768433,cat,cat,1-10-10,3200_eid_s07_1-10-10_cat_10_n02123597_8763.JPEG
subject-07,3,641,0.845741033554077,knife,oven,32-10-10,3201_eid_s07_32-10-10_oven_10_n04111531_6217.JPEG
subject-07,3,642,0.702104091644287,boat,cat,128-3-10,3202_eid_s07_128-3-10_cat_10_n02123394_3011.JPEG
subject-07,3,643,0.87238597869873,elephant,elephant,4-3-10,3203_eid_s07_4-3-10_elephant_10_n02504013_1494.JPEG
subject-07,3,644,1.18901395797729,bear,chair,32-10-10,3204_eid_s07_32-10-10_chair_10_n03376595_16763.JPEG
subject-07,3,645,1.24507784843445,truck,keyboard,64-3-10,3205_eid_s07_64-3-10_keyboard_10_n03085013_16057.JPEG
subject-07,3,646,1.44546794891357,knife,elephant,128-10-10,3206_eid_s07_128-10-10_elephant_10_n02504013_19419.JPEG
subject-07,3,647,1.0019359588623,truck,truck,1-3-10,3207_eid_s07_1-3-10_truck_10_n03417042_6893.JPEG
subject-07,3,648,1.07201480865479,bottle,boat,8-0-10,3208_eid_s07_8-0-10_boat_10_n03344393_3163.JPEG
subject-07,3,649,0.782555818557739,truck,truck,1-10-10,3209_eid_s07_1-10-10_truck_10_n04467665_16045.JPEG
subject-07,3,650,0.744765043258667,chair,chair,1-0-10,3210_eid_s07_1-0-10_chair_10_n02791124_6548.JPEG
subject-07,3,651,0.947452068328857,boat,bird,128-3-10,3211_eid_s07_128-3-10_bird_10_n02006656_5007.JPEG
subject-07,3,652,0.977615833282471,airplane,truck,32-3-10,3212_eid_s07_32-3-10_truck_10_n04467665_75921.JPEG
subject-07,3,653,0.879508018493652,keyboard,oven,8-0-10,3213_eid_s07_8-0-10_oven_10_n04111531_6204.JPEG
subject-07,3,654,0.878351926803589,bear,bottle,64-3-10,3214_eid_s07_64-3-10_bottle_10_n04557648_4318.JPEG
subject-07,3,655,0.927058935165405,dog,cat,4-10-10,3215_eid_s07_4-10-10_cat_10_n02123394_4775.JPEG
subject-07,3,656,1.01096987724304,bicycle,cat,32-10-10,3216_eid_s07_32-10-10_cat_10_n02125311_21627.JPEG
subject-07,3,657,1.18339610099792,chair,chair,8-3-10,3217_eid_s07_8-3-10_chair_10_n02791124_11456.JPEG
subject-07,3,658,1.49968385696411,bottle,car,16-3-10,3218_eid_s07_16-3-10_car_10_n03100240_5831.JPEG
subject-07,3,659,0.772433996200562,keyboard,keyboard,16-3-10,3219_eid_s07_16-3-10_keyboard_10_n03085013_19483.JPEG
subject-07,3,660,0.910769939422607,bottle,bottle,2-10-10,3220_eid_s07_2-10-10_bottle_10_n04560804_11406.JPEG
subject-07,3,661,0.774600028991699,chair,chair,4-0-10,3221_eid_s07_4-0-10_chair_10_n04099969_20267.JPEG
subject-07,3,662,0.744928121566772,bottle,bottle,16-10-10,3222_eid_s07_16-10-10_bottle_10_n04557648_3680.JPEG
subject-07,3,663,0.620373964309692,cat,cat,1-10-10,3223_eid_s07_1-10-10_cat_10_n02124075_9512.JPEG
subject-07,3,664,0.730343818664551,airplane,airplane,4-0-10,3224_eid_s07_4-0-10_airplane_10_n02690373_5632.JPEG
subject-07,3,665,0.917185068130493,knife,knife,1-0-10,3225_eid_s07_1-0-10_knife_10_n03041632_1884.JPEG
subject-07,3,666,0.894911050796509,cat,bear,16-0-10,3226_eid_s07_16-0-10_bear_10_n02133161_5324.JPEG
subject-07,3,667,1.07300305366516,dog,elephant,128-3-10,3227_eid_s07_128-3-10_elephant_10_n02504013_5530.JPEG
subject-07,3,668,1.44893097877502,cat,bear,16-0-10,3228_eid_s07_16-0-10_bear_10_n02134418_212.JPEG
subject-07,3,669,0.713644027709961,cat,dog,16-0-10,3229_eid_s07_16-0-10_dog_10_n02111129_6113.JPEG
subject-07,3,670,0.791563034057617,bear,bicycle,32-3-10,3230_eid_s07_32-3-10_bicycle_10_n03792782_5086.JPEG
subject-07,3,671,0.739973068237305,boat,boat,4-0-10,3231_eid_s07_4-0-10_boat_10_n02951358_18655.JPEG
subject-07,3,672,0.871752023696899,bicycle,bird,64-10-10,3232_eid_s07_64-10-10_bird_10_n01582220_5430.JPEG
subject-07,3,673,0.788266897201538,bear,keyboard,64-3-10,3233_eid_s07_64-3-10_keyboard_10_n03085013_22027.JPEG
subject-07,3,674,1.3665931224823,cat,clock,16-10-10,3234_eid_s07_16-10-10_clock_10_n02708093_420.JPEG
subject-07,3,675,1.22053098678589,boat,truck,32-0-10,3235_eid_s07_32-0-10_truck_10_n04467665_47811.JPEG
subject-07,3,676,0.66312313079834,boat,boat,2-3-10,3236_eid_s07_2-3-10_boat_10_n04273569_24633.JPEG
subject-07,3,677,0.801393985748291,bicycle,boat,4-3-10,3237_eid_s07_4-3-10_boat_10_n03662601_34676.JPEG
subject-07,3,678,0.827463150024414,bird,bird,1-3-10,3238_eid_s07_1-3-10_bird_10_n01534433_1633.JPEG
subject-07,3,679,1.24454689025879,keyboard,keyboard,128-10-10,3239_eid_s07_128-10-10_keyboard_10_n03085013_19533.JPEG
subject-07,3,680,0.746433019638062,car,car,2-3-10,3240_eid_s07_2-3-10_car_10_n04285008_11815.JPEG
subject-07,3,681,1.00882697105408,boat,truck,128-3-10,3241_eid_s07_128-3-10_truck_10_n03417042_4907.JPEG
subject-07,3,682,0.941534996032715,chair,chair,8-3-10,3242_eid_s07_8-3-10_chair_10_n04099969_15786.JPEG
subject-07,3,683,1.47352194786072,keyboard,keyboard,32-0-10,3243_eid_s07_32-0-10_keyboard_10_n04505470_1179.JPEG
subject-07,3,684,1.13540387153625,bird,chair,128-10-10,3244_eid_s07_128-10-10_chair_10_n03376595_3968.JPEG
subject-07,3,685,1.46707916259766,knife,chair,1-0-10,3245_eid_s07_1-0-10_chair_10_n02791124_1734.JPEG
subject-07,3,686,1.01586985588074,dog,bear,8-3-10,3246_eid_s07_8-3-10_bear_10_n02133161_3622.JPEG
subject-07,3,687,0.886106967926025,bird,bird,1-0-10,3247_eid_s07_1-0-10_bird_10_n01833805_30660.JPEG
subject-07,3,688,0.710748910903931,bottle,bottle,4-3-10,3248_eid_s07_4-3-10_bottle_10_n02823428_13076.JPEG
subject-07,3,689,0.896929025650024,cat,cat,8-10-10,3249_eid_s07_8-10-10_cat_10_n02124075_17067.JPEG
subject-07,3,690,0.891525983810425,boat,clock,128-0-10,3250_eid_s07_128-0-10_clock_10_n02708093_9.JPEG
subject-07,3,691,1.00723004341125,car,car,16-3-10,3251_eid_s07_16-3-10_car_10_n02814533_9886.JPEG
subject-07,3,692,1.04805207252502,truck,elephant,128-0-10,3252_eid_s07_128-0-10_elephant_10_n02504013_5165.JPEG
subject-07,3,693,0.910470962524414,boat,clock,64-3-10,3253_eid_s07_64-3-10_clock_10_n04548280_7070.JPEG
subject-07,3,694,0.88930606842041,bicycle,bicycle,2-3-10,3254_eid_s07_2-3-10_bicycle_10_n03792782_5012.JPEG
subject-07,3,695,0.913776874542236,boat,boat,64-10-10,3255_eid_s07_64-10-10_boat_10_n02951358_1541.JPEG
subject-07,3,696,0.892102956771851,bicycle,truck,16-10-10,3256_eid_s07_16-10-10_truck_10_n03417042_5874.JPEG
subject-07,3,697,1.00288796424866,car,car,32-10-10,3257_eid_s07_32-10-10_car_10_n04285008_16747.JPEG
subject-07,3,698,0.864833116531372,cat,cat,32-10-10,3258_eid_s07_32-10-10_cat_10_n02123045_5909.JPEG
subject-07,3,699,0.926698923110962,boat,cat,128-10-10,3259_eid_s07_128-10-10_cat_10_n02123159_1256.JPEG
subject-07,3,700,0.991620779037476,knife,keyboard,128-10-10,3260_eid_s07_128-10-10_keyboard_10_n03085013_3007.JPEG
subject-07,3,701,1.40808200836182,knife,cat,64-10-10,3261_eid_s07_64-10-10_cat_10_n02123394_9476.JPEG
subject-07,3,702,0.907917976379395,cat,keyboard,128-10-10,3262_eid_s07_128-10-10_keyboard_10_n04505470_2518.JPEG
subject-07,3,703,1.1779100894928,dog,elephant,32-10-10,3263_eid_s07_32-10-10_elephant_10_n02504013_811.JPEG
subject-07,3,704,0.964426040649414,knife,knife,4-0-10,3264_eid_s07_4-0-10_knife_10_n03041632_16020.JPEG
subject-07,3,705,0.791029930114746,clock,clock,1-10-10,3265_eid_s07_1-10-10_clock_10_n04548280_9683.JPEG
subject-07,3,706,1.25375699996948,bicycle,elephant,128-3-10,3266_eid_s07_128-3-10_elephant_10_n02504458_4314.JPEG
subject-07,3,707,0.678447008132935,keyboard,keyboard,4-10-10,3267_eid_s07_4-10-10_keyboard_10_n03085013_20699.JPEG
subject-07,3,708,1.36482095718384,clock,clock,32-10-10,3268_eid_s07_32-10-10_clock_10_n02708093_5188.JPEG
subject-07,3,709,0.871906042098999,bicycle,clock,128-0-10,3269_eid_s07_128-0-10_clock_10_n02708093_2658.JPEG
subject-07,3,710,0.834558963775635,elephant,elephant,2-3-10,3270_eid_s07_2-3-10_elephant_10_n02504013_2148.JPEG
subject-07,3,711,0.867125034332275,car,truck,8-0-10,3271_eid_s07_8-0-10_truck_10_n03417042_4095.JPEG
subject-07,3,712,0.829338073730469,bicycle,chair,64-3-10,3272_eid_s07_64-3-10_chair_10_n02791124_10783.JPEG
subject-07,3,713,0.769981861114502,boat,bottle,128-3-10,3273_eid_s07_128-3-10_bottle_10_n02823428_14749.JPEG
subject-07,3,714,0.910305023193359,car,car,1-0-10,3274_eid_s07_1-0-10_car_10_n02814533_88356.JPEG
subject-07,3,715,1.2099277973175,bird,car,64-0-10,3275_eid_s07_64-0-10_car_10_n03100240_17360.JPEG
subject-07,3,716,1.00440001487732,bicycle,bicycle,2-0-10,3276_eid_s07_2-0-10_bicycle_10_n03792782_65868.JPEG
subject-07,3,717,1.37477684020996,bird,boat,128-0-10,3277_eid_s07_128-0-10_boat_10_n02951358_6213.JPEG
subject-07,3,718,1.21510696411133,airplane,airplane,8-10-10,3278_eid_s07_8-10-10_airplane_10_n02690373_4552.JPEG
subject-07,3,719,0.985519886016846,bear,chair,128-3-10,3279_eid_s07_128-3-10_chair_10_n04099969_4826.JPEG
subject-07,3,720,0.739331007003784,cat,dog,64-3-10,3280_eid_s07_64-3-10_dog_10_n02109525_34663.JPEG
subject-07,3,721,0.831237077713013,bicycle,elephant,32-0-10,3281_eid_s07_32-0-10_elephant_10_n02504013_1647.JPEG
subject-07,3,722,1.11760497093201,cat,knife,32-3-10,3282_eid_s07_32-3-10_knife_10_n03041632_42162.JPEG
subject-07,3,723,0.750740051269531,car,boat,8-3-10,3283_eid_s07_8-3-10_boat_10_n04273569_24459.JPEG
subject-07,3,724,0.844671964645386,bicycle,dog,8-10-10,3284_eid_s07_8-10-10_dog_10_n02105162_3435.JPEG
subject-07,3,725,1.50030016899109,bicycle,bicycle,32-3-10,3285_eid_s07_32-3-10_bicycle_10_n02835271_13498.JPEG
subject-07,3,726,0.809891939163208,bicycle,chair,32-10-10,3286_eid_s07_32-10-10_chair_10_n04099969_20421.JPEG
subject-07,3,727,1.24790000915527,keyboard,boat,64-0-10,3287_eid_s07_64-0-10_boat_10_n04273569_29711.JPEG
subject-07,3,728,1.23429489135742,clock,oven,128-10-10,3288_eid_s07_128-10-10_oven_10_n04111531_12788.JPEG
subject-07,3,729,1.00504302978516,bottle,bottle,4-3-10,3289_eid_s07_4-3-10_bottle_10_n03937543_5190.JPEG
subject-07,3,730,0.736759185791016,car,car,32-10-10,3290_eid_s07_32-10-10_car_10_n03100240_961.JPEG
subject-07,3,731,0.907226085662842,bottle,bottle,1-3-10,3291_eid_s07_1-3-10_bottle_10_n04591713_5586.JPEG
subject-07,3,732,0.901587009429932,bottle,knife,32-10-10,3292_eid_s07_32-10-10_knife_10_n03041632_45312.JPEG
subject-07,3,733,1.15608620643616,airplane,bird,16-0-10,3293_eid_s07_16-0-10_bird_10_n02009912_653.JPEG
subject-07,3,734,0.804886102676392,car,car,1-10-10,3294_eid_s07_1-10-10_car_10_n04285008_7166.JPEG
subject-07,3,735,1.04495906829834,cat,elephant,128-10-10,3295_eid_s07_128-10-10_elephant_10_n02504013_10463.JPEG
subject-07,3,736,1.47557902336121,bottle,clock,32-10-10,3296_eid_s07_32-10-10_clock_10_n03196217_6689.JPEG
subject-07,3,737,0.940026998519897,bear,knife,128-0-10,3297_eid_s07_128-0-10_knife_10_n03041632_14916.JPEG
subject-07,3,738,1.24843120574951,bicycle,bottle,1-0-10,3298_eid_s07_1-0-10_bottle_10_n03983396_11929.JPEG
subject-07,3,739,0.902874946594238,bear,boat,128-3-10,3299_eid_s07_128-3-10_boat_10_n03344393_7352.JPEG
subject-07,3,740,0.975568056106567,truck,truck,4-0-10,3300_eid_s07_4-0-10_truck_10_n04467665_6268.JPEG
subject-07,3,741,0.92979097366333,knife,boat,8-10-10,3301_eid_s07_8-10-10_boat_10_n04273569_15972.JPEG
subject-07,3,742,0.794322967529297,clock,clock,8-3-10,3302_eid_s07_8-3-10_clock_10_n02708093_628.JPEG
subject-07,3,743,0.889046907424927,bicycle,oven,4-0-10,3303_eid_s07_4-0-10_oven_10_n04111531_3082.JPEG
subject-07,3,744,0.835519075393677,airplane,airplane,2-0-10,3304_eid_s07_2-0-10_airplane_10_n02690373_2433.JPEG
subject-07,3,745,0.95933198928833,airplane,airplane,2-10-10,3305_eid_s07_2-10-10_airplane_10_n02690373_194.JPEG
subject-07,3,746,1.01346898078918,bicycle,oven,16-3-10,3306_eid_s07_16-3-10_oven_10_n04111531_3265.JPEG
subject-07,3,747,0.992049932479858,cat,truck,16-3-10,3307_eid_s07_16-3-10_truck_10_n03796401_2030.JPEG
subject-07,3,748,1.05655312538147,bear,chair,32-3-10,3308_eid_s07_32-3-10_chair_10_n04099969_2525.JPEG
subject-07,3,749,0.935149908065796,cat,keyboard,32-3-10,3309_eid_s07_32-3-10_keyboard_10_n03085013_25864.JPEG
subject-07,3,750,1.23568415641785,clock,knife,2-3-10,3310_eid_s07_2-3-10_knife_10_n03041632_15099.JPEG
subject-07,3,751,0.762343168258667,chair,chair,1-10-10,3311_eid_s07_1-10-10_chair_10_n04099969_13440.JPEG
subject-07,3,752,1.05494594573975,boat,clock,64-3-10,3312_eid_s07_64-3-10_clock_10_n04548280_360.JPEG
subject-07,3,753,0.903447866439819,bicycle,clock,16-0-10,3313_eid_s07_16-0-10_clock_10_n03196217_3645.JPEG
subject-07,3,754,1.50019311904907,bottle,bottle,1-0-10,3314_eid_s07_1-0-10_bottle_10_n03983396_335.JPEG
subject-07,3,755,1.20660805702209,bicycle,bird,64-0-10,3315_eid_s07_64-0-10_bird_10_n01817953_461.JPEG
subject-07,3,756,1.17911720275879,airplane,airplane,8-0-10,3316_eid_s07_8-0-10_airplane_10_n02690373_9318.JPEG
subject-07,3,757,1.15488290786743,bird,bird,16-0-10,3317_eid_s07_16-0-10_bird_10_n01560419_3801.JPEG
subject-07,3,758,1.30073499679565,bicycle,cat,32-3-10,3318_eid_s07_32-3-10_cat_10_n02123597_5298.JPEG
subject-07,3,759,0.878653049468994,cat,dog,64-10-10,3319_eid_s07_64-10-10_dog_10_n02105855_11598.JPEG
subject-07,3,760,1.41912889480591,car,car,2-10-10,3320_eid_s07_2-10-10_car_10_n04285008_3388.JPEG
subject-07,3,761,0.951352119445801,boat,bicycle,16-3-10,3321_eid_s07_16-3-10_bicycle_10_n02835271_150.JPEG
subject-07,3,762,0.751619815826416,bear,bear,1-10-10,3322_eid_s07_1-10-10_bear_10_n02133161_4573.JPEG
subject-07,3,763,1.06189703941345,cat,chair,16-3-10,3323_eid_s07_16-3-10_chair_10_n02791124_2392.JPEG
subject-07,3,764,0.886406183242798,chair,chair,32-10-10,3324_eid_s07_32-10-10_chair_10_n03376595_3940.JPEG
subject-07,3,765,1.13255715370178,cat,bicycle,128-10-10,3325_eid_s07_128-10-10_bicycle_10_n02835271_15739.JPEG
subject-07,3,766,0.881209850311279,knife,knife,1-0-10,3326_eid_s07_1-0-10_knife_10_n03041632_31909.JPEG
subject-07,3,767,1.11370611190796,boat,keyboard,128-0-10,3327_eid_s07_128-0-10_keyboard_10_n03085013_12079.JPEG
subject-07,3,768,1.16237211227417,bicycle,knife,128-0-10,3328_eid_s07_128-0-10_knife_10_n03041632_23736.JPEG
subject-07,3,769,0.755486011505127,car,car,4-10-10,3329_eid_s07_4-10-10_car_10_n04285008_3003.JPEG
subject-07,3,770,0.985491991043091,clock,bottle,2-0-10,3330_eid_s07_2-0-10_bottle_10_n04557648_1964.JPEG
subject-07,3,771,0.717687129974365,bicycle,bicycle,8-10-10,3331_eid_s07_8-10-10_bicycle_10_n02835271_9202.JPEG
subject-07,3,772,0.725423097610474,boat,bird,1-10-10,3332_eid_s07_1-10-10_bird_10_n02028035_11743.JPEG
subject-07,3,773,0.695422887802124,elephant,elephant,2-0-10,3333_eid_s07_2-0-10_elephant_10_n02504458_5141.JPEG
subject-07,3,774,0.705915212631226,bird,bird,1-0-10,3334_eid_s07_1-0-10_bird_10_n02051845_10528.JPEG
subject-07,3,775,0.952322959899902,car,boat,8-3-10,3335_eid_s07_8-3-10_boat_10_n03344393_7779.JPEG
subject-07,3,776,1.00622296333313,truck,truck,4-3-10,3336_eid_s07_4-3-10_truck_10_n04467665_7290.JPEG
subject-07,3,777,0.960848808288574,knife,knife,2-3-10,3337_eid_s07_2-3-10_knife_10_n03041632_84086.JPEG
subject-07,3,778,0.839057207107544,elephant,elephant,8-3-10,3338_eid_s07_8-3-10_elephant_10_n02504013_5495.JPEG
subject-07,3,779,0.871573925018311,knife,knife,4-3-10,3339_eid_s07_4-3-10_knife_10_n03041632_25479.JPEG
subject-07,3,780,0.958230018615723,elephant,oven,64-10-10,3340_eid_s07_64-10-10_oven_10_n04111531_8868.JPEG
subject-07,3,781,1.07437682151794,bear,bicycle,64-3-10,3341_eid_s07_64-3-10_bicycle_10_n02835271_14525.JPEG
subject-07,3,782,0.760760068893433,cat,car,32-0-10,3342_eid_s07_32-0-10_car_10_n02814533_85296.JPEG
subject-07,3,783,0.752379179000854,elephant,elephant,16-3-10,3343_eid_s07_16-3-10_elephant_10_n02504458_1223.JPEG
subject-07,3,784,0.922310829162598,boat,bear,64-0-10,3344_eid_s07_64-0-10_bear_10_n02134084_7904.JPEG
subject-07,3,785,0.784995079040527,keyboard,keyboard,8-3-10,3345_eid_s07_8-3-10_keyboard_10_n04505470_432.JPEG
subject-07,3,786,1.22210001945496,bear,clock,64-0-10,3346_eid_s07_64-0-10_clock_10_n03196217_778.JPEG
subject-07,3,787,1.04627394676208,oven,keyboard,64-10-10,3347_eid_s07_64-10-10_keyboard_10_n03085013_23268.JPEG
subject-07,3,788,0.962654113769531,dog,cat,4-0-10,3348_eid_s07_4-0-10_cat_10_n02125311_26586.JPEG
subject-07,3,789,1.23515105247498,truck,clock,64-0-10,3349_eid_s07_64-0-10_clock_10_n03196217_1028.JPEG
subject-07,3,790,1.04365611076355,bear,bear,2-3-10,3350_eid_s07_2-3-10_bear_10_n02134084_702.JPEG
subject-07,3,791,0.943333864212036,airplane,boat,1-10-10,3351_eid_s07_1-10-10_boat_10_n02951358_32558.JPEG
subject-07,3,792,0.829674005508423,cat,bear,16-10-10,3352_eid_s07_16-10-10_bear_10_n02134418_2070.JPEG
subject-07,3,793,1.09203600883484,elephant,elephant,4-10-10,3353_eid_s07_4-10-10_elephant_10_n02504458_6524.JPEG
subject-07,3,794,0.994791984558105,dog,dog,4-10-10,3354_eid_s07_4-10-10_dog_10_n02086646_4779.JPEG
subject-07,3,795,0.911127090454102,bird,bird,8-10-10,3355_eid_s07_8-10-10_bird_10_n01843383_4481.JPEG
subject-07,3,796,0.77357292175293,bear,bear,2-3-10,3356_eid_s07_2-3-10_bear_10_n02133161_14741.JPEG
subject-07,3,797,0.744081020355225,cat,boat,128-10-10,3357_eid_s07_128-10-10_boat_10_n02951358_12658.JPEG
subject-07,3,798,1.19776582717896,cat,chair,64-3-10,3358_eid_s07_64-3-10_chair_10_n02791124_16352.JPEG
subject-07,3,799,1.39768695831299,bear,boat,64-3-10,3359_eid_s07_64-3-10_boat_10_n03662601_34526.JPEG
subject-07,3,800,1.16770911216736,boat,boat,2-0-10,3360_eid_s07_2-0-10_boat_10_n03662601_26140.JPEG
subject-07,3,801,1.24596309661865,bear,boat,16-0-10,3361_eid_s07_16-0-10_boat_10_n04612504_10876.JPEG
subject-07,3,802,1.04047298431396,clock,clock,32-10-10,3362_eid_s07_32-10-10_clock_10_n02708093_4976.JPEG
subject-07,3,803,0.895169019699097,car,car,2-10-10,3363_eid_s07_2-10-10_car_10_n02814533_45210.JPEG
subject-07,3,804,0.965641021728516,bicycle,bicycle,2-0-10,3364_eid_s07_2-0-10_bicycle_10_n02835271_3597.JPEG
subject-07,3,805,1.22757792472839,elephant,truck,16-0-10,3365_eid_s07_16-0-10_truck_10_n03417042_5232.JPEG
subject-07,3,806,1.04407811164856,bear,bear,16-3-10,3366_eid_s07_16-3-10_bear_10_n02133161_9950.JPEG
subject-07,3,807,0.822016954421997,car,car,8-0-10,3367_eid_s07_8-0-10_car_10_n02814533_36626.JPEG
subject-07,3,808,0.992906093597412,dog,dog,4-3-10,3368_eid_s07_4-3-10_dog_10_n02086910_506.JPEG
subject-07,3,809,1.1951789855957,clock,clock,2-3-10,3369_eid_s07_2-3-10_clock_10_n03196217_359.JPEG
subject-07,3,810,0.719699144363403,cat,cat,4-3-10,3370_eid_s07_4-3-10_cat_10_n02123159_8298.JPEG
subject-07,3,811,0.74118185043335,bird,bird,8-3-10,3371_eid_s07_8-3-10_bird_10_n01855672_14211.JPEG
subject-07,3,812,0.902694225311279,bear,cat,64-3-10,3372_eid_s07_64-3-10_cat_10_n02123159_2815.JPEG
subject-07,3,813,0.721478939056396,cat,bottle,64-10-10,3373_eid_s07_64-10-10_bottle_10_n04579145_173.JPEG
subject-07,3,814,0.814013004302979,boat,boat,1-0-10,3374_eid_s07_1-0-10_boat_10_n03344393_3298.JPEG
subject-07,3,815,0.729817152023315,bird,bird,1-3-10,3375_eid_s07_1-3-10_bird_10_n01855672_1465.JPEG
subject-07,3,816,0.678183078765869,cat,cat,4-10-10,3376_eid_s07_4-10-10_cat_10_n02125311_37944.JPEG
subject-07,3,817,0.640037059783936,clock,clock,8-0-10,3377_eid_s07_8-0-10_clock_10_n04548280_631.JPEG
subject-07,3,818,0.802628993988037,cat,bear,8-3-10,3378_eid_s07_8-3-10_bear_10_n02134418_5976.JPEG
subject-07,3,819,0.842631101608276,bottle,bottle,4-3-10,3379_eid_s07_4-3-10_bottle_10_n04591713_2793.JPEG
subject-07,3,820,0.596966981887817,cat,cat,1-10-10,3380_eid_s07_1-10-10_cat_10_n02123159_3353.JPEG
subject-07,3,821,0.914001941680908,cat,knife,8-0-10,3381_eid_s07_8-0-10_knife_10_n03041632_22480.JPEG
subject-07,3,822,0.900112867355347,chair,chair,4-10-10,3382_eid_s07_4-10-10_chair_10_n03376595_6302.JPEG
subject-07,3,823,0.994554996490479,bottle,keyboard,32-0-10,3383_eid_s07_32-0-10_keyboard_10_n03085013_4157.JPEG
subject-07,3,824,1.1572380065918,chair,cat,64-0-10,3384_eid_s07_64-0-10_cat_10_n02124075_6093.JPEG
subject-07,3,825,0.84343695640564,cat,cat,4-10-10,3385_eid_s07_4-10-10_cat_10_n02123159_568.JPEG
subject-07,3,826,1.18411111831665,truck,truck,32-10-10,3386_eid_s07_32-10-10_truck_10_n03796401_11122.JPEG
subject-07,3,827,0.713624954223633,cat,bear,1-0-10,3387_eid_s07_1-0-10_bear_10_n02133161_10846.JPEG
subject-07,3,828,0.808315992355347,bear,knife,128-0-10,3388_eid_s07_128-0-10_knife_10_n03041632_21034.JPEG
subject-07,3,829,0.694738864898682,cat,cat,16-0-10,3389_eid_s07_16-0-10_cat_10_n02123045_11748.JPEG
subject-07,3,830,0.672167062759399,cat,bottle,32-10-10,3390_eid_s07_32-10-10_bottle_10_n04557648_5370.JPEG
subject-07,3,831,0.826696872711182,bottle,bottle,64-3-10,3391_eid_s07_64-3-10_bottle_10_n03983396_11976.JPEG
subject-07,3,832,1.18555784225464,oven,oven,4-3-10,3392_eid_s07_4-3-10_oven_10_n04111531_5473.JPEG
subject-07,3,833,1.42642307281494,dog,bear,1-0-10,3393_eid_s07_1-0-10_bear_10_n02132136_9306.JPEG
subject-07,3,834,0.834769010543823,airplane,airplane,16-3-10,3394_eid_s07_16-3-10_airplane_10_n02690373_5254.JPEG
subject-07,3,835,0.628304004669189,dog,dog,1-3-10,3395_eid_s07_1-3-10_dog_10_n02107908_11245.JPEG
subject-07,3,836,0.676870107650757,oven,oven,4-10-10,3396_eid_s07_4-10-10_oven_10_n04111531_4467.JPEG
subject-07,3,837,0.731333017349243,bird,bird,2-3-10,3397_eid_s07_2-3-10_bird_10_n01560419_7698.JPEG
subject-07,3,838,0.963277101516724,car,car,8-0-10,3398_eid_s07_8-0-10_car_10_n04285008_8212.JPEG
subject-07,3,839,0.779958009719849,cat,bird,64-3-10,3399_eid_s07_64-3-10_bird_10_n02011460_9401.JPEG
subject-07,3,840,0.779453992843628,oven,car,16-3-10,3400_eid_s07_16-3-10_car_10_n04285008_12592.JPEG
subject-07,3,841,0.895791053771973,bear,bottle,128-3-10,3401_eid_s07_128-3-10_bottle_10_n04591713_10484.JPEG
subject-07,3,842,0.950495004653931,keyboard,knife,32-0-10,3402_eid_s07_32-0-10_knife_10_n03041632_21477.JPEG
subject-07,3,843,0.920869827270508,keyboard,oven,16-3-10,3403_eid_s07_16-3-10_oven_10_n04111531_8193.JPEG
subject-07,3,844,0.782116889953613,knife,knife,8-3-10,3404_eid_s07_8-3-10_knife_10_n03041632_36390.JPEG
subject-07,3,845,0.844682931900024,truck,truck,1-10-10,3405_eid_s07_1-10-10_truck_10_n03417042_19277.JPEG
subject-07,3,846,0.931241989135742,keyboard,clock,32-0-10,3406_eid_s07_32-0-10_clock_10_n04548280_4738.JPEG
subject-07,3,847,1.07118105888367,boat,bear,32-0-10,3407_eid_s07_32-0-10_bear_10_n02134084_18729.JPEG
subject-07,3,848,1.20941591262817,airplane,boat,32-0-10,3408_eid_s07_32-0-10_boat_10_n02951358_13507.JPEG
subject-07,3,849,1.15817999839783,bear,bear,32-0-10,3409_eid_s07_32-0-10_bear_10_n02133161_8468.JPEG
subject-07,3,850,0.706493854522705,cat,cat,4-0-10,3410_eid_s07_4-0-10_cat_10_n02124075_123.JPEG
subject-07,3,851,1.13120198249817,truck,keyboard,128-3-10,3411_eid_s07_128-3-10_keyboard_10_n04505470_5880.JPEG
subject-07,3,852,0.793868064880371,cat,cat,4-10-10,3412_eid_s07_4-10-10_cat_10_n02123045_662.JPEG
subject-07,3,853,0.710468053817749,oven,bicycle,64-0-10,3413_eid_s07_64-0-10_bicycle_10_n02835271_4379.JPEG
subject-07,3,854,1.36404585838318,oven,clock,1-10-10,3414_eid_s07_1-10-10_clock_10_n04548280_6603.JPEG
subject-07,3,855,1.11851716041565,bottle,bottle,2-10-10,3415_eid_s07_2-10-10_bottle_10_n02823428_1184.JPEG
subject-07,3,856,0.966866970062256,keyboard,keyboard,16-10-10,3416_eid_s07_16-10-10_keyboard_10_n04505470_1988.JPEG
subject-07,3,857,0.983361005783081,elephant,elephant,2-10-10,3417_eid_s07_2-10-10_elephant_10_n02504458_801.JPEG
subject-07,3,858,NaN,na,chair,1-0-10,3418_eid_s07_1-0-10_chair_10_n04429376_20392.JPEG
subject-07,3,859,0.886116027832031,clock,clock,1-10-10,3419_eid_s07_1-10-10_clock_10_n02708093_6717.JPEG
subject-07,3,860,1.23237109184265,bear,keyboard,32-0-10,3420_eid_s07_32-0-10_keyboard_10_n03085013_3148.JPEG
subject-07,3,861,0.853376865386963,elephant,elephant,4-3-10,3421_eid_s07_4-3-10_elephant_10_n02504458_5355.JPEG
subject-07,3,862,1.00275492668152,cat,bird,32-10-10,3422_eid_s07_32-10-10_bird_10_n01537544_20105.JPEG
subject-07,3,863,1.2863290309906,bear,oven,32-0-10,3423_eid_s07_32-0-10_oven_10_n04111531_121.JPEG
subject-07,3,864,1.11082100868225,car,keyboard,64-3-10,3424_eid_s07_64-3-10_keyboard_10_n03085013_23014.JPEG
subject-07,3,865,0.92665696144104,cat,airplane,16-0-10,3425_eid_s07_16-0-10_airplane_10_n02690373_3617.JPEG
subject-07,3,866,0.829293966293335,cat,knife,32-10-10,3426_eid_s07_32-10-10_knife_10_n03041632_28658.JPEG
subject-07,3,867,0.907438993453979,boat,truck,128-0-10,3427_eid_s07_128-0-10_truck_10_n04467665_29496.JPEG
subject-07,3,868,1.15504002571106,airplane,keyboard,16-0-10,3428_eid_s07_16-0-10_keyboard_10_n03085013_1824.JPEG
subject-07,3,869,0.770941019058228,elephant,elephant,16-10-10,3429_eid_s07_16-10-10_elephant_10_n02504458_6946.JPEG
subject-07,3,870,0.68106484413147,car,truck,4-0-10,3430_eid_s07_4-0-10_truck_10_n03417042_679.JPEG
subject-07,3,871,0.751836061477661,boat,boat,2-0-10,3431_eid_s07_2-0-10_boat_10_n02951358_4985.JPEG
subject-07,3,872,0.677236080169678,bicycle,bicycle,8-3-10,3432_eid_s07_8-3-10_bicycle_10_n02835271_2030.JPEG
subject-07,3,873,0.776914119720459,bicycle,bicycle,2-0-10,3433_eid_s07_2-0-10_bicycle_10_n02835271_5814.JPEG
subject-07,3,874,0.649274110794067,bear,bicycle,16-0-10,3434_eid_s07_16-0-10_bicycle_10_n03792782_3620.JPEG
subject-07,3,875,0.688322067260742,cat,cat,1-10-10,3435_eid_s07_1-10-10_cat_10_n02125311_26284.JPEG
subject-07,3,876,1.02042603492737,bicycle,chair,2-10-10,3436_eid_s07_2-10-10_chair_10_n03376595_2766.JPEG
subject-07,3,877,0.882806062698364,knife,knife,1-3-10,3437_eid_s07_1-3-10_knife_10_n03041632_3781.JPEG
subject-07,3,878,0.723287105560303,bicycle,clock,32-10-10,3438_eid_s07_32-10-10_clock_10_n03196217_7918.JPEG
subject-07,3,879,1.03178691864014,dog,dog,2-10-10,3439_eid_s07_2-10-10_dog_10_n02107683_3869.JPEG
subject-07,3,880,1.04797887802124,bird,cat,128-10-10,3440_eid_s07_128-10-10_cat_10_n02123045_9492.JPEG
subject-07,3,881,0.842747211456299,elephant,elephant,8-10-10,3441_eid_s07_8-10-10_elephant_10_n02504013_10922.JPEG
subject-07,3,882,0.913403987884521,bird,bird,2-3-10,3442_eid_s07_2-3-10_bird_10_n01817953_7322.JPEG
subject-07,3,883,0.808021068572998,car,car,8-0-10,3443_eid_s07_8-0-10_car_10_n02814533_6821.JPEG
subject-07,3,884,1.1132071018219,bicycle,boat,64-0-10,3444_eid_s07_64-0-10_boat_10_n03344393_2118.JPEG
subject-07,3,885,1.04567408561707,car,truck,128-3-10,3445_eid_s07_128-3-10_truck_10_n04467665_16261.JPEG
subject-07,3,886,0.769692897796631,bird,bird,2-0-10,3446_eid_s07_2-0-10_bird_10_n01531178_12317.JPEG
subject-07,3,887,1.11620903015137,boat,keyboard,128-3-10,3447_eid_s07_128-3-10_keyboard_10_n04505470_5126.JPEG
subject-07,3,888,1.05382800102234,elephant,elephant,8-3-10,3448_eid_s07_8-3-10_elephant_10_n02504458_515.JPEG
subject-07,3,889,0.672381162643433,cat,truck,16-0-10,3449_eid_s07_16-0-10_truck_10_n03417042_17099.JPEG
subject-07,3,890,0.726924180984497,bicycle,bicycle,2-3-10,3450_eid_s07_2-3-10_bicycle_10_n03792782_6048.JPEG
subject-07,3,891,0.98160195350647,bear,bird,64-3-10,3451_eid_s07_64-3-10_bird_10_n02027492_3147.JPEG
subject-07,3,892,0.644032001495361,truck,truck,4-10-10,3452_eid_s07_4-10-10_truck_10_n03417042_20962.JPEG
subject-07,3,893,1.32253885269165,oven,dog,128-10-10,3453_eid_s07_128-10-10_dog_10_n02093256_9130.JPEG
subject-07,3,894,0.708817958831787,car,car,16-10-10,3454_eid_s07_16-10-10_car_10_n04285008_1970.JPEG
subject-07,3,895,1.22535610198975,bear,bear,4-10-10,3455_eid_s07_4-10-10_bear_10_n02134418_18850.JPEG
subject-07,3,896,0.979676961898804,boat,boat,2-3-10,3456_eid_s07_2-3-10_boat_10_n04273569_2740.JPEG
subject-07,3,897,0.788218975067139,chair,chair,16-10-10,3457_eid_s07_16-10-10_chair_10_n04099969_1293.JPEG
subject-07,3,898,1.14211010932922,cat,bear,2-3-10,3458_eid_s07_2-3-10_bear_10_n02133161_8835.JPEG
subject-07,3,899,0.933053016662598,car,car,4-10-10,3459_eid_s07_4-10-10_car_10_n02814533_21748.JPEG
subject-07,3,900,0.873517990112305,keyboard,keyboard,16-10-10,3460_eid_s07_16-10-10_keyboard_10_n03085013_6095.JPEG
subject-07,3,901,0.789886951446533,car,car,4-0-10,3461_eid_s07_4-0-10_car_10_n03100240_10001.JPEG
subject-07,3,902,0.989952087402344,truck,truck,8-0-10,3462_eid_s07_8-0-10_truck_10_n03417042_9018.JPEG
subject-07,3,903,0.798201084136963,truck,truck,8-10-10,3463_eid_s07_8-10-10_truck_10_n03796401_7140.JPEG
subject-07,3,904,0.714565992355347,keyboard,keyboard,1-3-10,3464_eid_s07_1-3-10_keyboard_10_n03085013_6828.JPEG
subject-07,3,905,1.02515292167664,bird,bird,4-3-10,3465_eid_s07_4-3-10_bird_10_n01860187_122.JPEG
subject-07,3,906,1.33340501785278,bird,boat,64-10-10,3466_eid_s07_64-10-10_boat_10_n03344393_2508.JPEG
subject-07,3,907,0.872411012649536,knife,knife,4-3-10,3467_eid_s07_4-3-10_knife_10_n03041632_2338.JPEG
subject-07,3,908,0.788777112960815,cat,bird,32-10-10,3468_eid_s07_32-10-10_bird_10_n01798484_8691.JPEG
subject-07,3,909,1.00417304039001,cat,bear,16-10-10,3469_eid_s07_16-10-10_bear_10_n02132136_1126.JPEG
subject-07,3,910,1.11272406578064,bear,dog,8-3-10,3470_eid_s07_8-3-10_dog_10_n02111129_4391.JPEG
subject-07,3,911,0.852586984634399,boat,boat,1-3-10,3471_eid_s07_1-3-10_boat_10_n03662601_9628.JPEG
subject-07,3,912,1.03673005104065,clock,knife,128-0-10,3472_eid_s07_128-0-10_knife_10_n03041632_50332.JPEG
subject-07,3,913,1.2695300579071,bear,cat,32-3-10,3473_eid_s07_32-3-10_cat_10_n02123394_1942.JPEG
subject-07,3,914,1.32395100593567,clock,clock,4-3-10,3474_eid_s07_4-3-10_clock_10_n03196217_6217.JPEG
subject-07,3,915,NaN,na,boat,16-10-10,3475_eid_s07_16-10-10_boat_10_n03662601_30731.JPEG
subject-07,3,916,1.31793808937073,oven,oven,2-0-10,3476_eid_s07_2-0-10_oven_10_n04111531_11781.JPEG
subject-07,3,917,0.726723909378052,car,car,8-10-10,3477_eid_s07_8-10-10_car_10_n03100240_6892.JPEG
subject-07,3,918,0.872241020202637,airplane,airplane,8-10-10,3478_eid_s07_8-10-10_airplane_10_n02690373_5845.JPEG
subject-07,3,919,NaN,na,dog,1-10-10,3479_eid_s07_1-10-10_dog_10_n02111129_6210.JPEG
subject-07,3,920,1.19911193847656,bottle,knife,2-3-10,3480_eid_s07_2-3-10_knife_10_n03041632_7832.JPEG
subject-07,3,921,0.799575090408325,clock,clock,2-10-10,3481_eid_s07_2-10-10_clock_10_n04548280_2150.JPEG
subject-07,3,922,1.02374005317688,bear,cat,128-3-10,3482_eid_s07_128-3-10_cat_10_n02125311_6896.JPEG
subject-07,3,923,0.877771139144897,chair,chair,8-10-10,3483_eid_s07_8-10-10_chair_10_n04429376_10128.JPEG
subject-07,3,924,0.907791137695312,elephant,elephant,2-10-10,3484_eid_s07_2-10-10_elephant_10_n02504013_814.JPEG
subject-07,3,925,0.650514125823975,clock,clock,2-10-10,3485_eid_s07_2-10-10_clock_10_n03196217_212.JPEG
subject-07,3,926,0.919041872024536,boat,boat,2-0-10,3486_eid_s07_2-0-10_boat_10_n02951358_8194.JPEG
subject-07,3,927,1.02178502082825,dog,dog,2-0-10,3487_eid_s07_2-0-10_dog_10_n02105641_1647.JPEG
subject-07,3,928,1.06798386573792,truck,bear,64-3-10,3488_eid_s07_64-3-10_bear_10_n02133161_3247.JPEG
subject-07,3,929,1.16322207450867,cat,cat,32-3-10,3489_eid_s07_32-3-10_cat_10_n02123597_13350.JPEG
subject-07,3,930,0.925822019577026,bear,elephant,16-3-10,3490_eid_s07_16-3-10_elephant_10_n02504013_7777.JPEG
subject-07,3,931,0.857962131500244,knife,clock,16-3-10,3491_eid_s07_16-3-10_clock_10_n04548280_9963.JPEG
subject-07,3,932,1.19862103462219,bottle,bottle,8-0-10,3492_eid_s07_8-0-10_bottle_10_n04560804_11032.JPEG
subject-07,3,933,1.28495097160339,boat,airplane,8-3-10,3493_eid_s07_8-3-10_airplane_10_n02690373_1416.JPEG
subject-07,3,934,1.02529716491699,truck,dog,128-0-10,3494_eid_s07_128-0-10_dog_10_n02094114_6775.JPEG
subject-07,3,935,0.880332946777344,bear,chair,32-3-10,3495_eid_s07_32-3-10_chair_10_n04429376_17917.JPEG
subject-07,3,936,0.858508110046387,chair,truck,4-0-10,3496_eid_s07_4-0-10_truck_10_n03796401_1425.JPEG
subject-07,3,937,0.812253952026367,truck,truck,8-10-10,3497_eid_s07_8-10-10_truck_10_n04467665_663.JPEG
subject-07,3,938,0.936981916427612,bear,truck,64-3-10,3498_eid_s07_64-3-10_truck_10_n04467665_62626.JPEG
subject-07,3,939,1.29125881195068,airplane,airplane,32-3-10,3499_eid_s07_32-3-10_airplane_10_n02690373_6914.JPEG
subject-07,3,940,0.985956907272339,dog,dog,32-10-10,3500_eid_s07_32-10-10_dog_10_n02097130_3697.JPEG
subject-07,3,941,0.926393985748291,bottle,bottle,2-10-10,3501_eid_s07_2-10-10_bottle_10_n02823428_3687.JPEG
subject-07,3,942,0.613075971603394,airplane,airplane,1-0-10,3502_eid_s07_1-0-10_airplane_10_n02690373_6223.JPEG
subject-07,3,943,1.40991306304932,car,car,2-3-10,3503_eid_s07_2-3-10_car_10_n03100240_17759.JPEG
subject-07,3,944,0.75053882598877,bicycle,elephant,32-0-10,3504_eid_s07_32-0-10_elephant_10_n02504458_6878.JPEG
subject-07,3,945,1.27550911903381,truck,truck,128-0-10,3505_eid_s07_128-0-10_truck_10_n03417042_1022.JPEG
subject-07,3,946,0.853636980056763,bottle,bottle,8-10-10,3506_eid_s07_8-10-10_bottle_10_n02823428_6418.JPEG
subject-07,3,947,0.756317853927612,bottle,bottle,2-10-10,3507_eid_s07_2-10-10_bottle_10_n04579145_6923.JPEG
subject-07,3,948,0.857134103775024,truck,truck,1-0-10,3508_eid_s07_1-0-10_truck_10_n03417042_27497.JPEG
subject-07,3,949,0.842548847198486,bear,bear,2-3-10,3509_eid_s07_2-3-10_bear_10_n02134084_21906.JPEG
subject-07,3,950,0.667301177978516,airplane,airplane,1-0-10,3510_eid_s07_1-0-10_airplane_10_n02690373_790.JPEG
subject-07,3,951,0.980620861053467,bear,bicycle,32-10-10,3511_eid_s07_32-10-10_bicycle_10_n02835271_5742.JPEG
subject-07,3,952,1.16729998588562,knife,bottle,16-3-10,3512_eid_s07_16-3-10_bottle_10_n04560804_16319.JPEG
subject-07,3,953,0.845695018768311,bear,bear,64-3-10,3513_eid_s07_64-3-10_bear_10_n02133161_4830.JPEG
subject-07,3,954,0.978298902511597,knife,knife,32-3-10,3514_eid_s07_32-3-10_knife_10_n03041632_41310.JPEG
subject-07,3,955,0.811532974243164,boat,boat,4-3-10,3515_eid_s07_4-3-10_boat_10_n03344393_8618.JPEG
subject-07,3,956,0.749900102615356,bird,bird,1-3-10,3516_eid_s07_1-3-10_bird_10_n01796340_5012.JPEG
