subj,session,trial,rt,object_response,category,condition,imagename
subject-08,1,1,1.10266184806824,cat,cat,16-3-10,0001_eid_s08_16-3-10_cat_10_n02124075_13978.JPEG
subject-08,1,2,1.33984088897705,oven,oven,2-3-10,0002_eid_s08_2-3-10_oven_10_n04111531_15627.JPEG
subject-08,1,3,0.855772972106934,cat,clock,8-10-10,0003_eid_s08_8-10-10_clock_10_n04548280_13425.JPEG
subject-08,1,4,0.855276107788086,keyboard,keyboard,2-10-10,0004_eid_s08_2-10-10_keyboard_10_n03085013_21707.JPEG
subject-08,1,5,0.891122817993164,bird,clock,64-0-10,0005_eid_s08_64-0-10_clock_10_n02708093_3601.JPEG
subject-08,1,6,0.698708772659302,oven,oven,1-10-10,0006_eid_s08_1-10-10_oven_10_n04111531_769.JPEG
subject-08,1,7,0.799240827560425,airplane,airplane,1-10-10,0007_eid_s08_1-10-10_airplane_10_n02690373_1351.JPEG
subject-08,1,8,0.860939979553223,bear,bear,4-3-10,0008_eid_s08_4-3-10_bear_10_n02134418_5909.JPEG
subject-08,1,9,1.23711204528809,dog,bicycle,64-3-10,0009_eid_s08_64-3-10_bicycle_10_n03792782_30354.JPEG
subject-08,1,10,0.691465139389038,bear,bear,8-10-10,0010_eid_s08_8-10-10_bear_10_n02134418_3040.JPEG
subject-08,1,11,0.94181489944458,oven,elephant,16-3-10,0011_eid_s08_16-3-10_elephant_10_n02504013_6243.JPEG
subject-08,1,12,1.2315080165863,bird,bottle,64-3-10,0012_eid_s08_64-3-10_bottle_10_n04557648_2364.JPEG
subject-08,1,13,0.972015142440796,truck,truck,2-3-10,0013_eid_s08_2-3-10_truck_10_n04467665_23096.JPEG
subject-08,1,14,0.943264961242676,chair,cat,64-0-10,0014_eid_s08_64-0-10_cat_10_n02124075_14208.JPEG
subject-08,1,15,0.751761913299561,bottle,keyboard,128-0-10,0015_eid_s08_128-0-10_keyboard_10_n03085013_15249.JPEG
subject-08,1,16,0.549587965011597,cat,cat,4-0-10,0016_eid_s08_4-0-10_cat_10_n02123159_6554.JPEG
subject-08,1,17,1.04197192192078,boat,boat,4-10-10,0017_eid_s08_4-10-10_boat_10_n02951358_8184.JPEG
subject-08,1,18,1.12506914138794,keyboard,knife,2-0-10,0018_eid_s08_2-0-10_knife_10_n03041632_383.JPEG
subject-08,1,19,0.679228067398071,oven,boat,128-0-10,0019_eid_s08_128-0-10_boat_10_n04273569_14578.JPEG
subject-08,1,20,0.833741903305054,bird,keyboard,64-3-10,0020_eid_s08_64-3-10_keyboard_10_n03085013_1070.JPEG
subject-08,1,21,0.780314922332764,airplane,airplane,32-10-10,0021_eid_s08_32-10-10_airplane_10_n02690373_20690.JPEG
subject-08,1,22,0.531417846679688,boat,cat,64-3-10,0022_eid_s08_64-3-10_cat_10_n02123597_111.JPEG
subject-08,1,23,1.26206803321838,truck,truck,8-0-10,0023_eid_s08_8-0-10_truck_10_n04467665_46550.JPEG
subject-08,1,24,0.837610006332397,bear,knife,64-0-10,0024_eid_s08_64-0-10_knife_10_n03041632_87339.JPEG
subject-08,1,25,0.891839981079102,bottle,bottle,8-10-10,0025_eid_s08_8-10-10_bottle_10_n02823428_1091.JPEG
subject-08,1,26,0.662629842758179,cat,keyboard,128-10-10,0026_eid_s08_128-10-10_keyboard_10_n03085013_4935.JPEG
subject-08,1,27,0.971516132354736,chair,truck,128-0-10,0027_eid_s08_128-0-10_truck_10_n03796401_3577.JPEG
subject-08,1,28,0.763862133026123,bottle,bottle,2-3-10,0028_eid_s08_2-3-10_bottle_10_n04560804_679.JPEG
subject-08,1,29,0.64850902557373,cat,cat,2-3-10,0029_eid_s08_2-3-10_cat_10_n02123394_224.JPEG
subject-08,1,30,1.06413412094116,bear,bear,1-10-10,0030_eid_s08_1-10-10_bear_10_n02133161_757.JPEG
subject-08,1,31,0.586150884628296,cat,cat,4-0-10,0031_eid_s08_4-0-10_cat_10_n02123159_5695.JPEG
subject-08,1,32,1.01638293266296,dog,dog,2-10-10,0032_eid_s08_2-10-10_dog_10_n02089078_414.JPEG
subject-08,1,33,1.08691096305847,truck,airplane,4-0-10,0033_eid_s08_4-0-10_airplane_10_n02690373_1732.JPEG
subject-08,1,34,1.04154300689697,airplane,airplane,8-10-10,0034_eid_s08_8-10-10_airplane_10_n02690373_807.JPEG
subject-08,1,35,1.11496496200562,bottle,bottle,2-3-10,0035_eid_s08_2-3-10_bottle_10_n04557648_2523.JPEG
subject-08,1,36,0.946780920028687,cat,bear,64-0-10,0036_eid_s08_64-0-10_bear_10_n02132136_686.JPEG
subject-08,1,37,0.906904935836792,chair,oven,16-3-10,0037_eid_s08_16-3-10_oven_10_n04111531_1977.JPEG
subject-08,1,38,0.822977066040039,chair,chair,1-10-10,0038_eid_s08_1-10-10_chair_10_n04099969_3536.JPEG
subject-08,1,39,0.953443050384521,boat,boat,1-10-10,0039_eid_s08_1-10-10_boat_10_n03344393_8319.JPEG
subject-08,1,40,0.682943105697632,car,car,2-10-10,0040_eid_s08_2-10-10_car_10_n04285008_8265.JPEG
subject-08,1,41,0.867620944976807,cat,keyboard,128-3-10,0041_eid_s08_128-3-10_keyboard_10_n03085013_23187.JPEG
subject-08,1,42,0.93010687828064,bicycle,bicycle,1-10-10,0042_eid_s08_1-10-10_bicycle_10_n03792782_10366.JPEG
subject-08,1,43,1.08212995529175,car,car,64-10-10,0043_eid_s08_64-10-10_car_10_n03100240_9150.JPEG
subject-08,1,44,1.15290212631226,dog,oven,4-0-10,0044_eid_s08_4-0-10_oven_10_n04111531_7356.JPEG
subject-08,1,45,1.03145289421082,car,car,4-3-10,0045_eid_s08_4-3-10_car_10_n03100240_7626.JPEG
subject-08,1,46,0.783129930496216,dog,dog,1-10-10,0046_eid_s08_1-10-10_dog_10_n02101388_24828.JPEG
subject-08,1,47,0.767334938049316,boat,bicycle,64-3-10,0047_eid_s08_64-3-10_bicycle_10_n03792782_8098.JPEG
subject-08,1,48,1.19974613189697,airplane,truck,16-0-10,0048_eid_s08_16-0-10_truck_10_n04467665_14279.JPEG
subject-08,1,49,0.760469198226929,bear,bear,1-10-10,0049_eid_s08_1-10-10_bear_10_n02132136_18829.JPEG
subject-08,1,50,0.860453128814697,boat,clock,128-10-10,0050_eid_s08_128-10-10_clock_10_n04548280_1112.JPEG
subject-08,1,51,0.514832973480225,boat,bear,128-10-10,0051_eid_s08_128-10-10_bear_10_n02134084_14809.JPEG
subject-08,1,52,0.677299022674561,keyboard,keyboard,4-3-10,0052_eid_s08_4-3-10_keyboard_10_n04505470_4843.JPEG
subject-08,1,53,0.54590106010437,boat,boat,2-10-10,0053_eid_s08_2-10-10_boat_10_n03662601_29956.JPEG
subject-08,1,54,0.699249029159546,clock,chair,32-0-10,0054_eid_s08_32-0-10_chair_10_n03376595_13795.JPEG
subject-08,1,55,0.953548908233643,keyboard,keyboard,4-3-10,0055_eid_s08_4-3-10_keyboard_10_n04505470_2623.JPEG
subject-08,1,56,0.952214956283569,airplane,airplane,16-10-10,0056_eid_s08_16-10-10_airplane_10_n02690373_2643.JPEG
subject-08,1,57,0.676764965057373,chair,chair,8-3-10,0057_eid_s08_8-3-10_chair_10_n04099969_147.JPEG
subject-08,1,58,0.92323899269104,knife,knife,4-3-10,0058_eid_s08_4-3-10_knife_10_n03041632_29276.JPEG
subject-08,1,59,0.739418983459473,dog,cat,8-0-10,0059_eid_s08_8-0-10_cat_10_n02123597_749.JPEG
subject-08,1,60,1.07828903198242,truck,truck,1-0-10,0060_eid_s08_1-0-10_truck_10_n04467665_31539.JPEG
subject-08,1,61,0.740666151046753,cat,cat,2-3-10,0061_eid_s08_2-3-10_cat_10_n02123159_7444.JPEG
subject-08,1,62,0.893378973007202,bird,bear,16-0-10,0062_eid_s08_16-0-10_bear_10_n02134418_76.JPEG
subject-08,1,63,0.947394132614136,cat,bottle,32-0-10,0063_eid_s08_32-0-10_bottle_10_n04557648_4899.JPEG
subject-08,1,64,0.76441502571106,chair,chair,1-0-10,0064_eid_s08_1-0-10_chair_10_n04099969_14851.JPEG
subject-08,1,65,0.81027889251709,bird,bird,1-3-10,0065_eid_s08_1-3-10_bird_10_n02002724_4452.JPEG
subject-08,1,66,1.27277278900146,bottle,bottle,4-0-10,0066_eid_s08_4-0-10_bottle_10_n04557648_4008.JPEG
subject-08,1,67,0.964587926864624,bear,bear,16-3-10,0067_eid_s08_16-3-10_bear_10_n02134418_3338.JPEG
subject-08,1,68,1.11672306060791,bottle,knife,8-0-10,0068_eid_s08_8-0-10_knife_10_n03041632_41381.JPEG
subject-08,1,69,1.39532089233398,elephant,elephant,4-10-10,0069_eid_s08_4-10-10_elephant_10_n02504013_9780.JPEG
subject-08,1,70,0.995870113372803,airplane,car,128-0-10,0070_eid_s08_128-0-10_car_10_n03100240_12652.JPEG
subject-08,1,71,0.818542003631592,boat,boat,32-10-10,0071_eid_s08_32-10-10_boat_10_n03662601_8895.JPEG
subject-08,1,72,0.788837909698486,bottle,bottle,2-0-10,0072_eid_s08_2-0-10_bottle_10_n02823428_14155.JPEG
subject-08,1,73,1.12702178955078,knife,knife,16-3-10,0073_eid_s08_16-3-10_knife_10_n03041632_86783.JPEG
subject-08,1,74,1.50011920928955,elephant,elephant,16-0-10,0074_eid_s08_16-0-10_elephant_10_n02504458_395.JPEG
subject-08,1,75,0.829012155532837,bird,bird,4-0-10,0075_eid_s08_4-0-10_bird_10_n01616318_2334.JPEG
subject-08,1,76,0.567345142364502,cat,knife,64-0-10,0076_eid_s08_64-0-10_knife_10_n03041632_30821.JPEG
subject-08,1,77,1.17599105834961,car,clock,1-3-10,0077_eid_s08_1-3-10_clock_10_n02708093_3394.JPEG
subject-08,1,78,0.784347057342529,cat,elephant,16-10-10,0078_eid_s08_16-10-10_elephant_10_n02504013_5904.JPEG
subject-08,1,79,1.13103294372559,car,boat,8-10-10,0079_eid_s08_8-10-10_boat_10_n03662601_1711.JPEG
subject-08,1,80,0.677396059036255,chair,chair,1-0-10,0080_eid_s08_1-0-10_chair_10_n04099969_2174.JPEG
subject-08,1,81,0.84443998336792,bottle,bottle,4-0-10,0081_eid_s08_4-0-10_bottle_10_n04557648_140.JPEG
subject-08,1,82,0.769315958023071,car,car,8-3-10,0082_eid_s08_8-3-10_car_10_n03100240_8376.JPEG
subject-08,1,83,1.24583411216736,bird,bird,64-3-10,0083_eid_s08_64-3-10_bird_10_n02033041_3887.JPEG
subject-08,1,84,0.89257287979126,cat,oven,128-10-10,0084_eid_s08_128-10-10_oven_10_n04111531_10419.JPEG
subject-08,1,85,0.699863910675049,bicycle,bicycle,2-0-10,0085_eid_s08_2-0-10_bicycle_10_n03792782_24042.JPEG
subject-08,1,86,0.743889093399048,cat,knife,32-3-10,0086_eid_s08_32-3-10_knife_10_n03041632_7173.JPEG
subject-08,1,87,1.08219289779663,airplane,boat,16-0-10,0087_eid_s08_16-0-10_boat_10_n02951358_33277.JPEG
subject-08,1,88,0.690778970718384,bird,bird,8-10-10,0088_eid_s08_8-10-10_bird_10_n01828970_5211.JPEG
subject-08,1,89,0.731073141098022,car,car,1-0-10,0089_eid_s08_1-0-10_car_10_n02814533_85312.JPEG
subject-08,1,90,0.914844036102295,elephant,elephant,2-10-10,0090_eid_s08_2-10-10_elephant_10_n02504013_9983.JPEG
subject-08,1,91,1.00760793685913,bear,bicycle,64-10-10,0091_eid_s08_64-10-10_bicycle_10_n02835271_5678.JPEG
subject-08,1,92,0.845899105072021,bicycle,bicycle,2-3-10,0092_eid_s08_2-3-10_bicycle_10_n02835271_3575.JPEG
subject-08,1,93,1.31457495689392,boat,bear,128-10-10,0093_eid_s08_128-10-10_bear_10_n02134084_17155.JPEG
subject-08,1,94,0.763762950897217,clock,oven,16-0-10,0094_eid_s08_16-0-10_oven_10_n04111531_11225.JPEG
subject-08,1,95,0.83260703086853,boat,boat,4-0-10,0095_eid_s08_4-0-10_boat_10_n03344393_4073.JPEG
subject-08,1,96,0.655916213989258,dog,dog,2-10-10,0096_eid_s08_2-10-10_dog_10_n02095314_5119.JPEG
subject-08,1,97,1.25378394126892,car,chair,8-0-10,0097_eid_s08_8-0-10_chair_10_n02791124_1693.JPEG
subject-08,1,98,1.23810505867004,car,clock,2-0-10,0098_eid_s08_2-0-10_clock_10_n04548280_4561.JPEG
subject-08,1,99,0.787129163742065,cat,bottle,16-10-10,0099_eid_s08_16-10-10_bottle_10_n03983396_11929.JPEG
subject-08,1,100,1.10980105400085,bottle,bottle,4-10-10,0100_eid_s08_4-10-10_bottle_10_n02823428_7389.JPEG
subject-08,1,101,0.922513008117676,chair,chair,2-10-10,0101_eid_s08_2-10-10_chair_10_n04099969_14176.JPEG
subject-08,1,102,0.860463857650757,boat,knife,32-3-10,0102_eid_s08_32-3-10_knife_10_n03041632_5162.JPEG
subject-08,1,103,0.785156011581421,oven,bicycle,32-10-10,0103_eid_s08_32-10-10_bicycle_10_n03792782_18884.JPEG
subject-08,1,104,0.899430990219116,cat,bicycle,64-10-10,0104_eid_s08_64-10-10_bicycle_10_n02835271_8017.JPEG
subject-08,1,105,0.778069972991943,clock,clock,4-10-10,0105_eid_s08_4-10-10_clock_10_n03196217_1387.JPEG
subject-08,1,106,0.85456109046936,keyboard,truck,64-10-10,0106_eid_s08_64-10-10_truck_10_n03417042_1228.JPEG
subject-08,1,107,1.38509392738342,bird,bear,16-0-10,0107_eid_s08_16-0-10_bear_10_n02134084_13394.JPEG
subject-08,1,108,1.50017309188843,bear,bear,16-10-10,0108_eid_s08_16-10-10_bear_10_n02134418_12639.JPEG
subject-08,1,109,0.855991125106812,boat,cat,32-0-10,0109_eid_s08_32-0-10_cat_10_n02125311_16033.JPEG
subject-08,1,110,1.37861895561218,knife,clock,8-0-10,0110_eid_s08_8-0-10_clock_10_n04548280_7475.JPEG
subject-08,1,111,0.695092916488647,cat,cat,2-0-10,0111_eid_s08_2-0-10_cat_10_n02123159_7035.JPEG
subject-08,1,112,0.919496059417725,airplane,airplane,1-3-10,0112_eid_s08_1-3-10_airplane_10_n02690373_4728.JPEG
subject-08,1,113,0.849579095840454,car,clock,1-0-10,0113_eid_s08_1-0-10_clock_10_n02708093_2800.JPEG
subject-08,1,114,0.76333212852478,knife,knife,2-0-10,0114_eid_s08_2-0-10_knife_10_n03041632_25512.JPEG
subject-08,1,115,0.955826997756958,cat,bear,16-0-10,0115_eid_s08_16-0-10_bear_10_n02132136_17756.JPEG
subject-08,1,116,0.563354015350342,cat,cat,1-10-10,0116_eid_s08_1-10-10_cat_10_n02123597_300.JPEG
subject-08,1,117,0.877745151519775,bird,bird,32-3-10,0117_eid_s08_32-3-10_bird_10_n01530575_37893.JPEG
subject-08,1,118,0.816104173660278,bear,truck,16-0-10,0118_eid_s08_16-0-10_truck_10_n03796401_4121.JPEG
subject-08,1,119,0.732775926589966,oven,cat,64-10-10,0119_eid_s08_64-10-10_cat_10_n02123045_20366.JPEG
subject-08,1,120,1.03310203552246,airplane,boat,64-10-10,0120_eid_s08_64-10-10_boat_10_n03662601_2869.JPEG
subject-08,1,121,1.09586882591248,boat,airplane,32-3-10,0121_eid_s08_32-3-10_airplane_10_n02690373_10723.JPEG
subject-08,1,122,0.658264875411987,cat,cat,2-10-10,0122_eid_s08_2-10-10_cat_10_n02123045_12658.JPEG
subject-08,1,123,0.863668918609619,knife,knife,2-3-10,0123_eid_s08_2-3-10_knife_10_n03041632_20194.JPEG
subject-08,1,124,1.33220601081848,boat,boat,2-0-10,0124_eid_s08_2-0-10_boat_10_n04273569_6888.JPEG
subject-08,1,125,0.826808929443359,bird,car,64-0-10,0125_eid_s08_64-0-10_car_10_n03100240_7278.JPEG
subject-08,1,126,0.849331855773926,oven,bear,2-3-10,0126_eid_s08_2-3-10_bear_10_n02133161_628.JPEG
subject-08,1,127,1.07146906852722,car,airplane,64-0-10,0127_eid_s08_64-0-10_airplane_10_n02690373_6524.JPEG
subject-08,1,128,1.40921497344971,clock,clock,2-0-10,0128_eid_s08_2-0-10_clock_10_n03196217_3508.JPEG
subject-08,1,129,1.23064017295837,bear,oven,8-0-10,0129_eid_s08_8-0-10_oven_10_n04111531_4795.JPEG
subject-08,1,130,0.776992082595825,cat,bottle,32-3-10,0130_eid_s08_32-3-10_bottle_10_n04560804_6329.JPEG
subject-08,1,131,0.709914922714233,keyboard,car,64-3-10,0131_eid_s08_64-3-10_car_10_n03100240_8596.JPEG
subject-08,1,132,1.2784948348999,oven,knife,4-0-10,0132_eid_s08_4-0-10_knife_10_n03041632_18468.JPEG
subject-08,1,133,0.748715877532959,bird,bird,8-3-10,0133_eid_s08_8-3-10_bird_10_n01582220_1794.JPEG
subject-08,1,134,0.741607904434204,cat,car,8-0-10,0134_eid_s08_8-0-10_car_10_n03100240_8683.JPEG
subject-08,1,135,0.828043937683105,bicycle,clock,128-3-10,0135_eid_s08_128-3-10_clock_10_n02708093_5274.JPEG
subject-08,1,136,0.951235055923462,chair,car,64-0-10,0136_eid_s08_64-0-10_car_10_n03100240_1959.JPEG
subject-08,1,137,0.759316921234131,keyboard,keyboard,2-0-10,0137_eid_s08_2-0-10_keyboard_10_n03085013_20691.JPEG
subject-08,1,138,0.830092191696167,knife,knife,2-3-10,0138_eid_s08_2-3-10_knife_10_n03041632_49513.JPEG
subject-08,1,139,0.865990877151489,dog,dog,8-0-10,0139_eid_s08_8-0-10_dog_10_n02099601_8184.JPEG
subject-08,1,140,1.50021409988403,bicycle,bicycle,4-0-10,0140_eid_s08_4-0-10_bicycle_10_n03792782_51149.JPEG
subject-08,1,141,0.828075885772705,cat,cat,128-10-10,0141_eid_s08_128-10-10_cat_10_n02123394_415.JPEG
subject-08,1,142,0.820545196533203,bear,bear,4-3-10,0142_eid_s08_4-3-10_bear_10_n02134084_2406.JPEG
subject-08,1,143,1.05785989761353,boat,boat,4-3-10,0143_eid_s08_4-3-10_boat_10_n03344393_8422.JPEG
subject-08,1,144,0.964388132095337,chair,cat,128-0-10,0144_eid_s08_128-0-10_cat_10_n02125311_17238.JPEG
subject-08,1,145,1.1266610622406,airplane,elephant,32-3-10,0145_eid_s08_32-3-10_elephant_10_n02504458_2399.JPEG
subject-08,1,146,0.757322788238525,bicycle,dog,64-3-10,0146_eid_s08_64-3-10_dog_10_n02102318_12593.JPEG
subject-08,1,147,0.927041053771973,cat,dog,16-0-10,0147_eid_s08_16-0-10_dog_10_n02086079_3521.JPEG
subject-08,1,148,1.03358387947083,bear,bear,8-3-10,0148_eid_s08_8-3-10_bear_10_n02134418_4374.JPEG
subject-08,1,149,1.31206893920898,elephant,truck,8-0-10,0149_eid_s08_8-0-10_truck_10_n03417042_27966.JPEG
subject-08,1,150,0.928518772125244,bear,bicycle,32-3-10,0150_eid_s08_32-3-10_bicycle_10_n02835271_5177.JPEG
subject-08,1,151,0.95923900604248,elephant,elephant,1-3-10,0151_eid_s08_1-3-10_elephant_10_n02504458_4639.JPEG
subject-08,1,152,0.821521997451782,keyboard,keyboard,8-3-10,0152_eid_s08_8-3-10_keyboard_10_n03085013_25181.JPEG
subject-08,1,153,0.535245895385742,oven,oven,64-3-10,0153_eid_s08_64-3-10_oven_10_n04111531_14913.JPEG
subject-08,1,154,1.18240284919739,car,bottle,128-3-10,0154_eid_s08_128-3-10_bottle_10_n03983396_4115.JPEG
subject-08,1,155,1.00611901283264,bear,bicycle,4-3-10,0155_eid_s08_4-3-10_bicycle_10_n02835271_9190.JPEG
subject-08,1,156,1.01251292228699,chair,chair,4-3-10,0156_eid_s08_4-3-10_chair_10_n02791124_2796.JPEG
subject-08,1,157,0.767098188400269,elephant,elephant,1-10-10,0157_eid_s08_1-10-10_elephant_10_n02504013_10533.JPEG
subject-08,1,158,1.02955794334412,bicycle,keyboard,32-10-10,0158_eid_s08_32-10-10_keyboard_10_n04505470_1988.JPEG
subject-08,1,159,0.738209009170532,boat,bear,128-3-10,0159_eid_s08_128-3-10_bear_10_n02132136_14625.JPEG
subject-08,1,160,1.02238893508911,oven,oven,2-3-10,0160_eid_s08_2-3-10_oven_10_n04111531_13479.JPEG
subject-08,1,161,0.585120916366577,keyboard,keyboard,8-3-10,0161_eid_s08_8-3-10_keyboard_10_n04505470_407.JPEG
subject-08,1,162,0.936753034591675,bird,bird,128-3-10,0162_eid_s08_128-3-10_bird_10_n01534433_14539.JPEG
subject-08,1,163,0.953194856643677,airplane,boat,8-0-10,0163_eid_s08_8-0-10_boat_10_n04273569_4044.JPEG
subject-08,1,164,0.620634078979492,boat,boat,2-3-10,0164_eid_s08_2-3-10_boat_10_n04273569_6569.JPEG
subject-08,1,165,0.866822004318237,boat,bear,64-10-10,0165_eid_s08_64-10-10_bear_10_n02132136_2335.JPEG
subject-08,1,166,0.837849855422974,dog,dog,4-10-10,0166_eid_s08_4-10-10_dog_10_n02097047_5039.JPEG
subject-08,1,167,1.14410305023193,boat,boat,8-10-10,0167_eid_s08_8-10-10_boat_10_n02951358_16653.JPEG
subject-08,1,168,0.752377033233643,truck,truck,4-0-10,0168_eid_s08_4-0-10_truck_10_n03417042_1906.JPEG
subject-08,1,169,0.930928945541382,oven,keyboard,16-10-10,0169_eid_s08_16-10-10_keyboard_10_n03085013_19471.JPEG
subject-08,1,170,0.923434972763062,bicycle,elephant,64-10-10,0170_eid_s08_64-10-10_elephant_10_n02504458_3525.JPEG
subject-08,1,171,0.870412111282349,airplane,airplane,8-10-10,0171_eid_s08_8-10-10_airplane_10_n02690373_5581.JPEG
subject-08,1,172,0.784389019012451,bicycle,bicycle,2-3-10,0172_eid_s08_2-3-10_bicycle_10_n02835271_8965.JPEG
subject-08,1,173,1.27696800231934,boat,bottle,16-3-10,0173_eid_s08_16-3-10_bottle_10_n04591713_435.JPEG
subject-08,1,174,0.813601970672607,dog,dog,1-3-10,0174_eid_s08_1-3-10_dog_10_n02097047_4443.JPEG
subject-08,1,175,0.980887174606323,car,boat,32-10-10,0175_eid_s08_32-10-10_boat_10_n04273569_5811.JPEG
subject-08,1,176,0.805330991744995,chair,chair,1-10-10,0176_eid_s08_1-10-10_chair_10_n03376595_820.JPEG
subject-08,1,177,1.49030995368958,knife,truck,128-3-10,0177_eid_s08_128-3-10_truck_10_n04467665_28313.JPEG
subject-08,1,178,1.09062695503235,truck,knife,8-10-10,0178_eid_s08_8-10-10_knife_10_n03041632_43634.JPEG
subject-08,1,179,1.1369960308075,keyboard,keyboard,2-10-10,0179_eid_s08_2-10-10_keyboard_10_n04505470_6847.JPEG
subject-08,1,180,0.796702861785889,cat,bicycle,64-3-10,0180_eid_s08_64-3-10_bicycle_10_n03792782_70169.JPEG
subject-08,1,181,1.36482810974121,knife,knife,16-10-10,0181_eid_s08_16-10-10_knife_10_n03041632_7205.JPEG
subject-08,1,182,0.896827936172485,elephant,elephant,2-10-10,0182_eid_s08_2-10-10_elephant_10_n02504458_5849.JPEG
subject-08,1,183,0.665345907211304,boat,airplane,32-3-10,0183_eid_s08_32-3-10_airplane_10_n02690373_2440.JPEG
subject-08,1,184,1.08673000335693,truck,truck,8-0-10,0184_eid_s08_8-0-10_truck_10_n03417042_9289.JPEG
subject-08,1,185,1.0413830280304,airplane,airplane,1-3-10,0185_eid_s08_1-3-10_airplane_10_n02690373_2130.JPEG
subject-08,1,186,0.870755910873413,oven,dog,128-0-10,0186_eid_s08_128-0-10_dog_10_n02091244_10248.JPEG
subject-08,1,187,0.884628057479858,dog,dog,1-10-10,0187_eid_s08_1-10-10_dog_10_n02110958_13439.JPEG
subject-08,1,188,1.02288699150085,car,chair,16-0-10,0188_eid_s08_16-0-10_chair_10_n03376595_111.JPEG
subject-08,1,189,0.954998970031738,cat,keyboard,32-10-10,0189_eid_s08_32-10-10_keyboard_10_n03085013_19611.JPEG
subject-08,1,190,1.33177495002747,keyboard,keyboard,8-3-10,0190_eid_s08_8-3-10_keyboard_10_n03085013_20416.JPEG
subject-08,1,191,1.39423608779907,boat,bicycle,64-3-10,0191_eid_s08_64-3-10_bicycle_10_n02835271_1897.JPEG
subject-08,1,192,0.862694025039673,clock,clock,8-3-10,0192_eid_s08_8-3-10_clock_10_n03196217_10190.JPEG
subject-08,1,193,0.817649126052856,bear,knife,64-3-10,0193_eid_s08_64-3-10_knife_10_n03041632_13194.JPEG
subject-08,1,194,0.633979797363281,oven,elephant,16-0-10,0194_eid_s08_16-0-10_elephant_10_n02504013_459.JPEG
subject-08,1,195,1.21755909919739,boat,boat,1-0-10,0195_eid_s08_1-0-10_boat_10_n04273569_1643.JPEG
subject-08,1,196,0.839926958084106,dog,dog,4-3-10,0196_eid_s08_4-3-10_dog_10_n02112018_5860.JPEG
subject-08,1,197,0.739744901657104,bird,chair,64-3-10,0197_eid_s08_64-3-10_chair_10_n04429376_2311.JPEG
subject-08,1,198,0.632179021835327,airplane,airplane,4-3-10,0198_eid_s08_4-3-10_airplane_10_n02690373_7036.JPEG
subject-08,1,199,0.986699104309082,truck,truck,16-10-10,0199_eid_s08_16-10-10_truck_10_n04467665_44850.JPEG
subject-08,1,200,1.00116300582886,bicycle,truck,128-0-10,0200_eid_s08_128-0-10_truck_10_n03417042_11072.JPEG
subject-08,1,201,0.833654165267944,clock,clock,8-3-10,0201_eid_s08_8-3-10_clock_10_n02708093_5758.JPEG
subject-08,1,202,1.02529096603394,bear,elephant,2-10-10,0202_eid_s08_2-10-10_elephant_10_n02504013_1187.JPEG
subject-08,1,203,0.833554029464722,dog,dog,4-3-10,0203_eid_s08_4-3-10_dog_10_n02099849_60.JPEG
subject-08,1,204,1.23899793624878,airplane,airplane,16-0-10,0204_eid_s08_16-0-10_airplane_10_n02690373_5714.JPEG
subject-08,1,205,0.877172946929932,bear,bear,8-10-10,0205_eid_s08_8-10-10_bear_10_n02133161_532.JPEG
subject-08,1,206,0.677457809448242,car,car,16-10-10,0206_eid_s08_16-10-10_car_10_n03100240_6954.JPEG
subject-08,1,207,0.631191968917847,boat,clock,64-3-10,0207_eid_s08_64-3-10_clock_10_n04548280_532.JPEG
subject-08,1,208,0.645864963531494,bicycle,bicycle,4-10-10,0208_eid_s08_4-10-10_bicycle_10_n02835271_1525.JPEG
subject-08,1,209,1.04633092880249,airplane,airplane,2-10-10,0209_eid_s08_2-10-10_airplane_10_n02690373_563.JPEG
subject-08,1,210,0.746980905532837,oven,truck,128-3-10,0210_eid_s08_128-3-10_truck_10_n03417042_3376.JPEG
subject-08,1,211,0.823349952697754,keyboard,keyboard,2-0-10,0211_eid_s08_2-0-10_keyboard_10_n04505470_850.JPEG
subject-08,1,212,0.785810947418213,bear,bird,32-3-10,0212_eid_s08_32-3-10_bird_10_n02051845_15430.JPEG
subject-08,1,213,0.669852018356323,truck,car,32-10-10,0213_eid_s08_32-10-10_car_10_n02814533_77384.JPEG
subject-08,1,214,0.746140003204346,car,boat,32-3-10,0214_eid_s08_32-3-10_boat_10_n03344393_3328.JPEG
subject-08,1,215,1.33111810684204,bicycle,boat,128-3-10,0215_eid_s08_128-3-10_boat_10_n02951358_11456.JPEG
subject-08,1,216,0.747976064682007,dog,dog,1-0-10,0216_eid_s08_1-0-10_dog_10_n02090379_3619.JPEG
subject-08,1,217,0.910233974456787,knife,knife,2-10-10,0217_eid_s08_2-10-10_knife_10_n03041632_24181.JPEG
subject-08,1,218,0.902951002120972,airplane,truck,32-3-10,0218_eid_s08_32-3-10_truck_10_n04467665_69087.JPEG
subject-08,1,219,0.857461929321289,oven,knife,2-0-10,0219_eid_s08_2-0-10_knife_10_n03041632_289.JPEG
subject-08,1,220,1.03312182426453,cat,bottle,128-3-10,0220_eid_s08_128-3-10_bottle_10_n04557648_12559.JPEG
subject-08,1,221,0.763602018356323,car,car,2-0-10,0221_eid_s08_2-0-10_car_10_n02814533_44670.JPEG
subject-08,1,222,0.931262969970703,cat,bird,16-0-10,0222_eid_s08_16-0-10_bird_10_n01817953_8277.JPEG
subject-08,1,223,1.2012779712677,elephant,boat,128-10-10,0223_eid_s08_128-10-10_boat_10_n02951358_34966.JPEG
subject-08,1,224,0.80969500541687,airplane,boat,16-10-10,0224_eid_s08_16-10-10_boat_10_n02951358_1360.JPEG
subject-08,1,225,0.961613893508911,bicycle,truck,1-0-10,0225_eid_s08_1-0-10_truck_10_n03417042_1793.JPEG
subject-08,1,226,0.945504188537598,oven,bottle,1-10-10,0226_eid_s08_1-10-10_bottle_10_n04591713_5680.JPEG
subject-08,1,227,1.28406715393066,bear,bear,64-10-10,0227_eid_s08_64-10-10_bear_10_n02132136_12053.JPEG
subject-08,1,228,0.746473073959351,elephant,elephant,2-0-10,0228_eid_s08_2-0-10_elephant_10_n02504458_3329.JPEG
subject-08,1,229,1.23126006126404,car,chair,8-0-10,0229_eid_s08_8-0-10_chair_10_n04099969_8468.JPEG
subject-08,1,230,1.29383397102356,cat,truck,128-10-10,0230_eid_s08_128-10-10_truck_10_n04467665_3714.JPEG
subject-08,1,231,0.716208219528198,car,car,32-10-10,0231_eid_s08_32-10-10_car_10_n03100240_18421.JPEG
subject-08,1,232,0.68661093711853,bird,cat,64-3-10,0232_eid_s08_64-3-10_cat_10_n02123045_8579.JPEG
subject-08,1,233,1.01164793968201,bird,bird,4-0-10,0233_eid_s08_4-0-10_bird_10_n01530575_4115.JPEG
subject-08,1,234,0.958143949508667,chair,chair,128-0-10,0234_eid_s08_128-0-10_chair_10_n04429376_1954.JPEG
subject-08,1,235,1.08753895759583,oven,clock,1-0-10,0235_eid_s08_1-0-10_clock_10_n02708093_3743.JPEG
subject-08,1,236,0.856087923049927,bear,dog,16-10-10,0236_eid_s08_16-10-10_dog_10_n02097474_7441.JPEG
subject-08,1,237,1.09455704689026,dog,bottle,32-10-10,0237_eid_s08_32-10-10_bottle_10_n04591713_5503.JPEG
subject-08,1,238,1.03522396087646,bird,elephant,128-10-10,0238_eid_s08_128-10-10_elephant_10_n02504458_6635.JPEG
subject-08,1,239,0.998020172119141,bear,bear,32-3-10,0239_eid_s08_32-3-10_bear_10_n02133161_3139.JPEG
subject-08,1,240,1.03641819953918,keyboard,keyboard,8-3-10,0240_eid_s08_8-3-10_keyboard_10_n04505470_2293.JPEG
subject-08,1,241,0.799545049667358,boat,bear,64-10-10,0241_eid_s08_64-10-10_bear_10_n02134084_7371.JPEG
subject-08,1,242,1.39995503425598,car,oven,8-10-10,0242_eid_s08_8-10-10_oven_10_n04111531_1778.JPEG
subject-08,1,243,0.962532043457031,cat,knife,16-10-10,0243_eid_s08_16-10-10_knife_10_n03041632_8321.JPEG
subject-08,1,244,0.907991170883179,bird,bird,2-10-10,0244_eid_s08_2-10-10_bird_10_n01843065_3386.JPEG
subject-08,1,245,NaN,na,knife,128-0-10,0245_eid_s08_128-0-10_knife_10_n03041632_13645.JPEG
subject-08,1,246,0.762710094451904,dog,dog,2-10-10,0246_eid_s08_2-10-10_dog_10_n02099849_544.JPEG
subject-08,1,247,0.938645839691162,car,bottle,16-10-10,0247_eid_s08_16-10-10_bottle_10_n04560804_448.JPEG
subject-08,1,248,1.25334787368774,keyboard,clock,4-3-10,0248_eid_s08_4-3-10_clock_10_n03196217_6984.JPEG
subject-08,1,249,0.953329801559448,oven,knife,32-0-10,0249_eid_s08_32-0-10_knife_10_n03041632_4214.JPEG
subject-08,1,250,0.753950119018555,clock,bear,128-10-10,0250_eid_s08_128-10-10_bear_10_n02134084_40633.JPEG
subject-08,1,251,NaN,na,clock,32-0-10,0251_eid_s08_32-0-10_clock_10_n02708093_7827.JPEG
subject-08,1,252,0.925113916397095,bird,truck,32-10-10,0252_eid_s08_32-10-10_truck_10_n04467665_3125.JPEG
subject-08,1,253,0.687522888183594,cat,cat,128-10-10,0253_eid_s08_128-10-10_cat_10_n02123159_5126.JPEG
subject-08,1,254,0.641258001327515,keyboard,keyboard,4-10-10,0254_eid_s08_4-10-10_keyboard_10_n03085013_20983.JPEG
subject-08,1,255,0.925173997879028,elephant,elephant,32-10-10,0255_eid_s08_32-10-10_elephant_10_n02504458_7016.JPEG
subject-08,1,256,0.866799831390381,bear,bicycle,64-3-10,0256_eid_s08_64-3-10_bicycle_10_n03792782_20065.JPEG
subject-08,1,257,0.768815994262695,bird,bird,2-10-10,0257_eid_s08_2-10-10_bird_10_n01860187_3621.JPEG
subject-08,1,258,0.669272899627686,dog,dog,16-10-10,0258_eid_s08_16-10-10_dog_10_n02101556_2360.JPEG
subject-08,1,259,0.578381061553955,dog,dog,2-0-10,0259_eid_s08_2-0-10_dog_10_n02090721_1044.JPEG
subject-08,1,260,0.924416065216064,boat,clock,64-10-10,0260_eid_s08_64-10-10_clock_10_n04548280_757.JPEG
subject-08,1,261,1.20888090133667,knife,knife,16-10-10,0261_eid_s08_16-10-10_knife_10_n03041632_932.JPEG
subject-08,1,262,0.755645036697388,bottle,bottle,2-0-10,0262_eid_s08_2-0-10_bottle_10_n02823428_5153.JPEG
subject-08,1,263,0.69573187828064,cat,cat,4-10-10,0263_eid_s08_4-10-10_cat_10_n02123597_578.JPEG
subject-08,1,264,1.22685694694519,bird,oven,16-10-10,0264_eid_s08_16-10-10_oven_10_n04111531_4662.JPEG
subject-08,1,265,0.904959917068481,cat,cat,32-10-10,0265_eid_s08_32-10-10_cat_10_n02125311_34035.JPEG
subject-08,1,266,0.79738187789917,truck,truck,1-10-10,0266_eid_s08_1-10-10_truck_10_n03417042_2978.JPEG
subject-08,1,267,0.643040180206299,boat,airplane,32-0-10,0267_eid_s08_32-0-10_airplane_10_n02690373_1441.JPEG
subject-08,1,268,1.31976389884949,keyboard,keyboard,4-10-10,0268_eid_s08_4-10-10_keyboard_10_n04505470_3254.JPEG
subject-08,1,269,0.914732933044434,cat,elephant,4-10-10,0269_eid_s08_4-10-10_elephant_10_n02504458_6729.JPEG
subject-08,1,270,0.831045866012573,clock,clock,1-3-10,0270_eid_s08_1-3-10_clock_10_n02708093_1313.JPEG
subject-08,1,271,1.18389892578125,chair,clock,64-0-10,0271_eid_s08_64-0-10_clock_10_n02708093_7133.JPEG
subject-08,1,272,0.745812177658081,oven,car,16-3-10,0272_eid_s08_16-3-10_car_10_n04285008_7546.JPEG
subject-08,1,273,0.90822696685791,truck,truck,4-0-10,0273_eid_s08_4-0-10_truck_10_n04467665_1408.JPEG
subject-08,1,274,0.932943105697632,cat,bear,16-0-10,0274_eid_s08_16-0-10_bear_10_n02132136_494.JPEG
subject-08,1,275,0.601406812667847,boat,bicycle,128-3-10,0275_eid_s08_128-3-10_bicycle_10_n02835271_27402.JPEG
subject-08,1,276,0.701595067977905,cat,cat,32-3-10,0276_eid_s08_32-3-10_cat_10_n02123394_6964.JPEG
subject-08,1,277,0.856343030929565,elephant,elephant,4-0-10,0277_eid_s08_4-0-10_elephant_10_n02504458_151.JPEG
subject-08,1,278,0.66459584236145,cat,cat,4-0-10,0278_eid_s08_4-0-10_cat_10_n02123597_3004.JPEG
subject-08,1,279,0.811118125915527,truck,truck,4-3-10,0279_eid_s08_4-3-10_truck_10_n04467665_11299.JPEG
subject-08,1,280,0.727433919906616,airplane,airplane,16-10-10,0280_eid_s08_16-10-10_airplane_10_n02690373_11908.JPEG
subject-08,1,281,0.957858085632324,bear,bear,1-10-10,0281_eid_s08_1-10-10_bear_10_n02134418_2535.JPEG
subject-08,1,282,0.741889953613281,bear,bear,1-0-10,0282_eid_s08_1-0-10_bear_10_n02134084_14978.JPEG
subject-08,1,283,0.857399225234985,clock,keyboard,128-3-10,0283_eid_s08_128-3-10_keyboard_10_n04505470_4473.JPEG
subject-08,1,284,1.09594583511353,dog,bicycle,8-0-10,0284_eid_s08_8-0-10_bicycle_10_n03792782_32622.JPEG
subject-08,1,285,1.08852815628052,airplane,airplane,4-10-10,0285_eid_s08_4-10-10_airplane_10_n02690373_3728.JPEG
subject-08,1,286,0.825767993927002,boat,car,32-0-10,0286_eid_s08_32-0-10_car_10_n03100240_14252.JPEG
subject-08,1,287,0.726358890533447,oven,keyboard,32-10-10,0287_eid_s08_32-10-10_keyboard_10_n03085013_21967.JPEG
subject-08,1,288,0.701856136322021,keyboard,keyboard,1-10-10,0288_eid_s08_1-10-10_keyboard_10_n04505470_5149.JPEG
subject-08,1,289,0.547981023788452,clock,car,32-10-10,0289_eid_s08_32-10-10_car_10_n04285008_5997.JPEG
subject-08,1,290,1.3861448764801,bird,bird,8-3-10,0290_eid_s08_8-3-10_bird_10_n01592084_4413.JPEG
subject-08,1,291,0.726402997970581,bird,bottle,8-0-10,0291_eid_s08_8-0-10_bottle_10_n02823428_4521.JPEG
subject-08,1,292,0.748070955276489,bottle,bottle,8-10-10,0292_eid_s08_8-10-10_bottle_10_n02823428_3593.JPEG
subject-08,1,293,0.71068811416626,boat,keyboard,128-0-10,0293_eid_s08_128-0-10_keyboard_10_n03085013_19536.JPEG
subject-08,1,294,0.573063850402832,oven,knife,64-10-10,0294_eid_s08_64-10-10_knife_10_n03041632_32292.JPEG
subject-08,1,295,1.18761205673218,airplane,knife,2-0-10,0295_eid_s08_2-0-10_knife_10_n03041632_23087.JPEG
subject-08,1,296,0.850445032119751,boat,knife,32-0-10,0296_eid_s08_32-0-10_knife_10_n03041632_50332.JPEG
subject-08,1,297,0.658643960952759,cat,cat,8-3-10,0297_eid_s08_8-3-10_cat_10_n02123394_4370.JPEG
subject-08,1,298,0.781429052352905,chair,car,128-3-10,0298_eid_s08_128-3-10_car_10_n03100240_2795.JPEG
subject-08,1,299,0.535943031311035,car,car,1-0-10,0299_eid_s08_1-0-10_car_10_n02814533_40955.JPEG
subject-08,1,300,0.64411187171936,bear,dog,32-3-10,0300_eid_s08_32-3-10_dog_10_n02107312_2812.JPEG
subject-08,1,301,0.91199803352356,bicycle,bicycle,4-3-10,0301_eid_s08_4-3-10_bicycle_10_n02835271_11929.JPEG
subject-08,1,302,0.812417030334473,keyboard,keyboard,4-10-10,0302_eid_s08_4-10-10_keyboard_10_n04505470_262.JPEG
subject-08,1,303,0.752280950546265,cat,cat,4-10-10,0303_eid_s08_4-10-10_cat_10_n02125311_1896.JPEG
subject-08,1,304,0.652740955352783,clock,airplane,32-0-10,0304_eid_s08_32-0-10_airplane_10_n02690373_1862.JPEG
subject-08,1,305,0.683667898178101,car,car,2-10-10,0305_eid_s08_2-10-10_car_10_n02814533_28756.JPEG
subject-08,1,306,1.00874996185303,bicycle,boat,128-0-10,0306_eid_s08_128-0-10_boat_10_n04273569_962.JPEG
subject-08,1,307,1.33115291595459,cat,elephant,64-10-10,0307_eid_s08_64-10-10_elephant_10_n02504013_10802.JPEG
subject-08,1,308,0.89382004737854,oven,oven,1-10-10,0308_eid_s08_1-10-10_oven_10_n04111531_4444.JPEG
subject-08,1,309,0.890705108642578,boat,bird,64-3-10,0309_eid_s08_64-3-10_bird_10_n02018207_8019.JPEG
subject-08,1,310,0.9010910987854,cat,car,128-10-10,0310_eid_s08_128-10-10_car_10_n02814533_77738.JPEG
subject-08,1,311,0.861860036849976,bicycle,bicycle,1-3-10,0311_eid_s08_1-3-10_bicycle_10_n02835271_8529.JPEG
subject-08,1,312,1.00207114219666,oven,boat,32-0-10,0312_eid_s08_32-0-10_boat_10_n02951358_7382.JPEG
subject-08,1,313,1.16990089416504,bird,clock,32-3-10,0313_eid_s08_32-3-10_clock_10_n02708093_245.JPEG
subject-08,1,314,1.04809308052063,bird,bird,16-3-10,0314_eid_s08_16-3-10_bird_10_n01829413_4190.JPEG
subject-08,1,315,0.948551177978516,dog,chair,8-3-10,0315_eid_s08_8-3-10_chair_10_n03376595_235.JPEG
subject-08,1,316,0.802922010421753,boat,boat,8-3-10,0316_eid_s08_8-3-10_boat_10_n04273569_8942.JPEG
subject-08,1,317,0.765174150466919,boat,truck,4-0-10,0317_eid_s08_4-0-10_truck_10_n03417042_11166.JPEG
subject-08,1,318,0.711856842041016,chair,chair,1-0-10,0318_eid_s08_1-0-10_chair_10_n04099969_38402.JPEG
subject-08,1,319,0.682278871536255,oven,oven,1-3-10,0319_eid_s08_1-3-10_oven_10_n04111531_8658.JPEG
subject-08,1,320,1.00463700294495,clock,knife,8-3-10,0320_eid_s08_8-3-10_knife_10_n03041632_13656.JPEG
subject-08,1,321,1.08837699890137,oven,clock,2-0-10,0321_eid_s08_2-0-10_clock_10_n03196217_8190.JPEG
subject-08,1,322,0.729221820831299,cat,bicycle,8-0-10,0322_eid_s08_8-0-10_bicycle_10_n02835271_320.JPEG
subject-08,1,323,0.829681158065796,truck,truck,2-10-10,0323_eid_s08_2-10-10_truck_10_n03796401_27924.JPEG
subject-08,1,324,0.976150989532471,bicycle,truck,16-0-10,0324_eid_s08_16-0-10_truck_10_n03417042_5670.JPEG
subject-08,1,325,1.02207803726196,dog,dog,2-0-10,0325_eid_s08_2-0-10_dog_10_n02107142_18718.JPEG
subject-08,1,326,0.643776893615723,airplane,cat,32-0-10,0326_eid_s08_32-0-10_cat_10_n02123159_343.JPEG
subject-08,1,327,0.598446846008301,boat,car,16-10-10,0327_eid_s08_16-10-10_car_10_n03100240_15876.JPEG
subject-08,1,328,0.59282112121582,oven,truck,128-0-10,0328_eid_s08_128-0-10_truck_10_n03417042_3508.JPEG
subject-08,1,329,0.855570077896118,bear,bear,4-10-10,0329_eid_s08_4-10-10_bear_10_n02134084_1945.JPEG
subject-08,1,330,0.731866121292114,cat,chair,16-10-10,0330_eid_s08_16-10-10_chair_10_n04099969_905.JPEG
subject-08,1,331,0.670088052749634,car,car,1-10-10,0331_eid_s08_1-10-10_car_10_n03100240_14950.JPEG
subject-08,1,332,0.924954175949097,bird,knife,16-10-10,0332_eid_s08_16-10-10_knife_10_n03041632_7090.JPEG
subject-08,1,333,0.949002981185913,bear,bear,32-3-10,0333_eid_s08_32-3-10_bear_10_n02132136_21794.JPEG
subject-08,1,334,0.849608898162842,airplane,bird,64-3-10,0334_eid_s08_64-3-10_bird_10_n01582220_5802.JPEG
subject-08,1,335,0.683287143707275,oven,chair,64-0-10,0335_eid_s08_64-0-10_chair_10_n02791124_1507.JPEG
subject-08,1,336,0.638472080230713,boat,elephant,4-0-10,0336_eid_s08_4-0-10_elephant_10_n02504013_5963.JPEG
subject-08,1,337,1.01691508293152,chair,bottle,8-0-10,0337_eid_s08_8-0-10_bottle_10_n03937543_5062.JPEG
subject-08,1,338,1.09322500228882,dog,knife,16-10-10,0338_eid_s08_16-10-10_knife_10_n03041632_20662.JPEG
subject-08,1,339,0.939862012863159,elephant,elephant,2-3-10,0339_eid_s08_2-3-10_elephant_10_n02504458_7322.JPEG
subject-08,1,340,0.764330863952637,boat,bird,8-10-10,0340_eid_s08_8-10-10_bird_10_n01560419_7674.JPEG
subject-08,1,341,0.926923990249634,bottle,bottle,2-0-10,0341_eid_s08_2-0-10_bottle_10_n04591713_6561.JPEG
subject-08,1,342,1.07346105575562,boat,knife,4-0-10,0342_eid_s08_4-0-10_knife_10_n03041632_99912.JPEG
subject-08,1,343,0.812124967575073,car,car,2-0-10,0343_eid_s08_2-0-10_car_10_n03100240_9149.JPEG
subject-08,1,344,1.01242589950562,chair,chair,2-3-10,0344_eid_s08_2-3-10_chair_10_n03376595_12417.JPEG
subject-08,1,345,1.18270802497864,keyboard,car,2-10-10,0345_eid_s08_2-10-10_car_10_n02814533_35054.JPEG
subject-08,1,346,0.612385034561157,clock,clock,1-10-10,0346_eid_s08_1-10-10_clock_10_n04548280_467.JPEG
subject-08,1,347,1.04275584220886,bottle,bottle,8-10-10,0347_eid_s08_8-10-10_bottle_10_n04591713_2793.JPEG
subject-08,1,348,1.23519802093506,airplane,boat,2-3-10,0348_eid_s08_2-3-10_boat_10_n03344393_438.JPEG
subject-08,1,349,1.497633934021,dog,dog,16-10-10,0349_eid_s08_16-10-10_dog_10_n02086079_29635.JPEG
subject-08,1,350,0.81380820274353,boat,knife,128-0-10,0350_eid_s08_128-0-10_knife_10_n03041632_92063.JPEG
subject-08,1,351,0.698059797286987,cat,bird,64-10-10,0351_eid_s08_64-10-10_bird_10_n01532829_2908.JPEG
subject-08,1,352,0.852696895599365,bird,car,128-3-10,0352_eid_s08_128-3-10_car_10_n02814533_4001.JPEG
subject-08,1,353,0.861139059066772,keyboard,keyboard,2-10-10,0353_eid_s08_2-10-10_keyboard_10_n04505470_4681.JPEG
subject-08,1,354,1.09955215454102,chair,cat,16-0-10,0354_eid_s08_16-0-10_cat_10_n02123394_1281.JPEG
subject-08,1,355,1.04613304138184,bottle,bottle,2-3-10,0355_eid_s08_2-3-10_bottle_10_n04591713_5714.JPEG
subject-08,1,356,1.05478882789612,knife,knife,16-10-10,0356_eid_s08_16-10-10_knife_10_n03041632_4443.JPEG
subject-08,1,357,0.940996170043945,dog,dog,2-0-10,0357_eid_s08_2-0-10_dog_10_n02092339_6563.JPEG
subject-08,1,358,1.11011600494385,dog,cat,32-10-10,0358_eid_s08_32-10-10_cat_10_n02124075_11452.JPEG
subject-08,1,359,NaN,na,car,32-3-10,0359_eid_s08_32-3-10_car_10_n03100240_7318.JPEG
subject-08,1,360,0.627120018005371,keyboard,keyboard,1-10-10,0360_eid_s08_1-10-10_keyboard_10_n03085013_23014.JPEG
subject-08,1,361,0.885040044784546,car,cat,64-10-10,0361_eid_s08_64-10-10_cat_10_n02125311_7837.JPEG
subject-08,1,362,1.5002281665802,oven,cat,16-3-10,0362_eid_s08_16-3-10_cat_10_n02123597_592.JPEG
subject-08,1,363,0.827969074249268,oven,oven,4-3-10,0363_eid_s08_4-3-10_oven_10_n04111531_1442.JPEG
subject-08,1,364,1.26621699333191,airplane,elephant,32-10-10,0364_eid_s08_32-10-10_elephant_10_n02504013_11708.JPEG
subject-08,1,365,1.25875902175903,bear,bear,32-0-10,0365_eid_s08_32-0-10_bear_10_n02134418_14313.JPEG
subject-08,1,366,0.675209999084473,cat,cat,64-3-10,0366_eid_s08_64-3-10_cat_10_n02123597_13794.JPEG
subject-08,1,367,0.604834079742432,keyboard,keyboard,16-10-10,0367_eid_s08_16-10-10_keyboard_10_n04505470_4369.JPEG
subject-08,1,368,0.651314973831177,airplane,airplane,2-0-10,0368_eid_s08_2-0-10_airplane_10_n02690373_2038.JPEG
subject-08,1,369,0.913782119750977,truck,truck,4-10-10,0369_eid_s08_4-10-10_truck_10_n03796401_7002.JPEG
subject-08,1,370,1.11311316490173,keyboard,keyboard,1-3-10,0370_eid_s08_1-3-10_keyboard_10_n03085013_20996.JPEG
subject-08,1,371,0.829782962799072,car,dog,32-10-10,0371_eid_s08_32-10-10_dog_10_n02092002_1244.JPEG
subject-08,1,372,1.09820199012756,boat,truck,16-3-10,0372_eid_s08_16-3-10_truck_10_n03796401_7179.JPEG
subject-08,1,373,1.17722392082214,keyboard,bear,64-3-10,0373_eid_s08_64-3-10_bear_10_n02133161_3059.JPEG
subject-08,1,374,0.907217979431152,oven,knife,16-3-10,0374_eid_s08_16-3-10_knife_10_n03041632_2644.JPEG
subject-08,1,375,1.05584597587585,chair,elephant,64-0-10,0375_eid_s08_64-0-10_elephant_10_n02504458_2237.JPEG
subject-08,1,376,0.907446146011353,airplane,airplane,4-0-10,0376_eid_s08_4-0-10_airplane_10_n02690373_17044.JPEG
subject-08,1,377,0.661879062652588,cat,cat,1-0-10,0377_eid_s08_1-0-10_cat_10_n02123394_900.JPEG
subject-08,1,378,0.778609991073608,bird,boat,8-3-10,0378_eid_s08_8-3-10_boat_10_n03662601_34881.JPEG
subject-08,1,379,0.841125965118408,boat,boat,4-0-10,0379_eid_s08_4-0-10_boat_10_n03662601_23478.JPEG
subject-08,1,380,1.13964986801147,cat,keyboard,128-10-10,0380_eid_s08_128-10-10_keyboard_10_n03085013_2464.JPEG
subject-08,1,381,1.03904795646667,bear,airplane,16-3-10,0381_eid_s08_16-3-10_airplane_10_n02690373_9963.JPEG
subject-08,1,382,1.18535399436951,car,bear,32-10-10,0382_eid_s08_32-10-10_bear_10_n02134084_3359.JPEG
subject-08,1,383,0.740015983581543,bird,bird,4-10-10,0383_eid_s08_4-10-10_bird_10_n02018795_3712.JPEG
subject-08,1,384,0.60929012298584,airplane,airplane,2-0-10,0384_eid_s08_2-0-10_airplane_10_n02690373_4364.JPEG
subject-08,1,385,1.0309419631958,cat,clock,128-10-10,0385_eid_s08_128-10-10_clock_10_n02708093_1091.JPEG
subject-08,1,386,1.35330080986023,knife,clock,8-0-10,0386_eid_s08_8-0-10_clock_10_n02708093_3742.JPEG
subject-08,1,387,0.799516916275024,knife,knife,2-3-10,0387_eid_s08_2-3-10_knife_10_n03041632_40450.JPEG
subject-08,1,388,0.854274034500122,cat,truck,16-0-10,0388_eid_s08_16-0-10_truck_10_n03796401_1837.JPEG
subject-08,1,389,0.840811967849731,oven,chair,8-10-10,0389_eid_s08_8-10-10_chair_10_n03376595_13949.JPEG
subject-08,1,390,1.11192393302917,boat,car,128-10-10,0390_eid_s08_128-10-10_car_10_n02814533_48541.JPEG
subject-08,1,391,0.874131917953491,dog,knife,8-10-10,0391_eid_s08_8-10-10_knife_10_n03041632_83826.JPEG
subject-08,1,392,1.15872001647949,boat,clock,128-10-10,0392_eid_s08_128-10-10_clock_10_n04548280_5127.JPEG
subject-08,1,393,1.1500518321991,bear,cat,8-0-10,0393_eid_s08_8-0-10_cat_10_n02125311_6585.JPEG
subject-08,1,394,1.50032210350037,cat,cat,8-3-10,0394_eid_s08_8-3-10_cat_10_n02123394_6048.JPEG
subject-08,1,395,0.997436046600342,car,truck,4-10-10,0395_eid_s08_4-10-10_truck_10_n03796401_20943.JPEG
subject-08,1,396,0.899645090103149,keyboard,truck,128-10-10,0396_eid_s08_128-10-10_truck_10_n04467665_18665.JPEG
subject-08,1,397,0.760388851165771,truck,truck,1-10-10,0397_eid_s08_1-10-10_truck_10_n03417042_13448.JPEG
subject-08,1,398,0.681356906890869,chair,oven,64-3-10,0398_eid_s08_64-3-10_oven_10_n04111531_3689.JPEG
subject-08,1,399,0.914030075073242,elephant,chair,32-3-10,0399_eid_s08_32-3-10_chair_10_n04429376_13106.JPEG
subject-08,1,400,0.768530130386353,clock,elephant,64-3-10,0400_eid_s08_64-3-10_elephant_10_n02504013_4957.JPEG
subject-08,1,401,1.32819795608521,car,car,32-10-10,0401_eid_s08_32-10-10_car_10_n04285008_8555.JPEG
subject-08,1,402,0.830775022506714,oven,elephant,64-0-10,0402_eid_s08_64-0-10_elephant_10_n02504458_11216.JPEG
subject-08,1,403,1.03722405433655,chair,oven,64-10-10,0403_eid_s08_64-10-10_oven_10_n04111531_17507.JPEG
subject-08,1,404,1.44503211975098,bicycle,chair,2-10-10,0404_eid_s08_2-10-10_chair_10_n03376595_13578.JPEG
subject-08,1,405,0.761344909667969,bird,bird,1-10-10,0405_eid_s08_1-10-10_bird_10_n01843383_8752.JPEG
subject-08,1,406,1.16199111938477,boat,keyboard,64-10-10,0406_eid_s08_64-10-10_keyboard_10_n03085013_4600.JPEG
subject-08,1,407,0.884656190872192,bear,bear,2-3-10,0407_eid_s08_2-3-10_bear_10_n02132136_3103.JPEG
subject-08,1,408,0.724390029907227,elephant,elephant,1-10-10,0408_eid_s08_1-10-10_elephant_10_n02504458_3625.JPEG
subject-08,1,409,0.792006015777588,keyboard,oven,16-0-10,0409_eid_s08_16-0-10_oven_10_n04111531_7139.JPEG
subject-08,1,410,0.922382116317749,knife,oven,2-0-10,0410_eid_s08_2-0-10_oven_10_n04111531_505.JPEG
subject-08,1,411,0.838340997695923,bird,bird,1-3-10,0411_eid_s08_1-3-10_bird_10_n02018795_987.JPEG
subject-08,1,412,0.83908486366272,truck,truck,8-3-10,0412_eid_s08_8-3-10_truck_10_n03796401_14104.JPEG
subject-08,1,413,0.70721697807312,car,elephant,16-3-10,0413_eid_s08_16-3-10_elephant_10_n02504013_5996.JPEG
subject-08,1,414,0.961309194564819,cat,bottle,16-0-10,0414_eid_s08_16-0-10_bottle_10_n04557648_688.JPEG
subject-08,1,415,0.777585983276367,cat,cat,8-3-10,0415_eid_s08_8-3-10_cat_10_n02123394_1240.JPEG
subject-08,1,416,1.00827383995056,airplane,airplane,8-10-10,0416_eid_s08_8-10-10_airplane_10_n02690373_2010.JPEG
subject-08,1,417,1.14889287948608,bicycle,oven,4-0-10,0417_eid_s08_4-0-10_oven_10_n04111531_10313.JPEG
subject-08,1,418,0.957741022109985,cat,cat,8-3-10,0418_eid_s08_8-3-10_cat_10_n02123045_21125.JPEG
subject-08,1,419,0.850481033325195,keyboard,keyboard,1-0-10,0419_eid_s08_1-0-10_keyboard_10_n03085013_24671.JPEG
subject-08,1,420,0.836779117584229,bear,elephant,16-3-10,0420_eid_s08_16-3-10_elephant_10_n02504013_2476.JPEG
subject-08,1,421,0.734426975250244,clock,clock,1-10-10,0421_eid_s08_1-10-10_clock_10_n04548280_5286.JPEG
subject-08,1,422,1.20504784584045,oven,boat,64-3-10,0422_eid_s08_64-3-10_boat_10_n03344393_7044.JPEG
subject-08,1,423,1.22960495948792,car,chair,64-3-10,0423_eid_s08_64-3-10_chair_10_n02791124_4547.JPEG
subject-08,1,424,1.36800408363342,elephant,elephant,16-10-10,0424_eid_s08_16-10-10_elephant_10_n02504458_13352.JPEG
subject-08,1,425,0.768425941467285,boat,oven,1-3-10,0425_eid_s08_1-3-10_oven_10_n04111531_7878.JPEG
subject-08,1,426,0.82225513458252,car,car,1-10-10,0426_eid_s08_1-10-10_car_10_n04285008_5503.JPEG
subject-08,1,427,0.721599102020264,car,car,2-3-10,0427_eid_s08_2-3-10_car_10_n02814533_27588.JPEG
subject-08,1,428,0.813872098922729,cat,bottle,32-3-10,0428_eid_s08_32-3-10_bottle_10_n03937543_3381.JPEG
subject-08,1,429,0.760000944137573,clock,clock,1-3-10,0429_eid_s08_1-3-10_clock_10_n03196217_506.JPEG
subject-08,1,430,1.50040102005005,boat,boat,1-3-10,0430_eid_s08_1-3-10_boat_10_n04273569_6180.JPEG
subject-08,1,431,0.914738893508911,knife,knife,2-0-10,0431_eid_s08_2-0-10_knife_10_n03041632_2483.JPEG
subject-08,1,432,1.23629713058472,bicycle,oven,32-0-10,0432_eid_s08_32-0-10_oven_10_n04111531_2371.JPEG
subject-08,1,433,0.568843841552734,boat,bird,32-3-10,0433_eid_s08_32-3-10_bird_10_n02002556_58.JPEG
subject-08,1,434,0.877285003662109,car,keyboard,32-10-10,0434_eid_s08_32-10-10_keyboard_10_n03085013_5622.JPEG
subject-08,1,435,0.999614000320435,elephant,elephant,4-0-10,0435_eid_s08_4-0-10_elephant_10_n02504458_7017.JPEG
subject-08,1,436,0.932123184204102,bear,bird,64-3-10,0436_eid_s08_64-3-10_bird_10_n02002724_1849.JPEG
subject-08,1,437,0.86440110206604,cat,dog,16-3-10,0437_eid_s08_16-3-10_dog_10_n02107683_3279.JPEG
subject-08,1,438,0.827296018600464,bottle,bottle,1-0-10,0438_eid_s08_1-0-10_bottle_10_n04560804_13088.JPEG
subject-08,1,439,0.811506032943726,car,car,64-10-10,0439_eid_s08_64-10-10_car_10_n02814533_39485.JPEG
subject-08,1,440,0.895930051803589,chair,chair,2-10-10,0440_eid_s08_2-10-10_chair_10_n02791124_5136.JPEG
subject-08,1,441,1.12096691131592,bicycle,bicycle,8-10-10,0441_eid_s08_8-10-10_bicycle_10_n02835271_3338.JPEG
subject-08,1,442,0.85135817527771,cat,bicycle,2-10-10,0442_eid_s08_2-10-10_bicycle_10_n03792782_8062.JPEG
subject-08,1,443,0.975899934768677,truck,truck,4-3-10,0443_eid_s08_4-3-10_truck_10_n04467665_43935.JPEG
subject-08,1,444,0.908425092697144,oven,keyboard,64-0-10,0444_eid_s08_64-0-10_keyboard_10_n03085013_20453.JPEG
subject-08,1,445,1.03864407539368,bear,bottle,16-3-10,0445_eid_s08_16-3-10_bottle_10_n04591713_2366.JPEG
subject-08,1,446,0.868700981140137,cat,cat,32-10-10,0446_eid_s08_32-10-10_cat_10_n02125311_44755.JPEG
subject-08,1,447,1.03151607513428,dog,bottle,8-3-10,0447_eid_s08_8-3-10_bottle_10_n04557648_1726.JPEG
subject-08,1,448,0.74006199836731,car,bird,32-0-10,0448_eid_s08_32-0-10_bird_10_n01855032_1519.JPEG
subject-08,1,449,0.615803003311157,airplane,airplane,1-0-10,0449_eid_s08_1-0-10_airplane_10_n02690373_9293.JPEG
subject-08,1,450,1.28626108169556,chair,chair,2-3-10,0450_eid_s08_2-3-10_chair_10_n03376595_7631.JPEG
subject-08,1,451,0.924039840698242,cat,cat,2-3-10,0451_eid_s08_2-3-10_cat_10_n02123394_7466.JPEG
subject-08,1,452,0.954226970672607,bicycle,bear,32-10-10,0452_eid_s08_32-10-10_bear_10_n02133161_6162.JPEG
subject-08,1,453,1.24694919586182,car,oven,32-3-10,0453_eid_s08_32-3-10_oven_10_n04111531_10358.JPEG
subject-08,1,454,0.90947413444519,oven,airplane,64-3-10,0454_eid_s08_64-3-10_airplane_10_n02690373_5712.JPEG
subject-08,1,455,0.648007869720459,bird,bird,1-10-10,0455_eid_s08_1-10-10_bird_10_n01622779_3582.JPEG
subject-08,1,456,0.845360040664673,bear,clock,64-3-10,0456_eid_s08_64-3-10_clock_10_n03196217_5956.JPEG
subject-08,1,457,0.823653936386108,bottle,boat,128-10-10,0457_eid_s08_128-10-10_boat_10_n03662601_6331.JPEG
subject-08,1,458,0.8784499168396,bird,bird,1-10-10,0458_eid_s08_1-10-10_bird_10_n01531178_6370.JPEG
subject-08,1,459,0.948959112167358,keyboard,oven,64-3-10,0459_eid_s08_64-3-10_oven_10_n04111531_7130.JPEG
subject-08,1,460,0.871246099472046,elephant,elephant,4-3-10,0460_eid_s08_4-3-10_elephant_10_n02504013_5432.JPEG
subject-08,1,461,0.895112991333008,boat,keyboard,128-0-10,0461_eid_s08_128-0-10_keyboard_10_n04505470_8469.JPEG
subject-08,1,462,0.81714391708374,airplane,bear,128-0-10,0462_eid_s08_128-0-10_bear_10_n02132136_5815.JPEG
subject-08,1,463,1.05570507049561,bicycle,chair,32-3-10,0463_eid_s08_32-3-10_chair_10_n04099969_13458.JPEG
subject-08,1,464,0.680804967880249,clock,clock,2-0-10,0464_eid_s08_2-0-10_clock_10_n04548280_9801.JPEG
subject-08,1,465,1.29694700241089,bear,boat,4-0-10,0465_eid_s08_4-0-10_boat_10_n02951358_31835.JPEG
subject-08,1,466,1.09758710861206,keyboard,keyboard,4-0-10,0466_eid_s08_4-0-10_keyboard_10_n03085013_22175.JPEG
subject-08,1,467,1.37415719032288,oven,oven,32-0-10,0467_eid_s08_32-0-10_oven_10_n04111531_9702.JPEG
subject-08,1,468,1.29033017158508,bird,bird,16-10-10,0468_eid_s08_16-10-10_bird_10_n01829413_5534.JPEG
subject-08,1,469,0.885046005249023,clock,clock,2-3-10,0469_eid_s08_2-3-10_clock_10_n02708093_4289.JPEG
subject-08,1,470,0.96157693862915,bear,elephant,16-10-10,0470_eid_s08_16-10-10_elephant_10_n02504458_6428.JPEG
subject-08,1,471,0.578044891357422,cat,knife,16-0-10,0471_eid_s08_16-0-10_knife_10_n03041632_42156.JPEG
subject-08,1,472,0.946063995361328,truck,truck,2-10-10,0472_eid_s08_2-10-10_truck_10_n03796401_211.JPEG
subject-08,1,473,0.770532131195068,clock,clock,2-0-10,0473_eid_s08_2-0-10_clock_10_n03196217_5935.JPEG
subject-08,1,474,0.917363882064819,car,dog,16-0-10,0474_eid_s08_16-0-10_dog_10_n02097130_6033.JPEG
subject-08,1,475,0.962834119796753,keyboard,truck,64-0-10,0475_eid_s08_64-0-10_truck_10_n03796401_17504.JPEG
subject-08,1,476,1.5002110004425,dog,truck,8-3-10,0476_eid_s08_8-3-10_truck_10_n03417042_3165.JPEG
subject-08,1,477,0.833775997161865,airplane,chair,64-10-10,0477_eid_s08_64-10-10_chair_10_n04099969_24826.JPEG
subject-08,1,478,0.977368831634521,truck,truck,1-3-10,0478_eid_s08_1-3-10_truck_10_n04467665_37953.JPEG
subject-08,1,479,1.21785807609558,bear,clock,8-10-10,0479_eid_s08_8-10-10_clock_10_n04548280_3072.JPEG
subject-08,1,480,1.36390280723572,cat,bicycle,8-3-10,0480_eid_s08_8-3-10_bicycle_10_n03792782_7787.JPEG
subject-08,1,481,0.840384960174561,clock,clock,1-3-10,0481_eid_s08_1-3-10_clock_10_n04548280_4358.JPEG
subject-08,1,482,1.50020408630371,bicycle,bicycle,2-10-10,0482_eid_s08_2-10-10_bicycle_10_n02835271_307.JPEG
subject-08,1,483,0.957451105117798,cat,chair,64-10-10,0483_eid_s08_64-10-10_chair_10_n04099969_1409.JPEG
subject-08,1,484,0.898116827011108,keyboard,oven,64-3-10,0484_eid_s08_64-3-10_oven_10_n04111531_8687.JPEG
subject-08,1,485,0.958598136901855,truck,truck,32-10-10,0485_eid_s08_32-10-10_truck_10_n03796401_13445.JPEG
subject-08,1,486,0.999403953552246,keyboard,oven,4-3-10,0486_eid_s08_4-3-10_oven_10_n04111531_2054.JPEG
subject-08,1,487,1.02143406867981,chair,clock,128-0-10,0487_eid_s08_128-0-10_clock_10_n03196217_6419.JPEG
subject-08,1,488,0.60044002532959,clock,clock,1-10-10,0488_eid_s08_1-10-10_clock_10_n03196217_2575.JPEG
subject-08,1,489,0.662926912307739,boat,oven,32-10-10,0489_eid_s08_32-10-10_oven_10_n04111531_2006.JPEG
subject-08,1,490,1.0873749256134,chair,chair,1-0-10,0490_eid_s08_1-0-10_chair_10_n02791124_6061.JPEG
subject-08,1,491,1.07983803749084,bear,elephant,32-3-10,0491_eid_s08_32-3-10_elephant_10_n02504458_5875.JPEG
subject-08,1,492,0.563884973526001,cat,knife,64-0-10,0492_eid_s08_64-0-10_knife_10_n03041632_44269.JPEG
subject-08,1,493,0.742104053497314,bear,bear,1-10-10,0493_eid_s08_1-10-10_bear_10_n02132136_6529.JPEG
subject-08,1,494,0.817758083343506,elephant,oven,64-0-10,0494_eid_s08_64-0-10_oven_10_n04111531_10974.JPEG
subject-08,1,495,0.571779012680054,bear,bear,1-10-10,0495_eid_s08_1-10-10_bear_10_n02133161_976.JPEG
subject-08,1,496,1.08090019226074,boat,airplane,64-3-10,0496_eid_s08_64-3-10_airplane_10_n02690373_1291.JPEG
subject-08,1,497,1.12733602523804,cat,bottle,64-10-10,0497_eid_s08_64-10-10_bottle_10_n03983396_7074.JPEG
subject-08,1,498,0.605952978134155,car,car,8-10-10,0498_eid_s08_8-10-10_car_10_n04285008_1667.JPEG
subject-08,1,499,1.11990714073181,chair,chair,2-3-10,0499_eid_s08_2-3-10_chair_10_n04429376_16923.JPEG
subject-08,1,500,0.87455677986145,boat,boat,4-10-10,0500_eid_s08_4-10-10_boat_10_n02951358_30908.JPEG
subject-08,1,501,0.891327142715454,keyboard,cat,32-0-10,0501_eid_s08_32-0-10_cat_10_n02123159_6170.JPEG
subject-08,1,502,1.05347180366516,knife,knife,1-0-10,0502_eid_s08_1-0-10_knife_10_n03041632_4037.JPEG
subject-08,1,503,0.900054931640625,cat,bear,64-3-10,0503_eid_s08_64-3-10_bear_10_n02134084_2702.JPEG
subject-08,1,504,1.31551814079285,bear,chair,32-3-10,0504_eid_s08_32-3-10_chair_10_n04429376_24434.JPEG
subject-08,1,505,0.769688129425049,car,chair,64-3-10,0505_eid_s08_64-3-10_chair_10_n04099969_48945.JPEG
subject-08,1,506,0.853173971176147,dog,dog,8-0-10,0506_eid_s08_8-0-10_dog_10_n02106382_12208.JPEG
subject-08,1,507,0.761280059814453,oven,keyboard,32-10-10,0507_eid_s08_32-10-10_keyboard_10_n04505470_432.JPEG
subject-08,1,508,0.761440992355347,cat,cat,8-3-10,0508_eid_s08_8-3-10_cat_10_n02124075_10849.JPEG
subject-08,1,509,0.86196494102478,elephant,elephant,1-0-10,0509_eid_s08_1-0-10_elephant_10_n02504458_3463.JPEG
subject-08,1,510,1.10825395584106,chair,knife,2-3-10,0510_eid_s08_2-3-10_knife_10_n03041632_3926.JPEG
subject-08,1,511,0.840932130813599,cat,cat,4-0-10,0511_eid_s08_4-0-10_cat_10_n02123597_5951.JPEG
subject-08,1,512,1.10554599761963,keyboard,clock,2-0-10,0512_eid_s08_2-0-10_clock_10_n02708093_1673.JPEG
subject-08,1,513,0.808720827102661,cat,keyboard,16-0-10,0513_eid_s08_16-0-10_keyboard_10_n04505470_10596.JPEG
subject-08,1,514,0.611432790756226,cat,keyboard,64-3-10,0514_eid_s08_64-3-10_keyboard_10_n04505470_539.JPEG
subject-08,1,515,0.732036113739014,bird,bird,2-0-10,0515_eid_s08_2-0-10_bird_10_n02033041_5607.JPEG
subject-08,1,516,0.978192090988159,bear,clock,128-3-10,0516_eid_s08_128-3-10_clock_10_n04548280_24041.JPEG
subject-08,1,517,0.684330940246582,cat,knife,128-10-10,0517_eid_s08_128-10-10_knife_10_n03041632_18995.JPEG
subject-08,1,518,0.675795078277588,airplane,car,128-10-10,0518_eid_s08_128-10-10_car_10_n04285008_10865.JPEG
subject-08,1,519,0.846508026123047,airplane,airplane,128-10-10,0519_eid_s08_128-10-10_airplane_10_n02690373_10402.JPEG
subject-08,1,520,0.884519100189209,bird,bird,32-10-10,0520_eid_s08_32-10-10_bird_10_n02017213_3079.JPEG
subject-08,1,521,1.29317188262939,car,car,32-10-10,0521_eid_s08_32-10-10_car_10_n02814533_9822.JPEG
subject-08,1,522,0.579957008361816,boat,bottle,64-10-10,0522_eid_s08_64-10-10_bottle_10_n03983396_12065.JPEG
subject-08,1,523,0.742385149002075,oven,bear,64-0-10,0523_eid_s08_64-0-10_bear_10_n02133161_4218.JPEG
subject-08,1,524,0.68895697593689,clock,clock,2-3-10,0524_eid_s08_2-3-10_clock_10_n02708093_6560.JPEG
subject-08,1,525,0.837338924407959,boat,boat,2-10-10,0525_eid_s08_2-10-10_boat_10_n04273569_15761.JPEG
subject-08,1,526,0.945791959762573,cat,knife,64-3-10,0526_eid_s08_64-3-10_knife_10_n03041632_47743.JPEG
subject-08,1,527,0.822609186172485,bottle,bottle,2-10-10,0527_eid_s08_2-10-10_bottle_10_n04560804_14178.JPEG
subject-08,1,528,0.908886909484863,elephant,elephant,2-3-10,0528_eid_s08_2-3-10_elephant_10_n02504013_9396.JPEG
subject-08,1,529,0.793546199798584,keyboard,bird,8-0-10,0529_eid_s08_8-0-10_bird_10_n01537544_8631.JPEG
subject-08,1,530,0.939164876937866,boat,airplane,16-10-10,0530_eid_s08_16-10-10_airplane_10_n02690373_3173.JPEG
subject-08,1,531,0.755805969238281,oven,dog,128-3-10,0531_eid_s08_128-3-10_dog_10_n02093428_2759.JPEG
subject-08,1,532,0.66949987411499,airplane,airplane,4-10-10,0532_eid_s08_4-10-10_airplane_10_n02690373_12505.JPEG
subject-08,1,533,1.13192009925842,elephant,oven,4-0-10,0533_eid_s08_4-0-10_oven_10_n04111531_7603.JPEG
subject-08,1,534,0.732709169387817,bear,bear,1-0-10,0534_eid_s08_1-0-10_bear_10_n02134418_5273.JPEG
subject-08,1,535,1.27179002761841,car,bottle,128-10-10,0535_eid_s08_128-10-10_bottle_10_n04591713_7316.JPEG
subject-08,1,536,0.687959909439087,airplane,bicycle,4-3-10,0536_eid_s08_4-3-10_bicycle_10_n03792782_7357.JPEG
subject-08,1,537,0.996139049530029,bicycle,bicycle,1-3-10,0537_eid_s08_1-3-10_bicycle_10_n02835271_381.JPEG
subject-08,1,538,0.595989942550659,boat,bicycle,64-0-10,0538_eid_s08_64-0-10_bicycle_10_n02835271_719.JPEG
subject-08,1,539,1.04231691360474,chair,keyboard,64-0-10,0539_eid_s08_64-0-10_keyboard_10_n04505470_4385.JPEG
subject-08,1,540,1.50027108192444,bicycle,knife,8-3-10,0540_eid_s08_8-3-10_knife_10_n03041632_85416.JPEG
subject-08,1,541,0.613521099090576,car,car,8-3-10,0541_eid_s08_8-3-10_car_10_n04285008_261.JPEG
subject-08,1,542,0.67497706413269,car,car,4-3-10,0542_eid_s08_4-3-10_car_10_n04285008_10832.JPEG
subject-08,1,543,0.61360502243042,bear,elephant,128-3-10,0543_eid_s08_128-3-10_elephant_10_n02504458_12165.JPEG
subject-08,1,544,0.752307891845703,boat,car,16-0-10,0544_eid_s08_16-0-10_car_10_n04285008_6343.JPEG
subject-08,1,545,0.684857845306396,cat,oven,16-10-10,0545_eid_s08_16-10-10_oven_10_n04111531_8117.JPEG
subject-08,1,546,1.39929795265198,bird,bird,32-3-10,0546_eid_s08_32-3-10_bird_10_n02028035_5916.JPEG
subject-08,1,547,0.660551071166992,truck,truck,1-0-10,0547_eid_s08_1-0-10_truck_10_n04467665_13225.JPEG
subject-08,1,548,0.829095125198364,oven,oven,2-0-10,0548_eid_s08_2-0-10_oven_10_n04111531_18245.JPEG
subject-08,1,549,0.838061094284058,clock,truck,128-0-10,0549_eid_s08_128-0-10_truck_10_n03417042_1437.JPEG
subject-08,1,550,1.07868695259094,bird,bird,4-10-10,0550_eid_s08_4-10-10_bird_10_n01514859_3182.JPEG
subject-08,1,551,1.00050497055054,cat,chair,8-0-10,0551_eid_s08_8-0-10_chair_10_n03376595_30.JPEG
subject-08,1,552,0.779171943664551,elephant,elephant,2-10-10,0552_eid_s08_2-10-10_elephant_10_n02504013_1255.JPEG
subject-08,1,553,0.963557004928589,oven,chair,32-0-10,0553_eid_s08_32-0-10_chair_10_n04429376_39754.JPEG
subject-08,1,554,0.988172054290771,bicycle,chair,2-0-10,0554_eid_s08_2-0-10_chair_10_n02791124_2833.JPEG
subject-08,1,555,0.604385137557983,boat,dog,128-0-10,0555_eid_s08_128-0-10_dog_10_n02100877_26911.JPEG
subject-08,1,556,1.50039887428284,cat,elephant,8-0-10,0556_eid_s08_8-0-10_elephant_10_n02504013_1602.JPEG
subject-08,1,557,0.988173007965088,chair,chair,2-0-10,0557_eid_s08_2-0-10_chair_10_n03376595_1824.JPEG
subject-08,1,558,0.818634986877441,elephant,elephant,1-3-10,0558_eid_s08_1-3-10_elephant_10_n02504458_7994.JPEG
subject-08,1,559,0.913121938705444,cat,boat,64-10-10,0559_eid_s08_64-10-10_boat_10_n04612504_4578.JPEG
subject-08,1,560,1.41110706329346,cat,truck,16-0-10,0560_eid_s08_16-0-10_truck_10_n04467665_2240.JPEG
subject-08,1,561,0.726723909378052,bicycle,bicycle,1-0-10,0561_eid_s08_1-0-10_bicycle_10_n03792782_11417.JPEG
subject-08,1,562,0.957119941711426,clock,truck,8-3-10,0562_eid_s08_8-3-10_truck_10_n03796401_8722.JPEG
subject-08,1,563,1.08180212974548,airplane,airplane,16-3-10,0563_eid_s08_16-3-10_airplane_10_n02690373_6459.JPEG
subject-08,1,564,0.614368915557861,bird,bird,1-0-10,0564_eid_s08_1-0-10_bird_10_n01855672_14596.JPEG
subject-08,1,565,1.02866220474243,dog,cat,64-10-10,0565_eid_s08_64-10-10_cat_10_n02123394_8351.JPEG
subject-08,1,566,0.883116006851196,elephant,elephant,1-0-10,0566_eid_s08_1-0-10_elephant_10_n02504013_10773.JPEG
subject-08,1,567,0.767099142074585,cat,cat,4-0-10,0567_eid_s08_4-0-10_cat_10_n02123159_820.JPEG
subject-08,1,568,0.783492088317871,oven,bird,128-0-10,0568_eid_s08_128-0-10_bird_10_n01860187_12772.JPEG
subject-08,1,569,0.908308029174805,boat,chair,8-10-10,0569_eid_s08_8-10-10_chair_10_n02791124_3601.JPEG
subject-08,1,570,0.97636604309082,elephant,bird,4-3-10,0570_eid_s08_4-3-10_bird_10_n01824575_2252.JPEG
subject-08,1,571,1.19269585609436,bear,elephant,128-10-10,0571_eid_s08_128-10-10_elephant_10_n02504458_5564.JPEG
subject-08,1,572,1.00123000144958,truck,truck,4-10-10,0572_eid_s08_4-10-10_truck_10_n03417042_8694.JPEG
subject-08,1,573,0.951438903808594,airplane,airplane,4-10-10,0573_eid_s08_4-10-10_airplane_10_n02690373_4282.JPEG
subject-08,1,574,0.943396806716919,chair,truck,64-3-10,0574_eid_s08_64-3-10_truck_10_n03417042_3327.JPEG
subject-08,1,575,0.865556955337524,car,boat,64-10-10,0575_eid_s08_64-10-10_boat_10_n02951358_12368.JPEG
subject-08,1,576,0.936458110809326,oven,bottle,32-3-10,0576_eid_s08_32-3-10_bottle_10_n03983396_5188.JPEG
subject-08,1,577,0.920731067657471,bear,dog,128-10-10,0577_eid_s08_128-10-10_dog_10_n02090622_2135.JPEG
subject-08,1,578,0.736195087432861,bottle,bottle,8-10-10,0578_eid_s08_8-10-10_bottle_10_n02823428_4739.JPEG
subject-08,1,579,1.0505850315094,bicycle,elephant,4-0-10,0579_eid_s08_4-0-10_elephant_10_n02504458_7907.JPEG
subject-08,1,580,0.828954935073853,bird,car,32-3-10,0580_eid_s08_32-3-10_car_10_n02814533_86981.JPEG
subject-08,1,581,0.982480049133301,knife,cat,16-0-10,0581_eid_s08_16-0-10_cat_10_n02125311_15419.JPEG
subject-08,1,582,0.967041015625,cat,cat,1-10-10,0582_eid_s08_1-10-10_cat_10_n02123597_11642.JPEG
subject-08,1,583,0.958944082260132,keyboard,knife,32-0-10,0583_eid_s08_32-0-10_knife_10_n03041632_62810.JPEG
subject-08,1,584,0.905310869216919,clock,clock,2-10-10,0584_eid_s08_2-10-10_clock_10_n02708093_3609.JPEG
subject-08,1,585,1.04584002494812,chair,chair,2-0-10,0585_eid_s08_2-0-10_chair_10_n02791124_3936.JPEG
subject-08,1,586,0.860647916793823,bicycle,bicycle,2-0-10,0586_eid_s08_2-0-10_bicycle_10_n02835271_173.JPEG
subject-08,1,587,0.990273952484131,cat,chair,64-0-10,0587_eid_s08_64-0-10_chair_10_n02791124_7877.JPEG
subject-08,1,588,0.723335981369019,oven,bicycle,32-3-10,0588_eid_s08_32-3-10_bicycle_10_n02835271_1221.JPEG
subject-08,1,589,0.631001949310303,boat,dog,128-3-10,0589_eid_s08_128-3-10_dog_10_n02106030_4586.JPEG
subject-08,1,590,0.877419948577881,keyboard,keyboard,8-10-10,0590_eid_s08_8-10-10_keyboard_10_n03085013_20539.JPEG
subject-08,1,591,1.04487800598145,boat,boat,1-3-10,0591_eid_s08_1-3-10_boat_10_n04273569_1141.JPEG
subject-08,1,592,0.799386978149414,cat,cat,1-0-10,0592_eid_s08_1-0-10_cat_10_n02123597_10425.JPEG
subject-08,1,593,0.886120080947876,clock,oven,8-3-10,0593_eid_s08_8-3-10_oven_10_n04111531_1970.JPEG
subject-08,1,594,0.986455202102661,chair,boat,16-0-10,0594_eid_s08_16-0-10_boat_10_n03662601_22033.JPEG
subject-08,1,595,0.61909008026123,truck,truck,2-10-10,0595_eid_s08_2-10-10_truck_10_n03417042_11095.JPEG
subject-08,1,596,1.03368020057678,cat,knife,8-0-10,0596_eid_s08_8-0-10_knife_10_n03041632_86338.JPEG
subject-08,1,597,0.587757110595703,car,car,1-0-10,0597_eid_s08_1-0-10_car_10_n02814533_428.JPEG
subject-08,1,598,1.05796098709106,cat,cat,64-3-10,0598_eid_s08_64-3-10_cat_10_n02123394_8100.JPEG
subject-08,1,599,1.05010223388672,elephant,elephant,4-0-10,0599_eid_s08_4-0-10_elephant_10_n02504013_2257.JPEG
subject-08,1,600,1.34256386756897,bicycle,oven,4-0-10,0600_eid_s08_4-0-10_oven_10_n04111531_1580.JPEG
subject-08,1,601,0.691061973571777,bottle,bottle,1-3-10,0601_eid_s08_1-3-10_bottle_10_n03983396_663.JPEG
subject-08,1,602,0.944108963012695,bear,airplane,16-10-10,0602_eid_s08_16-10-10_airplane_10_n02690373_6536.JPEG
subject-08,1,603,0.998392105102539,chair,truck,32-3-10,0603_eid_s08_32-3-10_truck_10_n03796401_1811.JPEG
subject-08,1,604,0.693144083023071,keyboard,boat,128-0-10,0604_eid_s08_128-0-10_boat_10_n03662601_14478.JPEG
subject-08,1,605,1.13954901695251,airplane,airplane,64-10-10,0605_eid_s08_64-10-10_airplane_10_n02690373_4763.JPEG
subject-08,1,606,0.718003988265991,boat,keyboard,32-3-10,0606_eid_s08_32-3-10_keyboard_10_n04505470_279.JPEG
subject-08,1,607,0.656579971313477,clock,clock,8-10-10,0607_eid_s08_8-10-10_clock_10_n02708093_906.JPEG
subject-08,1,608,1.18088102340698,chair,boat,128-0-10,0608_eid_s08_128-0-10_boat_10_n03344393_3454.JPEG
subject-08,1,609,0.910750150680542,cat,bear,64-0-10,0609_eid_s08_64-0-10_bear_10_n02134084_15652.JPEG
subject-08,1,610,1.11164689064026,bird,bottle,32-10-10,0610_eid_s08_32-10-10_bottle_10_n02823428_3985.JPEG
subject-08,1,611,0.968026876449585,cat,dog,8-3-10,0611_eid_s08_8-3-10_dog_10_n02104365_6879.JPEG
subject-08,1,612,0.760641098022461,elephant,elephant,2-3-10,0612_eid_s08_2-3-10_elephant_10_n02504013_9809.JPEG
subject-08,1,613,0.86900520324707,clock,truck,64-0-10,0613_eid_s08_64-0-10_truck_10_n03417042_1907.JPEG
subject-08,1,614,0.855643033981323,airplane,airplane,16-0-10,0614_eid_s08_16-0-10_airplane_10_n02690373_3840.JPEG
subject-08,1,615,0.731543064117432,cat,keyboard,32-3-10,0615_eid_s08_32-3-10_keyboard_10_n03085013_2190.JPEG
subject-08,1,616,0.931885957717896,bicycle,keyboard,8-0-10,0616_eid_s08_8-0-10_keyboard_10_n03085013_7892.JPEG
subject-08,1,617,0.578333139419556,clock,clock,1-10-10,0617_eid_s08_1-10-10_clock_10_n04548280_8890.JPEG
subject-08,1,618,0.9951331615448,car,car,4-10-10,0618_eid_s08_4-10-10_car_10_n03100240_9099.JPEG
subject-08,1,619,0.779228925704956,bear,bear,32-3-10,0619_eid_s08_32-3-10_bear_10_n02133161_2209.JPEG
subject-08,1,620,1.04167699813843,elephant,elephant,2-3-10,0620_eid_s08_2-3-10_elephant_10_n02504458_7209.JPEG
subject-08,1,621,0.888442039489746,cat,cat,8-3-10,0621_eid_s08_8-3-10_cat_10_n02125311_24589.JPEG
subject-08,1,622,1.17444586753845,bottle,oven,4-0-10,0622_eid_s08_4-0-10_oven_10_n04111531_13277.JPEG
subject-08,1,623,0.583136081695557,keyboard,keyboard,4-0-10,0623_eid_s08_4-0-10_keyboard_10_n03085013_92.JPEG
subject-08,1,624,0.629494190216064,bottle,bottle,4-10-10,0624_eid_s08_4-10-10_bottle_10_n04591713_2043.JPEG
subject-08,1,625,0.95204496383667,bicycle,bicycle,4-10-10,0625_eid_s08_4-10-10_bicycle_10_n03792782_5030.JPEG
subject-08,1,626,0.684548139572144,car,airplane,32-3-10,0626_eid_s08_32-3-10_airplane_10_n02690373_10817.JPEG
subject-08,1,627,0.815079927444458,chair,bicycle,16-10-10,0627_eid_s08_16-10-10_bicycle_10_n03792782_21178.JPEG
subject-08,1,628,0.930452108383179,cat,dog,8-0-10,0628_eid_s08_8-0-10_dog_10_n02085782_940.JPEG
subject-08,1,629,1.03085494041443,oven,oven,2-3-10,0629_eid_s08_2-3-10_oven_10_n04111531_2342.JPEG
subject-08,1,630,0.80759596824646,oven,boat,2-10-10,0630_eid_s08_2-10-10_boat_10_n03344393_11013.JPEG
subject-08,1,631,1.06981992721558,knife,car,128-10-10,0631_eid_s08_128-10-10_car_10_n02814533_41434.JPEG
subject-08,1,632,0.678948879241943,cat,cat,8-0-10,0632_eid_s08_8-0-10_cat_10_n02123394_979.JPEG
subject-08,1,633,1.07944107055664,oven,knife,1-10-10,0633_eid_s08_1-10-10_knife_10_n03041632_10263.JPEG
subject-08,1,634,0.55702018737793,clock,clock,4-3-10,0634_eid_s08_4-3-10_clock_10_n04548280_6550.JPEG
subject-08,1,635,0.933829069137573,car,knife,16-3-10,0635_eid_s08_16-3-10_knife_10_n03041632_77022.JPEG
subject-08,1,636,1.2421190738678,bird,bird,1-0-10,0636_eid_s08_1-0-10_bird_10_n01601694_22002.JPEG
subject-08,1,637,1.0348379611969,oven,oven,8-10-10,0637_eid_s08_8-10-10_oven_10_n04111531_15569.JPEG
subject-08,1,638,1.29697918891907,bear,bear,4-10-10,0638_eid_s08_4-10-10_bear_10_n02133161_4083.JPEG
subject-08,1,639,0.775337934494019,airplane,airplane,1-0-10,0639_eid_s08_1-0-10_airplane_10_n02690373_5967.JPEG
subject-08,1,640,1.00583505630493,keyboard,keyboard,128-10-10,0640_eid_s08_128-10-10_keyboard_10_n03085013_24161.JPEG
subject-08,1,641,1.09837889671326,truck,truck,1-10-10,0641_eid_s08_1-10-10_truck_10_n03796401_16046.JPEG
subject-08,1,642,1.16128993034363,bicycle,bicycle,2-10-10,0642_eid_s08_2-10-10_bicycle_10_n03792782_2263.JPEG
subject-08,1,643,0.931463003158569,boat,oven,64-10-10,0643_eid_s08_64-10-10_oven_10_n04111531_3477.JPEG
subject-08,1,644,1.23110914230347,knife,knife,8-10-10,0644_eid_s08_8-10-10_knife_10_n03041632_11613.JPEG
subject-08,1,645,1.25352501869202,airplane,elephant,32-0-10,0645_eid_s08_32-0-10_elephant_10_n02504013_5829.JPEG
subject-08,1,646,0.698888063430786,bird,bird,2-3-10,0646_eid_s08_2-3-10_bird_10_n01532829_7288.JPEG
subject-08,1,647,0.661160945892334,oven,chair,64-3-10,0647_eid_s08_64-3-10_chair_10_n03376595_5364.JPEG
subject-08,1,648,0.682980060577393,boat,boat,1-10-10,0648_eid_s08_1-10-10_boat_10_n03344393_1936.JPEG
subject-08,1,649,0.875478982925415,bicycle,bicycle,1-0-10,0649_eid_s08_1-0-10_bicycle_10_n03792782_15679.JPEG
subject-08,1,650,0.929337024688721,keyboard,knife,128-3-10,0650_eid_s08_128-3-10_knife_10_n03041632_3005.JPEG
subject-08,1,651,0.721249103546143,keyboard,keyboard,2-0-10,0651_eid_s08_2-0-10_keyboard_10_n04505470_10746.JPEG
subject-08,1,652,0.675398111343384,keyboard,keyboard,4-3-10,0652_eid_s08_4-3-10_keyboard_10_n03085013_9533.JPEG
subject-08,1,653,0.799814939498901,truck,truck,1-0-10,0653_eid_s08_1-0-10_truck_10_n03796401_7455.JPEG
subject-08,1,654,1.35426211357117,bear,elephant,8-10-10,0654_eid_s08_8-10-10_elephant_10_n02504013_6722.JPEG
subject-08,1,655,1.20928692817688,bear,cat,8-0-10,0655_eid_s08_8-0-10_cat_10_n02124075_7982.JPEG
subject-08,1,656,1.46357583999634,boat,boat,1-10-10,0656_eid_s08_1-10-10_boat_10_n02951358_5396.JPEG
subject-08,1,657,1.06384110450745,bicycle,bear,64-3-10,0657_eid_s08_64-3-10_bear_10_n02133161_2880.JPEG
subject-08,1,658,0.694400072097778,bicycle,bicycle,8-10-10,0658_eid_s08_8-10-10_bicycle_10_n02835271_23683.JPEG
subject-08,1,659,0.902324914932251,cat,cat,1-0-10,0659_eid_s08_1-0-10_cat_10_n02124075_11194.JPEG
subject-08,1,660,0.793916940689087,keyboard,keyboard,2-10-10,0660_eid_s08_2-10-10_keyboard_10_n04505470_2114.JPEG
subject-08,1,661,1.14047598838806,elephant,elephant,16-10-10,0661_eid_s08_16-10-10_elephant_10_n02504013_2316.JPEG
subject-08,1,662,1.45652103424072,boat,keyboard,32-10-10,0662_eid_s08_32-10-10_keyboard_10_n03085013_2725.JPEG
subject-08,1,663,0.873403072357178,bottle,bottle,4-10-10,0663_eid_s08_4-10-10_bottle_10_n04560804_698.JPEG
subject-08,1,664,1.1330201625824,knife,knife,4-0-10,0664_eid_s08_4-0-10_knife_10_n03041632_11495.JPEG
subject-08,1,665,1.50011897087097,cat,airplane,128-10-10,0665_eid_s08_128-10-10_airplane_10_n02690373_8589.JPEG
subject-08,1,666,0.720067977905273,dog,dog,4-3-10,0666_eid_s08_4-3-10_dog_10_n02085936_7537.JPEG
subject-08,1,667,1.15030097961426,bird,bear,8-10-10,0667_eid_s08_8-10-10_bear_10_n02133161_5011.JPEG
subject-08,1,668,0.920925855636597,bear,bear,64-3-10,0668_eid_s08_64-3-10_bear_10_n02134418_7944.JPEG
subject-08,1,669,0.850457191467285,car,car,1-0-10,0669_eid_s08_1-0-10_car_10_n02814533_4637.JPEG
subject-08,1,670,0.875353097915649,keyboard,keyboard,8-10-10,0670_eid_s08_8-10-10_keyboard_10_n04505470_4955.JPEG
subject-08,1,671,0.96440315246582,elephant,boat,16-0-10,0671_eid_s08_16-0-10_boat_10_n02951358_15309.JPEG
subject-08,1,672,1.15107011795044,bear,bear,8-0-10,0672_eid_s08_8-0-10_bear_10_n02134418_3256.JPEG
subject-08,1,673,0.750677824020386,oven,oven,2-10-10,0673_eid_s08_2-10-10_oven_10_n04111531_283.JPEG
subject-08,1,674,1.3730890750885,clock,clock,16-10-10,0674_eid_s08_16-10-10_clock_10_n04548280_7816.JPEG
subject-08,1,675,0.681521892547607,boat,dog,128-0-10,0675_eid_s08_128-0-10_dog_10_n02111500_4573.JPEG
subject-08,1,676,1.01134300231934,bottle,truck,32-10-10,0676_eid_s08_32-10-10_truck_10_n03417042_3238.JPEG
subject-08,1,677,1.14400696754456,keyboard,car,64-0-10,0677_eid_s08_64-0-10_car_10_n02814533_29325.JPEG
subject-08,1,678,1.00380706787109,oven,oven,4-10-10,0678_eid_s08_4-10-10_oven_10_n04111531_4418.JPEG
subject-08,1,679,0.866314888000488,car,bottle,64-3-10,0679_eid_s08_64-3-10_bottle_10_n03983396_4407.JPEG
subject-08,1,680,1.13661813735962,airplane,boat,4-10-10,0680_eid_s08_4-10-10_boat_10_n03344393_4944.JPEG
subject-08,1,681,0.899570941925049,bird,elephant,32-0-10,0681_eid_s08_32-0-10_elephant_10_n02504458_418.JPEG
subject-08,1,682,1.01340794563293,keyboard,keyboard,2-3-10,0682_eid_s08_2-3-10_keyboard_10_n04505470_10041.JPEG
subject-08,1,683,1.28398704528809,chair,chair,8-10-10,0683_eid_s08_8-10-10_chair_10_n04099969_8595.JPEG
subject-08,1,684,0.946566820144653,dog,dog,2-3-10,0684_eid_s08_2-3-10_dog_10_n02096437_7246.JPEG
subject-08,1,685,0.847171068191528,truck,truck,4-10-10,0685_eid_s08_4-10-10_truck_10_n03417042_1279.JPEG
subject-08,1,686,0.915515899658203,chair,chair,8-10-10,0686_eid_s08_8-10-10_chair_10_n04099969_7527.JPEG
subject-08,1,687,0.924077987670898,chair,chair,4-10-10,0687_eid_s08_4-10-10_chair_10_n02791124_10834.JPEG
subject-08,1,688,0.91560697555542,cat,truck,32-10-10,0688_eid_s08_32-10-10_truck_10_n03417042_17839.JPEG
subject-08,1,689,1.50024509429932,bicycle,bicycle,16-10-10,0689_eid_s08_16-10-10_bicycle_10_n02835271_14909.JPEG
subject-08,1,690,0.978115081787109,airplane,boat,32-3-10,0690_eid_s08_32-3-10_boat_10_n03662601_2980.JPEG
subject-08,1,691,0.599359035491943,boat,bear,128-3-10,0691_eid_s08_128-3-10_bear_10_n02132136_10212.JPEG
subject-08,1,692,1.00510120391846,elephant,truck,128-3-10,0692_eid_s08_128-3-10_truck_10_n04467665_1009.JPEG
subject-08,1,693,1.5001049041748,chair,knife,32-0-10,0693_eid_s08_32-0-10_knife_10_n03041632_24541.JPEG
subject-08,1,694,0.691305875778198,clock,clock,4-3-10,0694_eid_s08_4-3-10_clock_10_n02708093_4722.JPEG
subject-08,1,695,0.683098077774048,bottle,bottle,8-3-10,0695_eid_s08_8-3-10_bottle_10_n04579145_5430.JPEG
subject-08,1,696,1.28358888626099,elephant,elephant,2-0-10,0696_eid_s08_2-0-10_elephant_10_n02504458_66.JPEG
subject-08,1,697,0.99227499961853,cat,keyboard,32-10-10,0697_eid_s08_32-10-10_keyboard_10_n04505470_3961.JPEG
subject-08,1,698,1.16789388656616,bear,bear,2-0-10,0698_eid_s08_2-0-10_bear_10_n02134084_9326.JPEG
subject-08,1,699,1.02196097373962,dog,oven,64-10-10,0699_eid_s08_64-10-10_oven_10_n04111531_10672.JPEG
subject-08,1,700,0.898223161697388,keyboard,bird,128-0-10,0700_eid_s08_128-0-10_bird_10_n01819313_1515.JPEG
subject-08,1,701,0.936275005340576,car,oven,128-0-10,0701_eid_s08_128-0-10_oven_10_n04111531_10102.JPEG
subject-08,1,702,1.20685386657715,bicycle,oven,32-10-10,0702_eid_s08_32-10-10_oven_10_n04111531_10681.JPEG
subject-08,1,703,0.961247205734253,keyboard,keyboard,16-3-10,0703_eid_s08_16-3-10_keyboard_10_n04505470_5127.JPEG
subject-08,1,704,0.869821071624756,car,clock,16-3-10,0704_eid_s08_16-3-10_clock_10_n04548280_7159.JPEG
subject-08,1,705,0.840354919433594,car,car,2-10-10,0705_eid_s08_2-10-10_car_10_n02814533_8128.JPEG
subject-08,1,706,1.14669585227966,bottle,oven,4-0-10,0706_eid_s08_4-0-10_oven_10_n04111531_9613.JPEG
subject-08,1,707,0.741098165512085,dog,dog,2-3-10,0707_eid_s08_2-3-10_dog_10_n02093256_561.JPEG
subject-08,1,708,1.20368194580078,bicycle,bicycle,16-3-10,0708_eid_s08_16-3-10_bicycle_10_n02835271_9204.JPEG
subject-08,1,709,0.74220609664917,bird,cat,64-10-10,0709_eid_s08_64-10-10_cat_10_n02123159_6184.JPEG
subject-08,1,710,1.08883714675903,oven,oven,1-3-10,0710_eid_s08_1-3-10_oven_10_n04111531_136.JPEG
subject-08,1,711,1.16895985603333,cat,boat,64-10-10,0711_eid_s08_64-10-10_boat_10_n04273569_20506.JPEG
subject-08,1,712,0.985440969467163,boat,oven,64-3-10,0712_eid_s08_64-3-10_oven_10_n04111531_1073.JPEG
subject-08,1,713,1.36161708831787,dog,dog,1-3-10,0713_eid_s08_1-3-10_dog_10_n02085936_10451.JPEG
subject-08,1,714,0.855700016021729,oven,oven,2-3-10,0714_eid_s08_2-3-10_oven_10_n04111531_1330.JPEG
subject-08,1,715,0.932027101516724,chair,chair,16-10-10,0715_eid_s08_16-10-10_chair_10_n04099969_21786.JPEG
subject-08,1,716,NaN,na,boat,4-0-10,0716_eid_s08_4-0-10_boat_10_n04612504_15944.JPEG
subject-08,1,717,0.719269037246704,elephant,elephant,1-10-10,0717_eid_s08_1-10-10_elephant_10_n02504013_848.JPEG
subject-08,1,718,0.743567943572998,airplane,airplane,8-3-10,0718_eid_s08_8-3-10_airplane_10_n02690373_2730.JPEG
subject-08,1,719,0.78157114982605,boat,airplane,128-10-10,0719_eid_s08_128-10-10_airplane_10_n02690373_7107.JPEG
subject-08,1,720,1.22777104377747,elephant,elephant,16-3-10,0720_eid_s08_16-3-10_elephant_10_n02504458_8477.JPEG
subject-08,1,721,1.06661701202393,boat,boat,4-10-10,0721_eid_s08_4-10-10_boat_10_n02951358_8150.JPEG
subject-08,1,722,0.958229064941406,bird,chair,32-10-10,0722_eid_s08_32-10-10_chair_10_n02791124_7560.JPEG
subject-08,1,723,0.812891960144043,elephant,elephant,1-0-10,0723_eid_s08_1-0-10_elephant_10_n02504013_677.JPEG
subject-08,1,724,0.691488981246948,bear,knife,32-10-10,0724_eid_s08_32-10-10_knife_10_n03041632_21818.JPEG
subject-08,1,725,0.845920085906982,car,car,1-3-10,0725_eid_s08_1-3-10_car_10_n02814533_11078.JPEG
subject-08,1,726,1.03866815567017,bear,oven,128-10-10,0726_eid_s08_128-10-10_oven_10_n04111531_19104.JPEG
subject-08,1,727,0.922595977783203,dog,cat,8-10-10,0727_eid_s08_8-10-10_cat_10_n02125311_1375.JPEG
subject-08,1,728,0.875999212265015,bear,bear,2-0-10,0728_eid_s08_2-0-10_bear_10_n02133161_4903.JPEG
subject-08,1,729,0.838364124298096,chair,chair,4-10-10,0729_eid_s08_4-10-10_chair_10_n04099969_6691.JPEG
subject-08,1,730,0.716826915740967,cat,knife,16-0-10,0730_eid_s08_16-0-10_knife_10_n03041632_3247.JPEG
subject-08,1,731,0.659462928771973,clock,clock,8-3-10,0731_eid_s08_8-3-10_clock_10_n04548280_5629.JPEG
subject-08,1,732,0.606191873550415,bird,bird,8-3-10,0732_eid_s08_8-3-10_bird_10_n01530575_5845.JPEG
subject-08,1,733,0.782156944274902,bird,boat,128-10-10,0733_eid_s08_128-10-10_boat_10_n03344393_9806.JPEG
subject-08,1,734,0.990531921386719,keyboard,dog,128-0-10,0734_eid_s08_128-0-10_dog_10_n02111129_8195.JPEG
subject-08,1,735,0.815480947494507,elephant,elephant,2-0-10,0735_eid_s08_2-0-10_elephant_10_n02504458_3160.JPEG
subject-08,1,736,0.799820899963379,bird,car,8-0-10,0736_eid_s08_8-0-10_car_10_n04285008_14213.JPEG
subject-08,1,737,1.39947199821472,cat,cat,1-10-10,0737_eid_s08_1-10-10_cat_10_n02125311_41981.JPEG
subject-08,1,738,0.691773176193237,elephant,elephant,2-0-10,0738_eid_s08_2-0-10_elephant_10_n02504458_1439.JPEG
subject-08,1,739,1.05388712882996,knife,bird,128-0-10,0739_eid_s08_128-0-10_bird_10_n02002724_1625.JPEG
subject-08,1,740,0.930414915084839,boat,bird,16-3-10,0740_eid_s08_16-3-10_bird_10_n01855672_14910.JPEG
subject-08,1,741,1.12485408782959,chair,oven,128-10-10,0741_eid_s08_128-10-10_oven_10_n04111531_8421.JPEG
subject-08,1,742,0.909265995025635,bicycle,elephant,64-10-10,0742_eid_s08_64-10-10_elephant_10_n02504458_611.JPEG
subject-08,1,743,0.801921844482422,truck,truck,2-0-10,0743_eid_s08_2-0-10_truck_10_n03417042_8953.JPEG
subject-08,1,744,0.972067832946777,cat,bird,64-10-10,0744_eid_s08_64-10-10_bird_10_n01560419_10015.JPEG
subject-08,1,745,0.823818206787109,airplane,bear,128-10-10,0745_eid_s08_128-10-10_bear_10_n02133161_1105.JPEG
subject-08,1,746,0.680602073669434,car,keyboard,64-0-10,0746_eid_s08_64-0-10_keyboard_10_n04505470_4902.JPEG
subject-08,1,747,0.865401983261108,bear,bird,64-0-10,0747_eid_s08_64-0-10_bird_10_n01860187_1406.JPEG
subject-08,1,748,0.657642126083374,cat,cat,2-3-10,0748_eid_s08_2-3-10_cat_10_n02123159_1266.JPEG
subject-08,1,749,0.990402936935425,truck,car,2-0-10,0749_eid_s08_2-0-10_car_10_n03100240_21243.JPEG
subject-08,1,750,1.42862296104431,elephant,bear,16-10-10,0750_eid_s08_16-10-10_bear_10_n02132136_9515.JPEG
subject-08,1,751,0.83870792388916,bird,oven,16-0-10,0751_eid_s08_16-0-10_oven_10_n04111531_10884.JPEG
subject-08,1,752,0.715994119644165,oven,cat,128-0-10,0752_eid_s08_128-0-10_cat_10_n02124075_9589.JPEG
subject-08,1,753,1.09239411354065,boat,boat,32-10-10,0753_eid_s08_32-10-10_boat_10_n03344393_3423.JPEG
subject-08,1,754,0.846581935882568,oven,oven,2-3-10,0754_eid_s08_2-3-10_oven_10_n04111531_2758.JPEG
subject-08,1,755,0.930896043777466,bicycle,bicycle,32-0-10,0755_eid_s08_32-0-10_bicycle_10_n02835271_19865.JPEG
subject-08,1,756,0.963421106338501,boat,airplane,64-10-10,0756_eid_s08_64-10-10_airplane_10_n02690373_6798.JPEG
subject-08,1,757,1.13971304893494,chair,truck,128-3-10,0757_eid_s08_128-3-10_truck_10_n04467665_8655.JPEG
subject-08,1,758,1.50023698806763,bicycle,bicycle,8-3-10,0758_eid_s08_8-3-10_bicycle_10_n03792782_33881.JPEG
subject-08,1,759,0.761343002319336,airplane,truck,4-3-10,0759_eid_s08_4-3-10_truck_10_n03417042_5503.JPEG
subject-08,1,760,0.715845108032227,car,dog,64-10-10,0760_eid_s08_64-10-10_dog_10_n02086910_11707.JPEG
subject-08,1,761,0.940707921981812,bottle,bottle,4-3-10,0761_eid_s08_4-3-10_bottle_10_n03937543_3298.JPEG
subject-08,1,762,0.911018133163452,keyboard,keyboard,1-0-10,0762_eid_s08_1-0-10_keyboard_10_n03085013_21641.JPEG
subject-08,1,763,0.963490009307861,airplane,bottle,16-10-10,0763_eid_s08_16-10-10_bottle_10_n03937543_5745.JPEG
subject-08,1,764,1.40992307662964,oven,chair,1-3-10,0764_eid_s08_1-3-10_chair_10_n04429376_11106.JPEG
subject-08,1,765,1.18863081932068,car,truck,8-3-10,0765_eid_s08_8-3-10_truck_10_n03417042_7371.JPEG
subject-08,1,766,0.76685094833374,bicycle,bicycle,2-10-10,0766_eid_s08_2-10-10_bicycle_10_n02835271_5354.JPEG
subject-08,1,767,1.02190399169922,cat,dog,16-0-10,0767_eid_s08_16-0-10_dog_10_n02097130_4234.JPEG
subject-08,1,768,0.681609869003296,boat,knife,128-10-10,0768_eid_s08_128-10-10_knife_10_n03041632_29801.JPEG
subject-08,1,769,1.34554195404053,bird,truck,128-10-10,0769_eid_s08_128-10-10_truck_10_n03417042_8996.JPEG
subject-08,1,770,0.675895929336548,boat,boat,4-0-10,0770_eid_s08_4-0-10_boat_10_n04612504_8636.JPEG
subject-08,1,771,0.592378854751587,chair,chair,4-0-10,0771_eid_s08_4-0-10_chair_10_n04099969_14819.JPEG
subject-08,1,772,0.533252954483032,cat,dog,16-3-10,0772_eid_s08_16-3-10_dog_10_n02100236_10166.JPEG
subject-08,1,773,0.709325075149536,airplane,elephant,16-0-10,0773_eid_s08_16-0-10_elephant_10_n02504013_6693.JPEG
subject-08,1,774,0.688055038452148,boat,knife,64-0-10,0774_eid_s08_64-0-10_knife_10_n03041632_41493.JPEG
subject-08,1,775,1.35844397544861,bird,bird,8-10-10,0775_eid_s08_8-10-10_bird_10_n01828970_2520.JPEG
subject-08,1,776,0.712841987609863,bear,bear,2-10-10,0776_eid_s08_2-10-10_bear_10_n02133161_11735.JPEG
subject-08,1,777,0.729560136795044,cat,dog,32-3-10,0777_eid_s08_32-3-10_dog_10_n02088466_5673.JPEG
subject-08,1,778,0.837839841842651,dog,dog,1-10-10,0778_eid_s08_1-10-10_dog_10_n02102318_11997.JPEG
subject-08,1,779,0.654744863510132,car,car,2-0-10,0779_eid_s08_2-0-10_car_10_n02814533_15249.JPEG
subject-08,1,780,0.717488050460815,oven,keyboard,128-0-10,0780_eid_s08_128-0-10_keyboard_10_n04505470_1374.JPEG
subject-08,1,781,0.788196086883545,dog,dog,2-0-10,0781_eid_s08_2-0-10_dog_10_n02113978_5720.JPEG
subject-08,1,782,0.549993991851807,clock,clock,4-10-10,0782_eid_s08_4-10-10_clock_10_n02708093_632.JPEG
subject-08,1,783,1.34228110313416,airplane,airplane,2-10-10,0783_eid_s08_2-10-10_airplane_10_n02690373_9662.JPEG
subject-08,1,784,0.842285871505737,boat,truck,8-0-10,0784_eid_s08_8-0-10_truck_10_n04467665_6523.JPEG
subject-08,1,785,0.864614963531494,car,bicycle,32-10-10,0785_eid_s08_32-10-10_bicycle_10_n02835271_10863.JPEG
subject-08,1,786,0.727463960647583,bear,oven,8-3-10,0786_eid_s08_8-3-10_oven_10_n04111531_21208.JPEG
subject-08,1,787,1.013592004776,oven,bottle,1-3-10,0787_eid_s08_1-3-10_bottle_10_n03937543_5377.JPEG
subject-08,1,788,1.06561994552612,chair,bicycle,8-3-10,0788_eid_s08_8-3-10_bicycle_10_n02835271_4667.JPEG
subject-08,1,789,1.17406678199768,keyboard,bicycle,32-3-10,0789_eid_s08_32-3-10_bicycle_10_n02835271_10596.JPEG
subject-08,1,790,0.760390996932983,boat,clock,128-10-10,0790_eid_s08_128-10-10_clock_10_n02708093_3591.JPEG
subject-08,1,791,1.50042200088501,bird,bicycle,32-3-10,0791_eid_s08_32-3-10_bicycle_10_n02835271_4923.JPEG
subject-08,1,792,0.661536931991577,clock,clock,4-3-10,0792_eid_s08_4-3-10_clock_10_n02708093_7122.JPEG
subject-08,1,793,0.852873802185059,car,oven,128-0-10,0793_eid_s08_128-0-10_oven_10_n04111531_6567.JPEG
subject-08,1,794,0.899405002593994,chair,car,128-0-10,0794_eid_s08_128-0-10_car_10_n04285008_8818.JPEG
subject-08,1,795,0.792191982269287,truck,truck,2-0-10,0795_eid_s08_2-0-10_truck_10_n03796401_10303.JPEG
subject-08,1,796,1.27045202255249,car,car,4-10-10,0796_eid_s08_4-10-10_car_10_n04285008_11784.JPEG
subject-08,1,797,1.16307997703552,boat,boat,1-3-10,0797_eid_s08_1-3-10_boat_10_n02951358_19768.JPEG
subject-08,1,798,1.00347113609314,bicycle,clock,128-0-10,0798_eid_s08_128-0-10_clock_10_n04548280_6046.JPEG
subject-08,1,799,0.825950860977173,bicycle,bicycle,8-10-10,0799_eid_s08_8-10-10_bicycle_10_n03792782_19083.JPEG
subject-08,1,800,1.30185604095459,dog,elephant,64-3-10,0800_eid_s08_64-3-10_elephant_10_n02504458_13409.JPEG
subject-08,1,801,0.926584005355835,bird,oven,8-3-10,0801_eid_s08_8-3-10_oven_10_n04111531_16463.JPEG
subject-08,1,802,1.08011603355408,keyboard,keyboard,4-10-10,0802_eid_s08_4-10-10_keyboard_10_n04505470_6684.JPEG
subject-08,1,803,0.780889987945557,boat,chair,128-0-10,0803_eid_s08_128-0-10_chair_10_n04429376_38735.JPEG
subject-08,1,804,0.735520124435425,cat,cat,8-10-10,0804_eid_s08_8-10-10_cat_10_n02124075_9512.JPEG
subject-08,1,805,0.783987045288086,bird,boat,8-0-10,0805_eid_s08_8-0-10_boat_10_n04273569_16839.JPEG
subject-08,1,806,0.838547945022583,car,bottle,128-3-10,0806_eid_s08_128-3-10_bottle_10_n04591713_6501.JPEG
subject-08,1,807,0.676780939102173,oven,oven,2-10-10,0807_eid_s08_2-10-10_oven_10_n04111531_12830.JPEG
subject-08,1,808,0.799192190170288,bottle,bottle,1-3-10,0808_eid_s08_1-3-10_bottle_10_n04591713_2427.JPEG
subject-08,1,809,0.862101078033447,cat,cat,64-0-10,0809_eid_s08_64-0-10_cat_10_n02123394_6349.JPEG
subject-08,1,810,1.00234794616699,bottle,bottle,1-10-10,0810_eid_s08_1-10-10_bottle_10_n04560804_8841.JPEG
subject-08,1,811,0.889225006103516,bicycle,bicycle,1-10-10,0811_eid_s08_1-10-10_bicycle_10_n02835271_23173.JPEG
subject-08,1,812,0.79720401763916,boat,boat,8-3-10,0812_eid_s08_8-3-10_boat_10_n02951358_1212.JPEG
subject-08,1,813,1.3435230255127,dog,bear,4-0-10,0813_eid_s08_4-0-10_bear_10_n02133161_4921.JPEG
subject-08,1,814,0.757229804992676,dog,dog,8-10-10,0814_eid_s08_8-10-10_dog_10_n02100877_5954.JPEG
subject-08,1,815,0.727619886398315,cat,bird,8-3-10,0815_eid_s08_8-3-10_bird_10_n02037110_9175.JPEG
subject-08,1,816,0.781604051589966,car,truck,64-3-10,0816_eid_s08_64-3-10_truck_10_n03417042_303.JPEG
subject-08,1,817,1.15779685974121,keyboard,boat,64-10-10,0817_eid_s08_64-10-10_boat_10_n02951358_12748.JPEG
subject-08,1,818,1.15252614021301,airplane,chair,16-3-10,0818_eid_s08_16-3-10_chair_10_n04099969_13096.JPEG
subject-08,1,819,0.837090015411377,dog,dog,8-3-10,0819_eid_s08_8-3-10_dog_10_n02091635_617.JPEG
subject-08,1,820,1.36662220954895,boat,airplane,128-3-10,0820_eid_s08_128-3-10_airplane_10_n02690373_5342.JPEG
subject-08,1,821,0.990700960159302,cat,bear,8-3-10,0821_eid_s08_8-3-10_bear_10_n02132136_9105.JPEG
subject-08,1,822,0.720888137817383,oven,chair,128-3-10,0822_eid_s08_128-3-10_chair_10_n02791124_1996.JPEG
subject-08,1,823,1.39162802696228,dog,bottle,64-10-10,0823_eid_s08_64-10-10_bottle_10_n02823428_1078.JPEG
subject-08,1,824,0.791238069534302,boat,knife,32-0-10,0824_eid_s08_32-0-10_knife_10_n03041632_4714.JPEG
subject-08,1,825,0.829832792282104,car,boat,32-10-10,0825_eid_s08_32-10-10_boat_10_n02951358_31772.JPEG
subject-08,1,826,0.80778694152832,oven,keyboard,64-0-10,0826_eid_s08_64-0-10_keyboard_10_n03085013_20877.JPEG
subject-08,1,827,1.19211101531982,bicycle,boat,1-0-10,0827_eid_s08_1-0-10_boat_10_n03344393_5184.JPEG
subject-08,1,828,0.991440057754517,chair,bird,16-0-10,0828_eid_s08_16-0-10_bird_10_n01855672_12837.JPEG
subject-08,1,829,0.638152837753296,bottle,bottle,2-3-10,0829_eid_s08_2-3-10_bottle_10_n04579145_164.JPEG
subject-08,1,830,0.900725126266479,keyboard,keyboard,8-10-10,0830_eid_s08_8-10-10_keyboard_10_n04505470_7946.JPEG
subject-08,1,831,1.27621006965637,elephant,elephant,8-3-10,0831_eid_s08_8-3-10_elephant_10_n02504013_1005.JPEG
subject-08,1,832,0.877119064331055,cat,bird,16-0-10,0832_eid_s08_16-0-10_bird_10_n01592084_7562.JPEG
subject-08,1,833,0.846174001693726,bear,oven,8-0-10,0833_eid_s08_8-0-10_oven_10_n04111531_18949.JPEG
subject-08,1,834,0.546778917312622,boat,bottle,4-0-10,0834_eid_s08_4-0-10_bottle_10_n04557648_1727.JPEG
subject-08,1,835,1.02996206283569,boat,boat,2-10-10,0835_eid_s08_2-10-10_boat_10_n03662601_22889.JPEG
subject-08,1,836,0.798256158828735,knife,knife,1-10-10,0836_eid_s08_1-10-10_knife_10_n03041632_43289.JPEG
subject-08,1,837,1.16900205612183,bird,airplane,16-10-10,0837_eid_s08_16-10-10_airplane_10_n02690373_9759.JPEG
subject-08,1,838,1.29239010810852,boat,truck,8-3-10,0838_eid_s08_8-3-10_truck_10_n04467665_24996.JPEG
subject-08,1,839,0.777192115783691,bicycle,bird,128-3-10,0839_eid_s08_128-3-10_bird_10_n01820546_4693.JPEG
subject-08,1,840,0.969000101089478,car,car,8-0-10,0840_eid_s08_8-0-10_car_10_n02814533_43990.JPEG
subject-08,1,841,0.739201068878174,bear,bird,32-10-10,0841_eid_s08_32-10-10_bird_10_n01531178_30089.JPEG
subject-08,1,842,0.863857984542847,elephant,elephant,2-10-10,0842_eid_s08_2-10-10_elephant_10_n02504458_3059.JPEG
subject-08,1,843,0.626063823699951,keyboard,keyboard,16-10-10,0843_eid_s08_16-10-10_keyboard_10_n04505470_2597.JPEG
subject-08,1,844,0.894372940063477,airplane,airplane,1-0-10,0844_eid_s08_1-0-10_airplane_10_n02690373_8123.JPEG
subject-08,1,845,0.827227830886841,bottle,bottle,2-0-10,0845_eid_s08_2-0-10_bottle_10_n04591713_7121.JPEG
subject-08,1,846,0.864663124084473,car,bird,32-0-10,0846_eid_s08_32-0-10_bird_10_n01537544_16631.JPEG
subject-08,1,847,0.911164999008179,car,car,2-3-10,0847_eid_s08_2-3-10_car_10_n02814533_11051.JPEG
subject-08,1,848,0.687037944793701,car,truck,8-10-10,0848_eid_s08_8-10-10_truck_10_n03417042_18099.JPEG
subject-08,1,849,0.749397039413452,bicycle,bicycle,1-0-10,0849_eid_s08_1-0-10_bicycle_10_n02835271_5430.JPEG
subject-08,1,850,0.635843992233276,car,car,8-10-10,0850_eid_s08_8-10-10_car_10_n02814533_18068.JPEG
subject-08,1,851,0.920104026794434,car,truck,4-3-10,0851_eid_s08_4-3-10_truck_10_n03417042_22866.JPEG
subject-08,1,852,0.690423965454102,bicycle,bicycle,2-3-10,0852_eid_s08_2-3-10_bicycle_10_n02835271_2104.JPEG
subject-08,1,853,0.9827721118927,bear,elephant,4-3-10,0853_eid_s08_4-3-10_elephant_10_n02504458_2577.JPEG
subject-08,1,854,0.675359964370728,cat,cat,8-0-10,0854_eid_s08_8-0-10_cat_10_n02123394_1756.JPEG
subject-08,1,855,1.33794617652893,airplane,airplane,2-10-10,0855_eid_s08_2-10-10_airplane_10_n02690373_19733.JPEG
subject-08,1,856,0.800519943237305,bottle,bottle,4-3-10,0856_eid_s08_4-3-10_bottle_10_n02823428_12424.JPEG
subject-08,1,857,1.22529911994934,airplane,chair,128-10-10,0857_eid_s08_128-10-10_chair_10_n04429376_10958.JPEG
subject-08,1,858,0.710213899612427,boat,keyboard,16-3-10,0858_eid_s08_16-3-10_keyboard_10_n03085013_18897.JPEG
subject-08,1,859,0.642163038253784,oven,dog,32-0-10,0859_eid_s08_32-0-10_dog_10_n02091831_151.JPEG
subject-08,1,860,0.596249103546143,car,bicycle,64-0-10,0860_eid_s08_64-0-10_bicycle_10_n02835271_24241.JPEG
subject-08,1,861,0.764437913894653,bear,bear,4-0-10,0861_eid_s08_4-0-10_bear_10_n02133161_7234.JPEG
subject-08,1,862,0.726470947265625,clock,clock,16-3-10,0862_eid_s08_16-3-10_clock_10_n04548280_7211.JPEG
subject-08,1,863,0.981127023696899,elephant,elephant,4-0-10,0863_eid_s08_4-0-10_elephant_10_n02504458_908.JPEG
subject-08,1,864,1.2275071144104,keyboard,car,64-3-10,0864_eid_s08_64-3-10_car_10_n03100240_9569.JPEG
subject-08,1,865,1.32817697525024,dog,dog,1-0-10,0865_eid_s08_1-0-10_dog_10_n02092339_1830.JPEG
subject-08,1,866,1.08439302444458,cat,bottle,8-3-10,0866_eid_s08_8-3-10_bottle_10_n04560804_2256.JPEG
subject-08,1,867,0.811296939849854,boat,bottle,128-10-10,0867_eid_s08_128-10-10_bottle_10_n02823428_7157.JPEG
subject-08,1,868,0.811090230941772,chair,knife,64-0-10,0868_eid_s08_64-0-10_knife_10_n03041632_19971.JPEG
subject-08,1,869,0.772680997848511,knife,bottle,64-3-10,0869_eid_s08_64-3-10_bottle_10_n04591713_7007.JPEG
subject-08,1,870,1.22738409042358,truck,truck,16-10-10,0870_eid_s08_16-10-10_truck_10_n03417042_7728.JPEG
subject-08,1,871,0.920060873031616,boat,truck,64-10-10,0871_eid_s08_64-10-10_truck_10_n03417042_25992.JPEG
subject-08,1,872,1.0363450050354,clock,clock,32-10-10,0872_eid_s08_32-10-10_clock_10_n03196217_4879.JPEG
subject-08,1,873,1.10666489601135,cat,boat,16-3-10,0873_eid_s08_16-3-10_boat_10_n02951358_30200.JPEG
subject-08,1,874,0.939202785491943,bear,bear,4-10-10,0874_eid_s08_4-10-10_bear_10_n02133161_1948.JPEG
subject-08,1,875,0.861092090606689,cat,dog,16-3-10,0875_eid_s08_16-3-10_dog_10_n02112350_5795.JPEG
subject-08,1,876,1.36120009422302,knife,oven,2-10-10,0876_eid_s08_2-10-10_oven_10_n04111531_1818.JPEG
subject-08,1,877,1.00168704986572,bird,dog,32-10-10,0877_eid_s08_32-10-10_dog_10_n02101006_1843.JPEG
subject-08,1,878,1.08616495132446,dog,knife,64-3-10,0878_eid_s08_64-3-10_knife_10_n03041632_11797.JPEG
subject-08,1,879,0.810994148254395,cat,dog,64-3-10,0879_eid_s08_64-3-10_dog_10_n02097298_14633.JPEG
subject-08,1,880,0.773516178131104,dog,dog,2-3-10,0880_eid_s08_2-3-10_dog_10_n02105056_14349.JPEG
subject-08,1,881,0.751891136169434,keyboard,elephant,8-0-10,0881_eid_s08_8-0-10_elephant_10_n02504458_4083.JPEG
subject-08,1,882,0.698495149612427,oven,truck,128-10-10,0882_eid_s08_128-10-10_truck_10_n03417042_1051.JPEG
subject-08,1,883,1.15306997299194,truck,truck,4-3-10,0883_eid_s08_4-3-10_truck_10_n03417042_10229.JPEG
subject-08,1,884,0.728495836257935,boat,truck,64-10-10,0884_eid_s08_64-10-10_truck_10_n03796401_13646.JPEG
subject-08,1,885,0.931015014648438,airplane,knife,1-0-10,0885_eid_s08_1-0-10_knife_10_n03041632_5102.JPEG
subject-08,1,886,0.999693870544434,chair,oven,64-10-10,0886_eid_s08_64-10-10_oven_10_n04111531_8373.JPEG
subject-08,1,887,0.694449901580811,oven,car,32-0-10,0887_eid_s08_32-0-10_car_10_n03100240_17331.JPEG
subject-08,1,888,0.664982795715332,clock,elephant,64-0-10,0888_eid_s08_64-0-10_elephant_10_n02504458_1726.JPEG
subject-08,1,889,0.57374095916748,keyboard,keyboard,1-0-10,0889_eid_s08_1-0-10_keyboard_10_n04505470_6884.JPEG
subject-08,1,890,0.690150022506714,airplane,airplane,1-3-10,0890_eid_s08_1-3-10_airplane_10_n02690373_3150.JPEG
subject-08,1,891,1.4969539642334,knife,bottle,1-10-10,0891_eid_s08_1-10-10_bottle_10_n02823428_4616.JPEG
subject-08,1,892,0.653591871261597,boat,boat,1-3-10,0892_eid_s08_1-3-10_boat_10_n03662601_18579.JPEG
subject-08,1,893,0.808289051055908,bottle,bottle,2-0-10,0893_eid_s08_2-0-10_bottle_10_n03937543_9323.JPEG
subject-08,1,894,0.832567930221558,oven,dog,128-3-10,0894_eid_s08_128-3-10_dog_10_n02088364_13630.JPEG
subject-08,1,895,0.671035051345825,clock,chair,128-0-10,0895_eid_s08_128-0-10_chair_10_n04099969_19484.JPEG
subject-08,1,896,0.77159309387207,truck,truck,4-10-10,0896_eid_s08_4-10-10_truck_10_n04467665_57697.JPEG
subject-08,1,897,1.28778290748596,bear,keyboard,32-3-10,0897_eid_s08_32-3-10_keyboard_10_n04505470_4576.JPEG
subject-08,1,898,0.704452037811279,cat,keyboard,8-0-10,0898_eid_s08_8-0-10_keyboard_10_n03085013_18851.JPEG
subject-08,1,899,0.959128856658936,airplane,truck,128-10-10,0899_eid_s08_128-10-10_truck_10_n03417042_9480.JPEG
subject-08,1,900,0.667373895645142,keyboard,keyboard,1-10-10,0900_eid_s08_1-10-10_keyboard_10_n03085013_22996.JPEG
subject-08,1,901,0.905986070632935,chair,oven,16-3-10,0901_eid_s08_16-3-10_oven_10_n04111531_13795.JPEG
subject-08,1,902,0.651490926742554,clock,clock,2-3-10,0902_eid_s08_2-3-10_clock_10_n04548280_8386.JPEG
subject-08,1,903,0.859889030456543,car,boat,32-10-10,0903_eid_s08_32-10-10_boat_10_n02951358_13411.JPEG
subject-08,1,904,0.630393981933594,boat,car,32-10-10,0904_eid_s08_32-10-10_car_10_n04285008_15119.JPEG
subject-08,1,905,0.709134101867676,chair,oven,16-10-10,0905_eid_s08_16-10-10_oven_10_n04111531_20099.JPEG
subject-08,1,906,0.917498826980591,cat,dog,16-3-10,0906_eid_s08_16-3-10_dog_10_n02113023_3595.JPEG
subject-08,1,907,0.871944904327393,bird,chair,16-3-10,0907_eid_s08_16-3-10_chair_10_n04429376_10453.JPEG
subject-08,1,908,1.50024795532227,oven,chair,64-10-10,0908_eid_s08_64-10-10_chair_10_n04099969_50730.JPEG
subject-08,1,909,0.818781852722168,boat,airplane,16-0-10,0909_eid_s08_16-0-10_airplane_10_n02690373_629.JPEG
subject-08,1,910,0.789551973342896,bicycle,bicycle,1-0-10,0910_eid_s08_1-0-10_bicycle_10_n02835271_8601.JPEG
subject-08,1,911,0.87390398979187,elephant,elephant,32-10-10,0911_eid_s08_32-10-10_elephant_10_n02504458_13406.JPEG
subject-08,1,912,0.598946809768677,boat,oven,128-0-10,0912_eid_s08_128-0-10_oven_10_n04111531_11794.JPEG
subject-08,1,913,0.760191917419434,keyboard,elephant,32-0-10,0913_eid_s08_32-0-10_elephant_10_n02504013_4457.JPEG
subject-08,1,914,1.02280306816101,bicycle,boat,16-3-10,0914_eid_s08_16-3-10_boat_10_n03662601_9752.JPEG
subject-08,1,915,1.07414102554321,cat,oven,128-10-10,0915_eid_s08_128-10-10_oven_10_n04111531_6590.JPEG
subject-08,1,916,0.670128107070923,airplane,bicycle,64-10-10,0916_eid_s08_64-10-10_bicycle_10_n02835271_17453.JPEG
subject-08,1,917,0.624900817871094,keyboard,keyboard,8-3-10,0917_eid_s08_8-3-10_keyboard_10_n03085013_23648.JPEG
subject-08,1,918,1.02747893333435,boat,boat,16-3-10,0918_eid_s08_16-3-10_boat_10_n02951358_31718.JPEG
subject-08,1,919,0.957222938537598,boat,boat,1-0-10,0919_eid_s08_1-0-10_boat_10_n03344393_2392.JPEG
subject-08,1,920,0.665570020675659,airplane,airplane,8-0-10,0920_eid_s08_8-0-10_airplane_10_n02690373_817.JPEG
subject-08,1,921,1.28810286521912,bird,cat,16-0-10,0921_eid_s08_16-0-10_cat_10_n02125311_13696.JPEG
subject-08,1,922,0.720592021942139,oven,bear,8-3-10,0922_eid_s08_8-3-10_bear_10_n02133161_4360.JPEG
subject-08,1,923,0.806995868682861,boat,chair,16-0-10,0923_eid_s08_16-0-10_chair_10_n04429376_3903.JPEG
subject-08,1,924,0.774142980575562,keyboard,clock,32-10-10,0924_eid_s08_32-10-10_clock_10_n04548280_1108.JPEG
subject-08,1,925,0.919919967651367,cat,cat,1-10-10,0925_eid_s08_1-10-10_cat_10_n02123394_926.JPEG
subject-08,1,926,0.641849994659424,clock,clock,8-3-10,0926_eid_s08_8-3-10_clock_10_n02708093_2549.JPEG
subject-08,1,927,0.612432956695557,cat,cat,4-3-10,0927_eid_s08_4-3-10_cat_10_n02125311_8992.JPEG
subject-08,1,928,0.720838785171509,bicycle,bicycle,1-10-10,0928_eid_s08_1-10-10_bicycle_10_n02835271_15216.JPEG
subject-08,1,929,1.25918006896973,bottle,bottle,8-10-10,0929_eid_s08_8-10-10_bottle_10_n02823428_6046.JPEG
subject-08,1,930,1.13538098335266,dog,airplane,128-10-10,0930_eid_s08_128-10-10_airplane_10_n02690373_9471.JPEG
subject-08,1,931,0.967734098434448,chair,chair,2-10-10,0931_eid_s08_2-10-10_chair_10_n03376595_11280.JPEG
subject-08,1,932,1.29215002059937,bicycle,bicycle,4-0-10,0932_eid_s08_4-0-10_bicycle_10_n02835271_22623.JPEG
subject-08,1,933,0.854889154434204,elephant,elephant,1-0-10,0933_eid_s08_1-0-10_elephant_10_n02504458_4002.JPEG
subject-08,1,934,1.26872396469116,cat,cat,1-0-10,0934_eid_s08_1-0-10_cat_10_n02125311_60095.JPEG
subject-08,1,935,0.92336893081665,boat,bicycle,128-3-10,0935_eid_s08_128-3-10_bicycle_10_n03792782_6852.JPEG
subject-08,1,936,0.855731010437012,knife,knife,1-3-10,0936_eid_s08_1-3-10_knife_10_n03041632_4590.JPEG
subject-08,1,937,0.640321016311646,clock,clock,4-0-10,0937_eid_s08_4-0-10_clock_10_n02708093_4783.JPEG
subject-08,1,938,0.732290029525757,car,car,4-10-10,0938_eid_s08_4-10-10_car_10_n02814533_32782.JPEG
subject-08,1,939,0.789024114608765,bear,car,16-3-10,0939_eid_s08_16-3-10_car_10_n03100240_8045.JPEG
subject-08,1,940,0.851522922515869,cat,dog,8-0-10,0940_eid_s08_8-0-10_dog_10_n02109047_23058.JPEG
subject-08,1,941,0.866020917892456,keyboard,bottle,128-0-10,0941_eid_s08_128-0-10_bottle_10_n02823428_7679.JPEG
subject-08,1,942,1.04398107528687,keyboard,dog,64-0-10,0942_eid_s08_64-0-10_dog_10_n02112706_4407.JPEG
subject-08,1,943,0.820642948150635,chair,elephant,128-0-10,0943_eid_s08_128-0-10_elephant_10_n02504458_3823.JPEG
subject-08,1,944,0.744034051895142,boat,keyboard,64-10-10,0944_eid_s08_64-10-10_keyboard_10_n03085013_22942.JPEG
subject-08,1,945,0.590625047683716,clock,bottle,64-10-10,0945_eid_s08_64-10-10_bottle_10_n03937543_3513.JPEG
subject-08,1,946,1.15106391906738,cat,bottle,8-0-10,0946_eid_s08_8-0-10_bottle_10_n04560804_4833.JPEG
subject-08,1,947,0.575767040252686,bear,elephant,64-10-10,0947_eid_s08_64-10-10_elephant_10_n02504013_3798.JPEG
subject-08,1,948,0.859963178634644,car,boat,64-0-10,0948_eid_s08_64-0-10_boat_10_n02951358_2875.JPEG
subject-08,1,949,1.17660999298096,airplane,airplane,2-0-10,0949_eid_s08_2-0-10_airplane_10_n02690373_734.JPEG
subject-08,1,950,1.16074299812317,cat,oven,8-3-10,0950_eid_s08_8-3-10_oven_10_n04111531_9712.JPEG
subject-08,1,951,0.509374141693115,boat,knife,128-3-10,0951_eid_s08_128-3-10_knife_10_n03041632_94202.JPEG
subject-08,1,952,0.814763069152832,car,car,1-10-10,0952_eid_s08_1-10-10_car_10_n04285008_2924.JPEG
subject-08,1,953,1.08497786521912,chair,chair,4-3-10,0953_eid_s08_4-3-10_chair_10_n04099969_2119.JPEG
subject-08,1,954,0.823879957199097,cat,bicycle,16-0-10,0954_eid_s08_16-0-10_bicycle_10_n02835271_7400.JPEG
