subj,session,trial,rt,object_response,category,condition,imagename
subject-03,1,1,0.20225191116333,cat,truck,1-3-10,0001_eid_s03_1-3-10_truck_10_n03417042_7036.JPEG
subject-03,1,2,NaN,na,oven,128-0-10,0002_eid_s03_128-0-10_oven_10_n04111531_1661.JPEG
subject-03,1,3,1.14647483825684,bear,knife,32-0-10,0003_eid_s03_32-0-10_knife_10_n03041632_6575.JPEG
subject-03,1,4,0.684553861618042,boat,car,16-10-10,0004_eid_s03_16-10-10_car_10_n03100240_16646.JPEG
subject-03,1,5,0.94521689414978,cat,bicycle,16-10-10,0005_eid_s03_16-10-10_bicycle_10_n03792782_21735.JPEG
subject-03,1,6,0.581395149230957,boat,truck,16-10-10,0006_eid_s03_16-10-10_truck_10_n04467665_53901.JPEG
subject-03,1,7,0.812397003173828,bird,chair,8-3-10,0007_eid_s03_8-3-10_chair_10_n03376595_17811.JPEG
subject-03,1,8,0.839940071105957,car,car,8-10-10,0008_eid_s03_8-10-10_car_10_n03100240_14239.JPEG
subject-03,1,9,0.924386024475098,clock,elephant,32-0-10,0009_eid_s03_32-0-10_elephant_10_n02504013_1533.JPEG
subject-03,1,10,0.768571138381958,clock,bird,128-3-10,0010_eid_s03_128-3-10_bird_10_n01797886_667.JPEG
subject-03,1,11,0.73728609085083,cat,bottle,16-10-10,0011_eid_s03_16-10-10_bottle_10_n04591713_7872.JPEG
subject-03,1,12,0.69549298286438,car,truck,32-0-10,0012_eid_s03_32-0-10_truck_10_n04467665_69877.JPEG
subject-03,1,13,1.04055118560791,cat,bicycle,32-10-10,0013_eid_s03_32-10-10_bicycle_10_n02835271_8327.JPEG
subject-03,1,14,0.667759895324707,cat,oven,32-10-10,0014_eid_s03_32-10-10_oven_10_n04111531_978.JPEG
subject-03,1,15,0.795919895172119,clock,airplane,64-3-10,0015_eid_s03_64-3-10_airplane_10_n02690373_166.JPEG
subject-03,1,16,0.712255954742432,bear,dog,8-0-10,0016_eid_s03_8-0-10_dog_10_n02104365_6193.JPEG
subject-03,1,17,0.685758113861084,cat,cat,8-10-10,0017_eid_s03_8-10-10_cat_10_n02123159_4157.JPEG
subject-03,1,18,0.888180017471313,bird,bird,4-0-10,0018_eid_s03_4-0-10_bird_10_n01530575_1259.JPEG
subject-03,1,19,1.19230985641479,airplane,boat,32-3-10,0019_eid_s03_32-3-10_boat_10_n04612504_3554.JPEG
subject-03,1,20,0.87583589553833,elephant,elephant,8-0-10,0020_eid_s03_8-0-10_elephant_10_n02504458_8019.JPEG
subject-03,1,21,0.911777973175049,elephant,elephant,1-3-10,0021_eid_s03_1-3-10_elephant_10_n02504458_2862.JPEG
subject-03,1,22,0.709592819213867,boat,airplane,64-3-10,0022_eid_s03_64-3-10_airplane_10_n02690373_4839.JPEG
subject-03,1,23,0.840484142303467,bird,dog,2-0-10,0023_eid_s03_2-0-10_dog_10_n02107574_6083.JPEG
subject-03,1,24,0.755270004272461,bear,knife,32-3-10,0024_eid_s03_32-3-10_knife_10_n03041632_13108.JPEG
subject-03,1,25,0.839597940444946,clock,truck,16-0-10,0025_eid_s03_16-0-10_truck_10_n04467665_18665.JPEG
subject-03,1,26,0.745934963226318,cat,clock,64-3-10,0026_eid_s03_64-3-10_clock_10_n03196217_7744.JPEG
subject-03,1,27,1.03668999671936,bicycle,bicycle,1-10-10,0027_eid_s03_1-10-10_bicycle_10_n03792782_11950.JPEG
subject-03,1,28,0.683687925338745,keyboard,keyboard,1-3-10,0028_eid_s03_1-3-10_keyboard_10_n03085013_19645.JPEG
subject-03,1,29,0.744148969650269,car,car,2-10-10,0029_eid_s03_2-10-10_car_10_n02814533_23098.JPEG
subject-03,1,30,0.979427099227905,bear,bear,128-0-10,0030_eid_s03_128-0-10_bear_10_n02133161_4813.JPEG
subject-03,1,31,0.818114042282104,cat,dog,1-3-10,0031_eid_s03_1-3-10_dog_10_n02111500_4821.JPEG
subject-03,1,32,0.979420185089111,dog,oven,128-3-10,0032_eid_s03_128-3-10_oven_10_n04111531_6863.JPEG
subject-03,1,33,0.793721914291382,car,car,4-0-10,0033_eid_s03_4-0-10_car_10_n03100240_7928.JPEG
subject-03,1,34,0.854506015777588,bird,cat,8-0-10,0034_eid_s03_8-0-10_cat_10_n02123045_16180.JPEG
subject-03,1,35,0.805995941162109,airplane,airplane,1-0-10,0035_eid_s03_1-0-10_airplane_10_n02690373_1696.JPEG
subject-03,1,36,0.566016912460327,car,car,1-3-10,0036_eid_s03_1-3-10_car_10_n02814533_58191.JPEG
subject-03,1,37,0.994726896286011,bear,bear,8-0-10,0037_eid_s03_8-0-10_bear_10_n02133161_1696.JPEG
subject-03,1,38,1.09279894828796,dog,elephant,32-3-10,0038_eid_s03_32-3-10_elephant_10_n02504458_4011.JPEG
subject-03,1,39,0.709886789321899,boat,airplane,4-0-10,0039_eid_s03_4-0-10_airplane_10_n02690373_19407.JPEG
subject-03,1,40,0.946685075759888,boat,airplane,8-0-10,0040_eid_s03_8-0-10_airplane_10_n02690373_8950.JPEG
subject-03,1,41,0.706845045089722,bird,bird,8-10-10,0041_eid_s03_8-10-10_bird_10_n02007558_1292.JPEG
subject-03,1,42,0.699378967285156,boat,car,16-10-10,0042_eid_s03_16-10-10_car_10_n03100240_8591.JPEG
subject-03,1,43,0.537641048431396,clock,clock,8-10-10,0043_eid_s03_8-10-10_clock_10_n03196217_5197.JPEG
subject-03,1,44,1.16623091697693,bear,bear,2-10-10,0044_eid_s03_2-10-10_bear_10_n02132136_2380.JPEG
subject-03,1,45,0.751353025436401,chair,chair,4-10-10,0045_eid_s03_4-10-10_chair_10_n04429376_2450.JPEG
subject-03,1,46,0.635775089263916,truck,truck,2-10-10,0046_eid_s03_2-10-10_truck_10_n03417042_25940.JPEG
subject-03,1,47,0.901829957962036,elephant,elephant,4-3-10,0047_eid_s03_4-3-10_elephant_10_n02504013_3133.JPEG
subject-03,1,48,0.732475996017456,clock,clock,4-3-10,0048_eid_s03_4-3-10_clock_10_n04548280_5270.JPEG
subject-03,1,49,0.94741415977478,car,car,32-10-10,0049_eid_s03_32-10-10_car_10_n02814533_1215.JPEG
subject-03,1,50,0.699803113937378,clock,bottle,32-0-10,0050_eid_s03_32-0-10_bottle_10_n04557648_10108.JPEG
subject-03,1,51,0.622192144393921,clock,airplane,8-0-10,0051_eid_s03_8-0-10_airplane_10_n02690373_7600.JPEG
subject-03,1,52,0.596935987472534,bird,bear,1-10-10,0052_eid_s03_1-10-10_bear_10_n02134418_177.JPEG
subject-03,1,53,0.726258039474487,clock,truck,32-10-10,0053_eid_s03_32-10-10_truck_10_n03417042_3952.JPEG
subject-03,1,54,0.678915023803711,bear,truck,16-0-10,0054_eid_s03_16-0-10_truck_10_n03417042_27231.JPEG
subject-03,1,55,0.61719799041748,oven,dog,128-3-10,0055_eid_s03_128-3-10_dog_10_n02097047_6836.JPEG
subject-03,1,56,0.777939796447754,cat,bottle,8-0-10,0056_eid_s03_8-0-10_bottle_10_n04579145_2944.JPEG
subject-03,1,57,1.37665200233459,bicycle,bird,4-10-10,0057_eid_s03_4-10-10_bird_10_n01537544_3132.JPEG
subject-03,1,58,0.783023834228516,boat,boat,1-3-10,0058_eid_s03_1-3-10_boat_10_n03344393_4019.JPEG
subject-03,1,59,0.829635143280029,airplane,airplane,1-10-10,0059_eid_s03_1-10-10_airplane_10_n02690373_5632.JPEG
subject-03,1,60,0.836538076400757,bear,elephant,32-0-10,0060_eid_s03_32-0-10_elephant_10_n02504013_22557.JPEG
subject-03,1,61,0.821034908294678,car,car,4-3-10,0061_eid_s03_4-3-10_car_10_n04285008_4730.JPEG
subject-03,1,62,0.857491016387939,bird,bird,8-10-10,0062_eid_s03_8-10-10_bird_10_n01531178_12736.JPEG
subject-03,1,63,0.895997047424316,bottle,bottle,8-10-10,0063_eid_s03_8-10-10_bottle_10_n04560804_15657.JPEG
subject-03,1,64,NaN,na,oven,1-3-10,0064_eid_s03_1-3-10_oven_10_n04111531_5038.JPEG
subject-03,1,65,0.835073947906494,truck,truck,4-0-10,0065_eid_s03_4-0-10_truck_10_n04467665_27782.JPEG
subject-03,1,66,0.727154016494751,oven,dog,128-10-10,0066_eid_s03_128-10-10_dog_10_n02086910_16438.JPEG
subject-03,1,67,0.655691862106323,bear,clock,32-0-10,0067_eid_s03_32-0-10_clock_10_n03196217_1550.JPEG
subject-03,1,68,0.862216949462891,knife,keyboard,64-3-10,0068_eid_s03_64-3-10_keyboard_10_n04505470_2235.JPEG
subject-03,1,69,0.692778825759888,bottle,boat,8-3-10,0069_eid_s03_8-3-10_boat_10_n02951358_1992.JPEG
subject-03,1,70,0.753247022628784,chair,oven,2-0-10,0070_eid_s03_2-0-10_oven_10_n04111531_15467.JPEG
subject-03,1,71,1.03630900382996,dog,cat,1-0-10,0071_eid_s03_1-0-10_cat_10_n02123597_222.JPEG
subject-03,1,72,1.02839589118958,bear,bear,1-3-10,0072_eid_s03_1-3-10_bear_10_n02134084_16033.JPEG
subject-03,1,73,0.667168140411377,oven,bottle,32-3-10,0073_eid_s03_32-3-10_bottle_10_n04591713_1837.JPEG
subject-03,1,74,0.679869890213013,car,car,2-0-10,0074_eid_s03_2-0-10_car_10_n04285008_4252.JPEG
subject-03,1,75,0.833981037139893,cat,cat,1-0-10,0075_eid_s03_1-0-10_cat_10_n02124075_12218.JPEG
subject-03,1,76,0.945979833602905,chair,clock,4-0-10,0076_eid_s03_4-0-10_clock_10_n04548280_2383.JPEG
subject-03,1,77,0.844446897506714,oven,bird,32-3-10,0077_eid_s03_32-3-10_bird_10_n02056570_9541.JPEG
subject-03,1,78,0.805369138717651,oven,elephant,128-10-10,0078_eid_s03_128-10-10_elephant_10_n02504458_6514.JPEG
subject-03,1,79,0.843621969223022,chair,knife,1-10-10,0079_eid_s03_1-10-10_knife_10_n03041632_22051.JPEG
subject-03,1,80,0.912183046340942,cat,cat,128-10-10,0080_eid_s03_128-10-10_cat_10_n02123597_32220.JPEG
subject-03,1,81,0.72737979888916,airplane,airplane,2-3-10,0081_eid_s03_2-3-10_airplane_10_n02690373_891.JPEG
subject-03,1,82,1.13377904891968,cat,bird,32-10-10,0082_eid_s03_32-10-10_bird_10_n01855672_7066.JPEG
subject-03,1,83,0.778447151184082,bicycle,bicycle,64-10-10,0083_eid_s03_64-10-10_bicycle_10_n02835271_6032.JPEG
subject-03,1,84,0.578843116760254,cat,chair,64-3-10,0084_eid_s03_64-3-10_chair_10_n04099969_3551.JPEG
subject-03,1,85,0.88571310043335,bird,bicycle,16-0-10,0085_eid_s03_16-0-10_bicycle_10_n03792782_6715.JPEG
subject-03,1,86,0.591946840286255,oven,boat,32-0-10,0086_eid_s03_32-0-10_boat_10_n04273569_971.JPEG
subject-03,1,87,1.00436115264893,dog,dog,2-3-10,0087_eid_s03_2-3-10_dog_10_n02104365_668.JPEG
subject-03,1,88,0.572983980178833,boat,keyboard,128-3-10,0088_eid_s03_128-3-10_keyboard_10_n04505470_4344.JPEG
subject-03,1,89,0.757025957107544,bear,oven,16-0-10,0089_eid_s03_16-0-10_oven_10_n04111531_8144.JPEG
subject-03,1,90,0.732242822647095,cat,bottle,32-10-10,0090_eid_s03_32-10-10_bottle_10_n03983396_3313.JPEG
subject-03,1,91,0.716211795806885,bird,bird,2-10-10,0091_eid_s03_2-10-10_bird_10_n01531178_6200.JPEG
subject-03,1,92,0.614732980728149,clock,cat,128-10-10,0092_eid_s03_128-10-10_cat_10_n02125311_1375.JPEG
subject-03,1,93,0.799856901168823,airplane,bicycle,128-3-10,0093_eid_s03_128-3-10_bicycle_10_n03792782_1173.JPEG
subject-03,1,94,0.652254104614258,cat,cat,128-0-10,0094_eid_s03_128-0-10_cat_10_n02123159_3486.JPEG
subject-03,1,95,0.788616895675659,car,car,1-3-10,0095_eid_s03_1-3-10_car_10_n03100240_23831.JPEG
subject-03,1,96,1.058021068573,chair,chair,2-0-10,0096_eid_s03_2-0-10_chair_10_n02791124_3570.JPEG
subject-03,1,97,0.702239990234375,bear,bear,2-10-10,0097_eid_s03_2-10-10_bear_10_n02134418_654.JPEG
subject-03,1,98,0.740214109420776,bicycle,bicycle,1-10-10,0098_eid_s03_1-10-10_bicycle_10_n03792782_5426.JPEG
subject-03,1,99,0.631124973297119,cat,keyboard,16-3-10,0099_eid_s03_16-3-10_keyboard_10_n03085013_23769.JPEG
subject-03,1,100,0.674947023391724,boat,boat,8-3-10,0100_eid_s03_8-3-10_boat_10_n03662601_20145.JPEG
subject-03,1,101,0.505246877670288,oven,elephant,128-10-10,0101_eid_s03_128-10-10_elephant_10_n02504013_4183.JPEG
subject-03,1,102,0.655838966369629,clock,dog,64-3-10,0102_eid_s03_64-3-10_dog_10_n02093991_3174.JPEG
subject-03,1,103,0.694381952285767,keyboard,bicycle,16-0-10,0103_eid_s03_16-0-10_bicycle_10_n02835271_8453.JPEG
subject-03,1,104,0.746223926544189,boat,bear,8-10-10,0104_eid_s03_8-10-10_bear_10_n02133161_1629.JPEG
subject-03,1,105,1.26701498031616,knife,oven,2-3-10,0105_eid_s03_2-3-10_oven_10_n04111531_8373.JPEG
subject-03,1,106,1.25983500480652,knife,knife,1-3-10,0106_eid_s03_1-3-10_knife_10_n03041632_29886.JPEG
subject-03,1,107,0.874216794967651,bear,elephant,128-10-10,0107_eid_s03_128-10-10_elephant_10_n02504458_10100.JPEG
subject-03,1,108,1.01771903038025,elephant,elephant,8-10-10,0108_eid_s03_8-10-10_elephant_10_n02504013_3017.JPEG
subject-03,1,109,0.833526849746704,truck,truck,4-10-10,0109_eid_s03_4-10-10_truck_10_n03796401_11272.JPEG
subject-03,1,110,0.823199987411499,cat,car,64-10-10,0110_eid_s03_64-10-10_car_10_n04285008_11028.JPEG
subject-03,1,111,0.805586814880371,bear,bear,8-0-10,0111_eid_s03_8-0-10_bear_10_n02133161_2228.JPEG
subject-03,1,112,1.14212799072266,truck,truck,16-10-10,0112_eid_s03_16-10-10_truck_10_n04467665_6477.JPEG
subject-03,1,113,0.918561935424805,bear,bear,1-3-10,0113_eid_s03_1-3-10_bear_10_n02132136_3414.JPEG
subject-03,1,114,0.979376077651978,elephant,car,32-0-10,0114_eid_s03_32-0-10_car_10_n02814533_7066.JPEG
subject-03,1,115,0.747987985610962,cat,cat,64-3-10,0115_eid_s03_64-3-10_cat_10_n02125311_37944.JPEG
subject-03,1,116,0.72960090637207,airplane,airplane,2-10-10,0116_eid_s03_2-10-10_airplane_10_n02690373_8619.JPEG
subject-03,1,117,0.736268043518066,bird,cat,2-3-10,0117_eid_s03_2-3-10_cat_10_n02123159_7432.JPEG
subject-03,1,118,0.68942403793335,bird,dog,64-3-10,0118_eid_s03_64-3-10_dog_10_n02102973_7222.JPEG
subject-03,1,119,0.803712844848633,keyboard,keyboard,8-10-10,0119_eid_s03_8-10-10_keyboard_10_n03085013_24056.JPEG
subject-03,1,120,1.264573097229,bear,bicycle,16-10-10,0120_eid_s03_16-10-10_bicycle_10_n03792782_952.JPEG
subject-03,1,121,0.925326108932495,airplane,airplane,4-0-10,0121_eid_s03_4-0-10_airplane_10_n02690373_8883.JPEG
subject-03,1,122,1.04815196990967,cat,bicycle,16-3-10,0122_eid_s03_16-3-10_bicycle_10_n02835271_634.JPEG
subject-03,1,123,NaN,na,dog,16-3-10,0123_eid_s03_16-3-10_dog_10_n02092002_10765.JPEG
subject-03,1,124,0.931504964828491,bicycle,bicycle,2-10-10,0124_eid_s03_2-10-10_bicycle_10_n03792782_5449.JPEG
subject-03,1,125,0.759979963302612,bird,bird,4-10-10,0125_eid_s03_4-10-10_bird_10_n01616318_1737.JPEG
subject-03,1,126,1.05830597877502,knife,knife,4-10-10,0126_eid_s03_4-10-10_knife_10_n03041632_14293.JPEG
subject-03,1,127,1.50008296966553,dog,dog,1-10-10,0127_eid_s03_1-10-10_dog_10_n02105251_2047.JPEG
subject-03,1,128,0.83356499671936,cat,clock,64-10-10,0128_eid_s03_64-10-10_clock_10_n02708093_3438.JPEG
subject-03,1,129,0.732057809829712,bird,elephant,64-3-10,0129_eid_s03_64-3-10_elephant_10_n02504458_743.JPEG
subject-03,1,130,0.897736072540283,bear,elephant,2-3-10,0130_eid_s03_2-3-10_elephant_10_n02504013_7500.JPEG
subject-03,1,131,0.614880084991455,oven,bottle,128-3-10,0131_eid_s03_128-3-10_bottle_10_n04591713_7155.JPEG
subject-03,1,132,0.955633878707886,bear,bird,128-3-10,0132_eid_s03_128-3-10_bird_10_n02018795_102.JPEG
subject-03,1,133,0.784394025802612,truck,truck,1-3-10,0133_eid_s03_1-3-10_truck_10_n03417042_7204.JPEG
subject-03,1,134,0.728824853897095,cat,cat,32-10-10,0134_eid_s03_32-10-10_cat_10_n02123394_7128.JPEG
subject-03,1,135,0.604956150054932,bottle,bottle,4-3-10,0135_eid_s03_4-3-10_bottle_10_n04591713_6975.JPEG
subject-03,1,136,0.827781915664673,elephant,cat,16-10-10,0136_eid_s03_16-10-10_cat_10_n02123045_11994.JPEG
subject-03,1,137,0.788187026977539,bird,bird,8-0-10,0137_eid_s03_8-0-10_bird_10_n01797886_19075.JPEG
subject-03,1,138,0.992461919784546,cat,cat,4-10-10,0138_eid_s03_4-10-10_cat_10_n02124075_9113.JPEG
subject-03,1,139,0.707726001739502,bird,cat,2-0-10,0139_eid_s03_2-0-10_cat_10_n02123597_8279.JPEG
subject-03,1,140,0.662626028060913,clock,chair,128-3-10,0140_eid_s03_128-3-10_chair_10_n03376595_4748.JPEG
subject-03,1,141,0.612869024276733,clock,car,32-0-10,0141_eid_s03_32-0-10_car_10_n03100240_3855.JPEG
subject-03,1,142,0.580382108688354,bird,boat,8-10-10,0142_eid_s03_8-10-10_boat_10_n02951358_33850.JPEG
subject-03,1,143,0.676810026168823,bear,dog,2-3-10,0143_eid_s03_2-3-10_dog_10_n02102973_5504.JPEG
subject-03,1,144,0.661665916442871,cat,cat,4-3-10,0144_eid_s03_4-3-10_cat_10_n02123159_4148.JPEG
subject-03,1,145,0.814171075820923,bird,bottle,16-10-10,0145_eid_s03_16-10-10_bottle_10_n04579145_6779.JPEG
subject-03,1,146,1.04270696640015,bear,bear,1-3-10,0146_eid_s03_1-3-10_bear_10_n02132136_9840.JPEG
subject-03,1,147,0.873803853988647,knife,knife,1-10-10,0147_eid_s03_1-10-10_knife_10_n03041632_51617.JPEG
subject-03,1,148,0.779918909072876,clock,truck,64-0-10,0148_eid_s03_64-0-10_truck_10_n03417042_12169.JPEG
subject-03,1,149,0.586549997329712,bear,knife,64-3-10,0149_eid_s03_64-3-10_knife_10_n03041632_7380.JPEG
subject-03,1,150,0.622833013534546,boat,boat,2-10-10,0150_eid_s03_2-10-10_boat_10_n04612504_1190.JPEG
subject-03,1,151,0.545315027236938,cat,bird,32-10-10,0151_eid_s03_32-10-10_bird_10_n02002556_16349.JPEG
subject-03,1,152,1.0463240146637,dog,cat,2-0-10,0152_eid_s03_2-0-10_cat_10_n02125311_19213.JPEG
subject-03,1,153,0.654366970062256,boat,cat,32-3-10,0153_eid_s03_32-3-10_cat_10_n02124075_13102.JPEG
subject-03,1,154,0.820280075073242,cat,cat,8-3-10,0154_eid_s03_8-3-10_cat_10_n02123597_7925.JPEG
subject-03,1,155,0.573446035385132,cat,oven,16-0-10,0155_eid_s03_16-0-10_oven_10_n04111531_17004.JPEG
subject-03,1,156,0.75670313835144,clock,clock,64-10-10,0156_eid_s03_64-10-10_clock_10_n03196217_11199.JPEG
subject-03,1,157,0.6163010597229,cat,bottle,2-0-10,0157_eid_s03_2-0-10_bottle_10_n04560804_6514.JPEG
subject-03,1,158,0.706779003143311,clock,clock,1-0-10,0158_eid_s03_1-0-10_clock_10_n04548280_993.JPEG
subject-03,1,159,0.52383279800415,boat,bird,64-3-10,0159_eid_s03_64-3-10_bird_10_n02025239_12062.JPEG
subject-03,1,160,0.614261865615845,clock,boat,64-10-10,0160_eid_s03_64-10-10_boat_10_n03662601_27589.JPEG
subject-03,1,161,0.766690969467163,bear,truck,16-0-10,0161_eid_s03_16-0-10_truck_10_n03796401_12730.JPEG
subject-03,1,162,0.717314958572388,clock,bear,8-0-10,0162_eid_s03_8-0-10_bear_10_n02134084_1484.JPEG
subject-03,1,163,0.920269966125488,bird,bird,8-10-10,0163_eid_s03_8-10-10_bird_10_n01601694_20010.JPEG
subject-03,1,164,0.973519086837769,dog,dog,2-10-10,0164_eid_s03_2-10-10_dog_10_n02110958_6697.JPEG
subject-03,1,165,0.773566961288452,cat,cat,2-3-10,0165_eid_s03_2-3-10_cat_10_n02123159_698.JPEG
subject-03,1,166,0.986785888671875,cat,elephant,16-3-10,0166_eid_s03_16-3-10_elephant_10_n02504013_3650.JPEG
subject-03,1,167,0.808989763259888,cat,knife,32-10-10,0167_eid_s03_32-10-10_knife_10_n03041632_32459.JPEG
subject-03,1,168,0.891267061233521,clock,cat,16-3-10,0168_eid_s03_16-3-10_cat_10_n02123597_10419.JPEG
subject-03,1,169,0.722031116485596,oven,elephant,32-10-10,0169_eid_s03_32-10-10_elephant_10_n02504013_4295.JPEG
subject-03,1,170,0.742642879486084,knife,knife,4-3-10,0170_eid_s03_4-3-10_knife_10_n03041632_51581.JPEG
subject-03,1,171,0.649121999740601,car,car,4-3-10,0171_eid_s03_4-3-10_car_10_n03100240_7198.JPEG
subject-03,1,172,0.717597961425781,clock,car,128-10-10,0172_eid_s03_128-10-10_car_10_n04285008_16604.JPEG
subject-03,1,173,0.700074911117554,cat,cat,4-10-10,0173_eid_s03_4-10-10_cat_10_n02123045_7500.JPEG
subject-03,1,174,0.73497200012207,boat,truck,16-3-10,0174_eid_s03_16-3-10_truck_10_n03417042_20489.JPEG
subject-03,1,175,0.587613105773926,clock,clock,4-3-10,0175_eid_s03_4-3-10_clock_10_n03196217_4849.JPEG
subject-03,1,176,0.656691074371338,clock,oven,128-3-10,0176_eid_s03_128-3-10_oven_10_n04111531_6533.JPEG
subject-03,1,177,1.01465487480164,oven,bottle,2-10-10,0177_eid_s03_2-10-10_bottle_10_n02823428_5884.JPEG
subject-03,1,178,0.866820096969604,oven,oven,8-10-10,0178_eid_s03_8-10-10_oven_10_n04111531_20099.JPEG
subject-03,1,179,0.789899110794067,oven,bird,128-0-10,0179_eid_s03_128-0-10_bird_10_n01819313_7174.JPEG
subject-03,1,180,0.642232894897461,clock,knife,64-3-10,0180_eid_s03_64-3-10_knife_10_n03041632_46914.JPEG
subject-03,1,181,0.702952146530151,bicycle,chair,128-3-10,0181_eid_s03_128-3-10_chair_10_n02791124_3081.JPEG
subject-03,1,182,0.747281789779663,bear,bear,64-0-10,0182_eid_s03_64-0-10_bear_10_n02134084_6869.JPEG
subject-03,1,183,0.816386938095093,boat,airplane,8-0-10,0183_eid_s03_8-0-10_airplane_10_n02690373_1310.JPEG
subject-03,1,184,0.652774810791016,airplane,keyboard,128-0-10,0184_eid_s03_128-0-10_keyboard_10_n04505470_5055.JPEG
subject-03,1,185,0.651134014129639,oven,bottle,16-3-10,0185_eid_s03_16-3-10_bottle_10_n02823428_8849.JPEG
subject-03,1,186,0.657501935958862,cat,bottle,4-0-10,0186_eid_s03_4-0-10_bottle_10_n04557648_12301.JPEG
subject-03,1,187,1.14024901390076,car,car,2-3-10,0187_eid_s03_2-3-10_car_10_n04285008_3204.JPEG
subject-03,1,188,0.701022863388062,boat,car,32-0-10,0188_eid_s03_32-0-10_car_10_n03100240_14746.JPEG
subject-03,1,189,0.937524080276489,elephant,clock,16-0-10,0189_eid_s03_16-0-10_clock_10_n03196217_4666.JPEG
subject-03,1,190,1.22787499427795,elephant,bear,4-10-10,0190_eid_s03_4-10-10_bear_10_n02133161_14653.JPEG
subject-03,1,191,0.942512035369873,car,car,4-3-10,0191_eid_s03_4-3-10_car_10_n03100240_7611.JPEG
subject-03,1,192,0.881149053573608,bear,elephant,64-0-10,0192_eid_s03_64-0-10_elephant_10_n02504458_1137.JPEG
subject-03,1,193,0.739229917526245,bicycle,bottle,128-0-10,0193_eid_s03_128-0-10_bottle_10_n04579145_2307.JPEG
subject-03,1,194,1.01196384429932,dog,dog,4-3-10,0194_eid_s03_4-3-10_dog_10_n02099267_19976.JPEG
subject-03,1,195,1.21634602546692,dog,dog,2-3-10,0195_eid_s03_2-3-10_dog_10_n02111277_16090.JPEG
subject-03,1,196,0.809156894683838,cat,knife,32-10-10,0196_eid_s03_32-10-10_knife_10_n03041632_22738.JPEG
subject-03,1,197,0.731592893600464,cat,keyboard,8-0-10,0197_eid_s03_8-0-10_keyboard_10_n03085013_23289.JPEG
subject-03,1,198,0.814311981201172,clock,knife,32-0-10,0198_eid_s03_32-0-10_knife_10_n03041632_22330.JPEG
subject-03,1,199,0.583481073379517,boat,knife,16-0-10,0199_eid_s03_16-0-10_knife_10_n03041632_13612.JPEG
subject-03,1,200,0.668026208877563,car,dog,32-0-10,0200_eid_s03_32-0-10_dog_10_n02094433_1748.JPEG
subject-03,1,201,0.934541940689087,elephant,elephant,2-10-10,0201_eid_s03_2-10-10_elephant_10_n02504458_10515.JPEG
subject-03,1,202,1.06347584724426,bottle,bottle,2-0-10,0202_eid_s03_2-0-10_bottle_10_n04560804_3651.JPEG
subject-03,1,203,0.671705007553101,oven,car,64-10-10,0203_eid_s03_64-10-10_car_10_n02814533_3831.JPEG
subject-03,1,204,0.892199993133545,chair,chair,2-10-10,0204_eid_s03_2-10-10_chair_10_n03376595_10507.JPEG
subject-03,1,205,0.824341058731079,cat,clock,16-0-10,0205_eid_s03_16-0-10_clock_10_n02708093_6718.JPEG
subject-03,1,206,0.65282678604126,keyboard,keyboard,4-3-10,0206_eid_s03_4-3-10_keyboard_10_n03085013_13615.JPEG
subject-03,1,207,0.883255004882812,dog,cat,1-10-10,0207_eid_s03_1-10-10_cat_10_n02123597_7226.JPEG
subject-03,1,208,0.67375111579895,keyboard,chair,128-0-10,0208_eid_s03_128-0-10_chair_10_n04099969_5901.JPEG
subject-03,1,209,0.780773878097534,airplane,airplane,16-10-10,0209_eid_s03_16-10-10_airplane_10_n02690373_3640.JPEG
subject-03,1,210,0.77134895324707,airplane,truck,16-3-10,0210_eid_s03_16-3-10_truck_10_n03796401_27.JPEG
subject-03,1,211,0.648446083068848,cat,elephant,4-3-10,0211_eid_s03_4-3-10_elephant_10_n02504013_1399.JPEG
subject-03,1,212,0.767621040344238,airplane,airplane,4-10-10,0212_eid_s03_4-10-10_airplane_10_n02690373_2342.JPEG
subject-03,1,213,1.19617414474487,bicycle,bear,4-10-10,0213_eid_s03_4-10-10_bear_10_n02133161_676.JPEG
subject-03,1,214,0.824533224105835,bicycle,bicycle,2-10-10,0214_eid_s03_2-10-10_bicycle_10_n03792782_4277.JPEG
subject-03,1,215,0.730633020401001,bicycle,bicycle,4-0-10,0215_eid_s03_4-0-10_bicycle_10_n02835271_3139.JPEG
subject-03,1,216,0.821675062179565,truck,truck,2-3-10,0216_eid_s03_2-3-10_truck_10_n03417042_6815.JPEG
subject-03,1,217,0.698129892349243,cat,truck,128-3-10,0217_eid_s03_128-3-10_truck_10_n03796401_15105.JPEG
subject-03,1,218,0.666600942611694,keyboard,keyboard,2-10-10,0218_eid_s03_2-10-10_keyboard_10_n04505470_26.JPEG
subject-03,1,219,1.04123306274414,knife,knife,4-0-10,0219_eid_s03_4-0-10_knife_10_n03041632_96714.JPEG
subject-03,1,220,0.847776889801025,bear,truck,128-3-10,0220_eid_s03_128-3-10_truck_10_n04467665_80493.JPEG
subject-03,1,221,0.668209075927734,car,keyboard,128-3-10,0221_eid_s03_128-3-10_keyboard_10_n03085013_13005.JPEG
subject-03,1,222,0.844408988952637,bicycle,elephant,64-0-10,0222_eid_s03_64-0-10_elephant_10_n02504013_9358.JPEG
subject-03,1,223,0.521410942077637,oven,bicycle,64-3-10,0223_eid_s03_64-3-10_bicycle_10_n03792782_13083.JPEG
subject-03,1,224,0.796162128448486,chair,chair,2-10-10,0224_eid_s03_2-10-10_chair_10_n02791124_14.JPEG
subject-03,1,225,0.610430002212524,airplane,truck,64-0-10,0225_eid_s03_64-0-10_truck_10_n03417042_5136.JPEG
subject-03,1,226,0.815039157867432,truck,truck,8-10-10,0226_eid_s03_8-10-10_truck_10_n04467665_54317.JPEG
subject-03,1,227,0.775381088256836,bird,bicycle,4-0-10,0227_eid_s03_4-0-10_bicycle_10_n03792782_6667.JPEG
subject-03,1,228,0.627506017684937,boat,boat,1-10-10,0228_eid_s03_1-10-10_boat_10_n02951358_8041.JPEG
subject-03,1,229,0.680567026138306,cat,dog,4-3-10,0229_eid_s03_4-3-10_dog_10_n02086240_1228.JPEG
subject-03,1,230,0.633193969726562,cat,boat,32-10-10,0230_eid_s03_32-10-10_boat_10_n04612504_85.JPEG
subject-03,1,231,0.577245950698853,oven,truck,64-3-10,0231_eid_s03_64-3-10_truck_10_n03796401_20831.JPEG
subject-03,1,232,0.692188024520874,cat,bicycle,16-10-10,0232_eid_s03_16-10-10_bicycle_10_n02835271_3280.JPEG
subject-03,1,233,0.514931917190552,oven,oven,4-10-10,0233_eid_s03_4-10-10_oven_10_n04111531_4585.JPEG
subject-03,1,234,0.681349992752075,clock,car,16-0-10,0234_eid_s03_16-0-10_car_10_n03100240_5657.JPEG
subject-03,1,235,0.765810012817383,oven,cat,1-3-10,0235_eid_s03_1-3-10_cat_10_n02123045_9170.JPEG
subject-03,1,236,0.586968898773193,cat,clock,16-3-10,0236_eid_s03_16-3-10_clock_10_n02708093_2833.JPEG
subject-03,1,237,0.501574993133545,boat,bird,16-0-10,0237_eid_s03_16-0-10_bird_10_n02018207_11816.JPEG
subject-03,1,238,0.678168058395386,truck,truck,1-0-10,0238_eid_s03_1-0-10_truck_10_n04467665_4899.JPEG
subject-03,1,239,0.839097023010254,cat,bird,2-0-10,0239_eid_s03_2-0-10_bird_10_n01860187_10142.JPEG
subject-03,1,240,0.469632863998413,boat,boat,8-10-10,0240_eid_s03_8-10-10_boat_10_n04612504_30424.JPEG
subject-03,1,241,0.558140993118286,clock,elephant,16-3-10,0241_eid_s03_16-3-10_elephant_10_n02504013_5167.JPEG
subject-03,1,242,1.10283517837524,bird,knife,8-3-10,0242_eid_s03_8-3-10_knife_10_n03041632_37274.JPEG
subject-03,1,243,0.595808029174805,cat,cat,64-3-10,0243_eid_s03_64-3-10_cat_10_n02123045_5189.JPEG
subject-03,1,244,0.754002094268799,chair,chair,2-3-10,0244_eid_s03_2-3-10_chair_10_n03376595_4155.JPEG
subject-03,1,245,0.784538984298706,bird,elephant,16-3-10,0245_eid_s03_16-3-10_elephant_10_n02504013_5752.JPEG
subject-03,1,246,0.86699390411377,airplane,airplane,128-3-10,0246_eid_s03_128-3-10_airplane_10_n02690373_9266.JPEG
subject-03,1,247,0.765351057052612,airplane,airplane,4-3-10,0247_eid_s03_4-3-10_airplane_10_n02690373_4728.JPEG
subject-03,1,248,0.609307050704956,cat,dog,16-3-10,0248_eid_s03_16-3-10_dog_10_n02106166_5990.JPEG
subject-03,1,249,0.553555011749268,oven,car,64-0-10,0249_eid_s03_64-0-10_car_10_n04285008_4029.JPEG
subject-03,1,250,0.636145114898682,keyboard,keyboard,2-0-10,0250_eid_s03_2-0-10_keyboard_10_n04505470_4807.JPEG
subject-03,1,251,NaN,na,bear,1-10-10,0251_eid_s03_1-10-10_bear_10_n02132136_1679.JPEG
subject-03,1,252,1.1931529045105,bottle,chair,2-3-10,0252_eid_s03_2-3-10_chair_10_n03376595_6115.JPEG
subject-03,1,253,0.693753004074097,cat,bird,8-3-10,0253_eid_s03_8-3-10_bird_10_n02006656_10322.JPEG
subject-03,1,254,0.584289073944092,boat,clock,16-3-10,0254_eid_s03_16-3-10_clock_10_n04548280_11056.JPEG
subject-03,1,255,0.674795866012573,keyboard,boat,4-0-10,0255_eid_s03_4-0-10_boat_10_n03662601_2663.JPEG
subject-03,1,256,0.68159008026123,oven,chair,8-3-10,0256_eid_s03_8-3-10_chair_10_n04429376_6029.JPEG
subject-03,1,257,0.755928039550781,truck,truck,1-0-10,0257_eid_s03_1-0-10_truck_10_n04467665_7341.JPEG
subject-03,1,258,0.722445011138916,cat,chair,16-0-10,0258_eid_s03_16-0-10_chair_10_n03376595_1024.JPEG
subject-03,1,259,0.820504903793335,oven,bottle,16-3-10,0259_eid_s03_16-3-10_bottle_10_n04591713_957.JPEG
subject-03,1,260,0.735418081283569,clock,chair,16-10-10,0260_eid_s03_16-10-10_chair_10_n04099969_4323.JPEG
subject-03,1,261,1.10991215705872,knife,knife,2-10-10,0261_eid_s03_2-10-10_knife_10_n03041632_8666.JPEG
subject-03,1,262,0.664765119552612,cat,car,128-3-10,0262_eid_s03_128-3-10_car_10_n02814533_74921.JPEG
subject-03,1,263,0.776738882064819,airplane,airplane,1-3-10,0263_eid_s03_1-3-10_airplane_10_n02690373_5055.JPEG
subject-03,1,264,0.791768074035645,keyboard,keyboard,8-10-10,0264_eid_s03_8-10-10_keyboard_10_n04505470_10697.JPEG
subject-03,1,265,1.03601598739624,knife,knife,4-3-10,0265_eid_s03_4-3-10_knife_10_n03041632_86554.JPEG
subject-03,1,266,0.588608026504517,oven,knife,64-0-10,0266_eid_s03_64-0-10_knife_10_n03041632_19971.JPEG
subject-03,1,267,0.525267124176025,boat,bird,32-0-10,0267_eid_s03_32-0-10_bird_10_n02002724_5736.JPEG
subject-03,1,268,0.899797916412354,car,clock,64-0-10,0268_eid_s03_64-0-10_clock_10_n03196217_109.JPEG
subject-03,1,269,NaN,na,bicycle,64-0-10,0269_eid_s03_64-0-10_bicycle_10_n02835271_19551.JPEG
subject-03,1,270,1.05068111419678,cat,bicycle,64-10-10,0270_eid_s03_64-10-10_bicycle_10_n03792782_1810.JPEG
subject-03,1,271,0.735124111175537,cat,cat,32-0-10,0271_eid_s03_32-0-10_cat_10_n02123394_8311.JPEG
subject-03,1,272,0.533106088638306,clock,chair,64-0-10,0272_eid_s03_64-0-10_chair_10_n03376595_4234.JPEG
subject-03,1,273,1.2673020362854,boat,elephant,32-3-10,0273_eid_s03_32-3-10_elephant_10_n02504458_12705.JPEG
subject-03,1,274,0.88231897354126,airplane,oven,4-3-10,0274_eid_s03_4-3-10_oven_10_n04111531_4809.JPEG
subject-03,1,275,0.897152900695801,car,car,8-0-10,0275_eid_s03_8-0-10_car_10_n03100240_16273.JPEG
subject-03,1,276,1.43397784233093,elephant,bear,4-0-10,0276_eid_s03_4-0-10_bear_10_n02133161_7857.JPEG
subject-03,1,277,0.769921064376831,cat,bird,64-3-10,0277_eid_s03_64-3-10_bird_10_n02056570_7609.JPEG
subject-03,1,278,0.792498826980591,bear,elephant,32-3-10,0278_eid_s03_32-3-10_elephant_10_n02504458_6917.JPEG
subject-03,1,279,0.882879972457886,bottle,bottle,2-10-10,0279_eid_s03_2-10-10_bottle_10_n03983396_17074.JPEG
subject-03,1,280,0.789902925491333,clock,airplane,128-0-10,0280_eid_s03_128-0-10_airplane_10_n02690373_7004.JPEG
subject-03,1,281,0.748764991760254,airplane,oven,64-10-10,0281_eid_s03_64-10-10_oven_10_n04111531_2803.JPEG
subject-03,1,282,1.03336000442505,bicycle,bicycle,128-3-10,0282_eid_s03_128-3-10_bicycle_10_n03792782_18771.JPEG
subject-03,1,283,0.777944087982178,cat,elephant,32-0-10,0283_eid_s03_32-0-10_elephant_10_n02504458_7477.JPEG
subject-03,1,284,1.17650008201599,dog,dog,16-10-10,0284_eid_s03_16-10-10_dog_10_n02107683_1564.JPEG
subject-03,1,285,1.0673680305481,bird,oven,4-3-10,0285_eid_s03_4-3-10_oven_10_n04111531_274.JPEG
subject-03,1,286,0.66585111618042,car,keyboard,32-10-10,0286_eid_s03_32-10-10_keyboard_10_n04505470_2320.JPEG
subject-03,1,287,0.910661935806274,oven,oven,4-3-10,0287_eid_s03_4-3-10_oven_10_n04111531_25647.JPEG
subject-03,1,288,0.809731006622314,airplane,airplane,2-0-10,0288_eid_s03_2-0-10_airplane_10_n02690373_5869.JPEG
subject-03,1,289,1.2303409576416,bottle,chair,4-3-10,0289_eid_s03_4-3-10_chair_10_n04429376_11106.JPEG
subject-03,1,290,1.30390906333923,dog,bird,32-10-10,0290_eid_s03_32-10-10_bird_10_n02033041_69.JPEG
subject-03,1,291,0.742417097091675,chair,knife,4-3-10,0291_eid_s03_4-3-10_knife_10_n03041632_1143.JPEG
subject-03,1,292,0.570795059204102,boat,keyboard,64-3-10,0292_eid_s03_64-3-10_keyboard_10_n03085013_1188.JPEG
subject-03,1,293,0.769455909729004,cat,car,128-10-10,0293_eid_s03_128-10-10_car_10_n02814533_15544.JPEG
subject-03,1,294,0.575291872024536,clock,clock,1-0-10,0294_eid_s03_1-0-10_clock_10_n04548280_1584.JPEG
subject-03,1,295,0.604321956634521,bear,bear,64-3-10,0295_eid_s03_64-3-10_bear_10_n02132136_20719.JPEG
subject-03,1,296,0.632646083831787,oven,cat,64-0-10,0296_eid_s03_64-0-10_cat_10_n02123597_4065.JPEG
subject-03,1,297,0.508911848068237,boat,airplane,128-0-10,0297_eid_s03_128-0-10_airplane_10_n02690373_2203.JPEG
subject-03,1,298,0.645812034606934,car,oven,64-3-10,0298_eid_s03_64-3-10_oven_10_n04111531_11781.JPEG
subject-03,1,299,0.85813307762146,clock,car,128-0-10,0299_eid_s03_128-0-10_car_10_n03100240_5489.JPEG
subject-03,1,300,0.786208868026733,airplane,airplane,8-3-10,0300_eid_s03_8-3-10_airplane_10_n02690373_4552.JPEG
subject-03,1,301,0.939122915267944,bear,elephant,2-10-10,0301_eid_s03_2-10-10_elephant_10_n02504458_4562.JPEG
subject-03,1,302,0.729785919189453,car,car,1-10-10,0302_eid_s03_1-10-10_car_10_n03100240_6450.JPEG
subject-03,1,303,0.97413182258606,bird,bird,8-3-10,0303_eid_s03_8-3-10_bird_10_n02033041_5459.JPEG
subject-03,1,304,0.896379947662354,bird,car,16-0-10,0304_eid_s03_16-0-10_car_10_n02814533_84296.JPEG
subject-03,1,305,1.03324007987976,bird,airplane,64-10-10,0305_eid_s03_64-10-10_airplane_10_n02690373_7721.JPEG
subject-03,1,306,1.12038111686707,truck,truck,16-10-10,0306_eid_s03_16-10-10_truck_10_n03796401_10878.JPEG
subject-03,1,307,0.851301908493042,clock,oven,32-3-10,0307_eid_s03_32-3-10_oven_10_n04111531_2618.JPEG
subject-03,1,308,0.696109056472778,chair,chair,1-3-10,0308_eid_s03_1-3-10_chair_10_n02791124_617.JPEG
subject-03,1,309,0.518501043319702,car,car,2-3-10,0309_eid_s03_2-3-10_car_10_n03100240_203.JPEG
subject-03,1,310,0.914524078369141,truck,bird,128-0-10,0310_eid_s03_128-0-10_bird_10_n01828970_11853.JPEG
subject-03,1,311,0.774995088577271,dog,dog,1-10-10,0311_eid_s03_1-10-10_dog_10_n02098105_581.JPEG
subject-03,1,312,0.751871109008789,oven,keyboard,64-3-10,0312_eid_s03_64-3-10_keyboard_10_n03085013_18907.JPEG
subject-03,1,313,0.696645975112915,airplane,truck,8-0-10,0313_eid_s03_8-0-10_truck_10_n03417042_9335.JPEG
subject-03,1,314,0.939208984375,cat,dog,32-10-10,0314_eid_s03_32-10-10_dog_10_n02106030_345.JPEG
subject-03,1,315,0.715603113174438,boat,cat,32-3-10,0315_eid_s03_32-3-10_cat_10_n02123597_10512.JPEG
subject-03,1,316,0.714442014694214,clock,cat,64-3-10,0316_eid_s03_64-3-10_cat_10_n02124075_15.JPEG
subject-03,1,317,0.680021047592163,cat,cat,16-3-10,0317_eid_s03_16-3-10_cat_10_n02123045_4842.JPEG
subject-03,1,318,NaN,na,dog,64-3-10,0318_eid_s03_64-3-10_dog_10_n02106662_8589.JPEG
subject-03,1,319,0.944601058959961,cat,elephant,1-10-10,0319_eid_s03_1-10-10_elephant_10_n02504013_3903.JPEG
subject-03,1,320,0.783329010009766,truck,truck,1-10-10,0320_eid_s03_1-10-10_truck_10_n03417042_5186.JPEG
subject-03,1,321,1.25833797454834,airplane,clock,128-0-10,0321_eid_s03_128-0-10_clock_10_n04548280_532.JPEG
subject-03,1,322,0.856632947921753,boat,boat,2-0-10,0322_eid_s03_2-0-10_boat_10_n04273569_250.JPEG
subject-03,1,323,0.60902214050293,boat,boat,4-3-10,0323_eid_s03_4-3-10_boat_10_n03662601_4217.JPEG
subject-03,1,324,0.539555072784424,boat,bear,64-10-10,0324_eid_s03_64-10-10_bear_10_n02132136_9965.JPEG
subject-03,1,325,0.74387001991272,clock,knife,64-0-10,0325_eid_s03_64-0-10_knife_10_n03041632_751.JPEG
subject-03,1,326,0.550502061843872,cat,chair,32-10-10,0326_eid_s03_32-10-10_chair_10_n02791124_5690.JPEG
subject-03,1,327,0.640497922897339,clock,oven,128-3-10,0327_eid_s03_128-3-10_oven_10_n04111531_688.JPEG
subject-03,1,328,NaN,na,bottle,8-0-10,0328_eid_s03_8-0-10_bottle_10_n02823428_3521.JPEG
subject-03,1,329,0.730532884597778,cat,cat,8-10-10,0329_eid_s03_8-10-10_cat_10_n02123394_5054.JPEG
subject-03,1,330,0.536810874938965,oven,bicycle,128-0-10,0330_eid_s03_128-0-10_bicycle_10_n02835271_6826.JPEG
subject-03,1,331,0.583287954330444,clock,clock,2-10-10,0331_eid_s03_2-10-10_clock_10_n04548280_10673.JPEG
subject-03,1,332,1.22553205490112,clock,clock,8-10-10,0332_eid_s03_8-10-10_clock_10_n02708093_1372.JPEG
subject-03,1,333,0.916362047195435,oven,boat,16-3-10,0333_eid_s03_16-3-10_boat_10_n04273569_15268.JPEG
subject-03,1,334,0.716845989227295,keyboard,cat,16-3-10,0334_eid_s03_16-3-10_cat_10_n02123597_11635.JPEG
subject-03,1,335,0.620946884155273,clock,clock,8-3-10,0335_eid_s03_8-3-10_clock_10_n04548280_2616.JPEG
subject-03,1,336,1.05771017074585,dog,cat,8-0-10,0336_eid_s03_8-0-10_cat_10_n02125311_43096.JPEG
subject-03,1,337,0.772228956222534,car,car,1-0-10,0337_eid_s03_1-0-10_car_10_n02814533_37456.JPEG
subject-03,1,338,1.42531394958496,bottle,clock,2-3-10,0338_eid_s03_2-3-10_clock_10_n02708093_8356.JPEG
subject-03,1,339,0.831432104110718,clock,bicycle,8-0-10,0339_eid_s03_8-0-10_bicycle_10_n03792782_8832.JPEG
subject-03,1,340,0.943445205688477,bear,bear,1-0-10,0340_eid_s03_1-0-10_bear_10_n02133161_1271.JPEG
subject-03,1,341,0.690192937850952,elephant,knife,16-0-10,0341_eid_s03_16-0-10_knife_10_n03041632_47410.JPEG
subject-03,1,342,0.689175844192505,bottle,bottle,64-0-10,0342_eid_s03_64-0-10_bottle_10_n04557648_9983.JPEG
subject-03,1,343,0.771809816360474,clock,boat,64-10-10,0343_eid_s03_64-10-10_boat_10_n04273569_12812.JPEG
subject-03,1,344,0.862828016281128,bicycle,car,128-3-10,0344_eid_s03_128-3-10_car_10_n04285008_27.JPEG
subject-03,1,345,0.652261972427368,car,car,4-10-10,0345_eid_s03_4-10-10_car_10_n02814533_92353.JPEG
subject-03,1,346,0.637389183044434,clock,clock,1-3-10,0346_eid_s03_1-3-10_clock_10_n04548280_5320.JPEG
subject-03,1,347,1.08815479278564,oven,bottle,4-3-10,0347_eid_s03_4-3-10_bottle_10_n04560804_23303.JPEG
subject-03,1,348,0.642576217651367,bottle,bottle,8-3-10,0348_eid_s03_8-3-10_bottle_10_n04560804_13541.JPEG
subject-03,1,349,0.800987005233765,bicycle,elephant,4-0-10,0349_eid_s03_4-0-10_elephant_10_n02504458_4853.JPEG
subject-03,1,350,1.37610578536987,bottle,bottle,2-0-10,0350_eid_s03_2-0-10_bottle_10_n04591713_5922.JPEG
subject-03,1,351,0.890275955200195,bottle,clock,2-10-10,0351_eid_s03_2-10-10_clock_10_n03196217_6419.JPEG
subject-03,1,352,0.904583930969238,clock,clock,16-3-10,0352_eid_s03_16-3-10_clock_10_n04548280_10167.JPEG
subject-03,1,353,0.556962013244629,clock,bicycle,32-3-10,0353_eid_s03_32-3-10_bicycle_10_n02835271_2075.JPEG
subject-03,1,354,0.477638959884644,boat,boat,128-3-10,0354_eid_s03_128-3-10_boat_10_n04273569_32290.JPEG
subject-03,1,355,0.84442400932312,car,keyboard,16-3-10,0355_eid_s03_16-3-10_keyboard_10_n04505470_2197.JPEG
subject-03,1,356,0.735164880752563,dog,bear,4-3-10,0356_eid_s03_4-3-10_bear_10_n02132136_695.JPEG
subject-03,1,357,0.995370864868164,car,car,1-10-10,0357_eid_s03_1-10-10_car_10_n03100240_12303.JPEG
subject-03,1,358,1.2545108795166,dog,truck,2-3-10,0358_eid_s03_2-3-10_truck_10_n03417042_8145.JPEG
subject-03,1,359,1.16824698448181,dog,dog,4-10-10,0359_eid_s03_4-10-10_dog_10_n02090622_3956.JPEG
subject-03,1,360,0.958647966384888,chair,clock,1-0-10,0360_eid_s03_1-0-10_clock_10_n04548280_4783.JPEG
subject-03,1,361,0.697463035583496,airplane,truck,16-0-10,0361_eid_s03_16-0-10_truck_10_n03417042_1906.JPEG
subject-03,1,362,0.956423044204712,dog,bottle,32-10-10,0362_eid_s03_32-10-10_bottle_10_n04591713_6855.JPEG
subject-03,1,363,0.908812999725342,elephant,elephant,2-10-10,0363_eid_s03_2-10-10_elephant_10_n02504013_8815.JPEG
subject-03,1,364,0.761347055435181,elephant,elephant,2-0-10,0364_eid_s03_2-0-10_elephant_10_n02504458_3175.JPEG
subject-03,1,365,0.827697992324829,chair,clock,1-0-10,0365_eid_s03_1-0-10_clock_10_n04548280_2321.JPEG
subject-03,1,366,1.00461101531982,clock,chair,1-3-10,0366_eid_s03_1-3-10_chair_10_n04429376_48374.JPEG
subject-03,1,367,0.857647895812988,bicycle,bicycle,16-10-10,0367_eid_s03_16-10-10_bicycle_10_n02835271_8968.JPEG
subject-03,1,368,0.801626920700073,car,clock,8-0-10,0368_eid_s03_8-0-10_clock_10_n04548280_3133.JPEG
subject-03,1,369,1.26806998252869,bottle,clock,16-10-10,0369_eid_s03_16-10-10_clock_10_n04548280_4562.JPEG
subject-03,1,370,0.603646993637085,keyboard,keyboard,2-3-10,0370_eid_s03_2-3-10_keyboard_10_n04505470_5007.JPEG
subject-03,1,371,0.564159870147705,boat,car,16-0-10,0371_eid_s03_16-0-10_car_10_n04285008_10914.JPEG
subject-03,1,372,1.04691696166992,airplane,chair,8-3-10,0372_eid_s03_8-3-10_chair_10_n04099969_16159.JPEG
subject-03,1,373,0.861253976821899,knife,airplane,32-3-10,0373_eid_s03_32-3-10_airplane_10_n02690373_2038.JPEG
subject-03,1,374,1.22014498710632,knife,knife,2-0-10,0374_eid_s03_2-0-10_knife_10_n03041632_29038.JPEG
subject-03,1,375,0.86463189125061,cat,bottle,32-3-10,0375_eid_s03_32-3-10_bottle_10_n04557648_2601.JPEG
subject-03,1,376,0.825479030609131,car,car,8-0-10,0376_eid_s03_8-0-10_car_10_n04285008_1114.JPEG
subject-03,1,377,0.96157693862915,car,car,8-0-10,0377_eid_s03_8-0-10_car_10_n02814533_45935.JPEG
subject-03,1,378,1.18508696556091,knife,knife,1-0-10,0378_eid_s03_1-0-10_knife_10_n03041632_83826.JPEG
subject-03,1,379,0.484013080596924,boat,boat,4-10-10,0379_eid_s03_4-10-10_boat_10_n03662601_32983.JPEG
subject-03,1,380,0.760161876678467,keyboard,keyboard,1-3-10,0380_eid_s03_1-3-10_keyboard_10_n03085013_18668.JPEG
subject-03,1,381,0.620980024337769,cat,knife,16-3-10,0381_eid_s03_16-3-10_knife_10_n03041632_22480.JPEG
subject-03,1,382,0.533683061599731,boat,elephant,32-10-10,0382_eid_s03_32-10-10_elephant_10_n02504013_7081.JPEG
subject-03,1,383,0.780013084411621,bicycle,bear,16-0-10,0383_eid_s03_16-0-10_bear_10_n02133161_1734.JPEG
subject-03,1,384,NaN,na,car,16-10-10,0384_eid_s03_16-10-10_car_10_n03100240_8002.JPEG
subject-03,1,385,0.431004047393799,boat,boat,2-3-10,0385_eid_s03_2-3-10_boat_10_n02951358_30643.JPEG
subject-03,1,386,0.575624942779541,oven,chair,32-10-10,0386_eid_s03_32-10-10_chair_10_n03376595_6171.JPEG
subject-03,1,387,0.727951049804688,airplane,airplane,4-10-10,0387_eid_s03_4-10-10_airplane_10_n02690373_807.JPEG
subject-03,1,388,0.726459980010986,bear,elephant,128-10-10,0388_eid_s03_128-10-10_elephant_10_n02504458_3727.JPEG
subject-03,1,389,0.792971134185791,airplane,oven,32-10-10,0389_eid_s03_32-10-10_oven_10_n04111531_10403.JPEG
subject-03,1,390,0.799510955810547,knife,airplane,16-3-10,0390_eid_s03_16-3-10_airplane_10_n02690373_20242.JPEG
subject-03,1,391,0.56823992729187,cat,clock,64-0-10,0391_eid_s03_64-0-10_clock_10_n04548280_5734.JPEG
subject-03,1,392,0.859004020690918,knife,knife,1-3-10,0392_eid_s03_1-3-10_knife_10_n03041632_25257.JPEG
subject-03,1,393,0.69556713104248,boat,airplane,64-3-10,0393_eid_s03_64-3-10_airplane_10_n02690373_6147.JPEG
subject-03,1,394,0.563935041427612,airplane,airplane,16-10-10,0394_eid_s03_16-10-10_airplane_10_n02690373_3407.JPEG
subject-03,1,395,0.638797998428345,bear,truck,32-3-10,0395_eid_s03_32-3-10_truck_10_n03417042_8891.JPEG
subject-03,1,396,0.610798120498657,oven,oven,64-10-10,0396_eid_s03_64-10-10_oven_10_n04111531_1970.JPEG
subject-03,1,397,0.777246952056885,knife,truck,8-10-10,0397_eid_s03_8-10-10_truck_10_n03417042_6442.JPEG
subject-03,1,398,0.937864065170288,bird,bird,1-3-10,0398_eid_s03_1-3-10_bird_10_n02011460_8173.JPEG
subject-03,1,399,0.705585956573486,cat,oven,32-10-10,0399_eid_s03_32-10-10_oven_10_n04111531_669.JPEG
subject-03,1,400,0.919158935546875,chair,chair,2-0-10,0400_eid_s03_2-0-10_chair_10_n04429376_1137.JPEG
subject-03,1,401,0.59539794921875,bear,boat,64-0-10,0401_eid_s03_64-0-10_boat_10_n02951358_11288.JPEG
subject-03,1,402,0.752530813217163,cat,knife,32-0-10,0402_eid_s03_32-0-10_knife_10_n03041632_54603.JPEG
subject-03,1,403,0.6355299949646,chair,chair,4-10-10,0403_eid_s03_4-10-10_chair_10_n02791124_3361.JPEG
subject-03,1,404,0.58240008354187,cat,cat,1-10-10,0404_eid_s03_1-10-10_cat_10_n02123597_7047.JPEG
subject-03,1,405,0.718719959259033,car,bicycle,16-3-10,0405_eid_s03_16-3-10_bicycle_10_n03792782_57971.JPEG
subject-03,1,406,0.977096796035767,knife,knife,4-10-10,0406_eid_s03_4-10-10_knife_10_n03041632_4975.JPEG
subject-03,1,407,0.687211036682129,oven,oven,128-3-10,0407_eid_s03_128-3-10_oven_10_n04111531_12729.JPEG
subject-03,1,408,0.793564081192017,oven,keyboard,16-3-10,0408_eid_s03_16-3-10_keyboard_10_n04505470_2038.JPEG
subject-03,1,409,0.663032054901123,oven,dog,128-0-10,0409_eid_s03_128-0-10_dog_10_n02101006_3146.JPEG
subject-03,1,410,0.876105785369873,cat,knife,128-10-10,0410_eid_s03_128-10-10_knife_10_n03041632_28009.JPEG
subject-03,1,411,0.790947914123535,oven,oven,16-10-10,0411_eid_s03_16-10-10_oven_10_n04111531_1556.JPEG
subject-03,1,412,0.597146034240723,boat,airplane,32-0-10,0412_eid_s03_32-0-10_airplane_10_n02690373_10395.JPEG
subject-03,1,413,0.763190031051636,bird,elephant,1-0-10,0413_eid_s03_1-0-10_elephant_10_n02504458_11511.JPEG
subject-03,1,414,0.678226947784424,bicycle,boat,64-3-10,0414_eid_s03_64-3-10_boat_10_n02951358_34223.JPEG
subject-03,1,415,0.660883903503418,oven,bicycle,64-3-10,0415_eid_s03_64-3-10_bicycle_10_n02835271_27402.JPEG
subject-03,1,416,0.68326997756958,oven,clock,8-0-10,0416_eid_s03_8-0-10_clock_10_n02708093_8104.JPEG
subject-03,1,417,0.657810211181641,boat,airplane,4-0-10,0417_eid_s03_4-0-10_airplane_10_n02690373_1854.JPEG
subject-03,1,418,0.596688985824585,clock,clock,8-3-10,0418_eid_s03_8-3-10_clock_10_n02708093_4976.JPEG
subject-03,1,419,0.738445997238159,truck,bear,16-0-10,0419_eid_s03_16-0-10_bear_10_n02134418_4458.JPEG
subject-03,1,420,0.674998044967651,boat,truck,8-10-10,0420_eid_s03_8-10-10_truck_10_n04467665_69892.JPEG
subject-03,1,421,0.627174139022827,airplane,elephant,32-0-10,0421_eid_s03_32-0-10_elephant_10_n02504013_2464.JPEG
subject-03,1,422,0.480147123336792,boat,boat,2-0-10,0422_eid_s03_2-0-10_boat_10_n02951358_1116.JPEG
subject-03,1,423,0.824007034301758,knife,cat,128-10-10,0423_eid_s03_128-10-10_cat_10_n02123159_6584.JPEG
subject-03,1,424,0.490553855895996,boat,boat,4-10-10,0424_eid_s03_4-10-10_boat_10_n03662601_10541.JPEG
subject-03,1,425,0.580865144729614,oven,oven,64-3-10,0425_eid_s03_64-3-10_oven_10_n04111531_7139.JPEG
subject-03,1,426,0.70179009437561,car,car,4-0-10,0426_eid_s03_4-0-10_car_10_n02814533_73067.JPEG
subject-03,1,427,0.953948974609375,car,car,16-10-10,0427_eid_s03_16-10-10_car_10_n04285008_5360.JPEG
subject-03,1,428,0.822204828262329,bear,bottle,16-3-10,0428_eid_s03_16-3-10_bottle_10_n04591713_2561.JPEG
subject-03,1,429,0.691224098205566,car,car,1-3-10,0429_eid_s03_1-3-10_car_10_n02814533_9479.JPEG
subject-03,1,430,0.782283067703247,clock,clock,16-10-10,0430_eid_s03_16-10-10_clock_10_n02708093_7901.JPEG
subject-03,1,431,0.67256498336792,bottle,bottle,1-10-10,0431_eid_s03_1-10-10_bottle_10_n04557648_7490.JPEG
subject-03,1,432,0.687029123306274,bicycle,bicycle,2-0-10,0432_eid_s03_2-0-10_bicycle_10_n03792782_4295.JPEG
subject-03,1,433,1.21561098098755,dog,dog,4-0-10,0433_eid_s03_4-0-10_dog_10_n02102318_4716.JPEG
subject-03,1,434,0.814119815826416,bear,chair,16-3-10,0434_eid_s03_16-3-10_chair_10_n04099969_9217.JPEG
subject-03,1,435,0.818542003631592,bird,bottle,16-10-10,0435_eid_s03_16-10-10_bottle_10_n04560804_15476.JPEG
subject-03,1,436,0.671248912811279,clock,cat,128-0-10,0436_eid_s03_128-0-10_cat_10_n02123394_585.JPEG
subject-03,1,437,1.00777792930603,oven,oven,1-3-10,0437_eid_s03_1-3-10_oven_10_n04111531_6400.JPEG
subject-03,1,438,0.730185985565186,oven,oven,16-10-10,0438_eid_s03_16-10-10_oven_10_n04111531_12952.JPEG
subject-03,1,439,1.11278104782104,knife,knife,2-3-10,0439_eid_s03_2-3-10_knife_10_n03041632_10140.JPEG
subject-03,1,440,1.07898998260498,bicycle,bicycle,4-3-10,0440_eid_s03_4-3-10_bicycle_10_n03792782_4377.JPEG
subject-03,1,441,0.74746298789978,bottle,bottle,32-3-10,0441_eid_s03_32-3-10_bottle_10_n04591713_3062.JPEG
subject-03,1,442,0.554285049438477,boat,chair,16-10-10,0442_eid_s03_16-10-10_chair_10_n04099969_7471.JPEG
subject-03,1,443,0.652589797973633,airplane,chair,128-0-10,0443_eid_s03_128-0-10_chair_10_n04099969_4640.JPEG
subject-03,1,444,0.88081693649292,airplane,cat,128-3-10,0444_eid_s03_128-3-10_cat_10_n02124075_6746.JPEG
subject-03,1,445,0.703495979309082,oven,airplane,128-10-10,0445_eid_s03_128-10-10_airplane_10_n02690373_3334.JPEG
subject-03,1,446,0.656276941299438,keyboard,keyboard,1-3-10,0446_eid_s03_1-3-10_keyboard_10_n04505470_5024.JPEG
subject-03,1,447,1.26847696304321,knife,knife,1-0-10,0447_eid_s03_1-0-10_knife_10_n03041632_39883.JPEG
subject-03,1,448,0.599395036697388,car,car,16-3-10,0448_eid_s03_16-3-10_car_10_n03100240_9497.JPEG
subject-03,1,449,0.873826026916504,cat,elephant,4-0-10,0449_eid_s03_4-0-10_elephant_10_n02504458_4776.JPEG
subject-03,1,450,0.755950927734375,oven,bird,1-3-10,0450_eid_s03_1-3-10_bird_10_n01820546_979.JPEG
subject-03,1,451,0.570234060287476,oven,oven,1-10-10,0451_eid_s03_1-10-10_oven_10_n04111531_12769.JPEG
subject-03,1,452,0.744723081588745,airplane,airplane,16-3-10,0452_eid_s03_16-3-10_airplane_10_n02690373_4335.JPEG
subject-03,1,453,0.997311115264893,bear,bear,16-10-10,0453_eid_s03_16-10-10_bear_10_n02134418_1910.JPEG
subject-03,1,454,0.82555103302002,bird,bird,16-0-10,0454_eid_s03_16-0-10_bird_10_n01582220_5080.JPEG
subject-03,1,455,0.869412899017334,cat,bicycle,128-3-10,0455_eid_s03_128-3-10_bicycle_10_n02835271_20903.JPEG
subject-03,1,456,0.97672700881958,knife,knife,4-0-10,0456_eid_s03_4-0-10_knife_10_n03041632_36390.JPEG
subject-03,1,457,0.51383113861084,clock,bicycle,64-0-10,0457_eid_s03_64-0-10_bicycle_10_n02835271_25966.JPEG
subject-03,1,458,0.61167311668396,bear,bear,128-3-10,0458_eid_s03_128-3-10_bear_10_n02134418_3338.JPEG
subject-03,1,459,1.20796585083008,knife,keyboard,16-10-10,0459_eid_s03_16-10-10_keyboard_10_n03085013_4012.JPEG
subject-03,1,460,0.63474702835083,cat,truck,64-0-10,0460_eid_s03_64-0-10_truck_10_n03417042_12509.JPEG
subject-03,1,461,0.917500972747803,elephant,elephant,8-10-10,0461_eid_s03_8-10-10_elephant_10_n02504458_863.JPEG
subject-03,1,462,0.609844923019409,airplane,airplane,1-10-10,0462_eid_s03_1-10-10_airplane_10_n02690373_9376.JPEG
subject-03,1,463,0.676300764083862,bird,bird,4-3-10,0463_eid_s03_4-3-10_bird_10_n02002724_2965.JPEG
subject-03,1,464,0.75084114074707,bicycle,keyboard,128-10-10,0464_eid_s03_128-10-10_keyboard_10_n04505470_183.JPEG
subject-03,1,465,0.79564094543457,car,car,4-0-10,0465_eid_s03_4-0-10_car_10_n02814533_88831.JPEG
subject-03,1,466,0.986195802688599,elephant,bear,128-10-10,0466_eid_s03_128-10-10_bear_10_n02133161_2189.JPEG
subject-03,1,467,0.548939943313599,bear,boat,128-0-10,0467_eid_s03_128-0-10_boat_10_n03662601_6127.JPEG
subject-03,1,468,0.501812934875488,clock,cat,64-3-10,0468_eid_s03_64-3-10_cat_10_n02125311_77036.JPEG
subject-03,1,469,0.692932844161987,airplane,airplane,32-10-10,0469_eid_s03_32-10-10_airplane_10_n02690373_1670.JPEG
subject-03,1,470,0.59127402305603,bear,car,64-0-10,0470_eid_s03_64-0-10_car_10_n02814533_72864.JPEG
subject-03,1,471,0.711734056472778,airplane,bicycle,64-0-10,0471_eid_s03_64-0-10_bicycle_10_n02835271_7592.JPEG
subject-03,1,472,0.980533123016357,bicycle,bicycle,1-10-10,0472_eid_s03_1-10-10_bicycle_10_n03792782_49637.JPEG
subject-03,1,473,0.641035079956055,clock,clock,4-10-10,0473_eid_s03_4-10-10_clock_10_n04548280_7087.JPEG
subject-03,1,474,0.737166881561279,bear,boat,16-0-10,0474_eid_s03_16-0-10_boat_10_n03344393_7371.JPEG
subject-03,1,475,0.813843965530396,car,car,8-3-10,0475_eid_s03_8-3-10_car_10_n02814533_91294.JPEG
subject-03,1,476,0.958617210388184,bicycle,bicycle,4-3-10,0476_eid_s03_4-3-10_bicycle_10_n02835271_7175.JPEG
subject-03,1,477,0.502928972244263,cat,elephant,32-3-10,0477_eid_s03_32-3-10_elephant_10_n02504458_5839.JPEG
subject-03,1,478,0.761383056640625,car,dog,32-3-10,0478_eid_s03_32-3-10_dog_10_n02106030_413.JPEG
subject-03,1,479,0.799976110458374,truck,knife,16-3-10,0479_eid_s03_16-3-10_knife_10_n03041632_4806.JPEG
subject-03,1,480,0.591238975524902,clock,boat,64-0-10,0480_eid_s03_64-0-10_boat_10_n03662601_8667.JPEG
subject-03,1,481,0.659620046615601,clock,bicycle,16-3-10,0481_eid_s03_16-3-10_bicycle_10_n03792782_12470.JPEG
subject-03,1,482,1.19422912597656,bear,elephant,128-10-10,0482_eid_s03_128-10-10_elephant_10_n02504458_4809.JPEG
subject-03,1,483,0.824566125869751,keyboard,keyboard,8-3-10,0483_eid_s03_8-3-10_keyboard_10_n03085013_18903.JPEG
subject-03,1,484,0.923054933547974,airplane,chair,32-0-10,0484_eid_s03_32-0-10_chair_10_n04099969_6493.JPEG
subject-03,1,485,0.675513982772827,keyboard,keyboard,8-10-10,0485_eid_s03_8-10-10_keyboard_10_n04505470_4599.JPEG
subject-03,1,486,0.858219861984253,clock,elephant,1-10-10,0486_eid_s03_1-10-10_elephant_10_n02504013_4686.JPEG
subject-03,1,487,0.656589984893799,cat,cat,1-10-10,0487_eid_s03_1-10-10_cat_10_n02123597_16405.JPEG
subject-03,1,488,0.739236831665039,bear,bear,2-3-10,0488_eid_s03_2-3-10_bear_10_n02132136_18829.JPEG
subject-03,1,489,0.607648849487305,bear,knife,64-3-10,0489_eid_s03_64-3-10_knife_10_n03041632_94470.JPEG
subject-03,1,490,0.844246864318848,bird,dog,16-0-10,0490_eid_s03_16-0-10_dog_10_n02086646_2907.JPEG
subject-03,1,491,0.831385135650635,bear,dog,4-0-10,0491_eid_s03_4-0-10_dog_10_n02111129_198.JPEG
subject-03,1,492,0.684154033660889,clock,boat,32-0-10,0492_eid_s03_32-0-10_boat_10_n04612504_10936.JPEG
subject-03,1,493,0.606786012649536,cat,bear,32-3-10,0493_eid_s03_32-3-10_bear_10_n02133161_5822.JPEG
subject-03,1,494,0.711208820343018,bottle,bottle,4-3-10,0494_eid_s03_4-3-10_bottle_10_n02823428_3481.JPEG
subject-03,1,495,0.826483964920044,bottle,bottle,32-10-10,0495_eid_s03_32-10-10_bottle_10_n03983396_8873.JPEG
subject-03,1,496,0.579180955886841,cat,bird,2-0-10,0496_eid_s03_2-0-10_bird_10_n02013706_4926.JPEG
subject-03,1,497,0.877819061279297,bicycle,bicycle,1-0-10,0497_eid_s03_1-0-10_bicycle_10_n02835271_913.JPEG
subject-03,1,498,0.722800016403198,oven,oven,1-0-10,0498_eid_s03_1-0-10_oven_10_n04111531_18245.JPEG
subject-03,1,499,0.737147092819214,keyboard,keyboard,16-3-10,0499_eid_s03_16-3-10_keyboard_10_n04505470_4824.JPEG
subject-03,1,500,0.781919956207275,clock,car,128-3-10,0500_eid_s03_128-3-10_car_10_n04285008_7781.JPEG
subject-03,1,501,1.12627291679382,bird,bicycle,4-0-10,0501_eid_s03_4-0-10_bicycle_10_n03792782_3696.JPEG
subject-03,1,502,0.574152946472168,keyboard,oven,4-0-10,0502_eid_s03_4-0-10_oven_10_n04111531_249.JPEG
subject-03,1,503,0.818403959274292,bottle,bottle,1-0-10,0503_eid_s03_1-0-10_bottle_10_n03937543_3678.JPEG
subject-03,1,504,0.68535304069519,keyboard,keyboard,1-0-10,0504_eid_s03_1-0-10_keyboard_10_n03085013_21444.JPEG
subject-03,1,505,0.83806300163269,elephant,elephant,1-0-10,0505_eid_s03_1-0-10_elephant_10_n02504458_706.JPEG
subject-03,1,506,0.544718980789185,bear,truck,32-10-10,0506_eid_s03_32-10-10_truck_10_n03417042_7997.JPEG
subject-03,1,507,0.881247997283936,keyboard,truck,16-3-10,0507_eid_s03_16-3-10_truck_10_n04467665_24996.JPEG
subject-03,1,508,0.649641036987305,bicycle,bicycle,1-3-10,0508_eid_s03_1-3-10_bicycle_10_n03792782_877.JPEG
subject-03,1,509,0.648062944412231,boat,knife,16-10-10,0509_eid_s03_16-10-10_knife_10_n03041632_21165.JPEG
subject-03,1,510,0.646713972091675,bicycle,bottle,128-0-10,0510_eid_s03_128-0-10_bottle_10_n03983396_20205.JPEG
subject-03,1,511,0.813461065292358,bottle,bicycle,8-0-10,0511_eid_s03_8-0-10_bicycle_10_n03792782_32.JPEG
subject-03,1,512,0.641775131225586,clock,bird,16-3-10,0512_eid_s03_16-3-10_bird_10_n02056570_9860.JPEG
subject-03,1,513,0.630510091781616,cat,cat,2-3-10,0513_eid_s03_2-3-10_cat_10_n02123045_1752.JPEG
subject-03,1,514,0.537430047988892,cat,cat,8-3-10,0514_eid_s03_8-3-10_cat_10_n02123597_1664.JPEG
subject-03,1,515,0.712105989456177,boat,oven,64-0-10,0515_eid_s03_64-0-10_oven_10_n04111531_283.JPEG
subject-03,1,516,0.50263786315918,clock,dog,128-3-10,0516_eid_s03_128-3-10_dog_10_n02106550_5147.JPEG
subject-03,1,517,0.678851842880249,bicycle,keyboard,128-3-10,0517_eid_s03_128-3-10_keyboard_10_n04505470_4873.JPEG
subject-03,1,518,0.619930982589722,bear,bird,128-3-10,0518_eid_s03_128-3-10_bird_10_n01532829_2136.JPEG
subject-03,1,519,0.650852918624878,airplane,airplane,1-0-10,0519_eid_s03_1-0-10_airplane_10_n02690373_2611.JPEG
subject-03,1,520,0.649298906326294,boat,chair,32-0-10,0520_eid_s03_32-0-10_chair_10_n04429376_20837.JPEG
subject-03,1,521,0.494158029556274,cat,bicycle,32-3-10,0521_eid_s03_32-3-10_bicycle_10_n03792782_1222.JPEG
subject-03,1,522,0.562536954879761,chair,chair,4-10-10,0522_eid_s03_4-10-10_chair_10_n03376595_2714.JPEG
subject-03,1,523,0.613372087478638,cat,cat,1-3-10,0523_eid_s03_1-3-10_cat_10_n02123394_8153.JPEG
subject-03,1,524,0.657870054244995,clock,car,32-3-10,0524_eid_s03_32-3-10_car_10_n04285008_1768.JPEG
subject-03,1,525,0.502222061157227,oven,dog,32-3-10,0525_eid_s03_32-3-10_dog_10_n02105251_4874.JPEG
subject-03,1,526,0.547254085540771,cat,dog,32-10-10,0526_eid_s03_32-10-10_dog_10_n02096437_1559.JPEG
subject-03,1,527,1.45362901687622,bird,bicycle,32-0-10,0527_eid_s03_32-0-10_bicycle_10_n03792782_636.JPEG
subject-03,1,528,0.676281929016113,clock,clock,4-0-10,0528_eid_s03_4-0-10_clock_10_n03196217_6831.JPEG
subject-03,1,529,0.654725074768066,clock,airplane,32-0-10,0529_eid_s03_32-0-10_airplane_10_n02690373_6988.JPEG
subject-03,1,530,0.729004144668579,cat,bear,64-0-10,0530_eid_s03_64-0-10_bear_10_n02132136_8689.JPEG
subject-03,1,531,1.21170997619629,dog,cat,2-0-10,0531_eid_s03_2-0-10_cat_10_n02123159_7352.JPEG
subject-03,1,532,1.24815487861633,boat,elephant,128-10-10,0532_eid_s03_128-10-10_elephant_10_n02504013_7005.JPEG
subject-03,1,533,0.962918996810913,cat,dog,64-10-10,0533_eid_s03_64-10-10_dog_10_n02101556_14753.JPEG
subject-03,1,534,0.782500982284546,boat,cat,32-0-10,0534_eid_s03_32-0-10_cat_10_n02123394_3252.JPEG
subject-03,1,535,0.851524829864502,airplane,airplane,2-3-10,0535_eid_s03_2-3-10_airplane_10_n02690373_8350.JPEG
subject-03,1,536,0.53593897819519,boat,chair,16-3-10,0536_eid_s03_16-3-10_chair_10_n04099969_9960.JPEG
subject-03,1,537,0.656496047973633,clock,bicycle,32-0-10,0537_eid_s03_32-0-10_bicycle_10_n03792782_18884.JPEG
subject-03,1,538,0.577304840087891,boat,truck,32-10-10,0538_eid_s03_32-10-10_truck_10_n03796401_17201.JPEG
subject-03,1,539,0.645782947540283,keyboard,keyboard,8-0-10,0539_eid_s03_8-0-10_keyboard_10_n04505470_4479.JPEG
subject-03,1,540,0.680875778198242,clock,bicycle,32-0-10,0540_eid_s03_32-0-10_bicycle_10_n03792782_12354.JPEG
subject-03,1,541,1.09386301040649,bird,bird,16-10-10,0541_eid_s03_16-10-10_bird_10_n01833805_6289.JPEG
subject-03,1,542,0.732203960418701,keyboard,keyboard,8-10-10,0542_eid_s03_8-10-10_keyboard_10_n03085013_5579.JPEG
subject-03,1,543,0.71494197845459,cat,airplane,64-10-10,0543_eid_s03_64-10-10_airplane_10_n02690373_7944.JPEG
subject-03,1,544,0.513237953186035,clock,oven,32-3-10,0544_eid_s03_32-3-10_oven_10_n04111531_21869.JPEG
subject-03,1,545,0.511926889419556,clock,car,128-3-10,0545_eid_s03_128-3-10_car_10_n03100240_2477.JPEG
subject-03,1,546,1.0721390247345,bottle,bottle,2-0-10,0546_eid_s03_2-0-10_bottle_10_n04557648_10510.JPEG
subject-03,1,547,0.662980079650879,airplane,airplane,8-3-10,0547_eid_s03_8-3-10_airplane_10_n02690373_9680.JPEG
subject-03,1,548,0.699347019195557,knife,knife,32-0-10,0548_eid_s03_32-0-10_knife_10_n03041632_15099.JPEG
subject-03,1,549,0.621869087219238,oven,dog,64-3-10,0549_eid_s03_64-3-10_dog_10_n02112350_5742.JPEG
subject-03,1,550,0.780392169952393,bear,dog,8-0-10,0550_eid_s03_8-0-10_dog_10_n02094258_5288.JPEG
subject-03,1,551,0.719290971755981,truck,airplane,64-0-10,0551_eid_s03_64-0-10_airplane_10_n02690373_12976.JPEG
subject-03,1,552,0.701668977737427,cat,cat,2-3-10,0552_eid_s03_2-3-10_cat_10_n02123597_4905.JPEG
subject-03,1,553,0.621668100357056,elephant,bird,32-3-10,0553_eid_s03_32-3-10_bird_10_n01531178_5555.JPEG
subject-03,1,554,1.09639000892639,cat,car,32-3-10,0554_eid_s03_32-3-10_car_10_n03100240_1438.JPEG
subject-03,1,555,0.526799917221069,cat,bottle,16-10-10,0555_eid_s03_16-10-10_bottle_10_n02823428_6186.JPEG
subject-03,1,556,0.785480976104736,keyboard,keyboard,2-10-10,0556_eid_s03_2-10-10_keyboard_10_n03085013_23271.JPEG
subject-03,1,557,0.808023929595947,bottle,elephant,1-3-10,0557_eid_s03_1-3-10_elephant_10_n02504013_5992.JPEG
subject-03,1,558,1.00439596176147,knife,knife,2-10-10,0558_eid_s03_2-10-10_knife_10_n03041632_15250.JPEG
subject-03,1,559,0.781068086624146,dog,dog,1-0-10,0559_eid_s03_1-0-10_dog_10_n02107142_3621.JPEG
subject-03,1,560,0.613406896591187,boat,boat,1-0-10,0560_eid_s03_1-0-10_boat_10_n03344393_3824.JPEG
subject-03,1,561,0.934195041656494,bottle,bear,64-10-10,0561_eid_s03_64-10-10_bear_10_n02133161_1204.JPEG
subject-03,1,562,0.580353021621704,cat,cat,8-10-10,0562_eid_s03_8-10-10_cat_10_n02123045_4268.JPEG
subject-03,1,563,0.746878147125244,clock,oven,64-3-10,0563_eid_s03_64-3-10_oven_10_n04111531_11848.JPEG
subject-03,1,564,0.791698932647705,bottle,bottle,2-3-10,0564_eid_s03_2-3-10_bottle_10_n04591713_2165.JPEG
subject-03,1,565,0.590060949325562,clock,clock,4-3-10,0565_eid_s03_4-3-10_clock_10_n02708093_6595.JPEG
subject-03,1,566,0.626716136932373,chair,chair,4-3-10,0566_eid_s03_4-3-10_chair_10_n03376595_7351.JPEG
subject-03,1,567,0.671032905578613,bird,bird,2-10-10,0567_eid_s03_2-10-10_bird_10_n02017213_5299.JPEG
subject-03,1,568,NaN,na,bottle,64-0-10,0568_eid_s03_64-0-10_bottle_10_n04579145_7613.JPEG
subject-03,1,569,0.620085000991821,cat,airplane,16-3-10,0569_eid_s03_16-3-10_airplane_10_n02690373_8666.JPEG
subject-03,1,570,0.726883888244629,bicycle,bicycle,1-0-10,0570_eid_s03_1-0-10_bicycle_10_n03792782_12704.JPEG
subject-03,1,571,0.892441034317017,dog,elephant,4-3-10,0571_eid_s03_4-3-10_elephant_10_n02504013_10437.JPEG
subject-03,1,572,0.767189025878906,truck,truck,4-10-10,0572_eid_s03_4-10-10_truck_10_n03796401_2557.JPEG
subject-03,1,573,1.24154901504517,bicycle,chair,32-0-10,0573_eid_s03_32-0-10_chair_10_n02791124_307.JPEG
subject-03,1,574,0.709750175476074,cat,knife,64-10-10,0574_eid_s03_64-10-10_knife_10_n03041632_5102.JPEG
subject-03,1,575,0.762449979782104,cat,elephant,8-0-10,0575_eid_s03_8-0-10_elephant_10_n02504458_5337.JPEG
subject-03,1,576,0.87699294090271,knife,knife,16-10-10,0576_eid_s03_16-10-10_knife_10_n03041632_29862.JPEG
subject-03,1,577,0.713982105255127,bottle,bottle,8-10-10,0577_eid_s03_8-10-10_bottle_10_n04560804_1412.JPEG
subject-03,1,578,0.590208053588867,cat,bird,32-3-10,0578_eid_s03_32-3-10_bird_10_n01860187_5818.JPEG
subject-03,1,579,0.848655939102173,chair,cat,8-10-10,0579_eid_s03_8-10-10_cat_10_n02123394_167.JPEG
subject-03,1,580,0.655112028121948,keyboard,keyboard,1-10-10,0580_eid_s03_1-10-10_keyboard_10_n04505470_5057.JPEG
subject-03,1,581,0.975711822509766,dog,cat,64-10-10,0581_eid_s03_64-10-10_cat_10_n02123597_14797.JPEG
subject-03,1,582,0.572413206100464,cat,bird,128-10-10,0582_eid_s03_128-10-10_bird_10_n01797886_17422.JPEG
subject-03,1,583,0.487372159957886,chair,chair,4-0-10,0583_eid_s03_4-0-10_chair_10_n03376595_1481.JPEG
subject-03,1,584,0.637705087661743,cat,keyboard,64-3-10,0584_eid_s03_64-3-10_keyboard_10_n04505470_4523.JPEG
subject-03,1,585,0.820580959320068,cat,knife,128-3-10,0585_eid_s03_128-3-10_knife_10_n03041632_49363.JPEG
subject-03,1,586,NaN,na,airplane,2-0-10,0586_eid_s03_2-0-10_airplane_10_n02690373_7142.JPEG
subject-03,1,587,0.812232971191406,cat,dog,2-10-10,0587_eid_s03_2-10-10_dog_10_n02105505_5936.JPEG
subject-03,1,588,0.77278995513916,clock,car,64-3-10,0588_eid_s03_64-3-10_car_10_n04285008_14508.JPEG
subject-03,1,589,1.07744979858398,knife,airplane,32-3-10,0589_eid_s03_32-3-10_airplane_10_n02690373_20331.JPEG
subject-03,1,590,0.608019113540649,boat,boat,2-0-10,0590_eid_s03_2-0-10_boat_10_n03662601_16811.JPEG
subject-03,1,591,0.459830045700073,oven,bear,128-10-10,0591_eid_s03_128-10-10_bear_10_n02134084_982.JPEG
subject-03,1,592,0.650419950485229,bottle,bottle,2-10-10,0592_eid_s03_2-10-10_bottle_10_n04591713_2271.JPEG
subject-03,1,593,0.651337146759033,chair,chair,16-0-10,0593_eid_s03_16-0-10_chair_10_n02791124_6843.JPEG
subject-03,1,594,NaN,na,knife,4-3-10,0594_eid_s03_4-3-10_knife_10_n03041632_33488.JPEG
subject-03,1,595,0.910141944885254,elephant,truck,8-0-10,0595_eid_s03_8-0-10_truck_10_n04467665_87287.JPEG
subject-03,1,596,0.747024059295654,clock,clock,1-0-10,0596_eid_s03_1-0-10_clock_10_n02708093_7156.JPEG
subject-03,1,597,0.546140909194946,bear,bottle,64-3-10,0597_eid_s03_64-3-10_bottle_10_n03983396_5458.JPEG
subject-03,1,598,0.668558120727539,cat,boat,16-0-10,0598_eid_s03_16-0-10_boat_10_n04273569_27839.JPEG
subject-03,1,599,0.675514936447144,car,car,2-10-10,0599_eid_s03_2-10-10_car_10_n02814533_63218.JPEG
subject-03,1,600,0.657618045806885,airplane,truck,8-3-10,0600_eid_s03_8-3-10_truck_10_n03796401_28241.JPEG
subject-03,1,601,0.648335933685303,boat,airplane,64-10-10,0601_eid_s03_64-10-10_airplane_10_n02690373_5714.JPEG
subject-03,1,602,0.60928201675415,bird,bird,4-3-10,0602_eid_s03_4-3-10_bird_10_n02013706_8125.JPEG
subject-03,1,603,0.813583850860596,keyboard,elephant,128-0-10,0603_eid_s03_128-0-10_elephant_10_n02504458_5995.JPEG
subject-03,1,604,0.862053871154785,bear,bear,8-0-10,0604_eid_s03_8-0-10_bear_10_n02133161_15789.JPEG
subject-03,1,605,0.522305011749268,clock,clock,1-10-10,0605_eid_s03_1-10-10_clock_10_n04548280_4666.JPEG
subject-03,1,606,0.497095108032227,clock,clock,2-0-10,0606_eid_s03_2-0-10_clock_10_n03196217_3608.JPEG
subject-03,1,607,0.649652004241943,boat,chair,128-10-10,0607_eid_s03_128-10-10_chair_10_n03376595_8647.JPEG
subject-03,1,608,0.962532043457031,truck,truck,2-3-10,0608_eid_s03_2-3-10_truck_10_n03417042_8439.JPEG
subject-03,1,609,0.614866971969604,cat,oven,8-3-10,0609_eid_s03_8-3-10_oven_10_n04111531_15087.JPEG
subject-03,1,610,0.551795959472656,cat,dog,128-10-10,0610_eid_s03_128-10-10_dog_10_n02094258_1475.JPEG
subject-03,1,611,0.636744022369385,cat,bicycle,128-0-10,0611_eid_s03_128-0-10_bicycle_10_n03792782_19111.JPEG
subject-03,1,612,0.665503978729248,bird,bottle,16-0-10,0612_eid_s03_16-0-10_bottle_10_n03983396_12030.JPEG
subject-03,1,613,0.647990942001343,clock,oven,16-0-10,0613_eid_s03_16-0-10_oven_10_n04111531_4845.JPEG
subject-03,1,614,0.570595979690552,oven,oven,16-3-10,0614_eid_s03_16-3-10_oven_10_n04111531_13542.JPEG
subject-03,1,615,0.637414932250977,boat,bird,8-10-10,0615_eid_s03_8-10-10_bird_10_n01558993_8262.JPEG
subject-03,1,616,0.643501043319702,boat,airplane,64-10-10,0616_eid_s03_64-10-10_airplane_10_n02690373_19742.JPEG
subject-03,1,617,0.6268310546875,clock,elephant,128-0-10,0617_eid_s03_128-0-10_elephant_10_n02504013_4674.JPEG
subject-03,1,618,0.625303030014038,clock,dog,128-3-10,0618_eid_s03_128-3-10_dog_10_n02095314_512.JPEG
subject-03,1,619,0.50208592414856,boat,bear,128-10-10,0619_eid_s03_128-10-10_bear_10_n02132136_5142.JPEG
subject-03,1,620,0.906439065933228,cat,cat,8-3-10,0620_eid_s03_8-3-10_cat_10_n02123597_760.JPEG
subject-03,1,621,0.688622951507568,dog,keyboard,64-10-10,0621_eid_s03_64-10-10_keyboard_10_n04505470_4547.JPEG
subject-03,1,622,0.949502944946289,dog,dog,16-10-10,0622_eid_s03_16-10-10_dog_10_n02110185_14560.JPEG
subject-03,1,623,1.2020959854126,elephant,truck,64-0-10,0623_eid_s03_64-0-10_truck_10_n03417042_21379.JPEG
subject-03,1,624,0.676569938659668,keyboard,keyboard,2-10-10,0624_eid_s03_2-10-10_keyboard_10_n03085013_25066.JPEG
subject-03,1,625,1.00520086288452,bear,bear,16-3-10,0625_eid_s03_16-3-10_bear_10_n02132136_149.JPEG
subject-03,1,626,0.673275947570801,cat,cat,32-10-10,0626_eid_s03_32-10-10_cat_10_n02123045_5422.JPEG
subject-03,1,627,0.663647890090942,cat,truck,8-3-10,0627_eid_s03_8-3-10_truck_10_n03417042_10197.JPEG
subject-03,1,628,0.909579038619995,cat,dog,64-10-10,0628_eid_s03_64-10-10_dog_10_n02085936_10296.JPEG
subject-03,1,629,0.564506053924561,cat,truck,64-10-10,0629_eid_s03_64-10-10_truck_10_n03796401_7547.JPEG
subject-03,1,630,0.990738153457642,bear,elephant,8-3-10,0630_eid_s03_8-3-10_elephant_10_n02504013_10462.JPEG
subject-03,1,631,0.859478950500488,bicycle,bicycle,8-10-10,0631_eid_s03_8-10-10_bicycle_10_n03792782_52540.JPEG
subject-03,1,632,0.612235069274902,bear,bear,2-3-10,0632_eid_s03_2-3-10_bear_10_n02134084_7595.JPEG
subject-03,1,633,0.740461111068726,car,car,2-3-10,0633_eid_s03_2-3-10_car_10_n04285008_7943.JPEG
subject-03,1,634,0.760901212692261,bird,bird,32-10-10,0634_eid_s03_32-10-10_bird_10_n01798484_17605.JPEG
subject-03,1,635,0.967514991760254,bear,keyboard,128-10-10,0635_eid_s03_128-10-10_keyboard_10_n03085013_24124.JPEG
subject-03,1,636,0.71269702911377,clock,chair,64-0-10,0636_eid_s03_64-0-10_chair_10_n03376595_8694.JPEG
subject-03,1,637,0.848672866821289,cat,bottle,64-3-10,0637_eid_s03_64-3-10_bottle_10_n04591713_5607.JPEG
subject-03,1,638,0.709506034851074,oven,dog,32-3-10,0638_eid_s03_32-3-10_dog_10_n02111129_4878.JPEG
subject-03,1,639,0.632269859313965,oven,keyboard,16-3-10,0639_eid_s03_16-3-10_keyboard_10_n03085013_2676.JPEG
subject-03,1,640,0.644881010055542,bicycle,bicycle,32-10-10,0640_eid_s03_32-10-10_bicycle_10_n02835271_8324.JPEG
subject-03,1,641,0.88965106010437,bicycle,bicycle,8-3-10,0641_eid_s03_8-3-10_bicycle_10_n02835271_9904.JPEG
subject-03,1,642,0.925824880599976,bottle,bottle,2-3-10,0642_eid_s03_2-3-10_bottle_10_n02823428_1314.JPEG
subject-03,1,643,0.548211812973022,oven,bird,64-0-10,0643_eid_s03_64-0-10_bird_10_n01820546_6834.JPEG
subject-03,1,644,0.861181020736694,truck,truck,1-3-10,0644_eid_s03_1-3-10_truck_10_n03796401_4073.JPEG
subject-03,1,645,0.722326993942261,airplane,airplane,4-3-10,0645_eid_s03_4-3-10_airplane_10_n02690373_8670.JPEG
subject-03,1,646,1.15818309783936,bear,dog,8-10-10,0646_eid_s03_8-10-10_dog_10_n02099849_5925.JPEG
subject-03,1,647,0.681123018264771,bottle,bottle,2-10-10,0647_eid_s03_2-10-10_bottle_10_n04557648_10958.JPEG
subject-03,1,648,1.20977711677551,bear,cat,1-3-10,0648_eid_s03_1-3-10_cat_10_n02125311_11820.JPEG
subject-03,1,649,0.7168869972229,car,car,8-10-10,0649_eid_s03_8-10-10_car_10_n04285008_10108.JPEG
subject-03,1,650,0.691084146499634,cat,cat,1-0-10,0650_eid_s03_1-0-10_cat_10_n02123394_8369.JPEG
subject-03,1,651,0.836336851119995,bottle,knife,1-10-10,0651_eid_s03_1-10-10_knife_10_n03041632_105581.JPEG
subject-03,1,652,0.735136032104492,cat,clock,8-0-10,0652_eid_s03_8-0-10_clock_10_n04548280_7568.JPEG
subject-03,1,653,0.603782176971436,bear,car,64-0-10,0653_eid_s03_64-0-10_car_10_n04285008_12662.JPEG
subject-03,1,654,0.810816049575806,bear,bear,4-10-10,0654_eid_s03_4-10-10_bear_10_n02132136_1467.JPEG
subject-03,1,655,0.709373950958252,elephant,boat,16-3-10,0655_eid_s03_16-3-10_boat_10_n02951358_13690.JPEG
subject-03,1,656,0.700109004974365,bird,bird,1-3-10,0656_eid_s03_1-3-10_bird_10_n01614925_1657.JPEG
subject-03,1,657,0.683112859725952,cat,oven,8-0-10,0657_eid_s03_8-0-10_oven_10_n04111531_22403.JPEG
subject-03,1,658,0.827291965484619,bear,cat,32-0-10,0658_eid_s03_32-0-10_cat_10_n02123045_11514.JPEG
subject-03,1,659,0.647464036941528,oven,bicycle,32-0-10,0659_eid_s03_32-0-10_bicycle_10_n03792782_26834.JPEG
subject-03,1,660,0.554428100585938,cat,bottle,32-0-10,0660_eid_s03_32-0-10_bottle_10_n03937543_2662.JPEG
subject-03,1,661,0.582979202270508,cat,bird,16-0-10,0661_eid_s03_16-0-10_bird_10_n01582220_16080.JPEG
subject-03,1,662,0.981419086456299,cat,cat,4-3-10,0662_eid_s03_4-3-10_cat_10_n02123159_3548.JPEG
subject-03,1,663,0.77203106880188,dog,oven,128-0-10,0663_eid_s03_128-0-10_oven_10_n04111531_5351.JPEG
subject-03,1,664,0.816303968429565,bottle,boat,128-3-10,0664_eid_s03_128-3-10_boat_10_n03662601_28120.JPEG
subject-03,1,665,1.14499282836914,knife,chair,8-10-10,0665_eid_s03_8-10-10_chair_10_n02791124_15723.JPEG
subject-03,1,666,1.00558996200562,bear,bear,4-3-10,0666_eid_s03_4-3-10_bear_10_n02134418_9289.JPEG
subject-03,1,667,0.663702011108398,cat,airplane,16-0-10,0667_eid_s03_16-0-10_airplane_10_n02690373_6978.JPEG
subject-03,1,668,1.25756597518921,dog,cat,2-10-10,0668_eid_s03_2-10-10_cat_10_n02123045_8031.JPEG
subject-03,1,669,0.840564966201782,bicycle,bicycle,2-0-10,0669_eid_s03_2-0-10_bicycle_10_n03792782_6512.JPEG
subject-03,1,670,0.609189987182617,cat,cat,64-10-10,0670_eid_s03_64-10-10_cat_10_n02123394_8605.JPEG
subject-03,1,671,0.630155086517334,cat,cat,1-3-10,0671_eid_s03_1-3-10_cat_10_n02123045_8923.JPEG
subject-03,1,672,0.619917869567871,cat,boat,64-0-10,0672_eid_s03_64-0-10_boat_10_n04612504_8073.JPEG
subject-03,1,673,0.886291027069092,dog,dog,8-10-10,0673_eid_s03_8-10-10_dog_10_n02109047_15519.JPEG
subject-03,1,674,0.900466918945312,knife,knife,2-3-10,0674_eid_s03_2-3-10_knife_10_n03041632_45775.JPEG
subject-03,1,675,1.11318397521973,clock,clock,16-10-10,0675_eid_s03_16-10-10_clock_10_n04548280_7475.JPEG
subject-03,1,676,0.873764991760254,bear,car,64-10-10,0676_eid_s03_64-10-10_car_10_n03100240_13954.JPEG
subject-03,1,677,0.872430086135864,keyboard,knife,8-3-10,0677_eid_s03_8-3-10_knife_10_n03041632_7090.JPEG
subject-03,1,678,0.716629028320312,keyboard,keyboard,1-0-10,0678_eid_s03_1-0-10_keyboard_10_n03085013_21048.JPEG
subject-03,1,679,0.837405920028687,bottle,bottle,2-3-10,0679_eid_s03_2-3-10_bottle_10_n04560804_7460.JPEG
subject-03,1,680,0.749612092971802,boat,clock,128-0-10,0680_eid_s03_128-0-10_clock_10_n03196217_4912.JPEG
subject-03,1,681,0.680294036865234,car,car,16-10-10,0681_eid_s03_16-10-10_car_10_n04285008_8581.JPEG
subject-03,1,682,0.946867942810059,airplane,airplane,4-10-10,0682_eid_s03_4-10-10_airplane_10_n02690373_3294.JPEG
subject-03,1,683,0.959091901779175,clock,clock,4-10-10,0683_eid_s03_4-10-10_clock_10_n02708093_2843.JPEG
subject-03,1,684,0.705693006515503,keyboard,keyboard,1-10-10,0684_eid_s03_1-10-10_keyboard_10_n03085013_20858.JPEG
subject-03,1,685,0.794486999511719,airplane,airplane,32-10-10,0685_eid_s03_32-10-10_airplane_10_n02690373_20996.JPEG
subject-03,1,686,0.962986946105957,cat,cat,4-0-10,0686_eid_s03_4-0-10_cat_10_n02125311_22484.JPEG
subject-03,1,687,0.699593782424927,bird,bird,32-3-10,0687_eid_s03_32-3-10_bird_10_n01622779_6963.JPEG
subject-03,1,688,1.11999201774597,knife,knife,1-10-10,0688_eid_s03_1-10-10_knife_10_n03041632_35365.JPEG
subject-03,1,689,0.696753025054932,boat,elephant,32-3-10,0689_eid_s03_32-3-10_elephant_10_n02504458_1383.JPEG
subject-03,1,690,0.817674875259399,bicycle,chair,16-0-10,0690_eid_s03_16-0-10_chair_10_n02791124_12408.JPEG
subject-03,1,691,1.26789402961731,knife,knife,8-10-10,0691_eid_s03_8-10-10_knife_10_n03041632_18863.JPEG
subject-03,1,692,0.806575775146484,boat,truck,128-0-10,0692_eid_s03_128-0-10_truck_10_n03796401_6061.JPEG
subject-03,1,693,0.842951774597168,elephant,elephant,1-0-10,0693_eid_s03_1-0-10_elephant_10_n02504013_1005.JPEG
subject-03,1,694,1.16363382339478,chair,chair,2-3-10,0694_eid_s03_2-3-10_chair_10_n04429376_11956.JPEG
subject-03,1,695,0.748339891433716,car,car,1-3-10,0695_eid_s03_1-3-10_car_10_n04285008_507.JPEG
subject-03,1,696,0.792539119720459,chair,chair,8-10-10,0696_eid_s03_8-10-10_chair_10_n04099969_1690.JPEG
subject-03,1,697,0.781359195709229,cat,chair,128-10-10,0697_eid_s03_128-10-10_chair_10_n03376595_6947.JPEG
subject-03,1,698,0.710977077484131,bear,bear,2-0-10,0698_eid_s03_2-0-10_bear_10_n02133161_10925.JPEG
subject-03,1,699,0.908218860626221,bird,bird,16-3-10,0699_eid_s03_16-3-10_bird_10_n01560419_5098.JPEG
subject-03,1,700,0.82291316986084,bottle,car,32-3-10,0700_eid_s03_32-3-10_car_10_n04285008_3453.JPEG
subject-03,1,701,0.80528998374939,bicycle,bicycle,8-3-10,0701_eid_s03_8-3-10_bicycle_10_n03792782_33649.JPEG
subject-03,1,702,0.582068920135498,cat,knife,32-0-10,0702_eid_s03_32-0-10_knife_10_n03041632_84086.JPEG
subject-03,1,703,0.84052300453186,truck,car,128-3-10,0703_eid_s03_128-3-10_car_10_n03100240_9471.JPEG
subject-03,1,704,0.676873922348022,bicycle,elephant,16-0-10,0704_eid_s03_16-0-10_elephant_10_n02504013_4547.JPEG
subject-03,1,705,0.705586910247803,cat,car,64-10-10,0705_eid_s03_64-10-10_car_10_n03100240_20935.JPEG
subject-03,1,706,0.596009016036987,oven,bird,8-0-10,0706_eid_s03_8-0-10_bird_10_n02028035_2674.JPEG
subject-03,1,707,0.740211963653564,bird,bird,1-10-10,0707_eid_s03_1-10-10_bird_10_n02002724_2424.JPEG
subject-03,1,708,0.623126029968262,clock,oven,64-0-10,0708_eid_s03_64-0-10_oven_10_n04111531_9490.JPEG
subject-03,1,709,0.676069021224976,bicycle,bicycle,8-0-10,0709_eid_s03_8-0-10_bicycle_10_n03792782_3388.JPEG
subject-03,1,710,NaN,na,dog,16-0-10,0710_eid_s03_16-0-10_dog_10_n02097298_12578.JPEG
subject-03,1,711,0.732846975326538,bird,dog,64-10-10,0711_eid_s03_64-10-10_dog_10_n02111500_3679.JPEG
subject-03,1,712,0.685287952423096,car,car,4-10-10,0712_eid_s03_4-10-10_car_10_n02814533_2636.JPEG
subject-03,1,713,0.735426902770996,clock,bear,16-3-10,0713_eid_s03_16-3-10_bear_10_n02132136_5051.JPEG
subject-03,1,714,0.641783952713013,car,airplane,32-0-10,0714_eid_s03_32-0-10_airplane_10_n02690373_283.JPEG
subject-03,1,715,0.616384983062744,cat,cat,4-10-10,0715_eid_s03_4-10-10_cat_10_n02124075_14241.JPEG
subject-03,1,716,0.623511075973511,clock,clock,4-10-10,0716_eid_s03_4-10-10_clock_10_n03196217_5769.JPEG
subject-03,1,717,0.675765991210938,cat,chair,128-0-10,0717_eid_s03_128-0-10_chair_10_n04429376_24535.JPEG
subject-03,1,718,0.966532945632935,truck,truck,2-0-10,0718_eid_s03_2-0-10_truck_10_n03417042_27151.JPEG
subject-03,1,719,0.673330068588257,clock,clock,4-10-10,0719_eid_s03_4-10-10_clock_10_n02708093_960.JPEG
subject-03,1,720,0.793504953384399,chair,oven,8-10-10,0720_eid_s03_8-10-10_oven_10_n04111531_14951.JPEG
subject-03,1,721,0.68410587310791,oven,airplane,16-3-10,0721_eid_s03_16-3-10_airplane_10_n02690373_3415.JPEG
subject-03,1,722,0.728913068771362,clock,airplane,128-3-10,0722_eid_s03_128-3-10_airplane_10_n02690373_306.JPEG
subject-03,1,723,0.727663040161133,clock,boat,32-10-10,0723_eid_s03_32-10-10_boat_10_n02951358_13043.JPEG
subject-03,1,724,0.888022899627686,dog,dog,4-10-10,0724_eid_s03_4-10-10_dog_10_n02102040_3420.JPEG
subject-03,1,725,0.663026094436646,clock,knife,32-3-10,0725_eid_s03_32-3-10_knife_10_n03041632_4279.JPEG
subject-03,1,726,0.515517950057983,cat,airplane,16-0-10,0726_eid_s03_16-0-10_airplane_10_n02690373_4921.JPEG
subject-03,1,727,0.638313770294189,cat,cat,4-0-10,0727_eid_s03_4-0-10_cat_10_n02123159_10292.JPEG
subject-03,1,728,1.21875286102295,car,car,2-3-10,0728_eid_s03_2-3-10_car_10_n04285008_14640.JPEG
subject-03,1,729,0.719066143035889,elephant,elephant,1-10-10,0729_eid_s03_1-10-10_elephant_10_n02504458_3063.JPEG
subject-03,1,730,0.77957010269165,bird,bird,1-10-10,0730_eid_s03_1-10-10_bird_10_n01860187_9960.JPEG
subject-03,1,731,0.816756010055542,bird,bird,8-10-10,0731_eid_s03_8-10-10_bird_10_n01818515_36290.JPEG
subject-03,1,732,0.95063304901123,knife,bear,2-3-10,0732_eid_s03_2-3-10_bear_10_n02134418_2616.JPEG
subject-03,1,733,0.643473863601685,clock,clock,2-10-10,0733_eid_s03_2-10-10_clock_10_n04548280_7733.JPEG
subject-03,1,734,0.72539210319519,clock,knife,128-3-10,0734_eid_s03_128-3-10_knife_10_n03041632_41381.JPEG
subject-03,1,735,0.592718124389648,cat,bear,2-3-10,0735_eid_s03_2-3-10_bear_10_n02133161_2038.JPEG
subject-03,1,736,0.639165878295898,cat,keyboard,32-0-10,0736_eid_s03_32-0-10_keyboard_10_n03085013_22960.JPEG
subject-03,1,737,0.797670125961304,airplane,airplane,4-0-10,0737_eid_s03_4-0-10_airplane_10_n02690373_10131.JPEG
subject-03,1,738,0.558815002441406,boat,truck,32-0-10,0738_eid_s03_32-0-10_truck_10_n04467665_46550.JPEG
subject-03,1,739,0.60286283493042,bear,bear,64-3-10,0739_eid_s03_64-3-10_bear_10_n02134418_6204.JPEG
subject-03,1,740,0.923613786697388,car,car,8-10-10,0740_eid_s03_8-10-10_car_10_n02814533_10815.JPEG
subject-03,1,741,NaN,na,dog,32-0-10,0741_eid_s03_32-0-10_dog_10_n02099601_75.JPEG
subject-03,1,742,0.804666996002197,clock,bottle,128-0-10,0742_eid_s03_128-0-10_bottle_10_n04579145_4532.JPEG
subject-03,1,743,1.11901092529297,airplane,boat,8-0-10,0743_eid_s03_8-0-10_boat_10_n03344393_7773.JPEG
subject-03,1,744,1.20175194740295,boat,keyboard,64-3-10,0744_eid_s03_64-3-10_keyboard_10_n04505470_8386.JPEG
subject-03,1,745,1.06860399246216,bottle,bottle,1-0-10,0745_eid_s03_1-0-10_bottle_10_n03937543_3373.JPEG
subject-03,1,746,0.974438905715942,truck,truck,1-0-10,0746_eid_s03_1-0-10_truck_10_n03417042_7366.JPEG
subject-03,1,747,0.613451957702637,cat,bicycle,128-0-10,0747_eid_s03_128-0-10_bicycle_10_n02835271_19676.JPEG
subject-03,1,748,0.558121204376221,cat,clock,16-3-10,0748_eid_s03_16-3-10_clock_10_n03196217_5399.JPEG
subject-03,1,749,0.83223295211792,bicycle,bicycle,4-3-10,0749_eid_s03_4-3-10_bicycle_10_n03792782_10763.JPEG
subject-03,1,750,0.852747917175293,airplane,airplane,1-10-10,0750_eid_s03_1-10-10_airplane_10_n02690373_1119.JPEG
subject-03,1,751,0.7275550365448,boat,boat,1-3-10,0751_eid_s03_1-3-10_boat_10_n03344393_5852.JPEG
subject-03,1,752,0.711904048919678,cat,clock,32-10-10,0752_eid_s03_32-10-10_clock_10_n03196217_7836.JPEG
subject-03,1,753,0.924678087234497,bicycle,knife,64-0-10,0753_eid_s03_64-0-10_knife_10_n03041632_40530.JPEG
subject-03,1,754,0.639100074768066,boat,bottle,128-0-10,0754_eid_s03_128-0-10_bottle_10_n03983396_3393.JPEG
subject-03,1,755,0.883671045303345,keyboard,keyboard,4-3-10,0755_eid_s03_4-3-10_keyboard_10_n04505470_2481.JPEG
subject-03,1,756,0.690335035324097,bear,clock,32-0-10,0756_eid_s03_32-0-10_clock_10_n03196217_9315.JPEG
subject-03,1,757,0.710854053497314,keyboard,chair,8-3-10,0757_eid_s03_8-3-10_chair_10_n04429376_964.JPEG
subject-03,1,758,0.508944988250732,cat,truck,8-0-10,0758_eid_s03_8-0-10_truck_10_n03417042_11165.JPEG
subject-03,1,759,0.961658954620361,oven,clock,2-3-10,0759_eid_s03_2-3-10_clock_10_n03196217_1163.JPEG
subject-03,1,760,0.882317066192627,knife,knife,1-3-10,0760_eid_s03_1-3-10_knife_10_n03041632_11327.JPEG
subject-03,1,761,0.842751026153564,elephant,keyboard,16-10-10,0761_eid_s03_16-10-10_keyboard_10_n03085013_24626.JPEG
subject-03,1,762,0.625601053237915,oven,boat,32-0-10,0762_eid_s03_32-0-10_boat_10_n03344393_10327.JPEG
subject-03,1,763,0.978363990783691,boat,boat,1-3-10,0763_eid_s03_1-3-10_boat_10_n02951358_26300.JPEG
subject-03,1,764,0.640583038330078,bicycle,bicycle,4-3-10,0764_eid_s03_4-3-10_bicycle_10_n02835271_11844.JPEG
subject-03,1,765,0.930625915527344,keyboard,keyboard,4-3-10,0765_eid_s03_4-3-10_keyboard_10_n03085013_22837.JPEG
subject-03,1,766,0.491534948348999,boat,elephant,64-0-10,0766_eid_s03_64-0-10_elephant_10_n02504013_22131.JPEG
subject-03,1,767,0.903940916061401,bird,bear,2-0-10,0767_eid_s03_2-0-10_bear_10_n02134084_9535.JPEG
subject-03,1,768,0.742165088653564,chair,keyboard,4-3-10,0768_eid_s03_4-3-10_keyboard_10_n03085013_24111.JPEG
subject-03,1,769,0.539639949798584,airplane,airplane,8-10-10,0769_eid_s03_8-10-10_airplane_10_n02690373_17764.JPEG
subject-03,1,770,0.614435911178589,bear,bear,32-3-10,0770_eid_s03_32-3-10_bear_10_n02132136_10107.JPEG
subject-03,1,771,0.88274097442627,car,car,2-0-10,0771_eid_s03_2-0-10_car_10_n02814533_49499.JPEG
subject-03,1,772,1.05080795288086,cat,oven,1-3-10,0772_eid_s03_1-3-10_oven_10_n04111531_11993.JPEG
subject-03,1,773,0.657737016677856,boat,boat,2-0-10,0773_eid_s03_2-0-10_boat_10_n03662601_24714.JPEG
subject-03,1,774,0.86476993560791,cat,dog,16-10-10,0774_eid_s03_16-10-10_dog_10_n02100583_17049.JPEG
subject-03,1,775,0.655130863189697,airplane,elephant,16-10-10,0775_eid_s03_16-10-10_elephant_10_n02504458_1377.JPEG
subject-03,1,776,0.893501043319702,bear,bear,4-3-10,0776_eid_s03_4-3-10_bear_10_n02133161_1446.JPEG
subject-03,1,777,0.93851900100708,knife,knife,1-3-10,0777_eid_s03_1-3-10_knife_10_n03041632_24817.JPEG
subject-03,1,778,0.599228858947754,cat,bear,128-10-10,0778_eid_s03_128-10-10_bear_10_n02133161_4876.JPEG
subject-03,1,779,0.775068044662476,cat,chair,2-0-10,0779_eid_s03_2-0-10_chair_10_n03376595_9319.JPEG
subject-03,1,780,0.544165849685669,cat,chair,128-0-10,0780_eid_s03_128-0-10_chair_10_n02791124_2846.JPEG
subject-03,1,781,0.89662504196167,bear,elephant,32-3-10,0781_eid_s03_32-3-10_elephant_10_n02504458_277.JPEG
subject-03,1,782,0.743307113647461,keyboard,chair,2-0-10,0782_eid_s03_2-0-10_chair_10_n03376595_9813.JPEG
subject-03,1,783,0.809700965881348,clock,truck,32-3-10,0783_eid_s03_32-3-10_truck_10_n03417042_27586.JPEG
subject-03,1,784,0.772369861602783,keyboard,clock,8-10-10,0784_eid_s03_8-10-10_clock_10_n03196217_1024.JPEG
subject-03,1,785,0.740975141525269,keyboard,keyboard,2-3-10,0785_eid_s03_2-3-10_keyboard_10_n03085013_10367.JPEG
subject-03,1,786,0.693423986434937,clock,boat,128-3-10,0786_eid_s03_128-3-10_boat_10_n04273569_5891.JPEG
subject-03,1,787,0.661961793899536,clock,clock,1-0-10,0787_eid_s03_1-0-10_clock_10_n03196217_4541.JPEG
subject-03,1,788,0.547643899917603,boat,bird,64-0-10,0788_eid_s03_64-0-10_bird_10_n01820546_6843.JPEG
subject-03,1,789,1.0002121925354,bear,bicycle,32-10-10,0789_eid_s03_32-10-10_bicycle_10_n03792782_15435.JPEG
subject-03,1,790,0.952683925628662,bear,elephant,8-0-10,0790_eid_s03_8-0-10_elephant_10_n02504458_3648.JPEG
subject-03,1,791,1.25944113731384,bear,bear,16-10-10,0791_eid_s03_16-10-10_bear_10_n02134084_1564.JPEG
subject-03,1,792,0.920731067657471,airplane,airplane,8-3-10,0792_eid_s03_8-3-10_airplane_10_n02690373_2042.JPEG
subject-03,1,793,0.796871900558472,car,car,2-0-10,0793_eid_s03_2-0-10_car_10_n03100240_6197.JPEG
subject-03,1,794,0.811636924743652,clock,bear,128-0-10,0794_eid_s03_128-0-10_bear_10_n02133161_18699.JPEG
subject-03,1,795,0.950565814971924,oven,oven,1-3-10,0795_eid_s03_1-3-10_oven_10_n04111531_10216.JPEG
subject-03,1,796,0.588047027587891,bear,chair,8-0-10,0796_eid_s03_8-0-10_chair_10_n02791124_7156.JPEG
subject-03,1,797,0.779994964599609,cat,bird,2-10-10,0797_eid_s03_2-10-10_bird_10_n01829413_2437.JPEG
subject-03,1,798,0.923909902572632,airplane,airplane,32-10-10,0798_eid_s03_32-10-10_airplane_10_n02690373_7408.JPEG
subject-03,1,799,0.88464093208313,bird,airplane,8-3-10,0799_eid_s03_8-3-10_airplane_10_n02690373_1829.JPEG
subject-03,1,800,0.739336013793945,car,car,2-0-10,0800_eid_s03_2-0-10_car_10_n03100240_9965.JPEG
subject-03,1,801,0.876681089401245,bird,bird,16-10-10,0801_eid_s03_16-10-10_bird_10_n01530575_34420.JPEG
subject-03,1,802,1.19871115684509,elephant,elephant,2-0-10,0802_eid_s03_2-0-10_elephant_10_n02504013_559.JPEG
subject-03,1,803,0.989511966705322,bear,truck,8-3-10,0803_eid_s03_8-3-10_truck_10_n04467665_51991.JPEG
subject-03,1,804,0.71223783493042,cat,boat,8-10-10,0804_eid_s03_8-10-10_boat_10_n03344393_6638.JPEG
subject-03,1,805,0.642251014709473,cat,clock,128-0-10,0805_eid_s03_128-0-10_clock_10_n02708093_3481.JPEG
subject-03,1,806,0.735359191894531,airplane,oven,1-0-10,0806_eid_s03_1-0-10_oven_10_n04111531_10537.JPEG
subject-03,1,807,0.688237905502319,bird,bird,4-10-10,0807_eid_s03_4-10-10_bird_10_n01820546_4347.JPEG
subject-03,1,808,0.602805852890015,keyboard,keyboard,4-3-10,0808_eid_s03_4-3-10_keyboard_10_n03085013_19008.JPEG
subject-03,1,809,0.641347169876099,boat,truck,64-10-10,0809_eid_s03_64-10-10_truck_10_n03417042_12096.JPEG
subject-03,1,810,0.623742818832397,bear,oven,64-3-10,0810_eid_s03_64-3-10_oven_10_n04111531_6933.JPEG
subject-03,1,811,1.00886797904968,airplane,dog,16-0-10,0811_eid_s03_16-0-10_dog_10_n02104365_1841.JPEG
subject-03,1,812,0.922073841094971,bear,bear,8-3-10,0812_eid_s03_8-3-10_bear_10_n02134418_3179.JPEG
subject-03,1,813,0.662075042724609,oven,bicycle,128-0-10,0813_eid_s03_128-0-10_bicycle_10_n03792782_27435.JPEG
subject-03,1,814,0.814301013946533,dog,oven,16-10-10,0814_eid_s03_16-10-10_oven_10_n04111531_21855.JPEG
subject-03,1,815,0.704828977584839,airplane,airplane,16-10-10,0815_eid_s03_16-10-10_airplane_10_n02690373_980.JPEG
subject-03,1,816,0.848987817764282,bicycle,bicycle,2-0-10,0816_eid_s03_2-0-10_bicycle_10_n02835271_7866.JPEG
subject-03,1,817,0.779722929000854,bear,truck,16-3-10,0817_eid_s03_16-3-10_truck_10_n03796401_22241.JPEG
subject-03,1,818,0.769909858703613,truck,cat,32-3-10,0818_eid_s03_32-3-10_cat_10_n02123045_10096.JPEG
subject-03,1,819,0.700844049453735,cat,bicycle,4-0-10,0819_eid_s03_4-0-10_bicycle_10_n03792782_11679.JPEG
subject-03,1,820,0.613903999328613,airplane,airplane,1-3-10,0820_eid_s03_1-3-10_airplane_10_n02690373_10399.JPEG
subject-03,1,821,0.534595012664795,cat,cat,8-3-10,0821_eid_s03_8-3-10_cat_10_n02123045_3285.JPEG
subject-03,1,822,0.611063003540039,cat,knife,16-3-10,0822_eid_s03_16-3-10_knife_10_n03041632_16932.JPEG
subject-03,1,823,0.503571033477783,airplane,airplane,2-0-10,0823_eid_s03_2-0-10_airplane_10_n02690373_2676.JPEG
subject-03,1,824,0.580513954162598,bear,bicycle,128-0-10,0824_eid_s03_128-0-10_bicycle_10_n03792782_11241.JPEG
subject-03,1,825,NaN,na,keyboard,16-3-10,0825_eid_s03_16-3-10_keyboard_10_n04505470_1435.JPEG
subject-03,1,826,0.755980968475342,bird,bird,64-10-10,0826_eid_s03_64-10-10_bird_10_n02009912_2920.JPEG
subject-03,1,827,0.670370101928711,boat,clock,16-3-10,0827_eid_s03_16-3-10_clock_10_n04548280_407.JPEG
subject-03,1,828,0.698121070861816,bicycle,car,128-3-10,0828_eid_s03_128-3-10_car_10_n02814533_69032.JPEG
subject-03,1,829,0.875720977783203,chair,chair,2-3-10,0829_eid_s03_2-3-10_chair_10_n02791124_14021.JPEG
subject-03,1,830,0.63651180267334,keyboard,keyboard,1-0-10,0830_eid_s03_1-0-10_keyboard_10_n03085013_10659.JPEG
subject-03,1,831,0.542042016983032,airplane,airplane,8-0-10,0831_eid_s03_8-0-10_airplane_10_n02690373_2544.JPEG
subject-03,1,832,0.840798854827881,clock,clock,8-10-10,0832_eid_s03_8-10-10_clock_10_n03196217_4019.JPEG
subject-03,1,833,0.546998977661133,cat,cat,1-3-10,0833_eid_s03_1-3-10_cat_10_n02123159_3524.JPEG
subject-03,1,834,0.707972049713135,oven,bear,4-0-10,0834_eid_s03_4-0-10_bear_10_n02134084_963.JPEG
subject-03,1,835,0.630069017410278,bear,truck,32-10-10,0835_eid_s03_32-10-10_truck_10_n03417042_8374.JPEG
subject-03,1,836,0.644490003585815,bicycle,bear,64-0-10,0836_eid_s03_64-0-10_bear_10_n02134418_5914.JPEG
subject-03,1,837,0.43730092048645,oven,oven,16-3-10,0837_eid_s03_16-3-10_oven_10_n04111531_3076.JPEG
subject-03,1,838,0.752357959747314,knife,knife,1-0-10,0838_eid_s03_1-0-10_knife_10_n03041632_22472.JPEG
subject-03,1,839,0.612437009811401,cat,cat,1-10-10,0839_eid_s03_1-10-10_cat_10_n02124075_14541.JPEG
subject-03,1,840,0.480943918228149,bear,car,32-3-10,0840_eid_s03_32-3-10_car_10_n04285008_2960.JPEG
subject-03,1,841,0.787645101547241,bicycle,bicycle,2-10-10,0841_eid_s03_2-10-10_bicycle_10_n03792782_5864.JPEG
subject-03,1,842,0.656315088272095,boat,boat,2-3-10,0842_eid_s03_2-3-10_boat_10_n04612504_12941.JPEG
subject-03,1,843,0.670931816101074,cat,elephant,128-3-10,0843_eid_s03_128-3-10_elephant_10_n02504458_2341.JPEG
subject-03,1,844,0.639389991760254,cat,dog,2-0-10,0844_eid_s03_2-0-10_dog_10_n02094114_348.JPEG
subject-03,1,845,0.538051843643188,cat,elephant,16-0-10,0845_eid_s03_16-0-10_elephant_10_n02504013_18799.JPEG
subject-03,1,846,0.584320783615112,keyboard,elephant,32-10-10,0846_eid_s03_32-10-10_elephant_10_n02504458_1106.JPEG
subject-03,1,847,0.74284291267395,cat,bottle,32-10-10,0847_eid_s03_32-10-10_bottle_10_n04557648_1375.JPEG
subject-03,1,848,0.805427074432373,bottle,bottle,1-10-10,0848_eid_s03_1-10-10_bottle_10_n02823428_4931.JPEG
subject-03,1,849,0.580521106719971,airplane,airplane,4-3-10,0849_eid_s03_4-3-10_airplane_10_n02690373_4199.JPEG
subject-03,1,850,0.58660101890564,airplane,elephant,32-0-10,0850_eid_s03_32-0-10_elephant_10_n02504013_7925.JPEG
subject-03,1,851,0.503234148025513,cat,cat,64-0-10,0851_eid_s03_64-0-10_cat_10_n02124075_9710.JPEG
subject-03,1,852,0.532031059265137,airplane,airplane,1-10-10,0852_eid_s03_1-10-10_airplane_10_n02690373_12044.JPEG
subject-03,1,853,0.737927913665771,boat,boat,1-3-10,0853_eid_s03_1-3-10_boat_10_n03344393_3516.JPEG
subject-03,1,854,0.515008926391602,boat,truck,32-10-10,0854_eid_s03_32-10-10_truck_10_n03417042_18603.JPEG
subject-03,1,855,0.567278861999512,cat,truck,32-3-10,0855_eid_s03_32-3-10_truck_10_n03417042_27613.JPEG
subject-03,1,856,0.467709064483643,boat,airplane,128-3-10,0856_eid_s03_128-3-10_airplane_10_n02690373_3054.JPEG
subject-03,1,857,0.441444158554077,boat,clock,32-0-10,0857_eid_s03_32-0-10_clock_10_n02708093_8100.JPEG
subject-03,1,858,0.648063898086548,cat,boat,16-0-10,0858_eid_s03_16-0-10_boat_10_n02951358_13507.JPEG
subject-03,1,859,0.516484975814819,oven,knife,128-10-10,0859_eid_s03_128-10-10_knife_10_n03041632_95293.JPEG
subject-03,1,860,1.11483097076416,oven,oven,8-10-10,0860_eid_s03_8-10-10_oven_10_n04111531_8553.JPEG
subject-03,1,861,0.499581098556519,cat,dog,64-0-10,0861_eid_s03_64-0-10_dog_10_n02101556_10000.JPEG
subject-03,1,862,0.98971700668335,bear,bear,8-10-10,0862_eid_s03_8-10-10_bear_10_n02134418_3310.JPEG
subject-03,1,863,0.796743869781494,boat,knife,128-3-10,0863_eid_s03_128-3-10_knife_10_n03041632_6708.JPEG
subject-03,1,864,0.643253087997437,keyboard,keyboard,2-10-10,0864_eid_s03_2-10-10_keyboard_10_n03085013_21609.JPEG
subject-03,1,865,0.641669034957886,bicycle,bicycle,2-3-10,0865_eid_s03_2-3-10_bicycle_10_n03792782_14531.JPEG
subject-03,1,866,0.510040998458862,cat,oven,32-3-10,0866_eid_s03_32-3-10_oven_10_n04111531_9322.JPEG
subject-03,1,867,0.46252703666687,oven,truck,128-3-10,0867_eid_s03_128-3-10_truck_10_n04467665_74008.JPEG
subject-03,1,868,0.631186008453369,cat,dog,16-3-10,0868_eid_s03_16-3-10_dog_10_n02113712_6515.JPEG
subject-03,1,869,0.485306024551392,clock,chair,128-10-10,0869_eid_s03_128-10-10_chair_10_n03376595_8550.JPEG
subject-03,1,870,0.545736789703369,bear,airplane,128-3-10,0870_eid_s03_128-3-10_airplane_10_n02690373_1912.JPEG
subject-03,1,871,0.690478086471558,bicycle,dog,32-10-10,0871_eid_s03_32-10-10_dog_10_n02110063_11887.JPEG
subject-03,1,872,0.820998907089233,airplane,bird,128-3-10,0872_eid_s03_128-3-10_bird_10_n01843383_2849.JPEG
subject-03,1,873,0.827975988388062,knife,chair,64-0-10,0873_eid_s03_64-0-10_chair_10_n02791124_8970.JPEG
subject-03,1,874,0.550413131713867,bicycle,bicycle,1-3-10,0874_eid_s03_1-3-10_bicycle_10_n03792782_2246.JPEG
subject-03,1,875,0.665299892425537,bear,bicycle,128-0-10,0875_eid_s03_128-0-10_bicycle_10_n02835271_19834.JPEG
subject-03,1,876,0.617523193359375,bear,oven,8-3-10,0876_eid_s03_8-3-10_oven_10_n04111531_7955.JPEG
subject-03,1,877,0.832054853439331,truck,bicycle,32-3-10,0877_eid_s03_32-3-10_bicycle_10_n02835271_12981.JPEG
subject-03,1,878,0.683752059936523,airplane,airplane,128-10-10,0878_eid_s03_128-10-10_airplane_10_n02690373_17262.JPEG
subject-03,1,879,0.791060924530029,car,car,8-0-10,0879_eid_s03_8-0-10_car_10_n04285008_6581.JPEG
subject-03,1,880,0.927266836166382,dog,bear,1-10-10,0880_eid_s03_1-10-10_bear_10_n02132136_3963.JPEG
subject-03,1,881,0.581738948822021,clock,cat,8-3-10,0881_eid_s03_8-3-10_cat_10_n02123597_10667.JPEG
subject-03,1,882,0.550696134567261,cat,knife,32-3-10,0882_eid_s03_32-3-10_knife_10_n03041632_29285.JPEG
subject-03,1,883,0.594929933547974,chair,chair,8-0-10,0883_eid_s03_8-0-10_chair_10_n03376595_1130.JPEG
subject-03,1,884,0.693518877029419,bicycle,chair,2-0-10,0884_eid_s03_2-0-10_chair_10_n03376595_10039.JPEG
subject-03,1,885,0.646260023117065,boat,knife,8-0-10,0885_eid_s03_8-0-10_knife_10_n03041632_25603.JPEG
subject-03,1,886,0.484264850616455,cat,knife,128-10-10,0886_eid_s03_128-10-10_knife_10_n03041632_8468.JPEG
subject-03,1,887,0.852986097335815,bear,knife,128-0-10,0887_eid_s03_128-0-10_knife_10_n03041632_36789.JPEG
subject-03,1,888,0.875822067260742,clock,knife,64-3-10,0888_eid_s03_64-3-10_knife_10_n03041632_76163.JPEG
subject-03,1,889,0.466385126113892,airplane,elephant,64-0-10,0889_eid_s03_64-0-10_elephant_10_n02504013_15920.JPEG
subject-03,1,890,0.704984903335571,chair,dog,2-10-10,0890_eid_s03_2-10-10_dog_10_n02095570_4436.JPEG
subject-03,1,891,0.550071954727173,bicycle,truck,8-0-10,0891_eid_s03_8-0-10_truck_10_n03417042_12013.JPEG
subject-03,1,892,0.726353883743286,bear,elephant,2-0-10,0892_eid_s03_2-0-10_elephant_10_n02504458_3094.JPEG
subject-03,1,893,0.49440598487854,boat,cat,16-10-10,0893_eid_s03_16-10-10_cat_10_n02123159_509.JPEG
subject-03,1,894,0.555320978164673,cat,cat,2-10-10,0894_eid_s03_2-10-10_cat_10_n02124075_8630.JPEG
subject-03,1,895,0.832082986831665,bicycle,bicycle,2-0-10,0895_eid_s03_2-0-10_bicycle_10_n03792782_1983.JPEG
subject-03,1,896,0.676585912704468,chair,chair,2-10-10,0896_eid_s03_2-10-10_chair_10_n04099969_72.JPEG
subject-03,1,897,0.623473882675171,clock,bird,32-3-10,0897_eid_s03_32-3-10_bird_10_n02002556_7054.JPEG
subject-03,1,898,0.705590009689331,bicycle,boat,4-3-10,0898_eid_s03_4-3-10_boat_10_n03662601_14041.JPEG
subject-03,1,899,0.552160024642944,chair,chair,1-0-10,0899_eid_s03_1-0-10_chair_10_n02791124_7494.JPEG
subject-03,1,900,0.920658111572266,bottle,knife,8-10-10,0900_eid_s03_8-10-10_knife_10_n03041632_11741.JPEG
subject-03,1,901,0.765253067016602,bicycle,dog,64-10-10,0901_eid_s03_64-10-10_dog_10_n02091635_6280.JPEG
subject-03,1,902,0.6334547996521,bird,bird,1-10-10,0902_eid_s03_1-10-10_bird_10_n01829413_4954.JPEG
subject-03,1,903,0.609758138656616,cat,cat,2-10-10,0903_eid_s03_2-10-10_cat_10_n02123159_1653.JPEG
subject-03,1,904,0.846224069595337,truck,truck,2-10-10,0904_eid_s03_2-10-10_truck_10_n03796401_13740.JPEG
subject-03,1,905,0.668561935424805,chair,chair,8-10-10,0905_eid_s03_8-10-10_chair_10_n02791124_2833.JPEG
subject-03,1,906,0.583698034286499,airplane,truck,4-0-10,0906_eid_s03_4-0-10_truck_10_n04467665_68706.JPEG
subject-03,1,907,0.44595193862915,boat,car,64-3-10,0907_eid_s03_64-3-10_car_10_n04285008_9456.JPEG
subject-03,1,908,0.536098957061768,boat,boat,4-10-10,0908_eid_s03_4-10-10_boat_10_n03662601_1561.JPEG
subject-03,1,909,0.689383029937744,boat,boat,4-10-10,0909_eid_s03_4-10-10_boat_10_n02951358_30289.JPEG
subject-03,1,910,0.874152898788452,elephant,elephant,2-10-10,0910_eid_s03_2-10-10_elephant_10_n02504013_2257.JPEG
subject-03,1,911,0.592485904693604,keyboard,keyboard,2-0-10,0911_eid_s03_2-0-10_keyboard_10_n03085013_31972.JPEG
subject-03,1,912,0.724784851074219,clock,elephant,16-0-10,0912_eid_s03_16-0-10_elephant_10_n02504013_4372.JPEG
subject-03,1,913,0.747339010238647,airplane,keyboard,16-10-10,0913_eid_s03_16-10-10_keyboard_10_n03085013_91.JPEG
subject-03,1,914,0.540153980255127,boat,airplane,32-10-10,0914_eid_s03_32-10-10_airplane_10_n02690373_9425.JPEG
subject-03,1,915,0.85472297668457,bear,cat,32-10-10,0915_eid_s03_32-10-10_cat_10_n02123045_12332.JPEG
subject-03,1,916,0.775551080703735,oven,oven,2-3-10,0916_eid_s03_2-3-10_oven_10_n04111531_10306.JPEG
subject-03,1,917,0.391294002532959,boat,knife,32-3-10,0917_eid_s03_32-3-10_knife_10_n03041632_86118.JPEG
subject-03,1,918,0.652101993560791,bear,bear,32-10-10,0918_eid_s03_32-10-10_bear_10_n02134418_5684.JPEG
subject-03,1,919,0.48863410949707,oven,boat,64-3-10,0919_eid_s03_64-3-10_boat_10_n04273569_11789.JPEG
subject-03,1,920,0.679362058639526,keyboard,bear,64-3-10,0920_eid_s03_64-3-10_bear_10_n02134084_2702.JPEG
subject-03,1,921,0.580388069152832,cat,cat,8-0-10,0921_eid_s03_8-0-10_cat_10_n02124075_14633.JPEG
subject-03,1,922,0.632593154907227,bear,truck,64-10-10,0922_eid_s03_64-10-10_truck_10_n03796401_7422.JPEG
subject-03,1,923,0.900913000106812,bird,bottle,16-10-10,0923_eid_s03_16-10-10_bottle_10_n02823428_1513.JPEG
subject-03,1,924,0.700680017471313,bear,keyboard,32-10-10,0924_eid_s03_32-10-10_keyboard_10_n04505470_4994.JPEG
subject-03,1,925,0.801123857498169,bear,bear,8-3-10,0925_eid_s03_8-3-10_bear_10_n02132136_7066.JPEG
subject-03,1,926,0.607491970062256,bottle,bottle,1-10-10,0926_eid_s03_1-10-10_bottle_10_n04591713_4335.JPEG
subject-03,1,927,0.522023916244507,cat,truck,16-0-10,0927_eid_s03_16-0-10_truck_10_n03796401_3427.JPEG
subject-03,1,928,0.928733825683594,dog,dog,1-0-10,0928_eid_s03_1-0-10_dog_10_n02110185_9015.JPEG
subject-03,1,929,0.712938070297241,bear,dog,128-3-10,0929_eid_s03_128-3-10_dog_10_n02106550_10375.JPEG
subject-03,1,930,0.781383037567139,boat,boat,1-10-10,0930_eid_s03_1-10-10_boat_10_n03344393_4011.JPEG
subject-03,1,931,0.419631004333496,boat,boat,8-0-10,0931_eid_s03_8-0-10_boat_10_n03344393_7497.JPEG
subject-03,1,932,0.594187021255493,bottle,knife,2-10-10,0932_eid_s03_2-10-10_knife_10_n03041632_24100.JPEG
subject-03,1,933,NaN,na,car,128-0-10,0933_eid_s03_128-0-10_car_10_n04285008_1359.JPEG
subject-03,1,934,0.84843111038208,bird,bird,1-3-10,0934_eid_s03_1-3-10_bird_10_n01818515_5539.JPEG
subject-03,1,935,0.709419012069702,bottle,oven,32-10-10,0935_eid_s03_32-10-10_oven_10_n04111531_9113.JPEG
subject-03,1,936,0.585915088653564,bottle,bottle,8-3-10,0936_eid_s03_8-3-10_bottle_10_n03983396_20591.JPEG
subject-03,1,937,0.670413017272949,bottle,chair,16-3-10,0937_eid_s03_16-3-10_chair_10_n04429376_10449.JPEG
subject-03,1,938,0.477249145507812,boat,bird,128-0-10,0938_eid_s03_128-0-10_bird_10_n01795545_13595.JPEG
subject-03,1,939,0.713352203369141,bottle,bottle,2-3-10,0939_eid_s03_2-3-10_bottle_10_n04591713_3054.JPEG
subject-03,1,940,0.697853088378906,chair,knife,16-3-10,0940_eid_s03_16-3-10_knife_10_n03041632_44133.JPEG
subject-03,1,941,0.650341033935547,boat,keyboard,32-3-10,0941_eid_s03_32-3-10_keyboard_10_n04505470_1097.JPEG
subject-03,1,942,0.627129077911377,bottle,keyboard,4-10-10,0942_eid_s03_4-10-10_keyboard_10_n03085013_1797.JPEG
subject-03,1,943,0.741798877716064,bicycle,bicycle,2-3-10,0943_eid_s03_2-3-10_bicycle_10_n03792782_65957.JPEG
subject-03,1,944,0.834697008132935,airplane,car,32-0-10,0944_eid_s03_32-0-10_car_10_n03100240_9362.JPEG
subject-03,1,945,0.541739940643311,bear,clock,32-3-10,0945_eid_s03_32-3-10_clock_10_n02708093_2650.JPEG
subject-03,1,946,0.648198843002319,clock,boat,128-3-10,0946_eid_s03_128-3-10_boat_10_n03662601_10589.JPEG
subject-03,1,947,0.870558023452759,bear,bird,128-3-10,0947_eid_s03_128-3-10_bird_10_n02018795_12684.JPEG
subject-03,1,948,0.709076881408691,car,car,4-10-10,0948_eid_s03_4-10-10_car_10_n02814533_4488.JPEG
subject-03,1,949,0.645740032196045,clock,keyboard,16-10-10,0949_eid_s03_16-10-10_keyboard_10_n04505470_1335.JPEG
subject-03,1,950,0.574960947036743,clock,clock,64-3-10,0950_eid_s03_64-3-10_clock_10_n02708093_3289.JPEG
subject-03,1,951,0.590581893920898,clock,clock,1-0-10,0951_eid_s03_1-0-10_clock_10_n04548280_3093.JPEG
subject-03,1,952,0.913715839385986,bicycle,airplane,32-3-10,0952_eid_s03_32-3-10_airplane_10_n02690373_3728.JPEG
subject-03,1,953,0.858113050460815,bird,chair,8-10-10,0953_eid_s03_8-10-10_chair_10_n03376595_3062.JPEG
subject-03,1,954,0.77253794670105,bear,elephant,8-10-10,0954_eid_s03_8-10-10_elephant_10_n02504013_6461.JPEG
subject-03,1,955,0.703477144241333,cat,knife,32-10-10,0955_eid_s03_32-10-10_knife_10_n03041632_10796.JPEG
