subj,session,trial,rt,object_response,category,condition,imagename
subject-06,3,1,NaN,na,bicycle,1-10-10,2561_eid_s06_1-10-10_bicycle_10_n02835271_5963.JPEG
subject-06,3,2,1.47492408752441,oven,cat,8-3-10,2562_eid_s06_8-3-10_cat_10_n02123159_3784.JPEG
subject-06,3,3,0.569583892822266,boat,truck,64-10-10,2563_eid_s06_64-10-10_truck_10_n03796401_26284.JPEG
subject-06,3,4,0.658448934555054,bird,cat,32-3-10,2564_eid_s06_32-3-10_cat_10_n02124075_8712.JPEG
subject-06,3,5,0.62425684928894,cat,bottle,32-3-10,2565_eid_s06_32-3-10_bottle_10_n04591713_4088.JPEG
subject-06,3,6,1.50005793571472,boat,oven,8-10-10,2566_eid_s06_8-10-10_oven_10_n04111531_2371.JPEG
subject-06,3,7,1.44448804855347,knife,knife,32-10-10,2567_eid_s06_32-10-10_knife_10_n03041632_29858.JPEG
subject-06,3,8,1.00646090507507,car,car,16-10-10,2568_eid_s06_16-10-10_car_10_n03100240_6078.JPEG
subject-06,3,9,0.69112491607666,bear,bear,1-3-10,2569_eid_s06_1-3-10_bear_10_n02133161_2016.JPEG
subject-06,3,10,1.34194898605347,bear,dog,64-0-10,2570_eid_s06_64-0-10_dog_10_n02102973_2202.JPEG
subject-06,3,11,1.00658822059631,dog,dog,4-3-10,2571_eid_s06_4-3-10_dog_10_n02098105_4386.JPEG
subject-06,3,12,0.575778007507324,bicycle,bicycle,1-0-10,2572_eid_s06_1-0-10_bicycle_10_n03792782_16290.JPEG
subject-06,3,13,0.709694862365723,elephant,elephant,2-10-10,2573_eid_s06_2-10-10_elephant_10_n02504013_435.JPEG
subject-06,3,14,0.744890928268433,bear,elephant,4-3-10,2574_eid_s06_4-3-10_elephant_10_n02504458_4439.JPEG
subject-06,3,15,0.825370073318481,bicycle,airplane,64-10-10,2575_eid_s06_64-10-10_airplane_10_n02690373_1050.JPEG
subject-06,3,16,0.644273996353149,bicycle,truck,64-3-10,2576_eid_s06_64-3-10_truck_10_n03796401_3495.JPEG
subject-06,3,17,0.602644920349121,cat,airplane,64-3-10,2577_eid_s06_64-3-10_airplane_10_n02690373_1781.JPEG
subject-06,3,18,1.12922811508179,truck,truck,8-10-10,2578_eid_s06_8-10-10_truck_10_n04467665_9031.JPEG
subject-06,3,19,0.801831007003784,cat,knife,128-0-10,2579_eid_s06_128-0-10_knife_10_n03041632_13225.JPEG
subject-06,3,20,0.827903985977173,bird,bird,1-10-10,2580_eid_s06_1-10-10_bird_10_n01530575_3923.JPEG
subject-06,3,21,0.983414888381958,bottle,bottle,4-3-10,2581_eid_s06_4-3-10_bottle_10_n03937543_4259.JPEG
subject-06,3,22,1.19408512115479,cat,bear,8-10-10,2582_eid_s06_8-10-10_bear_10_n02132136_11339.JPEG
subject-06,3,23,0.897083044052124,bicycle,bird,16-0-10,2583_eid_s06_16-0-10_bird_10_n02018795_5903.JPEG
subject-06,3,24,0.83899712562561,oven,dog,16-0-10,2584_eid_s06_16-0-10_dog_10_n02086910_15618.JPEG
subject-06,3,25,0.733988046646118,bicycle,dog,64-0-10,2585_eid_s06_64-0-10_dog_10_n02100236_8223.JPEG
subject-06,3,26,1.22269296646118,elephant,bottle,16-3-10,2586_eid_s06_16-3-10_bottle_10_n03983396_3396.JPEG
subject-06,3,27,0.935094833374023,truck,truck,2-10-10,2587_eid_s06_2-10-10_truck_10_n03796401_6681.JPEG
subject-06,3,28,0.821637868881226,knife,clock,2-3-10,2588_eid_s06_2-3-10_clock_10_n03196217_837.JPEG
subject-06,3,29,1.13496112823486,bicycle,keyboard,128-10-10,2589_eid_s06_128-10-10_keyboard_10_n03085013_24122.JPEG
subject-06,3,30,0.615715980529785,cat,cat,32-3-10,2590_eid_s06_32-3-10_cat_10_n02124075_3230.JPEG
subject-06,3,31,0.771934986114502,bicycle,airplane,32-0-10,2591_eid_s06_32-0-10_airplane_10_n02690373_1828.JPEG
subject-06,3,32,0.819265127182007,bicycle,oven,128-3-10,2592_eid_s06_128-3-10_oven_10_n04111531_8537.JPEG
subject-06,3,33,0.708017110824585,bicycle,bicycle,2-0-10,2593_eid_s06_2-0-10_bicycle_10_n03792782_16443.JPEG
subject-06,3,34,0.479465007781982,cat,cat,2-0-10,2594_eid_s06_2-0-10_cat_10_n02123159_617.JPEG
subject-06,3,35,0.828649044036865,dog,dog,8-10-10,2595_eid_s06_8-10-10_dog_10_n02109047_6059.JPEG
subject-06,3,36,0.733080863952637,airplane,airplane,4-3-10,2596_eid_s06_4-3-10_airplane_10_n02690373_2389.JPEG
subject-06,3,37,0.802541971206665,elephant,elephant,1-3-10,2597_eid_s06_1-3-10_elephant_10_n02504458_693.JPEG
subject-06,3,38,0.853209972381592,truck,boat,8-10-10,2598_eid_s06_8-10-10_boat_10_n03662601_34152.JPEG
subject-06,3,39,0.672128915786743,bicycle,knife,64-10-10,2599_eid_s06_64-10-10_knife_10_n03041632_52848.JPEG
subject-06,3,40,0.953150033950806,cat,bird,32-0-10,2600_eid_s06_32-0-10_bird_10_n01824575_3046.JPEG
subject-06,3,41,0.770221948623657,chair,bear,32-3-10,2601_eid_s06_32-3-10_bear_10_n02134418_4222.JPEG
subject-06,3,42,0.735199213027954,elephant,elephant,2-0-10,2602_eid_s06_2-0-10_elephant_10_n02504013_13338.JPEG
subject-06,3,43,0.715466976165771,oven,bear,16-0-10,2603_eid_s06_16-0-10_bear_10_n02134084_3535.JPEG
subject-06,3,44,0.65011191368103,cat,dog,64-10-10,2604_eid_s06_64-10-10_dog_10_n02110958_3861.JPEG
subject-06,3,45,0.821767091751099,elephant,elephant,1-3-10,2605_eid_s06_1-3-10_elephant_10_n02504013_10377.JPEG
subject-06,3,46,0.532742023468018,cat,knife,16-0-10,2606_eid_s06_16-0-10_knife_10_n03041632_54603.JPEG
subject-06,3,47,0.75919508934021,cat,dog,1-0-10,2607_eid_s06_1-0-10_dog_10_n02112350_7497.JPEG
subject-06,3,48,0.753615140914917,clock,chair,64-3-10,2608_eid_s06_64-3-10_chair_10_n02791124_8775.JPEG
subject-06,3,49,0.80484414100647,car,car,1-10-10,2609_eid_s06_1-10-10_car_10_n04285008_8495.JPEG
subject-06,3,50,0.851436138153076,truck,truck,8-0-10,2610_eid_s06_8-0-10_truck_10_n03417042_10462.JPEG
subject-06,3,51,1.3791880607605,bird,bear,64-0-10,2611_eid_s06_64-0-10_bear_10_n02133161_92.JPEG
subject-06,3,52,0.851617813110352,elephant,bird,8-10-10,2612_eid_s06_8-10-10_bird_10_n02017213_11576.JPEG
subject-06,3,53,0.661573886871338,cat,clock,64-3-10,2613_eid_s06_64-3-10_clock_10_n03196217_4916.JPEG
subject-06,3,54,1.29569602012634,clock,chair,128-3-10,2614_eid_s06_128-3-10_chair_10_n03376595_8346.JPEG
subject-06,3,55,0.860180139541626,chair,chair,4-10-10,2615_eid_s06_4-10-10_chair_10_n02791124_6074.JPEG
subject-06,3,56,0.724305868148804,airplane,knife,32-3-10,2616_eid_s06_32-3-10_knife_10_n03041632_6309.JPEG
subject-06,3,57,0.650678873062134,car,car,8-0-10,2617_eid_s06_8-0-10_car_10_n03100240_15070.JPEG
subject-06,3,58,1.18562293052673,elephant,elephant,2-3-10,2618_eid_s06_2-3-10_elephant_10_n02504013_5783.JPEG
subject-06,3,59,0.774235010147095,bottle,bottle,8-3-10,2619_eid_s06_8-3-10_bottle_10_n02823428_2403.JPEG
subject-06,3,60,1.13077402114868,airplane,truck,2-10-10,2620_eid_s06_2-10-10_truck_10_n04467665_34586.JPEG
subject-06,3,61,0.695482015609741,cat,clock,16-3-10,2621_eid_s06_16-3-10_clock_10_n04548280_3208.JPEG
subject-06,3,62,0.683957099914551,chair,chair,1-10-10,2622_eid_s06_1-10-10_chair_10_n04099969_1229.JPEG
subject-06,3,63,0.635117053985596,bicycle,bicycle,1-0-10,2623_eid_s06_1-0-10_bicycle_10_n03792782_18299.JPEG
subject-06,3,64,0.898612022399902,keyboard,keyboard,1-10-10,2624_eid_s06_1-10-10_keyboard_10_n03085013_20424.JPEG
subject-06,3,65,0.838254928588867,bicycle,bird,16-10-10,2625_eid_s06_16-10-10_bird_10_n02009912_3316.JPEG
subject-06,3,66,0.765316009521484,cat,boat,128-10-10,2626_eid_s06_128-10-10_boat_10_n04273569_13776.JPEG
subject-06,3,67,0.954328060150146,bird,cat,16-0-10,2627_eid_s06_16-0-10_cat_10_n02124075_11489.JPEG
subject-06,3,68,1.00138711929321,clock,clock,4-0-10,2628_eid_s06_4-0-10_clock_10_n02708093_5658.JPEG
subject-06,3,69,0.944857835769653,bicycle,keyboard,128-0-10,2629_eid_s06_128-0-10_keyboard_10_n04505470_6656.JPEG
subject-06,3,70,0.676015853881836,cat,airplane,32-3-10,2630_eid_s06_32-3-10_airplane_10_n02690373_4364.JPEG
subject-06,3,71,0.616094827651978,cat,airplane,32-3-10,2631_eid_s06_32-3-10_airplane_10_n02690373_5126.JPEG
subject-06,3,72,0.828217029571533,airplane,airplane,4-3-10,2632_eid_s06_4-3-10_airplane_10_n02690373_1233.JPEG
subject-06,3,73,0.738870859146118,dog,dog,4-10-10,2633_eid_s06_4-10-10_dog_10_n02094114_6779.JPEG
subject-06,3,74,0.980377912521362,airplane,airplane,4-3-10,2634_eid_s06_4-3-10_airplane_10_n02690373_5149.JPEG
subject-06,3,75,1.11278510093689,dog,boat,64-0-10,2635_eid_s06_64-0-10_boat_10_n03344393_8941.JPEG
subject-06,3,76,0.622334003448486,bicycle,bicycle,2-3-10,2636_eid_s06_2-3-10_bicycle_10_n02835271_8180.JPEG
subject-06,3,77,1.37896013259888,clock,clock,4-3-10,2637_eid_s06_4-3-10_clock_10_n03196217_3518.JPEG
subject-06,3,78,1.12984395027161,oven,oven,32-0-10,2638_eid_s06_32-0-10_oven_10_n04111531_1220.JPEG
subject-06,3,79,0.715934991836548,airplane,airplane,32-10-10,2639_eid_s06_32-10-10_airplane_10_n02690373_3294.JPEG
subject-06,3,80,0.834865093231201,boat,bird,16-3-10,2640_eid_s06_16-3-10_bird_10_n01833805_10824.JPEG
subject-06,3,81,1.29906797409058,knife,boat,4-0-10,2641_eid_s06_4-0-10_boat_10_n02951358_3855.JPEG
subject-06,3,82,0.741917848587036,chair,chair,1-3-10,2642_eid_s06_1-3-10_chair_10_n02791124_11512.JPEG
subject-06,3,83,0.729620218276978,truck,truck,1-3-10,2643_eid_s06_1-3-10_truck_10_n03417042_11306.JPEG
subject-06,3,84,0.585885047912598,cat,bottle,32-10-10,2644_eid_s06_32-10-10_bottle_10_n03983396_4236.JPEG
subject-06,3,85,0.888670921325684,bicycle,knife,32-3-10,2645_eid_s06_32-3-10_knife_10_n03041632_44269.JPEG
subject-06,3,86,0.806331872940063,truck,truck,16-10-10,2646_eid_s06_16-10-10_truck_10_n03417042_15179.JPEG
subject-06,3,87,1.33219408988953,bottle,chair,16-3-10,2647_eid_s06_16-3-10_chair_10_n04099969_4053.JPEG
subject-06,3,88,0.702680110931396,elephant,elephant,8-0-10,2648_eid_s06_8-0-10_elephant_10_n02504458_1410.JPEG
subject-06,3,89,0.63947606086731,airplane,airplane,4-10-10,2649_eid_s06_4-10-10_airplane_10_n02690373_19074.JPEG
subject-06,3,90,0.880245923995972,bird,bird,4-0-10,2650_eid_s06_4-0-10_bird_10_n01798484_13565.JPEG
subject-06,3,91,0.614437103271484,bicycle,truck,128-0-10,2651_eid_s06_128-0-10_truck_10_n03796401_8722.JPEG
subject-06,3,92,0.894654035568237,bear,chair,32-3-10,2652_eid_s06_32-3-10_chair_10_n04429376_49351.JPEG
subject-06,3,93,0.95087194442749,bicycle,chair,128-10-10,2653_eid_s06_128-10-10_chair_10_n02791124_6549.JPEG
subject-06,3,94,0.847453832626343,chair,keyboard,32-10-10,2654_eid_s06_32-10-10_keyboard_10_n03085013_22796.JPEG
subject-06,3,95,0.827841997146606,oven,bottle,16-3-10,2655_eid_s06_16-3-10_bottle_10_n04560804_183.JPEG
subject-06,3,96,0.892375946044922,chair,chair,8-3-10,2656_eid_s06_8-3-10_chair_10_n03376595_10579.JPEG
subject-06,3,97,0.69427490234375,bicycle,truck,64-10-10,2657_eid_s06_64-10-10_truck_10_n04467665_69970.JPEG
subject-06,3,98,1.06703615188599,boat,bear,128-3-10,2658_eid_s06_128-3-10_bear_10_n02132136_50.JPEG
subject-06,3,99,0.801681041717529,clock,clock,1-10-10,2659_eid_s06_1-10-10_clock_10_n04548280_4258.JPEG
subject-06,3,100,0.966519117355347,bottle,knife,2-0-10,2660_eid_s06_2-0-10_knife_10_n03041632_36789.JPEG
subject-06,3,101,0.724694013595581,bicycle,truck,128-3-10,2661_eid_s06_128-3-10_truck_10_n04467665_46263.JPEG
subject-06,3,102,0.965922832489014,bird,boat,8-10-10,2662_eid_s06_8-10-10_boat_10_n03344393_7773.JPEG
subject-06,3,103,1.02436900138855,bottle,bottle,8-10-10,2663_eid_s06_8-10-10_bottle_10_n04579145_5636.JPEG
subject-06,3,104,0.647890090942383,clock,clock,32-10-10,2664_eid_s06_32-10-10_clock_10_n04548280_6968.JPEG
subject-06,3,105,1.26879191398621,boat,keyboard,16-3-10,2665_eid_s06_16-3-10_keyboard_10_n04505470_3961.JPEG
subject-06,3,106,0.84149694442749,knife,keyboard,64-10-10,2666_eid_s06_64-10-10_keyboard_10_n03085013_18878.JPEG
subject-06,3,107,1.32222509384155,car,car,2-0-10,2667_eid_s06_2-0-10_car_10_n02814533_8306.JPEG
subject-06,3,108,0.579213857650757,airplane,airplane,32-10-10,2668_eid_s06_32-10-10_airplane_10_n02690373_20033.JPEG
subject-06,3,109,0.666657209396362,bicycle,bicycle,8-3-10,2669_eid_s06_8-3-10_bicycle_10_n02835271_8621.JPEG
subject-06,3,110,0.963825941085815,elephant,oven,128-0-10,2670_eid_s06_128-0-10_oven_10_n04111531_1977.JPEG
subject-06,3,111,0.719990015029907,oven,boat,32-0-10,2671_eid_s06_32-0-10_boat_10_n02951358_16653.JPEG
subject-06,3,112,0.943818092346191,bicycle,keyboard,32-3-10,2672_eid_s06_32-3-10_keyboard_10_n03085013_20858.JPEG
subject-06,3,113,0.602803945541382,airplane,airplane,2-0-10,2673_eid_s06_2-0-10_airplane_10_n02690373_464.JPEG
subject-06,3,114,1.18368005752563,bicycle,cat,64-3-10,2674_eid_s06_64-3-10_cat_10_n02123394_1674.JPEG
subject-06,3,115,0.893634080886841,bicycle,boat,128-0-10,2675_eid_s06_128-0-10_boat_10_n04273569_1493.JPEG
subject-06,3,116,0.620104789733887,oven,oven,4-10-10,2676_eid_s06_4-10-10_oven_10_n04111531_8793.JPEG
subject-06,3,117,0.846556901931763,elephant,cat,4-0-10,2677_eid_s06_4-0-10_cat_10_n02123159_2366.JPEG
subject-06,3,118,0.940838098526001,bottle,bottle,2-3-10,2678_eid_s06_2-3-10_bottle_10_n03937543_1416.JPEG
subject-06,3,119,0.783509969711304,chair,chair,2-10-10,2679_eid_s06_2-10-10_chair_10_n04099969_3711.JPEG
subject-06,3,120,1.36991500854492,airplane,airplane,2-10-10,2680_eid_s06_2-10-10_airplane_10_n02690373_2095.JPEG
subject-06,3,121,1.22844910621643,airplane,clock,8-0-10,2681_eid_s06_8-0-10_clock_10_n03196217_3289.JPEG
subject-06,3,122,0.846478939056396,clock,oven,128-10-10,2682_eid_s06_128-10-10_oven_10_n04111531_2241.JPEG
subject-06,3,123,NaN,na,oven,4-0-10,2683_eid_s06_4-0-10_oven_10_n04111531_15317.JPEG
subject-06,3,124,1.06725382804871,keyboard,bottle,128-0-10,2684_eid_s06_128-0-10_bottle_10_n04591713_1767.JPEG
subject-06,3,125,1.24835205078125,knife,knife,8-3-10,2685_eid_s06_8-3-10_knife_10_n03041632_131.JPEG
subject-06,3,126,0.590816974639893,keyboard,keyboard,2-0-10,2686_eid_s06_2-0-10_keyboard_10_n03085013_19512.JPEG
subject-06,3,127,0.555827856063843,cat,knife,128-10-10,2687_eid_s06_128-10-10_knife_10_n03041632_24646.JPEG
subject-06,3,128,0.652362108230591,clock,clock,4-3-10,2688_eid_s06_4-3-10_clock_10_n02708093_7537.JPEG
subject-06,3,129,1.10079884529114,elephant,elephant,16-10-10,2689_eid_s06_16-10-10_elephant_10_n02504013_4023.JPEG
subject-06,3,130,0.928015947341919,boat,dog,64-10-10,2690_eid_s06_64-10-10_dog_10_n02102177_2044.JPEG
subject-06,3,131,0.923388957977295,bottle,bottle,16-10-10,2691_eid_s06_16-10-10_bottle_10_n03983396_5914.JPEG
subject-06,3,132,0.95023512840271,bird,car,32-0-10,2692_eid_s06_32-0-10_car_10_n04285008_9375.JPEG
subject-06,3,133,0.919689893722534,car,car,2-10-10,2693_eid_s06_2-10-10_car_10_n03100240_17966.JPEG
subject-06,3,134,0.654453039169312,airplane,airplane,2-3-10,2694_eid_s06_2-3-10_airplane_10_n02690373_9012.JPEG
subject-06,3,135,0.697198867797852,bicycle,bicycle,4-3-10,2695_eid_s06_4-3-10_bicycle_10_n03792782_34271.JPEG
subject-06,3,136,1.08369588851929,truck,car,32-10-10,2696_eid_s06_32-10-10_car_10_n02814533_24935.JPEG
subject-06,3,137,1.40402483940125,bird,bird,64-10-10,2697_eid_s06_64-10-10_bird_10_n02007558_4122.JPEG
subject-06,3,138,0.666756868362427,airplane,airplane,64-10-10,2698_eid_s06_64-10-10_airplane_10_n02690373_181.JPEG
subject-06,3,139,1.03345608711243,airplane,airplane,128-10-10,2699_eid_s06_128-10-10_airplane_10_n02690373_6807.JPEG
subject-06,3,140,0.751842021942139,bear,elephant,32-10-10,2700_eid_s06_32-10-10_elephant_10_n02504458_4296.JPEG
subject-06,3,141,1.13032293319702,cat,cat,32-0-10,2701_eid_s06_32-0-10_cat_10_n02123045_13066.JPEG
subject-06,3,142,0.914444208145142,keyboard,oven,4-0-10,2702_eid_s06_4-0-10_oven_10_n04111531_2771.JPEG
subject-06,3,143,0.633281946182251,cat,cat,16-0-10,2703_eid_s06_16-0-10_cat_10_n02123394_2978.JPEG
subject-06,3,144,0.845922946929932,dog,dog,4-3-10,2704_eid_s06_4-3-10_dog_10_n02097047_2129.JPEG
subject-06,3,145,0.856379985809326,clock,clock,2-3-10,2705_eid_s06_2-3-10_clock_10_n02708093_2857.JPEG
subject-06,3,146,1.34482884407043,car,bear,1-0-10,2706_eid_s06_1-0-10_bear_10_n02133161_11551.JPEG
subject-06,3,147,0.669425010681152,airplane,airplane,1-0-10,2707_eid_s06_1-0-10_airplane_10_n02690373_9662.JPEG
subject-06,3,148,0.849966049194336,bear,bear,16-3-10,2708_eid_s06_16-3-10_bear_10_n02134084_22684.JPEG
subject-06,3,149,1.50036120414734,bird,airplane,128-0-10,2709_eid_s06_128-0-10_airplane_10_n02690373_3074.JPEG
subject-06,3,150,0.602561950683594,keyboard,keyboard,2-10-10,2710_eid_s06_2-10-10_keyboard_10_n04505470_1245.JPEG
subject-06,3,151,0.704941034317017,airplane,airplane,8-0-10,2711_eid_s06_8-0-10_airplane_10_n02690373_7591.JPEG
subject-06,3,152,0.740149974822998,clock,clock,2-10-10,2712_eid_s06_2-10-10_clock_10_n03196217_50.JPEG
subject-06,3,153,1.4969470500946,cat,elephant,16-10-10,2713_eid_s06_16-10-10_elephant_10_n02504458_1041.JPEG
subject-06,3,154,0.669812202453613,oven,oven,1-3-10,2714_eid_s06_1-3-10_oven_10_n04111531_13520.JPEG
subject-06,3,155,0.749849081039429,bicycle,bicycle,128-3-10,2715_eid_s06_128-3-10_bicycle_10_n02835271_15175.JPEG
subject-06,3,156,1.15406799316406,knife,knife,2-3-10,2716_eid_s06_2-3-10_knife_10_n03041632_22734.JPEG
subject-06,3,157,0.540818929672241,bird,bird,4-10-10,2717_eid_s06_4-10-10_bird_10_n02018207_3187.JPEG
subject-06,3,158,0.991473913192749,dog,elephant,64-10-10,2718_eid_s06_64-10-10_elephant_10_n02504013_104.JPEG
subject-06,3,159,0.747817039489746,bicycle,truck,32-3-10,2719_eid_s06_32-3-10_truck_10_n04467665_1748.JPEG
subject-06,3,160,0.604671001434326,bird,bird,1-0-10,2720_eid_s06_1-0-10_bird_10_n01530575_10024.JPEG
subject-06,3,161,0.855022192001343,bear,bear,4-0-10,2721_eid_s06_4-0-10_bear_10_n02134418_417.JPEG
subject-06,3,162,0.72336483001709,oven,clock,64-0-10,2722_eid_s06_64-0-10_clock_10_n02708093_1430.JPEG
subject-06,3,163,1.14782023429871,bicycle,car,16-3-10,2723_eid_s06_16-3-10_car_10_n03100240_14873.JPEG
subject-06,3,164,0.719703912734985,boat,boat,1-3-10,2724_eid_s06_1-3-10_boat_10_n04612504_11855.JPEG
subject-06,3,165,0.530009031295776,clock,clock,8-3-10,2725_eid_s06_8-3-10_clock_10_n02708093_6672.JPEG
subject-06,3,166,0.718941926956177,keyboard,keyboard,1-0-10,2726_eid_s06_1-0-10_keyboard_10_n03085013_22837.JPEG
subject-06,3,167,0.821766138076782,cat,knife,16-10-10,2727_eid_s06_16-10-10_knife_10_n03041632_4260.JPEG
subject-06,3,168,0.926496982574463,dog,car,16-0-10,2728_eid_s06_16-0-10_car_10_n04285008_2108.JPEG
subject-06,3,169,1.49999809265137,oven,oven,1-10-10,2729_eid_s06_1-10-10_oven_10_n04111531_15649.JPEG
subject-06,3,170,0.901278018951416,dog,dog,1-10-10,2730_eid_s06_1-10-10_dog_10_n02105162_7748.JPEG
subject-06,3,171,0.682188034057617,bicycle,bicycle,1-0-10,2731_eid_s06_1-0-10_bicycle_10_n03792782_77949.JPEG
subject-06,3,172,1.06786298751831,knife,knife,2-0-10,2732_eid_s06_2-0-10_knife_10_n03041632_21590.JPEG
subject-06,3,173,0.785567998886108,clock,clock,1-10-10,2733_eid_s06_1-10-10_clock_10_n04548280_7475.JPEG
subject-06,3,174,1.03376507759094,bottle,bottle,2-10-10,2734_eid_s06_2-10-10_bottle_10_n04591713_3632.JPEG
subject-06,3,175,0.612490892410278,cat,airplane,16-3-10,2735_eid_s06_16-3-10_airplane_10_n02690373_7748.JPEG
subject-06,3,176,0.938905954360962,bird,keyboard,16-0-10,2736_eid_s06_16-0-10_keyboard_10_n03085013_14844.JPEG
subject-06,3,177,1.07364082336426,bird,oven,4-3-10,2737_eid_s06_4-3-10_oven_10_n04111531_8344.JPEG
subject-06,3,178,0.899462938308716,bear,car,128-0-10,2738_eid_s06_128-0-10_car_10_n03100240_8599.JPEG
subject-06,3,179,0.648156881332397,cat,dog,64-3-10,2739_eid_s06_64-3-10_dog_10_n02106166_271.JPEG
subject-06,3,180,0.682921171188354,bear,bear,4-10-10,2740_eid_s06_4-10-10_bear_10_n02134418_4825.JPEG
subject-06,3,181,0.677181959152222,cat,cat,128-3-10,2741_eid_s06_128-3-10_cat_10_n02123597_4905.JPEG
subject-06,3,182,0.603396892547607,cat,cat,2-0-10,2742_eid_s06_2-0-10_cat_10_n02123597_13882.JPEG
subject-06,3,183,0.797802925109863,keyboard,keyboard,8-3-10,2743_eid_s06_8-3-10_keyboard_10_n04505470_4624.JPEG
subject-06,3,184,1.10266494750977,dog,chair,8-0-10,2744_eid_s06_8-0-10_chair_10_n04099969_1490.JPEG
subject-06,3,185,0.743498086929321,cat,keyboard,64-10-10,2745_eid_s06_64-10-10_keyboard_10_n03085013_19051.JPEG
subject-06,3,186,0.593631982803345,cat,bear,1-3-10,2746_eid_s06_1-3-10_bear_10_n02133161_4960.JPEG
subject-06,3,187,0.796284914016724,chair,oven,128-10-10,2747_eid_s06_128-10-10_oven_10_n04111531_22923.JPEG
subject-06,3,188,1.01210618019104,knife,boat,16-10-10,2748_eid_s06_16-10-10_boat_10_n02951358_464.JPEG
subject-06,3,189,0.816973924636841,airplane,chair,64-10-10,2749_eid_s06_64-10-10_chair_10_n03376595_6113.JPEG
subject-06,3,190,0.657699108123779,chair,chair,2-10-10,2750_eid_s06_2-10-10_chair_10_n04429376_3248.JPEG
subject-06,3,191,1.22428107261658,bottle,bird,2-3-10,2751_eid_s06_2-3-10_bird_10_n01616318_892.JPEG
subject-06,3,192,0.689099073410034,clock,bird,128-10-10,2752_eid_s06_128-10-10_bird_10_n01843383_2053.JPEG
subject-06,3,193,1.27593302726746,bear,dog,8-10-10,2753_eid_s06_8-10-10_dog_10_n02085936_4302.JPEG
subject-06,3,194,0.594035148620605,airplane,airplane,1-3-10,2754_eid_s06_1-3-10_airplane_10_n02690373_8446.JPEG
subject-06,3,195,0.636537790298462,airplane,airplane,2-10-10,2755_eid_s06_2-10-10_airplane_10_n02690373_1823.JPEG
subject-06,3,196,0.57685399055481,bear,bear,2-10-10,2756_eid_s06_2-10-10_bear_10_n02132136_4403.JPEG
subject-06,3,197,0.865411043167114,dog,dog,8-10-10,2757_eid_s06_8-10-10_dog_10_n02091831_304.JPEG
subject-06,3,198,0.646144866943359,bottle,bottle,4-3-10,2758_eid_s06_4-3-10_bottle_10_n03983396_517.JPEG
subject-06,3,199,0.878509044647217,chair,chair,8-3-10,2759_eid_s06_8-3-10_chair_10_n02791124_5099.JPEG
subject-06,3,200,0.975222110748291,boat,cat,64-0-10,2760_eid_s06_64-0-10_cat_10_n02123159_9845.JPEG
subject-06,3,201,0.961075067520142,bird,bird,2-10-10,2761_eid_s06_2-10-10_bird_10_n01616318_7514.JPEG
subject-06,3,202,0.842631816864014,bear,bear,2-3-10,2762_eid_s06_2-3-10_bear_10_n02133161_5066.JPEG
subject-06,3,203,0.65317702293396,cat,bird,64-0-10,2763_eid_s06_64-0-10_bird_10_n01855672_7426.JPEG
subject-06,3,204,0.59360408782959,oven,boat,32-3-10,2764_eid_s06_32-3-10_boat_10_n03662601_6269.JPEG
subject-06,3,205,0.991034030914307,bottle,bottle,4-10-10,2765_eid_s06_4-10-10_bottle_10_n04560804_2275.JPEG
subject-06,3,206,0.879601001739502,bottle,bottle,2-0-10,2766_eid_s06_2-0-10_bottle_10_n03937543_5657.JPEG
subject-06,3,207,0.741259813308716,knife,knife,4-10-10,2767_eid_s06_4-10-10_knife_10_n03041632_29684.JPEG
subject-06,3,208,0.583965063095093,chair,chair,4-3-10,2768_eid_s06_4-3-10_chair_10_n04099969_1293.JPEG
subject-06,3,209,0.662522077560425,dog,dog,4-3-10,2769_eid_s06_4-3-10_dog_10_n02113023_187.JPEG
subject-06,3,210,0.748111963272095,airplane,airplane,16-10-10,2770_eid_s06_16-10-10_airplane_10_n02690373_5177.JPEG
subject-06,3,211,0.537122011184692,cat,cat,32-10-10,2771_eid_s06_32-10-10_cat_10_n02123597_4931.JPEG
subject-06,3,212,0.579897880554199,cat,bear,32-0-10,2772_eid_s06_32-0-10_bear_10_n02132136_12138.JPEG
subject-06,3,213,0.774057865142822,dog,dog,4-3-10,2773_eid_s06_4-3-10_dog_10_n02093859_3376.JPEG
subject-06,3,214,0.792764186859131,cat,oven,64-0-10,2774_eid_s06_64-0-10_oven_10_n04111531_12450.JPEG
subject-06,3,215,0.419095993041992,cat,keyboard,32-0-10,2775_eid_s06_32-0-10_keyboard_10_n04505470_5058.JPEG
subject-06,3,216,0.73798394203186,bear,keyboard,16-0-10,2776_eid_s06_16-0-10_keyboard_10_n04505470_4994.JPEG
subject-06,3,217,0.602537155151367,airplane,airplane,8-3-10,2777_eid_s06_8-3-10_airplane_10_n02690373_17130.JPEG
subject-06,3,218,0.435065984725952,cat,cat,2-10-10,2778_eid_s06_2-10-10_cat_10_n02124075_12042.JPEG
subject-06,3,219,0.6856849193573,knife,knife,1-10-10,2779_eid_s06_1-10-10_knife_10_n03041632_4037.JPEG
subject-06,3,220,0.601576089859009,cat,cat,8-3-10,2780_eid_s06_8-3-10_cat_10_n02124075_11670.JPEG
subject-06,3,221,0.514516830444336,cat,oven,128-10-10,2781_eid_s06_128-10-10_oven_10_n04111531_1229.JPEG
subject-06,3,222,0.609004020690918,dog,dog,1-3-10,2782_eid_s06_1-3-10_dog_10_n02088632_8119.JPEG
subject-06,3,223,0.497396945953369,clock,clock,8-10-10,2783_eid_s06_8-10-10_clock_10_n02708093_5327.JPEG
subject-06,3,224,0.708184957504272,truck,truck,4-10-10,2784_eid_s06_4-10-10_truck_10_n03417042_6581.JPEG
subject-06,3,225,1.07328510284424,bird,bird,4-10-10,2785_eid_s06_4-10-10_bird_10_n01843065_593.JPEG
subject-06,3,226,0.575557947158813,airplane,airplane,1-3-10,2786_eid_s06_1-3-10_airplane_10_n02690373_3065.JPEG
subject-06,3,227,0.678050994873047,keyboard,keyboard,1-3-10,2787_eid_s06_1-3-10_keyboard_10_n04505470_10076.JPEG
subject-06,3,228,1.14292001724243,oven,boat,32-10-10,2788_eid_s06_32-10-10_boat_10_n03344393_4731.JPEG
subject-06,3,229,0.653235912322998,bicycle,bicycle,8-0-10,2789_eid_s06_8-0-10_bicycle_10_n03792782_6765.JPEG
subject-06,3,230,0.579917907714844,bear,bear,4-3-10,2790_eid_s06_4-3-10_bear_10_n02132136_33657.JPEG
subject-06,3,231,1.36876893043518,cat,airplane,64-0-10,2791_eid_s06_64-0-10_airplane_10_n02690373_5342.JPEG
subject-06,3,232,0.755573987960815,dog,dog,2-3-10,2792_eid_s06_2-3-10_dog_10_n02098105_10420.JPEG
subject-06,3,233,0.878958940505981,clock,dog,2-0-10,2793_eid_s06_2-0-10_dog_10_n02108915_1491.JPEG
subject-06,3,234,0.613714218139648,keyboard,keyboard,2-3-10,2794_eid_s06_2-3-10_keyboard_10_n04505470_344.JPEG
subject-06,3,235,0.570324897766113,knife,knife,16-10-10,2795_eid_s06_16-10-10_knife_10_n03041632_13130.JPEG
subject-06,3,236,0.567478179931641,truck,truck,2-10-10,2796_eid_s06_2-10-10_truck_10_n03417042_7191.JPEG
subject-06,3,237,0.56955099105835,cat,cat,64-0-10,2797_eid_s06_64-0-10_cat_10_n02125311_35924.JPEG
subject-06,3,238,0.650059938430786,bicycle,bicycle,4-10-10,2798_eid_s06_4-10-10_bicycle_10_n03792782_16707.JPEG
subject-06,3,239,1.00663208961487,chair,chair,4-10-10,2799_eid_s06_4-10-10_chair_10_n02791124_3352.JPEG
subject-06,3,240,0.947464942932129,chair,chair,2-10-10,2800_eid_s06_2-10-10_chair_10_n04429376_10544.JPEG
subject-06,3,241,1.3358039855957,oven,oven,1-10-10,2801_eid_s06_1-10-10_oven_10_n04111531_2458.JPEG
subject-06,3,242,1.15227699279785,clock,car,128-10-10,2802_eid_s06_128-10-10_car_10_n03100240_770.JPEG
subject-06,3,243,0.732669115066528,chair,chair,1-0-10,2803_eid_s06_1-0-10_chair_10_n03376595_8920.JPEG
subject-06,3,244,0.73564600944519,bicycle,chair,128-0-10,2804_eid_s06_128-0-10_chair_10_n02791124_5759.JPEG
subject-06,3,245,0.946496963500977,airplane,knife,1-0-10,2805_eid_s06_1-0-10_knife_10_n03041632_9635.JPEG
subject-06,3,246,0.673188924789429,airplane,airplane,1-10-10,2806_eid_s06_1-10-10_airplane_10_n02690373_5374.JPEG
subject-06,3,247,0.721581935882568,airplane,bottle,8-10-10,2807_eid_s06_8-10-10_bottle_10_n04557648_12300.JPEG
subject-06,3,248,1.01036596298218,bear,bear,4-0-10,2808_eid_s06_4-0-10_bear_10_n02134084_5740.JPEG
subject-06,3,249,0.683111190795898,bottle,bottle,1-3-10,2809_eid_s06_1-3-10_bottle_10_n03937543_4626.JPEG
subject-06,3,250,0.753806829452515,bird,bird,4-0-10,2810_eid_s06_4-0-10_bird_10_n01855032_7019.JPEG
subject-06,3,251,0.926377058029175,dog,dog,2-10-10,2811_eid_s06_2-10-10_dog_10_n02088364_2795.JPEG
subject-06,3,252,0.690829992294312,cat,knife,64-0-10,2812_eid_s06_64-0-10_knife_10_n03041632_26405.JPEG
subject-06,3,253,0.777246952056885,oven,car,128-3-10,2813_eid_s06_128-3-10_car_10_n02814533_4348.JPEG
subject-06,3,254,0.82616400718689,knife,knife,4-3-10,2814_eid_s06_4-3-10_knife_10_n03041632_13742.JPEG
subject-06,3,255,1.13083100318909,dog,dog,1-0-10,2815_eid_s06_1-0-10_dog_10_n02102973_6071.JPEG
subject-06,3,256,0.871015071868896,dog,chair,128-10-10,2816_eid_s06_128-10-10_chair_10_n04429376_8124.JPEG
subject-06,3,257,0.877830982208252,airplane,bottle,32-10-10,2817_eid_s06_32-10-10_bottle_10_n03983396_13788.JPEG
subject-06,3,258,0.480163097381592,cat,dog,32-0-10,2818_eid_s06_32-0-10_dog_10_n02108915_1419.JPEG
subject-06,3,259,0.452446937561035,clock,clock,1-3-10,2819_eid_s06_1-3-10_clock_10_n04548280_6068.JPEG
subject-06,3,260,0.569484949111938,cat,clock,64-3-10,2820_eid_s06_64-3-10_clock_10_n03196217_2511.JPEG
subject-06,3,261,0.749652147293091,oven,oven,8-3-10,2821_eid_s06_8-3-10_oven_10_n04111531_7421.JPEG
subject-06,3,262,0.798331022262573,bicycle,bird,64-0-10,2822_eid_s06_64-0-10_bird_10_n01817953_2378.JPEG
subject-06,3,263,0.647181034088135,boat,boat,4-10-10,2823_eid_s06_4-10-10_boat_10_n03662601_10463.JPEG
subject-06,3,264,0.711858987808228,bicycle,airplane,16-0-10,2824_eid_s06_16-0-10_airplane_10_n02690373_6716.JPEG
subject-06,3,265,0.790090084075928,bear,bear,8-3-10,2825_eid_s06_8-3-10_bear_10_n02132136_19512.JPEG
subject-06,3,266,0.692603826522827,keyboard,keyboard,2-10-10,2826_eid_s06_2-10-10_keyboard_10_n03085013_23534.JPEG
subject-06,3,267,0.910596132278442,elephant,elephant,16-10-10,2827_eid_s06_16-10-10_elephant_10_n02504458_5155.JPEG
subject-06,3,268,0.629592895507812,cat,cat,32-3-10,2828_eid_s06_32-3-10_cat_10_n02125311_27120.JPEG
subject-06,3,269,0.831944942474365,car,car,2-0-10,2829_eid_s06_2-0-10_car_10_n04285008_10917.JPEG
subject-06,3,270,0.810604095458984,knife,knife,1-0-10,2830_eid_s06_1-0-10_knife_10_n03041632_15099.JPEG
subject-06,3,271,0.704188108444214,airplane,airplane,2-3-10,2831_eid_s06_2-3-10_airplane_10_n02690373_1706.JPEG
subject-06,3,272,0.614992141723633,keyboard,keyboard,8-0-10,2832_eid_s06_8-0-10_keyboard_10_n03085013_19450.JPEG
subject-06,3,273,0.677380084991455,keyboard,keyboard,16-10-10,2833_eid_s06_16-10-10_keyboard_10_n03085013_1797.JPEG
subject-06,3,274,0.7968909740448,bear,bear,1-10-10,2834_eid_s06_1-10-10_bear_10_n02133161_11088.JPEG
subject-06,3,275,0.536453008651733,keyboard,keyboard,4-10-10,2835_eid_s06_4-10-10_keyboard_10_n04505470_10722.JPEG
subject-06,3,276,0.623153924942017,bicycle,elephant,128-3-10,2836_eid_s06_128-3-10_elephant_10_n02504013_4895.JPEG
subject-06,3,277,0.749641895294189,truck,truck,4-10-10,2837_eid_s06_4-10-10_truck_10_n03796401_24227.JPEG
subject-06,3,278,0.828166007995605,clock,bird,1-3-10,2838_eid_s06_1-3-10_bird_10_n01532829_39091.JPEG
subject-06,3,279,1.10907506942749,cat,boat,128-10-10,2839_eid_s06_128-10-10_boat_10_n02951358_1810.JPEG
subject-06,3,280,1.08783483505249,elephant,elephant,8-10-10,2840_eid_s06_8-10-10_elephant_10_n02504013_848.JPEG
subject-06,3,281,0.628296136856079,chair,chair,1-0-10,2841_eid_s06_1-0-10_chair_10_n02791124_7424.JPEG
subject-06,3,282,0.585001945495605,bicycle,bicycle,2-10-10,2842_eid_s06_2-10-10_bicycle_10_n03792782_6715.JPEG
subject-06,3,283,0.517264842987061,oven,dog,128-0-10,2843_eid_s06_128-0-10_dog_10_n02097658_2069.JPEG
subject-06,3,284,0.713623046875,airplane,bear,128-3-10,2844_eid_s06_128-3-10_bear_10_n02134084_1694.JPEG
subject-06,3,285,0.646186828613281,airplane,boat,16-10-10,2845_eid_s06_16-10-10_boat_10_n04273569_5426.JPEG
subject-06,3,286,0.569552898406982,bicycle,bicycle,16-0-10,2846_eid_s06_16-0-10_bicycle_10_n03792782_15598.JPEG
subject-06,3,287,1.45643496513367,chair,car,128-3-10,2847_eid_s06_128-3-10_car_10_n03100240_1477.JPEG
subject-06,3,288,0.604640007019043,bottle,bottle,2-3-10,2848_eid_s06_2-3-10_bottle_10_n03983396_1947.JPEG
subject-06,3,289,0.614773035049438,bear,elephant,32-10-10,2849_eid_s06_32-10-10_elephant_10_n02504013_618.JPEG
subject-06,3,290,0.608108043670654,chair,chair,1-3-10,2850_eid_s06_1-3-10_chair_10_n02791124_1018.JPEG
subject-06,3,291,0.740700960159302,knife,knife,1-0-10,2851_eid_s06_1-0-10_knife_10_n03041632_48675.JPEG
subject-06,3,292,0.675672054290771,cat,elephant,128-3-10,2852_eid_s06_128-3-10_elephant_10_n02504013_394.JPEG
subject-06,3,293,0.892858982086182,dog,dog,1-0-10,2853_eid_s06_1-0-10_dog_10_n02101388_19745.JPEG
subject-06,3,294,0.676715135574341,clock,clock,8-10-10,2854_eid_s06_8-10-10_clock_10_n04548280_7211.JPEG
subject-06,3,295,0.717622041702271,airplane,boat,16-10-10,2855_eid_s06_16-10-10_boat_10_n03344393_4592.JPEG
subject-06,3,296,1.04200577735901,airplane,car,8-0-10,2856_eid_s06_8-0-10_car_10_n03100240_16866.JPEG
subject-06,3,297,1.13641595840454,knife,knife,8-3-10,2857_eid_s06_8-3-10_knife_10_n03041632_22051.JPEG
subject-06,3,298,0.746807098388672,car,car,2-10-10,2858_eid_s06_2-10-10_car_10_n04285008_13629.JPEG
subject-06,3,299,0.649744033813477,cat,cat,32-3-10,2859_eid_s06_32-3-10_cat_10_n02123045_18019.JPEG
subject-06,3,300,0.760331869125366,dog,bear,64-3-10,2860_eid_s06_64-3-10_bear_10_n02134084_15764.JPEG
subject-06,3,301,1.5001060962677,car,clock,1-3-10,2861_eid_s06_1-3-10_clock_10_n03196217_1797.JPEG
subject-06,3,302,0.932429790496826,keyboard,keyboard,8-10-10,2862_eid_s06_8-10-10_keyboard_10_n04505470_7335.JPEG
subject-06,3,303,0.812611103057861,knife,bear,128-10-10,2863_eid_s06_128-10-10_bear_10_n02134084_40196.JPEG
subject-06,3,304,0.774488925933838,oven,oven,2-0-10,2864_eid_s06_2-0-10_oven_10_n04111531_3099.JPEG
subject-06,3,305,1.06332993507385,keyboard,elephant,32-0-10,2865_eid_s06_32-0-10_elephant_10_n02504458_4737.JPEG
subject-06,3,306,0.950358867645264,elephant,elephant,8-0-10,2866_eid_s06_8-0-10_elephant_10_n02504013_23660.JPEG
subject-06,3,307,0.514565944671631,cat,keyboard,4-10-10,2867_eid_s06_4-10-10_keyboard_10_n03085013_23295.JPEG
subject-06,3,308,0.993611097335815,cat,dog,128-10-10,2868_eid_s06_128-10-10_dog_10_n02095570_9154.JPEG
subject-06,3,309,0.90422797203064,airplane,elephant,128-10-10,2869_eid_s06_128-10-10_elephant_10_n02504013_6737.JPEG
subject-06,3,310,0.722769021987915,bear,knife,64-3-10,2870_eid_s06_64-3-10_knife_10_n03041632_44212.JPEG
subject-06,3,311,1.12521696090698,elephant,elephant,1-10-10,2871_eid_s06_1-10-10_elephant_10_n02504013_24713.JPEG
subject-06,3,312,0.989822149276733,car,oven,128-3-10,2872_eid_s06_128-3-10_oven_10_n04111531_3270.JPEG
subject-06,3,313,0.59826397895813,car,car,8-3-10,2873_eid_s06_8-3-10_car_10_n04285008_14334.JPEG
subject-06,3,314,0.678957939147949,cat,bird,128-0-10,2874_eid_s06_128-0-10_bird_10_n01817953_13685.JPEG
subject-06,3,315,0.673138856887817,keyboard,bear,128-3-10,2875_eid_s06_128-3-10_bear_10_n02133161_15103.JPEG
subject-06,3,316,0.667407989501953,cat,boat,32-3-10,2876_eid_s06_32-3-10_boat_10_n03662601_35635.JPEG
subject-06,3,317,0.507483959197998,clock,clock,2-3-10,2877_eid_s06_2-3-10_clock_10_n03196217_7867.JPEG
subject-06,3,318,1.104660987854,bicycle,elephant,128-10-10,2878_eid_s06_128-10-10_elephant_10_n02504013_2445.JPEG
subject-06,3,319,0.890461921691895,keyboard,chair,64-3-10,2879_eid_s06_64-3-10_chair_10_n04099969_13796.JPEG
subject-06,3,320,0.784686088562012,keyboard,airplane,32-3-10,2880_eid_s06_32-3-10_airplane_10_n02690373_5789.JPEG
subject-06,3,321,0.58762788772583,oven,bear,128-10-10,2881_eid_s06_128-10-10_bear_10_n02132136_2540.JPEG
subject-06,3,322,1.19087696075439,elephant,dog,16-10-10,2882_eid_s06_16-10-10_dog_10_n02112350_1243.JPEG
subject-06,3,323,0.663184881210327,bear,bear,8-10-10,2883_eid_s06_8-10-10_bear_10_n02132136_6505.JPEG
subject-06,3,324,1.07144522666931,truck,truck,4-3-10,2884_eid_s06_4-3-10_truck_10_n04467665_60448.JPEG
subject-06,3,325,1.09050703048706,keyboard,chair,64-10-10,2885_eid_s06_64-10-10_chair_10_n02791124_2319.JPEG
subject-06,3,326,1.13114285469055,bear,chair,8-3-10,2886_eid_s06_8-3-10_chair_10_n04429376_19616.JPEG
subject-06,3,327,0.611340999603271,keyboard,elephant,64-3-10,2887_eid_s06_64-3-10_elephant_10_n02504458_2041.JPEG
subject-06,3,328,0.597926139831543,bicycle,bottle,128-0-10,2888_eid_s06_128-0-10_bottle_10_n02823428_7102.JPEG
subject-06,3,329,0.784377098083496,airplane,airplane,4-0-10,2889_eid_s06_4-0-10_airplane_10_n02690373_7686.JPEG
subject-06,3,330,0.694955110549927,boat,boat,4-3-10,2890_eid_s06_4-3-10_boat_10_n04273569_12324.JPEG
subject-06,3,331,0.751403093338013,knife,knife,4-0-10,2891_eid_s06_4-0-10_knife_10_n03041632_10000.JPEG
subject-06,3,332,1.5000147819519,keyboard,keyboard,32-10-10,2892_eid_s06_32-10-10_keyboard_10_n04505470_4348.JPEG
subject-06,3,333,0.731660842895508,dog,dog,16-10-10,2893_eid_s06_16-10-10_dog_10_n02091244_12727.JPEG
subject-06,3,334,1.08820199966431,bird,bird,16-10-10,2894_eid_s06_16-10-10_bird_10_n02011460_3226.JPEG
subject-06,3,335,0.574554920196533,keyboard,keyboard,8-0-10,2895_eid_s06_8-0-10_keyboard_10_n03085013_20453.JPEG
subject-06,3,336,1.16938805580139,dog,dog,2-0-10,2896_eid_s06_2-0-10_dog_10_n02107574_620.JPEG
subject-06,3,337,0.50115704536438,bicycle,cat,32-3-10,2897_eid_s06_32-3-10_cat_10_n02123394_8507.JPEG
subject-06,3,338,0.765567064285278,truck,truck,2-0-10,2898_eid_s06_2-0-10_truck_10_n03417042_2671.JPEG
subject-06,3,339,1.1301109790802,car,car,2-10-10,2899_eid_s06_2-10-10_car_10_n03100240_2682.JPEG
subject-06,3,340,0.678707122802734,keyboard,bear,128-3-10,2900_eid_s06_128-3-10_bear_10_n02133161_5658.JPEG
subject-06,3,341,1.03277182579041,oven,clock,16-10-10,2901_eid_s06_16-10-10_clock_10_n02708093_2012.JPEG
subject-06,3,342,0.637907028198242,bicycle,bicycle,1-3-10,2902_eid_s06_1-3-10_bicycle_10_n02835271_12700.JPEG
subject-06,3,343,0.778226852416992,airplane,bird,64-10-10,2903_eid_s06_64-10-10_bird_10_n02037110_14364.JPEG
subject-06,3,344,1.30302596092224,chair,chair,1-10-10,2904_eid_s06_1-10-10_chair_10_n04429376_9740.JPEG
subject-06,3,345,0.522098064422607,knife,knife,4-10-10,2905_eid_s06_4-10-10_knife_10_n03041632_11358.JPEG
subject-06,3,346,0.724331140518188,clock,clock,16-10-10,2906_eid_s06_16-10-10_clock_10_n04548280_6743.JPEG
subject-06,3,347,1.10594797134399,car,car,16-3-10,2907_eid_s06_16-3-10_car_10_n02814533_88831.JPEG
subject-06,3,348,0.662399053573608,clock,clock,1-3-10,2908_eid_s06_1-3-10_clock_10_n03196217_108.JPEG
subject-06,3,349,0.72450590133667,cat,bottle,32-3-10,2909_eid_s06_32-3-10_bottle_10_n03937543_10624.JPEG
subject-06,3,350,0.881479024887085,bear,bird,128-10-10,2910_eid_s06_128-10-10_bird_10_n01819313_3479.JPEG
subject-06,3,351,1.09197902679443,boat,boat,2-0-10,2911_eid_s06_2-0-10_boat_10_n04612504_13184.JPEG
subject-06,3,352,0.694128036499023,oven,oven,128-10-10,2912_eid_s06_128-10-10_oven_10_n04111531_4234.JPEG
subject-06,3,353,1.10489916801453,bicycle,elephant,128-0-10,2913_eid_s06_128-0-10_elephant_10_n02504458_3261.JPEG
subject-06,3,354,1.00479483604431,bicycle,elephant,64-0-10,2914_eid_s06_64-0-10_elephant_10_n02504458_150.JPEG
subject-06,3,355,1.42331719398499,oven,oven,4-3-10,2915_eid_s06_4-3-10_oven_10_n04111531_6445.JPEG
subject-06,3,356,0.680290937423706,bicycle,car,32-3-10,2916_eid_s06_32-3-10_car_10_n03100240_12303.JPEG
subject-06,3,357,0.704345941543579,bicycle,knife,128-0-10,2917_eid_s06_128-0-10_knife_10_n03041632_22480.JPEG
subject-06,3,358,0.923033952713013,knife,bicycle,128-10-10,2918_eid_s06_128-10-10_bicycle_10_n03792782_51679.JPEG
subject-06,3,359,1.02572798728943,cat,truck,128-3-10,2919_eid_s06_128-3-10_truck_10_n03417042_25992.JPEG
subject-06,3,360,0.665879964828491,bottle,bicycle,32-0-10,2920_eid_s06_32-0-10_bicycle_10_n03792782_6159.JPEG
subject-06,3,361,0.769057989120483,dog,boat,32-10-10,2921_eid_s06_32-10-10_boat_10_n03344393_11257.JPEG
subject-06,3,362,0.77136492729187,bear,bear,8-10-10,2922_eid_s06_8-10-10_bear_10_n02133161_10768.JPEG
subject-06,3,363,0.850043773651123,boat,boat,1-10-10,2923_eid_s06_1-10-10_boat_10_n02951358_3651.JPEG
subject-06,3,364,0.898791074752808,elephant,bottle,32-3-10,2924_eid_s06_32-3-10_bottle_10_n04557648_7837.JPEG
subject-06,3,365,0.584870100021362,dog,dog,32-10-10,2925_eid_s06_32-10-10_dog_10_n02107683_4922.JPEG
subject-06,3,366,0.854849100112915,truck,truck,8-3-10,2926_eid_s06_8-3-10_truck_10_n03417042_26437.JPEG
subject-06,3,367,0.81309986114502,bicycle,boat,16-0-10,2927_eid_s06_16-0-10_boat_10_n02951358_33118.JPEG
subject-06,3,368,1.1151750087738,boat,bird,128-0-10,2928_eid_s06_128-0-10_bird_10_n02027492_20650.JPEG
subject-06,3,369,0.793977022171021,bottle,bottle,1-3-10,2929_eid_s06_1-3-10_bottle_10_n04557648_1634.JPEG
subject-06,3,370,1.21223998069763,bird,bird,8-3-10,2930_eid_s06_8-3-10_bird_10_n02028035_3805.JPEG
subject-06,3,371,0.82085108757019,cat,bear,64-0-10,2931_eid_s06_64-0-10_bear_10_n02134418_1031.JPEG
subject-06,3,372,0.814620971679688,bicycle,bottle,8-0-10,2932_eid_s06_8-0-10_bottle_10_n04591713_3083.JPEG
subject-06,3,373,0.592872142791748,keyboard,keyboard,2-10-10,2933_eid_s06_2-10-10_keyboard_10_n03085013_26164.JPEG
subject-06,3,374,0.726058006286621,bottle,bottle,4-3-10,2934_eid_s06_4-3-10_bottle_10_n02823428_5997.JPEG
subject-06,3,375,0.673314094543457,bicycle,keyboard,32-0-10,2935_eid_s06_32-0-10_keyboard_10_n04505470_9998.JPEG
subject-06,3,376,0.843026876449585,bicycle,bicycle,1-3-10,2936_eid_s06_1-3-10_bicycle_10_n02835271_14966.JPEG
subject-06,3,377,0.870441198348999,chair,chair,4-3-10,2937_eid_s06_4-3-10_chair_10_n04429376_10985.JPEG
subject-06,3,378,0.948650121688843,keyboard,keyboard,2-0-10,2938_eid_s06_2-0-10_keyboard_10_n04505470_1453.JPEG
subject-06,3,379,1.17299795150757,airplane,airplane,32-0-10,2939_eid_s06_32-0-10_airplane_10_n02690373_10079.JPEG
subject-06,3,380,1.05427002906799,oven,dog,64-3-10,2940_eid_s06_64-3-10_dog_10_n02112350_8303.JPEG
subject-06,3,381,0.739748954772949,bicycle,dog,128-10-10,2941_eid_s06_128-10-10_dog_10_n02090379_9589.JPEG
subject-06,3,382,0.734675884246826,clock,bottle,16-3-10,2942_eid_s06_16-3-10_bottle_10_n03937543_7493.JPEG
subject-06,3,383,0.521342992782593,bear,bear,4-0-10,2943_eid_s06_4-0-10_bear_10_n02133161_5313.JPEG
subject-06,3,384,1.21578097343445,bird,elephant,2-10-10,2944_eid_s06_2-10-10_elephant_10_n02504458_6938.JPEG
subject-06,3,385,0.831505060195923,bottle,oven,16-3-10,2945_eid_s06_16-3-10_oven_10_n04111531_14690.JPEG
subject-06,3,386,0.675075054168701,chair,oven,1-0-10,2946_eid_s06_1-0-10_oven_10_n04111531_15943.JPEG
subject-06,3,387,0.91237998008728,boat,boat,1-0-10,2947_eid_s06_1-0-10_boat_10_n04273569_27938.JPEG
subject-06,3,388,0.598640918731689,bear,bear,2-0-10,2948_eid_s06_2-0-10_bear_10_n02133161_7390.JPEG
subject-06,3,389,1.01456499099731,knife,bottle,16-10-10,2949_eid_s06_16-10-10_bottle_10_n03937543_5617.JPEG
subject-06,3,390,0.725340127944946,airplane,airplane,2-10-10,2950_eid_s06_2-10-10_airplane_10_n02690373_693.JPEG
subject-06,3,391,1.02030396461487,elephant,elephant,8-10-10,2951_eid_s06_8-10-10_elephant_10_n02504458_3656.JPEG
subject-06,3,392,0.531693935394287,bear,bear,2-0-10,2952_eid_s06_2-0-10_bear_10_n02133161_5756.JPEG
subject-06,3,393,0.971919059753418,knife,car,32-3-10,2953_eid_s06_32-3-10_car_10_n02814533_68178.JPEG
subject-06,3,394,0.558540821075439,boat,boat,8-0-10,2954_eid_s06_8-0-10_boat_10_n03662601_7041.JPEG
subject-06,3,395,0.890788078308105,bicycle,boat,32-3-10,2955_eid_s06_32-3-10_boat_10_n02951358_12625.JPEG
subject-06,3,396,0.793654918670654,bicycle,chair,64-0-10,2956_eid_s06_64-0-10_chair_10_n02791124_2813.JPEG
subject-06,3,397,1.13369488716125,elephant,elephant,16-3-10,2957_eid_s06_16-3-10_elephant_10_n02504458_1347.JPEG
subject-06,3,398,0.920450210571289,bird,bird,1-10-10,2958_eid_s06_1-10-10_bird_10_n02013706_1583.JPEG
subject-06,3,399,0.993437051773071,car,car,2-0-10,2959_eid_s06_2-0-10_car_10_n02814533_19312.JPEG
subject-06,3,400,1.17173290252686,bicycle,clock,32-0-10,2960_eid_s06_32-0-10_clock_10_n03196217_4051.JPEG
subject-06,3,401,0.882008075714111,elephant,elephant,8-3-10,2961_eid_s06_8-3-10_elephant_10_n02504013_6515.JPEG
subject-06,3,402,0.852547883987427,bicycle,car,64-0-10,2962_eid_s06_64-0-10_car_10_n04285008_1313.JPEG
subject-06,3,403,1.10091495513916,bird,cat,128-10-10,2963_eid_s06_128-10-10_cat_10_n02123597_12941.JPEG
subject-06,3,404,0.970782995223999,car,airplane,16-10-10,2964_eid_s06_16-10-10_airplane_10_n02690373_2967.JPEG
subject-06,3,405,0.85847282409668,oven,bird,128-3-10,2965_eid_s06_128-3-10_bird_10_n01833805_877.JPEG
subject-06,3,406,0.652965068817139,bottle,bottle,2-10-10,2966_eid_s06_2-10-10_bottle_10_n03983396_11761.JPEG
subject-06,3,407,0.80949878692627,bird,bird,1-3-10,2967_eid_s06_1-3-10_bird_10_n01531178_14122.JPEG
subject-06,3,408,0.941324949264526,bird,dog,16-10-10,2968_eid_s06_16-10-10_dog_10_n02113023_7360.JPEG
subject-06,3,409,0.558143854141235,clock,bird,128-10-10,2969_eid_s06_128-10-10_bird_10_n01530575_3912.JPEG
subject-06,3,410,0.576796054840088,clock,clock,4-10-10,2970_eid_s06_4-10-10_clock_10_n04548280_3827.JPEG
subject-06,3,411,0.787340879440308,bicycle,airplane,64-3-10,2971_eid_s06_64-3-10_airplane_10_n02690373_2837.JPEG
subject-06,3,412,1.0165319442749,elephant,chair,32-10-10,2972_eid_s06_32-10-10_chair_10_n04429376_28491.JPEG
subject-06,3,413,0.998018026351929,bicycle,boat,16-3-10,2973_eid_s06_16-3-10_boat_10_n02951358_5809.JPEG
subject-06,3,414,0.630985021591187,bicycle,bicycle,1-3-10,2974_eid_s06_1-3-10_bicycle_10_n03792782_17198.JPEG
subject-06,3,415,0.863895893096924,keyboard,keyboard,64-10-10,2975_eid_s06_64-10-10_keyboard_10_n03085013_8364.JPEG
subject-06,3,416,1.02012991905212,chair,chair,2-10-10,2976_eid_s06_2-10-10_chair_10_n04099969_14091.JPEG
subject-06,3,417,0.790073871612549,bottle,bottle,2-0-10,2977_eid_s06_2-0-10_bottle_10_n04560804_14267.JPEG
subject-06,3,418,0.715089797973633,clock,clock,4-3-10,2978_eid_s06_4-3-10_clock_10_n02708093_3996.JPEG
subject-06,3,419,0.70927095413208,bicycle,bicycle,8-10-10,2979_eid_s06_8-10-10_bicycle_10_n02835271_8560.JPEG
subject-06,3,420,1.08217215538025,car,bear,32-10-10,2980_eid_s06_32-10-10_bear_10_n02133161_5434.JPEG
subject-06,3,421,0.798709154129028,boat,boat,2-0-10,2981_eid_s06_2-0-10_boat_10_n03344393_2854.JPEG
subject-06,3,422,1.13119006156921,oven,dog,128-0-10,2982_eid_s06_128-0-10_dog_10_n02106550_10003.JPEG
subject-06,3,423,0.987679004669189,bicycle,car,32-0-10,2983_eid_s06_32-0-10_car_10_n03100240_6192.JPEG
subject-06,3,424,0.666232109069824,airplane,airplane,4-10-10,2984_eid_s06_4-10-10_airplane_10_n02690373_7004.JPEG
subject-06,3,425,0.56896710395813,cat,clock,16-0-10,2985_eid_s06_16-0-10_clock_10_n04548280_9218.JPEG
subject-06,3,426,0.455105066299438,clock,clock,2-0-10,2986_eid_s06_2-0-10_clock_10_n04548280_6046.JPEG
subject-06,3,427,0.70389199256897,boat,boat,32-10-10,2987_eid_s06_32-10-10_boat_10_n04273569_4121.JPEG
subject-06,3,428,0.898739099502563,bicycle,truck,8-0-10,2988_eid_s06_8-0-10_truck_10_n03417042_690.JPEG
subject-06,3,429,0.600681066513062,bear,bear,1-0-10,2989_eid_s06_1-0-10_bear_10_n02134084_20875.JPEG
subject-06,3,430,0.833436012268066,bicycle,elephant,16-3-10,2990_eid_s06_16-3-10_elephant_10_n02504458_5996.JPEG
subject-06,3,431,0.62811017036438,oven,chair,128-10-10,2991_eid_s06_128-10-10_chair_10_n02791124_2282.JPEG
subject-06,3,432,0.898482084274292,airplane,airplane,4-10-10,2992_eid_s06_4-10-10_airplane_10_n02690373_8559.JPEG
subject-06,3,433,0.515203952789307,cat,cat,16-3-10,2993_eid_s06_16-3-10_cat_10_n02123597_6333.JPEG
subject-06,3,434,0.695945978164673,bicycle,bicycle,64-0-10,2994_eid_s06_64-0-10_bicycle_10_n03792782_14293.JPEG
subject-06,3,435,0.749948978424072,bird,bird,2-3-10,2995_eid_s06_2-3-10_bird_10_n01531178_6449.JPEG
subject-06,3,436,1.00646805763245,truck,truck,4-3-10,2996_eid_s06_4-3-10_truck_10_n04467665_5665.JPEG
subject-06,3,437,0.977549076080322,boat,boat,2-3-10,2997_eid_s06_2-3-10_boat_10_n02951358_31198.JPEG
subject-06,3,438,0.563714027404785,bicycle,bird,128-3-10,2998_eid_s06_128-3-10_bird_10_n02025239_15526.JPEG
subject-06,3,439,1.40453004837036,bear,bear,32-10-10,2999_eid_s06_32-10-10_bear_10_n02134084_1945.JPEG
subject-06,3,440,0.723212957382202,bear,bear,2-0-10,3000_eid_s06_2-0-10_bear_10_n02134418_13651.JPEG
subject-06,3,441,0.593212842941284,clock,clock,1-0-10,3001_eid_s06_1-0-10_clock_10_n04548280_11828.JPEG
subject-06,3,442,0.849822044372559,bear,bottle,32-0-10,3002_eid_s06_32-0-10_bottle_10_n04557648_2005.JPEG
subject-06,3,443,0.874437093734741,bear,bear,2-3-10,3003_eid_s06_2-3-10_bear_10_n02132136_492.JPEG
subject-06,3,444,0.669425964355469,keyboard,keyboard,4-10-10,3004_eid_s06_4-10-10_keyboard_10_n04505470_810.JPEG
subject-06,3,445,0.825436115264893,truck,truck,2-0-10,3005_eid_s06_2-0-10_truck_10_n04467665_58523.JPEG
subject-06,3,446,1.06786704063416,knife,oven,4-3-10,3006_eid_s06_4-3-10_oven_10_n04111531_11655.JPEG
subject-06,3,447,0.902565002441406,elephant,elephant,4-10-10,3007_eid_s06_4-10-10_elephant_10_n02504013_1455.JPEG
subject-06,3,448,0.815804958343506,bear,elephant,64-3-10,3008_eid_s06_64-3-10_elephant_10_n02504013_6465.JPEG
subject-06,3,449,0.925526142120361,boat,clock,128-10-10,3009_eid_s06_128-10-10_clock_10_n04548280_702.JPEG
subject-06,3,450,1.32015705108643,airplane,airplane,8-10-10,3010_eid_s06_8-10-10_airplane_10_n02690373_8163.JPEG
subject-06,3,451,0.582720994949341,bicycle,bicycle,2-0-10,3011_eid_s06_2-0-10_bicycle_10_n02835271_12799.JPEG
subject-06,3,452,0.531064033508301,bear,bear,8-3-10,3012_eid_s06_8-3-10_bear_10_n02134084_17327.JPEG
subject-06,3,453,0.71765398979187,knife,knife,8-10-10,3013_eid_s06_8-10-10_knife_10_n03041632_42887.JPEG
subject-06,3,454,1.01176691055298,bird,bird,4-3-10,3014_eid_s06_4-3-10_bird_10_n01824575_7452.JPEG
subject-06,3,455,1.14492988586426,boat,bicycle,64-10-10,3015_eid_s06_64-10-10_bicycle_10_n03792782_50847.JPEG
subject-06,3,456,0.598529815673828,airplane,airplane,1-0-10,3016_eid_s06_1-0-10_airplane_10_n02690373_18383.JPEG
subject-06,3,457,0.716145992279053,boat,boat,4-10-10,3017_eid_s06_4-10-10_boat_10_n02951358_4937.JPEG
subject-06,3,458,0.648864030838013,knife,knife,32-10-10,3018_eid_s06_32-10-10_knife_10_n03041632_34676.JPEG
subject-06,3,459,0.943867921829224,clock,oven,16-3-10,3019_eid_s06_16-3-10_oven_10_n04111531_21931.JPEG
subject-06,3,460,0.646902084350586,car,car,1-0-10,3020_eid_s06_1-0-10_car_10_n03100240_4594.JPEG
subject-06,3,461,0.732955932617188,bear,bear,8-10-10,3021_eid_s06_8-10-10_bear_10_n02134084_272.JPEG
subject-06,3,462,0.911490917205811,elephant,elephant,16-3-10,3022_eid_s06_16-3-10_elephant_10_n02504458_5561.JPEG
subject-06,3,463,0.651859998703003,bicycle,car,128-3-10,3023_eid_s06_128-3-10_car_10_n03100240_8591.JPEG
subject-06,3,464,1.13124799728394,chair,chair,8-10-10,3024_eid_s06_8-10-10_chair_10_n02791124_515.JPEG
subject-06,3,465,0.495898008346558,bicycle,bicycle,4-10-10,3025_eid_s06_4-10-10_bicycle_10_n03792782_6614.JPEG
subject-06,3,466,0.782332181930542,truck,truck,4-0-10,3026_eid_s06_4-0-10_truck_10_n03796401_10366.JPEG
subject-06,3,467,1.10900402069092,clock,clock,1-10-10,3027_eid_s06_1-10-10_clock_10_n04548280_9867.JPEG
subject-06,3,468,0.578634977340698,bear,elephant,64-10-10,3028_eid_s06_64-10-10_elephant_10_n02504458_3881.JPEG
subject-06,3,469,0.644031047821045,bear,dog,16-10-10,3029_eid_s06_16-10-10_dog_10_n02090622_7344.JPEG
subject-06,3,470,0.884012937545776,bicycle,airplane,16-3-10,3030_eid_s06_16-3-10_airplane_10_n02690373_8444.JPEG
subject-06,3,471,0.954642057418823,bicycle,bear,32-0-10,3031_eid_s06_32-0-10_bear_10_n02134084_5084.JPEG
subject-06,3,472,0.695015907287598,bicycle,bird,32-0-10,3032_eid_s06_32-0-10_bird_10_n01797886_5063.JPEG
subject-06,3,473,0.564611911773682,boat,boat,1-3-10,3033_eid_s06_1-3-10_boat_10_n03662601_18676.JPEG
subject-06,3,474,0.58093786239624,keyboard,keyboard,16-10-10,3034_eid_s06_16-10-10_keyboard_10_n03085013_2139.JPEG
subject-06,3,475,1.13775300979614,elephant,elephant,16-0-10,3035_eid_s06_16-0-10_elephant_10_n02504013_3805.JPEG
subject-06,3,476,0.624468088150024,bear,bear,2-10-10,3036_eid_s06_2-10-10_bear_10_n02132136_5094.JPEG
subject-06,3,477,1.00305914878845,cat,dog,32-3-10,3037_eid_s06_32-3-10_dog_10_n02111129_5568.JPEG
subject-06,3,478,0.843326091766357,boat,boat,2-3-10,3038_eid_s06_2-3-10_boat_10_n03662601_6340.JPEG
subject-06,3,479,0.984354972839355,bicycle,bear,128-0-10,3039_eid_s06_128-0-10_bear_10_n02134084_6505.JPEG
subject-06,3,480,0.924995899200439,bear,elephant,128-3-10,3040_eid_s06_128-3-10_elephant_10_n02504013_8308.JPEG
subject-06,3,481,0.773386001586914,elephant,elephant,2-3-10,3041_eid_s06_2-3-10_elephant_10_n02504013_10765.JPEG
subject-06,3,482,0.713793039321899,bicycle,bird,128-3-10,3042_eid_s06_128-3-10_bird_10_n01795545_9856.JPEG
subject-06,3,483,0.654699087142944,bicycle,bicycle,16-0-10,3043_eid_s06_16-0-10_bicycle_10_n02835271_5289.JPEG
subject-06,3,484,0.761200189590454,oven,oven,4-10-10,3044_eid_s06_4-10-10_oven_10_n04111531_114.JPEG
subject-06,3,485,0.656738996505737,keyboard,car,64-10-10,3045_eid_s06_64-10-10_car_10_n04285008_6271.JPEG
subject-06,3,486,1.30487608909607,bird,knife,16-0-10,3046_eid_s06_16-0-10_knife_10_n03041632_3171.JPEG
subject-06,3,487,0.977541923522949,keyboard,oven,16-10-10,3047_eid_s06_16-10-10_oven_10_n04111531_8193.JPEG
subject-06,3,488,0.764076948165894,chair,chair,4-3-10,3048_eid_s06_4-3-10_chair_10_n03376595_13927.JPEG
subject-06,3,489,1.43444609642029,airplane,clock,32-0-10,3049_eid_s06_32-0-10_clock_10_n02708093_7956.JPEG
subject-06,3,490,0.659051895141602,bicycle,boat,8-0-10,3050_eid_s06_8-0-10_boat_10_n02951358_31190.JPEG
subject-06,3,491,0.614377021789551,bird,bird,1-0-10,3051_eid_s06_1-0-10_bird_10_n02025239_2155.JPEG
subject-06,3,492,0.560806035995483,cat,bird,64-3-10,3052_eid_s06_64-3-10_bird_10_n02002556_2306.JPEG
subject-06,3,493,1.14743518829346,bear,clock,16-0-10,3053_eid_s06_16-0-10_clock_10_n03196217_4224.JPEG
subject-06,3,494,1.11186099052429,bottle,bottle,1-0-10,3054_eid_s06_1-0-10_bottle_10_n02823428_4646.JPEG
subject-06,3,495,0.928501129150391,bear,chair,64-0-10,3055_eid_s06_64-0-10_chair_10_n02791124_4728.JPEG
subject-06,3,496,1.19314193725586,airplane,airplane,32-3-10,3056_eid_s06_32-3-10_airplane_10_n02690373_6465.JPEG
subject-06,3,497,1.03354501724243,bicycle,boat,128-10-10,3057_eid_s06_128-10-10_boat_10_n03344393_6679.JPEG
subject-06,3,498,0.728549003601074,cat,airplane,128-3-10,3058_eid_s06_128-3-10_airplane_10_n02690373_6231.JPEG
subject-06,3,499,0.622761011123657,boat,knife,128-0-10,3059_eid_s06_128-0-10_knife_10_n03041632_22738.JPEG
subject-06,3,500,0.563420057296753,bottle,bottle,4-3-10,3060_eid_s06_4-3-10_bottle_10_n04591713_5255.JPEG
subject-06,3,501,1.25798797607422,keyboard,bottle,4-10-10,3061_eid_s06_4-10-10_bottle_10_n02823428_13649.JPEG
subject-06,3,502,0.824744939804077,bear,elephant,16-0-10,3062_eid_s06_16-0-10_elephant_10_n02504458_10100.JPEG
subject-06,3,503,0.689506053924561,bottle,bottle,16-3-10,3063_eid_s06_16-3-10_bottle_10_n04579145_664.JPEG
subject-06,3,504,0.767881155014038,elephant,elephant,1-3-10,3064_eid_s06_1-3-10_elephant_10_n02504013_7163.JPEG
subject-06,3,505,0.778647899627686,bicycle,clock,128-3-10,3065_eid_s06_128-3-10_clock_10_n04548280_8892.JPEG
subject-06,3,506,0.697219848632812,boat,boat,64-3-10,3066_eid_s06_64-3-10_boat_10_n04612504_37271.JPEG
subject-06,3,507,1.09836602210999,cat,bicycle,32-10-10,3067_eid_s06_32-10-10_bicycle_10_n03792782_18746.JPEG
subject-06,3,508,0.592617034912109,cat,elephant,128-10-10,3068_eid_s06_128-10-10_elephant_10_n02504458_3416.JPEG
subject-06,3,509,0.565282821655273,clock,clock,1-10-10,3069_eid_s06_1-10-10_clock_10_n03196217_3605.JPEG
subject-06,3,510,1.04412889480591,chair,chair,8-3-10,3070_eid_s06_8-3-10_chair_10_n04099969_2989.JPEG
subject-06,3,511,1.20909404754639,boat,boat,4-0-10,3071_eid_s06_4-0-10_boat_10_n03344393_4422.JPEG
subject-06,3,512,0.888302803039551,boat,dog,32-10-10,3072_eid_s06_32-10-10_dog_10_n02087046_4860.JPEG
subject-06,3,513,0.589695930480957,bicycle,clock,64-0-10,3073_eid_s06_64-0-10_clock_10_n04548280_1411.JPEG
subject-06,3,514,0.63051700592041,bird,bird,2-10-10,3074_eid_s06_2-10-10_bird_10_n01819313_3780.JPEG
subject-06,3,515,0.554633140563965,clock,chair,1-10-10,3075_eid_s06_1-10-10_chair_10_n04429376_49198.JPEG
subject-06,3,516,0.816256046295166,bear,bear,2-3-10,3076_eid_s06_2-3-10_bear_10_n02132136_25168.JPEG
subject-06,3,517,0.589298009872437,keyboard,keyboard,1-10-10,3077_eid_s06_1-10-10_keyboard_10_n03085013_24472.JPEG
subject-06,3,518,0.583595037460327,bear,chair,32-0-10,3078_eid_s06_32-0-10_chair_10_n04429376_23092.JPEG
subject-06,3,519,0.569372177124023,oven,bottle,8-10-10,3079_eid_s06_8-10-10_bottle_10_n03937543_6380.JPEG
subject-06,3,520,1.17250800132751,knife,knife,1-10-10,3080_eid_s06_1-10-10_knife_10_n03041632_34769.JPEG
subject-06,3,521,0.705583095550537,airplane,airplane,4-3-10,3081_eid_s06_4-3-10_airplane_10_n02690373_15472.JPEG
subject-06,3,522,0.569746017456055,boat,knife,16-0-10,3082_eid_s06_16-0-10_knife_10_n03041632_83472.JPEG
subject-06,3,523,0.60224986076355,bicycle,bear,64-3-10,3083_eid_s06_64-3-10_bear_10_n02134418_1967.JPEG
subject-06,3,524,0.796989917755127,bird,bird,4-3-10,3084_eid_s06_4-3-10_bird_10_n02037110_3626.JPEG
subject-06,3,525,0.913295984268188,bicycle,cat,128-3-10,3085_eid_s06_128-3-10_cat_10_n02125311_4261.JPEG
subject-06,3,526,0.546182870864868,bottle,bottle,4-0-10,3086_eid_s06_4-0-10_bottle_10_n03937543_1305.JPEG
subject-06,3,527,1.02432894706726,elephant,bird,128-10-10,3087_eid_s06_128-10-10_bird_10_n01797886_6388.JPEG
subject-06,3,528,1.15051794052124,bear,keyboard,16-0-10,3088_eid_s06_16-0-10_keyboard_10_n04505470_4951.JPEG
subject-06,3,529,0.596812963485718,bottle,bottle,1-0-10,3089_eid_s06_1-0-10_bottle_10_n03937543_468.JPEG
subject-06,3,530,0.983658075332642,bird,chair,128-10-10,3090_eid_s06_128-10-10_chair_10_n03376595_12602.JPEG
subject-06,3,531,0.694211959838867,keyboard,keyboard,1-0-10,3091_eid_s06_1-0-10_keyboard_10_n03085013_23885.JPEG
subject-06,3,532,1.09684205055237,airplane,boat,128-10-10,3092_eid_s06_128-10-10_boat_10_n04273569_6569.JPEG
subject-06,3,533,0.497319936752319,cat,truck,32-10-10,3093_eid_s06_32-10-10_truck_10_n03417042_28552.JPEG
subject-06,3,534,0.691468000411987,airplane,airplane,2-0-10,3094_eid_s06_2-0-10_airplane_10_n02690373_8175.JPEG
subject-06,3,535,0.640650987625122,bicycle,bicycle,8-10-10,3095_eid_s06_8-10-10_bicycle_10_n03792782_47774.JPEG
subject-06,3,536,0.597141981124878,cat,oven,64-0-10,3096_eid_s06_64-0-10_oven_10_n04111531_10358.JPEG
subject-06,3,537,0.68412184715271,chair,bear,64-0-10,3097_eid_s06_64-0-10_bear_10_n02134084_9586.JPEG
subject-06,3,538,0.637280941009521,airplane,airplane,2-10-10,3098_eid_s06_2-10-10_airplane_10_n02690373_6825.JPEG
subject-06,3,539,0.810358047485352,bicycle,airplane,16-3-10,3099_eid_s06_16-3-10_airplane_10_n02690373_4921.JPEG
subject-06,3,540,1.50033402442932,cat,cat,8-0-10,3100_eid_s06_8-0-10_cat_10_n02123159_6064.JPEG
subject-06,3,541,0.528572082519531,cat,boat,128-10-10,3101_eid_s06_128-10-10_boat_10_n03344393_14177.JPEG
subject-06,3,542,0.691237926483154,bicycle,knife,64-0-10,3102_eid_s06_64-0-10_knife_10_n03041632_36235.JPEG
subject-06,3,543,0.701519966125488,truck,truck,2-0-10,3103_eid_s06_2-0-10_truck_10_n03796401_9038.JPEG
subject-06,3,544,1.0424530506134,bicycle,bottle,64-10-10,3104_eid_s06_64-10-10_bottle_10_n04557648_4620.JPEG
subject-06,3,545,1.17456793785095,cat,oven,32-0-10,3105_eid_s06_32-0-10_oven_10_n04111531_4750.JPEG
subject-06,3,546,0.96097207069397,airplane,truck,64-3-10,3106_eid_s06_64-3-10_truck_10_n03796401_12606.JPEG
subject-06,3,547,0.72337007522583,chair,chair,4-0-10,3107_eid_s06_4-0-10_chair_10_n03376595_9656.JPEG
subject-06,3,548,0.595753908157349,boat,boat,1-0-10,3108_eid_s06_1-0-10_boat_10_n02951358_30736.JPEG
subject-06,3,549,0.696637153625488,bicycle,elephant,32-3-10,3109_eid_s06_32-3-10_elephant_10_n02504458_12578.JPEG
subject-06,3,550,0.761451005935669,chair,bottle,16-10-10,3110_eid_s06_16-10-10_bottle_10_n04591713_3883.JPEG
subject-06,3,551,0.656332969665527,bicycle,truck,64-0-10,3111_eid_s06_64-0-10_truck_10_n04467665_749.JPEG
subject-06,3,552,1.03453493118286,knife,knife,2-3-10,3112_eid_s06_2-3-10_knife_10_n03041632_29337.JPEG
subject-06,3,553,0.583146095275879,cat,clock,32-3-10,3113_eid_s06_32-3-10_clock_10_n04548280_7589.JPEG
subject-06,3,554,0.661807060241699,chair,chair,1-10-10,3114_eid_s06_1-10-10_chair_10_n04429376_12450.JPEG
subject-06,3,555,0.702162981033325,bottle,bottle,4-10-10,3115_eid_s06_4-10-10_bottle_10_n04560804_15923.JPEG
subject-06,3,556,1.35884785652161,dog,dog,32-3-10,3116_eid_s06_32-3-10_dog_10_n02097047_2164.JPEG
subject-06,3,557,0.829097986221313,chair,elephant,2-10-10,3117_eid_s06_2-10-10_elephant_10_n02504013_7032.JPEG
subject-06,3,558,0.539888858795166,cat,cat,1-0-10,3118_eid_s06_1-0-10_cat_10_n02125311_73072.JPEG
subject-06,3,559,0.534353971481323,cat,cat,1-3-10,3119_eid_s06_1-3-10_cat_10_n02123159_1032.JPEG
subject-06,3,560,0.958562135696411,dog,bicycle,16-0-10,3120_eid_s06_16-0-10_bicycle_10_n03792782_4516.JPEG
subject-06,3,561,0.923856019973755,boat,boat,1-10-10,3121_eid_s06_1-10-10_boat_10_n02951358_4826.JPEG
subject-06,3,562,0.502079010009766,chair,chair,4-3-10,3122_eid_s06_4-3-10_chair_10_n04099969_42125.JPEG
subject-06,3,563,0.718483924865723,cat,airplane,64-0-10,3123_eid_s06_64-0-10_airplane_10_n02690373_19131.JPEG
subject-06,3,564,0.743017911911011,knife,knife,2-10-10,3124_eid_s06_2-10-10_knife_10_n03041632_19098.JPEG
subject-06,3,565,0.945461988449097,dog,chair,32-10-10,3125_eid_s06_32-10-10_chair_10_n04429376_3845.JPEG
subject-06,3,566,1.50000286102295,bear,boat,32-10-10,3126_eid_s06_32-10-10_boat_10_n02951358_10132.JPEG
subject-06,3,567,0.803021907806396,knife,knife,4-3-10,3127_eid_s06_4-3-10_knife_10_n03041632_36247.JPEG
subject-06,3,568,0.905600070953369,chair,car,64-10-10,3128_eid_s06_64-10-10_car_10_n03100240_11867.JPEG
subject-06,3,569,0.907823801040649,chair,chair,2-3-10,3129_eid_s06_2-3-10_chair_10_n04099969_5242.JPEG
subject-06,3,570,0.816304922103882,cat,bicycle,32-3-10,3130_eid_s06_32-3-10_bicycle_10_n02835271_16850.JPEG
subject-06,3,571,0.797023057937622,knife,knife,4-0-10,3131_eid_s06_4-0-10_knife_10_n03041632_2438.JPEG
subject-06,3,572,1.24581599235535,bicycle,bicycle,128-3-10,3132_eid_s06_128-3-10_bicycle_10_n02835271_1338.JPEG
subject-06,3,573,0.602741956710815,boat,boat,2-0-10,3133_eid_s06_2-0-10_boat_10_n03662601_2743.JPEG
subject-06,3,574,0.918691873550415,truck,clock,8-10-10,3134_eid_s06_8-10-10_clock_10_n04548280_711.JPEG
subject-06,3,575,1.23579716682434,bird,cat,128-3-10,3135_eid_s06_128-3-10_cat_10_n02124075_6715.JPEG
subject-06,3,576,0.916498184204102,cat,cat,32-3-10,3136_eid_s06_32-3-10_cat_10_n02123159_7885.JPEG
subject-06,3,577,0.963574886322021,cat,dog,8-0-10,3137_eid_s06_8-0-10_dog_10_n02086646_8887.JPEG
subject-06,3,578,0.66532301902771,car,car,4-10-10,3138_eid_s06_4-10-10_car_10_n04285008_2960.JPEG
subject-06,3,579,0.730221033096313,truck,truck,2-10-10,3139_eid_s06_2-10-10_truck_10_n04467665_3298.JPEG
subject-06,3,580,1.48487591743469,knife,keyboard,64-0-10,3140_eid_s06_64-0-10_keyboard_10_n03085013_7285.JPEG
subject-06,3,581,1.34189009666443,boat,boat,4-3-10,3141_eid_s06_4-3-10_boat_10_n03344393_8507.JPEG
subject-06,3,582,1.36580801010132,bird,oven,128-0-10,3142_eid_s06_128-0-10_oven_10_n04111531_6049.JPEG
subject-06,3,583,1.02856111526489,bicycle,dog,64-10-10,3143_eid_s06_64-10-10_dog_10_n02091032_4173.JPEG
subject-06,3,584,0.601279020309448,bear,dog,4-3-10,3144_eid_s06_4-3-10_dog_10_n02096051_2934.JPEG
subject-06,3,585,1.01782822608948,chair,knife,2-0-10,3145_eid_s06_2-0-10_knife_10_n03041632_14442.JPEG
subject-06,3,586,1.00459885597229,knife,boat,128-0-10,3146_eid_s06_128-0-10_boat_10_n03662601_16441.JPEG
subject-06,3,587,0.702549934387207,dog,dog,8-10-10,3147_eid_s06_8-10-10_dog_10_n02109961_11854.JPEG
subject-06,3,588,0.957066059112549,chair,chair,4-3-10,3148_eid_s06_4-3-10_chair_10_n04429376_49520.JPEG
subject-06,3,589,0.973819971084595,boat,clock,32-10-10,3149_eid_s06_32-10-10_clock_10_n04548280_5525.JPEG
subject-06,3,590,1.0385320186615,knife,boat,32-3-10,3150_eid_s06_32-3-10_boat_10_n04612504_29275.JPEG
subject-06,3,591,1.02158403396606,bird,bear,128-10-10,3151_eid_s06_128-10-10_bear_10_n02133161_10649.JPEG
subject-06,3,592,0.717242002487183,chair,dog,1-3-10,3152_eid_s06_1-3-10_dog_10_n02106030_7420.JPEG
subject-06,3,593,0.719810009002686,bear,cat,16-0-10,3153_eid_s06_16-0-10_cat_10_n02125311_15303.JPEG
subject-06,3,594,0.844474077224731,elephant,elephant,4-10-10,3154_eid_s06_4-10-10_elephant_10_n02504013_21041.JPEG
subject-06,3,595,0.801159143447876,chair,chair,1-0-10,3155_eid_s06_1-0-10_chair_10_n04429376_19103.JPEG
subject-06,3,596,0.758129119873047,bear,clock,32-10-10,3156_eid_s06_32-10-10_clock_10_n02708093_8401.JPEG
subject-06,3,597,0.914537906646729,boat,bicycle,128-10-10,3157_eid_s06_128-10-10_bicycle_10_n02835271_23286.JPEG
subject-06,3,598,1.35320901870728,boat,boat,1-10-10,3158_eid_s06_1-10-10_boat_10_n03662601_2957.JPEG
subject-06,3,599,0.779742002487183,elephant,elephant,2-0-10,3159_eid_s06_2-0-10_elephant_10_n02504458_1271.JPEG
subject-06,3,600,0.734328031539917,car,car,8-3-10,3160_eid_s06_8-3-10_car_10_n02814533_12195.JPEG
subject-06,3,601,0.536728143692017,chair,chair,2-0-10,3161_eid_s06_2-0-10_chair_10_n03376595_4346.JPEG
subject-06,3,602,0.515895128250122,bicycle,bicycle,4-0-10,3162_eid_s06_4-0-10_bicycle_10_n02835271_4396.JPEG
subject-06,3,603,0.84817910194397,cat,cat,16-3-10,3163_eid_s06_16-3-10_cat_10_n02123394_6598.JPEG
subject-06,3,604,0.82880687713623,keyboard,cat,4-3-10,3164_eid_s06_4-3-10_cat_10_n02123597_6405.JPEG
subject-06,3,605,0.945259809494019,bicycle,car,16-3-10,3165_eid_s06_16-3-10_car_10_n03100240_16273.JPEG
subject-06,3,606,0.577713012695312,cat,cat,1-0-10,3166_eid_s06_1-0-10_cat_10_n02123159_3635.JPEG
subject-06,3,607,0.610499858856201,knife,knife,1-10-10,3167_eid_s06_1-10-10_knife_10_n03041632_15754.JPEG
subject-06,3,608,0.742684125900269,bird,knife,32-3-10,3168_eid_s06_32-3-10_knife_10_n03041632_12707.JPEG
subject-06,3,609,0.721426010131836,bottle,bottle,8-0-10,3169_eid_s06_8-0-10_bottle_10_n02823428_10847.JPEG
subject-06,3,610,0.969969034194946,keyboard,keyboard,4-10-10,3170_eid_s06_4-10-10_keyboard_10_n04505470_4770.JPEG
subject-06,3,611,0.610212087631226,bicycle,truck,128-0-10,3171_eid_s06_128-0-10_truck_10_n04467665_65178.JPEG
subject-06,3,612,0.77521800994873,bird,bird,1-10-10,3172_eid_s06_1-10-10_bird_10_n01614925_4315.JPEG
subject-06,3,613,0.761214971542358,knife,dog,32-0-10,3173_eid_s06_32-0-10_dog_10_n02099267_1242.JPEG
subject-06,3,614,0.762173891067505,bird,keyboard,16-3-10,3174_eid_s06_16-3-10_keyboard_10_n03085013_23118.JPEG
subject-06,3,615,0.831729888916016,cat,elephant,4-3-10,3175_eid_s06_4-3-10_elephant_10_n02504458_1628.JPEG
subject-06,3,616,0.756869077682495,keyboard,keyboard,4-0-10,3176_eid_s06_4-0-10_keyboard_10_n04505470_5088.JPEG
subject-06,3,617,0.983796834945679,chair,chair,4-0-10,3177_eid_s06_4-0-10_chair_10_n04099969_3882.JPEG
subject-06,3,618,0.607872009277344,airplane,airplane,8-3-10,3178_eid_s06_8-3-10_airplane_10_n02690373_3377.JPEG
subject-06,3,619,0.726652145385742,cat,bottle,32-0-10,3179_eid_s06_32-0-10_bottle_10_n03983396_12895.JPEG
subject-06,3,620,0.759424209594727,knife,knife,1-3-10,3180_eid_s06_1-3-10_knife_10_n03041632_86251.JPEG
subject-06,3,621,0.591181993484497,boat,boat,128-10-10,3181_eid_s06_128-10-10_boat_10_n03662601_3725.JPEG
subject-06,3,622,0.931561946868896,car,bear,8-3-10,3182_eid_s06_8-3-10_bear_10_n02132136_23846.JPEG
subject-06,3,623,0.693744897842407,knife,knife,2-0-10,3183_eid_s06_2-0-10_knife_10_n03041632_27709.JPEG
subject-06,3,624,0.726216077804565,chair,chair,2-10-10,3184_eid_s06_2-10-10_chair_10_n02791124_5089.JPEG
subject-06,3,625,0.737120866775513,bird,bird,2-10-10,3185_eid_s06_2-10-10_bird_10_n01797886_33172.JPEG
subject-06,3,626,0.614668846130371,oven,bottle,32-3-10,3186_eid_s06_32-3-10_bottle_10_n04591713_1403.JPEG
subject-06,3,627,0.785538911819458,bear,dog,1-0-10,3187_eid_s06_1-0-10_dog_10_n02093859_4519.JPEG
subject-06,3,628,0.847718954086304,airplane,truck,16-10-10,3188_eid_s06_16-10-10_truck_10_n03417042_2603.JPEG
subject-06,3,629,1.39655184745789,oven,clock,64-0-10,3189_eid_s06_64-0-10_clock_10_n03196217_6741.JPEG
subject-06,3,630,0.728384971618652,cat,cat,8-10-10,3190_eid_s06_8-10-10_cat_10_n02124075_11022.JPEG
subject-06,3,631,0.873959064483643,bird,bird,16-0-10,3191_eid_s06_16-0-10_bird_10_n01833805_12264.JPEG
subject-06,3,632,0.968479871749878,keyboard,keyboard,32-3-10,3192_eid_s06_32-3-10_keyboard_10_n04505470_2040.JPEG
subject-06,3,633,1.03291487693787,cat,airplane,32-3-10,3193_eid_s06_32-3-10_airplane_10_n02690373_19742.JPEG
subject-06,3,634,0.603396892547607,oven,oven,2-0-10,3194_eid_s06_2-0-10_oven_10_n04111531_15718.JPEG
subject-06,3,635,0.482089996337891,cat,clock,32-3-10,3195_eid_s06_32-3-10_clock_10_n04548280_5320.JPEG
subject-06,3,636,0.584759950637817,bear,bear,16-10-10,3196_eid_s06_16-10-10_bear_10_n02132136_5184.JPEG
subject-06,3,637,0.746592998504639,boat,boat,2-3-10,3197_eid_s06_2-3-10_boat_10_n03344393_8465.JPEG
subject-06,3,638,0.795233964920044,cat,cat,2-3-10,3198_eid_s06_2-3-10_cat_10_n02125311_21963.JPEG
subject-06,3,639,0.706066131591797,chair,chair,4-3-10,3199_eid_s06_4-3-10_chair_10_n02791124_5404.JPEG
subject-06,3,640,0.700977087020874,airplane,airplane,1-10-10,3200_eid_s06_1-10-10_airplane_10_n02690373_4788.JPEG
subject-06,3,641,0.663388967514038,bear,bear,8-10-10,3201_eid_s06_8-10-10_bear_10_n02132136_16699.JPEG
subject-06,3,642,0.919950008392334,dog,dog,2-10-10,3202_eid_s06_2-10-10_dog_10_n02091635_5799.JPEG
subject-06,3,643,1.15847587585449,cat,elephant,16-3-10,3203_eid_s06_16-3-10_elephant_10_n02504013_498.JPEG
subject-06,3,644,0.807024955749512,car,car,1-3-10,3204_eid_s06_1-3-10_car_10_n02814533_26030.JPEG
subject-06,3,645,0.677118062973022,dog,dog,1-10-10,3205_eid_s06_1-10-10_dog_10_n02109047_3057.JPEG
subject-06,3,646,0.849951028823853,knife,boat,8-3-10,3206_eid_s06_8-3-10_boat_10_n02951358_10511.JPEG
subject-06,3,647,0.550497055053711,bear,bear,1-10-10,3207_eid_s06_1-10-10_bear_10_n02133161_2192.JPEG
subject-06,3,648,0.675159931182861,knife,knife,2-3-10,3208_eid_s06_2-3-10_knife_10_n03041632_8468.JPEG
subject-06,3,649,0.961605072021484,cat,bicycle,128-3-10,3209_eid_s06_128-3-10_bicycle_10_n03792782_18884.JPEG
subject-06,3,650,0.74219799041748,clock,clock,2-10-10,3210_eid_s06_2-10-10_clock_10_n04548280_17536.JPEG
subject-06,3,651,0.542845010757446,bicycle,bicycle,64-3-10,3211_eid_s06_64-3-10_bicycle_10_n02835271_12666.JPEG
subject-06,3,652,0.891419887542725,elephant,elephant,1-0-10,3212_eid_s06_1-0-10_elephant_10_n02504013_3365.JPEG
subject-06,3,653,0.870238065719604,oven,oven,32-3-10,3213_eid_s06_32-3-10_oven_10_n04111531_10064.JPEG
subject-06,3,654,0.610759019851685,bicycle,boat,64-3-10,3214_eid_s06_64-3-10_boat_10_n03662601_25400.JPEG
subject-06,3,655,0.688989877700806,oven,bird,64-10-10,3215_eid_s06_64-10-10_bird_10_n01817953_4401.JPEG
subject-06,3,656,1.08893704414368,keyboard,truck,128-0-10,3216_eid_s06_128-0-10_truck_10_n03417042_8051.JPEG
subject-06,3,657,0.623587131500244,airplane,airplane,16-3-10,3217_eid_s06_16-3-10_airplane_10_n02690373_5427.JPEG
subject-06,3,658,0.802528858184814,bicycle,chair,64-0-10,3218_eid_s06_64-0-10_chair_10_n03376595_10175.JPEG
subject-06,3,659,0.718778133392334,cat,bicycle,64-10-10,3219_eid_s06_64-10-10_bicycle_10_n03792782_5207.JPEG
subject-06,3,660,1.50012803077698,oven,elephant,128-10-10,3220_eid_s06_128-10-10_elephant_10_n02504458_5849.JPEG
subject-06,3,661,0.800270080566406,car,car,4-10-10,3221_eid_s06_4-10-10_car_10_n02814533_34149.JPEG
subject-06,3,662,0.641041994094849,airplane,airplane,4-10-10,3222_eid_s06_4-10-10_airplane_10_n02690373_4358.JPEG
subject-06,3,663,0.995146989822388,oven,keyboard,32-3-10,3223_eid_s06_32-3-10_keyboard_10_n04505470_3171.JPEG
subject-06,3,664,0.689663887023926,boat,boat,8-3-10,3224_eid_s06_8-3-10_boat_10_n04273569_21577.JPEG
subject-06,3,665,0.708518028259277,knife,knife,2-10-10,3225_eid_s06_2-10-10_knife_10_n03041632_26340.JPEG
subject-06,3,666,0.933300971984863,dog,oven,128-0-10,3226_eid_s06_128-0-10_oven_10_n04111531_13486.JPEG
subject-06,3,667,0.62750506401062,bird,bird,2-0-10,3227_eid_s06_2-0-10_bird_10_n02013706_2141.JPEG
subject-06,3,668,0.660488128662109,knife,knife,1-10-10,3228_eid_s06_1-10-10_knife_10_n03041632_28202.JPEG
subject-06,3,669,1.06122589111328,bicycle,bicycle,128-0-10,3229_eid_s06_128-0-10_bicycle_10_n02835271_10770.JPEG
subject-06,3,670,0.671648979187012,oven,keyboard,128-3-10,3230_eid_s06_128-3-10_keyboard_10_n03085013_24519.JPEG
subject-06,3,671,0.987892866134644,knife,knife,4-3-10,3231_eid_s06_4-3-10_knife_10_n03041632_22964.JPEG
subject-06,3,672,0.998710870742798,bear,bear,64-3-10,3232_eid_s06_64-3-10_bear_10_n02134418_2561.JPEG
subject-06,3,673,0.753169059753418,bird,bird,8-10-10,3233_eid_s06_8-10-10_bird_10_n01531178_19367.JPEG
subject-06,3,674,0.731745958328247,chair,truck,128-0-10,3234_eid_s06_128-0-10_truck_10_n03796401_5107.JPEG
subject-06,3,675,0.518079996109009,bicycle,bicycle,1-3-10,3235_eid_s06_1-3-10_bicycle_10_n02835271_4434.JPEG
subject-06,3,676,0.729185819625854,airplane,airplane,16-10-10,3236_eid_s06_16-10-10_airplane_10_n02690373_5016.JPEG
subject-06,3,677,0.615471839904785,oven,bird,64-0-10,3237_eid_s06_64-0-10_bird_10_n01833805_169.JPEG
subject-06,3,678,0.724215030670166,bear,bear,2-10-10,3238_eid_s06_2-10-10_bear_10_n02133161_11842.JPEG
subject-06,3,679,0.747164964675903,chair,dog,16-3-10,3239_eid_s06_16-3-10_dog_10_n02093991_118.JPEG
subject-06,3,680,0.656052112579346,oven,oven,2-10-10,3240_eid_s06_2-10-10_oven_10_n04111531_21068.JPEG
subject-06,3,681,0.726637125015259,boat,chair,64-3-10,3241_eid_s06_64-3-10_chair_10_n02791124_9320.JPEG
subject-06,3,682,0.812903165817261,keyboard,keyboard,8-10-10,3242_eid_s06_8-10-10_keyboard_10_n03085013_23552.JPEG
subject-06,3,683,0.723392009735107,dog,chair,8-0-10,3243_eid_s06_8-0-10_chair_10_n04429376_18606.JPEG
subject-06,3,684,0.761622905731201,clock,clock,8-0-10,3244_eid_s06_8-0-10_clock_10_n02708093_3453.JPEG
subject-06,3,685,0.579846143722534,boat,clock,64-3-10,3245_eid_s06_64-3-10_clock_10_n02708093_7112.JPEG
subject-06,3,686,1.32700514793396,boat,bird,4-10-10,3246_eid_s06_4-10-10_bird_10_n01855032_8084.JPEG
subject-06,3,687,1.06754684448242,chair,cat,64-10-10,3247_eid_s06_64-10-10_cat_10_n02125311_32180.JPEG
subject-06,3,688,1.207759141922,clock,clock,16-3-10,3248_eid_s06_16-3-10_clock_10_n04548280_5224.JPEG
subject-06,3,689,1.1108660697937,elephant,elephant,2-10-10,3249_eid_s06_2-10-10_elephant_10_n02504013_405.JPEG
subject-06,3,690,0.757699012756348,cat,airplane,64-3-10,3250_eid_s06_64-3-10_airplane_10_n02690373_9401.JPEG
subject-06,3,691,0.573777914047241,truck,truck,1-3-10,3251_eid_s06_1-3-10_truck_10_n04467665_39317.JPEG
subject-06,3,692,1.18995499610901,bird,bicycle,64-0-10,3252_eid_s06_64-0-10_bicycle_10_n03792782_7709.JPEG
subject-06,3,693,0.684976816177368,bicycle,bird,128-3-10,3253_eid_s06_128-3-10_bird_10_n01797886_2922.JPEG
subject-06,3,694,0.595572948455811,cat,oven,64-10-10,3254_eid_s06_64-10-10_oven_10_n04111531_7593.JPEG
subject-06,3,695,0.650022029876709,cat,bottle,64-10-10,3255_eid_s06_64-10-10_bottle_10_n04557648_1600.JPEG
subject-06,3,696,0.790650129318237,bicycle,bird,16-10-10,3256_eid_s06_16-10-10_bird_10_n01530575_3063.JPEG
subject-06,3,697,0.931038856506348,truck,truck,8-10-10,3257_eid_s06_8-10-10_truck_10_n03417042_2029.JPEG
subject-06,3,698,0.733442068099976,knife,truck,8-3-10,3258_eid_s06_8-3-10_truck_10_n03796401_4149.JPEG
subject-06,3,699,0.65715217590332,bicycle,truck,64-0-10,3259_eid_s06_64-0-10_truck_10_n03417042_4288.JPEG
subject-06,3,700,0.503005027770996,cat,car,16-0-10,3260_eid_s06_16-0-10_car_10_n04285008_1797.JPEG
subject-06,3,701,0.619824171066284,bear,bear,16-0-10,3261_eid_s06_16-0-10_bear_10_n02133161_699.JPEG
subject-06,3,702,0.81416392326355,bicycle,elephant,128-3-10,3262_eid_s06_128-3-10_elephant_10_n02504013_1479.JPEG
subject-06,3,703,0.684102058410645,cat,oven,32-3-10,3263_eid_s06_32-3-10_oven_10_n04111531_3286.JPEG
subject-06,3,704,1.05443120002747,knife,bottle,16-3-10,3264_eid_s06_16-3-10_bottle_10_n04591713_3522.JPEG
subject-06,3,705,0.763327121734619,truck,truck,2-0-10,3265_eid_s06_2-0-10_truck_10_n03417042_6847.JPEG
subject-06,3,706,0.649551868438721,airplane,airplane,4-10-10,3266_eid_s06_4-10-10_airplane_10_n02690373_2496.JPEG
subject-06,3,707,0.768444061279297,clock,chair,8-10-10,3267_eid_s06_8-10-10_chair_10_n04429376_21456.JPEG
subject-06,3,708,0.768924951553345,dog,dog,4-0-10,3268_eid_s06_4-0-10_dog_10_n02088466_11946.JPEG
subject-06,3,709,0.654939889907837,bicycle,bird,64-0-10,3269_eid_s06_64-0-10_bird_10_n01582220_10560.JPEG
subject-06,3,710,0.533735990524292,cat,keyboard,64-3-10,3270_eid_s06_64-3-10_keyboard_10_n03085013_23843.JPEG
subject-06,3,711,0.60447096824646,oven,bird,64-0-10,3271_eid_s06_64-0-10_bird_10_n01818515_15027.JPEG
subject-06,3,712,0.651648998260498,bicycle,boat,8-0-10,3272_eid_s06_8-0-10_boat_10_n03662601_5142.JPEG
subject-06,3,713,0.738491058349609,cat,knife,128-3-10,3273_eid_s06_128-3-10_knife_10_n03041632_45636.JPEG
subject-06,3,714,0.68516993522644,elephant,elephant,2-10-10,3274_eid_s06_2-10-10_elephant_10_n02504013_1986.JPEG
subject-06,3,715,1.05600190162659,knife,knife,16-10-10,3275_eid_s06_16-10-10_knife_10_n03041632_21560.JPEG
subject-06,3,716,0.734302043914795,boat,clock,64-10-10,3276_eid_s06_64-10-10_clock_10_n02708093_1134.JPEG
subject-06,3,717,1.00273895263672,boat,clock,32-10-10,3277_eid_s06_32-10-10_clock_10_n04548280_5430.JPEG
subject-06,3,718,0.81215500831604,airplane,airplane,32-10-10,3278_eid_s06_32-10-10_airplane_10_n02690373_6812.JPEG
subject-06,3,719,0.854520797729492,car,car,32-10-10,3279_eid_s06_32-10-10_car_10_n02814533_2530.JPEG
subject-06,3,720,0.863188028335571,knife,oven,8-10-10,3280_eid_s06_8-10-10_oven_10_n04111531_4148.JPEG
subject-06,3,721,0.779742002487183,cat,cat,16-3-10,3281_eid_s06_16-3-10_cat_10_n02125311_34708.JPEG
subject-06,3,722,0.804301977157593,bicycle,bicycle,1-3-10,3282_eid_s06_1-3-10_bicycle_10_n02835271_12806.JPEG
subject-06,3,723,0.614464998245239,cat,dog,64-0-10,3283_eid_s06_64-0-10_dog_10_n02086240_1096.JPEG
subject-06,3,724,0.901160955429077,truck,truck,1-10-10,3284_eid_s06_1-10-10_truck_10_n03417042_14777.JPEG
subject-06,3,725,0.763829231262207,cat,knife,4-3-10,3285_eid_s06_4-3-10_knife_10_n03041632_25498.JPEG
subject-06,3,726,0.722903966903687,dog,boat,64-3-10,3286_eid_s06_64-3-10_boat_10_n02951358_9323.JPEG
subject-06,3,727,0.687031984329224,knife,knife,32-10-10,3287_eid_s06_32-10-10_knife_10_n03041632_27898.JPEG
subject-06,3,728,0.796182155609131,bear,elephant,64-10-10,3288_eid_s06_64-10-10_elephant_10_n02504013_7791.JPEG
subject-06,3,729,0.966946840286255,car,car,2-0-10,3289_eid_s06_2-0-10_car_10_n03100240_7836.JPEG
subject-06,3,730,0.945198059082031,dog,keyboard,16-3-10,3290_eid_s06_16-3-10_keyboard_10_n04505470_6312.JPEG
subject-06,3,731,0.96386194229126,elephant,elephant,64-10-10,3291_eid_s06_64-10-10_elephant_10_n02504458_12449.JPEG
subject-06,3,732,0.810537099838257,chair,knife,8-0-10,3292_eid_s06_8-0-10_knife_10_n03041632_40450.JPEG
subject-06,3,733,0.735331058502197,bird,bicycle,16-10-10,3293_eid_s06_16-10-10_bicycle_10_n03792782_12257.JPEG
subject-06,3,734,1.3679530620575,elephant,elephant,1-0-10,3294_eid_s06_1-0-10_elephant_10_n02504458_3928.JPEG
subject-06,3,735,1.1084680557251,elephant,chair,32-0-10,3295_eid_s06_32-0-10_chair_10_n04429376_51025.JPEG
subject-06,3,736,0.60329794883728,knife,knife,1-10-10,3296_eid_s06_1-10-10_knife_10_n03041632_19614.JPEG
subject-06,3,737,1.13661599159241,bicycle,chair,128-3-10,3297_eid_s06_128-3-10_chair_10_n04429376_9039.JPEG
subject-06,3,738,0.777292013168335,knife,knife,1-10-10,3298_eid_s06_1-10-10_knife_10_n03041632_49163.JPEG
subject-06,3,739,0.587708950042725,bicycle,oven,32-10-10,3299_eid_s06_32-10-10_oven_10_n04111531_10339.JPEG
subject-06,3,740,0.996338844299316,bicycle,bicycle,2-0-10,3300_eid_s06_2-0-10_bicycle_10_n03792782_7182.JPEG
subject-06,3,741,0.820697069168091,boat,dog,128-10-10,3301_eid_s06_128-10-10_dog_10_n02086240_7138.JPEG
subject-06,3,742,0.606873035430908,keyboard,keyboard,8-0-10,3302_eid_s06_8-0-10_keyboard_10_n03085013_23845.JPEG
subject-06,3,743,0.909903049468994,car,car,4-3-10,3303_eid_s06_4-3-10_car_10_n04285008_636.JPEG
subject-06,3,744,1.00969910621643,dog,bear,64-0-10,3304_eid_s06_64-0-10_bear_10_n02134084_32651.JPEG
subject-06,3,745,0.866857051849365,bottle,elephant,128-0-10,3305_eid_s06_128-0-10_elephant_10_n02504013_53.JPEG
subject-06,3,746,0.569334030151367,car,car,1-10-10,3306_eid_s06_1-10-10_car_10_n04285008_16321.JPEG
subject-06,3,747,0.991482973098755,bottle,bottle,64-10-10,3307_eid_s06_64-10-10_bottle_10_n04560804_9878.JPEG
subject-06,3,748,1.12472105026245,dog,dog,16-10-10,3308_eid_s06_16-10-10_dog_10_n02105641_1779.JPEG
subject-06,3,749,0.609846115112305,cat,oven,32-0-10,3309_eid_s06_32-0-10_oven_10_n04111531_7356.JPEG
subject-06,3,750,0.718518972396851,cat,boat,32-10-10,3310_eid_s06_32-10-10_boat_10_n02951358_15087.JPEG
subject-06,3,751,0.812647104263306,dog,bicycle,64-0-10,3311_eid_s06_64-0-10_bicycle_10_n03792782_63425.JPEG
subject-06,3,752,0.761563062667847,car,car,8-10-10,3312_eid_s06_8-10-10_car_10_n03100240_24132.JPEG
subject-06,3,753,0.547730922698975,bicycle,bear,128-3-10,3313_eid_s06_128-3-10_bear_10_n02132136_2500.JPEG
subject-06,3,754,1.08673000335693,bicycle,knife,128-0-10,3314_eid_s06_128-0-10_knife_10_n03041632_13645.JPEG
subject-06,3,755,0.913635969161987,bottle,bottle,8-3-10,3315_eid_s06_8-3-10_bottle_10_n04591713_7119.JPEG
subject-06,3,756,0.737736940383911,cat,cat,2-3-10,3316_eid_s06_2-3-10_cat_10_n02123045_4812.JPEG
subject-06,3,757,0.628427028656006,oven,keyboard,32-3-10,3317_eid_s06_32-3-10_keyboard_10_n03085013_5539.JPEG
subject-06,3,758,1.11320495605469,elephant,elephant,8-0-10,3318_eid_s06_8-0-10_elephant_10_n02504458_6433.JPEG
subject-06,3,759,0.999083042144775,knife,bear,2-0-10,3319_eid_s06_2-0-10_bear_10_n02134084_14754.JPEG
subject-06,3,760,0.848146915435791,knife,knife,2-3-10,3320_eid_s06_2-3-10_knife_10_n03041632_11603.JPEG
subject-06,3,761,0.919224977493286,oven,oven,4-10-10,3321_eid_s06_4-10-10_oven_10_n04111531_716.JPEG
subject-06,3,762,0.567853927612305,boat,bird,128-0-10,3322_eid_s06_128-0-10_bird_10_n02009912_9576.JPEG
subject-06,3,763,0.770280122756958,airplane,airplane,1-10-10,3323_eid_s06_1-10-10_airplane_10_n02690373_20071.JPEG
subject-06,3,764,0.817008972167969,bear,bicycle,16-3-10,3324_eid_s06_16-3-10_bicycle_10_n02835271_8601.JPEG
subject-06,3,765,0.943657875061035,airplane,bottle,16-3-10,3325_eid_s06_16-3-10_bottle_10_n03937543_3614.JPEG
subject-06,3,766,0.652255058288574,knife,knife,1-3-10,3326_eid_s06_1-3-10_knife_10_n03041632_7119.JPEG
subject-06,3,767,0.546616792678833,cat,knife,32-3-10,3327_eid_s06_32-3-10_knife_10_n03041632_7832.JPEG
subject-06,3,768,0.629540920257568,bicycle,bird,128-0-10,3328_eid_s06_128-0-10_bird_10_n02009229_561.JPEG
subject-06,3,769,0.469178915023804,cat,cat,32-10-10,3329_eid_s06_32-10-10_cat_10_n02124075_123.JPEG
subject-06,3,770,0.592197895050049,bear,bear,8-0-10,3330_eid_s06_8-0-10_bear_10_n02134418_5245.JPEG
subject-06,3,771,0.528525829315186,clock,clock,1-10-10,3331_eid_s06_1-10-10_clock_10_n02708093_6795.JPEG
subject-06,3,772,0.636636018753052,bicycle,knife,128-0-10,3332_eid_s06_128-0-10_knife_10_n03041632_51617.JPEG
subject-06,3,773,0.439308166503906,cat,dog,16-3-10,3333_eid_s06_16-3-10_dog_10_n02088238_2344.JPEG
subject-06,3,774,0.563925981521606,bear,truck,64-3-10,3334_eid_s06_64-3-10_truck_10_n03796401_12033.JPEG
subject-06,3,775,0.436447143554688,cat,cat,64-10-10,3335_eid_s06_64-10-10_cat_10_n02124075_8123.JPEG
subject-06,3,776,0.776782035827637,chair,dog,4-3-10,3336_eid_s06_4-3-10_dog_10_n02107574_2087.JPEG
subject-06,3,777,0.436085939407349,clock,clock,16-10-10,3337_eid_s06_16-10-10_clock_10_n04548280_12718.JPEG
subject-06,3,778,0.483913898468018,bicycle,bicycle,2-3-10,3338_eid_s06_2-3-10_bicycle_10_n02835271_24679.JPEG
subject-06,3,779,0.803341150283813,car,car,16-3-10,3339_eid_s06_16-3-10_car_10_n02814533_19407.JPEG
subject-06,3,780,0.927172899246216,bear,bear,16-10-10,3340_eid_s06_16-10-10_bear_10_n02134418_3290.JPEG
subject-06,3,781,0.543463945388794,chair,chair,4-0-10,3341_eid_s06_4-0-10_chair_10_n04099969_1652.JPEG
subject-06,3,782,0.530210018157959,cat,cat,8-10-10,3342_eid_s06_8-10-10_cat_10_n02123159_2127.JPEG
subject-06,3,783,0.692746162414551,clock,clock,2-0-10,3343_eid_s06_2-0-10_clock_10_n04548280_4473.JPEG
subject-06,3,784,0.810857057571411,keyboard,boat,128-0-10,3344_eid_s06_128-0-10_boat_10_n04273569_21025.JPEG
subject-06,3,785,0.543642997741699,cat,chair,32-10-10,3345_eid_s06_32-10-10_chair_10_n02791124_206.JPEG
subject-06,3,786,0.668061017990112,cat,truck,64-3-10,3346_eid_s06_64-3-10_truck_10_n03417042_1228.JPEG
subject-06,3,787,0.816498994827271,oven,knife,16-3-10,3347_eid_s06_16-3-10_knife_10_n03041632_9406.JPEG
subject-06,3,788,0.6321702003479,oven,oven,4-3-10,3348_eid_s06_4-3-10_oven_10_n04111531_10727.JPEG
subject-06,3,789,1.11100006103516,keyboard,car,64-0-10,3349_eid_s06_64-0-10_car_10_n02814533_43990.JPEG
subject-06,3,790,0.521044015884399,car,car,4-10-10,3350_eid_s06_4-10-10_car_10_n02814533_38205.JPEG
subject-06,3,791,0.570008039474487,bicycle,boat,32-0-10,3351_eid_s06_32-0-10_boat_10_n03344393_1496.JPEG
subject-06,3,792,0.907313823699951,dog,dog,2-0-10,3352_eid_s06_2-0-10_dog_10_n02104029_321.JPEG
subject-06,3,793,0.548501968383789,bicycle,bottle,128-3-10,3353_eid_s06_128-3-10_bottle_10_n04579145_3924.JPEG
subject-06,3,794,1.02907395362854,knife,keyboard,128-10-10,3354_eid_s06_128-10-10_keyboard_10_n03085013_7536.JPEG
subject-06,3,795,0.659384965896606,airplane,airplane,32-10-10,3355_eid_s06_32-10-10_airplane_10_n02690373_4294.JPEG
subject-06,3,796,0.685585975646973,bicycle,keyboard,32-3-10,3356_eid_s06_32-3-10_keyboard_10_n03085013_19759.JPEG
subject-06,3,797,0.818131923675537,car,car,8-3-10,3357_eid_s06_8-3-10_car_10_n03100240_3917.JPEG
subject-06,3,798,0.526654958724976,clock,clock,2-0-10,3358_eid_s06_2-0-10_clock_10_n04548280_5692.JPEG
subject-06,3,799,0.71317195892334,bicycle,keyboard,16-0-10,3359_eid_s06_16-0-10_keyboard_10_n03085013_23929.JPEG
subject-06,3,800,0.823606967926025,bear,bear,1-3-10,3360_eid_s06_1-3-10_bear_10_n02134084_15424.JPEG
subject-06,3,801,1.42641401290894,keyboard,oven,1-10-10,3361_eid_s06_1-10-10_oven_10_n04111531_4574.JPEG
subject-06,3,802,0.812903881072998,bicycle,boat,64-3-10,3362_eid_s06_64-3-10_boat_10_n02951358_11901.JPEG
subject-06,3,803,0.859824180603027,boat,boat,16-3-10,3363_eid_s06_16-3-10_boat_10_n04273569_28789.JPEG
subject-06,3,804,0.662254810333252,bird,cat,16-3-10,3364_eid_s06_16-3-10_cat_10_n02124075_1651.JPEG
subject-06,3,805,0.548306941986084,bicycle,dog,32-10-10,3365_eid_s06_32-10-10_dog_10_n02113978_7066.JPEG
subject-06,3,806,0.488951921463013,cat,bear,32-0-10,3366_eid_s06_32-0-10_bear_10_n02134418_11.JPEG
subject-06,3,807,0.813839912414551,car,car,16-3-10,3367_eid_s06_16-3-10_car_10_n02814533_58191.JPEG
subject-06,3,808,0.521284103393555,bicycle,bicycle,4-3-10,3368_eid_s06_4-3-10_bicycle_10_n03792782_34545.JPEG
subject-06,3,809,0.632241010665894,bicycle,bicycle,2-3-10,3369_eid_s06_2-3-10_bicycle_10_n03792782_10366.JPEG
subject-06,3,810,1.06507992744446,cat,oven,16-3-10,3370_eid_s06_16-3-10_oven_10_n04111531_9455.JPEG
subject-06,3,811,0.620824098587036,bicycle,knife,8-0-10,3371_eid_s06_8-0-10_knife_10_n03041632_101810.JPEG
subject-06,3,812,0.561905145645142,chair,airplane,128-0-10,3372_eid_s06_128-0-10_airplane_10_n02690373_5714.JPEG
subject-06,3,813,0.555996179580688,clock,clock,128-10-10,3373_eid_s06_128-10-10_clock_10_n04548280_7565.JPEG
subject-06,3,814,0.772893905639648,cat,car,128-10-10,3374_eid_s06_128-10-10_car_10_n04285008_13980.JPEG
subject-06,3,815,0.589694976806641,bicycle,dog,128-3-10,3375_eid_s06_128-3-10_dog_10_n02112350_6932.JPEG
subject-06,3,816,0.922035932540894,bicycle,bicycle,16-10-10,3376_eid_s06_16-10-10_bicycle_10_n03792782_14642.JPEG
subject-06,3,817,0.794868946075439,bird,bottle,32-3-10,3377_eid_s06_32-3-10_bottle_10_n04557648_7303.JPEG
subject-06,3,818,1.04870390892029,keyboard,oven,16-0-10,3378_eid_s06_16-0-10_oven_10_n04111531_1922.JPEG
subject-06,3,819,0.765516042709351,oven,elephant,32-0-10,3379_eid_s06_32-0-10_elephant_10_n02504013_7010.JPEG
subject-06,3,820,1.04656887054443,airplane,airplane,4-0-10,3380_eid_s06_4-0-10_airplane_10_n02690373_8666.JPEG
subject-06,3,821,0.879058122634888,airplane,bottle,64-3-10,3381_eid_s06_64-3-10_bottle_10_n04557648_367.JPEG
subject-06,3,822,0.665839910507202,bicycle,bear,64-0-10,3382_eid_s06_64-0-10_bear_10_n02134418_2124.JPEG
subject-06,3,823,0.944664001464844,clock,bear,32-3-10,3383_eid_s06_32-3-10_bear_10_n02132136_24002.JPEG
subject-06,3,824,0.747208118438721,boat,boat,2-10-10,3384_eid_s06_2-10-10_boat_10_n02951358_13037.JPEG
subject-06,3,825,0.641956090927124,bicycle,bicycle,128-10-10,3385_eid_s06_128-10-10_bicycle_10_n03792782_2793.JPEG
subject-06,3,826,0.59650707244873,cat,clock,128-10-10,3386_eid_s06_128-10-10_clock_10_n04548280_5012.JPEG
subject-06,3,827,0.69101095199585,bear,dog,16-0-10,3387_eid_s06_16-0-10_dog_10_n02100877_4822.JPEG
subject-06,3,828,0.661531925201416,bicycle,bicycle,4-3-10,3388_eid_s06_4-3-10_bicycle_10_n03792782_5639.JPEG
subject-06,3,829,1.05049800872803,bear,car,64-0-10,3389_eid_s06_64-0-10_car_10_n02814533_38295.JPEG
subject-06,3,830,0.629382848739624,airplane,airplane,1-0-10,3390_eid_s06_1-0-10_airplane_10_n02690373_1171.JPEG
subject-06,3,831,1.07790803909302,bear,truck,32-0-10,3391_eid_s06_32-0-10_truck_10_n03417042_16238.JPEG
subject-06,3,832,0.848920822143555,bicycle,chair,16-3-10,3392_eid_s06_16-3-10_chair_10_n04099969_22528.JPEG
subject-06,3,833,0.497605085372925,cat,airplane,128-3-10,3393_eid_s06_128-3-10_airplane_10_n02690373_190.JPEG
subject-06,3,834,0.613816022872925,bicycle,knife,16-10-10,3394_eid_s06_16-10-10_knife_10_n03041632_62810.JPEG
subject-06,3,835,1.05452704429626,bear,car,128-10-10,3395_eid_s06_128-10-10_car_10_n02814533_39933.JPEG
subject-06,3,836,0.640447854995728,oven,bird,128-0-10,3396_eid_s06_128-0-10_bird_10_n02013706_7734.JPEG
subject-06,3,837,0.611424922943115,car,car,8-0-10,3397_eid_s06_8-0-10_car_10_n03100240_5796.JPEG
subject-06,3,838,1.4899570941925,truck,chair,2-3-10,3398_eid_s06_2-3-10_chair_10_n03376595_4875.JPEG
subject-06,3,839,0.708565950393677,bicycle,dog,64-3-10,3399_eid_s06_64-3-10_dog_10_n02088094_703.JPEG
subject-06,3,840,0.979330062866211,cat,bicycle,128-0-10,3400_eid_s06_128-0-10_bicycle_10_n03792782_11114.JPEG
subject-06,3,841,0.881847143173218,clock,knife,8-3-10,3401_eid_s06_8-3-10_knife_10_n03041632_20697.JPEG
subject-06,3,842,0.572071075439453,bird,bird,4-3-10,3402_eid_s06_4-3-10_bird_10_n01560419_5922.JPEG
subject-06,3,843,0.733546018600464,bicycle,car,32-0-10,3403_eid_s06_32-0-10_car_10_n03100240_9287.JPEG
subject-06,3,844,0.979864120483398,airplane,airplane,8-3-10,3404_eid_s06_8-3-10_airplane_10_n02690373_6887.JPEG
subject-06,3,845,0.919975996017456,dog,dog,2-10-10,3405_eid_s06_2-10-10_dog_10_n02100583_13656.JPEG
subject-06,3,846,1.28279900550842,car,bicycle,1-10-10,3406_eid_s06_1-10-10_bicycle_10_n03792782_814.JPEG
subject-06,3,847,0.66145396232605,bicycle,bicycle,8-3-10,3407_eid_s06_8-3-10_bicycle_10_n03792782_22759.JPEG
subject-06,3,848,0.902378082275391,bear,cat,32-3-10,3408_eid_s06_32-3-10_cat_10_n02123159_6933.JPEG
subject-06,3,849,1.35873508453369,bicycle,bicycle,8-10-10,3409_eid_s06_8-10-10_bicycle_10_n03792782_9081.JPEG
subject-06,3,850,1.10738396644592,dog,dog,4-0-10,3410_eid_s06_4-0-10_dog_10_n02106550_2706.JPEG
subject-06,3,851,0.852756977081299,cat,dog,8-3-10,3411_eid_s06_8-3-10_dog_10_n02109525_53049.JPEG
subject-06,3,852,0.755885124206543,knife,knife,2-0-10,3412_eid_s06_2-0-10_knife_10_n03041632_3063.JPEG
subject-06,3,853,0.557155847549438,cat,bicycle,32-3-10,3413_eid_s06_32-3-10_bicycle_10_n03792782_26552.JPEG
subject-06,3,854,0.543224096298218,bicycle,elephant,64-3-10,3414_eid_s06_64-3-10_elephant_10_n02504458_12582.JPEG
subject-06,3,855,0.821519136428833,oven,clock,128-0-10,3415_eid_s06_128-0-10_clock_10_n03196217_157.JPEG
subject-06,3,856,1.07840991020203,bear,bear,64-10-10,3416_eid_s06_64-10-10_bear_10_n02133161_15867.JPEG
subject-06,3,857,0.826905012130737,airplane,boat,64-3-10,3417_eid_s06_64-3-10_boat_10_n03344393_251.JPEG
subject-06,3,858,1.19644498825073,bicycle,airplane,128-10-10,3418_eid_s06_128-10-10_airplane_10_n02690373_8599.JPEG
subject-06,3,859,0.729928970336914,bird,bird,4-0-10,3419_eid_s06_4-0-10_bird_10_n01833805_2.JPEG
subject-06,3,860,0.991769790649414,bicycle,car,64-3-10,3420_eid_s06_64-3-10_car_10_n04285008_12169.JPEG
subject-06,3,861,0.664991855621338,cat,truck,128-3-10,3421_eid_s06_128-3-10_truck_10_n04467665_22051.JPEG
subject-06,3,862,0.513157844543457,cat,cat,2-10-10,3422_eid_s06_2-10-10_cat_10_n02124075_11910.JPEG
subject-06,3,863,0.592461109161377,bicycle,cat,128-0-10,3423_eid_s06_128-0-10_cat_10_n02123159_748.JPEG
subject-06,3,864,0.6193687915802,bicycle,bottle,128-3-10,3424_eid_s06_128-3-10_bottle_10_n03983396_20762.JPEG
subject-06,3,865,0.748297929763794,dog,cat,64-3-10,3425_eid_s06_64-3-10_cat_10_n02125311_16635.JPEG
subject-06,3,866,0.702692031860352,car,boat,128-3-10,3426_eid_s06_128-3-10_boat_10_n02951358_9876.JPEG
subject-06,3,867,0.537521123886108,cat,cat,16-3-10,3427_eid_s06_16-3-10_cat_10_n02123159_6967.JPEG
subject-06,3,868,1.05095505714417,bicycle,bottle,64-0-10,3428_eid_s06_64-0-10_bottle_10_n04557648_364.JPEG
subject-06,3,869,0.669578075408936,bicycle,bicycle,2-3-10,3429_eid_s06_2-3-10_bicycle_10_n02835271_21540.JPEG
subject-06,3,870,0.572458982467651,cat,elephant,32-3-10,3430_eid_s06_32-3-10_elephant_10_n02504458_5940.JPEG
subject-06,3,871,0.659185171127319,bear,bear,1-0-10,3431_eid_s06_1-0-10_bear_10_n02133161_826.JPEG
subject-06,3,872,0.708122968673706,bird,bird,1-0-10,3432_eid_s06_1-0-10_bird_10_n01833805_8399.JPEG
subject-06,3,873,0.686683893203735,cat,bear,2-3-10,3433_eid_s06_2-3-10_bear_10_n02132136_12845.JPEG
subject-06,3,874,0.48033595085144,cat,bear,8-0-10,3434_eid_s06_8-0-10_bear_10_n02134418_239.JPEG
subject-06,3,875,0.651648998260498,bicycle,bicycle,2-0-10,3435_eid_s06_2-0-10_bicycle_10_n03792782_13311.JPEG
subject-06,3,876,0.676620006561279,bear,bear,8-0-10,3436_eid_s06_8-0-10_bear_10_n02132136_1558.JPEG
subject-06,3,877,0.678926944732666,airplane,knife,128-0-10,3437_eid_s06_128-0-10_knife_10_n03041632_35764.JPEG
subject-06,3,878,0.995330810546875,bird,bear,64-0-10,3438_eid_s06_64-0-10_bear_10_n02134418_5976.JPEG
subject-06,3,879,0.6439208984375,knife,knife,16-10-10,3439_eid_s06_16-10-10_knife_10_n03041632_56436.JPEG
subject-06,3,880,1.14495611190796,bird,clock,32-3-10,3440_eid_s06_32-3-10_clock_10_n04548280_4522.JPEG
subject-06,3,881,0.570904970169067,bicycle,bicycle,16-10-10,3441_eid_s06_16-10-10_bicycle_10_n03792782_4102.JPEG
subject-06,3,882,0.562820911407471,knife,knife,4-0-10,3442_eid_s06_4-0-10_knife_10_n03041632_43634.JPEG
subject-06,3,883,1.50016784667969,boat,truck,128-10-10,3443_eid_s06_128-10-10_truck_10_n03796401_28776.JPEG
subject-06,3,884,0.652000188827515,truck,truck,1-10-10,3444_eid_s06_1-10-10_truck_10_n03796401_5338.JPEG
subject-06,3,885,0.985046863555908,truck,truck,1-10-10,3445_eid_s06_1-10-10_truck_10_n04467665_67861.JPEG
subject-06,3,886,0.693540811538696,elephant,elephant,1-10-10,3446_eid_s06_1-10-10_elephant_10_n02504458_8212.JPEG
subject-06,3,887,0.871580839157104,airplane,airplane,8-10-10,3447_eid_s06_8-10-10_airplane_10_n02690373_3712.JPEG
subject-06,3,888,0.787446975708008,oven,oven,8-3-10,3448_eid_s06_8-3-10_oven_10_n04111531_3265.JPEG
subject-06,3,889,1.3904709815979,clock,keyboard,16-3-10,3449_eid_s06_16-3-10_keyboard_10_n03085013_19374.JPEG
subject-06,3,890,0.455082893371582,cat,clock,128-10-10,3450_eid_s06_128-10-10_clock_10_n04548280_3356.JPEG
subject-06,3,891,0.549743890762329,oven,oven,4-10-10,3451_eid_s06_4-10-10_oven_10_n04111531_6810.JPEG
subject-06,3,892,0.536499977111816,airplane,bicycle,32-10-10,3452_eid_s06_32-10-10_bicycle_10_n02835271_7685.JPEG
subject-06,3,893,0.814561128616333,bicycle,bear,64-3-10,3453_eid_s06_64-3-10_bear_10_n02134084_1961.JPEG
subject-06,3,894,1.21478295326233,bird,bird,4-10-10,3454_eid_s06_4-10-10_bird_10_n02011460_3833.JPEG
subject-06,3,895,0.77046799659729,chair,clock,32-0-10,3455_eid_s06_32-0-10_clock_10_n02708093_4286.JPEG
subject-06,3,896,1.0487859249115,elephant,elephant,4-0-10,3456_eid_s06_4-0-10_elephant_10_n02504013_4892.JPEG
subject-06,3,897,0.649682998657227,bicycle,truck,64-0-10,3457_eid_s06_64-0-10_truck_10_n03417042_22973.JPEG
subject-06,3,898,0.637972831726074,boat,truck,16-0-10,3458_eid_s06_16-0-10_truck_10_n03417042_11095.JPEG
subject-06,3,899,0.676422119140625,airplane,airplane,2-0-10,3459_eid_s06_2-0-10_airplane_10_n02690373_18555.JPEG
subject-06,3,900,0.627673149108887,airplane,airplane,2-0-10,3460_eid_s06_2-0-10_airplane_10_n02690373_5980.JPEG
subject-06,3,901,0.706017017364502,bird,bird,2-10-10,3461_eid_s06_2-10-10_bird_10_n01582220_9393.JPEG
subject-06,3,902,0.647029161453247,chair,chair,1-10-10,3462_eid_s06_1-10-10_chair_10_n04099969_31891.JPEG
subject-06,3,903,0.517513990402222,cat,keyboard,1-0-10,3463_eid_s06_1-0-10_keyboard_10_n03085013_24649.JPEG
subject-06,3,904,0.582081079483032,cat,cat,2-0-10,3464_eid_s06_2-0-10_cat_10_n02123159_358.JPEG
subject-06,3,905,1.16625094413757,bear,chair,32-0-10,3465_eid_s06_32-0-10_chair_10_n04099969_6944.JPEG
subject-06,3,906,0.814377069473267,bottle,bottle,8-3-10,3466_eid_s06_8-3-10_bottle_10_n04557648_2305.JPEG
subject-06,3,907,1.00178098678589,bear,elephant,16-0-10,3467_eid_s06_16-0-10_elephant_10_n02504013_1432.JPEG
subject-06,3,908,0.527822017669678,oven,bicycle,128-0-10,3468_eid_s06_128-0-10_bicycle_10_n02835271_2900.JPEG
subject-06,3,909,0.674578905105591,chair,oven,2-3-10,3469_eid_s06_2-3-10_oven_10_n04111531_21918.JPEG
subject-06,3,910,0.993435859680176,boat,boat,4-3-10,3470_eid_s06_4-3-10_boat_10_n02951358_11452.JPEG
subject-06,3,911,0.855588912963867,bear,knife,16-3-10,3471_eid_s06_16-3-10_knife_10_n03041632_32177.JPEG
subject-06,3,912,0.896959066390991,bird,bird,64-0-10,3472_eid_s06_64-0-10_bird_10_n01855672_15813.JPEG
subject-06,3,913,0.590687990188599,bird,bird,8-10-10,3473_eid_s06_8-10-10_bird_10_n01860187_8848.JPEG
subject-06,3,914,0.753040075302124,dog,dog,2-3-10,3474_eid_s06_2-3-10_dog_10_n02091831_2944.JPEG
subject-06,3,915,0.47165584564209,airplane,airplane,2-10-10,3475_eid_s06_2-10-10_airplane_10_n02690373_9605.JPEG
subject-06,3,916,1.16686391830444,truck,truck,8-0-10,3476_eid_s06_8-0-10_truck_10_n03417042_3238.JPEG
subject-06,3,917,0.766664028167725,bicycle,bicycle,4-10-10,3477_eid_s06_4-10-10_bicycle_10_n02835271_13729.JPEG
subject-06,3,918,0.761291980743408,bicycle,bottle,32-10-10,3478_eid_s06_32-10-10_bottle_10_n02823428_3469.JPEG
subject-06,3,919,0.549741983413696,bottle,bottle,2-0-10,3479_eid_s06_2-0-10_bottle_10_n03983396_1102.JPEG
subject-06,3,920,0.778037786483765,chair,chair,32-10-10,3480_eid_s06_32-10-10_chair_10_n04099969_28601.JPEG
subject-06,3,921,0.986539125442505,car,car,16-0-10,3481_eid_s06_16-0-10_car_10_n03100240_9412.JPEG
subject-06,3,922,0.504960060119629,bear,bear,1-0-10,3482_eid_s06_1-0-10_bear_10_n02134418_1712.JPEG
subject-06,3,923,0.853902101516724,bicycle,oven,16-0-10,3483_eid_s06_16-0-10_oven_10_n04111531_20056.JPEG
subject-06,3,924,0.708287000656128,boat,airplane,128-0-10,3484_eid_s06_128-0-10_airplane_10_n02690373_9300.JPEG
subject-06,3,925,0.681025981903076,truck,truck,1-3-10,3485_eid_s06_1-3-10_truck_10_n03417042_7977.JPEG
subject-06,3,926,0.821387052536011,knife,chair,16-0-10,3486_eid_s06_16-0-10_chair_10_n02791124_2467.JPEG
subject-06,3,927,0.853711128234863,airplane,airplane,8-0-10,3487_eid_s06_8-0-10_airplane_10_n02690373_8631.JPEG
subject-06,3,928,0.694536209106445,chair,chair,4-10-10,3488_eid_s06_4-10-10_chair_10_n04099969_5140.JPEG
subject-06,3,929,0.589478969573975,airplane,airplane,1-0-10,3489_eid_s06_1-0-10_airplane_10_n02690373_599.JPEG
subject-06,3,930,0.630216836929321,cat,elephant,128-10-10,3490_eid_s06_128-10-10_elephant_10_n02504013_3384.JPEG
subject-06,3,931,0.901158094406128,elephant,elephant,1-10-10,3491_eid_s06_1-10-10_elephant_10_n02504013_4673.JPEG
subject-06,3,932,0.741380929946899,oven,oven,8-3-10,3492_eid_s06_8-3-10_oven_10_n04111531_12589.JPEG
subject-06,3,933,0.851706027984619,bicycle,keyboard,32-3-10,3493_eid_s06_32-3-10_keyboard_10_n04505470_4540.JPEG
subject-06,3,934,0.59251594543457,bicycle,bicycle,32-10-10,3494_eid_s06_32-10-10_bicycle_10_n03792782_6982.JPEG
subject-06,3,935,0.592264890670776,airplane,airplane,4-3-10,3495_eid_s06_4-3-10_airplane_10_n02690373_3151.JPEG
subject-06,3,936,0.586957931518555,bicycle,bicycle,1-0-10,3496_eid_s06_1-0-10_bicycle_10_n02835271_4593.JPEG
subject-06,3,937,0.895396947860718,truck,chair,128-3-10,3497_eid_s06_128-3-10_chair_10_n03376595_9122.JPEG
subject-06,3,938,0.672639131546021,keyboard,keyboard,1-3-10,3498_eid_s06_1-3-10_keyboard_10_n04505470_3825.JPEG
subject-06,3,939,0.545915842056274,cat,chair,64-3-10,3499_eid_s06_64-3-10_chair_10_n02791124_1223.JPEG
subject-06,3,940,0.486247062683105,bicycle,bird,128-3-10,3500_eid_s06_128-3-10_bird_10_n01818515_34674.JPEG
subject-06,3,941,0.810878038406372,knife,bottle,64-0-10,3501_eid_s06_64-0-10_bottle_10_n04591713_1713.JPEG
subject-06,3,942,0.69802188873291,truck,truck,1-0-10,3502_eid_s06_1-0-10_truck_10_n03417042_7209.JPEG
subject-06,3,943,0.546373844146729,keyboard,oven,16-10-10,3503_eid_s06_16-10-10_oven_10_n04111531_9174.JPEG
subject-06,3,944,0.825109004974365,bicycle,bear,128-3-10,3504_eid_s06_128-3-10_bear_10_n02134084_8274.JPEG
subject-06,3,945,0.819592952728271,cat,cat,4-0-10,3505_eid_s06_4-0-10_cat_10_n02124075_9371.JPEG
subject-06,3,946,1.0064640045166,bird,boat,64-3-10,3506_eid_s06_64-3-10_boat_10_n03662601_8943.JPEG
subject-06,3,947,1.16312003135681,truck,truck,4-3-10,3507_eid_s06_4-3-10_truck_10_n04467665_45735.JPEG
subject-06,3,948,0.624943971633911,airplane,boat,32-10-10,3508_eid_s06_32-10-10_boat_10_n03662601_12300.JPEG
