subj,session,trial,rt,object_response,category,condition,imagename
subject-06,2,1,0.735697031021118,cat,cat,1-10-10,1281_eid_s06_1-10-10_cat_10_n02123597_11804.JPEG
subject-06,2,2,0.556081771850586,cat,bicycle,64-10-10,1282_eid_s06_64-10-10_bicycle_10_n03792782_7003.JPEG
subject-06,2,3,0.542808055877686,clock,cat,32-0-10,1283_eid_s06_32-0-10_cat_10_n02123045_10095.JPEG
subject-06,2,4,1.0669858455658,chair,oven,2-10-10,1284_eid_s06_2-10-10_oven_10_n04111531_10216.JPEG
subject-06,2,5,0.605162143707275,knife,elephant,32-3-10,1285_eid_s06_32-3-10_elephant_10_n02504458_1985.JPEG
subject-06,2,6,0.953888893127441,bear,bear,8-3-10,1286_eid_s06_8-3-10_bear_10_n02133161_5723.JPEG
subject-06,2,7,0.585976123809814,clock,knife,128-10-10,1287_eid_s06_128-10-10_knife_10_n03041632_14801.JPEG
subject-06,2,8,0.76403284072876,bird,cat,2-3-10,1288_eid_s06_2-3-10_cat_10_n02125311_34814.JPEG
subject-06,2,9,0.849745035171509,truck,elephant,64-0-10,1289_eid_s06_64-0-10_elephant_10_n02504013_10156.JPEG
subject-06,2,10,0.719690084457397,airplane,dog,128-3-10,1290_eid_s06_128-3-10_dog_10_n02086240_4013.JPEG
subject-06,2,11,NaN,na,cat,2-10-10,1291_eid_s06_2-10-10_cat_10_n02123597_2667.JPEG
subject-06,2,12,0.51230001449585,cat,bird,128-3-10,1292_eid_s06_128-3-10_bird_10_n01614925_30096.JPEG
subject-06,2,13,0.690796852111816,cat,car,32-3-10,1293_eid_s06_32-3-10_car_10_n03100240_5291.JPEG
subject-06,2,14,0.761002063751221,bicycle,dog,16-0-10,1294_eid_s06_16-0-10_dog_10_n02097130_9081.JPEG
subject-06,2,15,0.679798126220703,truck,truck,2-10-10,1295_eid_s06_2-10-10_truck_10_n03417042_6623.JPEG
subject-06,2,16,0.91196084022522,cat,knife,128-3-10,1296_eid_s06_128-3-10_knife_10_n03041632_5102.JPEG
subject-06,2,17,0.727547168731689,airplane,keyboard,128-0-10,1297_eid_s06_128-0-10_keyboard_10_n03085013_21055.JPEG
subject-06,2,18,0.600150108337402,bear,bear,2-10-10,1298_eid_s06_2-10-10_bear_10_n02134084_11793.JPEG
subject-06,2,19,0.549021005630493,cat,clock,128-0-10,1299_eid_s06_128-0-10_clock_10_n03196217_379.JPEG
subject-06,2,20,0.835592985153198,truck,truck,2-3-10,1300_eid_s06_2-3-10_truck_10_n03417042_5488.JPEG
subject-06,2,21,0.653886079788208,knife,oven,16-3-10,1301_eid_s06_16-3-10_oven_10_n04111531_4189.JPEG
subject-06,2,22,0.694396018981934,car,car,1-3-10,1302_eid_s06_1-3-10_car_10_n03100240_2332.JPEG
subject-06,2,23,0.696690082550049,bird,bird,8-3-10,1303_eid_s06_8-3-10_bird_10_n02028035_12919.JPEG
subject-06,2,24,1.26741003990173,elephant,elephant,2-0-10,1304_eid_s06_2-0-10_elephant_10_n02504013_1502.JPEG
subject-06,2,25,0.562114000320435,boat,bear,16-0-10,1305_eid_s06_16-0-10_bear_10_n02133161_1490.JPEG
subject-06,2,26,0.725656032562256,chair,chair,2-0-10,1306_eid_s06_2-0-10_chair_10_n04099969_10966.JPEG
subject-06,2,27,0.895539045333862,bottle,bottle,8-3-10,1307_eid_s06_8-3-10_bottle_10_n03983396_20949.JPEG
subject-06,2,28,0.573202848434448,airplane,car,64-3-10,1308_eid_s06_64-3-10_car_10_n03100240_507.JPEG
subject-06,2,29,0.705801010131836,oven,truck,64-10-10,1309_eid_s06_64-10-10_truck_10_n04467665_9160.JPEG
subject-06,2,30,0.746542930603027,car,car,4-0-10,1310_eid_s06_4-0-10_car_10_n02814533_37629.JPEG
subject-06,2,31,0.665014028549194,keyboard,keyboard,8-3-10,1311_eid_s06_8-3-10_keyboard_10_n04505470_4447.JPEG
subject-06,2,32,0.851621866226196,bicycle,bicycle,1-10-10,1312_eid_s06_1-10-10_bicycle_10_n02835271_7922.JPEG
subject-06,2,33,0.962064981460571,bicycle,bicycle,128-3-10,1313_eid_s06_128-3-10_bicycle_10_n02835271_15196.JPEG
subject-06,2,34,0.764884948730469,bottle,keyboard,8-0-10,1314_eid_s06_8-0-10_keyboard_10_n03085013_19317.JPEG
subject-06,2,35,0.825308084487915,bicycle,elephant,128-0-10,1315_eid_s06_128-0-10_elephant_10_n02504458_6412.JPEG
subject-06,2,36,1.20370411872864,bear,dog,64-0-10,1316_eid_s06_64-0-10_dog_10_n02110185_703.JPEG
subject-06,2,37,0.736055850982666,truck,truck,2-10-10,1317_eid_s06_2-10-10_truck_10_n03796401_6971.JPEG
subject-06,2,38,0.592288017272949,cat,bear,32-10-10,1318_eid_s06_32-10-10_bear_10_n02132136_11285.JPEG
subject-06,2,39,0.946650981903076,bear,bear,8-10-10,1319_eid_s06_8-10-10_bear_10_n02134084_1236.JPEG
subject-06,2,40,0.787008047103882,clock,chair,2-3-10,1320_eid_s06_2-3-10_chair_10_n04429376_12197.JPEG
subject-06,2,41,0.827533006668091,bottle,bottle,4-0-10,1321_eid_s06_4-0-10_bottle_10_n04560804_14130.JPEG
subject-06,2,42,0.630033016204834,cat,oven,64-10-10,1322_eid_s06_64-10-10_oven_10_n04111531_1567.JPEG
subject-06,2,43,0.82032585144043,car,truck,4-0-10,1323_eid_s06_4-0-10_truck_10_n03417042_6749.JPEG
subject-06,2,44,0.868937015533447,bird,elephant,8-0-10,1324_eid_s06_8-0-10_elephant_10_n02504458_5152.JPEG
subject-06,2,45,1.16341590881348,dog,dog,2-10-10,1325_eid_s06_2-10-10_dog_10_n02097298_2.JPEG
subject-06,2,46,0.84158992767334,bottle,boat,128-0-10,1326_eid_s06_128-0-10_boat_10_n02951358_9888.JPEG
subject-06,2,47,0.58988094329834,airplane,bottle,32-10-10,1327_eid_s06_32-10-10_bottle_10_n04557648_11471.JPEG
subject-06,2,48,0.776203870773315,keyboard,keyboard,8-3-10,1328_eid_s06_8-3-10_keyboard_10_n03085013_23323.JPEG
subject-06,2,49,0.640809059143066,boat,truck,32-10-10,1329_eid_s06_32-10-10_truck_10_n04467665_68020.JPEG
subject-06,2,50,0.627334117889404,bicycle,cat,128-10-10,1330_eid_s06_128-10-10_cat_10_n02123045_5161.JPEG
subject-06,2,51,0.545558214187622,oven,bicycle,32-3-10,1331_eid_s06_32-3-10_bicycle_10_n03792782_90.JPEG
subject-06,2,52,0.639863967895508,clock,clock,2-0-10,1332_eid_s06_2-0-10_clock_10_n02708093_3841.JPEG
subject-06,2,53,0.907537937164307,airplane,boat,8-3-10,1333_eid_s06_8-3-10_boat_10_n03662601_5419.JPEG
subject-06,2,54,0.688179016113281,chair,knife,64-10-10,1334_eid_s06_64-10-10_knife_10_n03041632_105081.JPEG
subject-06,2,55,0.796470880508423,cat,cat,1-3-10,1335_eid_s06_1-3-10_cat_10_n02123597_8749.JPEG
subject-06,2,56,0.947909116744995,airplane,airplane,1-0-10,1336_eid_s06_1-0-10_airplane_10_n02690373_10374.JPEG
subject-06,2,57,0.593399047851562,cat,elephant,64-3-10,1337_eid_s06_64-3-10_elephant_10_n02504458_935.JPEG
subject-06,2,58,1.03459596633911,bottle,bottle,4-0-10,1338_eid_s06_4-0-10_bottle_10_n02823428_1314.JPEG
subject-06,2,59,0.536595821380615,bicycle,chair,32-3-10,1339_eid_s06_32-3-10_chair_10_n02791124_13361.JPEG
subject-06,2,60,0.625241041183472,bear,dog,2-3-10,1340_eid_s06_2-3-10_dog_10_n02102973_8147.JPEG
subject-06,2,61,0.979906797409058,airplane,airplane,1-3-10,1341_eid_s06_1-3-10_airplane_10_n02690373_9425.JPEG
subject-06,2,62,0.882071971893311,knife,knife,32-0-10,1342_eid_s06_32-0-10_knife_10_n03041632_48149.JPEG
subject-06,2,63,1.05667209625244,dog,dog,1-10-10,1343_eid_s06_1-10-10_dog_10_n02108422_9145.JPEG
subject-06,2,64,0.475697040557861,airplane,airplane,4-0-10,1344_eid_s06_4-0-10_airplane_10_n02690373_290.JPEG
subject-06,2,65,0.555922031402588,boat,truck,128-3-10,1345_eid_s06_128-3-10_truck_10_n03417042_15970.JPEG
subject-06,2,66,0.696700811386108,chair,boat,64-10-10,1346_eid_s06_64-10-10_boat_10_n04612504_8958.JPEG
subject-06,2,67,0.875252962112427,bottle,knife,8-0-10,1347_eid_s06_8-0-10_knife_10_n03041632_737.JPEG
subject-06,2,68,0.607507944107056,cat,cat,2-0-10,1348_eid_s06_2-0-10_cat_10_n02123159_1872.JPEG
subject-06,2,69,0.594322919845581,dog,dog,2-10-10,1349_eid_s06_2-10-10_dog_10_n02093256_4694.JPEG
subject-06,2,70,0.758469104766846,bear,dog,32-0-10,1350_eid_s06_32-0-10_dog_10_n02095570_3745.JPEG
subject-06,2,71,0.691208839416504,keyboard,keyboard,4-10-10,1351_eid_s06_4-10-10_keyboard_10_n03085013_20377.JPEG
subject-06,2,72,0.915204048156738,chair,bottle,1-10-10,1352_eid_s06_1-10-10_bottle_10_n04591713_5295.JPEG
subject-06,2,73,1.19292712211609,cat,bottle,8-0-10,1353_eid_s06_8-0-10_bottle_10_n03937543_3219.JPEG
subject-06,2,74,0.54908299446106,cat,chair,16-0-10,1354_eid_s06_16-0-10_chair_10_n02791124_13568.JPEG
subject-06,2,75,1.13568115234375,car,car,8-3-10,1355_eid_s06_8-3-10_car_10_n03100240_12065.JPEG
subject-06,2,76,0.700506925582886,chair,oven,4-10-10,1356_eid_s06_4-10-10_oven_10_n04111531_4331.JPEG
subject-06,2,77,1.14177894592285,boat,oven,4-10-10,1357_eid_s06_4-10-10_oven_10_n04111531_5897.JPEG
subject-06,2,78,0.774378061294556,knife,car,64-10-10,1358_eid_s06_64-10-10_car_10_n02814533_44901.JPEG
subject-06,2,79,0.893094062805176,airplane,bicycle,64-10-10,1359_eid_s06_64-10-10_bicycle_10_n03792782_18702.JPEG
subject-06,2,80,0.55547308921814,cat,airplane,64-3-10,1360_eid_s06_64-3-10_airplane_10_n02690373_1979.JPEG
subject-06,2,81,0.541651964187622,bicycle,bicycle,1-10-10,1361_eid_s06_1-10-10_bicycle_10_n03792782_22620.JPEG
subject-06,2,82,0.873549938201904,car,truck,8-0-10,1362_eid_s06_8-0-10_truck_10_n03796401_874.JPEG
subject-06,2,83,0.875590085983276,bottle,bottle,2-10-10,1363_eid_s06_2-10-10_bottle_10_n04579145_4378.JPEG
subject-06,2,84,0.822342872619629,bottle,knife,8-3-10,1364_eid_s06_8-3-10_knife_10_n03041632_51766.JPEG
subject-06,2,85,0.949203014373779,knife,clock,128-10-10,1365_eid_s06_128-10-10_clock_10_n03196217_8785.JPEG
subject-06,2,86,0.981709003448486,elephant,oven,16-0-10,1366_eid_s06_16-0-10_oven_10_n04111531_19075.JPEG
subject-06,2,87,1.22657513618469,boat,boat,64-10-10,1367_eid_s06_64-10-10_boat_10_n04612504_603.JPEG
subject-06,2,88,0.928941011428833,airplane,airplane,1-3-10,1368_eid_s06_1-3-10_airplane_10_n02690373_971.JPEG
subject-06,2,89,0.774172067642212,airplane,airplane,16-0-10,1369_eid_s06_16-0-10_airplane_10_n02690373_5007.JPEG
subject-06,2,90,0.7603759765625,bear,bird,16-10-10,1370_eid_s06_16-10-10_bird_10_n02007558_13277.JPEG
subject-06,2,91,1.16696286201477,car,bottle,64-10-10,1371_eid_s06_64-10-10_bottle_10_n04557648_774.JPEG
subject-06,2,92,0.73664402961731,chair,chair,4-0-10,1372_eid_s06_4-0-10_chair_10_n02791124_11506.JPEG
subject-06,2,93,0.607241868972778,oven,bear,128-0-10,1373_eid_s06_128-0-10_bear_10_n02132136_11159.JPEG
subject-06,2,94,0.783337831497192,cat,keyboard,128-3-10,1374_eid_s06_128-3-10_keyboard_10_n04505470_9996.JPEG
subject-06,2,95,0.561839818954468,airplane,airplane,1-3-10,1375_eid_s06_1-3-10_airplane_10_n02690373_8274.JPEG
subject-06,2,96,0.726922035217285,bear,car,64-10-10,1376_eid_s06_64-10-10_car_10_n02814533_60889.JPEG
subject-06,2,97,0.904959917068481,chair,boat,16-3-10,1377_eid_s06_16-3-10_boat_10_n04273569_15583.JPEG
subject-06,2,98,0.821943044662476,bicycle,elephant,32-0-10,1378_eid_s06_32-0-10_elephant_10_n02504458_2556.JPEG
subject-06,2,99,0.920317888259888,oven,oven,2-10-10,1379_eid_s06_2-10-10_oven_10_n04111531_16251.JPEG
subject-06,2,100,0.697885990142822,keyboard,keyboard,2-3-10,1380_eid_s06_2-3-10_keyboard_10_n03085013_4489.JPEG
subject-06,2,101,0.980742931365967,dog,dog,2-3-10,1381_eid_s06_2-3-10_dog_10_n02100236_2405.JPEG
subject-06,2,102,0.98340892791748,bird,airplane,64-0-10,1382_eid_s06_64-0-10_airplane_10_n02690373_7698.JPEG
subject-06,2,103,0.902472019195557,dog,dog,4-0-10,1383_eid_s06_4-0-10_dog_10_n02104365_3158.JPEG
subject-06,2,104,0.556367158889771,bicycle,car,128-10-10,1384_eid_s06_128-10-10_car_10_n03100240_11544.JPEG
subject-06,2,105,1.02090096473694,keyboard,keyboard,128-0-10,1385_eid_s06_128-0-10_keyboard_10_n04505470_4594.JPEG
subject-06,2,106,0.555878877639771,car,boat,64-0-10,1386_eid_s06_64-0-10_boat_10_n04273569_10961.JPEG
subject-06,2,107,0.726401805877686,clock,clock,1-10-10,1387_eid_s06_1-10-10_clock_10_n02708093_7069.JPEG
subject-06,2,108,0.658709049224854,cat,bottle,64-3-10,1388_eid_s06_64-3-10_bottle_10_n04579145_4385.JPEG
subject-06,2,109,0.591278791427612,bicycle,bear,64-3-10,1389_eid_s06_64-3-10_bear_10_n02132136_5135.JPEG
subject-06,2,110,1.12373900413513,car,bear,2-10-10,1390_eid_s06_2-10-10_bear_10_n02133161_9387.JPEG
subject-06,2,111,0.672214031219482,airplane,airplane,32-0-10,1391_eid_s06_32-0-10_airplane_10_n02690373_3511.JPEG
subject-06,2,112,0.612406969070435,bicycle,bicycle,8-10-10,1392_eid_s06_8-10-10_bicycle_10_n03792782_7438.JPEG
subject-06,2,113,0.793046951293945,chair,truck,16-0-10,1393_eid_s06_16-0-10_truck_10_n03796401_6977.JPEG
subject-06,2,114,0.917351007461548,car,elephant,4-0-10,1394_eid_s06_4-0-10_elephant_10_n02504013_9099.JPEG
subject-06,2,115,0.711782932281494,cat,bear,64-3-10,1395_eid_s06_64-3-10_bear_10_n02134418_3506.JPEG
subject-06,2,116,1.2281699180603,boat,knife,2-0-10,1396_eid_s06_2-0-10_knife_10_n03041632_50034.JPEG
subject-06,2,117,0.591973066329956,bird,bird,4-0-10,1397_eid_s06_4-0-10_bird_10_n02028035_7056.JPEG
subject-06,2,118,0.545779943466187,bicycle,elephant,32-0-10,1398_eid_s06_32-0-10_elephant_10_n02504458_1996.JPEG
subject-06,2,119,0.515763998031616,oven,bird,32-0-10,1399_eid_s06_32-0-10_bird_10_n01855032_1573.JPEG
subject-06,2,120,0.964361906051636,chair,bottle,8-0-10,1400_eid_s06_8-0-10_bottle_10_n02823428_11663.JPEG
subject-06,2,121,0.817395925521851,bottle,bottle,1-10-10,1401_eid_s06_1-10-10_bottle_10_n03983396_3329.JPEG
subject-06,2,122,1.26580286026001,bicycle,clock,4-3-10,1402_eid_s06_4-3-10_clock_10_n04548280_10390.JPEG
subject-06,2,123,0.744840145111084,bottle,knife,64-10-10,1403_eid_s06_64-10-10_knife_10_n03041632_20413.JPEG
subject-06,2,124,0.59339714050293,bottle,bottle,2-0-10,1404_eid_s06_2-0-10_bottle_10_n02823428_11140.JPEG
subject-06,2,125,0.729816913604736,bicycle,boat,64-0-10,1405_eid_s06_64-0-10_boat_10_n02951358_2907.JPEG
subject-06,2,126,0.869798898696899,boat,bear,1-10-10,1406_eid_s06_1-10-10_bear_10_n02132136_6607.JPEG
subject-06,2,127,0.799437046051025,knife,knife,2-10-10,1407_eid_s06_2-10-10_knife_10_n03041632_25331.JPEG
subject-06,2,128,0.809752941131592,elephant,boat,16-3-10,1408_eid_s06_16-3-10_boat_10_n04612504_1749.JPEG
subject-06,2,129,0.574383974075317,truck,truck,4-3-10,1409_eid_s06_4-3-10_truck_10_n03417042_2633.JPEG
subject-06,2,130,1.01516699790955,bicycle,bicycle,8-3-10,1410_eid_s06_8-3-10_bicycle_10_n03792782_14156.JPEG
subject-06,2,131,0.893725872039795,elephant,elephant,2-3-10,1411_eid_s06_2-3-10_elephant_10_n02504013_5685.JPEG
subject-06,2,132,0.588069915771484,car,car,1-0-10,1412_eid_s06_1-0-10_car_10_n02814533_81792.JPEG
subject-06,2,133,0.758924961090088,bottle,bottle,2-3-10,1413_eid_s06_2-3-10_bottle_10_n03937543_11673.JPEG
subject-06,2,134,0.945095062255859,oven,bird,64-3-10,1414_eid_s06_64-3-10_bird_10_n01817953_9347.JPEG
subject-06,2,135,0.715152025222778,cat,knife,32-0-10,1415_eid_s06_32-0-10_knife_10_n03041632_29285.JPEG
subject-06,2,136,0.687530994415283,airplane,airplane,4-0-10,1416_eid_s06_4-0-10_airplane_10_n02690373_4201.JPEG
subject-06,2,137,0.749866008758545,cat,bicycle,32-10-10,1417_eid_s06_32-10-10_bicycle_10_n03792782_22669.JPEG
subject-06,2,138,0.827386856079102,bicycle,bicycle,2-3-10,1418_eid_s06_2-3-10_bicycle_10_n03792782_1642.JPEG
subject-06,2,139,0.634397029876709,bird,car,64-3-10,1419_eid_s06_64-3-10_car_10_n03100240_6773.JPEG
subject-06,2,140,0.696594953536987,bicycle,bicycle,32-10-10,1420_eid_s06_32-10-10_bicycle_10_n03792782_1466.JPEG
subject-06,2,141,0.507142066955566,bottle,bottle,8-10-10,1421_eid_s06_8-10-10_bottle_10_n02823428_8849.JPEG
subject-06,2,142,0.690678834915161,knife,keyboard,8-0-10,1422_eid_s06_8-0-10_keyboard_10_n03085013_21150.JPEG
subject-06,2,143,0.689713001251221,bicycle,truck,64-3-10,1423_eid_s06_64-3-10_truck_10_n03417042_23296.JPEG
subject-06,2,144,0.913979053497314,chair,bicycle,128-3-10,1424_eid_s06_128-3-10_bicycle_10_n03792782_2905.JPEG
subject-06,2,145,0.891500949859619,car,clock,16-0-10,1425_eid_s06_16-0-10_clock_10_n02708093_6820.JPEG
subject-06,2,146,1.01816582679749,clock,cat,32-3-10,1426_eid_s06_32-3-10_cat_10_n02124075_4509.JPEG
subject-06,2,147,1.31818103790283,truck,boat,8-10-10,1427_eid_s06_8-10-10_boat_10_n03662601_22164.JPEG
subject-06,2,148,0.834857940673828,oven,keyboard,128-10-10,1428_eid_s06_128-10-10_keyboard_10_n04505470_4490.JPEG
subject-06,2,149,0.561422824859619,bicycle,bicycle,4-10-10,1429_eid_s06_4-10-10_bicycle_10_n02835271_3811.JPEG
subject-06,2,150,0.831557989120483,keyboard,dog,128-3-10,1430_eid_s06_128-3-10_dog_10_n02088094_3903.JPEG
subject-06,2,151,0.918069839477539,truck,bicycle,8-0-10,1431_eid_s06_8-0-10_bicycle_10_n02835271_24708.JPEG
subject-06,2,152,0.81266713142395,bicycle,chair,32-3-10,1432_eid_s06_32-3-10_chair_10_n03376595_7041.JPEG
subject-06,2,153,0.623278141021729,airplane,airplane,64-10-10,1433_eid_s06_64-10-10_airplane_10_n02690373_848.JPEG
subject-06,2,154,0.44003701210022,boat,boat,1-3-10,1434_eid_s06_1-3-10_boat_10_n04273569_13670.JPEG
subject-06,2,155,0.618599891662598,elephant,elephant,1-0-10,1435_eid_s06_1-0-10_elephant_10_n02504458_5320.JPEG
subject-06,2,156,0.628241062164307,cat,cat,4-10-10,1436_eid_s06_4-10-10_cat_10_n02124075_810.JPEG
subject-06,2,157,0.720391988754272,clock,oven,1-0-10,1437_eid_s06_1-0-10_oven_10_n04111531_4955.JPEG
subject-06,2,158,0.755658149719238,car,car,32-10-10,1438_eid_s06_32-10-10_car_10_n02814533_74242.JPEG
subject-06,2,159,0.555682897567749,cat,bear,128-10-10,1439_eid_s06_128-10-10_bear_10_n02132136_1914.JPEG
subject-06,2,160,1.0420880317688,bird,bird,1-3-10,1440_eid_s06_1-3-10_bird_10_n01534433_9925.JPEG
subject-06,2,161,0.506419897079468,airplane,airplane,2-10-10,1441_eid_s06_2-10-10_airplane_10_n02690373_2440.JPEG
subject-06,2,162,0.631160020828247,car,car,8-10-10,1442_eid_s06_8-10-10_car_10_n03100240_1294.JPEG
subject-06,2,163,0.571550846099854,cat,bottle,128-10-10,1443_eid_s06_128-10-10_bottle_10_n03937543_11751.JPEG
subject-06,2,164,0.679921865463257,bear,bear,4-10-10,1444_eid_s06_4-10-10_bear_10_n02134418_5730.JPEG
subject-06,2,165,0.536538124084473,bottle,bottle,16-10-10,1445_eid_s06_16-10-10_bottle_10_n04579145_4130.JPEG
subject-06,2,166,0.698961973190308,knife,bottle,128-0-10,1446_eid_s06_128-0-10_bottle_10_n03937543_1177.JPEG
subject-06,2,167,0.625501871109009,keyboard,keyboard,32-10-10,1447_eid_s06_32-10-10_keyboard_10_n03085013_30943.JPEG
subject-06,2,168,0.542334079742432,cat,bear,16-10-10,1448_eid_s06_16-10-10_bear_10_n02134084_8272.JPEG
subject-06,2,169,0.77479100227356,car,cat,8-0-10,1449_eid_s06_8-0-10_cat_10_n02123394_7051.JPEG
subject-06,2,170,0.815129041671753,bird,bird,32-10-10,1450_eid_s06_32-10-10_bird_10_n01601694_22310.JPEG
subject-06,2,171,1.16956901550293,boat,boat,1-0-10,1451_eid_s06_1-0-10_boat_10_n02951358_33722.JPEG
subject-06,2,172,0.642220020294189,airplane,truck,32-10-10,1452_eid_s06_32-10-10_truck_10_n04467665_66797.JPEG
subject-06,2,173,0.83356785774231,bicycle,boat,128-0-10,1453_eid_s06_128-0-10_boat_10_n03662601_20168.JPEG
subject-06,2,174,0.635903120040894,car,knife,32-0-10,1454_eid_s06_32-0-10_knife_10_n03041632_25479.JPEG
subject-06,2,175,0.744097948074341,knife,bicycle,128-3-10,1455_eid_s06_128-3-10_bicycle_10_n02835271_14891.JPEG
subject-06,2,176,0.815129995346069,bottle,bottle,1-10-10,1456_eid_s06_1-10-10_bottle_10_n03983396_10460.JPEG
subject-06,2,177,1.05548501014709,truck,bear,128-0-10,1457_eid_s06_128-0-10_bear_10_n02134084_7622.JPEG
subject-06,2,178,0.759062051773071,bear,bear,1-10-10,1458_eid_s06_1-10-10_bear_10_n02134084_9539.JPEG
subject-06,2,179,0.631143093109131,boat,boat,2-3-10,1459_eid_s06_2-3-10_boat_10_n02951358_8522.JPEG
subject-06,2,180,0.8175368309021,bird,bird,8-10-10,1460_eid_s06_8-10-10_bird_10_n01820546_2397.JPEG
subject-06,2,181,0.687839984893799,cat,cat,8-10-10,1461_eid_s06_8-10-10_cat_10_n02124075_6033.JPEG
subject-06,2,182,0.758405923843384,chair,chair,1-3-10,1462_eid_s06_1-3-10_chair_10_n04099969_4275.JPEG
subject-06,2,183,1.39163398742676,oven,clock,8-3-10,1463_eid_s06_8-3-10_clock_10_n03196217_4491.JPEG
subject-06,2,184,0.665693044662476,truck,truck,1-3-10,1464_eid_s06_1-3-10_truck_10_n04467665_1029.JPEG
subject-06,2,185,0.48419189453125,bicycle,elephant,128-3-10,1465_eid_s06_128-3-10_elephant_10_n02504013_3083.JPEG
subject-06,2,186,0.516916990280151,cat,cat,2-3-10,1466_eid_s06_2-3-10_cat_10_n02123045_3298.JPEG
subject-06,2,187,0.624903917312622,cat,cat,8-10-10,1467_eid_s06_8-10-10_cat_10_n02123597_1245.JPEG
subject-06,2,188,0.603472948074341,airplane,airplane,16-3-10,1468_eid_s06_16-3-10_airplane_10_n02690373_4728.JPEG
subject-06,2,189,0.689889192581177,knife,knife,4-10-10,1469_eid_s06_4-10-10_knife_10_n03041632_29276.JPEG
subject-06,2,190,0.892110109329224,airplane,truck,8-3-10,1470_eid_s06_8-3-10_truck_10_n04467665_68386.JPEG
subject-06,2,191,0.600323915481567,cat,dog,16-0-10,1471_eid_s06_16-0-10_dog_10_n02086646_946.JPEG
subject-06,2,192,0.516804933547974,boat,boat,16-0-10,1472_eid_s06_16-0-10_boat_10_n04612504_12301.JPEG
subject-06,2,193,0.656581878662109,cat,dog,64-10-10,1473_eid_s06_64-10-10_dog_10_n02099849_593.JPEG
subject-06,2,194,0.851037979125977,cat,bottle,32-0-10,1474_eid_s06_32-0-10_bottle_10_n03937543_2927.JPEG
subject-06,2,195,0.757881879806519,knife,knife,2-3-10,1475_eid_s06_2-3-10_knife_10_n03041632_15431.JPEG
subject-06,2,196,0.790895938873291,bird,cat,16-10-10,1476_eid_s06_16-10-10_cat_10_n02123597_13128.JPEG
subject-06,2,197,0.861049175262451,bear,bear,1-10-10,1477_eid_s06_1-10-10_bear_10_n02134084_13434.JPEG
subject-06,2,198,0.601100206375122,boat,boat,1-0-10,1478_eid_s06_1-0-10_boat_10_n04612504_17933.JPEG
subject-06,2,199,0.617925882339478,boat,boat,8-0-10,1479_eid_s06_8-0-10_boat_10_n03662601_1971.JPEG
subject-06,2,200,1.0425751209259,bird,bird,16-10-10,1480_eid_s06_16-10-10_bird_10_n01796340_2093.JPEG
subject-06,2,201,0.952989816665649,keyboard,clock,4-10-10,1481_eid_s06_4-10-10_clock_10_n03196217_1109.JPEG
subject-06,2,202,0.439846992492676,boat,boat,1-10-10,1482_eid_s06_1-10-10_boat_10_n03662601_34526.JPEG
subject-06,2,203,0.556360006332397,clock,chair,16-0-10,1483_eid_s06_16-0-10_chair_10_n03376595_9536.JPEG
subject-06,2,204,0.542781829833984,clock,clock,4-0-10,1484_eid_s06_4-0-10_clock_10_n03196217_6831.JPEG
subject-06,2,205,0.553375005722046,cat,airplane,128-10-10,1485_eid_s06_128-10-10_airplane_10_n02690373_1563.JPEG
subject-06,2,206,0.607501029968262,boat,boat,1-0-10,1486_eid_s06_1-0-10_boat_10_n02951358_4999.JPEG
subject-06,2,207,1.3161039352417,bicycle,elephant,128-3-10,1487_eid_s06_128-3-10_elephant_10_n02504013_22773.JPEG
subject-06,2,208,0.971990823745728,bear,clock,64-3-10,1488_eid_s06_64-3-10_clock_10_n03196217_3104.JPEG
subject-06,2,209,0.918621063232422,dog,dog,4-0-10,1489_eid_s06_4-0-10_dog_10_n02106166_561.JPEG
subject-06,2,210,0.596791982650757,airplane,bottle,128-0-10,1490_eid_s06_128-0-10_bottle_10_n04557648_8962.JPEG
subject-06,2,211,0.938323020935059,airplane,boat,8-0-10,1491_eid_s06_8-0-10_boat_10_n04273569_3813.JPEG
subject-06,2,212,0.548062086105347,oven,keyboard,64-3-10,1492_eid_s06_64-3-10_keyboard_10_n03085013_23571.JPEG
subject-06,2,213,0.472784996032715,airplane,airplane,4-3-10,1493_eid_s06_4-3-10_airplane_10_n02690373_3090.JPEG
subject-06,2,214,1.03529906272888,bird,bird,8-3-10,1494_eid_s06_8-3-10_bird_10_n01532829_20967.JPEG
subject-06,2,215,0.599729061126709,car,car,8-3-10,1495_eid_s06_8-3-10_car_10_n02814533_69807.JPEG
subject-06,2,216,0.748708963394165,cat,cat,4-0-10,1496_eid_s06_4-0-10_cat_10_n02123045_10885.JPEG
subject-06,2,217,0.657140970230103,bird,clock,32-10-10,1497_eid_s06_32-10-10_clock_10_n03196217_634.JPEG
subject-06,2,218,0.619711875915527,airplane,keyboard,128-10-10,1498_eid_s06_128-10-10_keyboard_10_n04505470_543.JPEG
subject-06,2,219,0.552329063415527,car,car,4-0-10,1499_eid_s06_4-0-10_car_10_n03100240_23363.JPEG
subject-06,2,220,0.538421869277954,airplane,bird,128-0-10,1500_eid_s06_128-0-10_bird_10_n01819313_5426.JPEG
subject-06,2,221,0.633126020431519,bird,bird,64-10-10,1501_eid_s06_64-10-10_bird_10_n02006656_6382.JPEG
subject-06,2,222,0.957680940628052,bird,bird,16-0-10,1502_eid_s06_16-0-10_bird_10_n01532829_3655.JPEG
subject-06,2,223,0.576166868209839,bicycle,bicycle,4-3-10,1503_eid_s06_4-3-10_bicycle_10_n03792782_1921.JPEG
subject-06,2,224,0.83066987991333,elephant,elephant,8-3-10,1504_eid_s06_8-3-10_elephant_10_n02504013_2033.JPEG
subject-06,2,225,0.525403022766113,cat,car,32-0-10,1505_eid_s06_32-0-10_car_10_n03100240_3874.JPEG
subject-06,2,226,0.834070205688477,car,car,1-0-10,1506_eid_s06_1-0-10_car_10_n03100240_14896.JPEG
subject-06,2,227,1.0121328830719,elephant,car,32-3-10,1507_eid_s06_32-3-10_car_10_n04285008_876.JPEG
subject-06,2,228,0.598767995834351,bicycle,bicycle,1-0-10,1508_eid_s06_1-0-10_bicycle_10_n03792782_15114.JPEG
subject-06,2,229,1.36923980712891,dog,dog,1-10-10,1509_eid_s06_1-10-10_dog_10_n02096294_5966.JPEG
subject-06,2,230,0.793230056762695,bird,bottle,16-0-10,1510_eid_s06_16-0-10_bottle_10_n04557648_2489.JPEG
subject-06,2,231,1.02555203437805,car,bottle,4-0-10,1511_eid_s06_4-0-10_bottle_10_n03937543_3977.JPEG
subject-06,2,232,0.858437061309814,car,car,8-10-10,1512_eid_s06_8-10-10_car_10_n04285008_11973.JPEG
subject-06,2,233,0.520710945129395,airplane,airplane,1-10-10,1513_eid_s06_1-10-10_airplane_10_n02690373_3269.JPEG
subject-06,2,234,0.907548189163208,dog,dog,1-3-10,1514_eid_s06_1-3-10_dog_10_n02111500_5826.JPEG
subject-06,2,235,1.30792117118835,dog,dog,2-0-10,1515_eid_s06_2-0-10_dog_10_n02105251_2195.JPEG
subject-06,2,236,0.542143821716309,cat,truck,32-0-10,1516_eid_s06_32-0-10_truck_10_n04467665_76958.JPEG
subject-06,2,237,0.726242065429688,car,car,4-10-10,1517_eid_s06_4-10-10_car_10_n02814533_4856.JPEG
subject-06,2,238,1.25873494148254,car,oven,1-0-10,1518_eid_s06_1-0-10_oven_10_n04111531_4392.JPEG
subject-06,2,239,1.25892090797424,bicycle,bicycle,4-10-10,1519_eid_s06_4-10-10_bicycle_10_n02835271_7592.JPEG
subject-06,2,240,0.961524963378906,airplane,airplane,8-0-10,1520_eid_s06_8-0-10_airplane_10_n02690373_1670.JPEG
subject-06,2,241,0.807950973510742,oven,airplane,128-3-10,1521_eid_s06_128-3-10_airplane_10_n02690373_5164.JPEG
subject-06,2,242,0.648237943649292,chair,dog,128-0-10,1522_eid_s06_128-0-10_dog_10_n02086910_5010.JPEG
subject-06,2,243,0.535294055938721,car,keyboard,64-0-10,1523_eid_s06_64-0-10_keyboard_10_n03085013_4856.JPEG
subject-06,2,244,0.613490104675293,cat,cat,128-10-10,1524_eid_s06_128-10-10_cat_10_n02123045_12010.JPEG
subject-06,2,245,0.68408203125,truck,car,1-10-10,1525_eid_s06_1-10-10_car_10_n02814533_7708.JPEG
subject-06,2,246,0.562711954116821,cat,cat,8-3-10,1526_eid_s06_8-3-10_cat_10_n02123159_3307.JPEG
subject-06,2,247,0.532568216323853,airplane,airplane,8-0-10,1527_eid_s06_8-0-10_airplane_10_n02690373_9376.JPEG
subject-06,2,248,1.07902908325195,cat,boat,16-0-10,1528_eid_s06_16-0-10_boat_10_n03662601_1764.JPEG
subject-06,2,249,0.590218067169189,clock,clock,8-3-10,1529_eid_s06_8-3-10_clock_10_n03196217_170.JPEG
subject-06,2,250,0.592774868011475,cat,truck,32-0-10,1530_eid_s06_32-0-10_truck_10_n03796401_14490.JPEG
subject-06,2,251,0.687172889709473,bicycle,clock,64-3-10,1531_eid_s06_64-3-10_clock_10_n02708093_1677.JPEG
subject-06,2,252,0.765833854675293,oven,oven,2-10-10,1532_eid_s06_2-10-10_oven_10_n04111531_20953.JPEG
subject-06,2,253,0.796634912490845,clock,clock,8-0-10,1533_eid_s06_8-0-10_clock_10_n02708093_2815.JPEG
subject-06,2,254,0.666696071624756,bear,bicycle,64-3-10,1534_eid_s06_64-3-10_bicycle_10_n03792782_922.JPEG
subject-06,2,255,0.73101806640625,boat,boat,8-3-10,1535_eid_s06_8-3-10_boat_10_n03344393_5844.JPEG
subject-06,2,256,0.763686895370483,elephant,elephant,16-3-10,1536_eid_s06_16-3-10_elephant_10_n02504458_1848.JPEG
subject-06,2,257,0.608828067779541,oven,oven,32-3-10,1537_eid_s06_32-3-10_oven_10_n04111531_21911.JPEG
subject-06,2,258,0.679357051849365,car,car,8-10-10,1538_eid_s06_8-10-10_car_10_n03100240_16432.JPEG
subject-06,2,259,0.565409898757935,knife,knife,1-3-10,1539_eid_s06_1-3-10_knife_10_n03041632_55711.JPEG
subject-06,2,260,0.520177125930786,keyboard,keyboard,1-10-10,1540_eid_s06_1-10-10_keyboard_10_n03085013_23962.JPEG
subject-06,2,261,0.592781782150269,dog,dog,8-10-10,1541_eid_s06_8-10-10_dog_10_n02110063_855.JPEG
subject-06,2,262,0.670965909957886,bicycle,bird,8-0-10,1542_eid_s06_8-0-10_bird_10_n02051845_7425.JPEG
subject-06,2,263,0.595983982086182,cat,cat,1-0-10,1543_eid_s06_1-0-10_cat_10_n02123597_11496.JPEG
subject-06,2,264,1.0258309841156,bird,bicycle,128-3-10,1544_eid_s06_128-3-10_bicycle_10_n03792782_4923.JPEG
subject-06,2,265,0.595891952514648,keyboard,keyboard,4-0-10,1545_eid_s06_4-0-10_keyboard_10_n04505470_5057.JPEG
subject-06,2,266,0.658545970916748,elephant,elephant,1-3-10,1546_eid_s06_1-3-10_elephant_10_n02504458_2716.JPEG
subject-06,2,267,1.06880307197571,knife,chair,8-0-10,1547_eid_s06_8-0-10_chair_10_n04429376_24699.JPEG
subject-06,2,268,0.531555891036987,oven,bottle,32-0-10,1548_eid_s06_32-0-10_bottle_10_n04560804_53.JPEG
subject-06,2,269,0.780190944671631,dog,dog,16-10-10,1549_eid_s06_16-10-10_dog_10_n02102318_3668.JPEG
subject-06,2,270,0.950889110565186,keyboard,boat,64-10-10,1550_eid_s06_64-10-10_boat_10_n03344393_10038.JPEG
subject-06,2,271,0.983277082443237,boat,bear,32-3-10,1551_eid_s06_32-3-10_bear_10_n02133161_6575.JPEG
subject-06,2,272,0.953739881515503,car,dog,128-3-10,1552_eid_s06_128-3-10_dog_10_n02100735_11894.JPEG
subject-06,2,273,0.762276887893677,bottle,bottle,1-10-10,1553_eid_s06_1-10-10_bottle_10_n03983396_2622.JPEG
subject-06,2,274,1.08716106414795,car,car,1-10-10,1554_eid_s06_1-10-10_car_10_n04285008_3269.JPEG
subject-06,2,275,0.519093990325928,cat,bottle,32-0-10,1555_eid_s06_32-0-10_bottle_10_n03983396_2150.JPEG
subject-06,2,276,0.513598918914795,bicycle,cat,64-10-10,1556_eid_s06_64-10-10_cat_10_n02125311_18552.JPEG
subject-06,2,277,0.814906120300293,cat,bicycle,64-3-10,1557_eid_s06_64-3-10_bicycle_10_n02835271_173.JPEG
subject-06,2,278,0.462858915328979,airplane,airplane,32-10-10,1558_eid_s06_32-10-10_airplane_10_n02690373_8650.JPEG
subject-06,2,279,1.00356888771057,car,chair,1-10-10,1559_eid_s06_1-10-10_chair_10_n04429376_55220.JPEG
subject-06,2,280,0.533761024475098,bird,bird,8-0-10,1560_eid_s06_8-0-10_bird_10_n02017213_2387.JPEG
subject-06,2,281,0.689749956130981,cat,knife,64-10-10,1561_eid_s06_64-10-10_knife_10_n03041632_18601.JPEG
subject-06,2,282,0.46786093711853,boat,boat,4-10-10,1562_eid_s06_4-10-10_boat_10_n04612504_14705.JPEG
subject-06,2,283,0.892547845840454,car,car,8-10-10,1563_eid_s06_8-10-10_car_10_n04285008_2972.JPEG
subject-06,2,284,0.67090892791748,keyboard,keyboard,16-10-10,1564_eid_s06_16-10-10_keyboard_10_n04505470_10746.JPEG
subject-06,2,285,0.61146092414856,cat,chair,16-0-10,1565_eid_s06_16-0-10_chair_10_n02791124_2091.JPEG
subject-06,2,286,0.657994985580444,bicycle,car,128-0-10,1566_eid_s06_128-0-10_car_10_n03100240_3400.JPEG
subject-06,2,287,1.24479103088379,airplane,knife,128-3-10,1567_eid_s06_128-3-10_knife_10_n03041632_16206.JPEG
subject-06,2,288,0.498585939407349,boat,bicycle,8-10-10,1568_eid_s06_8-10-10_bicycle_10_n03792782_1363.JPEG
subject-06,2,289,1.50023818016052,truck,truck,1-0-10,1569_eid_s06_1-0-10_truck_10_n03796401_3208.JPEG
subject-06,2,290,0.961246013641357,truck,truck,4-3-10,1570_eid_s06_4-3-10_truck_10_n03417042_1479.JPEG
subject-06,2,291,0.755426168441772,airplane,bicycle,32-3-10,1571_eid_s06_32-3-10_bicycle_10_n03792782_19288.JPEG
subject-06,2,292,0.725903987884521,oven,bird,128-0-10,1572_eid_s06_128-0-10_bird_10_n01534433_6183.JPEG
subject-06,2,293,0.620476007461548,keyboard,bottle,16-10-10,1573_eid_s06_16-10-10_bottle_10_n04560804_15769.JPEG
subject-06,2,294,0.750571012496948,car,car,32-10-10,1574_eid_s06_32-10-10_car_10_n04285008_8465.JPEG
subject-06,2,295,0.990405082702637,bicycle,cat,64-0-10,1575_eid_s06_64-0-10_cat_10_n02124075_6746.JPEG
subject-06,2,296,NaN,na,chair,16-3-10,1576_eid_s06_16-3-10_chair_10_n04099969_1636.JPEG
subject-06,2,297,0.631404876708984,boat,boat,1-10-10,1577_eid_s06_1-10-10_boat_10_n04273569_21743.JPEG
subject-06,2,298,0.609316110610962,boat,boat,4-3-10,1578_eid_s06_4-3-10_boat_10_n04273569_15138.JPEG
subject-06,2,299,0.947783231735229,airplane,airplane,1-3-10,1579_eid_s06_1-3-10_airplane_10_n02690373_13021.JPEG
subject-06,2,300,0.658145189285278,airplane,chair,64-0-10,1580_eid_s06_64-0-10_chair_10_n02791124_6281.JPEG
subject-06,2,301,1.02085590362549,cat,boat,16-0-10,1581_eid_s06_16-0-10_boat_10_n03344393_8579.JPEG
subject-06,2,302,0.569903135299683,cat,chair,128-3-10,1582_eid_s06_128-3-10_chair_10_n03376595_8228.JPEG
subject-06,2,303,0.832042932510376,car,bicycle,8-0-10,1583_eid_s06_8-0-10_bicycle_10_n02835271_8502.JPEG
subject-06,2,304,0.810702085494995,cat,truck,32-10-10,1584_eid_s06_32-10-10_truck_10_n03796401_13445.JPEG
subject-06,2,305,0.713206052780151,knife,chair,16-0-10,1585_eid_s06_16-0-10_chair_10_n03376595_16197.JPEG
subject-06,2,306,0.697301149368286,knife,knife,16-3-10,1586_eid_s06_16-3-10_knife_10_n03041632_11495.JPEG
subject-06,2,307,0.905633926391602,dog,clock,32-3-10,1587_eid_s06_32-3-10_clock_10_n02708093_8204.JPEG
subject-06,2,308,0.57795786857605,chair,oven,8-10-10,1588_eid_s06_8-10-10_oven_10_n04111531_8414.JPEG
subject-06,2,309,0.902415037155151,boat,clock,128-3-10,1589_eid_s06_128-3-10_clock_10_n02708093_2588.JPEG
subject-06,2,310,0.602651119232178,cat,oven,64-3-10,1590_eid_s06_64-3-10_oven_10_n04111531_3611.JPEG
subject-06,2,311,0.805295944213867,keyboard,truck,16-3-10,1591_eid_s06_16-3-10_truck_10_n03796401_18976.JPEG
subject-06,2,312,0.782443046569824,airplane,airplane,16-10-10,1592_eid_s06_16-10-10_airplane_10_n02690373_13206.JPEG
subject-06,2,313,0.560492992401123,boat,chair,32-3-10,1593_eid_s06_32-3-10_chair_10_n04099969_2758.JPEG
subject-06,2,314,0.584967851638794,keyboard,keyboard,1-3-10,1594_eid_s06_1-3-10_keyboard_10_n03085013_23561.JPEG
subject-06,2,315,0.855362892150879,car,truck,4-10-10,1595_eid_s06_4-10-10_truck_10_n03417042_10538.JPEG
subject-06,2,316,0.766002178192139,knife,knife,128-0-10,1596_eid_s06_128-0-10_knife_10_n03041632_1964.JPEG
subject-06,2,317,0.720411062240601,car,bird,32-3-10,1597_eid_s06_32-3-10_bird_10_n01616318_4465.JPEG
subject-06,2,318,0.545255184173584,keyboard,keyboard,1-3-10,1598_eid_s06_1-3-10_keyboard_10_n04505470_3481.JPEG
subject-06,2,319,0.737111806869507,bird,bicycle,8-0-10,1599_eid_s06_8-0-10_bicycle_10_n03792782_2263.JPEG
subject-06,2,320,0.468943119049072,airplane,airplane,8-3-10,1600_eid_s06_8-3-10_airplane_10_n02690373_2796.JPEG
subject-06,2,321,0.693804025650024,bicycle,bicycle,2-0-10,1601_eid_s06_2-0-10_bicycle_10_n03792782_27445.JPEG
subject-06,2,322,0.564264059066772,bottle,oven,2-10-10,1602_eid_s06_2-10-10_oven_10_n04111531_7728.JPEG
subject-06,2,323,1.500079870224,cat,dog,1-0-10,1603_eid_s06_1-0-10_dog_10_n02111277_1964.JPEG
subject-06,2,324,0.537845849990845,clock,knife,64-10-10,1604_eid_s06_64-10-10_knife_10_n03041632_3101.JPEG
subject-06,2,325,0.586822032928467,boat,clock,32-3-10,1605_eid_s06_32-3-10_clock_10_n04548280_4017.JPEG
subject-06,2,326,1.28761601448059,airplane,chair,32-0-10,1606_eid_s06_32-0-10_chair_10_n02791124_17001.JPEG
subject-06,2,327,0.511970043182373,bird,bird,4-3-10,1607_eid_s06_4-3-10_bird_10_n01614925_25595.JPEG
subject-06,2,328,0.506634950637817,airplane,airplane,2-3-10,1608_eid_s06_2-3-10_airplane_10_n02690373_9317.JPEG
subject-06,2,329,0.923083066940308,dog,dog,1-10-10,1609_eid_s06_1-10-10_dog_10_n02105251_11360.JPEG
subject-06,2,330,0.852442026138306,bear,bear,8-3-10,1610_eid_s06_8-3-10_bear_10_n02132136_3649.JPEG
subject-06,2,331,0.585224866867065,dog,dog,2-3-10,1611_eid_s06_2-3-10_dog_10_n02094114_8606.JPEG
subject-06,2,332,0.65556812286377,knife,truck,128-3-10,1612_eid_s06_128-3-10_truck_10_n03417042_19585.JPEG
subject-06,2,333,0.441740989685059,cat,bicycle,128-0-10,1613_eid_s06_128-0-10_bicycle_10_n03792782_32232.JPEG
subject-06,2,334,0.574524164199829,car,car,16-10-10,1614_eid_s06_16-10-10_car_10_n02814533_49083.JPEG
subject-06,2,335,0.545291900634766,chair,chair,1-3-10,1615_eid_s06_1-3-10_chair_10_n04429376_11642.JPEG
subject-06,2,336,0.515599966049194,bicycle,elephant,128-0-10,1616_eid_s06_128-0-10_elephant_10_n02504458_2086.JPEG
subject-06,2,337,0.886362075805664,bird,bird,4-10-10,1617_eid_s06_4-10-10_bird_10_n02037110_2654.JPEG
subject-06,2,338,0.640724897384644,knife,knife,4-0-10,1618_eid_s06_4-0-10_knife_10_n03041632_965.JPEG
subject-06,2,339,0.527332067489624,keyboard,keyboard,4-10-10,1619_eid_s06_4-10-10_keyboard_10_n04505470_10196.JPEG
subject-06,2,340,1.0272810459137,elephant,keyboard,128-0-10,1620_eid_s06_128-0-10_keyboard_10_n03085013_20398.JPEG
subject-06,2,341,NaN,na,truck,8-0-10,1621_eid_s06_8-0-10_truck_10_n03796401_5412.JPEG
subject-06,2,342,1.01989221572876,bicycle,elephant,64-0-10,1622_eid_s06_64-0-10_elephant_10_n02504458_4448.JPEG
subject-06,2,343,1.16079616546631,bear,bear,4-3-10,1623_eid_s06_4-3-10_bear_10_n02134084_32451.JPEG
subject-06,2,344,0.761198997497559,cat,bottle,4-0-10,1624_eid_s06_4-0-10_bottle_10_n04557648_2433.JPEG
subject-06,2,345,0.947727918624878,cat,cat,32-3-10,1625_eid_s06_32-3-10_cat_10_n02123394_2405.JPEG
subject-06,2,346,0.718438863754272,keyboard,keyboard,1-10-10,1626_eid_s06_1-10-10_keyboard_10_n04505470_6682.JPEG
subject-06,2,347,1.05620384216309,knife,chair,8-0-10,1627_eid_s06_8-0-10_chair_10_n02791124_2611.JPEG
subject-06,2,348,0.804975986480713,airplane,cat,16-3-10,1628_eid_s06_16-3-10_cat_10_n02123394_24.JPEG
subject-06,2,349,1.17528915405273,bicycle,bicycle,8-10-10,1629_eid_s06_8-10-10_bicycle_10_n03792782_3410.JPEG
subject-06,2,350,0.646399021148682,bear,bear,4-3-10,1630_eid_s06_4-3-10_bear_10_n02134084_7722.JPEG
subject-06,2,351,1.10870599746704,dog,dog,16-10-10,1631_eid_s06_16-10-10_dog_10_n02102177_5346.JPEG
subject-06,2,352,0.617087125778198,dog,dog,2-0-10,1632_eid_s06_2-0-10_dog_10_n02110063_10680.JPEG
subject-06,2,353,1.0255720615387,clock,clock,8-10-10,1633_eid_s06_8-10-10_clock_10_n02708093_2886.JPEG
subject-06,2,354,0.826363086700439,oven,dog,128-0-10,1634_eid_s06_128-0-10_dog_10_n02112350_3738.JPEG
subject-06,2,355,0.859120845794678,bicycle,elephant,32-0-10,1635_eid_s06_32-0-10_elephant_10_n02504013_237.JPEG
subject-06,2,356,0.761878967285156,dog,cat,64-10-10,1636_eid_s06_64-10-10_cat_10_n02123159_2040.JPEG
subject-06,2,357,0.646005868911743,dog,dog,2-3-10,1637_eid_s06_2-3-10_dog_10_n02088466_7581.JPEG
subject-06,2,358,0.640568971633911,knife,truck,64-0-10,1638_eid_s06_64-0-10_truck_10_n04467665_28756.JPEG
subject-06,2,359,0.711181879043579,keyboard,bottle,8-3-10,1639_eid_s06_8-3-10_bottle_10_n03937543_7501.JPEG
subject-06,2,360,0.642066955566406,bicycle,clock,128-3-10,1640_eid_s06_128-3-10_clock_10_n04548280_1239.JPEG
subject-06,2,361,0.635918140411377,bicycle,bicycle,4-0-10,1641_eid_s06_4-0-10_bicycle_10_n02835271_7597.JPEG
subject-06,2,362,0.590944051742554,bicycle,bicycle,8-0-10,1642_eid_s06_8-0-10_bicycle_10_n03792782_76556.JPEG
subject-06,2,363,0.858258962631226,knife,knife,8-0-10,1643_eid_s06_8-0-10_knife_10_n03041632_42156.JPEG
subject-06,2,364,0.945142984390259,car,bicycle,64-0-10,1644_eid_s06_64-0-10_bicycle_10_n03792782_1332.JPEG
subject-06,2,365,0.999550104141235,bicycle,oven,128-3-10,1645_eid_s06_128-3-10_oven_10_n04111531_17072.JPEG
subject-06,2,366,1.16976714134216,bicycle,bicycle,16-0-10,1646_eid_s06_16-0-10_bicycle_10_n03792782_9635.JPEG
subject-06,2,367,0.764719009399414,bear,bear,16-10-10,1647_eid_s06_16-10-10_bear_10_n02132136_10445.JPEG
subject-06,2,368,0.911005020141602,airplane,airplane,2-10-10,1648_eid_s06_2-10-10_airplane_10_n02690373_7142.JPEG
subject-06,2,369,0.457197904586792,bottle,bottle,64-0-10,1649_eid_s06_64-0-10_bottle_10_n02823428_4588.JPEG
subject-06,2,370,0.595380067825317,bear,dog,8-0-10,1650_eid_s06_8-0-10_dog_10_n02092002_12561.JPEG
subject-06,2,371,0.581831216812134,bicycle,dog,128-3-10,1651_eid_s06_128-3-10_dog_10_n02097047_1608.JPEG
subject-06,2,372,0.736196994781494,bear,bear,4-0-10,1652_eid_s06_4-0-10_bear_10_n02134084_23439.JPEG
subject-06,2,373,0.868890047073364,elephant,chair,128-0-10,1653_eid_s06_128-0-10_chair_10_n02791124_13620.JPEG
subject-06,2,374,0.790235042572021,bear,bicycle,64-3-10,1654_eid_s06_64-3-10_bicycle_10_n02835271_18288.JPEG
subject-06,2,375,0.536854982376099,bottle,bottle,4-0-10,1655_eid_s06_4-0-10_bottle_10_n04560804_1357.JPEG
subject-06,2,376,0.877269983291626,elephant,elephant,8-3-10,1656_eid_s06_8-3-10_elephant_10_n02504458_10336.JPEG
subject-06,2,377,0.601480960845947,cat,bicycle,32-3-10,1657_eid_s06_32-3-10_bicycle_10_n03792782_5035.JPEG
subject-06,2,378,0.65621018409729,bear,bear,1-3-10,1658_eid_s06_1-3-10_bear_10_n02134418_2822.JPEG
subject-06,2,379,0.634870767593384,cat,cat,4-3-10,1659_eid_s06_4-3-10_cat_10_n02123045_4593.JPEG
subject-06,2,380,0.911335945129395,boat,keyboard,64-10-10,1660_eid_s06_64-10-10_keyboard_10_n04505470_2207.JPEG
subject-06,2,381,0.859803915023804,bear,dog,16-3-10,1661_eid_s06_16-3-10_dog_10_n02088238_6083.JPEG
subject-06,2,382,0.906394958496094,bear,bear,8-10-10,1662_eid_s06_8-10-10_bear_10_n02134418_4128.JPEG
subject-06,2,383,0.57695198059082,knife,knife,4-3-10,1663_eid_s06_4-3-10_knife_10_n03041632_4879.JPEG
subject-06,2,384,0.615247964859009,keyboard,knife,8-10-10,1664_eid_s06_8-10-10_knife_10_n03041632_19866.JPEG
subject-06,2,385,0.764029026031494,bear,bird,32-3-10,1665_eid_s06_32-3-10_bird_10_n01514859_1431.JPEG
subject-06,2,386,0.702497005462646,cat,truck,64-3-10,1666_eid_s06_64-3-10_truck_10_n03417042_3254.JPEG
subject-06,2,387,0.819009065628052,elephant,oven,8-0-10,1667_eid_s06_8-0-10_oven_10_n04111531_21208.JPEG
subject-06,2,388,0.803333044052124,airplane,airplane,1-10-10,1668_eid_s06_1-10-10_airplane_10_n02690373_3840.JPEG
subject-06,2,389,1.18203282356262,bear,elephant,8-0-10,1669_eid_s06_8-0-10_elephant_10_n02504458_6050.JPEG
subject-06,2,390,0.445123910903931,cat,cat,1-0-10,1670_eid_s06_1-0-10_cat_10_n02124075_10162.JPEG
subject-06,2,391,0.653414964675903,cat,bear,128-10-10,1671_eid_s06_128-10-10_bear_10_n02133161_9809.JPEG
subject-06,2,392,0.901838064193726,oven,oven,1-0-10,1672_eid_s06_1-0-10_oven_10_n04111531_6899.JPEG
subject-06,2,393,0.526803016662598,cat,bottle,8-0-10,1673_eid_s06_8-0-10_bottle_10_n04557648_10105.JPEG
subject-06,2,394,0.781224966049194,bicycle,bicycle,1-10-10,1674_eid_s06_1-10-10_bicycle_10_n03792782_29276.JPEG
subject-06,2,395,0.965656042098999,keyboard,keyboard,2-10-10,1675_eid_s06_2-10-10_keyboard_10_n04505470_6864.JPEG
subject-06,2,396,0.92720103263855,bear,bear,16-3-10,1676_eid_s06_16-3-10_bear_10_n02132136_7863.JPEG
subject-06,2,397,0.927590131759644,chair,knife,64-0-10,1677_eid_s06_64-0-10_knife_10_n03041632_29827.JPEG
subject-06,2,398,0.665054798126221,bird,bicycle,128-10-10,1678_eid_s06_128-10-10_bicycle_10_n02835271_9062.JPEG
subject-06,2,399,0.567511081695557,bottle,bottle,4-10-10,1679_eid_s06_4-10-10_bottle_10_n03983396_6242.JPEG
subject-06,2,400,0.667701959609985,knife,oven,32-3-10,1680_eid_s06_32-3-10_oven_10_n04111531_8462.JPEG
subject-06,2,401,0.914144992828369,keyboard,knife,16-10-10,1681_eid_s06_16-10-10_knife_10_n03041632_4708.JPEG
subject-06,2,402,0.854933023452759,oven,oven,2-10-10,1682_eid_s06_2-10-10_oven_10_n04111531_2960.JPEG
subject-06,2,403,0.647709846496582,car,car,1-0-10,1683_eid_s06_1-0-10_car_10_n04285008_12128.JPEG
subject-06,2,404,0.702008008956909,knife,airplane,32-0-10,1684_eid_s06_32-0-10_airplane_10_n02690373_1167.JPEG
subject-06,2,405,0.672498941421509,cat,knife,128-10-10,1685_eid_s06_128-10-10_knife_10_n03041632_7173.JPEG
subject-06,2,406,0.57536792755127,car,car,4-3-10,1686_eid_s06_4-3-10_car_10_n04285008_14273.JPEG
subject-06,2,407,1.08950710296631,cat,knife,64-3-10,1687_eid_s06_64-3-10_knife_10_n03041632_11613.JPEG
subject-06,2,408,0.746655941009521,knife,car,64-0-10,1688_eid_s06_64-0-10_car_10_n02814533_95653.JPEG
subject-06,2,409,0.770962953567505,chair,chair,4-10-10,1689_eid_s06_4-10-10_chair_10_n04429376_2349.JPEG
subject-06,2,410,0.52541708946228,clock,bicycle,16-10-10,1690_eid_s06_16-10-10_bicycle_10_n03792782_378.JPEG
subject-06,2,411,0.580096006393433,cat,cat,1-10-10,1691_eid_s06_1-10-10_cat_10_n02123597_10136.JPEG
subject-06,2,412,0.896179914474487,bird,bear,2-10-10,1692_eid_s06_2-10-10_bear_10_n02133161_5406.JPEG
subject-06,2,413,0.675137042999268,keyboard,knife,4-0-10,1693_eid_s06_4-0-10_knife_10_n03041632_87380.JPEG
subject-06,2,414,1.19761991500854,cat,bear,8-3-10,1694_eid_s06_8-3-10_bear_10_n02133161_11301.JPEG
subject-06,2,415,0.775835037231445,oven,knife,2-10-10,1695_eid_s06_2-10-10_knife_10_n03041632_22190.JPEG
subject-06,2,416,0.908492088317871,bear,bear,128-10-10,1696_eid_s06_128-10-10_bear_10_n02132136_19498.JPEG
subject-06,2,417,0.892788887023926,bicycle,keyboard,64-3-10,1697_eid_s06_64-3-10_keyboard_10_n04505470_1724.JPEG
subject-06,2,418,1.27618193626404,dog,knife,16-0-10,1698_eid_s06_16-0-10_knife_10_n03041632_3617.JPEG
subject-06,2,419,0.89242696762085,elephant,clock,128-3-10,1699_eid_s06_128-3-10_clock_10_n02708093_1917.JPEG
subject-06,2,420,1.33912301063538,oven,oven,16-10-10,1700_eid_s06_16-10-10_oven_10_n04111531_17004.JPEG
subject-06,2,421,0.679143905639648,airplane,truck,4-0-10,1701_eid_s06_4-0-10_truck_10_n03417042_12168.JPEG
subject-06,2,422,0.579877853393555,cat,bear,64-10-10,1702_eid_s06_64-10-10_bear_10_n02133161_10190.JPEG
subject-06,2,423,0.988035917282104,bicycle,bear,32-10-10,1703_eid_s06_32-10-10_bear_10_n02132136_2807.JPEG
subject-06,2,424,1.02608799934387,chair,chair,128-3-10,1704_eid_s06_128-3-10_chair_10_n02791124_6077.JPEG
subject-06,2,425,0.920397043228149,elephant,elephant,1-3-10,1705_eid_s06_1-3-10_elephant_10_n02504013_6211.JPEG
subject-06,2,426,1.14326405525208,car,car,2-0-10,1706_eid_s06_2-0-10_car_10_n04285008_4290.JPEG
subject-06,2,427,0.859683036804199,bird,bird,8-0-10,1707_eid_s06_8-0-10_bird_10_n02037110_7684.JPEG
subject-06,2,428,0.713672876358032,keyboard,keyboard,2-10-10,1708_eid_s06_2-10-10_keyboard_10_n03085013_22973.JPEG
subject-06,2,429,0.712480068206787,knife,oven,64-3-10,1709_eid_s06_64-3-10_oven_10_n04111531_15635.JPEG
subject-06,2,430,0.966831922531128,bear,bear,16-0-10,1710_eid_s06_16-0-10_bear_10_n02133161_12592.JPEG
subject-06,2,431,0.889503002166748,oven,airplane,32-0-10,1711_eid_s06_32-0-10_airplane_10_n02690373_9535.JPEG
subject-06,2,432,1.12989211082458,elephant,knife,16-0-10,1712_eid_s06_16-0-10_knife_10_n03041632_20707.JPEG
subject-06,2,433,0.576402902603149,airplane,car,16-10-10,1713_eid_s06_16-10-10_car_10_n02814533_98738.JPEG
subject-06,2,434,0.463181972503662,cat,boat,128-3-10,1714_eid_s06_128-3-10_boat_10_n04612504_4963.JPEG
subject-06,2,435,0.633208990097046,bicycle,bicycle,1-0-10,1715_eid_s06_1-0-10_bicycle_10_n02835271_3246.JPEG
subject-06,2,436,0.633672952651978,bird,oven,64-0-10,1716_eid_s06_64-0-10_oven_10_n04111531_1794.JPEG
subject-06,2,437,0.950798034667969,bird,bird,1-0-10,1717_eid_s06_1-0-10_bird_10_n01820546_4769.JPEG
subject-06,2,438,0.550831079483032,keyboard,knife,4-0-10,1718_eid_s06_4-0-10_knife_10_n03041632_17100.JPEG
subject-06,2,439,0.645617008209229,bicycle,bicycle,2-10-10,1719_eid_s06_2-10-10_bicycle_10_n03792782_938.JPEG
subject-06,2,440,0.829580068588257,bottle,bottle,2-0-10,1720_eid_s06_2-0-10_bottle_10_n04560804_5048.JPEG
subject-06,2,441,1.02971792221069,bicycle,boat,128-3-10,1721_eid_s06_128-3-10_boat_10_n02951358_4128.JPEG
subject-06,2,442,0.491251945495605,oven,chair,64-0-10,1722_eid_s06_64-0-10_chair_10_n04429376_58604.JPEG
subject-06,2,443,0.899931907653809,chair,keyboard,1-0-10,1723_eid_s06_1-0-10_keyboard_10_n03085013_23790.JPEG
subject-06,2,444,0.576313972473145,bird,bird,4-3-10,1724_eid_s06_4-3-10_bird_10_n01582220_3925.JPEG
subject-06,2,445,0.666790962219238,oven,oven,128-3-10,1725_eid_s06_128-3-10_oven_10_n04111531_12408.JPEG
subject-06,2,446,0.935395956039429,bicycle,oven,1-0-10,1726_eid_s06_1-0-10_oven_10_n04111531_9781.JPEG
subject-06,2,447,0.629899024963379,cat,knife,64-3-10,1727_eid_s06_64-3-10_knife_10_n03041632_6708.JPEG
subject-06,2,448,0.698126077651978,bird,cat,8-3-10,1728_eid_s06_8-3-10_cat_10_n02123597_5142.JPEG
subject-06,2,449,0.57676100730896,airplane,airplane,8-10-10,1729_eid_s06_8-10-10_airplane_10_n02690373_1862.JPEG
subject-06,2,450,0.685382127761841,oven,boat,128-3-10,1730_eid_s06_128-3-10_boat_10_n02951358_7830.JPEG
subject-06,2,451,0.601714134216309,clock,clock,2-10-10,1731_eid_s06_2-10-10_clock_10_n04548280_10335.JPEG
subject-06,2,452,0.756285905838013,bear,bird,16-0-10,1732_eid_s06_16-0-10_bird_10_n02017213_12873.JPEG
subject-06,2,453,0.956914186477661,cat,cat,2-3-10,1733_eid_s06_2-3-10_cat_10_n02125311_38274.JPEG
subject-06,2,454,0.565490007400513,cat,cat,2-10-10,1734_eid_s06_2-10-10_cat_10_n02123045_5913.JPEG
subject-06,2,455,0.53525185585022,cat,bear,64-10-10,1735_eid_s06_64-10-10_bear_10_n02133161_5372.JPEG
subject-06,2,456,0.543735027313232,airplane,airplane,64-10-10,1736_eid_s06_64-10-10_airplane_10_n02690373_9421.JPEG
subject-06,2,457,0.522175073623657,cat,bottle,64-3-10,1737_eid_s06_64-3-10_bottle_10_n03937543_4360.JPEG
subject-06,2,458,1.09908699989319,truck,truck,4-10-10,1738_eid_s06_4-10-10_truck_10_n04467665_4093.JPEG
subject-06,2,459,0.685424089431763,keyboard,bicycle,64-3-10,1739_eid_s06_64-3-10_bicycle_10_n02835271_8190.JPEG
subject-06,2,460,0.661781072616577,bicycle,chair,32-0-10,1740_eid_s06_32-0-10_chair_10_n04429376_34265.JPEG
subject-06,2,461,0.486212015151978,cat,bottle,128-10-10,1741_eid_s06_128-10-10_bottle_10_n04557648_9869.JPEG
subject-06,2,462,0.71887993812561,chair,oven,64-0-10,1742_eid_s06_64-0-10_oven_10_n04111531_14568.JPEG
subject-06,2,463,0.643348932266235,bird,cat,128-0-10,1743_eid_s06_128-0-10_cat_10_n02123159_650.JPEG
subject-06,2,464,1.05797481536865,cat,bear,64-3-10,1744_eid_s06_64-3-10_bear_10_n02133161_1013.JPEG
subject-06,2,465,0.578700065612793,bicycle,oven,128-0-10,1745_eid_s06_128-0-10_oven_10_n04111531_519.JPEG
subject-06,2,466,0.626713037490845,cat,dog,1-0-10,1746_eid_s06_1-0-10_dog_10_n02105251_11708.JPEG
subject-06,2,467,0.80337119102478,truck,truck,1-10-10,1747_eid_s06_1-10-10_truck_10_n04467665_33783.JPEG
subject-06,2,468,0.665688991546631,keyboard,car,128-0-10,1748_eid_s06_128-0-10_car_10_n04285008_9501.JPEG
subject-06,2,469,0.558498859405518,keyboard,keyboard,2-3-10,1749_eid_s06_2-3-10_keyboard_10_n04505470_1328.JPEG
subject-06,2,470,0.750723123550415,bottle,clock,32-10-10,1750_eid_s06_32-10-10_clock_10_n02708093_260.JPEG
subject-06,2,471,1.12939214706421,knife,knife,2-3-10,1751_eid_s06_2-3-10_knife_10_n03041632_17349.JPEG
subject-06,2,472,0.808157920837402,dog,chair,128-10-10,1752_eid_s06_128-10-10_chair_10_n04099969_13811.JPEG
subject-06,2,473,0.784203052520752,truck,truck,8-0-10,1753_eid_s06_8-0-10_truck_10_n04467665_20753.JPEG
subject-06,2,474,0.754926919937134,keyboard,airplane,64-10-10,1754_eid_s06_64-10-10_airplane_10_n02690373_6988.JPEG
subject-06,2,475,0.879866123199463,cat,bicycle,16-3-10,1755_eid_s06_16-3-10_bicycle_10_n02835271_10910.JPEG
subject-06,2,476,0.603972911834717,bottle,bottle,1-0-10,1756_eid_s06_1-0-10_bottle_10_n04579145_4797.JPEG
subject-06,2,477,0.764808893203735,car,car,2-3-10,1757_eid_s06_2-3-10_car_10_n03100240_17041.JPEG
subject-06,2,478,0.619055986404419,clock,clock,1-3-10,1758_eid_s06_1-3-10_clock_10_n02708093_585.JPEG
subject-06,2,479,0.843669891357422,bird,bird,1-0-10,1759_eid_s06_1-0-10_bird_10_n01616318_3316.JPEG
subject-06,2,480,0.682067155838013,knife,knife,2-0-10,1760_eid_s06_2-0-10_knife_10_n03041632_24060.JPEG
subject-06,2,481,0.598158121109009,bear,bear,64-10-10,1761_eid_s06_64-10-10_bear_10_n02133161_11854.JPEG
subject-06,2,482,1.07314205169678,bicycle,oven,128-3-10,1762_eid_s06_128-3-10_oven_10_n04111531_845.JPEG
subject-06,2,483,0.74957799911499,bottle,dog,128-3-10,1763_eid_s06_128-3-10_dog_10_n02086910_4609.JPEG
subject-06,2,484,0.598284959793091,airplane,dog,128-0-10,1764_eid_s06_128-0-10_dog_10_n02096051_9502.JPEG
subject-06,2,485,0.766085147857666,cat,cat,64-0-10,1765_eid_s06_64-0-10_cat_10_n02123394_1725.JPEG
subject-06,2,486,0.650512933731079,elephant,clock,128-3-10,1766_eid_s06_128-3-10_clock_10_n04548280_6922.JPEG
subject-06,2,487,0.436991930007935,boat,boat,2-3-10,1767_eid_s06_2-3-10_boat_10_n02951358_28827.JPEG
subject-06,2,488,0.553335905075073,boat,boat,1-3-10,1768_eid_s06_1-3-10_boat_10_n04273569_1230.JPEG
subject-06,2,489,1.0134449005127,truck,bear,64-10-10,1769_eid_s06_64-10-10_bear_10_n02134084_8684.JPEG
subject-06,2,490,0.575561046600342,bottle,bottle,16-10-10,1770_eid_s06_16-10-10_bottle_10_n03983396_23739.JPEG
subject-06,2,491,0.607997179031372,airplane,airplane,2-10-10,1771_eid_s06_2-10-10_airplane_10_n02690373_4943.JPEG
subject-06,2,492,0.622396945953369,car,car,2-0-10,1772_eid_s06_2-0-10_car_10_n04285008_9860.JPEG
subject-06,2,493,0.717181921005249,bear,cat,16-10-10,1773_eid_s06_16-10-10_cat_10_n02123394_219.JPEG
subject-06,2,494,0.63358211517334,bottle,bottle,2-10-10,1774_eid_s06_2-10-10_bottle_10_n04579145_1886.JPEG
subject-06,2,495,0.463981866836548,clock,airplane,32-10-10,1775_eid_s06_32-10-10_airplane_10_n02690373_3468.JPEG
subject-06,2,496,0.772799968719482,bicycle,bicycle,16-10-10,1776_eid_s06_16-10-10_bicycle_10_n03792782_17111.JPEG
subject-06,2,497,0.713339805603027,clock,clock,1-0-10,1777_eid_s06_1-0-10_clock_10_n02708093_987.JPEG
subject-06,2,498,0.689981937408447,bear,oven,4-3-10,1778_eid_s06_4-3-10_oven_10_n04111531_1989.JPEG
subject-06,2,499,0.690191984176636,bicycle,chair,64-0-10,1779_eid_s06_64-0-10_chair_10_n02791124_2918.JPEG
subject-06,2,500,0.776631116867065,bottle,cat,128-0-10,1780_eid_s06_128-0-10_cat_10_n02123159_4551.JPEG
subject-06,2,501,0.861104011535645,car,car,2-3-10,1781_eid_s06_2-3-10_car_10_n02814533_17701.JPEG
subject-06,2,502,1.28335213661194,boat,chair,8-0-10,1782_eid_s06_8-0-10_chair_10_n04099969_11544.JPEG
subject-06,2,503,0.640408039093018,knife,knife,8-10-10,1783_eid_s06_8-10-10_knife_10_n03041632_13194.JPEG
subject-06,2,504,0.678761005401611,bottle,bird,16-3-10,1784_eid_s06_16-3-10_bird_10_n01818515_5078.JPEG
subject-06,2,505,0.987089872360229,bear,car,32-3-10,1785_eid_s06_32-3-10_car_10_n02814533_40648.JPEG
subject-06,2,506,0.595304012298584,keyboard,oven,16-3-10,1786_eid_s06_16-3-10_oven_10_n04111531_8603.JPEG
subject-06,2,507,0.471766948699951,chair,car,32-3-10,1787_eid_s06_32-3-10_car_10_n03100240_16598.JPEG
subject-06,2,508,0.504284143447876,oven,airplane,128-0-10,1788_eid_s06_128-0-10_airplane_10_n02690373_10061.JPEG
subject-06,2,509,0.619019031524658,clock,clock,4-10-10,1789_eid_s06_4-10-10_clock_10_n04548280_3410.JPEG
subject-06,2,510,0.619333982467651,car,dog,16-0-10,1790_eid_s06_16-0-10_dog_10_n02098105_2062.JPEG
subject-06,2,511,1.25771903991699,keyboard,keyboard,16-0-10,1791_eid_s06_16-0-10_keyboard_10_n04505470_4909.JPEG
subject-06,2,512,0.752440929412842,knife,clock,128-0-10,1792_eid_s06_128-0-10_clock_10_n02708093_4878.JPEG
subject-06,2,513,0.498768091201782,cat,cat,32-10-10,1793_eid_s06_32-10-10_cat_10_n02123159_3768.JPEG
subject-06,2,514,0.483279943466187,cat,bird,32-3-10,1794_eid_s06_32-3-10_bird_10_n01818515_7499.JPEG
subject-06,2,515,0.791540861129761,car,car,4-3-10,1795_eid_s06_4-3-10_car_10_n04285008_12189.JPEG
subject-06,2,516,0.68415093421936,cat,boat,64-0-10,1796_eid_s06_64-0-10_boat_10_n03344393_8265.JPEG
subject-06,2,517,0.508539915084839,oven,elephant,128-0-10,1797_eid_s06_128-0-10_elephant_10_n02504013_474.JPEG
subject-06,2,518,0.595271825790405,oven,oven,1-3-10,1798_eid_s06_1-3-10_oven_10_n04111531_12980.JPEG
subject-06,2,519,0.985853910446167,clock,clock,1-10-10,1799_eid_s06_1-10-10_clock_10_n03196217_9176.JPEG
subject-06,2,520,0.742227077484131,boat,boat,8-0-10,1800_eid_s06_8-0-10_boat_10_n03662601_9713.JPEG
subject-06,2,521,NaN,na,oven,1-0-10,1801_eid_s06_1-0-10_oven_10_n04111531_10220.JPEG
subject-06,2,522,0.727738857269287,car,car,8-3-10,1802_eid_s06_8-3-10_car_10_n03100240_11664.JPEG
subject-06,2,523,0.722246885299683,keyboard,airplane,32-3-10,1803_eid_s06_32-3-10_airplane_10_n02690373_3435.JPEG
subject-06,2,524,0.706408977508545,cat,airplane,32-0-10,1804_eid_s06_32-0-10_airplane_10_n02690373_10207.JPEG
subject-06,2,525,1.12893795967102,bird,boat,64-10-10,1805_eid_s06_64-10-10_boat_10_n04273569_13298.JPEG
subject-06,2,526,0.54559588432312,cat,keyboard,64-3-10,1806_eid_s06_64-3-10_keyboard_10_n03085013_24653.JPEG
subject-06,2,527,0.583240032196045,cat,dog,64-3-10,1807_eid_s06_64-3-10_dog_10_n02094258_598.JPEG
subject-06,2,528,0.57784104347229,bear,bear,1-3-10,1808_eid_s06_1-3-10_bear_10_n02134418_5452.JPEG
subject-06,2,529,0.562494039535522,bottle,bottle,1-0-10,1809_eid_s06_1-0-10_bottle_10_n03983396_5307.JPEG
subject-06,2,530,0.822681903839111,knife,knife,16-10-10,1810_eid_s06_16-10-10_knife_10_n03041632_35260.JPEG
subject-06,2,531,0.793054819107056,bear,bear,32-10-10,1811_eid_s06_32-10-10_bear_10_n02134418_465.JPEG
subject-06,2,532,0.755746126174927,bicycle,bicycle,1-10-10,1812_eid_s06_1-10-10_bicycle_10_n03792782_12433.JPEG
subject-06,2,533,1.21452903747559,bicycle,boat,128-0-10,1813_eid_s06_128-0-10_boat_10_n03662601_4451.JPEG
subject-06,2,534,0.83713698387146,keyboard,keyboard,2-10-10,1814_eid_s06_2-10-10_keyboard_10_n04505470_9788.JPEG
subject-06,2,535,0.477637052536011,cat,cat,64-10-10,1815_eid_s06_64-10-10_cat_10_n02123159_3536.JPEG
subject-06,2,536,0.531997203826904,keyboard,keyboard,1-3-10,1816_eid_s06_1-3-10_keyboard_10_n03085013_20689.JPEG
subject-06,2,537,1.2760648727417,truck,truck,4-3-10,1817_eid_s06_4-3-10_truck_10_n04467665_64249.JPEG
subject-06,2,538,0.554604053497314,boat,boat,4-3-10,1818_eid_s06_4-3-10_boat_10_n04612504_29359.JPEG
subject-06,2,539,0.433370113372803,oven,boat,64-3-10,1819_eid_s06_64-3-10_boat_10_n04612504_12696.JPEG
subject-06,2,540,0.709699869155884,bicycle,bird,128-0-10,1820_eid_s06_128-0-10_bird_10_n02028035_31225.JPEG
subject-06,2,541,0.533988952636719,cat,bear,4-0-10,1821_eid_s06_4-0-10_bear_10_n02134084_305.JPEG
subject-06,2,542,0.548679828643799,cat,cat,4-3-10,1822_eid_s06_4-3-10_cat_10_n02123597_6370.JPEG
subject-06,2,543,0.594937801361084,cat,truck,16-0-10,1823_eid_s06_16-0-10_truck_10_n03417042_4907.JPEG
subject-06,2,544,0.924592018127441,bear,bear,32-3-10,1824_eid_s06_32-3-10_bear_10_n02133161_1571.JPEG
subject-06,2,545,0.633372068405151,knife,cat,32-0-10,1825_eid_s06_32-0-10_cat_10_n02123597_3612.JPEG
subject-06,2,546,0.503715038299561,bird,bird,8-0-10,1826_eid_s06_8-0-10_bird_10_n01534433_2419.JPEG
subject-06,2,547,0.956133127212524,bear,elephant,32-0-10,1827_eid_s06_32-0-10_elephant_10_n02504013_8815.JPEG
subject-06,2,548,0.81729793548584,keyboard,knife,2-10-10,1828_eid_s06_2-10-10_knife_10_n03041632_21818.JPEG
subject-06,2,549,1.0856671333313,bird,dog,32-3-10,1829_eid_s06_32-3-10_dog_10_n02105855_10361.JPEG
subject-06,2,550,0.680284023284912,boat,boat,1-3-10,1830_eid_s06_1-3-10_boat_10_n02951358_16837.JPEG
subject-06,2,551,0.457082033157349,oven,cat,128-3-10,1831_eid_s06_128-3-10_cat_10_n02123597_3398.JPEG
subject-06,2,552,0.611532926559448,bicycle,bicycle,1-10-10,1832_eid_s06_1-10-10_bicycle_10_n02835271_8511.JPEG
subject-06,2,553,0.596223115921021,keyboard,keyboard,128-3-10,1833_eid_s06_128-3-10_keyboard_10_n04505470_4492.JPEG
subject-06,2,554,0.55850887298584,car,car,2-3-10,1834_eid_s06_2-3-10_car_10_n04285008_11080.JPEG
subject-06,2,555,0.98348593711853,car,car,1-0-10,1835_eid_s06_1-0-10_car_10_n03100240_17245.JPEG
subject-06,2,556,0.960124015808105,cat,cat,16-10-10,1836_eid_s06_16-10-10_cat_10_n02123394_3014.JPEG
subject-06,2,557,0.836312055587769,bottle,bird,64-10-10,1837_eid_s06_64-10-10_bird_10_n01855672_12612.JPEG
subject-06,2,558,0.498852014541626,oven,oven,1-3-10,1838_eid_s06_1-3-10_oven_10_n04111531_10077.JPEG
subject-06,2,559,0.97537899017334,dog,truck,32-10-10,1839_eid_s06_32-10-10_truck_10_n03417042_5809.JPEG
subject-06,2,560,0.607851028442383,bear,dog,32-3-10,1840_eid_s06_32-3-10_dog_10_n02101006_1514.JPEG
subject-06,2,561,1.02161693572998,cat,oven,32-0-10,1841_eid_s06_32-0-10_oven_10_n04111531_4407.JPEG
subject-06,2,562,0.492210865020752,cat,boat,32-3-10,1842_eid_s06_32-3-10_boat_10_n04273569_27014.JPEG
subject-06,2,563,0.551913976669312,chair,chair,4-3-10,1843_eid_s06_4-3-10_chair_10_n02791124_1555.JPEG
subject-06,2,564,0.612212896347046,airplane,airplane,64-10-10,1844_eid_s06_64-10-10_airplane_10_n02690373_8765.JPEG
subject-06,2,565,0.525567054748535,keyboard,keyboard,2-3-10,1845_eid_s06_2-3-10_keyboard_10_n04505470_10581.JPEG
subject-06,2,566,0.687891006469727,bicycle,keyboard,128-0-10,1846_eid_s06_128-0-10_keyboard_10_n03085013_24416.JPEG
subject-06,2,567,0.480463981628418,cat,clock,32-3-10,1847_eid_s06_32-3-10_clock_10_n02708093_579.JPEG
subject-06,2,568,0.802757024765015,car,car,16-10-10,1848_eid_s06_16-10-10_car_10_n02814533_725.JPEG
subject-06,2,569,0.795421123504639,knife,knife,8-0-10,1849_eid_s06_8-0-10_knife_10_n03041632_6575.JPEG
subject-06,2,570,0.541374206542969,keyboard,truck,32-0-10,1850_eid_s06_32-0-10_truck_10_n04467665_7184.JPEG
subject-06,2,571,0.625775098800659,chair,chair,2-0-10,1851_eid_s06_2-0-10_chair_10_n03376595_5876.JPEG
subject-06,2,572,0.534285068511963,car,car,4-0-10,1852_eid_s06_4-0-10_car_10_n04285008_9765.JPEG
subject-06,2,573,0.558573007583618,bird,bird,1-3-10,1853_eid_s06_1-3-10_bird_10_n02007558_2872.JPEG
subject-06,2,574,0.565199851989746,chair,chair,8-3-10,1854_eid_s06_8-3-10_chair_10_n04099969_8886.JPEG
subject-06,2,575,0.719572067260742,bicycle,oven,128-0-10,1855_eid_s06_128-0-10_oven_10_n04111531_6204.JPEG
subject-06,2,576,0.76613712310791,bear,truck,64-10-10,1856_eid_s06_64-10-10_truck_10_n03417042_17773.JPEG
subject-06,2,577,0.634518146514893,chair,clock,32-10-10,1857_eid_s06_32-10-10_clock_10_n02708093_7883.JPEG
subject-06,2,578,0.820658922195435,bicycle,elephant,64-10-10,1858_eid_s06_64-10-10_elephant_10_n02504013_8572.JPEG
subject-06,2,579,0.78957200050354,cat,clock,16-0-10,1859_eid_s06_16-0-10_clock_10_n03196217_5956.JPEG
subject-06,2,580,1.2066490650177,truck,truck,8-10-10,1860_eid_s06_8-10-10_truck_10_n04467665_41115.JPEG
subject-06,2,581,0.69110894203186,bear,clock,128-10-10,1861_eid_s06_128-10-10_clock_10_n02708093_7060.JPEG
subject-06,2,582,0.691361904144287,knife,knife,2-0-10,1862_eid_s06_2-0-10_knife_10_n03041632_18959.JPEG
subject-06,2,583,0.65415096282959,car,car,4-0-10,1863_eid_s06_4-0-10_car_10_n04285008_9354.JPEG
subject-06,2,584,1.01467704772949,elephant,cat,32-10-10,1864_eid_s06_32-10-10_cat_10_n02124075_11383.JPEG
subject-06,2,585,0.706122875213623,bicycle,bicycle,128-3-10,1865_eid_s06_128-3-10_bicycle_10_n02835271_2163.JPEG
subject-06,2,586,0.582422018051147,bear,bear,4-10-10,1866_eid_s06_4-10-10_bear_10_n02133161_7321.JPEG
subject-06,2,587,0.979783058166504,bicycle,truck,128-0-10,1867_eid_s06_128-0-10_truck_10_n03417042_3731.JPEG
subject-06,2,588,0.910233020782471,elephant,oven,128-10-10,1868_eid_s06_128-10-10_oven_10_n04111531_6346.JPEG
subject-06,2,589,1.40224289894104,cat,knife,32-3-10,1869_eid_s06_32-3-10_knife_10_n03041632_39739.JPEG
subject-06,2,590,0.924767017364502,airplane,car,32-0-10,1870_eid_s06_32-0-10_car_10_n03100240_1856.JPEG
subject-06,2,591,0.465476036071777,bottle,bottle,1-3-10,1871_eid_s06_1-3-10_bottle_10_n04560804_30885.JPEG
subject-06,2,592,0.519857883453369,clock,oven,32-10-10,1872_eid_s06_32-10-10_oven_10_n04111531_9334.JPEG
subject-06,2,593,0.650439977645874,bear,elephant,8-0-10,1873_eid_s06_8-0-10_elephant_10_n02504458_7777.JPEG
subject-06,2,594,0.667062997817993,elephant,elephant,2-3-10,1874_eid_s06_2-3-10_elephant_10_n02504458_3576.JPEG
subject-06,2,595,0.665301084518433,airplane,cat,8-0-10,1875_eid_s06_8-0-10_cat_10_n02123394_7391.JPEG
subject-06,2,596,0.681887149810791,cat,chair,64-10-10,1876_eid_s06_64-10-10_chair_10_n04099969_1814.JPEG
subject-06,2,597,0.812224864959717,bear,cat,32-10-10,1877_eid_s06_32-10-10_cat_10_n02125311_17238.JPEG
subject-06,2,598,0.882946968078613,car,car,16-0-10,1878_eid_s06_16-0-10_car_10_n02814533_5496.JPEG
subject-06,2,599,0.520695924758911,keyboard,bottle,32-3-10,1879_eid_s06_32-3-10_bottle_10_n04560804_3438.JPEG
subject-06,2,600,0.54312801361084,chair,car,128-0-10,1880_eid_s06_128-0-10_car_10_n03100240_24129.JPEG
subject-06,2,601,0.713579177856445,boat,boat,8-3-10,1881_eid_s06_8-3-10_boat_10_n02951358_30167.JPEG
subject-06,2,602,0.82004714012146,cat,bear,32-0-10,1882_eid_s06_32-0-10_bear_10_n02134418_228.JPEG
subject-06,2,603,1.12847995758057,oven,oven,16-10-10,1883_eid_s06_16-10-10_oven_10_n04111531_8658.JPEG
subject-06,2,604,0.896751165390015,chair,clock,64-10-10,1884_eid_s06_64-10-10_clock_10_n03196217_11624.JPEG
subject-06,2,605,0.927123069763184,elephant,elephant,2-3-10,1885_eid_s06_2-3-10_elephant_10_n02504013_2728.JPEG
subject-06,2,606,0.613815784454346,bird,elephant,128-0-10,1886_eid_s06_128-0-10_elephant_10_n02504458_2709.JPEG
subject-06,2,607,0.544312953948975,oven,keyboard,128-0-10,1887_eid_s06_128-0-10_keyboard_10_n03085013_21867.JPEG
subject-06,2,608,0.489936828613281,cat,truck,128-10-10,1888_eid_s06_128-10-10_truck_10_n03417042_5707.JPEG
subject-06,2,609,0.542627096176147,keyboard,knife,16-3-10,1889_eid_s06_16-3-10_knife_10_n03041632_84086.JPEG
subject-06,2,610,1.36739110946655,elephant,elephant,4-3-10,1890_eid_s06_4-3-10_elephant_10_n02504458_8183.JPEG
subject-06,2,611,0.735570907592773,clock,clock,8-3-10,1891_eid_s06_8-3-10_clock_10_n02708093_3625.JPEG
subject-06,2,612,0.944046020507812,elephant,bottle,16-0-10,1892_eid_s06_16-0-10_bottle_10_n03983396_21167.JPEG
subject-06,2,613,0.682431936264038,elephant,elephant,16-3-10,1893_eid_s06_16-3-10_elephant_10_n02504458_3485.JPEG
subject-06,2,614,1.0429859161377,elephant,bear,16-10-10,1894_eid_s06_16-10-10_bear_10_n02133161_4437.JPEG
subject-06,2,615,0.459100008010864,boat,boat,8-10-10,1895_eid_s06_8-10-10_boat_10_n02951358_3594.JPEG
subject-06,2,616,0.613693952560425,bird,bird,16-10-10,1896_eid_s06_16-10-10_bird_10_n01514859_364.JPEG
subject-06,2,617,0.919983863830566,keyboard,oven,16-10-10,1897_eid_s06_16-10-10_oven_10_n04111531_14095.JPEG
subject-06,2,618,0.804618120193481,bear,truck,16-3-10,1898_eid_s06_16-3-10_truck_10_n03417042_4587.JPEG
subject-06,2,619,0.521090984344482,chair,chair,1-3-10,1899_eid_s06_1-3-10_chair_10_n04099969_1890.JPEG
subject-06,2,620,0.875920057296753,bottle,bottle,8-0-10,1900_eid_s06_8-0-10_bottle_10_n04557648_3727.JPEG
subject-06,2,621,0.773797035217285,airplane,bottle,16-0-10,1901_eid_s06_16-0-10_bottle_10_n03983396_2283.JPEG
subject-06,2,622,1.09058690071106,oven,keyboard,32-10-10,1902_eid_s06_32-10-10_keyboard_10_n03085013_24265.JPEG
subject-06,2,623,0.667005062103271,clock,clock,2-10-10,1903_eid_s06_2-10-10_clock_10_n04548280_8171.JPEG
subject-06,2,624,0.899641990661621,cat,boat,128-3-10,1904_eid_s06_128-3-10_boat_10_n02951358_3756.JPEG
subject-06,2,625,0.84615683555603,bear,boat,16-3-10,1905_eid_s06_16-3-10_boat_10_n03344393_4011.JPEG
subject-06,2,626,0.635191202163696,chair,chair,128-0-10,1906_eid_s06_128-0-10_chair_10_n03376595_9089.JPEG
subject-06,2,627,0.944097995758057,bottle,chair,8-0-10,1907_eid_s06_8-0-10_chair_10_n02791124_9377.JPEG
subject-06,2,628,0.852545022964478,car,car,1-10-10,1908_eid_s06_1-10-10_car_10_n03100240_3969.JPEG
subject-06,2,629,0.705649137496948,car,car,2-3-10,1909_eid_s06_2-3-10_car_10_n02814533_62491.JPEG
subject-06,2,630,0.830260992050171,car,car,8-10-10,1910_eid_s06_8-10-10_car_10_n03100240_13171.JPEG
subject-06,2,631,0.698760986328125,bird,bird,2-3-10,1911_eid_s06_2-3-10_bird_10_n02025239_322.JPEG
subject-06,2,632,0.545010089874268,bicycle,dog,64-10-10,1912_eid_s06_64-10-10_dog_10_n02092002_11977.JPEG
subject-06,2,633,0.612914085388184,keyboard,bottle,64-0-10,1913_eid_s06_64-0-10_bottle_10_n04579145_173.JPEG
subject-06,2,634,0.753469944000244,cat,cat,32-10-10,1914_eid_s06_32-10-10_cat_10_n02123597_7835.JPEG
subject-06,2,635,0.760096073150635,truck,truck,4-10-10,1915_eid_s06_4-10-10_truck_10_n04467665_73773.JPEG
subject-06,2,636,0.730577945709229,elephant,elephant,16-0-10,1916_eid_s06_16-0-10_elephant_10_n02504458_8939.JPEG
subject-06,2,637,0.822675943374634,clock,oven,16-0-10,1917_eid_s06_16-0-10_oven_10_n04111531_584.JPEG
subject-06,2,638,1.07746887207031,cat,dog,16-10-10,1918_eid_s06_16-10-10_dog_10_n02091831_13796.JPEG
subject-06,2,639,0.829777956008911,car,car,1-0-10,1919_eid_s06_1-0-10_car_10_n03100240_16675.JPEG
subject-06,2,640,0.916476011276245,airplane,airplane,16-0-10,1920_eid_s06_16-0-10_airplane_10_n02690373_4565.JPEG
subject-06,2,641,0.708601951599121,truck,truck,2-3-10,1921_eid_s06_2-3-10_truck_10_n03796401_2656.JPEG
subject-06,2,642,0.860943078994751,bicycle,bird,64-0-10,1922_eid_s06_64-0-10_bird_10_n01560419_12411.JPEG
subject-06,2,643,0.56104302406311,oven,oven,2-3-10,1923_eid_s06_2-3-10_oven_10_n04111531_17995.JPEG
subject-06,2,644,0.777647018432617,bottle,chair,4-10-10,1924_eid_s06_4-10-10_chair_10_n04429376_6496.JPEG
subject-06,2,645,0.662373065948486,keyboard,bicycle,64-0-10,1925_eid_s06_64-0-10_bicycle_10_n03792782_9396.JPEG
subject-06,2,646,0.708642959594727,bird,bird,4-0-10,1926_eid_s06_4-0-10_bird_10_n01828970_7997.JPEG
subject-06,2,647,0.839256048202515,oven,bear,2-0-10,1927_eid_s06_2-0-10_bear_10_n02134084_5344.JPEG
subject-06,2,648,1.50010418891907,bear,elephant,4-0-10,1928_eid_s06_4-0-10_elephant_10_n02504013_13427.JPEG
subject-06,2,649,1.11618304252625,knife,chair,32-0-10,1929_eid_s06_32-0-10_chair_10_n04429376_7892.JPEG
subject-06,2,650,0.462746143341064,cat,bottle,128-10-10,1930_eid_s06_128-10-10_bottle_10_n02823428_6757.JPEG
subject-06,2,651,1.32331395149231,bicycle,airplane,128-3-10,1931_eid_s06_128-3-10_airplane_10_n02690373_4727.JPEG
subject-06,2,652,0.593881130218506,boat,boat,2-0-10,1932_eid_s06_2-0-10_boat_10_n04273569_10847.JPEG
subject-06,2,653,0.716284990310669,airplane,airplane,8-10-10,1933_eid_s06_8-10-10_airplane_10_n02690373_10231.JPEG
subject-06,2,654,0.618764877319336,bird,bird,2-3-10,1934_eid_s06_2-3-10_bird_10_n01828970_6420.JPEG
subject-06,2,655,0.611047983169556,oven,boat,32-0-10,1935_eid_s06_32-0-10_boat_10_n04273569_4586.JPEG
subject-06,2,656,0.625519037246704,bird,chair,64-3-10,1936_eid_s06_64-3-10_chair_10_n03376595_7035.JPEG
subject-06,2,657,0.763638973236084,chair,bicycle,8-10-10,1937_eid_s06_8-10-10_bicycle_10_n02835271_24368.JPEG
subject-06,2,658,0.709881067276001,bicycle,bicycle,16-3-10,1938_eid_s06_16-3-10_bicycle_10_n02835271_13505.JPEG
subject-06,2,659,0.601979970932007,car,car,4-0-10,1939_eid_s06_4-0-10_car_10_n02814533_36770.JPEG
subject-06,2,660,0.532552003860474,cat,oven,4-0-10,1940_eid_s06_4-0-10_oven_10_n04111531_21855.JPEG
subject-06,2,661,0.532662153244019,bear,bear,1-10-10,1941_eid_s06_1-10-10_bear_10_n02134084_34375.JPEG
subject-06,2,662,1.03911209106445,bicycle,bicycle,2-3-10,1942_eid_s06_2-3-10_bicycle_10_n03792782_9432.JPEG
subject-06,2,663,0.547715187072754,cat,bottle,16-3-10,1943_eid_s06_16-3-10_bottle_10_n04560804_12309.JPEG
subject-06,2,664,0.910048007965088,cat,cat,32-10-10,1944_eid_s06_32-10-10_cat_10_n02124075_13477.JPEG
subject-06,2,665,0.632543087005615,bicycle,bear,64-0-10,1945_eid_s06_64-0-10_bear_10_n02132136_4888.JPEG
subject-06,2,666,0.603065013885498,knife,knife,32-10-10,1946_eid_s06_32-10-10_knife_10_n03041632_55953.JPEG
subject-06,2,667,0.641106128692627,bottle,chair,128-0-10,1947_eid_s06_128-0-10_chair_10_n03376595_407.JPEG
subject-06,2,668,0.55755090713501,cat,cat,2-3-10,1948_eid_s06_2-3-10_cat_10_n02123045_4089.JPEG
subject-06,2,669,0.764050006866455,elephant,elephant,1-3-10,1949_eid_s06_1-3-10_elephant_10_n02504458_2577.JPEG
subject-06,2,670,0.588502883911133,keyboard,keyboard,4-0-10,1950_eid_s06_4-0-10_keyboard_10_n03085013_21914.JPEG
subject-06,2,671,0.505189895629883,cat,bicycle,1-3-10,1951_eid_s06_1-3-10_bicycle_10_n03792782_8062.JPEG
subject-06,2,672,0.603527069091797,boat,truck,64-3-10,1952_eid_s06_64-3-10_truck_10_n03796401_25113.JPEG
subject-06,2,673,1.08775591850281,dog,dog,1-3-10,1953_eid_s06_1-3-10_dog_10_n02093256_2336.JPEG
subject-06,2,674,0.872429847717285,bear,chair,16-0-10,1954_eid_s06_16-0-10_chair_10_n02791124_1551.JPEG
subject-06,2,675,0.412987947463989,cat,cat,4-0-10,1955_eid_s06_4-0-10_cat_10_n02123597_10921.JPEG
subject-06,2,676,1.0567479133606,knife,bear,128-10-10,1956_eid_s06_128-10-10_bear_10_n02134418_2028.JPEG
subject-06,2,677,0.56528902053833,cat,truck,16-10-10,1957_eid_s06_16-10-10_truck_10_n03417042_3862.JPEG
subject-06,2,678,0.435833930969238,oven,boat,128-10-10,1958_eid_s06_128-10-10_boat_10_n03344393_3423.JPEG
subject-06,2,679,1.2503981590271,dog,dog,16-10-10,1959_eid_s06_16-10-10_dog_10_n02113023_3385.JPEG
subject-06,2,680,1.08091902732849,truck,oven,32-0-10,1960_eid_s06_32-0-10_oven_10_n04111531_14951.JPEG
subject-06,2,681,0.375387907028198,elephant,bicycle,128-0-10,1961_eid_s06_128-0-10_bicycle_10_n03792782_6569.JPEG
subject-06,2,682,0.405645132064819,boat,boat,4-0-10,1962_eid_s06_4-0-10_boat_10_n04273569_17882.JPEG
subject-06,2,683,0.828169107437134,elephant,elephant,4-10-10,1963_eid_s06_4-10-10_elephant_10_n02504458_8755.JPEG
subject-06,2,684,0.652600049972534,clock,clock,8-10-10,1964_eid_s06_8-10-10_clock_10_n02708093_8047.JPEG
subject-06,2,685,0.751268863677979,bird,boat,32-0-10,1965_eid_s06_32-0-10_boat_10_n02951358_5633.JPEG
subject-06,2,686,0.526279211044312,airplane,oven,128-3-10,1966_eid_s06_128-3-10_oven_10_n04111531_14848.JPEG
subject-06,2,687,0.6267991065979,bear,bear,16-3-10,1967_eid_s06_16-3-10_bear_10_n02134418_2591.JPEG
subject-06,2,688,0.803299188613892,oven,oven,1-0-10,1968_eid_s06_1-0-10_oven_10_n04111531_21980.JPEG
subject-06,2,689,1.29563117027283,boat,cat,64-3-10,1969_eid_s06_64-3-10_cat_10_n02123045_7812.JPEG
subject-06,2,690,0.966307163238525,bottle,clock,64-10-10,1970_eid_s06_64-10-10_clock_10_n02708093_821.JPEG
subject-06,2,691,0.842521905899048,chair,clock,8-3-10,1971_eid_s06_8-3-10_clock_10_n03196217_998.JPEG
subject-06,2,692,0.635218143463135,chair,chair,32-3-10,1972_eid_s06_32-3-10_chair_10_n04099969_36418.JPEG
subject-06,2,693,0.995731115341187,boat,bicycle,16-3-10,1973_eid_s06_16-3-10_bicycle_10_n03792782_3427.JPEG
subject-06,2,694,0.912151098251343,bear,elephant,32-3-10,1974_eid_s06_32-3-10_elephant_10_n02504013_4116.JPEG
subject-06,2,695,0.928480863571167,clock,clock,32-10-10,1975_eid_s06_32-10-10_clock_10_n02708093_181.JPEG
subject-06,2,696,1.50008392333984,airplane,chair,8-3-10,1976_eid_s06_8-3-10_chair_10_n02791124_1217.JPEG
subject-06,2,697,0.522075176239014,bicycle,bicycle,16-0-10,1977_eid_s06_16-0-10_bicycle_10_n02835271_1974.JPEG
subject-06,2,698,0.73618483543396,bottle,bird,64-3-10,1978_eid_s06_64-3-10_bird_10_n02037110_1117.JPEG
subject-06,2,699,0.920616865158081,elephant,elephant,1-0-10,1979_eid_s06_1-0-10_elephant_10_n02504013_3640.JPEG
subject-06,2,700,0.512940883636475,boat,boat,2-0-10,1980_eid_s06_2-0-10_boat_10_n03662601_34922.JPEG
subject-06,2,701,1.43574619293213,bicycle,airplane,128-3-10,1981_eid_s06_128-3-10_airplane_10_n02690373_734.JPEG
subject-06,2,702,0.736073017120361,cat,dog,32-10-10,1982_eid_s06_32-10-10_dog_10_n02096051_4796.JPEG
subject-06,2,703,0.844843149185181,bird,bottle,32-0-10,1983_eid_s06_32-0-10_bottle_10_n04579145_4541.JPEG
subject-06,2,704,0.853327989578247,bicycle,oven,128-3-10,1984_eid_s06_128-3-10_oven_10_n04111531_11405.JPEG
subject-06,2,705,0.783946990966797,car,car,2-0-10,1985_eid_s06_2-0-10_car_10_n02814533_22974.JPEG
subject-06,2,706,0.806241989135742,boat,bird,8-0-10,1986_eid_s06_8-0-10_bird_10_n01592084_949.JPEG
subject-06,2,707,0.790830850601196,bicycle,bottle,128-0-10,1987_eid_s06_128-0-10_bottle_10_n04560804_3303.JPEG
subject-06,2,708,0.999345779418945,bear,bicycle,8-10-10,1988_eid_s06_8-10-10_bicycle_10_n03792782_3456.JPEG
subject-06,2,709,1.26748204231262,airplane,boat,4-10-10,1989_eid_s06_4-10-10_boat_10_n03344393_8747.JPEG
subject-06,2,710,1.23061108589172,airplane,cat,16-0-10,1990_eid_s06_16-0-10_cat_10_n02125311_39892.JPEG
subject-06,2,711,0.801355123519897,elephant,elephant,2-3-10,1991_eid_s06_2-3-10_elephant_10_n02504013_6112.JPEG
subject-06,2,712,1.08338618278503,bicycle,keyboard,128-0-10,1992_eid_s06_128-0-10_keyboard_10_n04505470_26.JPEG
subject-06,2,713,0.569470882415771,airplane,airplane,2-0-10,1993_eid_s06_2-0-10_airplane_10_n02690373_139.JPEG
subject-06,2,714,0.716012954711914,bicycle,truck,64-3-10,1994_eid_s06_64-3-10_truck_10_n03417042_7160.JPEG
subject-06,2,715,0.538125991821289,oven,oven,4-3-10,1995_eid_s06_4-3-10_oven_10_n04111531_9498.JPEG
subject-06,2,716,0.78496789932251,bird,bird,8-3-10,1996_eid_s06_8-3-10_bird_10_n02013706_4814.JPEG
subject-06,2,717,1.32950901985168,elephant,truck,16-3-10,1997_eid_s06_16-3-10_truck_10_n03796401_7258.JPEG
subject-06,2,718,0.575284004211426,bear,bear,16-10-10,1998_eid_s06_16-10-10_bear_10_n02134084_1722.JPEG
subject-06,2,719,0.529879093170166,bottle,bottle,8-10-10,1999_eid_s06_8-10-10_bottle_10_n03937543_5745.JPEG
subject-06,2,720,0.644046783447266,truck,truck,8-0-10,2000_eid_s06_8-0-10_truck_10_n04467665_69667.JPEG
subject-06,2,721,0.744686126708984,bird,knife,64-0-10,2001_eid_s06_64-0-10_knife_10_n03041632_10777.JPEG
subject-06,2,722,0.691280841827393,bear,dog,8-0-10,2002_eid_s06_8-0-10_dog_10_n02102973_5219.JPEG
subject-06,2,723,0.797590970993042,airplane,airplane,8-3-10,2003_eid_s06_8-3-10_airplane_10_n02690373_5689.JPEG
subject-06,2,724,1.49033498764038,boat,bicycle,2-0-10,2004_eid_s06_2-0-10_bicycle_10_n02835271_26731.JPEG
subject-06,2,725,0.620549917221069,airplane,airplane,32-10-10,2005_eid_s06_32-10-10_airplane_10_n02690373_4873.JPEG
subject-06,2,726,0.712908029556274,bicycle,bicycle,64-3-10,2006_eid_s06_64-3-10_bicycle_10_n02835271_13209.JPEG
subject-06,2,727,0.735650062561035,bear,bear,2-3-10,2007_eid_s06_2-3-10_bear_10_n02134084_3807.JPEG
subject-06,2,728,0.686825037002563,elephant,bear,32-3-10,2008_eid_s06_32-3-10_bear_10_n02132136_7893.JPEG
subject-06,2,729,0.757222175598145,bird,bird,8-3-10,2009_eid_s06_8-3-10_bird_10_n01820546_3523.JPEG
subject-06,2,730,1.18032598495483,car,car,8-3-10,2010_eid_s06_8-3-10_car_10_n02814533_7683.JPEG
subject-06,2,731,0.934325933456421,bird,bird,4-10-10,2011_eid_s06_4-10-10_bird_10_n01582220_6658.JPEG
subject-06,2,732,1.18679594993591,bird,bird,2-0-10,2012_eid_s06_2-0-10_bird_10_n01824575_5930.JPEG
subject-06,2,733,0.633447885513306,dog,dog,1-10-10,2013_eid_s06_1-10-10_dog_10_n02097047_1126.JPEG
subject-06,2,734,0.571995973587036,bicycle,bicycle,1-3-10,2014_eid_s06_1-3-10_bicycle_10_n02835271_1393.JPEG
subject-06,2,735,0.596078157424927,cat,cat,2-3-10,2015_eid_s06_2-3-10_cat_10_n02123159_7390.JPEG
subject-06,2,736,0.580835819244385,keyboard,keyboard,8-3-10,2016_eid_s06_8-3-10_keyboard_10_n03085013_31266.JPEG
subject-06,2,737,0.902765989303589,cat,oven,32-10-10,2017_eid_s06_32-10-10_oven_10_n04111531_8046.JPEG
subject-06,2,738,0.985320091247559,cat,keyboard,16-3-10,2018_eid_s06_16-3-10_keyboard_10_n03085013_6610.JPEG
subject-06,2,739,0.493898153305054,cat,cat,32-3-10,2019_eid_s06_32-3-10_cat_10_n02123045_3278.JPEG
subject-06,2,740,0.632689952850342,bicycle,cat,64-0-10,2020_eid_s06_64-0-10_cat_10_n02124075_11068.JPEG
subject-06,2,741,0.679013013839722,bear,keyboard,32-0-10,2021_eid_s06_32-0-10_keyboard_10_n03085013_22123.JPEG
subject-06,2,742,0.633452892303467,keyboard,keyboard,8-10-10,2022_eid_s06_8-10-10_keyboard_10_n03085013_20218.JPEG
subject-06,2,743,0.947818994522095,bottle,airplane,64-3-10,2023_eid_s06_64-3-10_airplane_10_n02690373_13585.JPEG
subject-06,2,744,1.11667084693909,bird,bear,128-0-10,2024_eid_s06_128-0-10_bear_10_n02133161_1893.JPEG
subject-06,2,745,0.699352025985718,bicycle,car,128-3-10,2025_eid_s06_128-3-10_car_10_n02814533_24244.JPEG
subject-06,2,746,0.58359694480896,cat,bottle,128-3-10,2026_eid_s06_128-3-10_bottle_10_n02823428_3212.JPEG
subject-06,2,747,0.644103050231934,bird,bottle,64-10-10,2027_eid_s06_64-10-10_bottle_10_n02823428_7763.JPEG
subject-06,2,748,0.551755905151367,bear,car,64-3-10,2028_eid_s06_64-3-10_car_10_n02814533_17832.JPEG
subject-06,2,749,0.520034074783325,elephant,elephant,4-10-10,2029_eid_s06_4-10-10_elephant_10_n02504458_8340.JPEG
subject-06,2,750,1.24027395248413,bird,keyboard,16-0-10,2030_eid_s06_16-0-10_keyboard_10_n04505470_2825.JPEG
subject-06,2,751,0.594564914703369,chair,chair,2-0-10,2031_eid_s06_2-0-10_chair_10_n04099969_2051.JPEG
subject-06,2,752,0.887139797210693,elephant,elephant,4-3-10,2032_eid_s06_4-3-10_elephant_10_n02504013_784.JPEG
subject-06,2,753,0.487336874008179,clock,clock,1-0-10,2033_eid_s06_1-0-10_clock_10_n03196217_1550.JPEG
subject-06,2,754,1.11019086837769,oven,clock,8-0-10,2034_eid_s06_8-0-10_clock_10_n03196217_4844.JPEG
subject-06,2,755,0.602459907531738,cat,cat,1-10-10,2035_eid_s06_1-10-10_cat_10_n02123045_10154.JPEG
subject-06,2,756,0.615353107452393,knife,bicycle,128-0-10,2036_eid_s06_128-0-10_bicycle_10_n03792782_31313.JPEG
subject-06,2,757,0.629923105239868,chair,chair,4-0-10,2037_eid_s06_4-0-10_chair_10_n02791124_7174.JPEG
subject-06,2,758,0.559819936752319,cat,oven,16-0-10,2038_eid_s06_16-0-10_oven_10_n04111531_12942.JPEG
subject-06,2,759,0.498326063156128,bicycle,knife,128-3-10,2039_eid_s06_128-3-10_knife_10_n03041632_20217.JPEG
subject-06,2,760,0.821049928665161,keyboard,keyboard,2-10-10,2040_eid_s06_2-10-10_keyboard_10_n03085013_3607.JPEG
subject-06,2,761,0.80245304107666,clock,clock,4-3-10,2041_eid_s06_4-3-10_clock_10_n04548280_2943.JPEG
subject-06,2,762,0.871217966079712,bottle,oven,1-10-10,2042_eid_s06_1-10-10_oven_10_n04111531_15087.JPEG
subject-06,2,763,1.1795608997345,car,boat,16-3-10,2043_eid_s06_16-3-10_boat_10_n02951358_5245.JPEG
subject-06,2,764,0.88578200340271,bird,bird,4-10-10,2044_eid_s06_4-10-10_bird_10_n01829413_5338.JPEG
subject-06,2,765,0.502448081970215,boat,boat,1-0-10,2045_eid_s06_1-0-10_boat_10_n03344393_7818.JPEG
subject-06,2,766,1.20876789093018,oven,oven,4-3-10,2046_eid_s06_4-3-10_oven_10_n04111531_4998.JPEG
subject-06,2,767,0.593462944030762,cat,clock,64-10-10,2047_eid_s06_64-10-10_clock_10_n03196217_1510.JPEG
subject-06,2,768,0.590440988540649,bicycle,chair,32-3-10,2048_eid_s06_32-3-10_chair_10_n03376595_1135.JPEG
subject-06,2,769,0.584469079971313,knife,knife,4-10-10,2049_eid_s06_4-10-10_knife_10_n03041632_927.JPEG
subject-06,2,770,1.23132801055908,car,knife,4-3-10,2050_eid_s06_4-3-10_knife_10_n03041632_24798.JPEG
subject-06,2,771,0.937973022460938,chair,chair,16-10-10,2051_eid_s06_16-10-10_chair_10_n04099969_8993.JPEG
subject-06,2,772,1.24648308753967,elephant,dog,128-0-10,2052_eid_s06_128-0-10_dog_10_n02105056_10460.JPEG
subject-06,2,773,0.961498022079468,cat,truck,32-3-10,2053_eid_s06_32-3-10_truck_10_n03796401_1335.JPEG
subject-06,2,774,0.677541017532349,boat,boat,16-10-10,2054_eid_s06_16-10-10_boat_10_n04612504_3542.JPEG
subject-06,2,775,0.546151876449585,oven,chair,32-10-10,2055_eid_s06_32-10-10_chair_10_n02791124_1260.JPEG
subject-06,2,776,0.822675943374634,knife,knife,16-10-10,2056_eid_s06_16-10-10_knife_10_n03041632_37274.JPEG
subject-06,2,777,0.623292922973633,bottle,bottle,1-10-10,2057_eid_s06_1-10-10_bottle_10_n03937543_2174.JPEG
subject-06,2,778,0.515305042266846,bear,bear,8-0-10,2058_eid_s06_8-0-10_bear_10_n02133161_9978.JPEG
subject-06,2,779,1.19174599647522,elephant,elephant,16-3-10,2059_eid_s06_16-3-10_elephant_10_n02504458_220.JPEG
subject-06,2,780,0.530591011047363,cat,cat,8-3-10,2060_eid_s06_8-3-10_cat_10_n02123597_4300.JPEG
subject-06,2,781,0.506551027297974,airplane,airplane,16-10-10,2061_eid_s06_16-10-10_airplane_10_n02690373_2851.JPEG
subject-06,2,782,0.499048948287964,airplane,airplane,2-3-10,2062_eid_s06_2-3-10_airplane_10_n02690373_2730.JPEG
subject-06,2,783,0.629177093505859,car,car,32-10-10,2063_eid_s06_32-10-10_car_10_n02814533_2880.JPEG
subject-06,2,784,0.597577095031738,clock,boat,64-0-10,2064_eid_s06_64-0-10_boat_10_n04612504_11379.JPEG
subject-06,2,785,0.682548999786377,boat,boat,16-10-10,2065_eid_s06_16-10-10_boat_10_n03344393_9565.JPEG
subject-06,2,786,0.712877988815308,keyboard,keyboard,4-0-10,2066_eid_s06_4-0-10_keyboard_10_n03085013_20843.JPEG
subject-06,2,787,1.16576981544495,dog,dog,1-10-10,2067_eid_s06_1-10-10_dog_10_n02112018_4081.JPEG
subject-06,2,788,0.773832082748413,bottle,bottle,8-3-10,2068_eid_s06_8-3-10_bottle_10_n04591713_7158.JPEG
subject-06,2,789,0.649745941162109,airplane,airplane,8-10-10,2069_eid_s06_8-10-10_airplane_10_n02690373_7115.JPEG
subject-06,2,790,0.588421106338501,bear,bear,32-3-10,2070_eid_s06_32-3-10_bear_10_n02133161_732.JPEG
subject-06,2,791,0.772998094558716,truck,bicycle,8-3-10,2071_eid_s06_8-3-10_bicycle_10_n02835271_269.JPEG
subject-06,2,792,0.987251043319702,cat,cat,4-10-10,2072_eid_s06_4-10-10_cat_10_n02123045_6696.JPEG
subject-06,2,793,0.525649070739746,boat,boat,2-3-10,2073_eid_s06_2-3-10_boat_10_n03344393_4309.JPEG
subject-06,2,794,0.548265933990479,keyboard,keyboard,32-3-10,2074_eid_s06_32-3-10_keyboard_10_n04505470_5329.JPEG
subject-06,2,795,0.479067087173462,cat,dog,64-0-10,2075_eid_s06_64-0-10_dog_10_n02109961_10931.JPEG
subject-06,2,796,0.801335096359253,bicycle,bird,64-0-10,2076_eid_s06_64-0-10_bird_10_n02018795_180.JPEG
subject-06,2,797,0.701953172683716,keyboard,oven,4-0-10,2077_eid_s06_4-0-10_oven_10_n04111531_4901.JPEG
subject-06,2,798,0.919904947280884,car,oven,128-0-10,2078_eid_s06_128-0-10_oven_10_n04111531_8687.JPEG
subject-06,2,799,0.596370220184326,airplane,airplane,16-10-10,2079_eid_s06_16-10-10_airplane_10_n02690373_4079.JPEG
subject-06,2,800,0.530390977859497,oven,bear,128-0-10,2080_eid_s06_128-0-10_bear_10_n02134418_9924.JPEG
subject-06,2,801,1.36722898483276,dog,dog,8-3-10,2081_eid_s06_8-3-10_dog_10_n02108915_2380.JPEG
subject-06,2,802,0.975449085235596,knife,knife,4-10-10,2082_eid_s06_4-10-10_knife_10_n03041632_8528.JPEG
subject-06,2,803,0.62208080291748,truck,truck,2-0-10,2083_eid_s06_2-0-10_truck_10_n04467665_8557.JPEG
subject-06,2,804,0.752602100372314,truck,chair,4-0-10,2084_eid_s06_4-0-10_chair_10_n04429376_26765.JPEG
subject-06,2,805,0.675209045410156,cat,truck,32-0-10,2085_eid_s06_32-0-10_truck_10_n03417042_5779.JPEG
subject-06,2,806,0.689709901809692,boat,boat,16-10-10,2086_eid_s06_16-10-10_boat_10_n04612504_14809.JPEG
subject-06,2,807,0.990036964416504,dog,elephant,128-3-10,2087_eid_s06_128-3-10_elephant_10_n02504458_4883.JPEG
subject-06,2,808,0.804836988449097,keyboard,knife,16-0-10,2088_eid_s06_16-0-10_knife_10_n03041632_84869.JPEG
subject-06,2,809,1.06510615348816,bicycle,elephant,32-10-10,2089_eid_s06_32-10-10_elephant_10_n02504013_1534.JPEG
subject-06,2,810,0.719219207763672,bird,clock,16-0-10,2090_eid_s06_16-0-10_clock_10_n03196217_6706.JPEG
subject-06,2,811,0.587838888168335,cat,bottle,32-10-10,2091_eid_s06_32-10-10_bottle_10_n03937543_1381.JPEG
subject-06,2,812,0.672567844390869,dog,dog,2-10-10,2092_eid_s06_2-10-10_dog_10_n02107142_20517.JPEG
subject-06,2,813,0.603143215179443,dog,dog,1-3-10,2093_eid_s06_1-3-10_dog_10_n02105641_1679.JPEG
subject-06,2,814,0.539520025253296,cat,keyboard,128-10-10,2094_eid_s06_128-10-10_keyboard_10_n03085013_23445.JPEG
subject-06,2,815,0.854588985443115,bird,elephant,32-3-10,2095_eid_s06_32-3-10_elephant_10_n02504013_5908.JPEG
subject-06,2,816,1.10886693000793,keyboard,keyboard,8-3-10,2096_eid_s06_8-3-10_keyboard_10_n03085013_20267.JPEG
subject-06,2,817,0.531671047210693,dog,dog,4-10-10,2097_eid_s06_4-10-10_dog_10_n02113712_269.JPEG
subject-06,2,818,0.453806161880493,oven,keyboard,128-10-10,2098_eid_s06_128-10-10_keyboard_10_n04505470_177.JPEG
subject-06,2,819,0.716438055038452,knife,knife,4-0-10,2099_eid_s06_4-0-10_knife_10_n03041632_32054.JPEG
subject-06,2,820,0.585253000259399,chair,truck,128-0-10,2100_eid_s06_128-0-10_truck_10_n04467665_52409.JPEG
subject-06,2,821,1.11296105384827,boat,keyboard,32-10-10,2101_eid_s06_32-10-10_keyboard_10_n03085013_21231.JPEG
subject-06,2,822,1.32707095146179,bottle,keyboard,64-0-10,2102_eid_s06_64-0-10_keyboard_10_n04505470_1903.JPEG
subject-06,2,823,1.34953594207764,bicycle,boat,32-0-10,2103_eid_s06_32-0-10_boat_10_n04273569_1771.JPEG
subject-06,2,824,0.550167083740234,oven,bottle,64-10-10,2104_eid_s06_64-10-10_bottle_10_n04591713_2129.JPEG
subject-06,2,825,0.980319023132324,truck,bicycle,16-3-10,2105_eid_s06_16-3-10_bicycle_10_n02835271_4255.JPEG
subject-06,2,826,0.548825979232788,cat,elephant,128-10-10,2106_eid_s06_128-10-10_elephant_10_n02504013_1333.JPEG
subject-06,2,827,1.03337597846985,bear,bicycle,64-10-10,2107_eid_s06_64-10-10_bicycle_10_n02835271_5886.JPEG
subject-06,2,828,0.693166017532349,keyboard,oven,16-10-10,2108_eid_s06_16-10-10_oven_10_n04111531_2930.JPEG
subject-06,2,829,0.545752048492432,cat,cat,2-10-10,2109_eid_s06_2-10-10_cat_10_n02123394_9476.JPEG
subject-06,2,830,0.768071889877319,bicycle,bicycle,64-10-10,2110_eid_s06_64-10-10_bicycle_10_n02835271_942.JPEG
subject-06,2,831,1.42855501174927,car,clock,4-10-10,2111_eid_s06_4-10-10_clock_10_n04548280_3396.JPEG
subject-06,2,832,0.907354831695557,cat,car,32-3-10,2112_eid_s06_32-3-10_car_10_n03100240_7755.JPEG
subject-06,2,833,0.584162950515747,cat,bicycle,16-0-10,2113_eid_s06_16-0-10_bicycle_10_n02835271_341.JPEG
subject-06,2,834,0.99032998085022,dog,dog,1-0-10,2114_eid_s06_1-0-10_dog_10_n02088466_2444.JPEG
subject-06,2,835,1.48088598251343,bicycle,oven,2-3-10,2115_eid_s06_2-3-10_oven_10_n04111531_6500.JPEG
subject-06,2,836,0.383392810821533,oven,bicycle,8-0-10,2116_eid_s06_8-0-10_bicycle_10_n03792782_12411.JPEG
subject-06,2,837,0.543702125549316,bicycle,bicycle,1-10-10,2117_eid_s06_1-10-10_bicycle_10_n02835271_8941.JPEG
subject-06,2,838,NaN,na,bear,128-3-10,2118_eid_s06_128-3-10_bear_10_n02132136_3647.JPEG
subject-06,2,839,0.290827035903931,bear,cat,128-10-10,2119_eid_s06_128-10-10_cat_10_n02123045_1189.JPEG
subject-06,2,840,0.719660043716431,bird,bird,8-3-10,2120_eid_s06_8-3-10_bird_10_n01820546_1331.JPEG
subject-06,2,841,0.78211784362793,cat,chair,1-0-10,2121_eid_s06_1-0-10_chair_10_n04099969_8687.JPEG
subject-06,2,842,0.826529979705811,dog,dog,4-10-10,2122_eid_s06_4-10-10_dog_10_n02111500_5790.JPEG
subject-06,2,843,0.832509994506836,chair,chair,4-10-10,2123_eid_s06_4-10-10_chair_10_n03376595_3838.JPEG
subject-06,2,844,0.570644855499268,clock,clock,1-10-10,2124_eid_s06_1-10-10_clock_10_n03196217_6979.JPEG
subject-06,2,845,0.477166175842285,cat,cat,8-3-10,2125_eid_s06_8-3-10_cat_10_n02124075_4163.JPEG
subject-06,2,846,0.729357004165649,truck,truck,4-0-10,2126_eid_s06_4-0-10_truck_10_n04467665_1584.JPEG
subject-06,2,847,0.537998199462891,cat,chair,32-10-10,2127_eid_s06_32-10-10_chair_10_n02791124_9216.JPEG
subject-06,2,848,0.822752952575684,airplane,airplane,1-3-10,2128_eid_s06_1-3-10_airplane_10_n02690373_4233.JPEG
subject-06,2,849,0.561124086380005,bottle,bottle,2-10-10,2129_eid_s06_2-10-10_bottle_10_n03937543_1719.JPEG
subject-06,2,850,0.52989387512207,cat,cat,2-10-10,2130_eid_s06_2-10-10_cat_10_n02123045_10633.JPEG
subject-06,2,851,1.25073313713074,cat,cat,4-10-10,2131_eid_s06_4-10-10_cat_10_n02125311_22949.JPEG
subject-06,2,852,0.583010911941528,airplane,truck,4-10-10,2132_eid_s06_4-10-10_truck_10_n04467665_69400.JPEG
subject-06,2,853,0.759290933609009,bear,bear,2-3-10,2133_eid_s06_2-3-10_bear_10_n02134084_6969.JPEG
subject-06,2,854,1.50035405158997,bear,bear,1-10-10,2134_eid_s06_1-10-10_bear_10_n02134084_2119.JPEG
subject-06,2,855,0.918609142303467,truck,truck,4-0-10,2135_eid_s06_4-0-10_truck_10_n03417042_3518.JPEG
subject-06,2,856,0.665143013000488,knife,knife,1-10-10,2136_eid_s06_1-10-10_knife_10_n03041632_3005.JPEG
subject-06,2,857,0.627569913864136,car,car,2-10-10,2137_eid_s06_2-10-10_car_10_n02814533_39559.JPEG
subject-06,2,858,0.864043951034546,cat,bicycle,128-10-10,2138_eid_s06_128-10-10_bicycle_10_n03792782_442.JPEG
subject-06,2,859,0.632508993148804,clock,bird,32-0-10,2139_eid_s06_32-0-10_bird_10_n02006656_9854.JPEG
subject-06,2,860,0.601408004760742,truck,truck,32-10-10,2140_eid_s06_32-10-10_truck_10_n04467665_26416.JPEG
subject-06,2,861,0.815075874328613,boat,boat,1-3-10,2141_eid_s06_1-3-10_boat_10_n03344393_1058.JPEG
subject-06,2,862,0.753363132476807,chair,keyboard,128-3-10,2142_eid_s06_128-3-10_keyboard_10_n03085013_24439.JPEG
subject-06,2,863,0.691838026046753,elephant,cat,128-10-10,2143_eid_s06_128-10-10_cat_10_n02123394_10767.JPEG
subject-06,2,864,0.698636770248413,boat,boat,2-3-10,2144_eid_s06_2-3-10_boat_10_n03344393_3502.JPEG
subject-06,2,865,0.505088806152344,boat,boat,2-0-10,2145_eid_s06_2-0-10_boat_10_n03662601_4295.JPEG
subject-06,2,866,0.927396059036255,keyboard,knife,32-0-10,2146_eid_s06_32-0-10_knife_10_n03041632_33268.JPEG
subject-06,2,867,0.566072940826416,airplane,bottle,128-0-10,2147_eid_s06_128-0-10_bottle_10_n03983396_17636.JPEG
subject-06,2,868,0.512408018112183,clock,chair,1-3-10,2148_eid_s06_1-3-10_chair_10_n04429376_18334.JPEG
subject-06,2,869,0.74321985244751,truck,truck,128-10-10,2149_eid_s06_128-10-10_truck_10_n03796401_3431.JPEG
subject-06,2,870,1.03355121612549,car,oven,4-0-10,2150_eid_s06_4-0-10_oven_10_n04111531_11470.JPEG
subject-06,2,871,0.612103939056396,cat,chair,32-0-10,2151_eid_s06_32-0-10_chair_10_n03376595_5266.JPEG
subject-06,2,872,0.672869205474854,oven,truck,4-0-10,2152_eid_s06_4-0-10_truck_10_n03417042_3952.JPEG
subject-06,2,873,0.494996070861816,boat,boat,2-0-10,2153_eid_s06_2-0-10_boat_10_n02951358_43584.JPEG
subject-06,2,874,0.933846950531006,car,car,8-3-10,2154_eid_s06_8-3-10_car_10_n03100240_2042.JPEG
subject-06,2,875,0.864603042602539,knife,chair,32-10-10,2155_eid_s06_32-10-10_chair_10_n04099969_12913.JPEG
subject-06,2,876,0.741047859191895,bicycle,bicycle,4-0-10,2156_eid_s06_4-0-10_bicycle_10_n02835271_5056.JPEG
subject-06,2,877,1.03004002571106,cat,chair,32-3-10,2157_eid_s06_32-3-10_chair_10_n04429376_21089.JPEG
subject-06,2,878,0.690848827362061,clock,dog,64-3-10,2158_eid_s06_64-3-10_dog_10_n02107574_3775.JPEG
subject-06,2,879,0.766460180282593,chair,bottle,64-3-10,2159_eid_s06_64-3-10_bottle_10_n03937543_1089.JPEG
subject-06,2,880,0.535070180892944,airplane,airplane,1-0-10,2160_eid_s06_1-0-10_airplane_10_n02690373_13604.JPEG
subject-06,2,881,0.619706869125366,oven,oven,2-10-10,2161_eid_s06_2-10-10_oven_10_n04111531_3204.JPEG
subject-06,2,882,0.649667978286743,bicycle,cat,32-0-10,2162_eid_s06_32-0-10_cat_10_n02125311_2064.JPEG
subject-06,2,883,0.688160181045532,bicycle,oven,128-0-10,2163_eid_s06_128-0-10_oven_10_n04111531_15052.JPEG
subject-06,2,884,0.534788846969604,cat,elephant,16-0-10,2164_eid_s06_16-0-10_elephant_10_n02504013_7353.JPEG
subject-06,2,885,0.541075944900513,airplane,boat,8-0-10,2165_eid_s06_8-0-10_boat_10_n03662601_5147.JPEG
subject-06,2,886,0.801569938659668,cat,chair,16-0-10,2166_eid_s06_16-0-10_chair_10_n02791124_1097.JPEG
subject-06,2,887,1.03940486907959,bicycle,bottle,128-3-10,2167_eid_s06_128-3-10_bottle_10_n04591713_3009.JPEG
subject-06,2,888,0.561528921127319,cat,cat,4-10-10,2168_eid_s06_4-10-10_cat_10_n02123045_10703.JPEG
subject-06,2,889,0.975702047348022,knife,keyboard,4-0-10,2169_eid_s06_4-0-10_keyboard_10_n04505470_2921.JPEG
subject-06,2,890,0.913877964019775,chair,oven,64-0-10,2170_eid_s06_64-0-10_oven_10_n04111531_5336.JPEG
subject-06,2,891,0.574450016021729,cat,cat,64-3-10,2171_eid_s06_64-3-10_cat_10_n02123597_7242.JPEG
subject-06,2,892,0.726840019226074,bicycle,clock,16-3-10,2172_eid_s06_16-3-10_clock_10_n02708093_228.JPEG
subject-06,2,893,1.47980690002441,oven,knife,1-3-10,2173_eid_s06_1-3-10_knife_10_n03041632_4787.JPEG
subject-06,2,894,0.620327949523926,boat,boat,1-0-10,2174_eid_s06_1-0-10_boat_10_n02951358_35068.JPEG
subject-06,2,895,0.804692983627319,bicycle,elephant,128-3-10,2175_eid_s06_128-3-10_elephant_10_n02504458_6302.JPEG
subject-06,2,896,0.581341028213501,bottle,bottle,2-0-10,2176_eid_s06_2-0-10_bottle_10_n03937543_5104.JPEG
subject-06,2,897,0.826713800430298,chair,chair,2-10-10,2177_eid_s06_2-10-10_chair_10_n02791124_16352.JPEG
subject-06,2,898,0.819298028945923,keyboard,keyboard,1-0-10,2178_eid_s06_1-0-10_keyboard_10_n03085013_22960.JPEG
subject-06,2,899,1.08672499656677,dog,dog,64-10-10,2179_eid_s06_64-10-10_dog_10_n02109961_12142.JPEG
subject-06,2,900,0.609200000762939,cat,oven,16-3-10,2180_eid_s06_16-3-10_oven_10_n04111531_9474.JPEG
subject-06,2,901,0.699641942977905,bear,elephant,32-0-10,2181_eid_s06_32-0-10_elephant_10_n02504013_7633.JPEG
subject-06,2,902,0.692291975021362,cat,cat,1-3-10,2182_eid_s06_1-3-10_cat_10_n02125311_17440.JPEG
subject-06,2,903,0.508609056472778,cat,bottle,64-3-10,2183_eid_s06_64-3-10_bottle_10_n02823428_8062.JPEG
subject-06,2,904,0.831078052520752,elephant,elephant,8-10-10,2184_eid_s06_8-10-10_elephant_10_n02504458_12074.JPEG
subject-06,2,905,0.540050983428955,truck,truck,2-10-10,2185_eid_s06_2-10-10_truck_10_n03417042_11439.JPEG
subject-06,2,906,0.583423137664795,cat,chair,64-0-10,2186_eid_s06_64-0-10_chair_10_n02791124_3262.JPEG
subject-06,2,907,0.551884889602661,cat,oven,8-3-10,2187_eid_s06_8-3-10_oven_10_n04111531_23068.JPEG
subject-06,2,908,0.544793128967285,cat,car,64-3-10,2188_eid_s06_64-3-10_car_10_n03100240_2996.JPEG
subject-06,2,909,0.696790933609009,elephant,elephant,2-10-10,2189_eid_s06_2-10-10_elephant_10_n02504458_758.JPEG
subject-06,2,910,0.581640958786011,cat,cat,8-10-10,2190_eid_s06_8-10-10_cat_10_n02123394_4125.JPEG
subject-06,2,911,0.565893888473511,cat,bear,16-0-10,2191_eid_s06_16-0-10_bear_10_n02134084_21413.JPEG
subject-06,2,912,0.488257169723511,bicycle,bicycle,4-3-10,2192_eid_s06_4-3-10_bicycle_10_n02835271_3004.JPEG
subject-06,2,913,0.624202013015747,bicycle,bicycle,4-10-10,2193_eid_s06_4-10-10_bicycle_10_n02835271_381.JPEG
subject-06,2,914,0.646010875701904,cat,bottle,16-0-10,2194_eid_s06_16-0-10_bottle_10_n04579145_54.JPEG
subject-06,2,915,0.984591007232666,knife,car,128-10-10,2195_eid_s06_128-10-10_car_10_n04285008_5247.JPEG
subject-06,2,916,1.02116107940674,boat,bottle,8-10-10,2196_eid_s06_8-10-10_bottle_10_n04579145_5310.JPEG
subject-06,2,917,0.846869945526123,bicycle,oven,16-3-10,2197_eid_s06_16-3-10_oven_10_n04111531_5792.JPEG
subject-06,2,918,0.715435981750488,bird,bottle,64-0-10,2198_eid_s06_64-0-10_bottle_10_n04579145_7417.JPEG
subject-06,2,919,0.999748945236206,truck,car,32-10-10,2199_eid_s06_32-10-10_car_10_n02814533_982.JPEG
subject-06,2,920,0.800696134567261,dog,bear,8-3-10,2200_eid_s06_8-3-10_bear_10_n02132136_129.JPEG
subject-06,2,921,0.945022106170654,car,knife,128-3-10,2201_eid_s06_128-3-10_knife_10_n03041632_42185.JPEG
subject-06,2,922,0.569390058517456,airplane,airplane,2-3-10,2202_eid_s06_2-3-10_airplane_10_n02690373_3827.JPEG
subject-06,2,923,0.567423105239868,cat,clock,16-3-10,2203_eid_s06_16-3-10_clock_10_n04548280_22640.JPEG
subject-06,2,924,0.614246845245361,dog,dog,2-10-10,2204_eid_s06_2-10-10_dog_10_n02087394_2163.JPEG
subject-06,2,925,0.552704811096191,cat,bottle,128-10-10,2205_eid_s06_128-10-10_bottle_10_n04557648_3259.JPEG
subject-06,2,926,0.705183029174805,oven,bicycle,128-0-10,2206_eid_s06_128-0-10_bicycle_10_n03792782_32622.JPEG
subject-06,2,927,0.773640155792236,truck,chair,64-10-10,2207_eid_s06_64-10-10_chair_10_n02791124_11333.JPEG
subject-06,2,928,0.536082029342651,airplane,airplane,4-3-10,2208_eid_s06_4-3-10_airplane_10_n02690373_8589.JPEG
subject-06,2,929,0.77259087562561,bear,elephant,64-0-10,2209_eid_s06_64-0-10_elephant_10_n02504013_494.JPEG
subject-06,2,930,0.680979013442993,cat,oven,16-3-10,2210_eid_s06_16-3-10_oven_10_n04111531_7878.JPEG
subject-06,2,931,0.97171688079834,bird,airplane,16-0-10,2211_eid_s06_16-0-10_airplane_10_n02690373_2525.JPEG
subject-06,2,932,0.955618143081665,dog,dog,4-10-10,2212_eid_s06_4-10-10_dog_10_n02096294_10931.JPEG
subject-06,2,933,0.524145126342773,cat,chair,128-10-10,2213_eid_s06_128-10-10_chair_10_n02791124_1437.JPEG
subject-06,2,934,0.476039886474609,cat,bird,16-10-10,2214_eid_s06_16-10-10_bird_10_n01514859_11014.JPEG
subject-06,2,935,0.592719793319702,keyboard,keyboard,16-10-10,2215_eid_s06_16-10-10_keyboard_10_n03085013_23115.JPEG
subject-06,2,936,0.752351045608521,knife,knife,8-10-10,2216_eid_s06_8-10-10_knife_10_n03041632_44738.JPEG
subject-06,2,937,0.629616975784302,boat,bird,32-3-10,2217_eid_s06_32-3-10_bird_10_n01828970_2692.JPEG
subject-06,2,938,0.522166967391968,oven,bicycle,32-0-10,2218_eid_s06_32-0-10_bicycle_10_n02835271_2960.JPEG
subject-06,2,939,0.606468915939331,car,car,1-10-10,2219_eid_s06_1-10-10_car_10_n02814533_2856.JPEG
subject-06,2,940,0.713171005249023,truck,truck,2-0-10,2220_eid_s06_2-0-10_truck_10_n03417042_4879.JPEG
subject-06,2,941,0.543376922607422,airplane,boat,8-3-10,2221_eid_s06_8-3-10_boat_10_n03344393_3699.JPEG
subject-06,2,942,0.465593814849854,boat,airplane,1-3-10,2222_eid_s06_1-3-10_airplane_10_n02690373_3588.JPEG
subject-06,2,943,0.558366060256958,boat,boat,1-3-10,2223_eid_s06_1-3-10_boat_10_n03344393_5916.JPEG
subject-06,2,944,0.804874181747437,bicycle,airplane,64-3-10,2224_eid_s06_64-3-10_airplane_10_n02690373_7740.JPEG
subject-06,2,945,1.40377402305603,cat,truck,16-3-10,2225_eid_s06_16-3-10_truck_10_n04467665_5314.JPEG
subject-06,2,946,0.641836166381836,cat,bird,32-3-10,2226_eid_s06_32-3-10_bird_10_n01860187_2647.JPEG
subject-06,2,947,0.679660081863403,boat,boat,16-10-10,2227_eid_s06_16-10-10_boat_10_n03344393_11013.JPEG
subject-06,2,948,1.19429993629456,cat,dog,8-10-10,2228_eid_s06_8-10-10_dog_10_n02112018_2721.JPEG
subject-06,2,949,0.770689964294434,bear,bear,1-3-10,2229_eid_s06_1-3-10_bear_10_n02133161_400.JPEG
subject-06,2,950,0.692909955978394,bicycle,bicycle,2-0-10,2230_eid_s06_2-0-10_bicycle_10_n02835271_7355.JPEG
subject-06,2,951,0.815623998641968,boat,boat,8-10-10,2231_eid_s06_8-10-10_boat_10_n03662601_13425.JPEG
subject-06,2,952,1.11295104026794,knife,bottle,128-10-10,2232_eid_s06_128-10-10_bottle_10_n03937543_3493.JPEG
