subj,session,trial,rt,object_response,category,condition,imagename
subject-05,3,1,0.628700017929077,boat,dog,16-0-10,2561_eid_s05_16-0-10_dog_10_n02095570_6471.JPEG
subject-05,3,2,0.674093961715698,oven,chair,2-10-10,2562_eid_s05_2-10-10_chair_10_n02791124_4109.JPEG
subject-05,3,3,0.597847938537598,bicycle,cat,64-0-10,2563_eid_s05_64-0-10_cat_10_n02123597_1260.JPEG
subject-05,3,4,1.02181696891785,bird,bird,1-3-10,2564_eid_s05_1-3-10_bird_10_n02002556_9392.JPEG
subject-05,3,5,0.761487007141113,boat,boat,8-3-10,2565_eid_s05_8-3-10_boat_10_n03662601_6404.JPEG
subject-05,3,6,0.756054878234863,bicycle,bicycle,1-0-10,2566_eid_s05_1-0-10_bicycle_10_n03792782_5416.JPEG
subject-05,3,7,0.888828039169312,cat,oven,32-3-10,2567_eid_s05_32-3-10_oven_10_n04111531_8963.JPEG
subject-05,3,8,1.00467586517334,bear,elephant,32-10-10,2568_eid_s05_32-10-10_elephant_10_n02504458_8526.JPEG
subject-05,3,9,0.753331899642944,cat,chair,64-3-10,2569_eid_s05_64-3-10_chair_10_n04429376_24505.JPEG
subject-05,3,10,1.04507684707642,dog,cat,16-0-10,2570_eid_s05_16-0-10_cat_10_n02123159_6315.JPEG
subject-05,3,11,0.617225885391235,boat,boat,2-3-10,2571_eid_s05_2-3-10_boat_10_n03344393_7925.JPEG
subject-05,3,12,1.07184195518494,chair,chair,4-0-10,2572_eid_s05_4-0-10_chair_10_n04099969_10699.JPEG
subject-05,3,13,1.00353598594666,knife,knife,1-10-10,2573_eid_s05_1-10-10_knife_10_n03041632_99912.JPEG
subject-05,3,14,0.735949993133545,bear,truck,16-0-10,2574_eid_s05_16-0-10_truck_10_n04467665_13614.JPEG
subject-05,3,15,0.847031831741333,bear,bear,4-0-10,2575_eid_s05_4-0-10_bear_10_n02134418_8489.JPEG
subject-05,3,16,1.36324787139893,airplane,truck,2-10-10,2576_eid_s05_2-10-10_truck_10_n04467665_29863.JPEG
subject-05,3,17,0.803879022598267,keyboard,chair,64-10-10,2577_eid_s05_64-10-10_chair_10_n04099969_8604.JPEG
subject-05,3,18,0.922300815582275,keyboard,keyboard,16-10-10,2578_eid_s05_16-10-10_keyboard_10_n04505470_6.JPEG
subject-05,3,19,0.970970153808594,airplane,airplane,1-3-10,2579_eid_s05_1-3-10_airplane_10_n02690373_1670.JPEG
subject-05,3,20,0.954565048217773,oven,bottle,8-3-10,2580_eid_s05_8-3-10_bottle_10_n02823428_3788.JPEG
subject-05,3,21,0.934860944747925,bear,car,32-3-10,2581_eid_s05_32-3-10_car_10_n03100240_12088.JPEG
subject-05,3,22,0.621587038040161,car,truck,32-3-10,2582_eid_s05_32-3-10_truck_10_n03417042_6981.JPEG
subject-05,3,23,0.760013103485107,truck,cat,64-0-10,2583_eid_s05_64-0-10_cat_10_n02123394_6014.JPEG
subject-05,3,24,0.831944942474365,airplane,boat,128-10-10,2584_eid_s05_128-10-10_boat_10_n03662601_7915.JPEG
subject-05,3,25,0.864621877670288,knife,bird,32-3-10,2585_eid_s05_32-3-10_bird_10_n02011460_7980.JPEG
subject-05,3,26,0.881217956542969,knife,knife,16-10-10,2586_eid_s05_16-10-10_knife_10_n03041632_86783.JPEG
subject-05,3,27,0.591681003570557,oven,cat,16-3-10,2587_eid_s05_16-3-10_cat_10_n02123394_2219.JPEG
subject-05,3,28,0.77856707572937,cat,cat,4-3-10,2588_eid_s05_4-3-10_cat_10_n02125311_5229.JPEG
subject-05,3,29,0.569324016571045,boat,keyboard,128-0-10,2589_eid_s05_128-0-10_keyboard_10_n03085013_22759.JPEG
subject-05,3,30,1.23179197311401,car,car,4-0-10,2590_eid_s05_4-0-10_car_10_n02814533_7377.JPEG
subject-05,3,31,0.93472695350647,truck,boat,64-0-10,2591_eid_s05_64-0-10_boat_10_n03662601_1503.JPEG
subject-05,3,32,1.47930502891541,bird,bird,2-10-10,2592_eid_s05_2-10-10_bird_10_n02056570_10062.JPEG
subject-05,3,33,0.943090915679932,car,truck,16-10-10,2593_eid_s05_16-10-10_truck_10_n04467665_13631.JPEG
subject-05,3,34,0.812988042831421,truck,boat,16-0-10,2594_eid_s05_16-0-10_boat_10_n04273569_13545.JPEG
subject-05,3,35,0.667917013168335,cat,cat,4-0-10,2595_eid_s05_4-0-10_cat_10_n02123597_8575.JPEG
subject-05,3,36,0.71569299697876,knife,knife,1-3-10,2596_eid_s05_1-3-10_knife_10_n03041632_43975.JPEG
subject-05,3,37,0.576858043670654,bear,truck,64-0-10,2597_eid_s05_64-0-10_truck_10_n03417042_11534.JPEG
subject-05,3,38,0.647578954696655,cat,chair,16-10-10,2598_eid_s05_16-10-10_chair_10_n04099969_2307.JPEG
subject-05,3,39,0.517494916915894,oven,clock,64-3-10,2599_eid_s05_64-3-10_clock_10_n02708093_7080.JPEG
subject-05,3,40,0.588031053543091,clock,bird,128-3-10,2600_eid_s05_128-3-10_bird_10_n01843383_2806.JPEG
subject-05,3,41,0.674391984939575,airplane,airplane,4-0-10,2601_eid_s05_4-0-10_airplane_10_n02690373_7281.JPEG
subject-05,3,42,0.515149116516113,boat,car,8-0-10,2602_eid_s05_8-0-10_car_10_n03100240_12747.JPEG
subject-05,3,43,0.52160906791687,cat,bicycle,128-0-10,2603_eid_s05_128-0-10_bicycle_10_n03792782_11621.JPEG
subject-05,3,44,0.516146898269653,clock,boat,64-3-10,2604_eid_s05_64-3-10_boat_10_n02951358_9876.JPEG
subject-05,3,45,0.602232933044434,keyboard,keyboard,1-10-10,2605_eid_s05_1-10-10_keyboard_10_n03085013_31513.JPEG
subject-05,3,46,1.06459903717041,elephant,elephant,2-3-10,2606_eid_s05_2-3-10_elephant_10_n02504458_193.JPEG
subject-05,3,47,0.681313037872314,cat,oven,64-10-10,2607_eid_s05_64-10-10_oven_10_n04111531_2458.JPEG
subject-05,3,48,0.558704853057861,boat,dog,64-10-10,2608_eid_s05_64-10-10_dog_10_n02102177_2007.JPEG
subject-05,3,49,0.6528639793396,oven,oven,1-3-10,2609_eid_s05_1-3-10_oven_10_n04111531_22041.JPEG
subject-05,3,50,1.05537486076355,bicycle,boat,8-10-10,2610_eid_s05_8-10-10_boat_10_n03344393_202.JPEG
subject-05,3,51,0.96416187286377,bird,bird,4-0-10,2611_eid_s05_4-0-10_bird_10_n01824575_11299.JPEG
subject-05,3,52,0.674540042877197,knife,knife,4-0-10,2612_eid_s05_4-0-10_knife_10_n03041632_40887.JPEG
subject-05,3,53,0.998613119125366,chair,chair,1-10-10,2613_eid_s05_1-10-10_chair_10_n03376595_4745.JPEG
subject-05,3,54,0.617465019226074,knife,knife,2-3-10,2614_eid_s05_2-3-10_knife_10_n03041632_11816.JPEG
subject-05,3,55,0.950026988983154,boat,boat,1-10-10,2615_eid_s05_1-10-10_boat_10_n02951358_16974.JPEG
subject-05,3,56,1.11243391036987,chair,chair,8-10-10,2616_eid_s05_8-10-10_chair_10_n03376595_15828.JPEG
subject-05,3,57,0.899255037307739,cat,truck,16-10-10,2617_eid_s05_16-10-10_truck_10_n03417042_9289.JPEG
subject-05,3,58,1.41584491729736,keyboard,keyboard,8-3-10,2618_eid_s05_8-3-10_keyboard_10_n04505470_4047.JPEG
subject-05,3,59,1.48819589614868,clock,bottle,1-0-10,2619_eid_s05_1-0-10_bottle_10_n04560804_5951.JPEG
subject-05,3,60,1.205157995224,keyboard,keyboard,1-3-10,2620_eid_s05_1-3-10_keyboard_10_n03085013_24077.JPEG
subject-05,3,61,1.12954688072205,dog,dog,1-10-10,2621_eid_s05_1-10-10_dog_10_n02107908_6686.JPEG
subject-05,3,62,0.970148086547852,bear,bear,8-10-10,2622_eid_s05_8-10-10_bear_10_n02132136_4179.JPEG
subject-05,3,63,0.850821018218994,clock,clock,1-3-10,2623_eid_s05_1-3-10_clock_10_n02708093_377.JPEG
subject-05,3,64,0.974769830703735,keyboard,keyboard,4-0-10,2624_eid_s05_4-0-10_keyboard_10_n04505470_5121.JPEG
subject-05,3,65,1.13726687431335,car,bear,16-0-10,2625_eid_s05_16-0-10_bear_10_n02133161_1495.JPEG
subject-05,3,66,0.899885177612305,truck,bear,64-3-10,2626_eid_s05_64-3-10_bear_10_n02134084_9722.JPEG
subject-05,3,67,0.763871908187866,airplane,car,64-0-10,2627_eid_s05_64-0-10_car_10_n04285008_203.JPEG
subject-05,3,68,0.626766920089722,boat,car,128-10-10,2628_eid_s05_128-10-10_car_10_n04285008_12698.JPEG
subject-05,3,69,0.642206907272339,car,car,8-10-10,2629_eid_s05_8-10-10_car_10_n03100240_7213.JPEG
subject-05,3,70,0.580068111419678,boat,boat,2-3-10,2630_eid_s05_2-3-10_boat_10_n04273569_6331.JPEG
subject-05,3,71,0.636675834655762,clock,oven,64-3-10,2631_eid_s05_64-3-10_oven_10_n04111531_9342.JPEG
subject-05,3,72,0.660537958145142,boat,bicycle,128-3-10,2632_eid_s05_128-3-10_bicycle_10_n02835271_2015.JPEG
subject-05,3,73,0.952927112579346,dog,dog,1-0-10,2633_eid_s05_1-0-10_dog_10_n02090721_154.JPEG
subject-05,3,74,0.693173170089722,cat,bird,64-0-10,2634_eid_s05_64-0-10_bird_10_n01514859_8317.JPEG
subject-05,3,75,0.771634101867676,keyboard,keyboard,4-3-10,2635_eid_s05_4-3-10_keyboard_10_n04505470_5086.JPEG
subject-05,3,76,0.774270057678223,bird,airplane,16-10-10,2636_eid_s05_16-10-10_airplane_10_n02690373_9618.JPEG
subject-05,3,77,0.607102155685425,boat,cat,64-10-10,2637_eid_s05_64-10-10_cat_10_n02123394_6001.JPEG
subject-05,3,78,0.509442090988159,clock,airplane,32-3-10,2638_eid_s05_32-3-10_airplane_10_n02690373_12813.JPEG
subject-05,3,79,0.956050157546997,keyboard,keyboard,8-0-10,2639_eid_s05_8-0-10_keyboard_10_n04505470_4033.JPEG
subject-05,3,80,0.942514181137085,dog,bicycle,8-0-10,2640_eid_s05_8-0-10_bicycle_10_n02835271_10551.JPEG
subject-05,3,81,0.796571016311646,dog,dog,1-3-10,2641_eid_s05_1-3-10_dog_10_n02085936_1071.JPEG
subject-05,3,82,0.744879961013794,bear,bear,32-3-10,2642_eid_s05_32-3-10_bear_10_n02133161_2202.JPEG
subject-05,3,83,0.675468921661377,dog,dog,2-10-10,2643_eid_s05_2-10-10_dog_10_n02097047_6413.JPEG
subject-05,3,84,0.631569862365723,bicycle,bicycle,1-3-10,2644_eid_s05_1-3-10_bicycle_10_n02835271_20004.JPEG
subject-05,3,85,0.786087036132812,truck,truck,8-3-10,2645_eid_s05_8-3-10_truck_10_n03417042_4528.JPEG
subject-05,3,86,0.610527038574219,bear,bear,2-10-10,2646_eid_s05_2-10-10_bear_10_n02134418_2434.JPEG
subject-05,3,87,0.851195812225342,airplane,airplane,2-10-10,2647_eid_s05_2-10-10_airplane_10_n02690373_10449.JPEG
subject-05,3,88,0.883867979049683,dog,oven,8-0-10,2648_eid_s05_8-0-10_oven_10_n04111531_5888.JPEG
subject-05,3,89,1.23781299591064,car,car,2-0-10,2649_eid_s05_2-0-10_car_10_n02814533_4389.JPEG
subject-05,3,90,0.970163106918335,bird,bird,4-10-10,2650_eid_s05_4-10-10_bird_10_n01614925_1314.JPEG
subject-05,3,91,0.678858041763306,bear,oven,16-10-10,2651_eid_s05_16-10-10_oven_10_n04111531_1945.JPEG
subject-05,3,92,1.01123404502869,oven,oven,1-3-10,2652_eid_s05_1-3-10_oven_10_n04111531_1922.JPEG
subject-05,3,93,0.627877950668335,clock,dog,32-10-10,2653_eid_s05_32-10-10_dog_10_n02093859_2275.JPEG
subject-05,3,94,0.883749008178711,bicycle,bird,32-10-10,2654_eid_s05_32-10-10_bird_10_n01843383_742.JPEG
subject-05,3,95,0.592922925949097,bear,airplane,16-0-10,2655_eid_s05_16-0-10_airplane_10_n02690373_303.JPEG
subject-05,3,96,0.555162906646729,boat,elephant,128-10-10,2656_eid_s05_128-10-10_elephant_10_n02504458_3915.JPEG
subject-05,3,97,0.565873146057129,cat,bear,128-0-10,2657_eid_s05_128-0-10_bear_10_n02134418_1295.JPEG
subject-05,3,98,0.628043174743652,boat,chair,128-10-10,2658_eid_s05_128-10-10_chair_10_n04099969_22250.JPEG
subject-05,3,99,0.627841949462891,chair,chair,1-3-10,2659_eid_s05_1-3-10_chair_10_n04099969_6911.JPEG
subject-05,3,100,0.500416040420532,boat,boat,2-10-10,2660_eid_s05_2-10-10_boat_10_n04273569_26100.JPEG
subject-05,3,101,0.492926120758057,clock,bicycle,128-0-10,2661_eid_s05_128-0-10_bicycle_10_n03792782_2905.JPEG
subject-05,3,102,0.725387096405029,keyboard,keyboard,1-0-10,2662_eid_s05_1-0-10_keyboard_10_n04505470_2321.JPEG
subject-05,3,103,0.66604208946228,clock,elephant,8-0-10,2663_eid_s05_8-0-10_elephant_10_n02504013_1343.JPEG
subject-05,3,104,1.0907039642334,bird,bicycle,64-10-10,2664_eid_s05_64-10-10_bicycle_10_n02835271_6475.JPEG
subject-05,3,105,0.660843849182129,car,dog,128-3-10,2665_eid_s05_128-3-10_dog_10_n02106662_79868.JPEG
subject-05,3,106,0.60940408706665,clock,clock,4-3-10,2666_eid_s05_4-3-10_clock_10_n04548280_4306.JPEG
subject-05,3,107,0.587912082672119,bear,bear,4-0-10,2667_eid_s05_4-0-10_bear_10_n02132136_3936.JPEG
subject-05,3,108,0.926100969314575,bear,elephant,32-3-10,2668_eid_s05_32-3-10_elephant_10_n02504458_4463.JPEG
subject-05,3,109,1.00427293777466,clock,knife,8-10-10,2669_eid_s05_8-10-10_knife_10_n03041632_25498.JPEG
subject-05,3,110,0.866444110870361,boat,airplane,16-0-10,2670_eid_s05_16-0-10_airplane_10_n02690373_5221.JPEG
subject-05,3,111,0.582942962646484,clock,clock,2-10-10,2671_eid_s05_2-10-10_clock_10_n04548280_5692.JPEG
subject-05,3,112,0.46947717666626,boat,dog,64-0-10,2672_eid_s05_64-0-10_dog_10_n02100236_4328.JPEG
subject-05,3,113,0.640023946762085,cat,dog,32-0-10,2673_eid_s05_32-0-10_dog_10_n02096051_137.JPEG
subject-05,3,114,1.04283785820007,oven,boat,1-3-10,2674_eid_s05_1-3-10_boat_10_n03662601_1711.JPEG
subject-05,3,115,0.605506896972656,bear,bear,1-3-10,2675_eid_s05_1-3-10_bear_10_n02132136_2075.JPEG
subject-05,3,116,0.621731996536255,car,truck,128-10-10,2676_eid_s05_128-10-10_truck_10_n03796401_2025.JPEG
subject-05,3,117,1.03826904296875,car,car,2-10-10,2677_eid_s05_2-10-10_car_10_n03100240_1988.JPEG
subject-05,3,118,1.22493696212769,knife,oven,4-3-10,2678_eid_s05_4-3-10_oven_10_n04111531_14758.JPEG
subject-05,3,119,0.470937013626099,cat,bird,32-0-10,2679_eid_s05_32-0-10_bird_10_n01796340_17626.JPEG
subject-05,3,120,1.34105610847473,knife,knife,8-10-10,2680_eid_s05_8-10-10_knife_10_n03041632_1556.JPEG
subject-05,3,121,0.551509857177734,cat,boat,8-10-10,2681_eid_s05_8-10-10_boat_10_n04273569_12917.JPEG
subject-05,3,122,0.614008903503418,clock,clock,8-10-10,2682_eid_s05_8-10-10_clock_10_n04548280_4739.JPEG
subject-05,3,123,0.752324819564819,clock,keyboard,8-3-10,2683_eid_s05_8-3-10_keyboard_10_n04505470_4543.JPEG
subject-05,3,124,0.471219062805176,boat,airplane,64-10-10,2684_eid_s05_64-10-10_airplane_10_n02690373_7133.JPEG
subject-05,3,125,0.67960000038147,bear,airplane,32-3-10,2685_eid_s05_32-3-10_airplane_10_n02690373_5866.JPEG
subject-05,3,126,0.758179903030396,car,clock,64-10-10,2686_eid_s05_64-10-10_clock_10_n04548280_23690.JPEG
subject-05,3,127,0.75034499168396,truck,dog,64-3-10,2687_eid_s05_64-3-10_dog_10_n02098286_5448.JPEG
subject-05,3,128,0.544656038284302,cat,oven,128-0-10,2688_eid_s05_128-0-10_oven_10_n04111531_8793.JPEG
subject-05,3,129,0.785327911376953,chair,airplane,32-0-10,2689_eid_s05_32-0-10_airplane_10_n02690373_1451.JPEG
subject-05,3,130,0.593326807022095,oven,knife,128-10-10,2690_eid_s05_128-10-10_knife_10_n03041632_40652.JPEG
subject-05,3,131,1.03928399085999,bear,bear,2-10-10,2691_eid_s05_2-10-10_bear_10_n02133161_15177.JPEG
subject-05,3,132,0.763859987258911,clock,clock,8-10-10,2692_eid_s05_8-10-10_clock_10_n03196217_343.JPEG
subject-05,3,133,0.566267013549805,boat,boat,1-10-10,2693_eid_s05_1-10-10_boat_10_n04273569_92.JPEG
subject-05,3,134,0.790947914123535,bear,bear,1-10-10,2694_eid_s05_1-10-10_bear_10_n02134418_3426.JPEG
subject-05,3,135,1.20717716217041,car,car,1-0-10,2695_eid_s05_1-0-10_car_10_n02814533_35442.JPEG
subject-05,3,136,1.06939506530762,chair,chair,1-10-10,2696_eid_s05_1-10-10_chair_10_n02791124_6375.JPEG
subject-05,3,137,0.623850107192993,cat,chair,16-0-10,2697_eid_s05_16-0-10_chair_10_n02791124_1442.JPEG
subject-05,3,138,0.788536071777344,bear,bear,32-0-10,2698_eid_s05_32-0-10_bear_10_n02133161_14856.JPEG
subject-05,3,139,1.20496296882629,truck,truck,2-3-10,2699_eid_s05_2-3-10_truck_10_n04467665_37432.JPEG
subject-05,3,140,0.784053087234497,car,keyboard,8-0-10,2700_eid_s05_8-0-10_keyboard_10_n03085013_1824.JPEG
subject-05,3,141,1.0224130153656,car,car,8-0-10,2701_eid_s05_8-0-10_car_10_n04285008_4216.JPEG
subject-05,3,142,0.662966966629028,boat,bicycle,16-10-10,2702_eid_s05_16-10-10_bicycle_10_n02835271_8034.JPEG
subject-05,3,143,0.725121974945068,chair,chair,4-10-10,2703_eid_s05_4-10-10_chair_10_n04099969_7571.JPEG
subject-05,3,144,0.538247108459473,boat,car,128-3-10,2704_eid_s05_128-3-10_car_10_n03100240_9569.JPEG
subject-05,3,145,0.670914888381958,clock,bottle,32-3-10,2705_eid_s05_32-3-10_bottle_10_n04560804_6367.JPEG
subject-05,3,146,0.656881093978882,cat,cat,16-10-10,2706_eid_s05_16-10-10_cat_10_n02123597_488.JPEG
subject-05,3,147,0.603193044662476,oven,bottle,128-3-10,2707_eid_s05_128-3-10_bottle_10_n04591713_3438.JPEG
subject-05,3,148,1.04964303970337,airplane,bicycle,32-10-10,2708_eid_s05_32-10-10_bicycle_10_n03792782_29108.JPEG
subject-05,3,149,0.998224020004272,bear,elephant,2-10-10,2709_eid_s05_2-10-10_elephant_10_n02504458_511.JPEG
subject-05,3,150,0.882670164108276,car,car,4-3-10,2710_eid_s05_4-3-10_car_10_n02814533_73944.JPEG
subject-05,3,151,0.714785099029541,bottle,bottle,2-0-10,2711_eid_s05_2-0-10_bottle_10_n03983396_3517.JPEG
subject-05,3,152,0.631788969039917,cat,cat,4-10-10,2712_eid_s05_4-10-10_cat_10_n02123394_7070.JPEG
subject-05,3,153,1.01008701324463,knife,knife,4-10-10,2713_eid_s05_4-10-10_knife_10_n03041632_992.JPEG
subject-05,3,154,1.34881401062012,truck,truck,4-0-10,2714_eid_s05_4-0-10_truck_10_n03796401_19153.JPEG
subject-05,3,155,0.873635053634644,elephant,elephant,1-0-10,2715_eid_s05_1-0-10_elephant_10_n02504458_494.JPEG
subject-05,3,156,0.797929048538208,bird,car,64-0-10,2716_eid_s05_64-0-10_car_10_n02814533_4612.JPEG
subject-05,3,157,0.860186100006104,dog,dog,8-3-10,2717_eid_s05_8-3-10_dog_10_n02095314_5181.JPEG
subject-05,3,158,0.476619005203247,boat,dog,128-0-10,2718_eid_s05_128-0-10_dog_10_n02098286_1277.JPEG
subject-05,3,159,0.771675825119019,bear,bottle,64-3-10,2719_eid_s05_64-3-10_bottle_10_n04579145_5289.JPEG
subject-05,3,160,1.10943603515625,oven,elephant,16-3-10,2720_eid_s05_16-3-10_elephant_10_n02504458_1628.JPEG
subject-05,3,161,0.54977822303772,boat,boat,2-10-10,2721_eid_s05_2-10-10_boat_10_n03662601_1740.JPEG
subject-05,3,162,0.671777963638306,cat,cat,32-0-10,2722_eid_s05_32-0-10_cat_10_n02123159_5954.JPEG
subject-05,3,163,1.15060591697693,car,truck,128-0-10,2723_eid_s05_128-0-10_truck_10_n04467665_9123.JPEG
subject-05,3,164,1.36638808250427,elephant,boat,32-0-10,2724_eid_s05_32-0-10_boat_10_n03662601_5528.JPEG
subject-05,3,165,0.552891969680786,bear,airplane,64-3-10,2725_eid_s05_64-3-10_airplane_10_n02690373_17937.JPEG
subject-05,3,166,0.669498205184937,dog,dog,4-0-10,2726_eid_s05_4-0-10_dog_10_n02096051_1854.JPEG
subject-05,3,167,1.19203615188599,bottle,bottle,2-3-10,2727_eid_s05_2-3-10_bottle_10_n04591713_3085.JPEG
subject-05,3,168,1.04825282096863,airplane,airplane,16-3-10,2728_eid_s05_16-3-10_airplane_10_n02690373_4979.JPEG
subject-05,3,169,0.740926027297974,cat,bear,16-10-10,2729_eid_s05_16-10-10_bear_10_n02132136_369.JPEG
subject-05,3,170,0.656481027603149,cat,cat,2-10-10,2730_eid_s05_2-10-10_cat_10_n02124075_257.JPEG
subject-05,3,171,0.810786962509155,bear,elephant,32-10-10,2731_eid_s05_32-10-10_elephant_10_n02504458_11383.JPEG
subject-05,3,172,0.651708841323853,boat,boat,1-3-10,2732_eid_s05_1-3-10_boat_10_n04273569_1158.JPEG
subject-05,3,173,0.535743951797485,cat,cat,16-3-10,2733_eid_s05_16-3-10_cat_10_n02123394_602.JPEG
subject-05,3,174,0.814350128173828,bear,bear,32-10-10,2734_eid_s05_32-10-10_bear_10_n02133161_2585.JPEG
subject-05,3,175,0.898368120193481,bear,boat,64-3-10,2735_eid_s05_64-3-10_boat_10_n03662601_28792.JPEG
subject-05,3,176,0.815158843994141,chair,airplane,16-0-10,2736_eid_s05_16-0-10_airplane_10_n02690373_2435.JPEG
subject-05,3,177,0.909641027450562,dog,car,64-0-10,2737_eid_s05_64-0-10_car_10_n02814533_83665.JPEG
subject-05,3,178,1.09388494491577,dog,dog,4-0-10,2738_eid_s05_4-0-10_dog_10_n02102318_15946.JPEG
subject-05,3,179,0.794051885604858,cat,cat,1-10-10,2739_eid_s05_1-10-10_cat_10_n02123394_1429.JPEG
subject-05,3,180,0.696588039398193,boat,boat,16-0-10,2740_eid_s05_16-0-10_boat_10_n04273569_17458.JPEG
subject-05,3,181,0.687693119049072,cat,truck,128-3-10,2741_eid_s05_128-3-10_truck_10_n04467665_1584.JPEG
subject-05,3,182,1.38088607788086,elephant,airplane,16-10-10,2742_eid_s05_16-10-10_airplane_10_n02690373_2730.JPEG
subject-05,3,183,0.75970196723938,airplane,airplane,1-3-10,2743_eid_s05_1-3-10_airplane_10_n02690373_9471.JPEG
subject-05,3,184,0.662398099899292,boat,airplane,64-0-10,2744_eid_s05_64-0-10_airplane_10_n02690373_9794.JPEG
subject-05,3,185,0.608938217163086,cat,cat,1-3-10,2745_eid_s05_1-3-10_cat_10_n02123394_6869.JPEG
subject-05,3,186,1.04972386360168,boat,boat,1-3-10,2746_eid_s05_1-3-10_boat_10_n04612504_30424.JPEG
subject-05,3,187,0.620537996292114,cat,clock,64-3-10,2747_eid_s05_64-3-10_clock_10_n02708093_870.JPEG
subject-05,3,188,1.04440379142761,oven,oven,2-10-10,2748_eid_s05_2-10-10_oven_10_n04111531_9838.JPEG
subject-05,3,189,0.552426099777222,cat,oven,16-3-10,2749_eid_s05_16-3-10_oven_10_n04111531_21931.JPEG
subject-05,3,190,0.685043096542358,bear,bicycle,32-0-10,2750_eid_s05_32-0-10_bicycle_10_n02835271_13674.JPEG
subject-05,3,191,0.985362768173218,boat,keyboard,16-3-10,2751_eid_s05_16-3-10_keyboard_10_n03085013_20858.JPEG
subject-05,3,192,0.802327156066895,car,car,4-0-10,2752_eid_s05_4-0-10_car_10_n03100240_14156.JPEG
subject-05,3,193,0.902509927749634,dog,bear,32-0-10,2753_eid_s05_32-0-10_bear_10_n02132136_16401.JPEG
subject-05,3,194,0.815583944320679,airplane,airplane,4-10-10,2754_eid_s05_4-10-10_airplane_10_n02690373_1295.JPEG
subject-05,3,195,0.717738151550293,dog,dog,8-10-10,2755_eid_s05_8-10-10_dog_10_n02104029_6045.JPEG
subject-05,3,196,0.493983030319214,boat,bottle,128-0-10,2756_eid_s05_128-0-10_bottle_10_n03983396_2088.JPEG
subject-05,3,197,0.540004968643188,cat,oven,32-3-10,2757_eid_s05_32-3-10_oven_10_n04111531_8441.JPEG
subject-05,3,198,0.70199179649353,bear,keyboard,32-0-10,2758_eid_s05_32-0-10_keyboard_10_n04505470_73.JPEG
subject-05,3,199,0.571929931640625,cat,cat,8-10-10,2759_eid_s05_8-10-10_cat_10_n02123394_5377.JPEG
subject-05,3,200,0.909950971603394,clock,clock,8-10-10,2760_eid_s05_8-10-10_clock_10_n02708093_1276.JPEG
subject-05,3,201,0.518566846847534,boat,boat,64-0-10,2761_eid_s05_64-0-10_boat_10_n04612504_199.JPEG
subject-05,3,202,0.710619926452637,car,truck,64-0-10,2762_eid_s05_64-0-10_truck_10_n03417042_14525.JPEG
subject-05,3,203,0.626796007156372,cat,keyboard,32-10-10,2763_eid_s05_32-10-10_keyboard_10_n03085013_18797.JPEG
subject-05,3,204,1.38108897209167,dog,dog,128-3-10,2764_eid_s05_128-3-10_dog_10_n02110063_9441.JPEG
subject-05,3,205,0.605018854141235,boat,clock,32-3-10,2765_eid_s05_32-3-10_clock_10_n04548280_1200.JPEG
subject-05,3,206,0.921551942825317,bear,elephant,64-10-10,2766_eid_s05_64-10-10_elephant_10_n02504458_5204.JPEG
subject-05,3,207,0.713857889175415,cat,oven,16-3-10,2767_eid_s05_16-3-10_oven_10_n04111531_1556.JPEG
subject-05,3,208,0.821531057357788,bicycle,airplane,32-0-10,2768_eid_s05_32-0-10_airplane_10_n02690373_1434.JPEG
subject-05,3,209,0.906068801879883,cat,airplane,16-3-10,2769_eid_s05_16-3-10_airplane_10_n02690373_5217.JPEG
subject-05,3,210,0.52177906036377,boat,airplane,64-0-10,2770_eid_s05_64-0-10_airplane_10_n02690373_2619.JPEG
subject-05,3,211,0.716487169265747,oven,dog,128-10-10,2771_eid_s05_128-10-10_dog_10_n02088364_4237.JPEG
subject-05,3,212,0.832564115524292,car,elephant,64-0-10,2772_eid_s05_64-0-10_elephant_10_n02504013_7831.JPEG
subject-05,3,213,0.846998929977417,truck,bear,128-3-10,2773_eid_s05_128-3-10_bear_10_n02133161_5274.JPEG
subject-05,3,214,0.609568119049072,cat,elephant,8-0-10,2774_eid_s05_8-0-10_elephant_10_n02504013_6552.JPEG
subject-05,3,215,0.479558944702148,boat,boat,2-3-10,2775_eid_s05_2-3-10_boat_10_n04612504_36489.JPEG
subject-05,3,216,0.94200587272644,oven,oven,32-0-10,2776_eid_s05_32-0-10_oven_10_n04111531_7667.JPEG
subject-05,3,217,0.980322122573853,knife,keyboard,16-3-10,2777_eid_s05_16-3-10_keyboard_10_n03085013_20897.JPEG
subject-05,3,218,1.01281499862671,car,truck,32-3-10,2778_eid_s05_32-3-10_truck_10_n03796401_16686.JPEG
subject-05,3,219,0.729144096374512,cat,elephant,64-10-10,2779_eid_s05_64-10-10_elephant_10_n02504013_10192.JPEG
subject-05,3,220,1.50026106834412,clock,bottle,4-0-10,2780_eid_s05_4-0-10_bottle_10_n04591713_7090.JPEG
subject-05,3,221,1.29971504211426,bottle,bottle,4-10-10,2781_eid_s05_4-10-10_bottle_10_n04560804_25624.JPEG
subject-05,3,222,0.713281869888306,airplane,airplane,1-0-10,2782_eid_s05_1-0-10_airplane_10_n02690373_4134.JPEG
subject-05,3,223,0.767765998840332,bird,clock,128-0-10,2783_eid_s05_128-0-10_clock_10_n04548280_5127.JPEG
subject-05,3,224,0.699908971786499,bear,boat,64-3-10,2784_eid_s05_64-3-10_boat_10_n03344393_830.JPEG
subject-05,3,225,1.0164430141449,car,chair,128-0-10,2785_eid_s05_128-0-10_chair_10_n03376595_16059.JPEG
subject-05,3,226,NaN,na,truck,2-0-10,2786_eid_s05_2-0-10_truck_10_n04467665_44715.JPEG
subject-05,3,227,0.855291128158569,boat,bear,128-0-10,2787_eid_s05_128-0-10_bear_10_n02134084_34728.JPEG
subject-05,3,228,0.841864824295044,clock,oven,64-0-10,2788_eid_s05_64-0-10_oven_10_n04111531_452.JPEG
subject-05,3,229,1.40211200714111,dog,dog,1-10-10,2789_eid_s05_1-10-10_dog_10_n02089078_221.JPEG
subject-05,3,230,1.36383986473083,knife,knife,4-10-10,2790_eid_s05_4-10-10_knife_10_n03041632_4279.JPEG
subject-05,3,231,1.23411202430725,cat,dog,128-3-10,2791_eid_s05_128-3-10_dog_10_n02093991_442.JPEG
subject-05,3,232,0.564599990844727,clock,clock,2-10-10,2792_eid_s05_2-10-10_clock_10_n04548280_2778.JPEG
subject-05,3,233,1.44346594810486,bird,bear,8-0-10,2793_eid_s05_8-0-10_bear_10_n02133161_2399.JPEG
subject-05,3,234,0.775763988494873,boat,keyboard,32-0-10,2794_eid_s05_32-0-10_keyboard_10_n04505470_6806.JPEG
subject-05,3,235,0.889772891998291,car,bottle,16-0-10,2795_eid_s05_16-0-10_bottle_10_n02823428_6405.JPEG
subject-05,3,236,0.890265941619873,boat,boat,1-0-10,2796_eid_s05_1-0-10_boat_10_n02951358_3452.JPEG
subject-05,3,237,0.768621921539307,clock,boat,8-10-10,2797_eid_s05_8-10-10_boat_10_n03344393_9050.JPEG
subject-05,3,238,0.792958974838257,bear,bear,1-3-10,2798_eid_s05_1-3-10_bear_10_n02132136_355.JPEG
subject-05,3,239,0.789467096328735,boat,elephant,128-0-10,2799_eid_s05_128-0-10_elephant_10_n02504013_1909.JPEG
subject-05,3,240,0.736078023910522,bear,elephant,16-3-10,2800_eid_s05_16-3-10_elephant_10_n02504013_6619.JPEG
subject-05,3,241,0.952391147613525,airplane,knife,32-10-10,2801_eid_s05_32-10-10_knife_10_n03041632_16206.JPEG
subject-05,3,242,1.12123799324036,chair,chair,1-0-10,2802_eid_s05_1-0-10_chair_10_n02791124_6796.JPEG
subject-05,3,243,0.837666988372803,cat,keyboard,64-0-10,2803_eid_s05_64-0-10_keyboard_10_n03085013_13281.JPEG
subject-05,3,244,1.18423199653625,dog,bear,128-10-10,2804_eid_s05_128-10-10_bear_10_n02134084_890.JPEG
subject-05,3,245,0.602591037750244,bear,elephant,8-3-10,2805_eid_s05_8-3-10_elephant_10_n02504013_8563.JPEG
subject-05,3,246,0.779162883758545,bear,bear,4-0-10,2806_eid_s05_4-0-10_bear_10_n02134084_3829.JPEG
subject-05,3,247,0.70378589630127,car,car,8-10-10,2807_eid_s05_8-10-10_car_10_n02814533_2496.JPEG
subject-05,3,248,0.619945049285889,cat,dog,16-0-10,2808_eid_s05_16-0-10_dog_10_n02101388_4169.JPEG
subject-05,3,249,0.550627946853638,clock,clock,2-0-10,2809_eid_s05_2-0-10_clock_10_n02708093_2869.JPEG
subject-05,3,250,0.783256053924561,car,chair,8-3-10,2810_eid_s05_8-3-10_chair_10_n03376595_7660.JPEG
subject-05,3,251,1.00755095481873,cat,knife,64-10-10,2811_eid_s05_64-10-10_knife_10_n03041632_33584.JPEG
subject-05,3,252,0.770058155059814,car,car,16-10-10,2812_eid_s05_16-10-10_car_10_n03100240_16896.JPEG
subject-05,3,253,0.662539005279541,bear,keyboard,64-3-10,2813_eid_s05_64-3-10_keyboard_10_n04505470_6623.JPEG
subject-05,3,254,0.608732938766479,boat,cat,8-3-10,2814_eid_s05_8-3-10_cat_10_n02123597_32714.JPEG
subject-05,3,255,0.647099018096924,keyboard,keyboard,1-10-10,2815_eid_s05_1-10-10_keyboard_10_n04505470_1217.JPEG
subject-05,3,256,0.82583212852478,bottle,bottle,1-10-10,2816_eid_s05_1-10-10_bottle_10_n03983396_4798.JPEG
subject-05,3,257,0.71821403503418,bicycle,bicycle,8-10-10,2817_eid_s05_8-10-10_bicycle_10_n02835271_2328.JPEG
subject-05,3,258,0.526656866073608,cat,cat,8-3-10,2818_eid_s05_8-3-10_cat_10_n02123045_10166.JPEG
subject-05,3,259,0.450637817382812,boat,bottle,64-0-10,2819_eid_s05_64-0-10_bottle_10_n03937543_11004.JPEG
subject-05,3,260,0.98048210144043,knife,knife,1-3-10,2820_eid_s05_1-3-10_knife_10_n03041632_39883.JPEG
subject-05,3,261,0.789058923721313,clock,oven,32-3-10,2821_eid_s05_32-3-10_oven_10_n04111531_20823.JPEG
subject-05,3,262,0.705618143081665,car,car,1-3-10,2822_eid_s05_1-3-10_car_10_n03100240_3855.JPEG
subject-05,3,263,0.597452163696289,cat,bird,16-3-10,2823_eid_s05_16-3-10_bird_10_n01820546_5441.JPEG
subject-05,3,264,0.957735061645508,boat,cat,128-3-10,2824_eid_s05_128-3-10_cat_10_n02123045_8951.JPEG
subject-05,3,265,0.82824182510376,truck,truck,1-0-10,2825_eid_s05_1-0-10_truck_10_n04467665_63788.JPEG
subject-05,3,266,0.552897930145264,boat,clock,32-0-10,2826_eid_s05_32-0-10_clock_10_n03196217_1271.JPEG
subject-05,3,267,0.653292894363403,cat,knife,128-3-10,2827_eid_s05_128-3-10_knife_10_n03041632_36814.JPEG
subject-05,3,268,0.923125028610229,car,car,8-10-10,2828_eid_s05_8-10-10_car_10_n02814533_31532.JPEG
subject-05,3,269,1.13772702217102,car,truck,8-0-10,2829_eid_s05_8-0-10_truck_10_n03417042_27253.JPEG
subject-05,3,270,0.878334999084473,car,car,4-3-10,2830_eid_s05_4-3-10_car_10_n04285008_876.JPEG
subject-05,3,271,1.16266918182373,keyboard,chair,2-0-10,2831_eid_s05_2-0-10_chair_10_n04099969_7897.JPEG
subject-05,3,272,0.705276012420654,bear,chair,32-3-10,2832_eid_s05_32-3-10_chair_10_n04429376_24375.JPEG
subject-05,3,273,0.988724946975708,truck,truck,4-3-10,2833_eid_s05_4-3-10_truck_10_n03417042_5707.JPEG
subject-05,3,274,0.897231101989746,boat,boat,2-3-10,2834_eid_s05_2-3-10_boat_10_n02951358_12866.JPEG
subject-05,3,275,0.630198955535889,car,car,8-0-10,2835_eid_s05_8-0-10_car_10_n02814533_2560.JPEG
subject-05,3,276,0.668811082839966,cat,truck,64-0-10,2836_eid_s05_64-0-10_truck_10_n03796401_10979.JPEG
subject-05,3,277,0.915215015411377,chair,chair,2-3-10,2837_eid_s05_2-3-10_chair_10_n04099969_15948.JPEG
subject-05,3,278,1.31572699546814,airplane,airplane,32-3-10,2838_eid_s05_32-3-10_airplane_10_n02690373_6046.JPEG
subject-05,3,279,0.615571975708008,car,car,4-10-10,2839_eid_s05_4-10-10_car_10_n03100240_10501.JPEG
subject-05,3,280,0.693993091583252,cat,car,32-3-10,2840_eid_s05_32-3-10_car_10_n03100240_2701.JPEG
subject-05,3,281,0.778635025024414,keyboard,keyboard,2-10-10,2841_eid_s05_2-10-10_keyboard_10_n03085013_974.JPEG
subject-05,3,282,0.77894401550293,chair,chair,2-0-10,2842_eid_s05_2-0-10_chair_10_n04099969_34144.JPEG
subject-05,3,283,0.711582183837891,airplane,airplane,1-0-10,2843_eid_s05_1-0-10_airplane_10_n02690373_3294.JPEG
subject-05,3,284,1.40362596511841,boat,bird,32-0-10,2844_eid_s05_32-0-10_bird_10_n02018207_43214.JPEG
subject-05,3,285,0.565845966339111,car,car,8-0-10,2845_eid_s05_8-0-10_car_10_n04285008_6581.JPEG
subject-05,3,286,0.996386051177979,bear,airplane,64-0-10,2846_eid_s05_64-0-10_airplane_10_n02690373_4115.JPEG
subject-05,3,287,0.697029113769531,bottle,bottle,4-10-10,2847_eid_s05_4-10-10_bottle_10_n04557648_988.JPEG
subject-05,3,288,0.467372894287109,cat,keyboard,64-10-10,2848_eid_s05_64-10-10_keyboard_10_n04505470_4411.JPEG
subject-05,3,289,0.719881057739258,boat,clock,128-10-10,2849_eid_s05_128-10-10_clock_10_n02708093_7963.JPEG
subject-05,3,290,0.836208820343018,bicycle,oven,32-0-10,2850_eid_s05_32-0-10_oven_10_n04111531_681.JPEG
subject-05,3,291,1.34483504295349,bicycle,bicycle,4-0-10,2851_eid_s05_4-0-10_bicycle_10_n03792782_65957.JPEG
subject-05,3,292,1.49124598503113,cat,cat,64-3-10,2852_eid_s05_64-3-10_cat_10_n02123394_1156.JPEG
subject-05,3,293,0.707741022109985,dog,dog,8-10-10,2853_eid_s05_8-10-10_dog_10_n02093991_8484.JPEG
subject-05,3,294,0.662549018859863,boat,chair,32-10-10,2854_eid_s05_32-10-10_chair_10_n03376595_4155.JPEG
subject-05,3,295,0.922876119613647,bird,bird,32-10-10,2855_eid_s05_32-10-10_bird_10_n01537544_5014.JPEG
subject-05,3,296,0.630959987640381,bird,bird,8-10-10,2856_eid_s05_8-10-10_bird_10_n02002556_1985.JPEG
subject-05,3,297,0.931030035018921,elephant,elephant,8-10-10,2857_eid_s05_8-10-10_elephant_10_n02504458_6611.JPEG
subject-05,3,298,0.76173210144043,bird,bird,1-10-10,2858_eid_s05_1-10-10_bird_10_n02025239_3030.JPEG
subject-05,3,299,0.824357032775879,cat,boat,16-3-10,2859_eid_s05_16-3-10_boat_10_n04612504_41.JPEG
subject-05,3,300,0.478811025619507,cat,bicycle,64-3-10,2860_eid_s05_64-3-10_bicycle_10_n02835271_6554.JPEG
subject-05,3,301,0.671202898025513,airplane,airplane,2-3-10,2861_eid_s05_2-3-10_airplane_10_n02690373_6212.JPEG
subject-05,3,302,0.541898012161255,boat,bottle,64-3-10,2862_eid_s05_64-3-10_bottle_10_n04591713_3195.JPEG
subject-05,3,303,0.641828060150146,clock,bear,32-0-10,2863_eid_s05_32-0-10_bear_10_n02134084_27.JPEG
subject-05,3,304,1.01044392585754,oven,elephant,32-3-10,2864_eid_s05_32-3-10_elephant_10_n02504458_1614.JPEG
subject-05,3,305,0.742403030395508,chair,chair,1-10-10,2865_eid_s05_1-10-10_chair_10_n02791124_1240.JPEG
subject-05,3,306,0.872948884963989,cat,clock,8-3-10,2866_eid_s05_8-3-10_clock_10_n02708093_8134.JPEG
subject-05,3,307,0.635488986968994,bottle,clock,16-3-10,2867_eid_s05_16-3-10_clock_10_n03196217_2511.JPEG
subject-05,3,308,0.695466041564941,bear,knife,128-3-10,2868_eid_s05_128-3-10_knife_10_n03041632_13225.JPEG
subject-05,3,309,0.712108850479126,cat,boat,64-3-10,2869_eid_s05_64-3-10_boat_10_n02951358_6569.JPEG
subject-05,3,310,0.644777059555054,cat,clock,32-10-10,2870_eid_s05_32-10-10_clock_10_n03196217_11714.JPEG
subject-05,3,311,0.629390954971313,boat,keyboard,32-10-10,2871_eid_s05_32-10-10_keyboard_10_n03085013_23445.JPEG
subject-05,3,312,0.991832971572876,clock,clock,8-0-10,2872_eid_s05_8-0-10_clock_10_n03196217_1404.JPEG
subject-05,3,313,0.821341991424561,car,chair,128-0-10,2873_eid_s05_128-0-10_chair_10_n02791124_984.JPEG
subject-05,3,314,1.42692685127258,bird,bicycle,8-3-10,2874_eid_s05_8-3-10_bicycle_10_n03792782_1222.JPEG
subject-05,3,315,1.03596091270447,bottle,knife,8-3-10,2875_eid_s05_8-3-10_knife_10_n03041632_49570.JPEG
subject-05,3,316,1.50027894973755,bear,elephant,32-0-10,2876_eid_s05_32-0-10_elephant_10_n02504013_19694.JPEG
subject-05,3,317,0.744425058364868,cat,knife,32-0-10,2877_eid_s05_32-0-10_knife_10_n03041632_32350.JPEG
subject-05,3,318,0.828828096389771,bottle,clock,4-0-10,2878_eid_s05_4-0-10_clock_10_n02708093_3075.JPEG
subject-05,3,319,0.77547812461853,cat,dog,128-10-10,2879_eid_s05_128-10-10_dog_10_n02101556_11802.JPEG
subject-05,3,320,0.960231065750122,boat,knife,64-10-10,2880_eid_s05_64-10-10_knife_10_n03041632_30602.JPEG
subject-05,3,321,0.846666097640991,cat,bicycle,16-3-10,2881_eid_s05_16-3-10_bicycle_10_n03792782_692.JPEG
subject-05,3,322,0.53106689453125,bear,bear,64-0-10,2882_eid_s05_64-0-10_bear_10_n02132136_35258.JPEG
subject-05,3,323,0.561908960342407,clock,chair,64-0-10,2883_eid_s05_64-0-10_chair_10_n02791124_2003.JPEG
subject-05,3,324,0.570317983627319,cat,oven,128-10-10,2884_eid_s05_128-10-10_oven_10_n04111531_13479.JPEG
subject-05,3,325,0.732845067977905,cat,bear,32-0-10,2885_eid_s05_32-0-10_bear_10_n02132136_14832.JPEG
subject-05,3,326,0.979578971862793,car,clock,16-3-10,2886_eid_s05_16-3-10_clock_10_n02708093_6591.JPEG
subject-05,3,327,0.587702035903931,clock,clock,2-3-10,2887_eid_s05_2-3-10_clock_10_n02708093_5728.JPEG
subject-05,3,328,0.704758882522583,cat,keyboard,32-3-10,2888_eid_s05_32-3-10_keyboard_10_n03085013_20539.JPEG
subject-05,3,329,0.851057052612305,dog,truck,8-3-10,2889_eid_s05_8-3-10_truck_10_n04467665_31376.JPEG
subject-05,3,330,0.730175971984863,bear,bicycle,128-3-10,2890_eid_s05_128-3-10_bicycle_10_n03792782_5036.JPEG
subject-05,3,331,0.698699951171875,cat,knife,4-3-10,2891_eid_s05_4-3-10_knife_10_n03041632_3926.JPEG
subject-05,3,332,0.691130876541138,car,bear,128-3-10,2892_eid_s05_128-3-10_bear_10_n02133161_532.JPEG
subject-05,3,333,0.675693035125732,car,car,4-10-10,2893_eid_s05_4-10-10_car_10_n02814533_73382.JPEG
subject-05,3,334,1.19207692146301,bear,elephant,4-10-10,2894_eid_s05_4-10-10_elephant_10_n02504458_2007.JPEG
subject-05,3,335,0.600378036499023,cat,bottle,32-3-10,2895_eid_s05_32-3-10_bottle_10_n04557648_8485.JPEG
subject-05,3,336,0.806568145751953,boat,car,32-3-10,2896_eid_s05_32-3-10_car_10_n03100240_8206.JPEG
subject-05,3,337,0.985270977020264,airplane,keyboard,64-10-10,2897_eid_s05_64-10-10_keyboard_10_n03085013_20699.JPEG
subject-05,3,338,1.14847612380981,car,car,1-3-10,2898_eid_s05_1-3-10_car_10_n04285008_10468.JPEG
subject-05,3,339,0.908135890960693,cat,cat,16-10-10,2899_eid_s05_16-10-10_cat_10_n02124075_1630.JPEG
subject-05,3,340,0.565268993377686,cat,oven,64-3-10,2900_eid_s05_64-3-10_oven_10_n04111531_4984.JPEG
subject-05,3,341,0.702966928482056,bottle,bottle,8-10-10,2901_eid_s05_8-10-10_bottle_10_n04591713_475.JPEG
subject-05,3,342,1.10394692420959,boat,oven,32-3-10,2902_eid_s05_32-3-10_oven_10_n04111531_12903.JPEG
subject-05,3,343,0.563440084457397,oven,bird,128-10-10,2903_eid_s05_128-10-10_bird_10_n01622779_3246.JPEG
subject-05,3,344,0.588174104690552,cat,elephant,64-10-10,2904_eid_s05_64-10-10_elephant_10_n02504458_4962.JPEG
subject-05,3,345,0.835192918777466,keyboard,keyboard,16-10-10,2905_eid_s05_16-10-10_keyboard_10_n03085013_11469.JPEG
subject-05,3,346,0.789179086685181,cat,chair,32-0-10,2906_eid_s05_32-0-10_chair_10_n03376595_6158.JPEG
subject-05,3,347,0.559783220291138,bear,keyboard,128-10-10,2907_eid_s05_128-10-10_keyboard_10_n03085013_21534.JPEG
subject-05,3,348,0.51097297668457,boat,bird,128-0-10,2908_eid_s05_128-0-10_bird_10_n01820546_6228.JPEG
subject-05,3,349,0.5957190990448,cat,bear,64-10-10,2909_eid_s05_64-10-10_bear_10_n02133161_14164.JPEG
subject-05,3,350,0.619633913040161,cat,elephant,32-3-10,2910_eid_s05_32-3-10_elephant_10_n02504013_8308.JPEG
subject-05,3,351,0.574280977249146,clock,bird,8-0-10,2911_eid_s05_8-0-10_bird_10_n01531178_18788.JPEG
subject-05,3,352,0.767417907714844,cat,cat,4-3-10,2912_eid_s05_4-3-10_cat_10_n02125311_14541.JPEG
subject-05,3,353,0.667812824249268,cat,bottle,64-10-10,2913_eid_s05_64-10-10_bottle_10_n04560804_2040.JPEG
subject-05,3,354,0.676044940948486,boat,bear,32-0-10,2914_eid_s05_32-0-10_bear_10_n02134418_4110.JPEG
subject-05,3,355,1.00091409683228,car,elephant,32-0-10,2915_eid_s05_32-0-10_elephant_10_n02504013_7271.JPEG
subject-05,3,356,0.593420028686523,cat,cat,32-10-10,2916_eid_s05_32-10-10_cat_10_n02123597_11180.JPEG
subject-05,3,357,0.593805074691772,cat,knife,128-10-10,2917_eid_s05_128-10-10_knife_10_n03041632_52040.JPEG
subject-05,3,358,1.23752903938293,airplane,bicycle,64-10-10,2918_eid_s05_64-10-10_bicycle_10_n03792782_11390.JPEG
subject-05,3,359,0.638449907302856,boat,keyboard,64-10-10,2919_eid_s05_64-10-10_keyboard_10_n04505470_5150.JPEG
subject-05,3,360,0.724899053573608,bear,bicycle,64-10-10,2920_eid_s05_64-10-10_bicycle_10_n02835271_13729.JPEG
subject-05,3,361,1.09330296516418,bird,elephant,32-10-10,2921_eid_s05_32-10-10_elephant_10_n02504013_5398.JPEG
subject-05,3,362,0.639883995056152,bicycle,bicycle,2-0-10,2922_eid_s05_2-0-10_bicycle_10_n02835271_10425.JPEG
subject-05,3,363,0.469166994094849,boat,keyboard,128-0-10,2923_eid_s05_128-0-10_keyboard_10_n04505470_2010.JPEG
subject-05,3,364,0.661362886428833,airplane,airplane,1-10-10,2924_eid_s05_1-10-10_airplane_10_n02690373_5374.JPEG
subject-05,3,365,0.769590854644775,bottle,bottle,16-10-10,2925_eid_s05_16-10-10_bottle_10_n03983396_3629.JPEG
subject-05,3,366,0.632022142410278,boat,boat,64-10-10,2926_eid_s05_64-10-10_boat_10_n02951358_8627.JPEG
subject-05,3,367,0.616595983505249,cat,cat,64-3-10,2927_eid_s05_64-3-10_cat_10_n02125311_4340.JPEG
subject-05,3,368,0.630865812301636,clock,bear,16-0-10,2928_eid_s05_16-0-10_bear_10_n02134418_2660.JPEG
subject-05,3,369,0.731136083602905,bird,bird,8-3-10,2929_eid_s05_8-3-10_bird_10_n01592084_6359.JPEG
subject-05,3,370,0.753398180007935,boat,bottle,32-10-10,2930_eid_s05_32-10-10_bottle_10_n04560804_15092.JPEG
subject-05,3,371,1.13827204704285,elephant,elephant,1-0-10,2931_eid_s05_1-0-10_elephant_10_n02504013_6211.JPEG
subject-05,3,372,0.916661977767944,bicycle,bird,1-3-10,2932_eid_s05_1-3-10_bird_10_n01796340_689.JPEG
subject-05,3,373,0.587502956390381,boat,airplane,64-10-10,2933_eid_s05_64-10-10_airplane_10_n02690373_2253.JPEG
subject-05,3,374,0.885819911956787,bear,dog,1-10-10,2934_eid_s05_1-10-10_dog_10_n02097130_7947.JPEG
subject-05,3,375,0.618234872817993,cat,bird,2-3-10,2935_eid_s05_2-3-10_bird_10_n01798484_8150.JPEG
subject-05,3,376,0.695143938064575,oven,oven,16-3-10,2936_eid_s05_16-3-10_oven_10_n04111531_15683.JPEG
subject-05,3,377,1.04147696495056,bottle,knife,8-10-10,2937_eid_s05_8-10-10_knife_10_n03041632_19971.JPEG
subject-05,3,378,0.958299160003662,bird,bear,64-10-10,2938_eid_s05_64-10-10_bear_10_n02132136_2810.JPEG
subject-05,3,379,0.996690988540649,car,car,8-10-10,2939_eid_s05_8-10-10_car_10_n03100240_8787.JPEG
subject-05,3,380,0.635336875915527,cat,bird,8-3-10,2940_eid_s05_8-3-10_bird_10_n01622779_13590.JPEG
subject-05,3,381,1.01156806945801,bird,bird,32-10-10,2941_eid_s05_32-10-10_bird_10_n01531178_6724.JPEG
subject-05,3,382,0.882437944412231,bottle,boat,128-0-10,2942_eid_s05_128-0-10_boat_10_n03662601_5687.JPEG
subject-05,3,383,0.667539119720459,boat,dog,4-10-10,2943_eid_s05_4-10-10_dog_10_n02102480_6162.JPEG
subject-05,3,384,0.921667098999023,elephant,elephant,2-3-10,2944_eid_s05_2-3-10_elephant_10_n02504458_5137.JPEG
subject-05,3,385,0.797818183898926,chair,chair,4-10-10,2945_eid_s05_4-10-10_chair_10_n02791124_8321.JPEG
subject-05,3,386,0.628323078155518,cat,cat,32-10-10,2946_eid_s05_32-10-10_cat_10_n02123159_5853.JPEG
subject-05,3,387,0.879903078079224,clock,clock,2-3-10,2947_eid_s05_2-3-10_clock_10_n03196217_3104.JPEG
subject-05,3,388,0.464039087295532,boat,boat,64-0-10,2948_eid_s05_64-0-10_boat_10_n03662601_5232.JPEG
subject-05,3,389,0.45046591758728,bear,bottle,128-3-10,2949_eid_s05_128-3-10_bottle_10_n02823428_11353.JPEG
subject-05,3,390,0.62660813331604,elephant,elephant,1-3-10,2950_eid_s05_1-3-10_elephant_10_n02504458_8232.JPEG
subject-05,3,391,0.587133884429932,cat,chair,32-10-10,2951_eid_s05_32-10-10_chair_10_n02791124_5893.JPEG
subject-05,3,392,0.787614107131958,elephant,elephant,8-10-10,2952_eid_s05_8-10-10_elephant_10_n02504458_7033.JPEG
subject-05,3,393,0.734642028808594,car,dog,32-0-10,2953_eid_s05_32-0-10_dog_10_n02110063_43.JPEG
subject-05,3,394,0.634601831436157,bottle,bottle,1-3-10,2954_eid_s05_1-3-10_bottle_10_n04557648_11493.JPEG
subject-05,3,395,0.54951000213623,cat,elephant,32-3-10,2955_eid_s05_32-3-10_elephant_10_n02504013_435.JPEG
subject-05,3,396,0.957670927047729,bicycle,bicycle,2-0-10,2956_eid_s05_2-0-10_bicycle_10_n02835271_1202.JPEG
subject-05,3,397,0.688102006912231,cat,bird,2-3-10,2957_eid_s05_2-3-10_bird_10_n01797886_2296.JPEG
subject-05,3,398,0.817414999008179,cat,cat,1-10-10,2958_eid_s05_1-10-10_cat_10_n02123597_11293.JPEG
subject-05,3,399,1.49908685684204,boat,bear,2-0-10,2959_eid_s05_2-0-10_bear_10_n02133161_15682.JPEG
subject-05,3,400,0.586127996444702,cat,keyboard,64-3-10,2960_eid_s05_64-3-10_keyboard_10_n04505470_9113.JPEG
subject-05,3,401,1.06268692016602,bottle,truck,8-0-10,2961_eid_s05_8-0-10_truck_10_n04467665_45016.JPEG
subject-05,3,402,0.770637035369873,bird,elephant,64-3-10,2962_eid_s05_64-3-10_elephant_10_n02504013_18224.JPEG
subject-05,3,403,0.702044010162354,cat,bottle,64-10-10,2963_eid_s05_64-10-10_bottle_10_n02823428_6504.JPEG
subject-05,3,404,0.824156045913696,cat,cat,2-10-10,2964_eid_s05_2-10-10_cat_10_n02123597_9396.JPEG
subject-05,3,405,0.518779993057251,boat,truck,128-0-10,2965_eid_s05_128-0-10_truck_10_n04467665_4940.JPEG
subject-05,3,406,0.77124285697937,bottle,bottle,8-10-10,2966_eid_s05_8-10-10_bottle_10_n03983396_20591.JPEG
subject-05,3,407,1.14757895469666,bear,truck,8-10-10,2967_eid_s05_8-10-10_truck_10_n04467665_64375.JPEG
subject-05,3,408,0.694271087646484,chair,bear,128-0-10,2968_eid_s05_128-0-10_bear_10_n02133161_12580.JPEG
subject-05,3,409,1.39992094039917,oven,chair,16-10-10,2969_eid_s05_16-10-10_chair_10_n04429376_27939.JPEG
subject-05,3,410,0.800296068191528,bear,bottle,8-3-10,2970_eid_s05_8-3-10_bottle_10_n03937543_4423.JPEG
subject-05,3,411,0.855245113372803,bird,bird,2-3-10,2971_eid_s05_2-3-10_bird_10_n01582220_10583.JPEG
subject-05,3,412,0.731375932693481,bottle,knife,128-10-10,2972_eid_s05_128-10-10_knife_10_n03041632_24060.JPEG
subject-05,3,413,1.07794189453125,dog,knife,64-3-10,2973_eid_s05_64-3-10_knife_10_n03041632_36390.JPEG
subject-05,3,414,0.762608051300049,boat,bird,16-10-10,2974_eid_s05_16-10-10_bird_10_n01532829_289.JPEG
subject-05,3,415,NaN,na,chair,4-10-10,2975_eid_s05_4-10-10_chair_10_n02791124_6289.JPEG
subject-05,3,416,0.739217042922974,car,truck,32-0-10,2976_eid_s05_32-0-10_truck_10_n03796401_6607.JPEG
subject-05,3,417,1.12945890426636,bird,boat,128-0-10,2977_eid_s05_128-0-10_boat_10_n03662601_4043.JPEG
subject-05,3,418,0.96964693069458,bear,airplane,128-0-10,2978_eid_s05_128-0-10_airplane_10_n02690373_4133.JPEG
subject-05,3,419,0.859774112701416,car,car,2-3-10,2979_eid_s05_2-3-10_car_10_n04285008_4289.JPEG
subject-05,3,420,0.922163009643555,cat,cat,2-0-10,2980_eid_s05_2-0-10_cat_10_n02123159_149.JPEG
subject-05,3,421,1.0067880153656,cat,dog,8-3-10,2981_eid_s05_8-3-10_dog_10_n02108551_4505.JPEG
subject-05,3,422,1.07515406608582,boat,oven,2-0-10,2982_eid_s05_2-0-10_oven_10_n04111531_6783.JPEG
subject-05,3,423,0.883381843566895,oven,airplane,128-10-10,2983_eid_s05_128-10-10_airplane_10_n02690373_4452.JPEG
subject-05,3,424,0.744179010391235,cat,cat,1-3-10,2984_eid_s05_1-3-10_cat_10_n02123159_8251.JPEG
subject-05,3,425,0.682864189147949,bicycle,bicycle,4-3-10,2985_eid_s05_4-3-10_bicycle_10_n02835271_3215.JPEG
subject-05,3,426,1.21361303329468,dog,boat,32-3-10,2986_eid_s05_32-3-10_boat_10_n04612504_4378.JPEG
subject-05,3,427,0.606027841567993,boat,boat,8-0-10,2987_eid_s05_8-0-10_boat_10_n03344393_1480.JPEG
subject-05,3,428,0.806467056274414,airplane,airplane,2-0-10,2988_eid_s05_2-0-10_airplane_10_n02690373_12121.JPEG
subject-05,3,429,1.49614214897156,cat,dog,128-10-10,2989_eid_s05_128-10-10_dog_10_n02099601_4576.JPEG
subject-05,3,430,0.742495059967041,clock,bird,16-10-10,2990_eid_s05_16-10-10_bird_10_n02056570_8202.JPEG
subject-05,3,431,1.01572513580322,elephant,truck,16-3-10,2991_eid_s05_16-3-10_truck_10_n03417042_28832.JPEG
subject-05,3,432,0.799754858016968,airplane,airplane,8-10-10,2992_eid_s05_8-10-10_airplane_10_n02690373_4024.JPEG
subject-05,3,433,0.954569816589355,truck,truck,2-3-10,2993_eid_s05_2-3-10_truck_10_n03796401_2557.JPEG
subject-05,3,434,0.847011804580688,elephant,elephant,1-3-10,2994_eid_s05_1-3-10_elephant_10_n02504013_5147.JPEG
subject-05,3,435,0.630970001220703,cat,boat,32-0-10,2995_eid_s05_32-0-10_boat_10_n02951358_456.JPEG
subject-05,3,436,0.608577013015747,bear,bicycle,32-3-10,2996_eid_s05_32-3-10_bicycle_10_n02835271_19400.JPEG
subject-05,3,437,1.50027203559875,car,boat,64-0-10,2997_eid_s05_64-0-10_boat_10_n03662601_12886.JPEG
subject-05,3,438,0.806234121322632,bird,bottle,4-3-10,2998_eid_s05_4-3-10_bottle_10_n03983396_7378.JPEG
subject-05,3,439,0.706354856491089,knife,knife,4-10-10,2999_eid_s05_4-10-10_knife_10_n03041632_3717.JPEG
subject-05,3,440,0.958655118942261,bicycle,boat,16-10-10,3000_eid_s05_16-10-10_boat_10_n03662601_3696.JPEG
subject-05,3,441,0.529271841049194,cat,car,128-10-10,3001_eid_s05_128-10-10_car_10_n03100240_1153.JPEG
subject-05,3,442,1.26612901687622,dog,bottle,16-10-10,3002_eid_s05_16-10-10_bottle_10_n02823428_3560.JPEG
subject-05,3,443,0.866192102432251,bottle,truck,64-0-10,3003_eid_s05_64-0-10_truck_10_n03796401_17197.JPEG
subject-05,3,444,0.634156942367554,car,oven,4-10-10,3004_eid_s05_4-10-10_oven_10_n04111531_4574.JPEG
subject-05,3,445,0.772160053253174,dog,dog,4-10-10,3005_eid_s05_4-10-10_dog_10_n02113624_5198.JPEG
subject-05,3,446,0.485826969146729,boat,car,128-0-10,3006_eid_s05_128-0-10_car_10_n04285008_16557.JPEG
subject-05,3,447,0.778479099273682,bicycle,bicycle,2-0-10,3007_eid_s05_2-0-10_bicycle_10_n02835271_13689.JPEG
subject-05,3,448,0.787383794784546,bottle,bottle,2-10-10,3008_eid_s05_2-10-10_bottle_10_n04557648_10081.JPEG
subject-05,3,449,0.701531171798706,bear,bird,32-0-10,3009_eid_s05_32-0-10_bird_10_n01855672_37464.JPEG
subject-05,3,450,0.815171957015991,cat,airplane,8-3-10,3010_eid_s05_8-3-10_airplane_10_n02690373_2796.JPEG
subject-05,3,451,0.561870098114014,boat,bicycle,4-0-10,3011_eid_s05_4-0-10_bicycle_10_n03792782_374.JPEG
subject-05,3,452,0.552190065383911,bicycle,bicycle,128-3-10,3012_eid_s05_128-3-10_bicycle_10_n03792782_3481.JPEG
subject-05,3,453,0.575894117355347,boat,dog,32-10-10,3013_eid_s05_32-10-10_dog_10_n02095570_8323.JPEG
subject-05,3,454,0.690374135971069,car,bicycle,32-10-10,3014_eid_s05_32-10-10_bicycle_10_n02835271_1580.JPEG
subject-05,3,455,0.583584785461426,cat,bird,4-0-10,3015_eid_s05_4-0-10_bird_10_n02009912_6719.JPEG
subject-05,3,456,0.867716073989868,keyboard,keyboard,1-10-10,3016_eid_s05_1-10-10_keyboard_10_n03085013_24519.JPEG
subject-05,3,457,0.644322156906128,cat,cat,4-3-10,3017_eid_s05_4-3-10_cat_10_n02123597_8698.JPEG
subject-05,3,458,0.513144969940186,boat,bear,32-0-10,3018_eid_s05_32-0-10_bear_10_n02134084_11303.JPEG
subject-05,3,459,0.78173303604126,dog,dog,2-0-10,3019_eid_s05_2-0-10_dog_10_n02102318_5772.JPEG
subject-05,3,460,0.612069129943848,clock,bird,64-10-10,3020_eid_s05_64-10-10_bird_10_n01582220_2194.JPEG
subject-05,3,461,0.473654985427856,cat,bird,8-10-10,3021_eid_s05_8-10-10_bird_10_n01532829_13517.JPEG
subject-05,3,462,0.603549957275391,bear,knife,4-10-10,3022_eid_s05_4-10-10_knife_10_n03041632_14442.JPEG
subject-05,3,463,1.28589105606079,oven,oven,8-10-10,3023_eid_s05_8-10-10_oven_10_n04111531_12510.JPEG
subject-05,3,464,0.74846887588501,keyboard,keyboard,1-3-10,3024_eid_s05_1-3-10_keyboard_10_n03085013_20379.JPEG
subject-05,3,465,0.601186990737915,boat,car,64-10-10,3025_eid_s05_64-10-10_car_10_n02814533_725.JPEG
subject-05,3,466,0.555276155471802,car,chair,64-0-10,3026_eid_s05_64-0-10_chair_10_n04099969_9152.JPEG
subject-05,3,467,0.568927049636841,cat,oven,32-0-10,3027_eid_s05_32-0-10_oven_10_n04111531_16583.JPEG
subject-05,3,468,0.674771070480347,oven,oven,1-10-10,3028_eid_s05_1-10-10_oven_10_n04111531_9692.JPEG
subject-05,3,469,0.981353044509888,truck,truck,8-10-10,3029_eid_s05_8-10-10_truck_10_n03796401_8944.JPEG
subject-05,3,470,0.719933986663818,bird,bird,8-3-10,3030_eid_s05_8-3-10_bird_10_n02017213_14103.JPEG
subject-05,3,471,0.925775051116943,car,dog,32-3-10,3031_eid_s05_32-3-10_dog_10_n02109525_41457.JPEG
subject-05,3,472,0.872200965881348,bird,bird,4-10-10,3032_eid_s05_4-10-10_bird_10_n01860187_3075.JPEG
subject-05,3,473,0.688035011291504,boat,clock,64-0-10,3033_eid_s05_64-0-10_clock_10_n02708093_480.JPEG
subject-05,3,474,0.586493015289307,clock,clock,64-10-10,3034_eid_s05_64-10-10_clock_10_n02708093_2959.JPEG
subject-05,3,475,0.571061134338379,cat,cat,4-10-10,3035_eid_s05_4-10-10_cat_10_n02123394_797.JPEG
subject-05,3,476,0.547230958938599,boat,bicycle,8-3-10,3036_eid_s05_8-3-10_bicycle_10_n03792782_7802.JPEG
subject-05,3,477,0.477576017379761,cat,chair,16-3-10,3037_eid_s05_16-3-10_chair_10_n02791124_3117.JPEG
subject-05,3,478,0.862130880355835,keyboard,keyboard,4-0-10,3038_eid_s05_4-0-10_keyboard_10_n04505470_4655.JPEG
subject-05,3,479,0.984447956085205,oven,clock,16-3-10,3039_eid_s05_16-3-10_clock_10_n04548280_4524.JPEG
subject-05,3,480,0.877055883407593,bottle,oven,8-3-10,3040_eid_s05_8-3-10_oven_10_n04111531_7064.JPEG
subject-05,3,481,0.677704095840454,bottle,bottle,1-10-10,3041_eid_s05_1-10-10_bottle_10_n02823428_6095.JPEG
subject-05,3,482,0.899884939193726,truck,truck,2-0-10,3042_eid_s05_2-0-10_truck_10_n04467665_14623.JPEG
subject-05,3,483,0.738496065139771,bear,bear,4-3-10,3043_eid_s05_4-3-10_bear_10_n02133161_185.JPEG
subject-05,3,484,0.974776983261108,elephant,bear,16-10-10,3044_eid_s05_16-10-10_bear_10_n02133161_676.JPEG
subject-05,3,485,0.759149074554443,boat,bottle,128-10-10,3045_eid_s05_128-10-10_bottle_10_n03937543_1883.JPEG
subject-05,3,486,0.689799070358276,truck,truck,8-10-10,3046_eid_s05_8-10-10_truck_10_n03417042_2204.JPEG
subject-05,3,487,1.50033497810364,bear,bear,1-10-10,3047_eid_s05_1-10-10_bear_10_n02134084_4547.JPEG
subject-05,3,488,0.674785137176514,cat,chair,64-0-10,3048_eid_s05_64-0-10_chair_10_n03376595_15409.JPEG
subject-05,3,489,0.51335883140564,boat,truck,128-10-10,3049_eid_s05_128-10-10_truck_10_n03417042_11546.JPEG
subject-05,3,490,1.18167018890381,clock,clock,1-0-10,3050_eid_s05_1-0-10_clock_10_n04548280_670.JPEG
subject-05,3,491,1.01236891746521,chair,airplane,16-0-10,3051_eid_s05_16-0-10_airplane_10_n02690373_15411.JPEG
subject-05,3,492,0.777913093566895,bicycle,bicycle,1-3-10,3052_eid_s05_1-3-10_bicycle_10_n02835271_7326.JPEG
subject-05,3,493,0.740521907806396,cat,cat,1-10-10,3053_eid_s05_1-10-10_cat_10_n02123045_2431.JPEG
subject-05,3,494,1.01720213890076,dog,dog,1-3-10,3054_eid_s05_1-3-10_dog_10_n02085936_9058.JPEG
subject-05,3,495,0.72345495223999,car,car,2-0-10,3055_eid_s05_2-0-10_car_10_n04285008_11410.JPEG
subject-05,3,496,0.64018702507019,cat,airplane,32-10-10,3056_eid_s05_32-10-10_airplane_10_n02690373_6328.JPEG
subject-05,3,497,0.507768869400024,boat,car,64-3-10,3057_eid_s05_64-3-10_car_10_n04285008_12063.JPEG
subject-05,3,498,0.627553939819336,oven,oven,2-10-10,3058_eid_s05_2-10-10_oven_10_n04111531_5171.JPEG
subject-05,3,499,0.673353910446167,knife,knife,2-10-10,3059_eid_s05_2-10-10_knife_10_n03041632_19620.JPEG
subject-05,3,500,0.895894050598145,bicycle,bicycle,2-0-10,3060_eid_s05_2-0-10_bicycle_10_n02835271_22334.JPEG
subject-05,3,501,1.05699896812439,dog,bicycle,64-0-10,3061_eid_s05_64-0-10_bicycle_10_n02835271_5437.JPEG
subject-05,3,502,0.557351112365723,cat,bear,16-3-10,3062_eid_s05_16-3-10_bear_10_n02134084_15018.JPEG
subject-05,3,503,0.587284803390503,cat,cat,16-10-10,3063_eid_s05_16-10-10_cat_10_n02123045_11572.JPEG
subject-05,3,504,0.523500919342041,cat,dog,128-3-10,3064_eid_s05_128-3-10_dog_10_n02104365_6174.JPEG
subject-05,3,505,0.815670967102051,oven,oven,2-10-10,3065_eid_s05_2-10-10_oven_10_n04111531_20914.JPEG
subject-05,3,506,1.3440899848938,truck,truck,2-10-10,3066_eid_s05_2-10-10_truck_10_n03796401_2934.JPEG
subject-05,3,507,0.843784093856812,boat,bottle,8-0-10,3067_eid_s05_8-0-10_bottle_10_n03983396_114.JPEG
subject-05,3,508,0.944512128829956,cat,truck,64-10-10,3068_eid_s05_64-10-10_truck_10_n04467665_66613.JPEG
subject-05,3,509,0.867372035980225,bottle,bottle,128-10-10,3069_eid_s05_128-10-10_bottle_10_n04557648_10340.JPEG
subject-05,3,510,0.681679010391235,cat,keyboard,1-3-10,3070_eid_s05_1-3-10_keyboard_10_n03085013_23213.JPEG
subject-05,3,511,0.735749959945679,bear,bear,2-0-10,3071_eid_s05_2-0-10_bear_10_n02132136_22550.JPEG
subject-05,3,512,0.704272031784058,oven,dog,128-3-10,3072_eid_s05_128-3-10_dog_10_n02100583_5122.JPEG
subject-05,3,513,0.602828025817871,keyboard,keyboard,2-0-10,3073_eid_s05_2-0-10_keyboard_10_n03085013_24265.JPEG
subject-05,3,514,0.695204973220825,cat,knife,128-10-10,3074_eid_s05_128-10-10_knife_10_n03041632_23667.JPEG
subject-05,3,515,0.46855092048645,bicycle,bicycle,1-0-10,3075_eid_s05_1-0-10_bicycle_10_n03792782_3815.JPEG
subject-05,3,516,0.831216096878052,knife,knife,4-0-10,3076_eid_s05_4-0-10_knife_10_n03041632_4590.JPEG
subject-05,3,517,0.807381153106689,oven,oven,1-3-10,3077_eid_s05_1-3-10_oven_10_n04111531_12408.JPEG
subject-05,3,518,0.659757137298584,chair,chair,4-3-10,3078_eid_s05_4-3-10_chair_10_n02791124_6284.JPEG
subject-05,3,519,0.519630908966064,boat,truck,128-0-10,3079_eid_s05_128-0-10_truck_10_n03417042_22196.JPEG
subject-05,3,520,0.443954944610596,clock,knife,64-10-10,3080_eid_s05_64-10-10_knife_10_n03041632_56436.JPEG
subject-05,3,521,0.450554132461548,bear,bear,32-0-10,3081_eid_s05_32-0-10_bear_10_n02134084_15296.JPEG
subject-05,3,522,0.604964971542358,bear,bear,2-10-10,3082_eid_s05_2-10-10_bear_10_n02132136_17346.JPEG
subject-05,3,523,0.62797999382019,boat,bear,64-10-10,3083_eid_s05_64-10-10_bear_10_n02132136_28791.JPEG
subject-05,3,524,0.541891098022461,clock,dog,64-3-10,3084_eid_s05_64-3-10_dog_10_n02092339_3479.JPEG
subject-05,3,525,0.458252191543579,cat,bird,64-10-10,3085_eid_s05_64-10-10_bird_10_n02009229_5484.JPEG
subject-05,3,526,0.740754127502441,bird,bird,2-10-10,3086_eid_s05_2-10-10_bird_10_n02037110_8609.JPEG
subject-05,3,527,1.36286497116089,elephant,elephant,2-10-10,3087_eid_s05_2-10-10_elephant_10_n02504013_3708.JPEG
subject-05,3,528,0.655792951583862,car,dog,32-0-10,3088_eid_s05_32-0-10_dog_10_n02107312_7758.JPEG
subject-05,3,529,0.534443855285645,bear,knife,64-3-10,3089_eid_s05_64-3-10_knife_10_n03041632_7090.JPEG
subject-05,3,530,0.777490139007568,oven,bear,8-0-10,3090_eid_s05_8-0-10_bear_10_n02133161_5214.JPEG
subject-05,3,531,0.646708965301514,cat,cat,1-10-10,3091_eid_s05_1-10-10_cat_10_n02124075_15943.JPEG
subject-05,3,532,0.775829076766968,airplane,airplane,2-10-10,3092_eid_s05_2-10-10_airplane_10_n02690373_3150.JPEG
subject-05,3,533,0.744123935699463,bird,bird,1-0-10,3093_eid_s05_1-0-10_bird_10_n02009229_5736.JPEG
subject-05,3,534,0.942543983459473,chair,chair,1-3-10,3094_eid_s05_1-3-10_chair_10_n03376595_4084.JPEG
subject-05,3,535,0.63530707359314,cat,dog,8-0-10,3095_eid_s05_8-0-10_dog_10_n02099849_2483.JPEG
subject-05,3,536,0.589976072311401,boat,cat,128-3-10,3096_eid_s05_128-3-10_cat_10_n02124075_14693.JPEG
subject-05,3,537,0.736218929290771,bird,bird,2-0-10,3097_eid_s05_2-0-10_bird_10_n01817953_3718.JPEG
subject-05,3,538,0.496939182281494,boat,bird,64-0-10,3098_eid_s05_64-0-10_bird_10_n02009229_4387.JPEG
subject-05,3,539,0.689194917678833,cat,truck,64-10-10,3099_eid_s05_64-10-10_truck_10_n04467665_68821.JPEG
subject-05,3,540,0.741955995559692,bear,bear,8-10-10,3100_eid_s05_8-10-10_bear_10_n02134418_1575.JPEG
subject-05,3,541,0.488622903823853,cat,cat,64-3-10,3101_eid_s05_64-3-10_cat_10_n02123045_6741.JPEG
subject-05,3,542,0.926750183105469,clock,keyboard,4-0-10,3102_eid_s05_4-0-10_keyboard_10_n04505470_788.JPEG
subject-05,3,543,0.764924049377441,car,car,8-0-10,3103_eid_s05_8-0-10_car_10_n02814533_43694.JPEG
subject-05,3,544,0.625593900680542,cat,keyboard,16-3-10,3104_eid_s05_16-3-10_keyboard_10_n03085013_23221.JPEG
subject-05,3,545,0.856106042861938,bear,bear,16-10-10,3105_eid_s05_16-10-10_bear_10_n02133161_128.JPEG
subject-05,3,546,0.786545991897583,car,truck,4-3-10,3106_eid_s05_4-3-10_truck_10_n03796401_3012.JPEG
subject-05,3,547,0.616712093353271,cat,chair,32-0-10,3107_eid_s05_32-0-10_chair_10_n04429376_5789.JPEG
subject-05,3,548,0.655411005020142,airplane,airplane,2-0-10,3108_eid_s05_2-0-10_airplane_10_n02690373_4763.JPEG
subject-05,3,549,0.637841939926147,oven,bottle,64-0-10,3109_eid_s05_64-0-10_bottle_10_n04560804_15276.JPEG
subject-05,3,550,0.608509063720703,clock,clock,32-0-10,3110_eid_s05_32-0-10_clock_10_n04548280_4302.JPEG
subject-05,3,551,0.639137983322144,cat,keyboard,16-0-10,3111_eid_s05_16-0-10_keyboard_10_n03085013_14810.JPEG
subject-05,3,552,1.13786506652832,keyboard,airplane,32-3-10,3112_eid_s05_32-3-10_airplane_10_n02690373_1996.JPEG
subject-05,3,553,1.06852102279663,bicycle,knife,128-0-10,3113_eid_s05_128-0-10_knife_10_n03041632_84869.JPEG
subject-05,3,554,0.744349002838135,chair,bird,16-10-10,3114_eid_s05_16-10-10_bird_10_n01824575_2118.JPEG
subject-05,3,555,0.874801874160767,bottle,bottle,4-3-10,3115_eid_s05_4-3-10_bottle_10_n04557648_12674.JPEG
subject-05,3,556,0.697374105453491,bird,boat,32-0-10,3116_eid_s05_32-0-10_boat_10_n04612504_6824.JPEG
subject-05,3,557,0.828073024749756,bear,bird,64-0-10,3117_eid_s05_64-0-10_bird_10_n02033041_3919.JPEG
subject-05,3,558,0.9497230052948,cat,oven,1-10-10,3118_eid_s05_1-10-10_oven_10_n04111531_8959.JPEG
subject-05,3,559,0.639817953109741,boat,keyboard,32-10-10,3119_eid_s05_32-10-10_keyboard_10_n03085013_2169.JPEG
subject-05,3,560,0.572371959686279,clock,clock,4-0-10,3120_eid_s05_4-0-10_clock_10_n02708093_3645.JPEG
subject-05,3,561,0.678977012634277,cat,truck,16-0-10,3121_eid_s05_16-0-10_truck_10_n03796401_12844.JPEG
subject-05,3,562,1.03957104682922,truck,truck,8-10-10,3122_eid_s05_8-10-10_truck_10_n03417042_23953.JPEG
subject-05,3,563,1.03158116340637,car,bicycle,16-10-10,3123_eid_s05_16-10-10_bicycle_10_n03792782_14156.JPEG
subject-05,3,564,0.713571071624756,cat,elephant,128-0-10,3124_eid_s05_128-0-10_elephant_10_n02504013_1125.JPEG
subject-05,3,565,0.546238899230957,oven,knife,128-3-10,3125_eid_s05_128-3-10_knife_10_n03041632_56217.JPEG
subject-05,3,566,0.628692865371704,keyboard,cat,64-10-10,3126_eid_s05_64-10-10_cat_10_n02125311_20861.JPEG
subject-05,3,567,0.697067022323608,chair,elephant,1-10-10,3127_eid_s05_1-10-10_elephant_10_n02504458_1790.JPEG
subject-05,3,568,0.588932991027832,bird,clock,128-0-10,3128_eid_s05_128-0-10_clock_10_n03196217_8139.JPEG
subject-05,3,569,0.695600032806396,knife,knife,8-10-10,3129_eid_s05_8-10-10_knife_10_n03041632_51581.JPEG
subject-05,3,570,0.557226896286011,boat,dog,16-3-10,3130_eid_s05_16-3-10_dog_10_n02111500_6293.JPEG
subject-05,3,571,0.63170599937439,bicycle,bottle,64-3-10,3131_eid_s05_64-3-10_bottle_10_n02823428_4045.JPEG
subject-05,3,572,1.19977903366089,bird,bird,1-10-10,3132_eid_s05_1-10-10_bird_10_n02018795_1927.JPEG
subject-05,3,573,0.59952187538147,cat,cat,8-3-10,3133_eid_s05_8-3-10_cat_10_n02123045_8605.JPEG
subject-05,3,574,0.982011079788208,bear,airplane,128-3-10,3134_eid_s05_128-3-10_airplane_10_n02690373_5779.JPEG
subject-05,3,575,0.682356119155884,car,car,2-0-10,3135_eid_s05_2-0-10_car_10_n04285008_4770.JPEG
subject-05,3,576,0.780783176422119,boat,keyboard,4-0-10,3136_eid_s05_4-0-10_keyboard_10_n04505470_4895.JPEG
subject-05,3,577,0.548271894454956,boat,boat,1-10-10,3137_eid_s05_1-10-10_boat_10_n04612504_39699.JPEG
subject-05,3,578,0.694478988647461,bear,bear,128-0-10,3138_eid_s05_128-0-10_bear_10_n02133161_13375.JPEG
subject-05,3,579,0.546788930892944,boat,boat,2-0-10,3139_eid_s05_2-0-10_boat_10_n04612504_15844.JPEG
subject-05,3,580,0.531247854232788,cat,cat,64-0-10,3140_eid_s05_64-0-10_cat_10_n02123159_3345.JPEG
subject-05,3,581,0.883903026580811,elephant,elephant,4-0-10,3141_eid_s05_4-0-10_elephant_10_n02504458_2417.JPEG
subject-05,3,582,0.713780164718628,keyboard,keyboard,4-10-10,3142_eid_s05_4-10-10_keyboard_10_n03085013_10035.JPEG
subject-05,3,583,0.782577991485596,elephant,elephant,4-3-10,3143_eid_s05_4-3-10_elephant_10_n02504458_7098.JPEG
subject-05,3,584,0.566762924194336,clock,bottle,64-0-10,3144_eid_s05_64-0-10_bottle_10_n03983396_4407.JPEG
subject-05,3,585,0.613376140594482,oven,knife,2-0-10,3145_eid_s05_2-0-10_knife_10_n03041632_22964.JPEG
subject-05,3,586,0.503952980041504,boat,elephant,64-0-10,3146_eid_s05_64-0-10_elephant_10_n02504013_19831.JPEG
subject-05,3,587,0.633967161178589,bicycle,bicycle,1-3-10,3147_eid_s05_1-3-10_bicycle_10_n03792782_57990.JPEG
subject-05,3,588,0.734836101531982,car,truck,2-10-10,3148_eid_s05_2-10-10_truck_10_n03417042_3350.JPEG
subject-05,3,589,0.77910590171814,bear,bear,16-10-10,3149_eid_s05_16-10-10_bear_10_n02132136_1661.JPEG
subject-05,3,590,0.893171072006226,bear,bear,16-0-10,3150_eid_s05_16-0-10_bear_10_n02133161_11371.JPEG
subject-05,3,591,0.768983125686646,keyboard,keyboard,2-3-10,3151_eid_s05_2-3-10_keyboard_10_n03085013_24115.JPEG
subject-05,3,592,0.569516897201538,cat,cat,1-0-10,3152_eid_s05_1-0-10_cat_10_n02123045_6318.JPEG
subject-05,3,593,0.554038047790527,clock,clock,4-10-10,3153_eid_s05_4-10-10_clock_10_n04548280_9426.JPEG
subject-05,3,594,0.630495071411133,oven,truck,64-0-10,3154_eid_s05_64-0-10_truck_10_n03796401_22911.JPEG
subject-05,3,595,0.815032005310059,chair,bottle,32-10-10,3155_eid_s05_32-10-10_bottle_10_n04560804_15537.JPEG
subject-05,3,596,0.621562957763672,airplane,airplane,2-3-10,3156_eid_s05_2-3-10_airplane_10_n02690373_9680.JPEG
subject-05,3,597,0.581280946731567,boat,dog,2-3-10,3157_eid_s05_2-3-10_dog_10_n02099429_4843.JPEG
subject-05,3,598,1.29512596130371,car,car,2-10-10,3158_eid_s05_2-10-10_car_10_n03100240_17973.JPEG
subject-05,3,599,0.58313512802124,boat,boat,128-3-10,3159_eid_s05_128-3-10_boat_10_n04273569_2109.JPEG
subject-05,3,600,1.29772806167603,chair,chair,1-0-10,3160_eid_s05_1-0-10_chair_10_n03376595_2153.JPEG
subject-05,3,601,0.566418886184692,clock,chair,32-10-10,3161_eid_s05_32-10-10_chair_10_n04099969_15645.JPEG
subject-05,3,602,0.612978935241699,oven,cat,64-0-10,3162_eid_s05_64-0-10_cat_10_n02125311_22459.JPEG
subject-05,3,603,1.09740281105042,bottle,bottle,4-0-10,3163_eid_s05_4-0-10_bottle_10_n04557648_163.JPEG
subject-05,3,604,1.34215617179871,dog,dog,1-3-10,3164_eid_s05_1-3-10_dog_10_n02113023_2261.JPEG
subject-05,3,605,1.46355700492859,elephant,elephant,16-3-10,3165_eid_s05_16-3-10_elephant_10_n02504458_1716.JPEG
subject-05,3,606,0.655831098556519,bird,bird,1-0-10,3166_eid_s05_1-0-10_bird_10_n02009912_1073.JPEG
subject-05,3,607,0.832135915756226,dog,dog,2-3-10,3167_eid_s05_2-3-10_dog_10_n02102040_3263.JPEG
subject-05,3,608,0.492560148239136,boat,bicycle,128-3-10,3168_eid_s05_128-3-10_bicycle_10_n03792782_9822.JPEG
subject-05,3,609,0.439471006393433,cat,oven,128-3-10,3169_eid_s05_128-3-10_oven_10_n04111531_14766.JPEG
subject-05,3,610,0.87565803527832,car,truck,4-0-10,3170_eid_s05_4-0-10_truck_10_n03417042_5895.JPEG
subject-05,3,611,0.884018898010254,car,car,1-0-10,3171_eid_s05_1-0-10_car_10_n03100240_7883.JPEG
subject-05,3,612,0.706400156021118,cat,cat,4-0-10,3172_eid_s05_4-0-10_cat_10_n02124075_1999.JPEG
subject-05,3,613,1.23702812194824,oven,oven,2-3-10,3173_eid_s05_2-3-10_oven_10_n04111531_46651.JPEG
subject-05,3,614,0.53473687171936,boat,cat,128-10-10,3174_eid_s05_128-10-10_cat_10_n02125311_11098.JPEG
subject-05,3,615,0.426741123199463,cat,chair,16-0-10,3175_eid_s05_16-0-10_chair_10_n02791124_7156.JPEG
subject-05,3,616,0.377843141555786,cat,car,128-3-10,3176_eid_s05_128-3-10_car_10_n03100240_23060.JPEG
subject-05,3,617,1.36036396026611,oven,clock,16-10-10,3177_eid_s05_16-10-10_clock_10_n04548280_1039.JPEG
subject-05,3,618,0.65520715713501,chair,chair,8-10-10,3178_eid_s05_8-10-10_chair_10_n03376595_8024.JPEG
subject-05,3,619,1.10764694213867,truck,truck,1-3-10,3179_eid_s05_1-3-10_truck_10_n03417042_28702.JPEG
subject-05,3,620,0.869053840637207,car,oven,8-3-10,3180_eid_s05_8-3-10_oven_10_n04111531_6346.JPEG
subject-05,3,621,0.599069833755493,cat,oven,64-0-10,3181_eid_s05_64-0-10_oven_10_n04111531_8398.JPEG
subject-05,3,622,0.991690874099731,bear,boat,64-3-10,3182_eid_s05_64-3-10_boat_10_n02951358_1045.JPEG
subject-05,3,623,1.23598194122314,airplane,boat,64-3-10,3183_eid_s05_64-3-10_boat_10_n03662601_8059.JPEG
subject-05,3,624,0.94464898109436,keyboard,keyboard,4-0-10,3184_eid_s05_4-0-10_keyboard_10_n04505470_2038.JPEG
subject-05,3,625,0.713065147399902,keyboard,keyboard,4-3-10,3185_eid_s05_4-3-10_keyboard_10_n04505470_1540.JPEG
subject-05,3,626,0.781278133392334,bicycle,bicycle,2-3-10,3186_eid_s05_2-3-10_bicycle_10_n03792782_19840.JPEG
subject-05,3,627,0.573730945587158,boat,chair,16-3-10,3187_eid_s05_16-3-10_chair_10_n04429376_7892.JPEG
subject-05,3,628,0.904338121414185,elephant,elephant,32-10-10,3188_eid_s05_32-10-10_elephant_10_n02504013_1785.JPEG
subject-05,3,629,0.886734008789062,car,knife,64-0-10,3189_eid_s05_64-0-10_knife_10_n03041632_96714.JPEG
subject-05,3,630,0.819402933120728,knife,knife,2-3-10,3190_eid_s05_2-3-10_knife_10_n03041632_101673.JPEG
subject-05,3,631,0.642017126083374,clock,clock,1-10-10,3191_eid_s05_1-10-10_clock_10_n04548280_7135.JPEG
subject-05,3,632,0.556276798248291,cat,bicycle,16-0-10,3192_eid_s05_16-0-10_bicycle_10_n02835271_8654.JPEG
subject-05,3,633,0.948915004730225,oven,dog,32-10-10,3193_eid_s05_32-10-10_dog_10_n02104029_5827.JPEG
subject-05,3,634,0.59278392791748,cat,chair,8-3-10,3194_eid_s05_8-3-10_chair_10_n02791124_2088.JPEG
subject-05,3,635,0.709780931472778,boat,boat,4-0-10,3195_eid_s05_4-0-10_boat_10_n02951358_10197.JPEG
subject-05,3,636,0.732481002807617,bear,dog,64-0-10,3196_eid_s05_64-0-10_dog_10_n02102177_8836.JPEG
subject-05,3,637,0.622241973876953,boat,car,16-10-10,3197_eid_s05_16-10-10_car_10_n02814533_37482.JPEG
subject-05,3,638,0.528026103973389,cat,elephant,1-0-10,3198_eid_s05_1-0-10_elephant_10_n02504458_7814.JPEG
subject-05,3,639,0.619631052017212,oven,car,128-10-10,3199_eid_s05_128-10-10_car_10_n02814533_35102.JPEG
subject-05,3,640,1.10236001014709,chair,chair,2-0-10,3200_eid_s05_2-0-10_chair_10_n04099969_2335.JPEG
subject-05,3,641,1.16473007202148,airplane,clock,64-3-10,3201_eid_s05_64-3-10_clock_10_n04548280_7370.JPEG
subject-05,3,642,NaN,na,airplane,1-3-10,3202_eid_s05_1-3-10_airplane_10_n02690373_1781.JPEG
subject-05,3,643,0.563482999801636,boat,elephant,64-0-10,3203_eid_s05_64-0-10_elephant_10_n02504458_5436.JPEG
subject-05,3,644,0.648218870162964,cat,keyboard,32-3-10,3204_eid_s05_32-3-10_keyboard_10_n03085013_24439.JPEG
subject-05,3,645,0.98383092880249,car,bottle,32-0-10,3205_eid_s05_32-0-10_bottle_10_n03983396_2499.JPEG
subject-05,3,646,0.752480983734131,cat,car,8-3-10,3206_eid_s05_8-3-10_car_10_n02814533_76817.JPEG
subject-05,3,647,0.935566186904907,bear,dog,128-10-10,3207_eid_s05_128-10-10_dog_10_n02104365_9556.JPEG
subject-05,3,648,0.812328100204468,bear,bear,1-10-10,3208_eid_s05_1-10-10_bear_10_n02132136_7586.JPEG
subject-05,3,649,0.614897012710571,bicycle,bicycle,1-10-10,3209_eid_s05_1-10-10_bicycle_10_n03792782_42795.JPEG
subject-05,3,650,0.791486024856567,boat,boat,128-0-10,3210_eid_s05_128-0-10_boat_10_n04612504_15869.JPEG
subject-05,3,651,0.95167088508606,car,bottle,128-10-10,3211_eid_s05_128-10-10_bottle_10_n03937543_964.JPEG
subject-05,3,652,0.997975826263428,car,car,1-3-10,3212_eid_s05_1-3-10_car_10_n04285008_4782.JPEG
subject-05,3,653,0.97186803817749,truck,car,16-0-10,3213_eid_s05_16-0-10_car_10_n03100240_499.JPEG
subject-05,3,654,0.626351833343506,cat,cat,1-10-10,3214_eid_s05_1-10-10_cat_10_n02123159_4973.JPEG
subject-05,3,655,0.580843210220337,bicycle,bicycle,4-10-10,3215_eid_s05_4-10-10_bicycle_10_n02835271_7813.JPEG
subject-05,3,656,1.14901304244995,oven,boat,4-10-10,3216_eid_s05_4-10-10_boat_10_n02951358_11521.JPEG
subject-05,3,657,1.44521307945251,elephant,elephant,4-3-10,3217_eid_s05_4-3-10_elephant_10_n02504458_3250.JPEG
subject-05,3,658,0.777556896209717,bicycle,bicycle,4-0-10,3218_eid_s05_4-0-10_bicycle_10_n03792782_16977.JPEG
subject-05,3,659,NaN,na,bottle,2-0-10,3219_eid_s05_2-0-10_bottle_10_n04560804_1221.JPEG
subject-05,3,660,0.698527097702026,cat,bicycle,16-10-10,3220_eid_s05_16-10-10_bicycle_10_n03792782_4797.JPEG
subject-05,3,661,1.12111616134644,chair,chair,4-3-10,3221_eid_s05_4-3-10_chair_10_n02791124_3431.JPEG
subject-05,3,662,0.905309915542603,clock,oven,8-3-10,3222_eid_s05_8-3-10_oven_10_n04111531_22327.JPEG
subject-05,3,663,1.08185315132141,dog,dog,4-3-10,3223_eid_s05_4-3-10_dog_10_n02097047_2377.JPEG
subject-05,3,664,0.642035007476807,boat,bear,64-0-10,3224_eid_s05_64-0-10_bear_10_n02133161_3570.JPEG
subject-05,3,665,0.5802001953125,cat,bear,64-0-10,3225_eid_s05_64-0-10_bear_10_n02133161_463.JPEG
subject-05,3,666,0.748614072799683,cat,chair,2-0-10,3226_eid_s05_2-0-10_chair_10_n03376595_10235.JPEG
subject-05,3,667,0.517191886901855,cat,dog,32-0-10,3227_eid_s05_32-0-10_dog_10_n02109961_4670.JPEG
subject-05,3,668,0.653311014175415,bird,bird,2-10-10,3228_eid_s05_2-10-10_bird_10_n01798484_1694.JPEG
subject-05,3,669,0.730285882949829,boat,boat,8-0-10,3229_eid_s05_8-0-10_boat_10_n04612504_582.JPEG
subject-05,3,670,0.884769916534424,oven,oven,4-10-10,3230_eid_s05_4-10-10_oven_10_n04111531_6479.JPEG
subject-05,3,671,0.77479100227356,cat,bear,64-10-10,3231_eid_s05_64-10-10_bear_10_n02132136_2029.JPEG
subject-05,3,672,0.567432880401611,bicycle,knife,16-3-10,3232_eid_s05_16-3-10_knife_10_n03041632_42887.JPEG
subject-05,3,673,0.514503002166748,cat,cat,2-0-10,3233_eid_s05_2-0-10_cat_10_n02123159_2559.JPEG
subject-05,3,674,0.728671073913574,boat,bird,16-0-10,3234_eid_s05_16-0-10_bird_10_n02011460_18962.JPEG
subject-05,3,675,0.859717130661011,truck,truck,1-0-10,3235_eid_s05_1-0-10_truck_10_n03417042_8581.JPEG
subject-05,3,676,0.601583003997803,cat,keyboard,128-0-10,3236_eid_s05_128-0-10_keyboard_10_n04505470_7686.JPEG
subject-05,3,677,0.699802875518799,boat,dog,16-0-10,3237_eid_s05_16-0-10_dog_10_n02112018_3917.JPEG
subject-05,3,678,0.772820949554443,oven,bottle,64-3-10,3238_eid_s05_64-3-10_bottle_10_n02823428_3694.JPEG
subject-05,3,679,0.565103054046631,cat,bottle,32-10-10,3239_eid_s05_32-10-10_bottle_10_n03983396_8730.JPEG
subject-05,3,680,1.34726881980896,chair,chair,1-0-10,3240_eid_s05_1-0-10_chair_10_n02791124_5685.JPEG
subject-05,3,681,0.802079916000366,car,oven,2-3-10,3241_eid_s05_2-3-10_oven_10_n04111531_7452.JPEG
subject-05,3,682,0.854503870010376,cat,knife,32-3-10,3242_eid_s05_32-3-10_knife_10_n03041632_48062.JPEG
subject-05,3,683,0.901023149490356,cat,bottle,16-3-10,3243_eid_s05_16-3-10_bottle_10_n04557648_10906.JPEG
subject-05,3,684,1.1913321018219,bear,bear,16-10-10,3244_eid_s05_16-10-10_bear_10_n02132136_1926.JPEG
subject-05,3,685,0.89983606338501,dog,dog,4-3-10,3245_eid_s05_4-3-10_dog_10_n02101388_6229.JPEG
subject-05,3,686,0.905500173568726,knife,knife,4-3-10,3246_eid_s05_4-3-10_knife_10_n03041632_39836.JPEG
subject-05,3,687,0.776296138763428,oven,bear,8-0-10,3247_eid_s05_8-0-10_bear_10_n02134084_20577.JPEG
subject-05,3,688,0.745131015777588,bottle,bottle,4-3-10,3248_eid_s05_4-3-10_bottle_10_n04557648_218.JPEG
subject-05,3,689,0.621370077133179,cat,knife,32-0-10,3249_eid_s05_32-0-10_knife_10_n03041632_22734.JPEG
subject-05,3,690,0.905802965164185,bottle,keyboard,8-0-10,3250_eid_s05_8-0-10_keyboard_10_n04505470_5088.JPEG
subject-05,3,691,0.996255874633789,bear,oven,64-0-10,3251_eid_s05_64-0-10_oven_10_n04111531_9822.JPEG
subject-05,3,692,0.718770980834961,cat,knife,128-3-10,3252_eid_s05_128-3-10_knife_10_n03041632_39342.JPEG
subject-05,3,693,0.635114908218384,oven,chair,128-3-10,3253_eid_s05_128-3-10_chair_10_n04429376_14863.JPEG
subject-05,3,694,0.649488925933838,clock,chair,32-3-10,3254_eid_s05_32-3-10_chair_10_n02791124_1456.JPEG
subject-05,3,695,0.688210010528564,bicycle,car,32-10-10,3255_eid_s05_32-10-10_car_10_n03100240_7961.JPEG
subject-05,3,696,0.68667197227478,boat,truck,8-3-10,3256_eid_s05_8-3-10_truck_10_n03417042_12169.JPEG
subject-05,3,697,0.717204809188843,car,boat,1-0-10,3257_eid_s05_1-0-10_boat_10_n03344393_8611.JPEG
subject-05,3,698,0.955632925033569,bear,chair,1-0-10,3258_eid_s05_1-0-10_chair_10_n03376595_25.JPEG
subject-05,3,699,1.02427983283997,truck,truck,32-3-10,3259_eid_s05_32-3-10_truck_10_n03417042_18705.JPEG
subject-05,3,700,0.832679986953735,elephant,elephant,1-0-10,3260_eid_s05_1-0-10_elephant_10_n02504458_2662.JPEG
subject-05,3,701,1.13914489746094,clock,clock,2-0-10,3261_eid_s05_2-0-10_clock_10_n02708093_1052.JPEG
subject-05,3,702,0.615652799606323,cat,truck,32-0-10,3262_eid_s05_32-0-10_truck_10_n04467665_26266.JPEG
subject-05,3,703,0.553930044174194,boat,boat,8-3-10,3263_eid_s05_8-3-10_boat_10_n02951358_11867.JPEG
subject-05,3,704,1.29857301712036,bird,bird,1-0-10,3264_eid_s05_1-0-10_bird_10_n02033041_4993.JPEG
subject-05,3,705,0.545105934143066,boat,chair,128-3-10,3265_eid_s05_128-3-10_chair_10_n02791124_2536.JPEG
subject-05,3,706,0.559170961380005,bottle,bottle,1-0-10,3266_eid_s05_1-0-10_bottle_10_n04557648_4490.JPEG
subject-05,3,707,1.03586196899414,boat,boat,4-0-10,3267_eid_s05_4-0-10_boat_10_n04612504_3286.JPEG
subject-05,3,708,0.87440013885498,bicycle,bicycle,1-3-10,3268_eid_s05_1-3-10_bicycle_10_n02835271_3246.JPEG
subject-05,3,709,0.665307998657227,oven,boat,32-0-10,3269_eid_s05_32-0-10_boat_10_n02951358_29729.JPEG
subject-05,3,710,0.641333103179932,cat,bottle,128-10-10,3270_eid_s05_128-10-10_bottle_10_n04579145_1061.JPEG
subject-05,3,711,0.863599061965942,keyboard,keyboard,2-0-10,3271_eid_s05_2-0-10_keyboard_10_n03085013_20594.JPEG
subject-05,3,712,0.856358051300049,oven,bicycle,32-3-10,3272_eid_s05_32-3-10_bicycle_10_n02835271_20062.JPEG
subject-05,3,713,0.602861166000366,keyboard,keyboard,4-10-10,3273_eid_s05_4-10-10_keyboard_10_n03085013_24087.JPEG
subject-05,3,714,0.57921314239502,cat,clock,16-3-10,3274_eid_s05_16-3-10_clock_10_n03196217_11624.JPEG
subject-05,3,715,NaN,na,cat,1-0-10,3275_eid_s05_1-0-10_cat_10_n02123597_7656.JPEG
subject-05,3,716,1.50021696090698,cat,bottle,32-0-10,3276_eid_s05_32-0-10_bottle_10_n04579145_6400.JPEG
subject-05,3,717,0.698479890823364,cat,knife,16-0-10,3277_eid_s05_16-0-10_knife_10_n03041632_24384.JPEG
subject-05,3,718,0.699311017990112,oven,oven,2-0-10,3278_eid_s05_2-0-10_oven_10_n04111531_8082.JPEG
subject-05,3,719,0.937602996826172,bear,bear,1-3-10,3279_eid_s05_1-3-10_bear_10_n02134418_260.JPEG
subject-05,3,720,0.59803295135498,cat,bird,16-0-10,3280_eid_s05_16-0-10_bird_10_n02006656_4042.JPEG
subject-05,3,721,0.698623895645142,cat,knife,8-3-10,3281_eid_s05_8-3-10_knife_10_n03041632_6557.JPEG
subject-05,3,722,0.745362043380737,boat,airplane,128-10-10,3282_eid_s05_128-10-10_airplane_10_n02690373_5422.JPEG
subject-05,3,723,0.927628040313721,chair,chair,1-10-10,3283_eid_s05_1-10-10_chair_10_n04099969_3699.JPEG
subject-05,3,724,1.11216187477112,dog,elephant,1-10-10,3284_eid_s05_1-10-10_elephant_10_n02504013_26878.JPEG
subject-05,3,725,1.15880799293518,cat,truck,8-0-10,3285_eid_s05_8-0-10_truck_10_n03417042_17215.JPEG
subject-05,3,726,0.927769899368286,clock,knife,16-10-10,3286_eid_s05_16-10-10_knife_10_n03041632_52702.JPEG
subject-05,3,727,0.866392135620117,dog,keyboard,16-0-10,3287_eid_s05_16-0-10_keyboard_10_n04505470_3666.JPEG
subject-05,3,728,0.55656886100769,clock,clock,8-10-10,3288_eid_s05_8-10-10_clock_10_n02708093_5126.JPEG
subject-05,3,729,0.918972969055176,boat,truck,64-0-10,3289_eid_s05_64-0-10_truck_10_n03417042_22.JPEG
subject-05,3,730,0.633129835128784,boat,oven,8-3-10,3290_eid_s05_8-3-10_oven_10_n04111531_5038.JPEG
subject-05,3,731,1.1235978603363,cat,dog,128-0-10,3291_eid_s05_128-0-10_dog_10_n02102318_6950.JPEG
subject-05,3,732,0.631724834442139,boat,bird,8-0-10,3292_eid_s05_8-0-10_bird_10_n02018207_16576.JPEG
subject-05,3,733,1.32688307762146,airplane,airplane,2-3-10,3293_eid_s05_2-3-10_airplane_10_n02690373_17731.JPEG
subject-05,3,734,0.589614868164062,boat,clock,32-3-10,3294_eid_s05_32-3-10_clock_10_n04548280_10066.JPEG
subject-05,3,735,1.32622003555298,oven,clock,32-0-10,3295_eid_s05_32-0-10_clock_10_n02708093_1134.JPEG
subject-05,3,736,0.679811000823975,bird,bird,16-10-10,3296_eid_s05_16-10-10_bird_10_n02051845_2710.JPEG
subject-05,3,737,0.694200038909912,boat,bicycle,16-0-10,3297_eid_s05_16-0-10_bicycle_10_n03792782_11868.JPEG
subject-05,3,738,0.624486923217773,keyboard,keyboard,1-10-10,3298_eid_s05_1-10-10_keyboard_10_n03085013_3666.JPEG
subject-05,3,739,0.561112880706787,cat,car,128-3-10,3299_eid_s05_128-3-10_car_10_n04285008_820.JPEG
subject-05,3,740,0.63767409324646,clock,airplane,64-10-10,3300_eid_s05_64-10-10_airplane_10_n02690373_8876.JPEG
subject-05,3,741,0.737526178359985,bear,bear,64-3-10,3301_eid_s05_64-3-10_bear_10_n02132136_4996.JPEG
subject-05,3,742,1.38992404937744,bear,bear,8-10-10,3302_eid_s05_8-10-10_bear_10_n02133161_610.JPEG
subject-05,3,743,0.920424938201904,car,truck,2-0-10,3303_eid_s05_2-0-10_truck_10_n03417042_12560.JPEG
subject-05,3,744,1.04294991493225,cat,boat,16-0-10,3304_eid_s05_16-0-10_boat_10_n03344393_4548.JPEG
subject-05,3,745,1.01131701469421,truck,truck,8-0-10,3305_eid_s05_8-0-10_truck_10_n03417042_10533.JPEG
subject-05,3,746,1.087730884552,cat,elephant,64-10-10,3306_eid_s05_64-10-10_elephant_10_n02504013_5859.JPEG
subject-05,3,747,1.00246691703796,bottle,bicycle,64-3-10,3307_eid_s05_64-3-10_bicycle_10_n03792782_6569.JPEG
subject-05,3,748,0.80317497253418,keyboard,keyboard,1-3-10,3308_eid_s05_1-3-10_keyboard_10_n04505470_8018.JPEG
subject-05,3,749,0.917789220809937,clock,bicycle,32-3-10,3309_eid_s05_32-3-10_bicycle_10_n02835271_9116.JPEG
subject-05,3,750,1.00721406936646,bird,bear,64-10-10,3310_eid_s05_64-10-10_bear_10_n02132136_13666.JPEG
subject-05,3,751,1.10539293289185,bear,bottle,32-3-10,3311_eid_s05_32-3-10_bottle_10_n04557648_5341.JPEG
subject-05,3,752,0.598047971725464,cat,dog,32-0-10,3312_eid_s05_32-0-10_dog_10_n02093754_85.JPEG
subject-05,3,753,0.649255037307739,cat,dog,8-3-10,3313_eid_s05_8-3-10_dog_10_n02107312_3054.JPEG
subject-05,3,754,1.15558815002441,boat,dog,128-3-10,3314_eid_s05_128-3-10_dog_10_n02107142_8399.JPEG
subject-05,3,755,0.916100025177002,cat,cat,8-3-10,3315_eid_s05_8-3-10_cat_10_n02123394_1581.JPEG
subject-05,3,756,0.594534158706665,keyboard,keyboard,4-3-10,3316_eid_s05_4-3-10_keyboard_10_n03085013_2500.JPEG
subject-05,3,757,0.863029956817627,cat,clock,16-10-10,3317_eid_s05_16-10-10_clock_10_n04548280_2436.JPEG
subject-05,3,758,0.923574924468994,elephant,elephant,1-0-10,3318_eid_s05_1-0-10_elephant_10_n02504013_8391.JPEG
subject-05,3,759,0.623769998550415,boat,bottle,128-3-10,3319_eid_s05_128-3-10_bottle_10_n02823428_11781.JPEG
subject-05,3,760,1.30656695365906,cat,chair,16-3-10,3320_eid_s05_16-3-10_chair_10_n04099969_13440.JPEG
subject-05,3,761,0.820616960525513,keyboard,keyboard,2-3-10,3321_eid_s05_2-3-10_keyboard_10_n03085013_20490.JPEG
subject-05,3,762,0.751504182815552,bicycle,bicycle,2-10-10,3322_eid_s05_2-10-10_bicycle_10_n03792782_380.JPEG
subject-05,3,763,0.673560857772827,boat,bicycle,4-3-10,3323_eid_s05_4-3-10_bicycle_10_n02835271_7526.JPEG
subject-05,3,764,0.758628129959106,boat,bicycle,4-10-10,3324_eid_s05_4-10-10_bicycle_10_n03792782_870.JPEG
subject-05,3,765,0.634794950485229,boat,truck,32-3-10,3325_eid_s05_32-3-10_truck_10_n03417042_6312.JPEG
subject-05,3,766,0.687352895736694,car,car,32-10-10,3326_eid_s05_32-10-10_car_10_n03100240_18967.JPEG
subject-05,3,767,1.50009083747864,bear,dog,4-0-10,3327_eid_s05_4-0-10_dog_10_n02093859_1997.JPEG
subject-05,3,768,0.611917018890381,cat,knife,8-0-10,3328_eid_s05_8-0-10_knife_10_n03041632_17349.JPEG
subject-05,3,769,0.821248054504395,bicycle,bicycle,8-3-10,3329_eid_s05_8-3-10_bicycle_10_n03792782_5966.JPEG
subject-05,3,770,0.411489009857178,boat,truck,64-3-10,3330_eid_s05_64-3-10_truck_10_n03417042_1841.JPEG
subject-05,3,771,0.601970911026001,car,car,2-10-10,3331_eid_s05_2-10-10_car_10_n03100240_740.JPEG
subject-05,3,772,0.448500871658325,boat,boat,8-3-10,3332_eid_s05_8-3-10_boat_10_n04273569_6233.JPEG
subject-05,3,773,0.647139072418213,bear,bear,4-0-10,3333_eid_s05_4-0-10_bear_10_n02134418_3592.JPEG
subject-05,3,774,0.677674055099487,car,car,16-10-10,3334_eid_s05_16-10-10_car_10_n04285008_4704.JPEG
subject-05,3,775,0.483890056610107,cat,elephant,16-3-10,3335_eid_s05_16-3-10_elephant_10_n02504013_4023.JPEG
subject-05,3,776,0.982429981231689,elephant,car,128-0-10,3336_eid_s05_128-0-10_car_10_n04285008_7435.JPEG
subject-05,3,777,0.883159875869751,chair,bird,32-0-10,3337_eid_s05_32-0-10_bird_10_n01592084_730.JPEG
subject-05,3,778,0.974119901657104,cat,chair,16-0-10,3338_eid_s05_16-0-10_chair_10_n02791124_16190.JPEG
subject-05,3,779,0.682512044906616,bear,bear,8-3-10,3339_eid_s05_8-3-10_bear_10_n02134418_836.JPEG
subject-05,3,780,0.703253030776978,airplane,airplane,4-3-10,3340_eid_s05_4-3-10_airplane_10_n02690373_19733.JPEG
subject-05,3,781,1.2556369304657,clock,airplane,64-0-10,3341_eid_s05_64-0-10_airplane_10_n02690373_4233.JPEG
subject-05,3,782,0.656177043914795,cat,oven,16-3-10,3342_eid_s05_16-3-10_oven_10_n04111531_6080.JPEG
subject-05,3,783,0.862654209136963,car,car,8-3-10,3343_eid_s05_8-3-10_car_10_n03100240_22882.JPEG
subject-05,3,784,0.809049129486084,oven,keyboard,128-3-10,3344_eid_s05_128-3-10_keyboard_10_n04505470_6115.JPEG
subject-05,3,785,0.915755987167358,clock,car,16-0-10,3345_eid_s05_16-0-10_car_10_n04285008_4142.JPEG
subject-05,3,786,1.49766206741333,boat,keyboard,16-0-10,3346_eid_s05_16-0-10_keyboard_10_n04505470_986.JPEG
subject-05,3,787,0.498203992843628,cat,truck,16-0-10,3347_eid_s05_16-0-10_truck_10_n04467665_79034.JPEG
subject-05,3,788,1.250648021698,car,car,1-3-10,3348_eid_s05_1-3-10_car_10_n04285008_8727.JPEG
subject-05,3,789,0.772753000259399,clock,clock,32-0-10,3349_eid_s05_32-0-10_clock_10_n02708093_2653.JPEG
subject-05,3,790,0.786751985549927,boat,bird,32-3-10,3350_eid_s05_32-3-10_bird_10_n01795545_12179.JPEG
subject-05,3,791,0.437033176422119,cat,oven,64-10-10,3351_eid_s05_64-10-10_oven_10_n04111531_643.JPEG
subject-05,3,792,0.857527017593384,bottle,bottle,2-10-10,3352_eid_s05_2-10-10_bottle_10_n04560804_2024.JPEG
subject-05,3,793,1.19586300849915,chair,chair,2-0-10,3353_eid_s05_2-0-10_chair_10_n03376595_548.JPEG
subject-05,3,794,0.71843409538269,cat,cat,64-3-10,3354_eid_s05_64-3-10_cat_10_n02124075_2964.JPEG
subject-05,3,795,0.932827949523926,oven,keyboard,8-10-10,3355_eid_s05_8-10-10_keyboard_10_n03085013_21210.JPEG
subject-05,3,796,1.10659599304199,clock,truck,128-0-10,3356_eid_s05_128-0-10_truck_10_n04467665_59237.JPEG
subject-05,3,797,0.852709054946899,airplane,airplane,4-10-10,3357_eid_s05_4-10-10_airplane_10_n02690373_2733.JPEG
subject-05,3,798,0.918270826339722,bear,elephant,64-3-10,3358_eid_s05_64-3-10_elephant_10_n02504013_5164.JPEG
subject-05,3,799,0.632115125656128,boat,boat,2-3-10,3359_eid_s05_2-3-10_boat_10_n04612504_4440.JPEG
subject-05,3,800,0.701018095016479,cat,keyboard,64-10-10,3360_eid_s05_64-10-10_keyboard_10_n03085013_19051.JPEG
subject-05,3,801,0.61703085899353,cat,elephant,16-10-10,3361_eid_s05_16-10-10_elephant_10_n02504013_3402.JPEG
subject-05,3,802,0.652765989303589,bird,bottle,64-10-10,3362_eid_s05_64-10-10_bottle_10_n04591713_7099.JPEG
subject-05,3,803,0.767046928405762,car,car,2-10-10,3363_eid_s05_2-10-10_car_10_n04285008_7198.JPEG
subject-05,3,804,0.857079982757568,cat,cat,16-0-10,3364_eid_s05_16-0-10_cat_10_n02125311_13857.JPEG
subject-05,3,805,0.946865797042847,dog,bottle,16-3-10,3365_eid_s05_16-3-10_bottle_10_n04560804_15225.JPEG
subject-05,3,806,0.746469020843506,bird,knife,64-10-10,3366_eid_s05_64-10-10_knife_10_n03041632_40450.JPEG
subject-05,3,807,0.669224977493286,bear,clock,16-3-10,3367_eid_s05_16-3-10_clock_10_n02708093_3438.JPEG
subject-05,3,808,0.399789094924927,clock,oven,128-0-10,3368_eid_s05_128-0-10_oven_10_n04111531_6810.JPEG
subject-05,3,809,0.812288045883179,dog,dog,1-10-10,3369_eid_s05_1-10-10_dog_10_n02091134_6084.JPEG
subject-05,3,810,0.563516139984131,chair,bottle,8-0-10,3370_eid_s05_8-0-10_bottle_10_n03983396_7763.JPEG
subject-05,3,811,1.0781729221344,keyboard,oven,64-0-10,3371_eid_s05_64-0-10_oven_10_n04111531_12053.JPEG
subject-05,3,812,0.492911100387573,oven,knife,16-0-10,3372_eid_s05_16-0-10_knife_10_n03041632_15174.JPEG
subject-05,3,813,0.643907070159912,clock,bicycle,128-0-10,3373_eid_s05_128-0-10_bicycle_10_n02835271_13965.JPEG
subject-05,3,814,0.45053505897522,boat,airplane,32-0-10,3374_eid_s05_32-0-10_airplane_10_n02690373_10051.JPEG
subject-05,3,815,0.697074174880981,bicycle,bear,16-0-10,3375_eid_s05_16-0-10_bear_10_n02133161_1032.JPEG
subject-05,3,816,1.09553980827332,bird,bird,4-3-10,3376_eid_s05_4-3-10_bird_10_n01531178_17669.JPEG
subject-05,3,817,1.22613596916199,dog,elephant,16-10-10,3377_eid_s05_16-10-10_elephant_10_n02504458_11884.JPEG
subject-05,3,818,0.740700006484985,boat,car,128-10-10,3378_eid_s05_128-10-10_car_10_n04285008_170.JPEG
subject-05,3,819,0.633081912994385,clock,clock,4-10-10,3379_eid_s05_4-10-10_clock_10_n04548280_3038.JPEG
subject-05,3,820,0.485036849975586,cat,bicycle,16-3-10,3380_eid_s05_16-3-10_bicycle_10_n03792782_4222.JPEG
subject-05,3,821,0.508123874664307,boat,dog,64-0-10,3381_eid_s05_64-0-10_dog_10_n02095314_6052.JPEG
subject-05,3,822,0.630602121353149,bear,car,8-0-10,3382_eid_s05_8-0-10_car_10_n02814533_61501.JPEG
subject-05,3,823,0.923352956771851,oven,oven,128-0-10,3383_eid_s05_128-0-10_oven_10_n04111531_10446.JPEG
subject-05,3,824,0.713680028915405,cat,knife,128-3-10,3384_eid_s05_128-3-10_knife_10_n03041632_85416.JPEG
subject-05,3,825,0.919949054718018,elephant,elephant,2-3-10,3385_eid_s05_2-3-10_elephant_10_n02504013_6150.JPEG
subject-05,3,826,0.566736936569214,boat,boat,2-0-10,3386_eid_s05_2-0-10_boat_10_n04273569_1523.JPEG
subject-05,3,827,1.17890691757202,keyboard,keyboard,8-10-10,3387_eid_s05_8-10-10_keyboard_10_n03085013_24464.JPEG
subject-05,3,828,0.686980009078979,cat,bird,64-10-10,3388_eid_s05_64-10-10_bird_10_n01798484_151.JPEG
subject-05,3,829,0.901570081710815,truck,truck,1-10-10,3389_eid_s05_1-10-10_truck_10_n03417042_6130.JPEG
subject-05,3,830,0.853832960128784,cat,chair,128-0-10,3390_eid_s05_128-0-10_chair_10_n03376595_1719.JPEG
subject-05,3,831,0.597505807876587,boat,chair,32-0-10,3391_eid_s05_32-0-10_chair_10_n03376595_1417.JPEG
subject-05,3,832,1.06568193435669,bicycle,chair,128-10-10,3392_eid_s05_128-10-10_chair_10_n02791124_2008.JPEG
subject-05,3,833,0.904500961303711,car,car,2-0-10,3393_eid_s05_2-0-10_car_10_n04285008_13595.JPEG
subject-05,3,834,0.886116027832031,elephant,elephant,1-10-10,3394_eid_s05_1-10-10_elephant_10_n02504458_787.JPEG
subject-05,3,835,0.575783967971802,cat,bicycle,16-0-10,3395_eid_s05_16-0-10_bicycle_10_n03792782_48457.JPEG
subject-05,3,836,0.69731616973877,boat,bicycle,32-10-10,3396_eid_s05_32-10-10_bicycle_10_n02835271_21185.JPEG
subject-05,3,837,1.12572383880615,elephant,truck,8-3-10,3397_eid_s05_8-3-10_truck_10_n04467665_52320.JPEG
subject-05,3,838,0.894284009933472,chair,chair,8-3-10,3398_eid_s05_8-3-10_chair_10_n04099969_18744.JPEG
subject-05,3,839,0.716248035430908,bear,bird,128-0-10,3399_eid_s05_128-0-10_bird_10_n01798484_2998.JPEG
subject-05,3,840,0.676635980606079,cat,truck,32-10-10,3400_eid_s05_32-10-10_truck_10_n03796401_8100.JPEG
subject-05,3,841,1.11554884910583,dog,dog,2-0-10,3401_eid_s05_2-0-10_dog_10_n02099429_3276.JPEG
subject-05,3,842,0.57566499710083,boat,cat,32-0-10,3402_eid_s05_32-0-10_cat_10_n02124075_9053.JPEG
subject-05,3,843,0.690177917480469,bird,keyboard,16-3-10,3403_eid_s05_16-3-10_keyboard_10_n03085013_23398.JPEG
subject-05,3,844,0.742607116699219,airplane,chair,8-0-10,3404_eid_s05_8-0-10_chair_10_n04099969_25613.JPEG
subject-05,3,845,0.719161033630371,elephant,elephant,1-3-10,3405_eid_s05_1-3-10_elephant_10_n02504458_988.JPEG
subject-05,3,846,0.586879968643188,clock,clock,1-10-10,3406_eid_s05_1-10-10_clock_10_n04548280_3125.JPEG
subject-05,3,847,0.719122171401978,oven,dog,64-10-10,3407_eid_s05_64-10-10_dog_10_n02088632_8862.JPEG
subject-05,3,848,0.643386125564575,car,car,1-3-10,3408_eid_s05_1-3-10_car_10_n03100240_5796.JPEG
subject-05,3,849,0.447808980941772,boat,bird,32-10-10,3409_eid_s05_32-10-10_bird_10_n02013706_2274.JPEG
subject-05,3,850,0.686387777328491,bear,oven,32-10-10,3410_eid_s05_32-10-10_oven_10_n04111531_10583.JPEG
subject-05,3,851,0.800263166427612,airplane,airplane,1-10-10,3411_eid_s05_1-10-10_airplane_10_n02690373_4851.JPEG
subject-05,3,852,0.668776988983154,bottle,bottle,1-0-10,3412_eid_s05_1-0-10_bottle_10_n04560804_19508.JPEG
subject-05,3,853,0.909773111343384,keyboard,keyboard,4-3-10,3413_eid_s05_4-3-10_keyboard_10_n03085013_19055.JPEG
subject-05,3,854,0.524466991424561,cat,elephant,128-3-10,3414_eid_s05_128-3-10_elephant_10_n02504458_12705.JPEG
subject-05,3,855,1.10588717460632,bottle,bottle,4-10-10,3415_eid_s05_4-10-10_bottle_10_n03937543_7477.JPEG
subject-05,3,856,1.35025477409363,bear,bear,128-10-10,3416_eid_s05_128-10-10_bear_10_n02134084_7467.JPEG
subject-05,3,857,0.701336145401001,cat,oven,64-10-10,3417_eid_s05_64-10-10_oven_10_n04111531_2715.JPEG
subject-05,3,858,1.05327105522156,car,boat,16-10-10,3418_eid_s05_16-10-10_boat_10_n04612504_20368.JPEG
subject-05,3,859,0.745723962783813,elephant,elephant,8-3-10,3419_eid_s05_8-3-10_elephant_10_n02504458_1153.JPEG
subject-05,3,860,0.506212949752808,boat,airplane,128-10-10,3420_eid_s05_128-10-10_airplane_10_n02690373_5854.JPEG
subject-05,3,861,0.620682954788208,chair,chair,2-10-10,3421_eid_s05_2-10-10_chair_10_n04429376_19162.JPEG
subject-05,3,862,0.965145826339722,car,boat,1-10-10,3422_eid_s05_1-10-10_boat_10_n03662601_2793.JPEG
subject-05,3,863,0.735122919082642,boat,truck,1-3-10,3423_eid_s05_1-3-10_truck_10_n04467665_1411.JPEG
subject-05,3,864,0.626018047332764,clock,clock,2-3-10,3424_eid_s05_2-3-10_clock_10_n04548280_3219.JPEG
subject-05,3,865,1.476557970047,bicycle,bicycle,1-10-10,3425_eid_s05_1-10-10_bicycle_10_n02835271_7148.JPEG
subject-05,3,866,0.517096042633057,cat,bird,4-0-10,3426_eid_s05_4-0-10_bird_10_n01855672_10455.JPEG
subject-05,3,867,0.552603960037231,boat,oven,16-3-10,3427_eid_s05_16-3-10_oven_10_n04111531_15257.JPEG
subject-05,3,868,0.482775926589966,boat,oven,128-10-10,3428_eid_s05_128-10-10_oven_10_n04111531_519.JPEG
subject-05,3,869,0.873515129089355,bear,elephant,8-0-10,3429_eid_s05_8-0-10_elephant_10_n02504458_4564.JPEG
subject-05,3,870,0.842077016830444,cat,bear,64-0-10,3430_eid_s05_64-0-10_bear_10_n02132136_580.JPEG
subject-05,3,871,1.13716387748718,bicycle,bicycle,2-3-10,3431_eid_s05_2-3-10_bicycle_10_n03792782_23764.JPEG
subject-05,3,872,0.56673789024353,boat,boat,4-10-10,3432_eid_s05_4-10-10_boat_10_n04612504_34200.JPEG
subject-05,3,873,0.557787895202637,cat,airplane,16-3-10,3433_eid_s05_16-3-10_airplane_10_n02690373_10112.JPEG
subject-05,3,874,0.772341966629028,car,bicycle,128-10-10,3434_eid_s05_128-10-10_bicycle_10_n03792782_3892.JPEG
subject-05,3,875,0.747868061065674,cat,bear,8-3-10,3435_eid_s05_8-3-10_bear_10_n02134418_647.JPEG
subject-05,3,876,0.912490844726562,bottle,car,64-10-10,3436_eid_s05_64-10-10_car_10_n03100240_6113.JPEG
subject-05,3,877,0.626729011535645,cat,bear,16-10-10,3437_eid_s05_16-10-10_bear_10_n02133161_4030.JPEG
subject-05,3,878,0.692728996276855,chair,chair,8-0-10,3438_eid_s05_8-0-10_chair_10_n04429376_14170.JPEG
subject-05,3,879,0.923269987106323,chair,chair,4-10-10,3439_eid_s05_4-10-10_chair_10_n02791124_3761.JPEG
subject-05,3,880,0.580219984054565,boat,elephant,64-3-10,3440_eid_s05_64-3-10_elephant_10_n02504458_817.JPEG
subject-05,3,881,0.471997976303101,cat,bird,128-0-10,3441_eid_s05_128-0-10_bird_10_n01558993_40946.JPEG
subject-05,3,882,0.592572927474976,bear,boat,64-3-10,3442_eid_s05_64-3-10_boat_10_n03662601_22870.JPEG
subject-05,3,883,0.885396003723145,car,clock,64-3-10,3443_eid_s05_64-3-10_clock_10_n03196217_13429.JPEG
subject-05,3,884,0.907566070556641,elephant,elephant,4-10-10,3444_eid_s05_4-10-10_elephant_10_n02504013_6076.JPEG
subject-05,3,885,1.09001302719116,keyboard,keyboard,2-10-10,3445_eid_s05_2-10-10_keyboard_10_n03085013_19707.JPEG
subject-05,3,886,0.842359066009521,truck,truck,4-10-10,3446_eid_s05_4-10-10_truck_10_n03417042_17589.JPEG
subject-05,3,887,0.980806112289429,boat,bear,32-3-10,3447_eid_s05_32-3-10_bear_10_n02132136_1624.JPEG
subject-05,3,888,0.724847078323364,cat,cat,64-0-10,3448_eid_s05_64-0-10_cat_10_n02123597_1819.JPEG
subject-05,3,889,1.23965215682983,bird,bird,16-3-10,3449_eid_s05_16-3-10_bird_10_n01843065_4277.JPEG
subject-05,3,890,1.22419309616089,bottle,elephant,1-10-10,3450_eid_s05_1-10-10_elephant_10_n02504458_3823.JPEG
subject-05,3,891,0.684390068054199,oven,dog,128-0-10,3451_eid_s05_128-0-10_dog_10_n02088632_8848.JPEG
subject-05,3,892,0.853071928024292,elephant,elephant,4-10-10,3452_eid_s05_4-10-10_elephant_10_n02504013_5063.JPEG
subject-05,3,893,0.613365888595581,clock,elephant,32-0-10,3453_eid_s05_32-0-10_elephant_10_n02504458_4011.JPEG
subject-05,3,894,0.581220865249634,bear,knife,32-3-10,3454_eid_s05_32-3-10_knife_10_n03041632_42162.JPEG
subject-05,3,895,1.33950090408325,knife,bird,8-10-10,3455_eid_s05_8-10-10_bird_10_n01818515_5503.JPEG
subject-05,3,896,0.753494024276733,dog,dog,8-0-10,3456_eid_s05_8-0-10_dog_10_n02113978_3866.JPEG
subject-05,3,897,0.959670066833496,cat,knife,64-3-10,3457_eid_s05_64-3-10_knife_10_n03041632_54603.JPEG
subject-05,3,898,1.10281491279602,bear,bear,1-10-10,3458_eid_s05_1-10-10_bear_10_n02133161_29.JPEG
subject-05,3,899,0.719771862030029,oven,bicycle,64-0-10,3459_eid_s05_64-0-10_bicycle_10_n03792782_10437.JPEG
subject-05,3,900,0.768023014068604,dog,dog,4-3-10,3460_eid_s05_4-3-10_dog_10_n02091244_10532.JPEG
subject-05,3,901,0.625563144683838,airplane,airplane,4-10-10,3461_eid_s05_4-10-10_airplane_10_n02690373_6285.JPEG
subject-05,3,902,0.747992038726807,cat,bear,2-0-10,3462_eid_s05_2-0-10_bear_10_n02132136_8884.JPEG
subject-05,3,903,0.578119993209839,car,car,4-3-10,3463_eid_s05_4-3-10_car_10_n04285008_3864.JPEG
subject-05,3,904,0.54445481300354,boat,keyboard,32-10-10,3464_eid_s05_32-10-10_keyboard_10_n04505470_2207.JPEG
subject-05,3,905,0.6668701171875,bear,chair,32-3-10,3465_eid_s05_32-3-10_chair_10_n02791124_1258.JPEG
subject-05,3,906,0.58104419708252,oven,oven,8-10-10,3466_eid_s05_8-10-10_oven_10_n04111531_13809.JPEG
subject-05,3,907,0.573640108108521,cat,dog,4-10-10,3467_eid_s05_4-10-10_dog_10_n02113023_4078.JPEG
subject-05,3,908,0.533976078033447,clock,clock,4-0-10,3468_eid_s05_4-0-10_clock_10_n02708093_2805.JPEG
subject-05,3,909,0.848737001419067,chair,chair,1-3-10,3469_eid_s05_1-3-10_chair_10_n03376595_9854.JPEG
subject-05,3,910,0.709072828292847,clock,clock,2-0-10,3470_eid_s05_2-0-10_clock_10_n02708093_7060.JPEG
subject-05,3,911,0.539889812469482,cat,airplane,64-10-10,3471_eid_s05_64-10-10_airplane_10_n02690373_3059.JPEG
subject-05,3,912,0.508186817169189,boat,clock,16-10-10,3472_eid_s05_16-10-10_clock_10_n02708093_5010.JPEG
subject-05,3,913,1.37470602989197,dog,knife,16-0-10,3473_eid_s05_16-0-10_knife_10_n03041632_96361.JPEG
subject-05,3,914,0.667250871658325,bear,truck,64-3-10,3474_eid_s05_64-3-10_truck_10_n03417042_2978.JPEG
subject-05,3,915,0.849097967147827,keyboard,keyboard,8-0-10,3475_eid_s05_8-0-10_keyboard_10_n04505470_2972.JPEG
subject-05,3,916,1.3914270401001,airplane,airplane,1-0-10,3476_eid_s05_1-0-10_airplane_10_n02690373_1663.JPEG
subject-05,3,917,0.892054080963135,knife,knife,1-3-10,3477_eid_s05_1-3-10_knife_10_n03041632_737.JPEG
subject-05,3,918,0.752924203872681,keyboard,keyboard,8-0-10,3478_eid_s05_8-0-10_keyboard_10_n03085013_7858.JPEG
subject-05,3,919,0.636924982070923,cat,bear,64-10-10,3479_eid_s05_64-10-10_bear_10_n02133161_2335.JPEG
subject-05,3,920,0.781515836715698,oven,clock,8-0-10,3480_eid_s05_8-0-10_clock_10_n04548280_8296.JPEG
subject-05,3,921,0.620211839675903,clock,clock,2-3-10,3481_eid_s05_2-3-10_clock_10_n03196217_868.JPEG
subject-05,3,922,1.30234813690186,knife,knife,2-0-10,3482_eid_s05_2-0-10_knife_10_n03041632_5727.JPEG
subject-05,3,923,0.571207046508789,boat,bear,128-0-10,3483_eid_s05_128-0-10_bear_10_n02133161_1807.JPEG
subject-05,3,924,0.576765060424805,cat,car,16-0-10,3484_eid_s05_16-0-10_car_10_n04285008_6576.JPEG
subject-05,3,925,0.766962051391602,bear,bottle,128-0-10,3485_eid_s05_128-0-10_bottle_10_n04579145_4785.JPEG
subject-05,3,926,0.534281015396118,clock,bear,32-3-10,3486_eid_s05_32-3-10_bear_10_n02134418_2029.JPEG
subject-05,3,927,0.470421075820923,boat,truck,8-3-10,3487_eid_s05_8-3-10_truck_10_n03417042_2029.JPEG
subject-05,3,928,0.752296209335327,car,bicycle,128-0-10,3488_eid_s05_128-0-10_bicycle_10_n03792782_1728.JPEG
subject-05,3,929,0.636791944503784,airplane,airplane,2-0-10,3489_eid_s05_2-0-10_airplane_10_n02690373_3096.JPEG
subject-05,3,930,0.903219223022461,oven,oven,2-10-10,3490_eid_s05_2-10-10_oven_10_n04111531_274.JPEG
subject-05,3,931,0.528014898300171,cat,clock,16-3-10,3491_eid_s05_16-3-10_clock_10_n04548280_377.JPEG
subject-05,3,932,1.05337190628052,bear,bear,8-10-10,3492_eid_s05_8-10-10_bear_10_n02132136_9497.JPEG
subject-05,3,933,1.20523691177368,bear,cat,32-10-10,3493_eid_s05_32-10-10_cat_10_n02123159_2200.JPEG
subject-05,3,934,0.673369884490967,cat,bird,64-3-10,3494_eid_s05_64-3-10_bird_10_n02033041_3989.JPEG
subject-05,3,935,0.749840974807739,cat,bottle,4-0-10,3495_eid_s05_4-0-10_bottle_10_n04560804_10411.JPEG
subject-05,3,936,0.840208053588867,clock,chair,8-3-10,3496_eid_s05_8-3-10_chair_10_n04099969_2868.JPEG
subject-05,3,937,0.79195499420166,bird,car,64-10-10,3497_eid_s05_64-10-10_car_10_n03100240_319.JPEG
subject-05,3,938,0.973427057266235,car,car,4-3-10,3498_eid_s05_4-3-10_car_10_n04285008_7267.JPEG
subject-05,3,939,1.13373208045959,bear,elephant,8-10-10,3499_eid_s05_8-10-10_elephant_10_n02504013_13766.JPEG
subject-05,3,940,1.11605596542358,car,car,1-3-10,3500_eid_s05_1-3-10_car_10_n03100240_22844.JPEG
subject-05,3,941,0.7623610496521,bottle,bottle,8-0-10,3501_eid_s05_8-0-10_bottle_10_n03983396_17752.JPEG
subject-05,3,942,0.593081951141357,boat,oven,128-3-10,3502_eid_s05_128-3-10_oven_10_n04111531_13820.JPEG
subject-05,3,943,0.975916862487793,cat,cat,8-3-10,3503_eid_s05_8-3-10_cat_10_n02123159_6666.JPEG
subject-05,3,944,1.10285902023315,clock,oven,8-10-10,3504_eid_s05_8-10-10_oven_10_n04111531_121.JPEG
subject-05,3,945,0.77175498008728,boat,elephant,64-3-10,3505_eid_s05_64-3-10_elephant_10_n02504013_9881.JPEG
subject-05,3,946,1.02313494682312,bicycle,bicycle,8-0-10,3506_eid_s05_8-0-10_bicycle_10_n03792782_63425.JPEG
subject-05,3,947,0.637925148010254,cat,cat,4-3-10,3507_eid_s05_4-3-10_cat_10_n02124075_2454.JPEG
subject-05,3,948,0.668231964111328,boat,boat,32-10-10,3508_eid_s05_32-10-10_boat_10_n03662601_16915.JPEG
subject-05,3,949,0.666285037994385,cat,chair,8-0-10,3509_eid_s05_8-0-10_chair_10_n03376595_2666.JPEG
subject-05,3,950,0.786815881729126,bird,bird,16-3-10,3510_eid_s05_16-3-10_bird_10_n01616318_11946.JPEG
subject-05,3,951,0.955266952514648,bottle,bottle,4-0-10,3511_eid_s05_4-0-10_bottle_10_n04560804_3651.JPEG
subject-05,3,952,1.20788908004761,clock,clock,2-10-10,3512_eid_s05_2-10-10_clock_10_n03196217_2414.JPEG
subject-05,3,953,1.08460307121277,bicycle,keyboard,128-10-10,3513_eid_s05_128-10-10_keyboard_10_n03085013_23789.JPEG
subject-05,3,954,0.923043966293335,oven,chair,1-0-10,3514_eid_s05_1-0-10_chair_10_n02791124_880.JPEG
subject-05,3,955,0.772104978561401,bird,bird,4-3-10,3515_eid_s05_4-3-10_bird_10_n02011460_4177.JPEG
subject-05,3,956,0.556854009628296,boat,bear,128-10-10,3516_eid_s05_128-10-10_bear_10_n02134418_14961.JPEG
subject-05,3,957,0.938979864120483,airplane,airplane,8-0-10,3517_eid_s05_8-0-10_airplane_10_n02690373_4199.JPEG
