subj,session,trial,rt,object_response,category,condition,imagename
subject-05,1,1,1.02016997337341,bird,dog,2-3-10,0001_eid_s05_2-3-10_dog_10_n02113799_18526.JPEG
subject-05,1,2,0.38239312171936,boat,bear,128-0-10,0002_eid_s05_128-0-10_bear_10_n02134418_108.JPEG
subject-05,1,3,0.428643226623535,clock,cat,32-3-10,0003_eid_s05_32-3-10_cat_10_n02123045_13075.JPEG
subject-05,1,4,0.684875011444092,bottle,bottle,4-0-10,0004_eid_s05_4-0-10_bottle_10_n04560804_15723.JPEG
subject-05,1,5,0.41745400428772,boat,elephant,32-0-10,0005_eid_s05_32-0-10_elephant_10_n02504458_3088.JPEG
subject-05,1,6,0.655686140060425,bottle,bottle,1-10-10,0006_eid_s05_1-10-10_bottle_10_n03983396_1496.JPEG
subject-05,1,7,0.571943998336792,bear,clock,64-0-10,0007_eid_s05_64-0-10_clock_10_n04548280_4333.JPEG
subject-05,1,8,0.490878820419312,cat,clock,16-0-10,0008_eid_s05_16-0-10_clock_10_n03196217_1573.JPEG
subject-05,1,9,0.721167087554932,bear,bear,2-10-10,0009_eid_s05_2-10-10_bear_10_n02132136_5052.JPEG
subject-05,1,10,0.453400850296021,boat,elephant,128-10-10,0010_eid_s05_128-10-10_elephant_10_n02504013_4372.JPEG
subject-05,1,11,1.46943116188049,chair,bird,1-0-10,0011_eid_s05_1-0-10_bird_10_n01582220_6915.JPEG
subject-05,1,12,0.616158962249756,airplane,airplane,4-3-10,0012_eid_s05_4-3-10_airplane_10_n02690373_599.JPEG
subject-05,1,13,0.486401081085205,clock,knife,32-10-10,0013_eid_s05_32-10-10_knife_10_n03041632_25512.JPEG
subject-05,1,14,0.624405860900879,bicycle,boat,128-0-10,0014_eid_s05_128-0-10_boat_10_n04273569_17179.JPEG
subject-05,1,15,0.765223026275635,cat,cat,8-10-10,0015_eid_s05_8-10-10_cat_10_n02123394_1778.JPEG
subject-05,1,16,0.859961986541748,oven,oven,1-0-10,0016_eid_s05_1-0-10_oven_10_n04111531_21963.JPEG
subject-05,1,17,0.48410701751709,boat,boat,32-3-10,0017_eid_s05_32-3-10_boat_10_n03344393_661.JPEG
subject-05,1,18,0.784432888031006,clock,clock,4-3-10,0018_eid_s05_4-3-10_clock_10_n03196217_4947.JPEG
subject-05,1,19,0.785104036331177,bear,bear,1-10-10,0019_eid_s05_1-10-10_bear_10_n02132136_7184.JPEG
subject-05,1,20,0.633708953857422,airplane,airplane,2-0-10,0020_eid_s05_2-0-10_airplane_10_n02690373_3451.JPEG
subject-05,1,21,0.450326919555664,cat,chair,64-10-10,0021_eid_s05_64-10-10_chair_10_n02791124_2712.JPEG
subject-05,1,22,0.666114091873169,bicycle,bicycle,32-3-10,0022_eid_s05_32-3-10_bicycle_10_n03792782_11597.JPEG
subject-05,1,23,0.558547019958496,airplane,airplane,4-0-10,0023_eid_s05_4-0-10_airplane_10_n02690373_6807.JPEG
subject-05,1,24,0.705274105072021,bottle,bottle,8-3-10,0024_eid_s05_8-3-10_bottle_10_n03937543_7825.JPEG
subject-05,1,25,0.791033983230591,bottle,bottle,8-3-10,0025_eid_s05_8-3-10_bottle_10_n04579145_1457.JPEG
subject-05,1,26,0.523080110549927,cat,clock,32-3-10,0026_eid_s05_32-3-10_clock_10_n04548280_4163.JPEG
subject-05,1,27,1.41593503952026,bicycle,truck,2-0-10,0027_eid_s05_2-0-10_truck_10_n03796401_1446.JPEG
subject-05,1,28,0.501878023147583,boat,cat,128-3-10,0028_eid_s05_128-3-10_cat_10_n02123394_2095.JPEG
subject-05,1,29,0.681079864501953,clock,knife,16-3-10,0029_eid_s05_16-3-10_knife_10_n03041632_16932.JPEG
subject-05,1,30,1.08164596557617,cat,boat,1-3-10,0030_eid_s05_1-3-10_boat_10_n03344393_95.JPEG
subject-05,1,31,1.01170897483826,knife,knife,2-0-10,0031_eid_s05_2-0-10_knife_10_n03041632_13465.JPEG
subject-05,1,32,0.98459792137146,car,bottle,16-0-10,0032_eid_s05_16-0-10_bottle_10_n04579145_85.JPEG
subject-05,1,33,0.529690027236938,bear,boat,128-0-10,0033_eid_s05_128-0-10_boat_10_n02951358_30093.JPEG
subject-05,1,34,0.879010915756226,keyboard,clock,32-3-10,0034_eid_s05_32-3-10_clock_10_n04548280_5130.JPEG
subject-05,1,35,0.9635910987854,dog,dog,4-3-10,0035_eid_s05_4-3-10_dog_10_n02090721_2361.JPEG
subject-05,1,36,1.05796909332275,chair,boat,2-0-10,0036_eid_s05_2-0-10_boat_10_n03344393_4616.JPEG
subject-05,1,37,0.519968032836914,boat,truck,8-0-10,0037_eid_s05_8-0-10_truck_10_n03417042_9335.JPEG
subject-05,1,38,0.890708923339844,elephant,bear,1-0-10,0038_eid_s05_1-0-10_bear_10_n02133161_2044.JPEG
subject-05,1,39,0.62837815284729,bear,bottle,32-3-10,0039_eid_s05_32-3-10_bottle_10_n04557648_5083.JPEG
subject-05,1,40,0.64523720741272,airplane,oven,32-3-10,0040_eid_s05_32-3-10_oven_10_n04111531_15267.JPEG
subject-05,1,41,0.655493021011353,car,knife,128-0-10,0041_eid_s05_128-0-10_knife_10_n03041632_27879.JPEG
subject-05,1,42,0.8316650390625,bottle,bottle,2-0-10,0042_eid_s05_2-0-10_bottle_10_n04591713_7133.JPEG
subject-05,1,43,0.501808166503906,boat,airplane,32-0-10,0043_eid_s05_32-0-10_airplane_10_n02690373_3912.JPEG
subject-05,1,44,1.46185207366943,boat,boat,2-10-10,0044_eid_s05_2-10-10_boat_10_n04612504_9304.JPEG
subject-05,1,45,1.00295996665955,cat,elephant,64-0-10,0045_eid_s05_64-0-10_elephant_10_n02504458_5671.JPEG
subject-05,1,46,0.659188985824585,bicycle,bicycle,1-3-10,0046_eid_s05_1-3-10_bicycle_10_n03792782_6841.JPEG
subject-05,1,47,0.500164031982422,oven,bicycle,16-10-10,0047_eid_s05_16-10-10_bicycle_10_n02835271_20099.JPEG
subject-05,1,48,0.630085945129395,chair,truck,16-0-10,0048_eid_s05_16-0-10_truck_10_n04467665_41163.JPEG
subject-05,1,49,0.454593896865845,cat,dog,64-3-10,0049_eid_s05_64-3-10_dog_10_n02106166_12581.JPEG
subject-05,1,50,0.709640979766846,truck,truck,2-0-10,0050_eid_s05_2-0-10_truck_10_n03417042_1336.JPEG
subject-05,1,51,0.734145879745483,bird,bird,2-10-10,0051_eid_s05_2-10-10_bird_10_n01860187_24247.JPEG
subject-05,1,52,0.712530136108398,bottle,bottle,1-3-10,0052_eid_s05_1-3-10_bottle_10_n03983396_2692.JPEG
subject-05,1,53,1.0050950050354,bear,bear,4-3-10,0053_eid_s05_4-3-10_bear_10_n02132136_9184.JPEG
subject-05,1,54,1.49929809570312,boat,bicycle,16-0-10,0054_eid_s05_16-0-10_bicycle_10_n02835271_15468.JPEG
subject-05,1,55,0.874679088592529,knife,knife,4-3-10,0055_eid_s05_4-3-10_knife_10_n03041632_84012.JPEG
subject-05,1,56,0.599636793136597,bear,bear,1-3-10,0056_eid_s05_1-3-10_bear_10_n02133161_10231.JPEG
subject-05,1,57,0.600342988967896,bicycle,cat,64-3-10,0057_eid_s05_64-3-10_cat_10_n02123394_481.JPEG
subject-05,1,58,1.07830286026001,truck,truck,2-3-10,0058_eid_s05_2-3-10_truck_10_n03417042_11552.JPEG
subject-05,1,59,0.56567907333374,cat,car,64-10-10,0059_eid_s05_64-10-10_car_10_n02814533_32802.JPEG
subject-05,1,60,0.719771146774292,cat,cat,4-10-10,0060_eid_s05_4-10-10_cat_10_n02123394_1767.JPEG
subject-05,1,61,0.552433013916016,boat,truck,64-10-10,0061_eid_s05_64-10-10_truck_10_n04467665_44714.JPEG
subject-05,1,62,0.623128890991211,bird,bottle,64-0-10,0062_eid_s05_64-0-10_bottle_10_n04557648_8985.JPEG
subject-05,1,63,0.73943018913269,oven,oven,8-10-10,0063_eid_s05_8-10-10_oven_10_n04111531_4951.JPEG
subject-05,1,64,0.66419506072998,airplane,airplane,8-3-10,0064_eid_s05_8-3-10_airplane_10_n02690373_2131.JPEG
subject-05,1,65,1.20997595787048,oven,bicycle,128-0-10,0065_eid_s05_128-0-10_bicycle_10_n03792782_5048.JPEG
subject-05,1,66,1.24252009391785,keyboard,keyboard,4-3-10,0066_eid_s05_4-3-10_keyboard_10_n04505470_5137.JPEG
subject-05,1,67,0.481001138687134,boat,clock,128-0-10,0067_eid_s05_128-0-10_clock_10_n03196217_7663.JPEG
subject-05,1,68,0.72144603729248,airplane,keyboard,128-10-10,0068_eid_s05_128-10-10_keyboard_10_n03085013_21973.JPEG
subject-05,1,69,0.759626150131226,clock,chair,4-0-10,0069_eid_s05_4-0-10_chair_10_n04429376_16325.JPEG
subject-05,1,70,0.662487030029297,bottle,bottle,4-3-10,0070_eid_s05_4-3-10_bottle_10_n04560804_4909.JPEG
subject-05,1,71,0.709106922149658,bear,bear,2-0-10,0071_eid_s05_2-0-10_bear_10_n02134418_3570.JPEG
subject-05,1,72,0.587679862976074,boat,chair,32-0-10,0072_eid_s05_32-0-10_chair_10_n03376595_3676.JPEG
subject-05,1,73,0.612970113754272,boat,cat,128-0-10,0073_eid_s05_128-0-10_cat_10_n02125311_10174.JPEG
subject-05,1,74,0.559415817260742,cat,bottle,8-0-10,0074_eid_s05_8-0-10_bottle_10_n04579145_3557.JPEG
subject-05,1,75,0.704904079437256,bottle,bottle,1-10-10,0075_eid_s05_1-10-10_bottle_10_n03983396_24820.JPEG
subject-05,1,76,1.5000479221344,boat,dog,4-0-10,0076_eid_s05_4-0-10_dog_10_n02094114_7070.JPEG
subject-05,1,77,0.429622888565063,cat,bear,32-0-10,0077_eid_s05_32-0-10_bear_10_n02133161_15473.JPEG
subject-05,1,78,0.714707851409912,truck,truck,4-10-10,0078_eid_s05_4-10-10_truck_10_n03417042_6975.JPEG
subject-05,1,79,0.678763151168823,car,cat,64-10-10,0079_eid_s05_64-10-10_cat_10_n02123159_4476.JPEG
subject-05,1,80,0.501874208450317,cat,cat,2-3-10,0080_eid_s05_2-3-10_cat_10_n02123597_1308.JPEG
subject-05,1,81,0.979963064193726,cat,clock,4-0-10,0081_eid_s05_4-0-10_clock_10_n04548280_8008.JPEG
subject-05,1,82,0.504065990447998,boat,elephant,32-3-10,0082_eid_s05_32-3-10_elephant_10_n02504458_10444.JPEG
subject-05,1,83,0.504493951797485,cat,truck,16-0-10,0083_eid_s05_16-0-10_truck_10_n03417042_7365.JPEG
subject-05,1,84,0.721781015396118,bicycle,airplane,64-0-10,0084_eid_s05_64-0-10_airplane_10_n02690373_10817.JPEG
subject-05,1,85,0.807745933532715,chair,chair,4-3-10,0085_eid_s05_4-3-10_chair_10_n04429376_20188.JPEG
subject-05,1,86,0.759032964706421,bear,dog,4-3-10,0086_eid_s05_4-3-10_dog_10_n02099429_3804.JPEG
subject-05,1,87,0.989558935165405,boat,boat,4-0-10,0087_eid_s05_4-0-10_boat_10_n03662601_7270.JPEG
subject-05,1,88,0.621684074401855,cat,cat,1-0-10,0088_eid_s05_1-0-10_cat_10_n02123597_13190.JPEG
subject-05,1,89,0.48456597328186,cat,bicycle,64-0-10,0089_eid_s05_64-0-10_bicycle_10_n02835271_1897.JPEG
subject-05,1,90,0.762578010559082,bear,bear,1-10-10,0090_eid_s05_1-10-10_bear_10_n02132136_13578.JPEG
subject-05,1,91,0.971031188964844,keyboard,keyboard,4-10-10,0091_eid_s05_4-10-10_keyboard_10_n03085013_5440.JPEG
subject-05,1,92,0.655591011047363,clock,oven,32-10-10,0092_eid_s05_32-10-10_oven_10_n04111531_8852.JPEG
subject-05,1,93,0.826473951339722,oven,oven,4-0-10,0093_eid_s05_4-0-10_oven_10_n04111531_9867.JPEG
subject-05,1,94,0.65912389755249,bird,bird,2-0-10,0094_eid_s05_2-0-10_bird_10_n02002724_2971.JPEG
subject-05,1,95,0.55945897102356,boat,knife,32-0-10,0095_eid_s05_32-0-10_knife_10_n03041632_5916.JPEG
subject-05,1,96,0.584242105484009,bear,bear,4-10-10,0096_eid_s05_4-10-10_bear_10_n02133161_4354.JPEG
subject-05,1,97,0.551461219787598,cat,oven,8-3-10,0097_eid_s05_8-3-10_oven_10_n04111531_13296.JPEG
subject-05,1,98,0.499797105789185,boat,bird,64-10-10,0098_eid_s05_64-10-10_bird_10_n01582220_32562.JPEG
subject-05,1,99,0.560336828231812,clock,chair,8-10-10,0099_eid_s05_8-10-10_chair_10_n04429376_11720.JPEG
subject-05,1,100,0.893043041229248,chair,chair,1-3-10,0100_eid_s05_1-3-10_chair_10_n04099969_835.JPEG
subject-05,1,101,0.563699007034302,cat,oven,32-3-10,0101_eid_s05_32-3-10_oven_10_n04111531_10681.JPEG
subject-05,1,102,0.796036005020142,cat,cat,128-10-10,0102_eid_s05_128-10-10_cat_10_n02123597_10648.JPEG
subject-05,1,103,0.588393211364746,boat,dog,64-3-10,0103_eid_s05_64-3-10_dog_10_n02091831_9811.JPEG
subject-05,1,104,0.566967010498047,bear,bottle,64-0-10,0104_eid_s05_64-0-10_bottle_10_n04557648_11943.JPEG
subject-05,1,105,0.620859146118164,bottle,bottle,2-3-10,0105_eid_s05_2-3-10_bottle_10_n04557648_1317.JPEG
subject-05,1,106,0.567923069000244,clock,truck,8-3-10,0106_eid_s05_8-3-10_truck_10_n03417042_6554.JPEG
subject-05,1,107,0.516635179519653,cat,bottle,32-3-10,0107_eid_s05_32-3-10_bottle_10_n02823428_2102.JPEG
subject-05,1,108,0.862602233886719,keyboard,keyboard,2-3-10,0108_eid_s05_2-3-10_keyboard_10_n04505470_2583.JPEG
subject-05,1,109,0.48507285118103,boat,boat,8-0-10,0109_eid_s05_8-0-10_boat_10_n03662601_18100.JPEG
subject-05,1,110,1.21825408935547,bird,cat,16-3-10,0110_eid_s05_16-3-10_cat_10_n02123159_7606.JPEG
subject-05,1,111,0.551517009735107,cat,chair,8-0-10,0111_eid_s05_8-0-10_chair_10_n03376595_7035.JPEG
subject-05,1,112,0.944269895553589,chair,chair,2-3-10,0112_eid_s05_2-3-10_chair_10_n04429376_5202.JPEG
subject-05,1,113,0.893302917480469,oven,chair,4-0-10,0113_eid_s05_4-0-10_chair_10_n02791124_1597.JPEG
subject-05,1,114,0.722997188568115,bear,bear,16-10-10,0114_eid_s05_16-10-10_bear_10_n02133161_2333.JPEG
subject-05,1,115,0.555974006652832,cat,bear,64-3-10,0115_eid_s05_64-3-10_bear_10_n02133161_12161.JPEG
subject-05,1,116,0.709928035736084,cat,boat,128-10-10,0116_eid_s05_128-10-10_boat_10_n02951358_5786.JPEG
subject-05,1,117,0.633978128433228,boat,boat,1-3-10,0117_eid_s05_1-3-10_boat_10_n04612504_12660.JPEG
subject-05,1,118,0.773364067077637,airplane,airplane,2-10-10,0118_eid_s05_2-10-10_airplane_10_n02690373_5075.JPEG
subject-05,1,119,0.713351964950562,bear,bear,2-3-10,0119_eid_s05_2-3-10_bear_10_n02133161_4305.JPEG
subject-05,1,120,0.913922071456909,elephant,bicycle,32-10-10,0120_eid_s05_32-10-10_bicycle_10_n03792782_757.JPEG
subject-05,1,121,0.698585987091064,bicycle,knife,64-3-10,0121_eid_s05_64-3-10_knife_10_n03041632_1143.JPEG
subject-05,1,122,0.906552076339722,bottle,bottle,16-10-10,0122_eid_s05_16-10-10_bottle_10_n03983396_7576.JPEG
subject-05,1,123,0.539513826370239,cat,cat,16-3-10,0123_eid_s05_16-3-10_cat_10_n02124075_788.JPEG
subject-05,1,124,0.503834962844849,boat,bottle,32-0-10,0124_eid_s05_32-0-10_bottle_10_n04591713_9411.JPEG
subject-05,1,125,0.565372943878174,bear,car,64-10-10,0125_eid_s05_64-10-10_car_10_n02814533_69032.JPEG
subject-05,1,126,0.973653793334961,oven,elephant,8-0-10,0126_eid_s05_8-0-10_elephant_10_n02504013_5014.JPEG
subject-05,1,127,0.89020299911499,cat,oven,8-0-10,0127_eid_s05_8-0-10_oven_10_n04111531_1362.JPEG
subject-05,1,128,0.568388938903809,clock,cat,32-3-10,0128_eid_s05_32-3-10_cat_10_n02123394_10288.JPEG
subject-05,1,129,0.577200174331665,bicycle,bottle,16-3-10,0129_eid_s05_16-3-10_bottle_10_n04557648_4190.JPEG
subject-05,1,130,0.722732067108154,bear,elephant,16-10-10,0130_eid_s05_16-10-10_elephant_10_n02504013_2859.JPEG
subject-05,1,131,0.553205013275146,boat,keyboard,128-10-10,0131_eid_s05_128-10-10_keyboard_10_n03085013_21955.JPEG
subject-05,1,132,0.977111101150513,bottle,bottle,8-10-10,0132_eid_s05_8-10-10_bottle_10_n04557648_3673.JPEG
subject-05,1,133,0.791092872619629,bicycle,bicycle,4-10-10,0133_eid_s05_4-10-10_bicycle_10_n02835271_6361.JPEG
subject-05,1,134,0.820486068725586,chair,oven,128-0-10,0134_eid_s05_128-0-10_oven_10_n04111531_8181.JPEG
subject-05,1,135,0.791132926940918,chair,chair,2-10-10,0135_eid_s05_2-10-10_chair_10_n02791124_3669.JPEG
subject-05,1,136,0.583212852478027,oven,airplane,128-3-10,0136_eid_s05_128-3-10_airplane_10_n02690373_10423.JPEG
subject-05,1,137,0.461138010025024,cat,car,128-3-10,0137_eid_s05_128-3-10_car_10_n04285008_8918.JPEG
subject-05,1,138,0.669543981552124,boat,boat,2-0-10,0138_eid_s05_2-0-10_boat_10_n04273569_18447.JPEG
subject-05,1,139,0.854509830474854,clock,clock,8-3-10,0139_eid_s05_8-3-10_clock_10_n03196217_3035.JPEG
subject-05,1,140,0.732996940612793,knife,bottle,64-10-10,0140_eid_s05_64-10-10_bottle_10_n04557648_10602.JPEG
subject-05,1,141,0.602769136428833,clock,clock,1-10-10,0141_eid_s05_1-10-10_clock_10_n02708093_888.JPEG
subject-05,1,142,0.57975697517395,boat,car,32-0-10,0142_eid_s05_32-0-10_car_10_n02814533_2555.JPEG
subject-05,1,143,0.682392835617065,cat,cat,8-10-10,0143_eid_s05_8-10-10_cat_10_n02123394_1653.JPEG
subject-05,1,144,0.858842849731445,cat,bird,8-3-10,0144_eid_s05_8-3-10_bird_10_n02028035_1937.JPEG
subject-05,1,145,0.990719795227051,elephant,elephant,2-0-10,0145_eid_s05_2-0-10_elephant_10_n02504013_2431.JPEG
subject-05,1,146,0.583375930786133,bear,boat,128-10-10,0146_eid_s05_128-10-10_boat_10_n02951358_11945.JPEG
subject-05,1,147,0.645232915878296,car,car,4-0-10,0147_eid_s05_4-0-10_car_10_n04285008_8014.JPEG
subject-05,1,148,1.1292200088501,cat,boat,32-0-10,0148_eid_s05_32-0-10_boat_10_n03662601_6462.JPEG
subject-05,1,149,0.883571863174438,car,truck,2-10-10,0149_eid_s05_2-10-10_truck_10_n04467665_39107.JPEG
subject-05,1,150,1.21328616142273,oven,airplane,8-3-10,0150_eid_s05_8-3-10_airplane_10_n02690373_4845.JPEG
subject-05,1,151,0.862273931503296,keyboard,keyboard,2-0-10,0151_eid_s05_2-0-10_keyboard_10_n04505470_5045.JPEG
subject-05,1,152,0.83893895149231,chair,chair,2-10-10,0152_eid_s05_2-10-10_chair_10_n02791124_2484.JPEG
subject-05,1,153,0.579375982284546,clock,keyboard,128-10-10,0153_eid_s05_128-10-10_keyboard_10_n04505470_4770.JPEG
subject-05,1,154,0.625996112823486,boat,oven,16-3-10,0154_eid_s05_16-3-10_oven_10_n04111531_9474.JPEG
subject-05,1,155,0.785792112350464,bear,bicycle,16-3-10,0155_eid_s05_16-3-10_bicycle_10_n03792782_15598.JPEG
subject-05,1,156,0.734611034393311,car,car,8-10-10,0156_eid_s05_8-10-10_car_10_n03100240_11693.JPEG
subject-05,1,157,1.49482488632202,cat,knife,8-0-10,0157_eid_s05_8-0-10_knife_10_n03041632_32054.JPEG
subject-05,1,158,0.702863931655884,boat,chair,64-0-10,0158_eid_s05_64-0-10_chair_10_n04099969_7153.JPEG
subject-05,1,159,0.589440822601318,clock,chair,8-0-10,0159_eid_s05_8-0-10_chair_10_n02791124_70.JPEG
subject-05,1,160,0.755898952484131,bicycle,chair,128-0-10,0160_eid_s05_128-0-10_chair_10_n04099969_11279.JPEG
subject-05,1,161,0.602741956710815,cat,cat,1-0-10,0161_eid_s05_1-0-10_cat_10_n02123159_1231.JPEG
subject-05,1,162,0.617259979248047,boat,keyboard,128-3-10,0162_eid_s05_128-3-10_keyboard_10_n04505470_6272.JPEG
subject-05,1,163,0.533323049545288,cat,cat,2-3-10,0163_eid_s05_2-3-10_cat_10_n02123159_8786.JPEG
subject-05,1,164,0.772041082382202,bear,bicycle,16-0-10,0164_eid_s05_16-0-10_bicycle_10_n03792782_18516.JPEG
subject-05,1,165,1.0183219909668,truck,truck,1-10-10,0165_eid_s05_1-10-10_truck_10_n03796401_6402.JPEG
subject-05,1,166,0.572798013687134,keyboard,keyboard,2-0-10,0166_eid_s05_2-0-10_keyboard_10_n04505470_1351.JPEG
subject-05,1,167,1.02724695205688,chair,chair,1-3-10,0167_eid_s05_1-3-10_chair_10_n04429376_22670.JPEG
subject-05,1,168,0.875657796859741,bird,keyboard,64-3-10,0168_eid_s05_64-3-10_keyboard_10_n04505470_3314.JPEG
subject-05,1,169,0.613639116287231,car,bottle,64-0-10,0169_eid_s05_64-0-10_bottle_10_n04560804_2984.JPEG
subject-05,1,170,0.760655164718628,airplane,airplane,1-10-10,0170_eid_s05_1-10-10_airplane_10_n02690373_6031.JPEG
subject-05,1,171,0.598421096801758,airplane,airplane,4-10-10,0171_eid_s05_4-10-10_airplane_10_n02690373_7075.JPEG
subject-05,1,172,0.711350917816162,bicycle,truck,128-3-10,0172_eid_s05_128-3-10_truck_10_n03417042_5218.JPEG
subject-05,1,173,0.573227167129517,boat,bear,16-3-10,0173_eid_s05_16-3-10_bear_10_n02134418_5027.JPEG
subject-05,1,174,0.689706087112427,cat,chair,32-0-10,0174_eid_s05_32-0-10_chair_10_n04099969_5854.JPEG
subject-05,1,175,0.874359130859375,bird,bird,8-10-10,0175_eid_s05_8-10-10_bird_10_n01820546_2164.JPEG
subject-05,1,176,0.506364107131958,cat,bird,64-3-10,0176_eid_s05_64-3-10_bird_10_n01592084_284.JPEG
subject-05,1,177,1.21297311782837,truck,truck,2-3-10,0177_eid_s05_2-3-10_truck_10_n04467665_9041.JPEG
subject-05,1,178,0.636910915374756,car,knife,128-0-10,0178_eid_s05_128-0-10_knife_10_n03041632_105080.JPEG
subject-05,1,179,0.629132032394409,cat,keyboard,8-3-10,0179_eid_s05_8-3-10_keyboard_10_n04505470_4681.JPEG
subject-05,1,180,0.599633932113647,boat,knife,32-3-10,0180_eid_s05_32-3-10_knife_10_n03041632_82878.JPEG
subject-05,1,181,1.05445003509521,knife,knife,1-10-10,0181_eid_s05_1-10-10_knife_10_n03041632_32292.JPEG
subject-05,1,182,0.692836999893188,oven,clock,16-10-10,0182_eid_s05_16-10-10_clock_10_n03196217_7431.JPEG
subject-05,1,183,0.779288053512573,knife,knife,1-3-10,0183_eid_s05_1-3-10_knife_10_n03041632_43289.JPEG
subject-05,1,184,1.08792996406555,cat,bird,128-10-10,0184_eid_s05_128-10-10_bird_10_n02033041_3462.JPEG
subject-05,1,185,0.504877090454102,boat,chair,128-0-10,0185_eid_s05_128-0-10_chair_10_n04429376_28352.JPEG
subject-05,1,186,0.613135099411011,cat,cat,1-0-10,0186_eid_s05_1-0-10_cat_10_n02123159_514.JPEG
subject-05,1,187,0.756767988204956,dog,chair,128-0-10,0187_eid_s05_128-0-10_chair_10_n04099969_6293.JPEG
subject-05,1,188,0.627569913864136,bird,elephant,32-10-10,0188_eid_s05_32-10-10_elephant_10_n02504458_12776.JPEG
subject-05,1,189,0.7899489402771,cat,bear,16-0-10,0189_eid_s05_16-0-10_bear_10_n02133161_8850.JPEG
subject-05,1,190,1.03590297698975,bicycle,bicycle,4-10-10,0190_eid_s05_4-10-10_bicycle_10_n03792782_28970.JPEG
subject-05,1,191,0.719323873519897,bear,bottle,32-0-10,0191_eid_s05_32-0-10_bottle_10_n04560804_7723.JPEG
subject-05,1,192,1.21957111358643,oven,oven,2-10-10,0192_eid_s05_2-10-10_oven_10_n04111531_2473.JPEG
subject-05,1,193,0.64419412612915,knife,knife,2-10-10,0193_eid_s05_2-10-10_knife_10_n03041632_20194.JPEG
subject-05,1,194,0.621077060699463,bottle,bottle,2-10-10,0194_eid_s05_2-10-10_bottle_10_n04591713_11504.JPEG
subject-05,1,195,0.445943117141724,boat,bear,1-0-10,0195_eid_s05_1-0-10_bear_10_n02133161_13313.JPEG
subject-05,1,196,0.678383111953735,clock,clock,1-3-10,0196_eid_s05_1-3-10_clock_10_n04548280_4346.JPEG
subject-05,1,197,0.467511892318726,boat,knife,128-0-10,0197_eid_s05_128-0-10_knife_10_n03041632_49363.JPEG
subject-05,1,198,0.699854135513306,cat,cat,2-3-10,0198_eid_s05_2-3-10_cat_10_n02123159_6056.JPEG
subject-05,1,199,0.600942134857178,bird,keyboard,128-3-10,0199_eid_s05_128-3-10_keyboard_10_n04505470_2557.JPEG
subject-05,1,200,1.00096797943115,truck,truck,4-3-10,0200_eid_s05_4-3-10_truck_10_n03417042_9559.JPEG
subject-05,1,201,0.725589036941528,boat,bottle,32-10-10,0201_eid_s05_32-10-10_bottle_10_n03937543_4626.JPEG
subject-05,1,202,0.631849050521851,car,chair,32-10-10,0202_eid_s05_32-10-10_chair_10_n03376595_1831.JPEG
subject-05,1,203,0.796716928482056,elephant,elephant,2-0-10,0203_eid_s05_2-0-10_elephant_10_n02504013_1708.JPEG
subject-05,1,204,0.603028059005737,oven,oven,1-3-10,0204_eid_s05_1-3-10_oven_10_n04111531_14951.JPEG
subject-05,1,205,0.502846002578735,oven,oven,2-10-10,0205_eid_s05_2-10-10_oven_10_n04111531_1723.JPEG
subject-05,1,206,0.989435911178589,car,car,1-0-10,0206_eid_s05_1-0-10_car_10_n04285008_1313.JPEG
subject-05,1,207,0.636450052261353,cat,keyboard,4-10-10,0207_eid_s05_4-10-10_keyboard_10_n03085013_23483.JPEG
subject-05,1,208,0.829161882400513,boat,bear,64-3-10,0208_eid_s05_64-3-10_bear_10_n02133161_1707.JPEG
subject-05,1,209,0.745606184005737,bear,chair,16-0-10,0209_eid_s05_16-0-10_chair_10_n02791124_2772.JPEG
subject-05,1,210,0.846082925796509,elephant,elephant,8-10-10,0210_eid_s05_8-10-10_elephant_10_n02504458_4868.JPEG
subject-05,1,211,1.39272093772888,oven,boat,64-10-10,0211_eid_s05_64-10-10_boat_10_n04273569_14454.JPEG
subject-05,1,212,0.593117952346802,oven,oven,4-3-10,0212_eid_s05_4-3-10_oven_10_n04111531_8414.JPEG
subject-05,1,213,0.779088973999023,boat,bear,128-3-10,0213_eid_s05_128-3-10_bear_10_n02134084_7521.JPEG
subject-05,1,214,0.564059972763062,cat,cat,1-0-10,0214_eid_s05_1-0-10_cat_10_n02123045_10427.JPEG
subject-05,1,215,0.626416921615601,bicycle,car,16-3-10,0215_eid_s05_16-3-10_car_10_n04285008_8700.JPEG
subject-05,1,216,0.688634872436523,car,cat,64-0-10,0216_eid_s05_64-0-10_cat_10_n02123597_8611.JPEG
subject-05,1,217,0.611500024795532,truck,bear,64-0-10,0217_eid_s05_64-0-10_bear_10_n02132136_839.JPEG
subject-05,1,218,0.897941112518311,car,car,4-0-10,0218_eid_s05_4-0-10_car_10_n03100240_7153.JPEG
subject-05,1,219,0.649902105331421,cat,cat,64-10-10,0219_eid_s05_64-10-10_cat_10_n02123045_7334.JPEG
subject-05,1,220,0.612534046173096,cat,cat,128-10-10,0220_eid_s05_128-10-10_cat_10_n02123394_1924.JPEG
subject-05,1,221,0.528921842575073,cat,cat,1-3-10,0221_eid_s05_1-3-10_cat_10_n02124075_12316.JPEG
subject-05,1,222,0.575165033340454,boat,clock,16-3-10,0222_eid_s05_16-3-10_clock_10_n04548280_2604.JPEG
subject-05,1,223,0.622136116027832,cat,oven,16-10-10,0223_eid_s05_16-10-10_oven_10_n04111531_7266.JPEG
subject-05,1,224,0.699956893920898,bottle,airplane,128-0-10,0224_eid_s05_128-0-10_airplane_10_n02690373_4727.JPEG
subject-05,1,225,0.946671009063721,cat,bird,128-0-10,0225_eid_s05_128-0-10_bird_10_n01796340_1685.JPEG
subject-05,1,226,1.10946893692017,oven,bird,8-0-10,0226_eid_s05_8-0-10_bird_10_n02009229_2217.JPEG
subject-05,1,227,0.648094892501831,chair,chair,2-0-10,0227_eid_s05_2-0-10_chair_10_n03376595_13.JPEG
subject-05,1,228,0.924451112747192,bicycle,bicycle,4-0-10,0228_eid_s05_4-0-10_bicycle_10_n02835271_3990.JPEG
subject-05,1,229,0.678766965866089,boat,chair,32-3-10,0229_eid_s05_32-3-10_chair_10_n02791124_1469.JPEG
subject-05,1,230,0.641183853149414,cat,clock,32-10-10,0230_eid_s05_32-10-10_clock_10_n02708093_1380.JPEG
subject-05,1,231,0.56566596031189,cat,knife,128-10-10,0231_eid_s05_128-10-10_knife_10_n03041632_22051.JPEG
subject-05,1,232,0.458155155181885,clock,truck,128-3-10,0232_eid_s05_128-3-10_truck_10_n03417042_1561.JPEG
subject-05,1,233,0.628918170928955,oven,elephant,128-0-10,0233_eid_s05_128-0-10_elephant_10_n02504458_2908.JPEG
subject-05,1,234,0.751322031021118,keyboard,bird,128-3-10,0234_eid_s05_128-3-10_bird_10_n01514859_22749.JPEG
subject-05,1,235,0.881902933120728,car,clock,16-3-10,0235_eid_s05_16-3-10_clock_10_n04548280_7839.JPEG
subject-05,1,236,0.904036045074463,airplane,airplane,1-0-10,0236_eid_s05_1-0-10_airplane_10_n02690373_2874.JPEG
subject-05,1,237,0.605715990066528,bear,bear,8-0-10,0237_eid_s05_8-0-10_bear_10_n02133161_1346.JPEG
subject-05,1,238,0.883062124252319,keyboard,keyboard,4-10-10,0238_eid_s05_4-10-10_keyboard_10_n03085013_25066.JPEG
subject-05,1,239,0.69114089012146,boat,bear,2-10-10,0239_eid_s05_2-10-10_bear_10_n02133161_464.JPEG
subject-05,1,240,0.67560601234436,cat,bicycle,16-10-10,0240_eid_s05_16-10-10_bicycle_10_n02835271_12743.JPEG
subject-05,1,241,0.553758859634399,cat,bird,64-10-10,0241_eid_s05_64-10-10_bird_10_n01537544_1339.JPEG
subject-05,1,242,0.600658893585205,oven,chair,2-3-10,0242_eid_s05_2-3-10_chair_10_n04429376_1041.JPEG
subject-05,1,243,0.855165958404541,bicycle,oven,128-0-10,0243_eid_s05_128-0-10_oven_10_n04111531_6567.JPEG
subject-05,1,244,0.717749118804932,car,elephant,8-3-10,0244_eid_s05_8-3-10_elephant_10_n02504013_10659.JPEG
subject-05,1,245,0.902193069458008,truck,keyboard,128-0-10,0245_eid_s05_128-0-10_keyboard_10_n04505470_5149.JPEG
subject-05,1,246,0.732477903366089,airplane,airplane,2-0-10,0246_eid_s05_2-0-10_airplane_10_n02690373_12976.JPEG
subject-05,1,247,0.733096837997437,bottle,elephant,32-0-10,0247_eid_s05_32-0-10_elephant_10_n02504458_7955.JPEG
subject-05,1,248,0.925991058349609,dog,knife,8-3-10,0248_eid_s05_8-3-10_knife_10_n03041632_8563.JPEG
subject-05,1,249,0.526423931121826,cat,knife,128-3-10,0249_eid_s05_128-3-10_knife_10_n03041632_55083.JPEG
subject-05,1,250,0.680560111999512,cat,cat,1-10-10,0250_eid_s05_1-10-10_cat_10_n02123159_509.JPEG
subject-05,1,251,0.580864906311035,boat,keyboard,32-0-10,0251_eid_s05_32-0-10_keyboard_10_n04505470_4447.JPEG
subject-05,1,252,0.772545099258423,bear,bicycle,16-0-10,0252_eid_s05_16-0-10_bicycle_10_n02835271_20177.JPEG
subject-05,1,253,0.894798040390015,chair,chair,2-3-10,0253_eid_s05_2-3-10_chair_10_n04429376_53848.JPEG
subject-05,1,254,0.535181999206543,cat,airplane,128-10-10,0254_eid_s05_128-10-10_airplane_10_n02690373_6536.JPEG
subject-05,1,255,0.520395994186401,oven,bird,8-0-10,0255_eid_s05_8-0-10_bird_10_n02051845_3184.JPEG
subject-05,1,256,0.529109954833984,cat,bicycle,16-10-10,0256_eid_s05_16-10-10_bicycle_10_n03792782_7576.JPEG
subject-05,1,257,0.649070978164673,clock,bicycle,128-3-10,0257_eid_s05_128-3-10_bicycle_10_n03792782_3834.JPEG
subject-05,1,258,0.449737071990967,boat,airplane,32-0-10,0258_eid_s05_32-0-10_airplane_10_n02690373_1909.JPEG
subject-05,1,259,1.22605919837952,bird,airplane,32-10-10,0259_eid_s05_32-10-10_airplane_10_n02690373_6319.JPEG
subject-05,1,260,0.434446096420288,boat,dog,32-3-10,0260_eid_s05_32-3-10_dog_10_n02087394_3023.JPEG
subject-05,1,261,0.629549980163574,clock,clock,1-0-10,0261_eid_s05_1-0-10_clock_10_n04548280_530.JPEG
subject-05,1,262,0.636086940765381,car,car,2-3-10,0262_eid_s05_2-3-10_car_10_n03100240_1275.JPEG
subject-05,1,263,0.628427982330322,cat,car,128-0-10,0263_eid_s05_128-0-10_car_10_n03100240_17024.JPEG
subject-05,1,264,0.560962915420532,bicycle,bicycle,4-0-10,0264_eid_s05_4-0-10_bicycle_10_n03792782_37777.JPEG
subject-05,1,265,0.791389226913452,bicycle,bicycle,8-3-10,0265_eid_s05_8-3-10_bicycle_10_n02835271_11868.JPEG
subject-05,1,266,0.57614803314209,bottle,bottle,2-10-10,0266_eid_s05_2-10-10_bottle_10_n03937543_2603.JPEG
subject-05,1,267,0.522219896316528,boat,chair,16-10-10,0267_eid_s05_16-10-10_chair_10_n04099969_5453.JPEG
subject-05,1,268,0.90068507194519,airplane,airplane,16-3-10,0268_eid_s05_16-3-10_airplane_10_n02690373_3698.JPEG
subject-05,1,269,0.647150039672852,truck,truck,1-0-10,0269_eid_s05_1-0-10_truck_10_n04467665_7069.JPEG
subject-05,1,270,0.731024980545044,cat,bottle,32-0-10,0270_eid_s05_32-0-10_bottle_10_n02823428_9224.JPEG
subject-05,1,271,0.653698921203613,airplane,airplane,1-3-10,0271_eid_s05_1-3-10_airplane_10_n02690373_734.JPEG
subject-05,1,272,0.370146989822388,boat,bottle,128-10-10,0272_eid_s05_128-10-10_bottle_10_n04591713_7064.JPEG
subject-05,1,273,0.51668906211853,oven,chair,32-3-10,0273_eid_s05_32-3-10_chair_10_n04429376_24716.JPEG
subject-05,1,274,0.715298891067505,chair,bicycle,128-0-10,0274_eid_s05_128-0-10_bicycle_10_n03792782_4591.JPEG
subject-05,1,275,0.601956129074097,car,bottle,64-3-10,0275_eid_s05_64-3-10_bottle_10_n03983396_2182.JPEG
subject-05,1,276,1.05424404144287,car,truck,8-3-10,0276_eid_s05_8-3-10_truck_10_n04467665_32032.JPEG
subject-05,1,277,0.579646825790405,bird,boat,64-10-10,0277_eid_s05_64-10-10_boat_10_n03344393_5887.JPEG
subject-05,1,278,0.679585933685303,bear,clock,64-10-10,0278_eid_s05_64-10-10_clock_10_n04548280_5412.JPEG
subject-05,1,279,0.672240972518921,airplane,airplane,8-0-10,0279_eid_s05_8-0-10_airplane_10_n02690373_1171.JPEG
subject-05,1,280,0.742777109146118,keyboard,keyboard,1-0-10,0280_eid_s05_1-0-10_keyboard_10_n04505470_2446.JPEG
subject-05,1,281,0.772394895553589,truck,clock,8-0-10,0281_eid_s05_8-0-10_clock_10_n02708093_8047.JPEG
subject-05,1,282,1.01962208747864,knife,knife,128-0-10,0282_eid_s05_128-0-10_knife_10_n03041632_27575.JPEG
subject-05,1,283,0.68180513381958,chair,chair,2-10-10,0283_eid_s05_2-10-10_chair_10_n03376595_14658.JPEG
subject-05,1,284,0.858733892440796,bottle,truck,4-0-10,0284_eid_s05_4-0-10_truck_10_n03796401_25570.JPEG
subject-05,1,285,0.567550897598267,boat,oven,128-10-10,0285_eid_s05_128-10-10_oven_10_n04111531_3159.JPEG
subject-05,1,286,0.697647094726562,car,car,2-10-10,0286_eid_s05_2-10-10_car_10_n02814533_53757.JPEG
subject-05,1,287,0.684234857559204,truck,truck,2-10-10,0287_eid_s05_2-10-10_truck_10_n03417042_9240.JPEG
subject-05,1,288,0.630692958831787,chair,chair,4-10-10,0288_eid_s05_4-10-10_chair_10_n02791124_7935.JPEG
subject-05,1,289,0.569164991378784,cat,knife,64-10-10,0289_eid_s05_64-10-10_knife_10_n03041632_13742.JPEG
subject-05,1,290,0.532033920288086,boat,boat,64-0-10,0290_eid_s05_64-0-10_boat_10_n04273569_4327.JPEG
subject-05,1,291,0.632554054260254,clock,clock,1-3-10,0291_eid_s05_1-3-10_clock_10_n04548280_7969.JPEG
subject-05,1,292,0.925390005111694,clock,clock,4-3-10,0292_eid_s05_4-3-10_clock_10_n04548280_6922.JPEG
subject-05,1,293,1.04789113998413,oven,clock,2-0-10,0293_eid_s05_2-0-10_clock_10_n02708093_1598.JPEG
subject-05,1,294,0.610321998596191,bear,bear,1-3-10,0294_eid_s05_1-3-10_bear_10_n02134084_7424.JPEG
subject-05,1,295,0.625017881393433,cat,bicycle,32-0-10,0295_eid_s05_32-0-10_bicycle_10_n03792782_3928.JPEG
subject-05,1,296,0.765527963638306,cat,oven,32-0-10,0296_eid_s05_32-0-10_oven_10_n04111531_7965.JPEG
subject-05,1,297,0.478377103805542,boat,bottle,128-3-10,0297_eid_s05_128-3-10_bottle_10_n04557648_1403.JPEG
subject-05,1,298,0.725121021270752,oven,oven,1-0-10,0298_eid_s05_1-0-10_oven_10_n04111531_5126.JPEG
subject-05,1,299,1.30225896835327,car,boat,4-3-10,0299_eid_s05_4-3-10_boat_10_n03662601_2061.JPEG
subject-05,1,300,0.694386005401611,boat,clock,128-3-10,0300_eid_s05_128-3-10_clock_10_n04548280_4073.JPEG
subject-05,1,301,0.924530982971191,dog,dog,1-10-10,0301_eid_s05_1-10-10_dog_10_n02099849_7881.JPEG
subject-05,1,302,0.64875602722168,chair,airplane,32-0-10,0302_eid_s05_32-0-10_airplane_10_n02690373_5773.JPEG
subject-05,1,303,0.779821157455444,elephant,elephant,1-10-10,0303_eid_s05_1-10-10_elephant_10_n02504013_5890.JPEG
subject-05,1,304,0.850708961486816,keyboard,bottle,32-10-10,0304_eid_s05_32-10-10_bottle_10_n03937543_1624.JPEG
subject-05,1,305,0.664224863052368,airplane,elephant,16-0-10,0305_eid_s05_16-0-10_elephant_10_n02504013_5213.JPEG
subject-05,1,306,0.832317113876343,car,car,8-10-10,0306_eid_s05_8-10-10_car_10_n03100240_5018.JPEG
subject-05,1,307,0.603302955627441,boat,bottle,16-3-10,0307_eid_s05_16-3-10_bottle_10_n03937543_10631.JPEG
subject-05,1,308,0.533800840377808,cat,oven,64-10-10,0308_eid_s05_64-10-10_oven_10_n04111531_12129.JPEG
subject-05,1,309,0.550348043441772,bear,bottle,64-0-10,0309_eid_s05_64-0-10_bottle_10_n04560804_15674.JPEG
subject-05,1,310,1.2722020149231,bicycle,truck,32-3-10,0310_eid_s05_32-3-10_truck_10_n04467665_30189.JPEG
subject-05,1,311,0.748818874359131,boat,clock,64-10-10,0311_eid_s05_64-10-10_clock_10_n04548280_15154.JPEG
subject-05,1,312,1.2196900844574,elephant,elephant,2-3-10,0312_eid_s05_2-3-10_elephant_10_n02504013_27.JPEG
subject-05,1,313,0.620306968688965,cat,keyboard,16-3-10,0313_eid_s05_16-3-10_keyboard_10_n04505470_2275.JPEG
subject-05,1,314,0.829159021377563,airplane,airplane,1-3-10,0314_eid_s05_1-3-10_airplane_10_n02690373_2981.JPEG
subject-05,1,315,0.98935604095459,truck,truck,4-0-10,0315_eid_s05_4-0-10_truck_10_n04467665_30504.JPEG
subject-05,1,316,0.88991904258728,car,oven,4-0-10,0316_eid_s05_4-0-10_oven_10_n04111531_15489.JPEG
subject-05,1,317,0.506249189376831,cat,elephant,32-0-10,0317_eid_s05_32-0-10_elephant_10_n02504458_1903.JPEG
subject-05,1,318,0.436739921569824,boat,bottle,64-0-10,0318_eid_s05_64-0-10_bottle_10_n03983396_11719.JPEG
subject-05,1,319,0.628552913665771,cat,car,8-3-10,0319_eid_s05_8-3-10_car_10_n03100240_7836.JPEG
subject-05,1,320,0.612890005111694,clock,clock,1-3-10,0320_eid_s05_1-3-10_clock_10_n04548280_8841.JPEG
subject-05,1,321,0.435580015182495,boat,chair,128-3-10,0321_eid_s05_128-3-10_chair_10_n04429376_32124.JPEG
subject-05,1,322,0.728395938873291,bicycle,knife,1-0-10,0322_eid_s05_1-0-10_knife_10_n03041632_6309.JPEG
subject-05,1,323,0.775012016296387,bear,oven,128-0-10,0323_eid_s05_128-0-10_oven_10_n04111531_22445.JPEG
subject-05,1,324,0.545101881027222,cat,oven,8-0-10,0324_eid_s05_8-0-10_oven_10_n04111531_887.JPEG
subject-05,1,325,0.4757080078125,clock,clock,4-0-10,0325_eid_s05_4-0-10_clock_10_n04548280_3827.JPEG
subject-05,1,326,0.437875032424927,boat,keyboard,32-3-10,0326_eid_s05_32-3-10_keyboard_10_n04505470_209.JPEG
subject-05,1,327,0.39034104347229,clock,keyboard,32-3-10,0327_eid_s05_32-3-10_keyboard_10_n03085013_23865.JPEG
subject-05,1,328,0.515172958374023,car,airplane,128-0-10,0328_eid_s05_128-0-10_airplane_10_n02690373_1933.JPEG
subject-05,1,329,0.607733964920044,bear,bicycle,64-3-10,0329_eid_s05_64-3-10_bicycle_10_n02835271_9204.JPEG
subject-05,1,330,1.00519704818726,knife,knife,2-0-10,0330_eid_s05_2-0-10_knife_10_n03041632_42841.JPEG
subject-05,1,331,0.697715997695923,keyboard,keyboard,32-0-10,0331_eid_s05_32-0-10_keyboard_10_n04505470_1043.JPEG
subject-05,1,332,0.798341035842896,bicycle,bicycle,1-0-10,0332_eid_s05_1-0-10_bicycle_10_n02835271_4838.JPEG
subject-05,1,333,0.490473985671997,cat,truck,32-10-10,0333_eid_s05_32-10-10_truck_10_n03417042_11306.JPEG
subject-05,1,334,0.667335033416748,bottle,bottle,2-3-10,0334_eid_s05_2-3-10_bottle_10_n02823428_3972.JPEG
subject-05,1,335,0.775660037994385,dog,dog,1-0-10,0335_eid_s05_1-0-10_dog_10_n02100877_25579.JPEG
subject-05,1,336,0.540034055709839,cat,bird,128-3-10,0336_eid_s05_128-3-10_bird_10_n02011460_20015.JPEG
subject-05,1,337,0.415968894958496,boat,dog,32-0-10,0337_eid_s05_32-0-10_dog_10_n02091831_8843.JPEG
subject-05,1,338,0.57045578956604,cat,oven,16-0-10,0338_eid_s05_16-0-10_oven_10_n04111531_9026.JPEG
subject-05,1,339,1.42289590835571,bird,bird,4-3-10,0339_eid_s05_4-3-10_bird_10_n01582220_9819.JPEG
subject-05,1,340,0.909548997879028,dog,dog,8-3-10,0340_eid_s05_8-3-10_dog_10_n02085936_14147.JPEG
subject-05,1,341,0.864501953125,cat,dog,16-10-10,0341_eid_s05_16-10-10_dog_10_n02104029_5539.JPEG
subject-05,1,342,0.524702072143555,cat,cat,2-3-10,0342_eid_s05_2-3-10_cat_10_n02123394_482.JPEG
subject-05,1,343,0.49533486366272,cat,car,64-10-10,0343_eid_s05_64-10-10_car_10_n02814533_12449.JPEG
subject-05,1,344,0.742082118988037,bicycle,bicycle,1-0-10,0344_eid_s05_1-0-10_bicycle_10_n02835271_4246.JPEG
subject-05,1,345,0.448909997940063,cat,cat,1-0-10,0345_eid_s05_1-0-10_cat_10_n02123394_1678.JPEG
subject-05,1,346,0.488677024841309,cat,elephant,64-0-10,0346_eid_s05_64-0-10_elephant_10_n02504458_3329.JPEG
subject-05,1,347,0.487516164779663,boat,clock,128-10-10,0347_eid_s05_128-10-10_clock_10_n04548280_7588.JPEG
subject-05,1,348,0.763263940811157,bottle,bottle,2-3-10,0348_eid_s05_2-3-10_bottle_10_n04591713_957.JPEG
subject-05,1,349,0.696177959442139,bear,bird,32-3-10,0349_eid_s05_32-3-10_bird_10_n02037110_3524.JPEG
subject-05,1,350,NaN,na,knife,1-0-10,0350_eid_s05_1-0-10_knife_10_n03041632_2390.JPEG
subject-05,1,351,0.65160608291626,oven,dog,128-0-10,0351_eid_s05_128-0-10_dog_10_n02106166_23174.JPEG
subject-05,1,352,0.481997013092041,boat,dog,128-0-10,0352_eid_s05_128-0-10_dog_10_n02107142_9355.JPEG
subject-05,1,353,0.613556861877441,clock,clock,4-10-10,0353_eid_s05_4-10-10_clock_10_n02708093_433.JPEG
subject-05,1,354,1.13016700744629,bicycle,oven,8-10-10,0354_eid_s05_8-10-10_oven_10_n04111531_17917.JPEG
subject-05,1,355,0.584688901901245,clock,clock,4-10-10,0355_eid_s05_4-10-10_clock_10_n04548280_6919.JPEG
subject-05,1,356,0.893594026565552,elephant,elephant,2-0-10,0356_eid_s05_2-0-10_elephant_10_n02504458_13179.JPEG
subject-05,1,357,0.77004599571228,bird,bicycle,32-0-10,0357_eid_s05_32-0-10_bicycle_10_n03792782_9991.JPEG
subject-05,1,358,0.73274302482605,knife,knife,2-10-10,0358_eid_s05_2-10-10_knife_10_n03041632_10777.JPEG
subject-05,1,359,0.770981073379517,boat,keyboard,16-3-10,0359_eid_s05_16-3-10_keyboard_10_n04505470_1179.JPEG
subject-05,1,360,0.769268989562988,car,chair,16-3-10,0360_eid_s05_16-3-10_chair_10_n04429376_6390.JPEG
subject-05,1,361,0.576640844345093,cat,oven,4-0-10,0361_eid_s05_4-0-10_oven_10_n04111531_19742.JPEG
subject-05,1,362,0.624587059020996,bear,dog,128-0-10,0362_eid_s05_128-0-10_dog_10_n02092339_6449.JPEG
subject-05,1,363,0.741305112838745,boat,boat,1-0-10,0363_eid_s05_1-0-10_boat_10_n02951358_30643.JPEG
subject-05,1,364,0.603878021240234,clock,keyboard,64-10-10,0364_eid_s05_64-10-10_keyboard_10_n03085013_5751.JPEG
subject-05,1,365,0.596385955810547,bicycle,car,64-3-10,0365_eid_s05_64-3-10_car_10_n03100240_17041.JPEG
subject-05,1,366,0.67288613319397,cat,bear,64-10-10,0366_eid_s05_64-10-10_bear_10_n02133161_1502.JPEG
subject-05,1,367,1.01141500473022,clock,clock,8-3-10,0367_eid_s05_8-3-10_clock_10_n03196217_170.JPEG
subject-05,1,368,0.580173015594482,boat,bottle,16-3-10,0368_eid_s05_16-3-10_bottle_10_n03983396_3989.JPEG
subject-05,1,369,0.596465110778809,bear,oven,16-10-10,0369_eid_s05_16-10-10_oven_10_n04111531_3976.JPEG
subject-05,1,370,0.58883810043335,bicycle,bicycle,2-3-10,0370_eid_s05_2-3-10_bicycle_10_n02835271_14891.JPEG
subject-05,1,371,0.551460981369019,cat,clock,64-3-10,0371_eid_s05_64-3-10_clock_10_n02708093_612.JPEG
subject-05,1,372,0.489954948425293,boat,bear,128-0-10,0372_eid_s05_128-0-10_bear_10_n02133161_1224.JPEG
subject-05,1,373,0.565984010696411,oven,truck,32-3-10,0373_eid_s05_32-3-10_truck_10_n04467665_30588.JPEG
subject-05,1,374,0.83512020111084,bear,bear,1-0-10,0374_eid_s05_1-0-10_bear_10_n02134084_33483.JPEG
subject-05,1,375,1.5003080368042,car,airplane,32-10-10,0375_eid_s05_32-10-10_airplane_10_n02690373_9059.JPEG
subject-05,1,376,0.660414934158325,boat,truck,32-10-10,0376_eid_s05_32-10-10_truck_10_n04467665_69882.JPEG
subject-05,1,377,0.598016023635864,cat,knife,4-0-10,0377_eid_s05_4-0-10_knife_10_n03041632_39739.JPEG
subject-05,1,378,0.658618927001953,clock,airplane,16-3-10,0378_eid_s05_16-3-10_airplane_10_n02690373_4946.JPEG
subject-05,1,379,0.864357948303223,chair,cat,16-3-10,0379_eid_s05_16-3-10_cat_10_n02123045_11809.JPEG
subject-05,1,380,0.803685903549194,car,car,4-10-10,0380_eid_s05_4-10-10_car_10_n04285008_12045.JPEG
subject-05,1,381,1.25800800323486,cat,bird,8-0-10,0381_eid_s05_8-0-10_bird_10_n01582220_10761.JPEG
subject-05,1,382,0.826756954193115,bottle,bottle,64-3-10,0382_eid_s05_64-3-10_bottle_10_n04557648_7775.JPEG
subject-05,1,383,0.548125982284546,cat,cat,16-10-10,0383_eid_s05_16-10-10_cat_10_n02124075_10047.JPEG
subject-05,1,384,0.418812990188599,boat,chair,64-0-10,0384_eid_s05_64-0-10_chair_10_n04099969_42972.JPEG
subject-05,1,385,0.778685808181763,airplane,airplane,4-3-10,0385_eid_s05_4-3-10_airplane_10_n02690373_2095.JPEG
subject-05,1,386,0.841547012329102,bicycle,knife,32-3-10,0386_eid_s05_32-3-10_knife_10_n03041632_51256.JPEG
subject-05,1,387,1.11729598045349,cat,cat,64-10-10,0387_eid_s05_64-10-10_cat_10_n02123597_4300.JPEG
subject-05,1,388,0.633883953094482,car,car,4-10-10,0388_eid_s05_4-10-10_car_10_n03100240_7592.JPEG
subject-05,1,389,0.618324041366577,boat,boat,1-10-10,0389_eid_s05_1-10-10_boat_10_n04273569_18057.JPEG
subject-05,1,390,0.700218915939331,bear,chair,32-0-10,0390_eid_s05_32-0-10_chair_10_n03376595_3887.JPEG
subject-05,1,391,0.670625925064087,car,car,8-3-10,0391_eid_s05_8-3-10_car_10_n03100240_5432.JPEG
subject-05,1,392,0.830857038497925,cat,bicycle,64-10-10,0392_eid_s05_64-10-10_bicycle_10_n02835271_3338.JPEG
subject-05,1,393,0.88322901725769,elephant,elephant,2-0-10,0393_eid_s05_2-0-10_elephant_10_n02504458_296.JPEG
subject-05,1,394,0.777132987976074,bear,cat,128-3-10,0394_eid_s05_128-3-10_cat_10_n02125311_19894.JPEG
subject-05,1,395,0.753955841064453,cat,dog,2-10-10,0395_eid_s05_2-10-10_dog_10_n02093647_2786.JPEG
subject-05,1,396,1.08313298225403,bear,bear,2-3-10,0396_eid_s05_2-3-10_bear_10_n02133161_5529.JPEG
subject-05,1,397,1.45957589149475,bicycle,bicycle,1-10-10,0397_eid_s05_1-10-10_bicycle_10_n02835271_759.JPEG
subject-05,1,398,NaN,na,keyboard,128-3-10,0398_eid_s05_128-3-10_keyboard_10_n04505470_5070.JPEG
subject-05,1,399,0.857539892196655,knife,airplane,2-0-10,0399_eid_s05_2-0-10_airplane_10_n02690373_1912.JPEG
subject-05,1,400,0.5416419506073,cat,car,128-10-10,0400_eid_s05_128-10-10_car_10_n03100240_830.JPEG
subject-05,1,401,0.571979999542236,boat,keyboard,64-3-10,0401_eid_s05_64-3-10_keyboard_10_n03085013_17452.JPEG
subject-05,1,402,0.618430137634277,car,bird,8-10-10,0402_eid_s05_8-10-10_bird_10_n01601694_1368.JPEG
subject-05,1,403,0.97317910194397,car,car,4-0-10,0403_eid_s05_4-0-10_car_10_n04285008_6087.JPEG
subject-05,1,404,0.670235872268677,bird,chair,128-0-10,0404_eid_s05_128-0-10_chair_10_n02791124_2614.JPEG
subject-05,1,405,0.931035041809082,bottle,knife,16-0-10,0405_eid_s05_16-0-10_knife_10_n03041632_33198.JPEG
subject-05,1,406,0.663299083709717,airplane,airplane,1-0-10,0406_eid_s05_1-0-10_airplane_10_n02690373_2579.JPEG
subject-05,1,407,0.756131172180176,boat,keyboard,16-0-10,0407_eid_s05_16-0-10_keyboard_10_n04505470_4917.JPEG
subject-05,1,408,0.702439069747925,car,boat,4-10-10,0408_eid_s05_4-10-10_boat_10_n03344393_7327.JPEG
subject-05,1,409,0.909053802490234,dog,dog,8-0-10,0409_eid_s05_8-0-10_dog_10_n02106550_5706.JPEG
subject-05,1,410,0.571426153182983,cat,dog,16-3-10,0410_eid_s05_16-3-10_dog_10_n02087046_2850.JPEG
subject-05,1,411,0.602717876434326,boat,cat,16-10-10,0411_eid_s05_16-10-10_cat_10_n02124075_9066.JPEG
subject-05,1,412,0.886859178543091,bear,knife,64-10-10,0412_eid_s05_64-10-10_knife_10_n03041632_14801.JPEG
subject-05,1,413,0.617833137512207,cat,bird,32-0-10,0413_eid_s05_32-0-10_bird_10_n02013706_7840.JPEG
subject-05,1,414,0.802381992340088,keyboard,keyboard,1-10-10,0414_eid_s05_1-10-10_keyboard_10_n03085013_18891.JPEG
subject-05,1,415,0.489187002182007,boat,boat,4-3-10,0415_eid_s05_4-3-10_boat_10_n04612504_10936.JPEG
subject-05,1,416,1.11610507965088,car,car,4-10-10,0416_eid_s05_4-10-10_car_10_n02814533_24181.JPEG
subject-05,1,417,0.592782020568848,boat,bottle,16-10-10,0417_eid_s05_16-10-10_bottle_10_n03937543_3160.JPEG
subject-05,1,418,0.755384206771851,cat,cat,64-10-10,0418_eid_s05_64-10-10_cat_10_n02124075_11645.JPEG
subject-05,1,419,0.65381908416748,boat,truck,16-0-10,0419_eid_s05_16-0-10_truck_10_n03796401_16472.JPEG
subject-05,1,420,0.816077947616577,bear,oven,64-0-10,0420_eid_s05_64-0-10_oven_10_n04111531_1847.JPEG
subject-05,1,421,0.638673067092896,clock,dog,32-10-10,0421_eid_s05_32-10-10_dog_10_n02093256_836.JPEG
subject-05,1,422,0.538823127746582,boat,dog,16-0-10,0422_eid_s05_16-0-10_dog_10_n02094433_1881.JPEG
subject-05,1,423,0.661740064620972,cat,dog,64-10-10,0423_eid_s05_64-10-10_dog_10_n02105056_12526.JPEG
subject-05,1,424,0.700275897979736,oven,bear,64-3-10,0424_eid_s05_64-3-10_bear_10_n02132136_16055.JPEG
subject-05,1,425,0.714532852172852,car,keyboard,32-3-10,0425_eid_s05_32-3-10_keyboard_10_n03085013_19724.JPEG
subject-05,1,426,0.753530979156494,cat,cat,4-10-10,0426_eid_s05_4-10-10_cat_10_n02124075_3407.JPEG
subject-05,1,427,0.531930923461914,cat,dog,32-10-10,0427_eid_s05_32-10-10_dog_10_n02113023_3245.JPEG
subject-05,1,428,0.70073390007019,dog,dog,16-10-10,0428_eid_s05_16-10-10_dog_10_n02099267_4653.JPEG
subject-05,1,429,0.50873589515686,cat,boat,8-0-10,0429_eid_s05_8-0-10_boat_10_n02951358_34418.JPEG
subject-05,1,430,0.777105093002319,dog,dog,1-0-10,0430_eid_s05_1-0-10_dog_10_n02096294_7519.JPEG
subject-05,1,431,0.493683099746704,cat,bottle,8-0-10,0431_eid_s05_8-0-10_bottle_10_n04560804_5886.JPEG
subject-05,1,432,0.575438022613525,bottle,bear,8-0-10,0432_eid_s05_8-0-10_bear_10_n02134084_40633.JPEG
subject-05,1,433,0.813896179199219,dog,dog,1-0-10,0433_eid_s05_1-0-10_dog_10_n02105056_14438.JPEG
subject-05,1,434,0.930341005325317,dog,car,8-0-10,0434_eid_s05_8-0-10_car_10_n03100240_9558.JPEG
subject-05,1,435,0.468788146972656,cat,bird,16-0-10,0435_eid_s05_16-0-10_bird_10_n01530575_10677.JPEG
subject-05,1,436,0.74245810508728,truck,truck,16-10-10,0436_eid_s05_16-10-10_truck_10_n03417042_9128.JPEG
subject-05,1,437,0.758816957473755,bear,truck,32-10-10,0437_eid_s05_32-10-10_truck_10_n04467665_11776.JPEG
subject-05,1,438,0.65131688117981,bicycle,bicycle,4-10-10,0438_eid_s05_4-10-10_bicycle_10_n03792782_19116.JPEG
subject-05,1,439,0.766503810882568,boat,boat,32-3-10,0439_eid_s05_32-3-10_boat_10_n02951358_31813.JPEG
subject-05,1,440,0.598945140838623,airplane,airplane,1-3-10,0440_eid_s05_1-3-10_airplane_10_n02690373_4183.JPEG
subject-05,1,441,0.629086971282959,cat,truck,128-0-10,0441_eid_s05_128-0-10_truck_10_n04467665_67560.JPEG
subject-05,1,442,0.789742946624756,bicycle,clock,128-10-10,0442_eid_s05_128-10-10_clock_10_n02708093_2043.JPEG
subject-05,1,443,0.574189186096191,boat,bird,4-0-10,0443_eid_s05_4-0-10_bird_10_n01514859_17434.JPEG
subject-05,1,444,0.675074815750122,airplane,airplane,16-10-10,0444_eid_s05_16-10-10_airplane_10_n02690373_2569.JPEG
subject-05,1,445,0.591601133346558,cat,car,64-0-10,0445_eid_s05_64-0-10_car_10_n02814533_88831.JPEG
subject-05,1,446,0.681702852249146,boat,airplane,8-0-10,0446_eid_s05_8-0-10_airplane_10_n02690373_4992.JPEG
subject-05,1,447,0.89082407951355,bottle,bottle,2-3-10,0447_eid_s05_2-3-10_bottle_10_n04560804_6213.JPEG
subject-05,1,448,0.875124931335449,cat,knife,64-0-10,0448_eid_s05_64-0-10_knife_10_n03041632_10796.JPEG
subject-05,1,449,0.628949165344238,cat,bear,4-0-10,0449_eid_s05_4-0-10_bear_10_n02133161_5811.JPEG
subject-05,1,450,0.683527946472168,bicycle,bicycle,1-0-10,0450_eid_s05_1-0-10_bicycle_10_n02835271_11933.JPEG
subject-05,1,451,0.806902885437012,bear,bear,1-3-10,0451_eid_s05_1-3-10_bear_10_n02134084_5471.JPEG
subject-05,1,452,0.674978017807007,cat,cat,4-0-10,0452_eid_s05_4-0-10_cat_10_n02123394_3926.JPEG
subject-05,1,453,0.753052949905396,boat,bird,4-10-10,0453_eid_s05_4-10-10_bird_10_n02009229_4231.JPEG
subject-05,1,454,0.638206958770752,cat,bicycle,32-3-10,0454_eid_s05_32-3-10_bicycle_10_n02835271_3308.JPEG
subject-05,1,455,0.668967008590698,oven,keyboard,16-10-10,0455_eid_s05_16-10-10_keyboard_10_n04505470_2669.JPEG
subject-05,1,456,0.561508893966675,boat,bottle,128-0-10,0456_eid_s05_128-0-10_bottle_10_n02823428_6907.JPEG
subject-05,1,457,1.04580211639404,bird,clock,32-3-10,0457_eid_s05_32-3-10_clock_10_n03196217_7533.JPEG
subject-05,1,458,0.784718990325928,car,keyboard,64-0-10,0458_eid_s05_64-0-10_keyboard_10_n03085013_7962.JPEG
subject-05,1,459,1.0697660446167,boat,elephant,128-3-10,0459_eid_s05_128-3-10_elephant_10_n02504458_5231.JPEG
subject-05,1,460,1.04092192649841,cat,keyboard,64-3-10,0460_eid_s05_64-3-10_keyboard_10_n03085013_19412.JPEG
subject-05,1,461,0.455132961273193,chair,airplane,128-3-10,0461_eid_s05_128-3-10_airplane_10_n02690373_3775.JPEG
subject-05,1,462,1.36971592903137,dog,oven,2-3-10,0462_eid_s05_2-3-10_oven_10_n04111531_5940.JPEG
subject-05,1,463,0.924777030944824,dog,dog,1-0-10,0463_eid_s05_1-0-10_dog_10_n02105162_445.JPEG
subject-05,1,464,0.787768125534058,dog,dog,1-10-10,0464_eid_s05_1-10-10_dog_10_n02105251_2857.JPEG
subject-05,1,465,0.772622108459473,cat,clock,2-10-10,0465_eid_s05_2-10-10_clock_10_n04548280_596.JPEG
subject-05,1,466,0.472713947296143,boat,knife,32-10-10,0466_eid_s05_32-10-10_knife_10_n03041632_52929.JPEG
subject-05,1,467,0.579192876815796,bear,bird,4-0-10,0467_eid_s05_4-0-10_bird_10_n02037110_4287.JPEG
subject-05,1,468,0.793159008026123,car,car,128-3-10,0468_eid_s05_128-3-10_car_10_n02814533_94371.JPEG
subject-05,1,469,0.986302137374878,bird,boat,16-3-10,0469_eid_s05_16-3-10_boat_10_n02951358_10015.JPEG
subject-05,1,470,0.940639019012451,chair,oven,16-0-10,0470_eid_s05_16-0-10_oven_10_n04111531_11634.JPEG
subject-05,1,471,0.947333097457886,dog,dog,4-10-10,0471_eid_s05_4-10-10_dog_10_n02100877_2655.JPEG
subject-05,1,472,0.8319411277771,cat,truck,64-10-10,0472_eid_s05_64-10-10_truck_10_n03417042_12095.JPEG
subject-05,1,473,1.32419395446777,bottle,knife,16-3-10,0473_eid_s05_16-3-10_knife_10_n03041632_20413.JPEG
subject-05,1,474,0.571086168289185,cat,cat,2-3-10,0474_eid_s05_2-3-10_cat_10_n02123597_10148.JPEG
subject-05,1,475,0.633653163909912,cat,bear,64-0-10,0475_eid_s05_64-0-10_bear_10_n02133161_15450.JPEG
subject-05,1,476,0.464164018630981,boat,clock,16-0-10,0476_eid_s05_16-0-10_clock_10_n03196217_3465.JPEG
subject-05,1,477,0.908358097076416,airplane,airplane,16-10-10,0477_eid_s05_16-10-10_airplane_10_n02690373_5142.JPEG
subject-05,1,478,0.78706693649292,cat,cat,1-3-10,0478_eid_s05_1-3-10_cat_10_n02123159_433.JPEG
subject-05,1,479,0.502058982849121,cat,chair,32-3-10,0479_eid_s05_32-3-10_chair_10_n04099969_2109.JPEG
subject-05,1,480,0.456575870513916,boat,chair,64-10-10,0480_eid_s05_64-10-10_chair_10_n02791124_666.JPEG
subject-05,1,481,0.511420011520386,bear,clock,64-0-10,0481_eid_s05_64-0-10_clock_10_n03196217_847.JPEG
subject-05,1,482,0.817577123641968,dog,dog,4-10-10,0482_eid_s05_4-10-10_dog_10_n02091244_3419.JPEG
subject-05,1,483,0.401296138763428,boat,keyboard,128-0-10,0483_eid_s05_128-0-10_keyboard_10_n04505470_5147.JPEG
subject-05,1,484,0.561869144439697,bottle,bottle,1-0-10,0484_eid_s05_1-0-10_bottle_10_n02823428_13705.JPEG
subject-05,1,485,0.446677923202515,cat,clock,32-3-10,0485_eid_s05_32-3-10_clock_10_n04548280_3716.JPEG
subject-05,1,486,0.555010080337524,bottle,bottle,1-0-10,0486_eid_s05_1-0-10_bottle_10_n04591713_7489.JPEG
subject-05,1,487,0.816037893295288,dog,dog,4-0-10,0487_eid_s05_4-0-10_dog_10_n02105505_1156.JPEG
subject-05,1,488,0.846304893493652,airplane,airplane,32-10-10,0488_eid_s05_32-10-10_airplane_10_n02690373_5130.JPEG
subject-05,1,489,0.592992067337036,knife,bear,128-10-10,0489_eid_s05_128-10-10_bear_10_n02134084_3931.JPEG
subject-05,1,490,0.385634183883667,boat,car,32-0-10,0490_eid_s05_32-0-10_car_10_n03100240_17517.JPEG
subject-05,1,491,0.545532941818237,cat,dog,32-10-10,0491_eid_s05_32-10-10_dog_10_n02102177_2810.JPEG
subject-05,1,492,1.50037813186646,dog,dog,1-10-10,0492_eid_s05_1-10-10_dog_10_n02092339_192.JPEG
subject-05,1,493,0.585039854049683,bicycle,bicycle,4-3-10,0493_eid_s05_4-3-10_bicycle_10_n03792782_11241.JPEG
subject-05,1,494,0.491181135177612,bicycle,bicycle,1-0-10,0494_eid_s05_1-0-10_bicycle_10_n03792782_65868.JPEG
subject-05,1,495,0.707832098007202,oven,oven,1-10-10,0495_eid_s05_1-10-10_oven_10_n04111531_458.JPEG
subject-05,1,496,0.568867921829224,boat,oven,16-0-10,0496_eid_s05_16-0-10_oven_10_n04111531_2296.JPEG
subject-05,1,497,0.777426958084106,bear,knife,32-3-10,0497_eid_s05_32-3-10_knife_10_n03041632_86338.JPEG
subject-05,1,498,0.569180011749268,cat,bird,8-3-10,0498_eid_s05_8-3-10_bird_10_n02051845_42292.JPEG
subject-05,1,499,1.00584602355957,bear,bear,2-0-10,0499_eid_s05_2-0-10_bear_10_n02134084_15016.JPEG
subject-05,1,500,0.760921955108643,oven,bird,128-3-10,0500_eid_s05_128-3-10_bird_10_n02027492_415.JPEG
subject-05,1,501,0.753481864929199,cat,bear,32-0-10,0501_eid_s05_32-0-10_bear_10_n02133161_8710.JPEG
subject-05,1,502,0.807996034622192,airplane,bird,16-0-10,0502_eid_s05_16-0-10_bird_10_n02006656_1468.JPEG
subject-05,1,503,0.838705062866211,keyboard,keyboard,2-10-10,0503_eid_s05_2-10-10_keyboard_10_n03085013_1188.JPEG
subject-05,1,504,1.49117302894592,elephant,cat,64-3-10,0504_eid_s05_64-3-10_cat_10_n02125311_10649.JPEG
subject-05,1,505,0.724080085754395,bear,bear,2-0-10,0505_eid_s05_2-0-10_bear_10_n02134418_4685.JPEG
subject-05,1,506,0.638375043869019,oven,bear,4-0-10,0506_eid_s05_4-0-10_bear_10_n02134418_5115.JPEG
subject-05,1,507,0.554925918579102,bicycle,bicycle,2-0-10,0507_eid_s05_2-0-10_bicycle_10_n02835271_1979.JPEG
subject-05,1,508,0.761452913284302,elephant,elephant,4-10-10,0508_eid_s05_4-10-10_elephant_10_n02504013_2149.JPEG
subject-05,1,509,0.800406932830811,car,keyboard,16-0-10,0509_eid_s05_16-0-10_keyboard_10_n04505470_3551.JPEG
subject-05,1,510,0.60096001625061,clock,clock,1-0-10,0510_eid_s05_1-0-10_clock_10_n02708093_3177.JPEG
subject-05,1,511,0.798882961273193,bird,bird,8-10-10,0511_eid_s05_8-10-10_bird_10_n02009229_19315.JPEG
subject-05,1,512,0.875224113464355,oven,bird,1-0-10,0512_eid_s05_1-0-10_bird_10_n01601694_10746.JPEG
subject-05,1,513,0.823610067367554,boat,bear,32-10-10,0513_eid_s05_32-10-10_bear_10_n02133161_14114.JPEG
subject-05,1,514,0.622871875762939,truck,truck,4-0-10,0514_eid_s05_4-0-10_truck_10_n03417042_22539.JPEG
subject-05,1,515,1.12124085426331,boat,cat,128-3-10,0515_eid_s05_128-3-10_cat_10_n02125311_11693.JPEG
subject-05,1,516,0.529684066772461,bicycle,bicycle,1-3-10,0516_eid_s05_1-3-10_bicycle_10_n03792782_1173.JPEG
subject-05,1,517,0.490741014480591,clock,clock,1-0-10,0517_eid_s05_1-0-10_clock_10_n03196217_653.JPEG
subject-05,1,518,0.491089820861816,cat,elephant,128-10-10,0518_eid_s05_128-10-10_elephant_10_n02504013_6120.JPEG
subject-05,1,519,0.421473979949951,boat,boat,128-0-10,0519_eid_s05_128-0-10_boat_10_n03344393_796.JPEG
subject-05,1,520,0.606091022491455,bear,bear,1-3-10,0520_eid_s05_1-3-10_bear_10_n02134084_4581.JPEG
subject-05,1,521,0.644602060317993,keyboard,keyboard,2-10-10,0521_eid_s05_2-10-10_keyboard_10_n04505470_2540.JPEG
subject-05,1,522,0.429244041442871,clock,dog,16-3-10,0522_eid_s05_16-3-10_dog_10_n02094433_8922.JPEG
subject-05,1,523,0.690217971801758,keyboard,keyboard,4-0-10,0523_eid_s05_4-0-10_keyboard_10_n04505470_4104.JPEG
subject-05,1,524,0.898772954940796,car,car,16-10-10,0524_eid_s05_16-10-10_car_10_n03100240_18276.JPEG
subject-05,1,525,0.72909688949585,truck,truck,1-3-10,0525_eid_s05_1-3-10_truck_10_n03796401_21198.JPEG
subject-05,1,526,0.683242082595825,boat,car,32-10-10,0526_eid_s05_32-10-10_car_10_n04285008_3631.JPEG
subject-05,1,527,0.973918199539185,bear,bear,8-10-10,0527_eid_s05_8-10-10_bear_10_n02134418_4666.JPEG
subject-05,1,528,0.704188108444214,cat,bottle,128-3-10,0528_eid_s05_128-3-10_bottle_10_n03937543_11325.JPEG
subject-05,1,529,0.72048807144165,airplane,airplane,1-0-10,0529_eid_s05_1-0-10_airplane_10_n02690373_8547.JPEG
subject-05,1,530,NaN,na,keyboard,2-3-10,0530_eid_s05_2-3-10_keyboard_10_n03085013_24618.JPEG
subject-05,1,531,1.12008285522461,bird,bird,16-10-10,0531_eid_s05_16-10-10_bird_10_n01534433_7889.JPEG
subject-05,1,532,0.490432024002075,boat,keyboard,128-10-10,0532_eid_s05_128-10-10_keyboard_10_n04505470_1484.JPEG
subject-05,1,533,0.72121000289917,car,truck,4-10-10,0533_eid_s05_4-10-10_truck_10_n04467665_12250.JPEG
subject-05,1,534,1.29000687599182,truck,chair,32-3-10,0534_eid_s05_32-3-10_chair_10_n04429376_7321.JPEG
subject-05,1,535,0.568221092224121,boat,keyboard,128-3-10,0535_eid_s05_128-3-10_keyboard_10_n03085013_20492.JPEG
subject-05,1,536,0.561372995376587,boat,boat,4-10-10,0536_eid_s05_4-10-10_boat_10_n02951358_1082.JPEG
subject-05,1,537,0.47545599937439,cat,cat,8-0-10,0537_eid_s05_8-0-10_cat_10_n02123045_5845.JPEG
subject-05,1,538,0.706628084182739,oven,knife,8-10-10,0538_eid_s05_8-10-10_knife_10_n03041632_35116.JPEG
subject-05,1,539,0.665954828262329,clock,knife,1-0-10,0539_eid_s05_1-0-10_knife_10_n03041632_99875.JPEG
subject-05,1,540,0.966567039489746,boat,boat,8-10-10,0540_eid_s05_8-10-10_boat_10_n03344393_11855.JPEG
subject-05,1,541,0.835124015808105,bird,bird,8-10-10,0541_eid_s05_8-10-10_bird_10_n01796340_3584.JPEG
subject-05,1,542,1.18154692649841,truck,truck,1-0-10,0542_eid_s05_1-0-10_truck_10_n04467665_50912.JPEG
subject-05,1,543,0.658586978912354,boat,oven,64-0-10,0543_eid_s05_64-0-10_oven_10_n04111531_11230.JPEG
subject-05,1,544,0.537000894546509,cat,bear,128-10-10,0544_eid_s05_128-10-10_bear_10_n02134084_114.JPEG
subject-05,1,545,0.45947790145874,boat,airplane,16-3-10,0545_eid_s05_16-3-10_airplane_10_n02690373_5748.JPEG
subject-05,1,546,0.997554063796997,airplane,knife,1-0-10,0546_eid_s05_1-0-10_knife_10_n03041632_43634.JPEG
subject-05,1,547,0.696706056594849,airplane,airplane,2-3-10,0547_eid_s05_2-3-10_airplane_10_n02690373_939.JPEG
subject-05,1,548,0.882939100265503,truck,truck,4-10-10,0548_eid_s05_4-10-10_truck_10_n03417042_12235.JPEG
subject-05,1,549,0.5814049243927,bear,knife,64-10-10,0549_eid_s05_64-10-10_knife_10_n03041632_383.JPEG
subject-05,1,550,0.55982494354248,cat,bicycle,64-3-10,0550_eid_s05_64-3-10_bicycle_10_n03792782_44779.JPEG
subject-05,1,551,0.482679843902588,boat,boat,1-0-10,0551_eid_s05_1-0-10_boat_10_n04273569_11710.JPEG
subject-05,1,552,0.559002161026001,clock,truck,16-3-10,0552_eid_s05_16-3-10_truck_10_n04467665_663.JPEG
subject-05,1,553,0.513802051544189,bicycle,boat,64-10-10,0553_eid_s05_64-10-10_boat_10_n03344393_2406.JPEG
subject-05,1,554,0.874552965164185,keyboard,keyboard,1-0-10,0554_eid_s05_1-0-10_keyboard_10_n03085013_18685.JPEG
subject-05,1,555,0.599587917327881,chair,knife,16-0-10,0555_eid_s05_16-0-10_knife_10_n03041632_5102.JPEG
subject-05,1,556,0.630249977111816,car,car,2-10-10,0556_eid_s05_2-10-10_car_10_n02814533_57508.JPEG
subject-05,1,557,0.52790093421936,boat,clock,8-0-10,0557_eid_s05_8-0-10_clock_10_n04548280_4286.JPEG
subject-05,1,558,0.644654035568237,bear,airplane,32-10-10,0558_eid_s05_32-10-10_airplane_10_n02690373_2342.JPEG
subject-05,1,559,0.61298394203186,cat,bird,128-3-10,0559_eid_s05_128-3-10_bird_10_n02009912_3271.JPEG
subject-05,1,560,0.567489862442017,clock,elephant,8-3-10,0560_eid_s05_8-3-10_elephant_10_n02504013_8913.JPEG
subject-05,1,561,0.522111177444458,boat,boat,2-3-10,0561_eid_s05_2-3-10_boat_10_n03662601_37095.JPEG
subject-05,1,562,0.606500148773193,oven,bird,16-10-10,0562_eid_s05_16-10-10_bird_10_n01560419_15532.JPEG
subject-05,1,563,0.966579914093018,chair,chair,4-0-10,0563_eid_s05_4-0-10_chair_10_n02791124_3463.JPEG
subject-05,1,564,0.812317132949829,clock,clock,4-3-10,0564_eid_s05_4-3-10_clock_10_n03196217_10677.JPEG
subject-05,1,565,0.697129964828491,boat,truck,64-10-10,0565_eid_s05_64-10-10_truck_10_n03417042_20123.JPEG
subject-05,1,566,0.75757098197937,boat,boat,1-3-10,0566_eid_s05_1-3-10_boat_10_n04273569_28398.JPEG
subject-05,1,567,0.720173120498657,bear,bear,8-0-10,0567_eid_s05_8-0-10_bear_10_n02134084_3795.JPEG
subject-05,1,568,0.596796035766602,clock,oven,16-10-10,0568_eid_s05_16-10-10_oven_10_n04111531_7283.JPEG
subject-05,1,569,0.510935068130493,oven,clock,64-3-10,0569_eid_s05_64-3-10_clock_10_n03196217_10936.JPEG
subject-05,1,570,0.73542594909668,cat,boat,16-10-10,0570_eid_s05_16-10-10_boat_10_n04273569_2698.JPEG
subject-05,1,571,1.09555292129517,cat,bird,32-0-10,0571_eid_s05_32-0-10_bird_10_n02056570_2492.JPEG
subject-05,1,572,0.725342988967896,boat,cat,64-0-10,0572_eid_s05_64-0-10_cat_10_n02123159_12734.JPEG
subject-05,1,573,0.638803958892822,bear,keyboard,128-0-10,0573_eid_s05_128-0-10_keyboard_10_n04505470_9331.JPEG
subject-05,1,574,0.591264009475708,cat,truck,32-3-10,0574_eid_s05_32-3-10_truck_10_n04467665_33667.JPEG
subject-05,1,575,0.777910947799683,elephant,elephant,4-3-10,0575_eid_s05_4-3-10_elephant_10_n02504013_24810.JPEG
subject-05,1,576,0.560166835784912,cat,bear,32-3-10,0576_eid_s05_32-3-10_bear_10_n02134084_16757.JPEG
subject-05,1,577,0.469333171844482,cat,cat,2-10-10,0577_eid_s05_2-10-10_cat_10_n02124075_10236.JPEG
subject-05,1,578,0.448441982269287,cat,cat,32-10-10,0578_eid_s05_32-10-10_cat_10_n02123045_7197.JPEG
subject-05,1,579,0.870841979980469,knife,knife,4-3-10,0579_eid_s05_4-3-10_knife_10_n03041632_4714.JPEG
subject-05,1,580,0.552678108215332,cat,knife,8-0-10,0580_eid_s05_8-0-10_knife_10_n03041632_14546.JPEG
subject-05,1,581,0.528693199157715,car,car,1-3-10,0581_eid_s05_1-3-10_car_10_n03100240_2619.JPEG
subject-05,1,582,0.661563158035278,bear,boat,128-3-10,0582_eid_s05_128-3-10_boat_10_n03662601_32251.JPEG
subject-05,1,583,0.522261142730713,cat,airplane,64-3-10,0583_eid_s05_64-3-10_airplane_10_n02690373_4945.JPEG
subject-05,1,584,0.698568820953369,truck,bear,16-3-10,0584_eid_s05_16-3-10_bear_10_n02134084_143.JPEG
subject-05,1,585,0.537734985351562,cat,oven,8-0-10,0585_eid_s05_8-0-10_oven_10_n04111531_6489.JPEG
subject-05,1,586,0.575890064239502,bottle,bottle,4-3-10,0586_eid_s05_4-3-10_bottle_10_n03937543_10861.JPEG
subject-05,1,587,0.614966154098511,bottle,clock,4-3-10,0587_eid_s05_4-3-10_clock_10_n03196217_379.JPEG
subject-05,1,588,0.916455030441284,cat,cat,16-10-10,0588_eid_s05_16-10-10_cat_10_n02123159_1040.JPEG
subject-05,1,589,0.425090789794922,cat,cat,64-3-10,0589_eid_s05_64-3-10_cat_10_n02125311_14952.JPEG
subject-05,1,590,0.755957841873169,bottle,chair,2-0-10,0590_eid_s05_2-0-10_chair_10_n04429376_21254.JPEG
subject-05,1,591,0.948853015899658,dog,dog,4-10-10,0591_eid_s05_4-10-10_dog_10_n02105056_3096.JPEG
subject-05,1,592,0.546796083450317,bear,keyboard,64-0-10,0592_eid_s05_64-0-10_keyboard_10_n03085013_19254.JPEG
subject-05,1,593,0.437915086746216,cat,car,128-0-10,0593_eid_s05_128-0-10_car_10_n03100240_16641.JPEG
subject-05,1,594,0.590865850448608,boat,cat,32-3-10,0594_eid_s05_32-3-10_cat_10_n02125311_511.JPEG
subject-05,1,595,1.0419659614563,keyboard,keyboard,2-10-10,0595_eid_s05_2-10-10_keyboard_10_n03085013_23192.JPEG
subject-05,1,596,0.638111114501953,oven,bird,64-3-10,0596_eid_s05_64-3-10_bird_10_n01798484_12903.JPEG
subject-05,1,597,0.990401983261108,bicycle,keyboard,32-3-10,0597_eid_s05_32-3-10_keyboard_10_n03085013_22600.JPEG
subject-05,1,598,0.668750047683716,clock,clock,2-10-10,0598_eid_s05_2-10-10_clock_10_n02708093_3664.JPEG
subject-05,1,599,0.567630052566528,clock,clock,2-10-10,0599_eid_s05_2-10-10_clock_10_n02708093_7810.JPEG
subject-05,1,600,NaN,na,knife,4-10-10,0600_eid_s05_4-10-10_knife_10_n03041632_46422.JPEG
subject-05,1,601,0.865947008132935,chair,chair,1-3-10,0601_eid_s05_1-3-10_chair_10_n04429376_29082.JPEG
subject-05,1,602,0.658159971237183,boat,clock,16-0-10,0602_eid_s05_16-0-10_clock_10_n04548280_896.JPEG
subject-05,1,603,0.596557140350342,bear,bear,8-3-10,0603_eid_s05_8-3-10_bear_10_n02132136_33488.JPEG
subject-05,1,604,0.511079788208008,cat,clock,16-3-10,0604_eid_s05_16-3-10_clock_10_n03196217_5929.JPEG
subject-05,1,605,0.573110103607178,car,car,8-10-10,0605_eid_s05_8-10-10_car_10_n02814533_8568.JPEG
subject-05,1,606,0.495908975601196,boat,airplane,32-0-10,0606_eid_s05_32-0-10_airplane_10_n02690373_6812.JPEG
subject-05,1,607,0.758982181549072,bottle,bottle,8-10-10,0607_eid_s05_8-10-10_bottle_10_n04560804_15228.JPEG
subject-05,1,608,0.474248886108398,cat,bear,16-0-10,0608_eid_s05_16-0-10_bear_10_n02133161_948.JPEG
subject-05,1,609,0.436504125595093,boat,bottle,8-3-10,0609_eid_s05_8-3-10_bottle_10_n02823428_8553.JPEG
subject-05,1,610,0.459192991256714,cat,oven,4-0-10,0610_eid_s05_4-0-10_oven_10_n04111531_14279.JPEG
subject-05,1,611,0.882175922393799,dog,dog,2-0-10,0611_eid_s05_2-0-10_dog_10_n02102040_2950.JPEG
subject-05,1,612,0.544285774230957,bottle,bottle,1-3-10,0612_eid_s05_1-3-10_bottle_10_n02823428_6201.JPEG
subject-05,1,613,0.704960107803345,elephant,elephant,4-3-10,0613_eid_s05_4-3-10_elephant_10_n02504458_6510.JPEG
subject-05,1,614,0.835103988647461,cat,bottle,32-10-10,0614_eid_s05_32-10-10_bottle_10_n03983396_4948.JPEG
subject-05,1,615,0.467519044876099,boat,airplane,32-3-10,0615_eid_s05_32-3-10_airplane_10_n02690373_4113.JPEG
subject-05,1,616,0.882151126861572,knife,knife,1-0-10,0616_eid_s05_1-0-10_knife_10_n03041632_29580.JPEG
subject-05,1,617,0.720711946487427,boat,bottle,32-0-10,0617_eid_s05_32-0-10_bottle_10_n02823428_7957.JPEG
subject-05,1,618,0.697118043899536,bear,clock,128-0-10,0618_eid_s05_128-0-10_clock_10_n04548280_4582.JPEG
subject-05,1,619,0.839967012405396,bicycle,bicycle,4-10-10,0619_eid_s05_4-10-10_bicycle_10_n02835271_19557.JPEG
subject-05,1,620,0.516596794128418,car,cat,128-0-10,0620_eid_s05_128-0-10_cat_10_n02123597_56.JPEG
subject-05,1,621,0.962775945663452,bicycle,bicycle,16-10-10,0621_eid_s05_16-10-10_bicycle_10_n02835271_5873.JPEG
subject-05,1,622,0.893329858779907,airplane,boat,8-10-10,0622_eid_s05_8-10-10_boat_10_n03344393_9576.JPEG
subject-05,1,623,0.661764860153198,cat,oven,128-0-10,0623_eid_s05_128-0-10_oven_10_n04111531_11116.JPEG
subject-05,1,624,0.932492971420288,boat,car,128-3-10,0624_eid_s05_128-3-10_car_10_n03100240_1794.JPEG
subject-05,1,625,1.21420001983643,keyboard,oven,8-10-10,0625_eid_s05_8-10-10_oven_10_n04111531_2456.JPEG
subject-05,1,626,0.693528890609741,car,car,8-3-10,0626_eid_s05_8-3-10_car_10_n02814533_26733.JPEG
subject-05,1,627,0.87807822227478,cat,keyboard,64-3-10,0627_eid_s05_64-3-10_keyboard_10_n04505470_407.JPEG
subject-05,1,628,0.94671893119812,oven,bird,64-3-10,0628_eid_s05_64-3-10_bird_10_n01829413_7643.JPEG
subject-05,1,629,0.939000844955444,cat,bird,32-10-10,0629_eid_s05_32-10-10_bird_10_n02051845_33351.JPEG
subject-05,1,630,0.716024875640869,truck,truck,1-10-10,0630_eid_s05_1-10-10_truck_10_n03796401_8169.JPEG
subject-05,1,631,1.15374803543091,clock,clock,128-3-10,0631_eid_s05_128-3-10_clock_10_n03196217_5888.JPEG
subject-05,1,632,0.867892026901245,bicycle,bottle,32-0-10,0632_eid_s05_32-0-10_bottle_10_n04557648_8622.JPEG
subject-05,1,633,0.968837022781372,dog,dog,8-3-10,0633_eid_s05_8-3-10_dog_10_n02091467_13580.JPEG
subject-05,1,634,1.18255496025085,dog,cat,1-3-10,0634_eid_s05_1-3-10_cat_10_n02123394_6795.JPEG
subject-05,1,635,0.482547044754028,boat,oven,32-0-10,0635_eid_s05_32-0-10_oven_10_n04111531_6217.JPEG
subject-05,1,636,0.7120680809021,bottle,bottle,2-10-10,0636_eid_s05_2-10-10_bottle_10_n02823428_14398.JPEG
subject-05,1,637,1.07335591316223,chair,cat,2-3-10,0637_eid_s05_2-3-10_cat_10_n02124075_8164.JPEG
subject-05,1,638,1.35786199569702,bird,bird,1-0-10,0638_eid_s05_1-0-10_bird_10_n01795545_15549.JPEG
subject-05,1,639,0.674229860305786,cat,dog,64-0-10,0639_eid_s05_64-0-10_dog_10_n02099712_2205.JPEG
subject-05,1,640,0.742833852767944,elephant,elephant,4-10-10,0640_eid_s05_4-10-10_elephant_10_n02504458_6027.JPEG
subject-05,1,641,0.919786930084229,bottle,bottle,4-10-10,0641_eid_s05_4-10-10_bottle_10_n04560804_15379.JPEG
subject-05,1,642,0.611953020095825,cat,cat,16-10-10,0642_eid_s05_16-10-10_cat_10_n02123159_1008.JPEG
subject-05,1,643,0.867043972015381,boat,airplane,32-3-10,0643_eid_s05_32-3-10_airplane_10_n02690373_6147.JPEG
subject-05,1,644,0.905092000961304,bear,bear,1-10-10,0644_eid_s05_1-10-10_bear_10_n02133161_15593.JPEG
subject-05,1,645,1.00373005867004,airplane,airplane,4-3-10,0645_eid_s05_4-3-10_airplane_10_n02690373_8274.JPEG
subject-05,1,646,0.920050144195557,elephant,elephant,8-10-10,0646_eid_s05_8-10-10_elephant_10_n02504013_7127.JPEG
subject-05,1,647,0.864230871200562,cat,boat,32-3-10,0647_eid_s05_32-3-10_boat_10_n04273569_32341.JPEG
subject-05,1,648,1.08117890357971,bear,bear,4-10-10,0648_eid_s05_4-10-10_bear_10_n02132136_2359.JPEG
subject-05,1,649,0.779887914657593,oven,truck,64-3-10,0649_eid_s05_64-3-10_truck_10_n04467665_3038.JPEG
subject-05,1,650,0.772511959075928,bottle,bottle,4-10-10,0650_eid_s05_4-10-10_bottle_10_n04579145_6177.JPEG
subject-05,1,651,1.03470206260681,chair,knife,2-3-10,0651_eid_s05_2-3-10_knife_10_n03041632_11887.JPEG
subject-05,1,652,0.749535083770752,keyboard,keyboard,4-0-10,0652_eid_s05_4-0-10_keyboard_10_n04505470_8364.JPEG
subject-05,1,653,0.741806030273438,clock,clock,1-3-10,0653_eid_s05_1-3-10_clock_10_n04548280_5012.JPEG
subject-05,1,654,1.45622110366821,knife,truck,64-3-10,0654_eid_s05_64-3-10_truck_10_n03417042_12308.JPEG
subject-05,1,655,1.50002884864807,bear,bear,1-0-10,0655_eid_s05_1-0-10_bear_10_n02134418_2407.JPEG
subject-05,1,656,0.687672853469849,cat,knife,128-0-10,0656_eid_s05_128-0-10_knife_10_n03041632_33225.JPEG
subject-05,1,657,1.08034110069275,elephant,elephant,4-3-10,0657_eid_s05_4-3-10_elephant_10_n02504013_3086.JPEG
subject-05,1,658,1.25653409957886,bear,cat,128-0-10,0658_eid_s05_128-0-10_cat_10_n02125311_3511.JPEG
subject-05,1,659,0.702073097229004,cat,cat,128-0-10,0659_eid_s05_128-0-10_cat_10_n02123597_12950.JPEG
subject-05,1,660,1.17923593521118,cat,cat,4-0-10,0660_eid_s05_4-0-10_cat_10_n02125311_34487.JPEG
subject-05,1,661,0.742125988006592,keyboard,keyboard,1-3-10,0661_eid_s05_1-3-10_keyboard_10_n04505470_5155.JPEG
subject-05,1,662,1.28652405738831,boat,dog,32-0-10,0662_eid_s05_32-0-10_dog_10_n02111500_6148.JPEG
subject-05,1,663,0.954255104064941,dog,dog,2-10-10,0663_eid_s05_2-10-10_dog_10_n02086240_3847.JPEG
subject-05,1,664,0.792562007904053,bear,knife,64-0-10,0664_eid_s05_64-0-10_knife_10_n03041632_27848.JPEG
subject-05,1,665,0.628398895263672,cat,knife,32-0-10,0665_eid_s05_32-0-10_knife_10_n03041632_41310.JPEG
subject-05,1,666,0.583170890808105,bear,bear,2-3-10,0666_eid_s05_2-3-10_bear_10_n02134084_421.JPEG
subject-05,1,667,0.667607069015503,boat,boat,1-3-10,0667_eid_s05_1-3-10_boat_10_n04273569_1774.JPEG
subject-05,1,668,0.506597995758057,clock,knife,32-10-10,0668_eid_s05_32-10-10_knife_10_n03041632_24541.JPEG
subject-05,1,669,0.728800058364868,keyboard,keyboard,1-0-10,0669_eid_s05_1-0-10_keyboard_10_n03085013_6561.JPEG
subject-05,1,670,0.759235858917236,chair,chair,4-3-10,0670_eid_s05_4-3-10_chair_10_n03376595_6659.JPEG
subject-05,1,671,1.08228302001953,cat,chair,1-10-10,0671_eid_s05_1-10-10_chair_10_n02791124_3993.JPEG
subject-05,1,672,1.22905588150024,boat,dog,2-0-10,0672_eid_s05_2-0-10_dog_10_n02091467_5318.JPEG
subject-05,1,673,0.818782806396484,bottle,oven,4-0-10,0673_eid_s05_4-0-10_oven_10_n04111531_22886.JPEG
subject-05,1,674,0.624418020248413,bottle,bottle,1-3-10,0674_eid_s05_1-3-10_bottle_10_n04591713_4192.JPEG
subject-05,1,675,0.638132095336914,cat,elephant,64-3-10,0675_eid_s05_64-3-10_elephant_10_n02504458_3988.JPEG
subject-05,1,676,0.893113136291504,bicycle,bicycle,8-10-10,0676_eid_s05_8-10-10_bicycle_10_n02835271_14680.JPEG
subject-05,1,677,1.50028109550476,bicycle,bicycle,8-10-10,0677_eid_s05_8-10-10_bicycle_10_n03792782_10035.JPEG
subject-05,1,678,0.721318006515503,boat,oven,16-0-10,0678_eid_s05_16-0-10_oven_10_n04111531_14435.JPEG
subject-05,1,679,0.718897819519043,bear,boat,128-10-10,0679_eid_s05_128-10-10_boat_10_n04273569_21279.JPEG
subject-05,1,680,0.757375955581665,cat,dog,2-0-10,0680_eid_s05_2-0-10_dog_10_n02097130_1525.JPEG
subject-05,1,681,0.717591047286987,car,cat,64-0-10,0681_eid_s05_64-0-10_cat_10_n02123045_15882.JPEG
subject-05,1,682,0.648175001144409,bird,bear,32-3-10,0682_eid_s05_32-3-10_bear_10_n02134418_4446.JPEG
subject-05,1,683,0.81716513633728,bottle,clock,128-0-10,0683_eid_s05_128-0-10_clock_10_n04548280_8083.JPEG
subject-05,1,684,0.601122856140137,airplane,airplane,1-3-10,0684_eid_s05_1-3-10_airplane_10_n02690373_5475.JPEG
subject-05,1,685,0.937711000442505,dog,dog,1-3-10,0685_eid_s05_1-3-10_dog_10_n02099601_2075.JPEG
subject-05,1,686,0.47624397277832,cat,cat,64-10-10,0686_eid_s05_64-10-10_cat_10_n02125311_2803.JPEG
subject-05,1,687,0.536537170410156,car,car,1-3-10,0687_eid_s05_1-3-10_car_10_n04285008_3223.JPEG
subject-05,1,688,0.582096099853516,bear,knife,16-3-10,0688_eid_s05_16-3-10_knife_10_n03041632_77022.JPEG
subject-05,1,689,0.772918939590454,chair,oven,2-3-10,0689_eid_s05_2-3-10_oven_10_n04111531_15943.JPEG
subject-05,1,690,0.887547016143799,truck,truck,8-10-10,0690_eid_s05_8-10-10_truck_10_n03796401_4475.JPEG
subject-05,1,691,0.92481803894043,knife,boat,16-3-10,0691_eid_s05_16-3-10_boat_10_n03344393_4502.JPEG
subject-05,1,692,0.610557079315186,cat,clock,64-0-10,0692_eid_s05_64-0-10_clock_10_n02708093_852.JPEG
subject-05,1,693,0.679003000259399,bottle,cat,4-10-10,0693_eid_s05_4-10-10_cat_10_n02123394_2796.JPEG
subject-05,1,694,0.825186967849731,boat,knife,16-10-10,0694_eid_s05_16-10-10_knife_10_n03041632_87339.JPEG
subject-05,1,695,0.785099029541016,clock,clock,8-0-10,0695_eid_s05_8-0-10_clock_10_n04548280_64.JPEG
subject-05,1,696,0.623027086257935,cat,bottle,32-3-10,0696_eid_s05_32-3-10_bottle_10_n03937543_2736.JPEG
subject-05,1,697,0.667396068572998,elephant,elephant,8-3-10,0697_eid_s05_8-3-10_elephant_10_n02504458_5288.JPEG
subject-05,1,698,0.735899925231934,bottle,cat,8-3-10,0698_eid_s05_8-3-10_cat_10_n02123597_7344.JPEG
subject-05,1,699,0.543651819229126,boat,dog,16-3-10,0699_eid_s05_16-3-10_dog_10_n02098105_185.JPEG
subject-05,1,700,0.534093141555786,clock,bird,16-0-10,0700_eid_s05_16-0-10_bird_10_n01855672_10889.JPEG
subject-05,1,701,0.551145076751709,cat,clock,16-0-10,0701_eid_s05_16-0-10_clock_10_n03196217_157.JPEG
subject-05,1,702,0.9951491355896,bear,oven,128-0-10,0702_eid_s05_128-0-10_oven_10_n04111531_22784.JPEG
subject-05,1,703,0.695219993591309,clock,dog,64-10-10,0703_eid_s05_64-10-10_dog_10_n02108551_1816.JPEG
subject-05,1,704,0.652923107147217,car,car,4-3-10,0704_eid_s05_4-3-10_car_10_n02814533_6626.JPEG
subject-05,1,705,0.73127007484436,airplane,airplane,8-10-10,0705_eid_s05_8-10-10_airplane_10_n02690373_2724.JPEG
subject-05,1,706,0.692290067672729,cat,knife,8-3-10,0706_eid_s05_8-3-10_knife_10_n03041632_13612.JPEG
subject-05,1,707,0.738569974899292,oven,boat,128-0-10,0707_eid_s05_128-0-10_boat_10_n03344393_1595.JPEG
subject-05,1,708,0.923563003540039,bear,dog,128-3-10,0708_eid_s05_128-3-10_dog_10_n02097298_9540.JPEG
subject-05,1,709,0.79223895072937,oven,clock,16-10-10,0709_eid_s05_16-10-10_clock_10_n04548280_2273.JPEG
subject-05,1,710,0.784369945526123,chair,clock,64-0-10,0710_eid_s05_64-0-10_clock_10_n04548280_7808.JPEG
subject-05,1,711,1.42885899543762,bird,bird,1-3-10,0711_eid_s05_1-3-10_bird_10_n02006656_269.JPEG
subject-05,1,712,0.782914161682129,boat,boat,128-10-10,0712_eid_s05_128-10-10_boat_10_n03344393_4854.JPEG
subject-05,1,713,1.01335501670837,cat,knife,1-0-10,0713_eid_s05_1-0-10_knife_10_n03041632_18126.JPEG
subject-05,1,714,1.03569102287292,bear,cat,128-10-10,0714_eid_s05_128-10-10_cat_10_n02123597_2299.JPEG
subject-05,1,715,0.645141839981079,cat,bird,32-10-10,0715_eid_s05_32-10-10_bird_10_n02027492_4237.JPEG
subject-05,1,716,0.48370885848999,car,bicycle,32-3-10,0716_eid_s05_32-3-10_bicycle_10_n02835271_24847.JPEG
subject-05,1,717,0.774104118347168,airplane,airplane,8-3-10,0717_eid_s05_8-3-10_airplane_10_n02690373_7004.JPEG
subject-05,1,718,0.728239059448242,clock,clock,2-10-10,0718_eid_s05_2-10-10_clock_10_n04548280_5262.JPEG
subject-05,1,719,0.696793079376221,boat,car,16-10-10,0719_eid_s05_16-10-10_car_10_n04285008_5513.JPEG
subject-05,1,720,0.735798120498657,oven,chair,16-10-10,0720_eid_s05_16-10-10_chair_10_n04429376_36830.JPEG
subject-05,1,721,0.834090948104858,dog,dog,1-3-10,0721_eid_s05_1-3-10_dog_10_n02113023_9745.JPEG
subject-05,1,722,1.18058800697327,bird,oven,4-0-10,0722_eid_s05_4-0-10_oven_10_n04111531_6128.JPEG
subject-05,1,723,0.706770896911621,knife,knife,1-10-10,0723_eid_s05_1-10-10_knife_10_n03041632_81004.JPEG
subject-05,1,724,0.867455959320068,airplane,airplane,4-3-10,0724_eid_s05_4-3-10_airplane_10_n02690373_563.JPEG
subject-05,1,725,0.651769876480103,cat,dog,4-3-10,0725_eid_s05_4-3-10_dog_10_n02097474_3760.JPEG
subject-05,1,726,0.536514043807983,boat,keyboard,128-3-10,0726_eid_s05_128-3-10_keyboard_10_n03085013_15530.JPEG
subject-05,1,727,0.606956005096436,bear,airplane,32-0-10,0727_eid_s05_32-0-10_airplane_10_n02690373_1051.JPEG
subject-05,1,728,0.605998039245605,cat,cat,4-3-10,0728_eid_s05_4-3-10_cat_10_n02125311_3777.JPEG
subject-05,1,729,0.752020835876465,dog,bottle,64-10-10,0729_eid_s05_64-10-10_bottle_10_n04560804_10084.JPEG
subject-05,1,730,0.720337152481079,car,oven,128-10-10,0730_eid_s05_128-10-10_oven_10_n04111531_92.JPEG
subject-05,1,731,0.472267866134644,cat,car,8-0-10,0731_eid_s05_8-0-10_car_10_n02814533_73506.JPEG
subject-05,1,732,0.644002914428711,oven,boat,64-10-10,0732_eid_s05_64-10-10_boat_10_n02951358_30236.JPEG
subject-05,1,733,0.620795011520386,clock,cat,64-3-10,0733_eid_s05_64-3-10_cat_10_n02123045_9176.JPEG
subject-05,1,734,0.810794115066528,bear,bear,32-3-10,0734_eid_s05_32-3-10_bear_10_n02134418_1590.JPEG
subject-05,1,735,0.641154050827026,car,car,2-3-10,0735_eid_s05_2-3-10_car_10_n03100240_15407.JPEG
subject-05,1,736,NaN,na,elephant,1-3-10,0736_eid_s05_1-3-10_elephant_10_n02504458_5657.JPEG
subject-05,1,737,0.540111064910889,car,oven,4-3-10,0737_eid_s05_4-3-10_oven_10_n04111531_8688.JPEG
subject-05,1,738,0.862267017364502,keyboard,keyboard,2-3-10,0738_eid_s05_2-3-10_keyboard_10_n03085013_3755.JPEG
subject-05,1,739,0.570935010910034,cat,elephant,128-10-10,0739_eid_s05_128-10-10_elephant_10_n02504013_12531.JPEG
subject-05,1,740,NaN,na,chair,8-0-10,0740_eid_s05_8-0-10_chair_10_n02791124_9377.JPEG
subject-05,1,741,0.774787902832031,airplane,boat,16-3-10,0741_eid_s05_16-3-10_boat_10_n04612504_5184.JPEG
subject-05,1,742,0.696667909622192,bicycle,elephant,64-3-10,0742_eid_s05_64-3-10_elephant_10_n02504013_22633.JPEG
subject-05,1,743,0.573711156845093,clock,clock,2-10-10,0743_eid_s05_2-10-10_clock_10_n04548280_2.JPEG
subject-05,1,744,0.733894109725952,airplane,airplane,8-3-10,0744_eid_s05_8-3-10_airplane_10_n02690373_8704.JPEG
subject-05,1,745,0.788861036300659,bird,bird,4-0-10,0745_eid_s05_4-0-10_bird_10_n01843065_3068.JPEG
subject-05,1,746,1.04826998710632,dog,elephant,16-3-10,0746_eid_s05_16-3-10_elephant_10_n02504458_3634.JPEG
subject-05,1,747,1.34708714485168,dog,bear,32-10-10,0747_eid_s05_32-10-10_bear_10_n02134418_5807.JPEG
subject-05,1,748,0.809716939926147,cat,knife,64-3-10,0748_eid_s05_64-3-10_knife_10_n03041632_16606.JPEG
subject-05,1,749,0.602668046951294,oven,oven,32-3-10,0749_eid_s05_32-3-10_oven_10_n04111531_4113.JPEG
subject-05,1,750,1.25666499137878,boat,car,64-3-10,0750_eid_s05_64-3-10_car_10_n02814533_62481.JPEG
subject-05,1,751,0.857669830322266,cat,bird,8-3-10,0751_eid_s05_8-3-10_bird_10_n01855032_5743.JPEG
subject-05,1,752,0.74210000038147,bird,clock,128-3-10,0752_eid_s05_128-3-10_clock_10_n03196217_1376.JPEG
subject-05,1,753,1.03274083137512,boat,boat,8-10-10,0753_eid_s05_8-10-10_boat_10_n03344393_6703.JPEG
subject-05,1,754,1.17919301986694,dog,oven,64-10-10,0754_eid_s05_64-10-10_oven_10_n04111531_136.JPEG
subject-05,1,755,0.633522033691406,clock,clock,2-0-10,0755_eid_s05_2-0-10_clock_10_n03196217_11199.JPEG
subject-05,1,756,1.05636692047119,clock,chair,1-0-10,0756_eid_s05_1-0-10_chair_10_n03376595_2667.JPEG
subject-05,1,757,0.894713878631592,dog,elephant,8-3-10,0757_eid_s05_8-3-10_elephant_10_n02504458_1445.JPEG
subject-05,1,758,0.519355058670044,boat,dog,32-10-10,0758_eid_s05_32-10-10_dog_10_n02096585_10771.JPEG
subject-05,1,759,0.90172290802002,dog,dog,16-10-10,0759_eid_s05_16-10-10_dog_10_n02094433_1443.JPEG
subject-05,1,760,0.594619989395142,boat,boat,1-0-10,0760_eid_s05_1-0-10_boat_10_n03662601_7552.JPEG
subject-05,1,761,0.878927946090698,dog,dog,8-10-10,0761_eid_s05_8-10-10_dog_10_n02088466_8184.JPEG
subject-05,1,762,0.517153024673462,cat,cat,16-0-10,0762_eid_s05_16-0-10_cat_10_n02123159_1032.JPEG
subject-05,1,763,0.532100915908813,cat,chair,16-3-10,0763_eid_s05_16-3-10_chair_10_n03376595_3912.JPEG
subject-05,1,764,0.615838050842285,boat,airplane,64-0-10,0764_eid_s05_64-0-10_airplane_10_n02690373_4671.JPEG
subject-05,1,765,0.868268013000488,dog,cat,16-3-10,0765_eid_s05_16-3-10_cat_10_n02123159_2048.JPEG
subject-05,1,766,0.844080924987793,bear,chair,64-3-10,0766_eid_s05_64-3-10_chair_10_n02791124_3601.JPEG
subject-05,1,767,1.13743805885315,bottle,bottle,2-10-10,0767_eid_s05_2-10-10_bottle_10_n03937543_5382.JPEG
subject-05,1,768,1.33527803421021,oven,oven,4-10-10,0768_eid_s05_4-10-10_oven_10_n04111531_7252.JPEG
subject-05,1,769,0.600409984588623,boat,oven,128-3-10,0769_eid_s05_128-3-10_oven_10_n04111531_9210.JPEG
subject-05,1,770,0.845054149627686,car,truck,8-10-10,0770_eid_s05_8-10-10_truck_10_n03417042_12626.JPEG
subject-05,1,771,0.745579957962036,oven,oven,4-10-10,0771_eid_s05_4-10-10_oven_10_n04111531_14568.JPEG
subject-05,1,772,0.484321117401123,boat,knife,64-10-10,0772_eid_s05_64-10-10_knife_10_n03041632_37949.JPEG
subject-05,1,773,0.822669982910156,truck,truck,4-3-10,0773_eid_s05_4-3-10_truck_10_n04467665_48953.JPEG
subject-05,1,774,0.445007085800171,bear,truck,64-3-10,0774_eid_s05_64-3-10_truck_10_n04467665_40877.JPEG
subject-05,1,775,1.13604784011841,oven,oven,4-3-10,0775_eid_s05_4-3-10_oven_10_n04111531_22466.JPEG
subject-05,1,776,0.59278416633606,bottle,bear,16-0-10,0776_eid_s05_16-0-10_bear_10_n02133161_8856.JPEG
subject-05,1,777,0.461164951324463,boat,boat,4-10-10,0777_eid_s05_4-10-10_boat_10_n04273569_20778.JPEG
subject-05,1,778,0.575654029846191,cat,oven,32-10-10,0778_eid_s05_32-10-10_oven_10_n04111531_14903.JPEG
subject-05,1,779,0.912309885025024,airplane,airplane,4-0-10,0779_eid_s05_4-0-10_airplane_10_n02690373_5528.JPEG
subject-05,1,780,0.554699897766113,boat,truck,64-10-10,0780_eid_s05_64-10-10_truck_10_n03417042_27486.JPEG
subject-05,1,781,0.606207847595215,airplane,airplane,16-10-10,0781_eid_s05_16-10-10_airplane_10_n02690373_9401.JPEG
subject-05,1,782,1.12856698036194,bottle,oven,8-10-10,0782_eid_s05_8-10-10_oven_10_n04111531_13542.JPEG
subject-05,1,783,0.621019124984741,airplane,airplane,1-10-10,0783_eid_s05_1-10-10_airplane_10_n02690373_5238.JPEG
subject-05,1,784,0.659521102905273,boat,bottle,128-0-10,0784_eid_s05_128-0-10_bottle_10_n03983396_1202.JPEG
subject-05,1,785,0.706053972244263,truck,chair,16-0-10,0785_eid_s05_16-0-10_chair_10_n02791124_13800.JPEG
subject-05,1,786,0.92079496383667,bear,bear,128-0-10,0786_eid_s05_128-0-10_bear_10_n02134084_15197.JPEG
subject-05,1,787,0.888870000839233,airplane,bird,32-3-10,0787_eid_s05_32-3-10_bird_10_n01843065_1624.JPEG
subject-05,1,788,0.64965295791626,oven,cat,32-0-10,0788_eid_s05_32-0-10_cat_10_n02123394_353.JPEG
subject-05,1,789,0.550368070602417,cat,cat,2-0-10,0789_eid_s05_2-0-10_cat_10_n02123045_5024.JPEG
subject-05,1,790,1.23957395553589,elephant,elephant,2-10-10,0790_eid_s05_2-10-10_elephant_10_n02504458_3716.JPEG
subject-05,1,791,1.5004301071167,car,car,1-0-10,0791_eid_s05_1-0-10_car_10_n04285008_3269.JPEG
subject-05,1,792,0.892954111099243,cat,oven,128-10-10,0792_eid_s05_128-10-10_oven_10_n04111531_313.JPEG
subject-05,1,793,0.707484006881714,cat,chair,64-10-10,0793_eid_s05_64-10-10_chair_10_n02791124_5423.JPEG
subject-05,1,794,1.39239978790283,elephant,elephant,2-0-10,0794_eid_s05_2-0-10_elephant_10_n02504458_13310.JPEG
subject-05,1,795,NaN,na,keyboard,64-10-10,0795_eid_s05_64-10-10_keyboard_10_n03085013_18907.JPEG
subject-05,1,796,0.784526109695435,oven,oven,4-0-10,0796_eid_s05_4-0-10_oven_10_n04111531_7821.JPEG
subject-05,1,797,0.929217100143433,elephant,elephant,4-0-10,0797_eid_s05_4-0-10_elephant_10_n02504458_2244.JPEG
subject-05,1,798,0.805221796035767,chair,chair,1-0-10,0798_eid_s05_1-0-10_chair_10_n02791124_2009.JPEG
subject-05,1,799,0.752833127975464,cat,oven,4-0-10,0799_eid_s05_4-0-10_oven_10_n04111531_5965.JPEG
subject-05,1,800,0.553479194641113,boat,bird,64-3-10,0800_eid_s05_64-3-10_bird_10_n01532829_36951.JPEG
subject-05,1,801,0.907446146011353,bear,bottle,32-10-10,0801_eid_s05_32-10-10_bottle_10_n04557648_9869.JPEG
subject-05,1,802,1.01464104652405,car,keyboard,64-3-10,0802_eid_s05_64-3-10_keyboard_10_n03085013_19581.JPEG
subject-05,1,803,1.22902202606201,elephant,elephant,4-10-10,0803_eid_s05_4-10-10_elephant_10_n02504458_4.JPEG
subject-05,1,804,NaN,na,chair,128-3-10,0804_eid_s05_128-3-10_chair_10_n03376595_8812.JPEG
subject-05,1,805,0.667989015579224,cat,bicycle,8-0-10,0805_eid_s05_8-0-10_bicycle_10_n02835271_3642.JPEG
subject-05,1,806,NaN,na,elephant,2-10-10,0806_eid_s05_2-10-10_elephant_10_n02504013_10857.JPEG
subject-05,1,807,0.680027961730957,car,car,8-3-10,0807_eid_s05_8-3-10_car_10_n04285008_11698.JPEG
subject-05,1,808,1.37014293670654,cat,bird,32-3-10,0808_eid_s05_32-3-10_bird_10_n02025239_2156.JPEG
subject-05,1,809,NaN,na,airplane,8-3-10,0809_eid_s05_8-3-10_airplane_10_n02690373_736.JPEG
subject-05,1,810,0.586925029754639,boat,bird,64-0-10,0810_eid_s05_64-0-10_bird_10_n01537544_8880.JPEG
subject-05,1,811,1.5000901222229,clock,bottle,128-3-10,0811_eid_s05_128-3-10_bottle_10_n03983396_24111.JPEG
subject-05,1,812,0.561203002929688,boat,boat,4-3-10,0812_eid_s05_4-3-10_boat_10_n04273569_13828.JPEG
subject-05,1,813,0.959968090057373,keyboard,oven,2-10-10,0813_eid_s05_2-10-10_oven_10_n04111531_807.JPEG
subject-05,1,814,0.728491067886353,bottle,bottle,4-3-10,0814_eid_s05_4-3-10_bottle_10_n02823428_6050.JPEG
subject-05,1,815,0.558783054351807,boat,oven,32-10-10,0815_eid_s05_32-10-10_oven_10_n04111531_4332.JPEG
subject-05,1,816,0.518516778945923,clock,dog,128-3-10,0816_eid_s05_128-3-10_dog_10_n02108551_7383.JPEG
subject-05,1,817,0.718748092651367,cat,cat,8-3-10,0817_eid_s05_8-3-10_cat_10_n02124075_12648.JPEG
subject-05,1,818,1.03380084037781,boat,boat,2-0-10,0818_eid_s05_2-0-10_boat_10_n02951358_4893.JPEG
subject-05,1,819,0.83962607383728,airplane,bear,1-10-10,0819_eid_s05_1-10-10_bear_10_n02134084_18488.JPEG
subject-05,1,820,0.940222978591919,dog,dog,2-10-10,0820_eid_s05_2-10-10_dog_10_n02112706_3714.JPEG
subject-05,1,821,0.576084852218628,cat,bottle,128-10-10,0821_eid_s05_128-10-10_bottle_10_n04560804_332.JPEG
subject-05,1,822,0.922883033752441,keyboard,keyboard,1-0-10,0822_eid_s05_1-0-10_keyboard_10_n03085013_10659.JPEG
subject-05,1,823,0.607962131500244,bird,car,128-0-10,0823_eid_s05_128-0-10_car_10_n03100240_17754.JPEG
subject-05,1,824,0.781455039978027,truck,truck,2-3-10,0824_eid_s05_2-3-10_truck_10_n03796401_6210.JPEG
subject-05,1,825,1.26654005050659,elephant,chair,32-10-10,0825_eid_s05_32-10-10_chair_10_n04099969_5674.JPEG
subject-05,1,826,1.07342600822449,bird,car,32-3-10,0826_eid_s05_32-3-10_car_10_n02814533_66666.JPEG
subject-05,1,827,0.557696104049683,boat,elephant,128-10-10,0827_eid_s05_128-10-10_elephant_10_n02504458_259.JPEG
subject-05,1,828,1.49653482437134,elephant,elephant,8-3-10,0828_eid_s05_8-3-10_elephant_10_n02504458_4811.JPEG
subject-05,1,829,0.689510107040405,cat,elephant,16-3-10,0829_eid_s05_16-3-10_elephant_10_n02504013_18091.JPEG
subject-05,1,830,0.828188896179199,clock,bear,128-0-10,0830_eid_s05_128-0-10_bear_10_n02133161_7612.JPEG
subject-05,1,831,1.22635102272034,oven,chair,16-3-10,0831_eid_s05_16-3-10_chair_10_n04099969_3951.JPEG
subject-05,1,832,1.42453718185425,elephant,knife,32-3-10,0832_eid_s05_32-3-10_knife_10_n03041632_15431.JPEG
subject-05,1,833,1.50027894973755,clock,clock,2-3-10,0833_eid_s05_2-3-10_clock_10_n03196217_3257.JPEG
subject-05,1,834,1.28532195091248,boat,clock,128-0-10,0834_eid_s05_128-0-10_clock_10_n03196217_6377.JPEG
subject-05,1,835,0.99073600769043,chair,boat,16-3-10,0835_eid_s05_16-3-10_boat_10_n03662601_9211.JPEG
subject-05,1,836,1.25675797462463,cat,elephant,2-3-10,0836_eid_s05_2-3-10_elephant_10_n02504013_2402.JPEG
subject-05,1,837,1.01934003829956,dog,dog,8-3-10,0837_eid_s05_8-3-10_dog_10_n02107574_289.JPEG
subject-05,1,838,0.632925033569336,boat,chair,8-10-10,0838_eid_s05_8-10-10_chair_10_n02791124_6548.JPEG
subject-05,1,839,0.863886117935181,bear,clock,128-3-10,0839_eid_s05_128-3-10_clock_10_n03196217_2530.JPEG
subject-05,1,840,0.707545042037964,clock,clock,1-0-10,0840_eid_s05_1-0-10_clock_10_n03196217_10578.JPEG
subject-05,1,841,0.591207027435303,cat,boat,32-3-10,0841_eid_s05_32-3-10_boat_10_n03662601_4361.JPEG
subject-05,1,842,0.92796802520752,bird,bird,8-3-10,0842_eid_s05_8-3-10_bird_10_n02009912_7560.JPEG
subject-05,1,843,0.636447191238403,boat,bottle,32-3-10,0843_eid_s05_32-3-10_bottle_10_n03937543_7239.JPEG
subject-05,1,844,0.743508100509644,elephant,elephant,1-3-10,0844_eid_s05_1-3-10_elephant_10_n02504013_10588.JPEG
subject-05,1,845,0.767850160598755,bicycle,bicycle,1-3-10,0845_eid_s05_1-3-10_bicycle_10_n03792782_13311.JPEG
subject-05,1,846,1.21212291717529,bear,bear,8-0-10,0846_eid_s05_8-0-10_bear_10_n02132136_2719.JPEG
subject-05,1,847,NaN,na,truck,2-0-10,0847_eid_s05_2-0-10_truck_10_n03796401_9038.JPEG
subject-05,1,848,0.824270963668823,dog,dog,4-3-10,0848_eid_s05_4-3-10_dog_10_n02100877_2226.JPEG
subject-05,1,849,0.800490140914917,airplane,airplane,16-10-10,0849_eid_s05_16-10-10_airplane_10_n02690373_817.JPEG
subject-05,1,850,0.631119012832642,boat,cat,64-3-10,0850_eid_s05_64-3-10_cat_10_n02123394_6826.JPEG
subject-05,1,851,0.612879991531372,cat,bear,64-3-10,0851_eid_s05_64-3-10_bear_10_n02132136_7659.JPEG
subject-05,1,852,1.0190749168396,bicycle,bicycle,1-0-10,0852_eid_s05_1-0-10_bicycle_10_n03792782_19937.JPEG
subject-05,1,853,0.916873931884766,keyboard,keyboard,4-0-10,0853_eid_s05_4-0-10_keyboard_10_n03085013_18903.JPEG
subject-05,1,854,0.947930812835693,knife,knife,8-10-10,0854_eid_s05_8-10-10_knife_10_n03041632_15754.JPEG
subject-05,1,855,0.702489852905273,cat,cat,2-0-10,0855_eid_s05_2-0-10_cat_10_n02124075_4279.JPEG
subject-05,1,856,1.12511301040649,dog,elephant,8-3-10,0856_eid_s05_8-3-10_elephant_10_n02504458_5428.JPEG
subject-05,1,857,0.785725831985474,knife,knife,16-10-10,0857_eid_s05_16-10-10_knife_10_n03041632_45775.JPEG
subject-05,1,858,0.602013826370239,boat,boat,128-10-10,0858_eid_s05_128-10-10_boat_10_n03662601_5894.JPEG
subject-05,1,859,0.892863035202026,cat,bottle,4-3-10,0859_eid_s05_4-3-10_bottle_10_n04557648_3150.JPEG
subject-05,1,860,1.00963401794434,cat,cat,32-0-10,0860_eid_s05_32-0-10_cat_10_n02124075_754.JPEG
subject-05,1,861,1.26139402389526,car,dog,32-3-10,0861_eid_s05_32-3-10_dog_10_n02101388_16013.JPEG
subject-05,1,862,1.02127909660339,bicycle,elephant,4-10-10,0862_eid_s05_4-10-10_elephant_10_n02504458_3535.JPEG
subject-05,1,863,0.743950843811035,chair,bear,2-10-10,0863_eid_s05_2-10-10_bear_10_n02134084_22150.JPEG
subject-05,1,864,0.490679979324341,boat,chair,16-3-10,0864_eid_s05_16-3-10_chair_10_n03376595_10838.JPEG
subject-05,1,865,0.781444072723389,oven,oven,1-10-10,0865_eid_s05_1-10-10_oven_10_n04111531_5463.JPEG
subject-05,1,866,0.790281057357788,chair,chair,8-3-10,0866_eid_s05_8-3-10_chair_10_n04429376_28082.JPEG
subject-05,1,867,0.712578773498535,cat,oven,128-10-10,0867_eid_s05_128-10-10_oven_10_n04111531_23668.JPEG
subject-05,1,868,0.81045389175415,bottle,bird,64-3-10,0868_eid_s05_64-3-10_bird_10_n01860187_1672.JPEG
subject-05,1,869,0.950183868408203,car,elephant,128-10-10,0869_eid_s05_128-10-10_elephant_10_n02504013_1846.JPEG
subject-05,1,870,0.820419073104858,bird,bird,2-3-10,0870_eid_s05_2-3-10_bird_10_n01817953_7877.JPEG
subject-05,1,871,0.926774024963379,bird,bird,4-3-10,0871_eid_s05_4-3-10_bird_10_n01616318_774.JPEG
subject-05,1,872,0.779577970504761,bird,keyboard,64-3-10,0872_eid_s05_64-3-10_keyboard_10_n03085013_23843.JPEG
subject-05,1,873,0.810573101043701,bird,boat,128-3-10,0873_eid_s05_128-3-10_boat_10_n04273569_21900.JPEG
subject-05,1,874,0.954082012176514,elephant,knife,32-10-10,0874_eid_s05_32-10-10_knife_10_n03041632_23736.JPEG
subject-05,1,875,1.09280395507812,cat,bear,8-10-10,0875_eid_s05_8-10-10_bear_10_n02134084_15108.JPEG
subject-05,1,876,0.831560134887695,bird,bird,4-10-10,0876_eid_s05_4-10-10_bird_10_n01843065_7117.JPEG
subject-05,1,877,0.715808868408203,boat,truck,16-0-10,0877_eid_s05_16-0-10_truck_10_n03796401_2186.JPEG
subject-05,1,878,0.655056953430176,clock,oven,8-10-10,0878_eid_s05_8-10-10_oven_10_n04111531_5991.JPEG
subject-05,1,879,1.22292304039001,elephant,truck,128-10-10,0879_eid_s05_128-10-10_truck_10_n03417042_13869.JPEG
subject-05,1,880,0.552905082702637,boat,bicycle,64-0-10,0880_eid_s05_64-0-10_bicycle_10_n03792782_12598.JPEG
subject-05,1,881,0.590121984481812,bottle,bottle,4-10-10,0881_eid_s05_4-10-10_bottle_10_n04591713_6905.JPEG
subject-05,1,882,0.703715801239014,cat,cat,4-10-10,0882_eid_s05_4-10-10_cat_10_n02123394_834.JPEG
subject-05,1,883,0.788487195968628,cat,cat,8-0-10,0883_eid_s05_8-0-10_cat_10_n02124075_14704.JPEG
subject-05,1,884,0.702958106994629,bear,bicycle,128-10-10,0884_eid_s05_128-10-10_bicycle_10_n03792782_10223.JPEG
subject-05,1,885,0.88766884803772,cat,airplane,128-3-10,0885_eid_s05_128-3-10_airplane_10_n02690373_10285.JPEG
subject-05,1,886,1.45564484596252,clock,elephant,64-3-10,0886_eid_s05_64-3-10_elephant_10_n02504013_2949.JPEG
subject-05,1,887,0.509962797164917,boat,car,128-0-10,0887_eid_s05_128-0-10_car_10_n02814533_42762.JPEG
subject-05,1,888,1.37054300308228,keyboard,keyboard,2-10-10,0888_eid_s05_2-10-10_keyboard_10_n04505470_4617.JPEG
subject-05,1,889,0.977436065673828,dog,truck,8-0-10,0889_eid_s05_8-0-10_truck_10_n03417042_9580.JPEG
subject-05,1,890,NaN,na,bear,8-0-10,0890_eid_s05_8-0-10_bear_10_n02133161_11551.JPEG
subject-05,1,891,1.00019884109497,bird,oven,8-0-10,0891_eid_s05_8-0-10_oven_10_n04111531_4868.JPEG
subject-05,1,892,0.619986057281494,oven,airplane,8-0-10,0892_eid_s05_8-0-10_airplane_10_n02690373_8141.JPEG
subject-05,1,893,1.44259786605835,knife,knife,2-3-10,0893_eid_s05_2-3-10_knife_10_n03041632_28009.JPEG
subject-05,1,894,1.46553611755371,chair,chair,4-0-10,0894_eid_s05_4-0-10_chair_10_n04099969_4815.JPEG
subject-05,1,895,0.566057920455933,boat,clock,32-0-10,0895_eid_s05_32-0-10_clock_10_n03196217_1406.JPEG
subject-05,1,896,0.588352203369141,cat,bird,128-10-10,0896_eid_s05_128-10-10_bird_10_n01860187_4315.JPEG
subject-05,1,897,0.834743976593018,car,truck,32-10-10,0897_eid_s05_32-10-10_truck_10_n04467665_4782.JPEG
subject-05,1,898,0.673643112182617,knife,knife,8-3-10,0898_eid_s05_8-3-10_knife_10_n03041632_45326.JPEG
subject-05,1,899,0.880397796630859,elephant,elephant,2-10-10,0899_eid_s05_2-10-10_elephant_10_n02504458_10829.JPEG
subject-05,1,900,NaN,na,dog,4-0-10,0900_eid_s05_4-0-10_dog_10_n02092339_573.JPEG
subject-05,1,901,1.46297001838684,bear,bear,4-3-10,0901_eid_s05_4-3-10_bear_10_n02132136_7507.JPEG
subject-05,1,902,1.19352293014526,bear,dog,8-0-10,0902_eid_s05_8-0-10_dog_10_n02106550_759.JPEG
subject-05,1,903,0.656374931335449,bear,bear,16-10-10,0903_eid_s05_16-10-10_bear_10_n02132136_24204.JPEG
subject-05,1,904,0.763257026672363,elephant,car,16-3-10,0904_eid_s05_16-3-10_car_10_n03100240_8885.JPEG
subject-05,1,905,0.507571935653687,boat,clock,128-3-10,0905_eid_s05_128-3-10_clock_10_n03196217_1499.JPEG
subject-05,1,906,0.676264047622681,chair,chair,2-10-10,0906_eid_s05_2-10-10_chair_10_n04099969_2902.JPEG
subject-05,1,907,1.34459280967712,dog,dog,2-3-10,0907_eid_s05_2-3-10_dog_10_n02093859_1635.JPEG
subject-05,1,908,0.785448789596558,airplane,boat,2-10-10,0908_eid_s05_2-10-10_boat_10_n03344393_1056.JPEG
subject-05,1,909,0.808027029037476,airplane,airplane,1-10-10,0909_eid_s05_1-10-10_airplane_10_n02690373_9939.JPEG
subject-05,1,910,1.14447903633118,dog,elephant,32-10-10,0910_eid_s05_32-10-10_elephant_10_n02504458_3851.JPEG
subject-05,1,911,0.636860132217407,cat,cat,2-0-10,0911_eid_s05_2-0-10_cat_10_n02125311_53354.JPEG
subject-05,1,912,0.699347972869873,cat,oven,1-0-10,0912_eid_s05_1-0-10_oven_10_n04111531_2350.JPEG
subject-05,1,913,1.50011110305786,chair,chair,4-3-10,0913_eid_s05_4-3-10_chair_10_n02791124_5995.JPEG
subject-05,1,914,1.25033497810364,bear,cat,16-10-10,0914_eid_s05_16-10-10_cat_10_n02123597_8645.JPEG
subject-05,1,915,0.766472101211548,boat,oven,64-10-10,0915_eid_s05_64-10-10_oven_10_n04111531_8910.JPEG
subject-05,1,916,0.932203054428101,bottle,bottle,2-3-10,0916_eid_s05_2-3-10_bottle_10_n03983396_2746.JPEG
subject-05,1,917,1.21692109107971,cat,knife,32-0-10,0917_eid_s05_32-0-10_knife_10_n03041632_26340.JPEG
subject-05,1,918,0.746823072433472,boat,clock,16-0-10,0918_eid_s05_16-0-10_clock_10_n04548280_7478.JPEG
subject-05,1,919,0.861618041992188,car,oven,128-3-10,0919_eid_s05_128-3-10_oven_10_n04111531_6629.JPEG
subject-05,1,920,1.15399694442749,bird,elephant,32-10-10,0920_eid_s05_32-10-10_elephant_10_n02504458_7192.JPEG
subject-05,1,921,0.776867151260376,knife,knife,1-10-10,0921_eid_s05_1-10-10_knife_10_n03041632_44230.JPEG
subject-05,1,922,0.753684997558594,elephant,elephant,4-10-10,0922_eid_s05_4-10-10_elephant_10_n02504458_11700.JPEG
subject-05,1,923,0.429630041122437,boat,bear,64-3-10,0923_eid_s05_64-3-10_bear_10_n02134418_1347.JPEG
subject-05,1,924,0.560165882110596,cat,cat,2-0-10,0924_eid_s05_2-0-10_cat_10_n02124075_5507.JPEG
subject-05,1,925,0.774521112442017,keyboard,keyboard,2-10-10,0925_eid_s05_2-10-10_keyboard_10_n03085013_20157.JPEG
subject-05,1,926,0.717927217483521,bear,bear,2-0-10,0926_eid_s05_2-0-10_bear_10_n02134084_4083.JPEG
subject-05,1,927,0.611517190933228,boat,knife,16-3-10,0927_eid_s05_16-3-10_knife_10_n03041632_2386.JPEG
subject-05,1,928,0.60154914855957,bicycle,bicycle,8-3-10,0928_eid_s05_8-3-10_bicycle_10_n03792782_18725.JPEG
subject-05,1,929,0.791975021362305,clock,elephant,8-0-10,0929_eid_s05_8-0-10_elephant_10_n02504013_5533.JPEG
subject-05,1,930,0.800455808639526,boat,truck,64-0-10,0930_eid_s05_64-0-10_truck_10_n03417042_6410.JPEG
subject-05,1,931,0.731233835220337,keyboard,oven,2-3-10,0931_eid_s05_2-3-10_oven_10_n04111531_1938.JPEG
subject-05,1,932,0.667849063873291,keyboard,keyboard,4-3-10,0932_eid_s05_4-3-10_keyboard_10_n04505470_4592.JPEG
subject-05,1,933,0.636772871017456,cat,airplane,128-10-10,0933_eid_s05_128-10-10_airplane_10_n02690373_7401.JPEG
subject-05,1,934,0.5660719871521,chair,chair,1-3-10,0934_eid_s05_1-3-10_chair_10_n03376595_19102.JPEG
subject-05,1,935,0.819191932678223,bottle,bottle,8-0-10,0935_eid_s05_8-0-10_bottle_10_n04557648_6529.JPEG
subject-05,1,936,0.849646091461182,knife,knife,4-10-10,0936_eid_s05_4-10-10_knife_10_n03041632_29920.JPEG
subject-05,1,937,0.595834970474243,bicycle,bicycle,2-3-10,0937_eid_s05_2-3-10_bicycle_10_n03792782_7657.JPEG
subject-05,1,938,0.764941930770874,bear,oven,16-0-10,0938_eid_s05_16-0-10_oven_10_n04111531_13101.JPEG
subject-05,1,939,0.646568059921265,cat,dog,8-0-10,0939_eid_s05_8-0-10_dog_10_n02112350_766.JPEG
subject-05,1,940,0.822909832000732,oven,boat,16-0-10,0940_eid_s05_16-0-10_boat_10_n03662601_4437.JPEG
subject-05,1,941,0.496686935424805,boat,bear,128-10-10,0941_eid_s05_128-10-10_bear_10_n02132136_8561.JPEG
subject-05,1,942,0.635334014892578,truck,elephant,32-3-10,0942_eid_s05_32-3-10_elephant_10_n02504458_4165.JPEG
subject-05,1,943,0.717615127563477,car,car,8-3-10,0943_eid_s05_8-3-10_car_10_n02814533_8063.JPEG
subject-05,1,944,0.869771957397461,knife,knife,8-3-10,0944_eid_s05_8-3-10_knife_10_n03041632_24228.JPEG
subject-05,1,945,0.73857593536377,bottle,bottle,4-0-10,0945_eid_s05_4-0-10_bottle_10_n03983396_11729.JPEG
subject-05,1,946,0.507359981536865,cat,dog,2-10-10,0946_eid_s05_2-10-10_dog_10_n02104365_9952.JPEG
subject-05,1,947,0.729855060577393,boat,dog,32-3-10,0947_eid_s05_32-3-10_dog_10_n02113712_928.JPEG
subject-05,1,948,0.506395101547241,cat,truck,32-10-10,0948_eid_s05_32-10-10_truck_10_n04467665_9833.JPEG
subject-05,1,949,0.745335102081299,bear,keyboard,64-0-10,0949_eid_s05_64-0-10_keyboard_10_n04505470_2293.JPEG
subject-05,1,950,1.05219388008118,truck,truck,2-10-10,0950_eid_s05_2-10-10_truck_10_n04467665_30494.JPEG
subject-05,1,951,0.820900201797485,cat,dog,1-10-10,0951_eid_s05_1-10-10_dog_10_n02111129_4725.JPEG
subject-05,1,952,0.675491809844971,car,bottle,64-10-10,0952_eid_s05_64-10-10_bottle_10_n03937543_3511.JPEG
subject-05,1,953,0.811718940734863,bottle,clock,128-3-10,0953_eid_s05_128-3-10_clock_10_n04548280_2229.JPEG
subject-05,1,954,0.480281114578247,boat,knife,8-0-10,0954_eid_s05_8-0-10_knife_10_n03041632_31932.JPEG
subject-05,1,955,0.872736215591431,keyboard,keyboard,1-0-10,0955_eid_s05_1-0-10_keyboard_10_n04505470_8603.JPEG
subject-05,1,956,0.847474813461304,dog,dog,4-3-10,0956_eid_s05_4-3-10_dog_10_n02102318_5967.JPEG
subject-05,1,957,0.552629947662354,boat,bird,64-10-10,0957_eid_s05_64-10-10_bird_10_n02056570_1867.JPEG
subject-05,1,958,0.566503047943115,cat,oven,64-10-10,0958_eid_s05_64-10-10_oven_10_n04111531_8603.JPEG
