subj,session,trial,rt,object_response,category,condition,imagename
subject-03,3,1,0.918112993240356,clock,cat,32-3-10,2561_eid_s03_32-3-10_cat_10_n02124075_1560.JPEG
subject-03,3,2,0.695922136306763,bear,keyboard,16-0-10,2562_eid_s03_16-0-10_keyboard_10_n03085013_21070.JPEG
subject-03,3,3,0.608299970626831,bicycle,bicycle,2-3-10,2563_eid_s03_2-3-10_bicycle_10_n03792782_32272.JPEG
subject-03,3,4,0.59474778175354,bear,bear,128-10-10,2564_eid_s03_128-10-10_bear_10_n02134084_6733.JPEG
subject-03,3,5,0.628103971481323,oven,bear,128-3-10,2565_eid_s03_128-3-10_bear_10_n02134084_6186.JPEG
subject-03,3,6,0.716190099716187,bear,cat,64-0-10,2566_eid_s03_64-0-10_cat_10_n02123394_8463.JPEG
subject-03,3,7,0.868101119995117,truck,chair,64-3-10,2567_eid_s03_64-3-10_chair_10_n03376595_4212.JPEG
subject-03,3,8,1.38833498954773,chair,chair,16-10-10,2568_eid_s03_16-10-10_chair_10_n02791124_9120.JPEG
subject-03,3,9,0.660604953765869,chair,chair,2-0-10,2569_eid_s03_2-0-10_chair_10_n02791124_4519.JPEG
subject-03,3,10,0.550781011581421,airplane,airplane,4-10-10,2570_eid_s03_4-10-10_airplane_10_n02690373_6492.JPEG
subject-03,3,11,0.493496894836426,bear,bear,128-10-10,2571_eid_s03_128-10-10_bear_10_n02133161_489.JPEG
subject-03,3,12,0.699860095977783,clock,clock,8-10-10,2572_eid_s03_8-10-10_clock_10_n03196217_8254.JPEG
subject-03,3,13,0.942379951477051,bear,elephant,8-10-10,2573_eid_s03_8-10-10_elephant_10_n02504013_4661.JPEG
subject-03,3,14,0.762950897216797,bicycle,bicycle,2-10-10,2574_eid_s03_2-10-10_bicycle_10_n02835271_12237.JPEG
subject-03,3,15,1.01569199562073,car,truck,32-10-10,2575_eid_s03_32-10-10_truck_10_n03796401_21248.JPEG
subject-03,3,16,0.827574014663696,boat,bird,1-3-10,2576_eid_s03_1-3-10_bird_10_n01797886_28899.JPEG
subject-03,3,17,0.664354801177979,bird,keyboard,64-10-10,2577_eid_s03_64-10-10_keyboard_10_n03085013_20784.JPEG
subject-03,3,18,0.906877994537354,bicycle,bicycle,8-3-10,2578_eid_s03_8-3-10_bicycle_10_n02835271_439.JPEG
subject-03,3,19,0.580862998962402,oven,bottle,128-3-10,2579_eid_s03_128-3-10_bottle_10_n03983396_12211.JPEG
subject-03,3,20,1.09332799911499,elephant,elephant,2-10-10,2580_eid_s03_2-10-10_elephant_10_n02504458_3160.JPEG
subject-03,3,21,0.799862861633301,clock,boat,128-3-10,2581_eid_s03_128-3-10_boat_10_n03344393_3804.JPEG
subject-03,3,22,0.588393926620483,bicycle,cat,8-0-10,2582_eid_s03_8-0-10_cat_10_n02125311_13065.JPEG
subject-03,3,23,0.76288914680481,bear,bear,2-10-10,2583_eid_s03_2-10-10_bear_10_n02133161_14761.JPEG
subject-03,3,24,0.615815162658691,cat,cat,1-10-10,2584_eid_s03_1-10-10_cat_10_n02123394_747.JPEG
subject-03,3,25,1.08277916908264,knife,knife,4-0-10,2585_eid_s03_4-0-10_knife_10_n03041632_4808.JPEG
subject-03,3,26,1.25715208053589,knife,airplane,8-0-10,2586_eid_s03_8-0-10_airplane_10_n02690373_7036.JPEG
subject-03,3,27,0.861692905426025,bottle,car,64-10-10,2587_eid_s03_64-10-10_car_10_n04285008_127.JPEG
subject-03,3,28,0.98442816734314,car,keyboard,4-10-10,2588_eid_s03_4-10-10_keyboard_10_n04505470_4925.JPEG
subject-03,3,29,0.843407869338989,bicycle,boat,8-3-10,2589_eid_s03_8-3-10_boat_10_n03662601_15713.JPEG
subject-03,3,30,0.53181004524231,boat,truck,128-3-10,2590_eid_s03_128-3-10_truck_10_n03417042_29444.JPEG
subject-03,3,31,0.660576820373535,chair,chair,1-3-10,2591_eid_s03_1-3-10_chair_10_n04099969_1795.JPEG
subject-03,3,32,0.734637975692749,boat,boat,8-10-10,2592_eid_s03_8-10-10_boat_10_n03662601_34510.JPEG
subject-03,3,33,0.97644305229187,bear,bear,8-3-10,2593_eid_s03_8-3-10_bear_10_n02134084_2406.JPEG
subject-03,3,34,0.859082937240601,boat,boat,1-0-10,2594_eid_s03_1-0-10_boat_10_n02951358_11565.JPEG
subject-03,3,35,0.987503051757812,elephant,elephant,32-10-10,2595_eid_s03_32-10-10_elephant_10_n02504458_8923.JPEG
subject-03,3,36,0.468260049819946,boat,elephant,128-3-10,2596_eid_s03_128-3-10_elephant_10_n02504013_10389.JPEG
subject-03,3,37,0.820745944976807,bird,bird,2-10-10,2597_eid_s03_2-10-10_bird_10_n01818515_522.JPEG
subject-03,3,38,0.594122171401978,cat,oven,4-3-10,2598_eid_s03_4-3-10_oven_10_n04111531_9370.JPEG
subject-03,3,39,0.57610011100769,boat,keyboard,64-10-10,2599_eid_s03_64-10-10_keyboard_10_n03085013_20757.JPEG
subject-03,3,40,0.758733034133911,car,knife,32-0-10,2600_eid_s03_32-0-10_knife_10_n03041632_36277.JPEG
subject-03,3,41,0.833269119262695,oven,oven,2-0-10,2601_eid_s03_2-0-10_oven_10_n04111531_15568.JPEG
subject-03,3,42,0.737675905227661,bird,bird,8-3-10,2602_eid_s03_8-3-10_bird_10_n01843065_6267.JPEG
subject-03,3,43,1.24962520599365,cat,bird,64-10-10,2603_eid_s03_64-10-10_bird_10_n02018207_7265.JPEG
subject-03,3,44,0.746126890182495,bird,dog,16-10-10,2604_eid_s03_16-10-10_dog_10_n02104365_3400.JPEG
subject-03,3,45,0.880811929702759,cat,bear,16-3-10,2605_eid_s03_16-3-10_bear_10_n02133161_10231.JPEG
subject-03,3,46,0.483943939208984,boat,clock,64-3-10,2606_eid_s03_64-3-10_clock_10_n03196217_6388.JPEG
subject-03,3,47,0.501973867416382,boat,boat,8-3-10,2607_eid_s03_8-3-10_boat_10_n04273569_2761.JPEG
subject-03,3,48,0.554603815078735,cat,cat,2-3-10,2608_eid_s03_2-3-10_cat_10_n02123394_983.JPEG
subject-03,3,49,0.589008808135986,boat,boat,32-3-10,2609_eid_s03_32-3-10_boat_10_n02951358_33807.JPEG
subject-03,3,50,0.777557849884033,boat,boat,2-10-10,2610_eid_s03_2-10-10_boat_10_n03344393_8054.JPEG
subject-03,3,51,0.621993064880371,clock,cat,64-10-10,2611_eid_s03_64-10-10_cat_10_n02123597_1034.JPEG
subject-03,3,52,0.718357086181641,knife,keyboard,128-3-10,2612_eid_s03_128-3-10_keyboard_10_n03085013_6963.JPEG
subject-03,3,53,0.584836006164551,bear,bear,2-0-10,2613_eid_s03_2-0-10_bear_10_n02134084_5153.JPEG
subject-03,3,54,0.543493986129761,clock,knife,2-10-10,2614_eid_s03_2-10-10_knife_10_n03041632_3023.JPEG
subject-03,3,55,0.709853887557983,chair,chair,1-10-10,2615_eid_s03_1-10-10_chair_10_n04429376_5742.JPEG
subject-03,3,56,0.681917190551758,clock,clock,4-3-10,2616_eid_s03_4-3-10_clock_10_n03196217_559.JPEG
subject-03,3,57,0.610234975814819,clock,elephant,16-3-10,2617_eid_s03_16-3-10_elephant_10_n02504013_1305.JPEG
subject-03,3,58,0.731264114379883,bear,airplane,64-10-10,2618_eid_s03_64-10-10_airplane_10_n02690373_6313.JPEG
subject-03,3,59,0.813886880874634,bird,dog,16-3-10,2619_eid_s03_16-3-10_dog_10_n02107312_5883.JPEG
subject-03,3,60,0.609825134277344,airplane,knife,16-0-10,2620_eid_s03_16-0-10_knife_10_n03041632_101553.JPEG
subject-03,3,61,0.808710098266602,bicycle,chair,32-3-10,2621_eid_s03_32-3-10_chair_10_n03376595_10577.JPEG
subject-03,3,62,0.637107849121094,bear,car,32-10-10,2622_eid_s03_32-10-10_car_10_n03100240_5184.JPEG
subject-03,3,63,1.14940786361694,elephant,airplane,16-3-10,2623_eid_s03_16-3-10_airplane_10_n02690373_2162.JPEG
subject-03,3,64,0.521138191223145,car,car,4-10-10,2624_eid_s03_4-10-10_car_10_n04285008_569.JPEG
subject-03,3,65,0.974328994750977,keyboard,oven,16-0-10,2625_eid_s03_16-0-10_oven_10_n04111531_4148.JPEG
subject-03,3,66,0.50949501991272,bear,car,16-3-10,2626_eid_s03_16-3-10_car_10_n02814533_35798.JPEG
subject-03,3,67,0.907644987106323,oven,clock,16-10-10,2627_eid_s03_16-10-10_clock_10_n04548280_16233.JPEG
subject-03,3,68,0.520385026931763,bear,bear,8-0-10,2628_eid_s03_8-0-10_bear_10_n02133161_9960.JPEG
subject-03,3,69,1.06507992744446,dog,bear,16-3-10,2629_eid_s03_16-3-10_bear_10_n02132136_1621.JPEG
subject-03,3,70,0.729039907455444,clock,boat,128-10-10,2630_eid_s03_128-10-10_boat_10_n03344393_9262.JPEG
subject-03,3,71,0.587739944458008,bicycle,elephant,8-0-10,2631_eid_s03_8-0-10_elephant_10_n02504458_2517.JPEG
subject-03,3,72,0.671142101287842,cat,cat,2-10-10,2632_eid_s03_2-10-10_cat_10_n02124075_8950.JPEG
subject-03,3,73,0.545430183410645,bear,elephant,16-3-10,2633_eid_s03_16-3-10_elephant_10_n02504458_1169.JPEG
subject-03,3,74,0.628247976303101,airplane,boat,128-3-10,2634_eid_s03_128-3-10_boat_10_n04612504_20215.JPEG
subject-03,3,75,0.833179950714111,bicycle,bicycle,1-3-10,2635_eid_s03_1-3-10_bicycle_10_n03792782_55034.JPEG
subject-03,3,76,0.777233123779297,clock,bottle,8-3-10,2636_eid_s03_8-3-10_bottle_10_n04591713_3489.JPEG
subject-03,3,77,0.768445014953613,clock,clock,4-3-10,2637_eid_s03_4-3-10_clock_10_n04548280_2.JPEG
subject-03,3,78,0.564316987991333,boat,bird,2-3-10,2638_eid_s03_2-3-10_bird_10_n01818515_36461.JPEG
subject-03,3,79,0.676871061325073,bicycle,knife,32-0-10,2639_eid_s03_32-0-10_knife_10_n03041632_19620.JPEG
subject-03,3,80,0.859306812286377,bear,airplane,64-10-10,2640_eid_s03_64-10-10_airplane_10_n02690373_9619.JPEG
subject-03,3,81,0.972759008407593,oven,dog,128-0-10,2641_eid_s03_128-0-10_dog_10_n02113799_3478.JPEG
subject-03,3,82,0.583330154418945,boat,boat,1-10-10,2642_eid_s03_1-10-10_boat_10_n04612504_2780.JPEG
subject-03,3,83,0.751784801483154,boat,boat,4-3-10,2643_eid_s03_4-3-10_boat_10_n04273569_1457.JPEG
subject-03,3,84,0.807953834533691,cat,clock,16-3-10,2644_eid_s03_16-3-10_clock_10_n03196217_1454.JPEG
subject-03,3,85,0.912367820739746,bird,bird,1-0-10,2645_eid_s03_1-0-10_bird_10_n02018795_5046.JPEG
subject-03,3,86,0.678292036056519,boat,elephant,128-10-10,2646_eid_s03_128-10-10_elephant_10_n02504013_2648.JPEG
subject-03,3,87,0.74437689781189,bear,keyboard,128-3-10,2647_eid_s03_128-3-10_keyboard_10_n03085013_8865.JPEG
subject-03,3,88,0.740726947784424,knife,knife,2-0-10,2648_eid_s03_2-0-10_knife_10_n03041632_20662.JPEG
subject-03,3,89,1.00736594200134,clock,bottle,8-10-10,2649_eid_s03_8-10-10_bottle_10_n04557648_32252.JPEG
subject-03,3,90,0.935128927230835,chair,chair,8-3-10,2650_eid_s03_8-3-10_chair_10_n04099969_1219.JPEG
subject-03,3,91,0.668873071670532,bottle,airplane,32-0-10,2651_eid_s03_32-0-10_airplane_10_n02690373_1751.JPEG
subject-03,3,92,0.657701969146729,airplane,airplane,8-10-10,2652_eid_s03_8-10-10_airplane_10_n02690373_9335.JPEG
subject-03,3,93,0.593935966491699,cat,cat,4-0-10,2653_eid_s03_4-0-10_cat_10_n02123394_8296.JPEG
subject-03,3,94,0.890260934829712,knife,knife,32-10-10,2654_eid_s03_32-10-10_knife_10_n03041632_31932.JPEG
subject-03,3,95,0.648194074630737,bear,car,128-3-10,2655_eid_s03_128-3-10_car_10_n02814533_4446.JPEG
subject-03,3,96,0.890484094619751,clock,clock,8-3-10,2656_eid_s03_8-3-10_clock_10_n04548280_7661.JPEG
subject-03,3,97,1.07053899765015,bear,bear,1-0-10,2657_eid_s03_1-0-10_bear_10_n02133161_10825.JPEG
subject-03,3,98,0.982939958572388,car,car,2-0-10,2658_eid_s03_2-0-10_car_10_n03100240_646.JPEG
subject-03,3,99,0.603327989578247,bear,keyboard,32-0-10,2659_eid_s03_32-0-10_keyboard_10_n03085013_3607.JPEG
subject-03,3,100,0.608194828033447,cat,dog,8-0-10,2660_eid_s03_8-0-10_dog_10_n02111500_7980.JPEG
subject-03,3,101,0.758558988571167,cat,bear,128-0-10,2661_eid_s03_128-0-10_bear_10_n02132136_10461.JPEG
subject-03,3,102,0.941688060760498,clock,chair,16-3-10,2662_eid_s03_16-3-10_chair_10_n04429376_5674.JPEG
subject-03,3,103,0.738363981246948,bear,oven,16-10-10,2663_eid_s03_16-10-10_oven_10_n04111531_1752.JPEG
subject-03,3,104,0.663853883743286,airplane,airplane,4-10-10,2664_eid_s03_4-10-10_airplane_10_n02690373_9318.JPEG
subject-03,3,105,1.12182807922363,bear,cat,128-10-10,2665_eid_s03_128-10-10_cat_10_n02123394_7062.JPEG
subject-03,3,106,0.826050996780396,truck,truck,4-10-10,2666_eid_s03_4-10-10_truck_10_n03796401_22128.JPEG
subject-03,3,107,0.807049036026001,bottle,bottle,8-10-10,2667_eid_s03_8-10-10_bottle_10_n04579145_6506.JPEG
subject-03,3,108,0.849544048309326,airplane,airplane,1-0-10,2668_eid_s03_1-0-10_airplane_10_n02690373_5003.JPEG
subject-03,3,109,0.577867984771729,cat,chair,16-3-10,2669_eid_s03_16-3-10_chair_10_n02791124_7142.JPEG
subject-03,3,110,0.973675966262817,bear,elephant,16-10-10,2670_eid_s03_16-10-10_elephant_10_n02504458_2778.JPEG
subject-03,3,111,0.594352960586548,bicycle,bicycle,4-3-10,2671_eid_s03_4-3-10_bicycle_10_n02835271_2625.JPEG
subject-03,3,112,0.713125944137573,clock,clock,1-3-10,2672_eid_s03_1-3-10_clock_10_n04548280_4768.JPEG
subject-03,3,113,0.48757004737854,bicycle,bird,128-3-10,2673_eid_s03_128-3-10_bird_10_n01622779_2285.JPEG
subject-03,3,114,0.576110124588013,oven,bird,32-3-10,2674_eid_s03_32-3-10_bird_10_n02051845_35398.JPEG
subject-03,3,115,0.533862829208374,oven,elephant,16-0-10,2675_eid_s03_16-0-10_elephant_10_n02504458_6738.JPEG
subject-03,3,116,0.922888040542603,bear,bear,8-0-10,2676_eid_s03_8-0-10_bear_10_n02134084_5822.JPEG
subject-03,3,117,0.6755530834198,bottle,knife,2-0-10,2677_eid_s03_2-0-10_knife_10_n03041632_21590.JPEG
subject-03,3,118,0.71771502494812,clock,cat,128-3-10,2678_eid_s03_128-3-10_cat_10_n02123394_702.JPEG
subject-03,3,119,0.760345935821533,keyboard,bicycle,32-0-10,2679_eid_s03_32-0-10_bicycle_10_n02835271_9280.JPEG
subject-03,3,120,0.710915088653564,knife,oven,32-10-10,2680_eid_s03_32-10-10_oven_10_n04111531_6445.JPEG
subject-03,3,121,0.799844980239868,boat,boat,8-10-10,2681_eid_s03_8-10-10_boat_10_n03662601_16694.JPEG
subject-03,3,122,0.820209980010986,cat,cat,4-0-10,2682_eid_s03_4-0-10_cat_10_n02125311_7527.JPEG
subject-03,3,123,0.6786789894104,cat,cat,2-0-10,2683_eid_s03_2-0-10_cat_10_n02125311_47452.JPEG
subject-03,3,124,0.758997917175293,elephant,clock,32-10-10,2684_eid_s03_32-10-10_clock_10_n02708093_6430.JPEG
subject-03,3,125,0.871498823165894,chair,oven,1-3-10,2685_eid_s03_1-3-10_oven_10_n04111531_690.JPEG
subject-03,3,126,0.573047876358032,clock,knife,16-0-10,2686_eid_s03_16-0-10_knife_10_n03041632_21560.JPEG
subject-03,3,127,NaN,na,dog,2-0-10,2687_eid_s03_2-0-10_dog_10_n02099601_7432.JPEG
subject-03,3,128,0.506477117538452,clock,clock,2-10-10,2688_eid_s03_2-10-10_clock_10_n04548280_9260.JPEG
subject-03,3,129,0.770142793655396,chair,oven,2-0-10,2689_eid_s03_2-0-10_oven_10_n04111531_7593.JPEG
subject-03,3,130,0.712857961654663,bear,knife,128-3-10,2690_eid_s03_128-3-10_knife_10_n03041632_18141.JPEG
subject-03,3,131,0.471840858459473,clock,bird,128-3-10,2691_eid_s03_128-3-10_bird_10_n02007558_394.JPEG
subject-03,3,132,0.576745986938477,bear,truck,128-10-10,2692_eid_s03_128-10-10_truck_10_n04467665_41352.JPEG
subject-03,3,133,1.00510215759277,oven,oven,2-10-10,2693_eid_s03_2-10-10_oven_10_n04111531_10640.JPEG
subject-03,3,134,0.623623132705688,clock,bear,16-3-10,2694_eid_s03_16-3-10_bear_10_n02134084_4278.JPEG
subject-03,3,135,0.920156955718994,airplane,clock,64-0-10,2695_eid_s03_64-0-10_clock_10_n02708093_1630.JPEG
subject-03,3,136,0.724601984024048,oven,oven,8-10-10,2696_eid_s03_8-10-10_oven_10_n04111531_21404.JPEG
subject-03,3,137,0.745121002197266,bicycle,bicycle,1-10-10,2697_eid_s03_1-10-10_bicycle_10_n03792782_5535.JPEG
subject-03,3,138,0.57374906539917,car,car,32-3-10,2698_eid_s03_32-3-10_car_10_n04285008_14073.JPEG
subject-03,3,139,0.654293775558472,bear,bird,128-10-10,2699_eid_s03_128-10-10_bird_10_n02018795_10187.JPEG
subject-03,3,140,0.482887029647827,oven,cat,8-0-10,2700_eid_s03_8-0-10_cat_10_n02124075_8884.JPEG
subject-03,3,141,0.747241020202637,oven,chair,4-0-10,2701_eid_s03_4-0-10_chair_10_n02791124_3781.JPEG
subject-03,3,142,1.21387696266174,cat,cat,2-3-10,2702_eid_s03_2-3-10_cat_10_n02125311_19722.JPEG
subject-03,3,143,0.564396142959595,clock,clock,4-3-10,2703_eid_s03_4-3-10_clock_10_n04548280_1672.JPEG
subject-03,3,144,0.727979898452759,keyboard,keyboard,4-10-10,2704_eid_s03_4-10-10_keyboard_10_n04505470_1816.JPEG
subject-03,3,145,0.817315816879272,truck,truck,1-10-10,2705_eid_s03_1-10-10_truck_10_n03796401_11628.JPEG
subject-03,3,146,0.551216840744019,clock,clock,4-10-10,2706_eid_s03_4-10-10_clock_10_n02708093_470.JPEG
subject-03,3,147,NaN,na,knife,2-10-10,2707_eid_s03_2-10-10_knife_10_n03041632_932.JPEG
subject-03,3,148,1.26009392738342,knife,chair,128-3-10,2708_eid_s03_128-3-10_chair_10_n03376595_15627.JPEG
subject-03,3,149,0.686912059783936,boat,boat,1-0-10,2709_eid_s03_1-0-10_boat_10_n04612504_21176.JPEG
subject-03,3,150,0.669389009475708,oven,dog,128-10-10,2710_eid_s03_128-10-10_dog_10_n02110185_10518.JPEG
subject-03,3,151,1.07907390594482,bear,bird,32-0-10,2711_eid_s03_32-0-10_bird_10_n02007558_3253.JPEG
subject-03,3,152,0.550948143005371,oven,airplane,16-0-10,2712_eid_s03_16-0-10_airplane_10_n02690373_9423.JPEG
subject-03,3,153,1.14186191558838,dog,dog,1-3-10,2713_eid_s03_1-3-10_dog_10_n02111500_9064.JPEG
subject-03,3,154,0.930366039276123,chair,chair,2-0-10,2714_eid_s03_2-0-10_chair_10_n02791124_12832.JPEG
subject-03,3,155,0.741328954696655,keyboard,oven,16-10-10,2715_eid_s03_16-10-10_oven_10_n04111531_12903.JPEG
subject-03,3,156,0.637707948684692,bear,boat,128-10-10,2716_eid_s03_128-10-10_boat_10_n02951358_5814.JPEG
subject-03,3,157,0.682095050811768,cat,bottle,32-10-10,2717_eid_s03_32-10-10_bottle_10_n03937543_1736.JPEG
subject-03,3,158,0.700315952301025,car,boat,128-10-10,2718_eid_s03_128-10-10_boat_10_n03344393_5909.JPEG
subject-03,3,159,1.20510983467102,dog,dog,2-3-10,2719_eid_s03_2-3-10_dog_10_n02108915_12634.JPEG
subject-03,3,160,1.1556088924408,dog,cat,16-3-10,2720_eid_s03_16-3-10_cat_10_n02123045_11859.JPEG
subject-03,3,161,0.690384864807129,oven,elephant,64-3-10,2721_eid_s03_64-3-10_elephant_10_n02504458_5982.JPEG
subject-03,3,162,0.73854398727417,bottle,dog,16-0-10,2722_eid_s03_16-0-10_dog_10_n02091032_3969.JPEG
subject-03,3,163,0.635421991348267,chair,knife,64-3-10,2723_eid_s03_64-3-10_knife_10_n03041632_24646.JPEG
subject-03,3,164,0.67751407623291,airplane,bird,16-0-10,2724_eid_s03_16-0-10_bird_10_n02007558_13322.JPEG
subject-03,3,165,1.50038599967957,boat,keyboard,8-0-10,2725_eid_s03_8-0-10_keyboard_10_n04505470_4918.JPEG
subject-03,3,166,0.662384986877441,bear,keyboard,32-0-10,2726_eid_s03_32-0-10_keyboard_10_n04505470_4909.JPEG
subject-03,3,167,0.904975891113281,bottle,boat,64-10-10,2727_eid_s03_64-10-10_boat_10_n04612504_7166.JPEG
subject-03,3,168,0.733515024185181,keyboard,boat,64-0-10,2728_eid_s03_64-0-10_boat_10_n02951358_5952.JPEG
subject-03,3,169,0.460106134414673,boat,boat,2-3-10,2729_eid_s03_2-3-10_boat_10_n04273569_12650.JPEG
subject-03,3,170,0.772387981414795,truck,truck,4-3-10,2730_eid_s03_4-3-10_truck_10_n03417042_29434.JPEG
subject-03,3,171,0.77490496635437,chair,chair,2-3-10,2731_eid_s03_2-3-10_chair_10_n04429376_4379.JPEG
subject-03,3,172,0.771862030029297,clock,clock,8-3-10,2732_eid_s03_8-3-10_clock_10_n02708093_597.JPEG
subject-03,3,173,0.668098926544189,airplane,bicycle,16-10-10,2733_eid_s03_16-10-10_bicycle_10_n02835271_5814.JPEG
subject-03,3,174,0.586469888687134,oven,oven,2-3-10,2734_eid_s03_2-3-10_oven_10_n04111531_3911.JPEG
subject-03,3,175,0.766919136047363,keyboard,car,32-3-10,2735_eid_s03_32-3-10_car_10_n02814533_80837.JPEG
subject-03,3,176,0.98661994934082,bear,bear,16-10-10,2736_eid_s03_16-10-10_bear_10_n02134418_8775.JPEG
subject-03,3,177,0.791821002960205,elephant,oven,64-3-10,2737_eid_s03_64-3-10_oven_10_n04111531_8687.JPEG
subject-03,3,178,0.842798948287964,bottle,cat,4-3-10,2738_eid_s03_4-3-10_cat_10_n02125311_44305.JPEG
subject-03,3,179,0.553204774856567,oven,boat,64-0-10,2739_eid_s03_64-0-10_boat_10_n03344393_1731.JPEG
subject-03,3,180,0.633203029632568,cat,dog,32-3-10,2740_eid_s03_32-3-10_dog_10_n02112018_249.JPEG
subject-03,3,181,0.637022018432617,clock,bottle,128-0-10,2741_eid_s03_128-0-10_bottle_10_n04591713_5702.JPEG
subject-03,3,182,0.651049852371216,bottle,bottle,1-10-10,2742_eid_s03_1-10-10_bottle_10_n03937543_2736.JPEG
subject-03,3,183,0.985597133636475,clock,clock,8-0-10,2743_eid_s03_8-0-10_clock_10_n04548280_2455.JPEG
subject-03,3,184,0.558145046234131,bicycle,keyboard,64-10-10,2744_eid_s03_64-10-10_keyboard_10_n04505470_4366.JPEG
subject-03,3,185,0.778604984283447,bear,clock,16-0-10,2745_eid_s03_16-0-10_clock_10_n03196217_5669.JPEG
subject-03,3,186,0.680871963500977,cat,cat,16-10-10,2746_eid_s03_16-10-10_cat_10_n02123597_1410.JPEG
subject-03,3,187,0.677309036254883,car,truck,1-3-10,2747_eid_s03_1-3-10_truck_10_n03417042_1714.JPEG
subject-03,3,188,1.20647501945496,bottle,bottle,1-10-10,2748_eid_s03_1-10-10_bottle_10_n04579145_7388.JPEG
subject-03,3,189,0.586488008499146,cat,cat,4-10-10,2749_eid_s03_4-10-10_cat_10_n02123159_3280.JPEG
subject-03,3,190,1.02085089683533,elephant,elephant,8-3-10,2750_eid_s03_8-3-10_elephant_10_n02504458_458.JPEG
subject-03,3,191,0.977736949920654,clock,bottle,32-0-10,2751_eid_s03_32-0-10_bottle_10_n03983396_21968.JPEG
subject-03,3,192,0.758049964904785,chair,truck,1-10-10,2752_eid_s03_1-10-10_truck_10_n03796401_12606.JPEG
subject-03,3,193,0.754041194915771,bear,truck,16-0-10,2753_eid_s03_16-0-10_truck_10_n03417042_5768.JPEG
subject-03,3,194,0.521055936813354,clock,bottle,32-0-10,2754_eid_s03_32-0-10_bottle_10_n04591713_3302.JPEG
subject-03,3,195,0.993470907211304,knife,knife,2-3-10,2755_eid_s03_2-3-10_knife_10_n03041632_27575.JPEG
subject-03,3,196,0.998106956481934,dog,dog,32-10-10,2756_eid_s03_32-10-10_dog_10_n02101556_13869.JPEG
subject-03,3,197,0.54113507270813,boat,cat,128-0-10,2757_eid_s03_128-0-10_cat_10_n02124075_15457.JPEG
subject-03,3,198,0.513904094696045,oven,chair,32-10-10,2758_eid_s03_32-10-10_chair_10_n04429376_45082.JPEG
subject-03,3,199,0.731587886810303,bear,elephant,8-0-10,2759_eid_s03_8-0-10_elephant_10_n02504013_9775.JPEG
subject-03,3,200,0.695899963378906,chair,oven,8-0-10,2760_eid_s03_8-0-10_oven_10_n04111531_9474.JPEG
subject-03,3,201,0.754560947418213,elephant,dog,128-0-10,2761_eid_s03_128-0-10_dog_10_n02102177_3454.JPEG
subject-03,3,202,0.643524169921875,keyboard,bottle,16-0-10,2762_eid_s03_16-0-10_bottle_10_n04557648_1820.JPEG
subject-03,3,203,0.640106916427612,bear,bear,64-10-10,2763_eid_s03_64-10-10_bear_10_n02133161_7379.JPEG
subject-03,3,204,0.749703884124756,car,car,1-10-10,2764_eid_s03_1-10-10_car_10_n04285008_1730.JPEG
subject-03,3,205,0.697999954223633,oven,bird,32-0-10,2765_eid_s03_32-0-10_bird_10_n01820546_4894.JPEG
subject-03,3,206,1.11075401306152,dog,dog,8-3-10,2766_eid_s03_8-3-10_dog_10_n02108915_1217.JPEG
subject-03,3,207,0.782667875289917,cat,airplane,128-0-10,2767_eid_s03_128-0-10_airplane_10_n02690373_3617.JPEG
subject-03,3,208,1.0470860004425,cat,bear,2-10-10,2768_eid_s03_2-10-10_bear_10_n02133161_4685.JPEG
subject-03,3,209,0.578158855438232,bear,elephant,128-0-10,2769_eid_s03_128-0-10_elephant_10_n02504458_651.JPEG
subject-03,3,210,0.482286930084229,oven,cat,128-10-10,2770_eid_s03_128-10-10_cat_10_n02124075_10088.JPEG
subject-03,3,211,0.855411052703857,keyboard,chair,32-0-10,2771_eid_s03_32-0-10_chair_10_n04429376_11720.JPEG
subject-03,3,212,0.575913906097412,clock,dog,64-10-10,2772_eid_s03_64-10-10_dog_10_n02111277_4345.JPEG
subject-03,3,213,0.624849081039429,airplane,oven,64-0-10,2773_eid_s03_64-0-10_oven_10_n04111531_8723.JPEG
subject-03,3,214,0.82177209854126,knife,chair,128-0-10,2774_eid_s03_128-0-10_chair_10_n04429376_22811.JPEG
subject-03,3,215,0.772125005722046,cat,chair,8-3-10,2775_eid_s03_8-3-10_chair_10_n04099969_8360.JPEG
subject-03,3,216,0.883090972900391,clock,clock,2-3-10,2776_eid_s03_2-3-10_clock_10_n03196217_7272.JPEG
subject-03,3,217,0.60890007019043,boat,bottle,32-3-10,2777_eid_s03_32-3-10_bottle_10_n02823428_8750.JPEG
subject-03,3,218,0.714099884033203,clock,clock,16-10-10,2778_eid_s03_16-10-10_clock_10_n03196217_484.JPEG
subject-03,3,219,0.878643035888672,bicycle,knife,4-10-10,2779_eid_s03_4-10-10_knife_10_n03041632_28201.JPEG
subject-03,3,220,0.458492040634155,cat,dog,64-0-10,2780_eid_s03_64-0-10_dog_10_n02106550_12275.JPEG
subject-03,3,221,0.668567180633545,bear,bicycle,64-10-10,2781_eid_s03_64-10-10_bicycle_10_n02835271_3392.JPEG
subject-03,3,222,1.01040887832642,truck,keyboard,16-0-10,2782_eid_s03_16-0-10_keyboard_10_n03085013_7576.JPEG
subject-03,3,223,0.651631116867065,oven,bird,16-0-10,2783_eid_s03_16-0-10_bird_10_n02018795_7504.JPEG
subject-03,3,224,0.923859834671021,oven,elephant,4-3-10,2784_eid_s03_4-3-10_elephant_10_n02504458_2041.JPEG
subject-03,3,225,0.828416109085083,elephant,elephant,1-10-10,2785_eid_s03_1-10-10_elephant_10_n02504013_3028.JPEG
subject-03,3,226,0.860389947891235,bird,knife,4-0-10,2786_eid_s03_4-0-10_knife_10_n03041632_23667.JPEG
subject-03,3,227,0.640783071517944,clock,bird,128-0-10,2787_eid_s03_128-0-10_bird_10_n01537544_32.JPEG
subject-03,3,228,0.675475835800171,bottle,bottle,2-10-10,2788_eid_s03_2-10-10_bottle_10_n03983396_6817.JPEG
subject-03,3,229,0.571965932846069,cat,cat,2-0-10,2789_eid_s03_2-0-10_cat_10_n02123045_2869.JPEG
subject-03,3,230,0.73646092414856,bird,bird,1-0-10,2790_eid_s03_1-0-10_bird_10_n02011460_3939.JPEG
subject-03,3,231,0.571297883987427,oven,bottle,16-3-10,2791_eid_s03_16-3-10_bottle_10_n03983396_269.JPEG
subject-03,3,232,0.797573804855347,bear,bear,2-0-10,2792_eid_s03_2-0-10_bear_10_n02133161_3247.JPEG
subject-03,3,233,1.11626505851746,elephant,bottle,16-0-10,2793_eid_s03_16-0-10_bottle_10_n04560804_2398.JPEG
subject-03,3,234,0.688956022262573,clock,clock,1-10-10,2794_eid_s03_1-10-10_clock_10_n02708093_2805.JPEG
subject-03,3,235,1.07745814323425,elephant,elephant,8-0-10,2795_eid_s03_8-0-10_elephant_10_n02504458_8109.JPEG
subject-03,3,236,0.570388078689575,bear,bicycle,128-10-10,2796_eid_s03_128-10-10_bicycle_10_n03792782_23912.JPEG
subject-03,3,237,0.564911842346191,cat,bear,32-3-10,2797_eid_s03_32-3-10_bear_10_n02134418_1084.JPEG
subject-03,3,238,1.00776600837708,car,dog,128-3-10,2798_eid_s03_128-3-10_dog_10_n02092339_284.JPEG
subject-03,3,239,1.11820507049561,chair,dog,8-10-10,2799_eid_s03_8-10-10_dog_10_n02091032_11246.JPEG
subject-03,3,240,0.668297052383423,truck,truck,4-3-10,2800_eid_s03_4-3-10_truck_10_n04467665_1101.JPEG
subject-03,3,241,0.608975887298584,cat,bird,32-0-10,2801_eid_s03_32-0-10_bird_10_n02007558_13060.JPEG
subject-03,3,242,0.621699094772339,oven,bear,64-10-10,2802_eid_s03_64-10-10_bear_10_n02134084_10316.JPEG
subject-03,3,243,0.570092916488647,oven,bird,128-0-10,2803_eid_s03_128-0-10_bird_10_n01531178_5970.JPEG
subject-03,3,244,1.06701397895813,knife,knife,2-3-10,2804_eid_s03_2-3-10_knife_10_n03041632_85416.JPEG
subject-03,3,245,1.30128407478333,bicycle,bicycle,4-10-10,2805_eid_s03_4-10-10_bicycle_10_n02835271_17168.JPEG
subject-03,3,246,0.742070198059082,chair,chair,2-3-10,2806_eid_s03_2-3-10_chair_10_n04429376_6424.JPEG
subject-03,3,247,0.847069978713989,bottle,bottle,8-0-10,2807_eid_s03_8-0-10_bottle_10_n04560804_3295.JPEG
subject-03,3,248,0.737337827682495,bicycle,bicycle,4-0-10,2808_eid_s03_4-0-10_bicycle_10_n02835271_12123.JPEG
subject-03,3,249,1.01808094978333,knife,knife,16-3-10,2809_eid_s03_16-3-10_knife_10_n03041632_20413.JPEG
subject-03,3,250,0.582106113433838,boat,chair,128-10-10,2810_eid_s03_128-10-10_chair_10_n04099969_2215.JPEG
subject-03,3,251,0.803117990493774,chair,chair,2-10-10,2811_eid_s03_2-10-10_chair_10_n04429376_23039.JPEG
subject-03,3,252,0.943487882614136,cat,cat,2-3-10,2812_eid_s03_2-3-10_cat_10_n02124075_7932.JPEG
subject-03,3,253,0.797921895980835,boat,truck,128-10-10,2813_eid_s03_128-10-10_truck_10_n03417042_9580.JPEG
subject-03,3,254,0.554494857788086,oven,truck,16-0-10,2814_eid_s03_16-0-10_truck_10_n03796401_7700.JPEG
subject-03,3,255,0.65721607208252,airplane,chair,64-3-10,2815_eid_s03_64-3-10_chair_10_n02791124_13361.JPEG
subject-03,3,256,0.469986915588379,bear,bird,128-3-10,2816_eid_s03_128-3-10_bird_10_n01855672_3636.JPEG
subject-03,3,257,0.769558191299438,bottle,bottle,8-3-10,2817_eid_s03_8-3-10_bottle_10_n04557648_2456.JPEG
subject-03,3,258,0.617594957351685,oven,bear,32-0-10,2818_eid_s03_32-0-10_bear_10_n02133161_11371.JPEG
subject-03,3,259,0.914712905883789,keyboard,keyboard,8-3-10,2819_eid_s03_8-3-10_keyboard_10_n04505470_9952.JPEG
subject-03,3,260,0.703300952911377,elephant,elephant,2-10-10,2820_eid_s03_2-10-10_elephant_10_n02504013_1908.JPEG
subject-03,3,261,0.635954856872559,boat,chair,16-10-10,2821_eid_s03_16-10-10_chair_10_n04099969_25322.JPEG
subject-03,3,262,1.23163294792175,bear,elephant,16-10-10,2822_eid_s03_16-10-10_elephant_10_n02504013_3181.JPEG
subject-03,3,263,0.842678785324097,bird,bird,4-3-10,2823_eid_s03_4-3-10_bird_10_n01843065_7035.JPEG
subject-03,3,264,0.852741956710815,clock,car,16-3-10,2824_eid_s03_16-3-10_car_10_n03100240_4519.JPEG
subject-03,3,265,0.601584911346436,clock,car,64-0-10,2825_eid_s03_64-0-10_car_10_n04285008_7328.JPEG
subject-03,3,266,0.743868112564087,bottle,bottle,2-10-10,2826_eid_s03_2-10-10_bottle_10_n04560804_31742.JPEG
subject-03,3,267,0.66237211227417,chair,chair,2-10-10,2827_eid_s03_2-10-10_chair_10_n03376595_17859.JPEG
subject-03,3,268,1.50015616416931,chair,keyboard,1-0-10,2828_eid_s03_1-0-10_keyboard_10_n04505470_4627.JPEG
subject-03,3,269,0.72976279258728,chair,bear,2-10-10,2829_eid_s03_2-10-10_bear_10_n02134418_2228.JPEG
subject-03,3,270,0.578261137008667,keyboard,keyboard,4-0-10,2830_eid_s03_4-0-10_keyboard_10_n04505470_7681.JPEG
subject-03,3,271,1.15839195251465,dog,cat,64-10-10,2831_eid_s03_64-10-10_cat_10_n02124075_475.JPEG
subject-03,3,272,0.568863153457642,clock,clock,16-3-10,2832_eid_s03_16-3-10_clock_10_n03196217_5339.JPEG
subject-03,3,273,0.649707794189453,airplane,bear,128-3-10,2833_eid_s03_128-3-10_bear_10_n02134084_24338.JPEG
subject-03,3,274,0.960026979446411,knife,cat,128-3-10,2834_eid_s03_128-3-10_cat_10_n02123045_5320.JPEG
subject-03,3,275,0.57882285118103,boat,elephant,2-10-10,2835_eid_s03_2-10-10_elephant_10_n02504013_7316.JPEG
subject-03,3,276,0.673367023468018,boat,airplane,16-3-10,2836_eid_s03_16-3-10_airplane_10_n02690373_4306.JPEG
subject-03,3,277,0.715859889984131,elephant,elephant,1-3-10,2837_eid_s03_1-3-10_elephant_10_n02504458_8041.JPEG
subject-03,3,278,0.680313110351562,clock,cat,128-3-10,2838_eid_s03_128-3-10_cat_10_n02123045_11117.JPEG
subject-03,3,279,0.967066049575806,clock,clock,8-10-10,2839_eid_s03_8-10-10_clock_10_n03196217_11614.JPEG
subject-03,3,280,0.917665958404541,elephant,elephant,4-3-10,2840_eid_s03_4-3-10_elephant_10_n02504013_3311.JPEG
subject-03,3,281,0.874089002609253,knife,knife,1-10-10,2841_eid_s03_1-10-10_knife_10_n03041632_38996.JPEG
subject-03,3,282,0.622749090194702,airplane,bear,32-3-10,2842_eid_s03_32-3-10_bear_10_n02132136_6002.JPEG
subject-03,3,283,0.865271091461182,elephant,bottle,8-0-10,2843_eid_s03_8-0-10_bottle_10_n04557648_680.JPEG
subject-03,3,284,0.68160605430603,bear,bear,4-3-10,2844_eid_s03_4-3-10_bear_10_n02133161_10647.JPEG
subject-03,3,285,0.732071876525879,bear,bear,64-3-10,2845_eid_s03_64-3-10_bear_10_n02132136_2387.JPEG
subject-03,3,286,1.20990109443665,elephant,truck,8-3-10,2846_eid_s03_8-3-10_truck_10_n03417042_29267.JPEG
subject-03,3,287,0.706209897994995,elephant,bird,32-10-10,2847_eid_s03_32-10-10_bird_10_n02011460_263.JPEG
subject-03,3,288,0.755100965499878,elephant,chair,64-10-10,2848_eid_s03_64-10-10_chair_10_n04429376_48665.JPEG
subject-03,3,289,0.649451971054077,keyboard,oven,128-3-10,2849_eid_s03_128-3-10_oven_10_n04111531_13172.JPEG
subject-03,3,290,0.684485912322998,boat,boat,4-3-10,2850_eid_s03_4-3-10_boat_10_n04612504_1247.JPEG
subject-03,3,291,0.562376976013184,cat,bear,32-0-10,2851_eid_s03_32-0-10_bear_10_n02133161_8296.JPEG
subject-03,3,292,0.789252042770386,chair,bottle,1-0-10,2852_eid_s03_1-0-10_bottle_10_n04591713_14563.JPEG
subject-03,3,293,0.623848915100098,bird,bird,8-0-10,2853_eid_s03_8-0-10_bird_10_n01855672_5636.JPEG
subject-03,3,294,1.11016201972961,cat,clock,64-10-10,2854_eid_s03_64-10-10_clock_10_n03196217_911.JPEG
subject-03,3,295,0.66104793548584,clock,clock,8-0-10,2855_eid_s03_8-0-10_clock_10_n04548280_10459.JPEG
subject-03,3,296,0.831453084945679,knife,cat,64-10-10,2856_eid_s03_64-10-10_cat_10_n02123159_6862.JPEG
subject-03,3,297,0.690194129943848,bird,car,128-10-10,2857_eid_s03_128-10-10_car_10_n02814533_26334.JPEG
subject-03,3,298,1.07831907272339,keyboard,dog,64-10-10,2858_eid_s03_64-10-10_dog_10_n02097047_1224.JPEG
subject-03,3,299,0.657832860946655,oven,airplane,128-0-10,2859_eid_s03_128-0-10_airplane_10_n02690373_7107.JPEG
subject-03,3,300,0.530627012252808,boat,oven,32-0-10,2860_eid_s03_32-0-10_oven_10_n04111531_7862.JPEG
subject-03,3,301,0.673350811004639,oven,knife,64-0-10,2861_eid_s03_64-0-10_knife_10_n03041632_14546.JPEG
subject-03,3,302,0.767518043518066,knife,bottle,16-3-10,2862_eid_s03_16-3-10_bottle_10_n04557648_5806.JPEG
subject-03,3,303,0.839775085449219,boat,boat,2-10-10,2863_eid_s03_2-10-10_boat_10_n03662601_23469.JPEG
subject-03,3,304,1.05100798606873,knife,truck,64-10-10,2864_eid_s03_64-10-10_truck_10_n03417042_29074.JPEG
subject-03,3,305,0.761189937591553,cat,cat,32-10-10,2865_eid_s03_32-10-10_cat_10_n02125311_8312.JPEG
subject-03,3,306,0.909121990203857,bear,bear,32-10-10,2866_eid_s03_32-10-10_bear_10_n02134418_11812.JPEG
subject-03,3,307,0.898488998413086,bear,cat,128-0-10,2867_eid_s03_128-0-10_cat_10_n02123045_10337.JPEG
subject-03,3,308,0.624901056289673,cat,chair,8-0-10,2868_eid_s03_8-0-10_chair_10_n03376595_14932.JPEG
subject-03,3,309,0.889699935913086,bird,car,128-3-10,2869_eid_s03_128-3-10_car_10_n04285008_7.JPEG
subject-03,3,310,0.799910068511963,knife,knife,64-10-10,2870_eid_s03_64-10-10_knife_10_n03041632_14132.JPEG
subject-03,3,311,0.916402101516724,elephant,elephant,8-10-10,2871_eid_s03_8-10-10_elephant_10_n02504458_3458.JPEG
subject-03,3,312,0.659194946289062,knife,keyboard,1-3-10,2872_eid_s03_1-3-10_keyboard_10_n03085013_24462.JPEG
subject-03,3,313,0.908008098602295,clock,oven,8-3-10,2873_eid_s03_8-3-10_oven_10_n04111531_8805.JPEG
subject-03,3,314,0.833556175231934,bird,knife,8-3-10,2874_eid_s03_8-3-10_knife_10_n03041632_36814.JPEG
subject-03,3,315,0.553319931030273,boat,knife,128-0-10,2875_eid_s03_128-0-10_knife_10_n03041632_30196.JPEG
subject-03,3,316,0.783204078674316,oven,keyboard,128-0-10,2876_eid_s03_128-0-10_keyboard_10_n03085013_22600.JPEG
subject-03,3,317,0.815773010253906,cat,cat,4-10-10,2877_eid_s03_4-10-10_cat_10_n02125311_55530.JPEG
subject-03,3,318,0.580212831497192,boat,airplane,32-0-10,2878_eid_s03_32-0-10_airplane_10_n02690373_10044.JPEG
subject-03,3,319,0.698886156082153,bear,car,64-0-10,2879_eid_s03_64-0-10_car_10_n03100240_9633.JPEG
subject-03,3,320,1.27923321723938,bottle,bottle,8-10-10,2880_eid_s03_8-10-10_bottle_10_n03983396_4236.JPEG
subject-03,3,321,0.789659023284912,elephant,clock,8-0-10,2881_eid_s03_8-0-10_clock_10_n04548280_8008.JPEG
subject-03,3,322,0.762151956558228,bear,bear,32-10-10,2882_eid_s03_32-10-10_bear_10_n02134418_644.JPEG
subject-03,3,323,0.610656023025513,chair,chair,1-0-10,2883_eid_s03_1-0-10_chair_10_n04429376_30823.JPEG
subject-03,3,324,0.529587984085083,car,car,4-0-10,2884_eid_s03_4-0-10_car_10_n02814533_10911.JPEG
subject-03,3,325,0.914757966995239,elephant,elephant,64-10-10,2885_eid_s03_64-10-10_elephant_10_n02504013_13422.JPEG
subject-03,3,326,0.70105504989624,elephant,elephant,2-3-10,2886_eid_s03_2-3-10_elephant_10_n02504013_1372.JPEG
subject-03,3,327,0.642014026641846,cat,cat,16-10-10,2887_eid_s03_16-10-10_cat_10_n02124075_2454.JPEG
subject-03,3,328,0.684387922286987,car,car,8-3-10,2888_eid_s03_8-3-10_car_10_n03100240_4820.JPEG
subject-03,3,329,0.441422939300537,boat,car,128-10-10,2889_eid_s03_128-10-10_car_10_n03100240_16803.JPEG
subject-03,3,330,0.997663021087646,dog,dog,4-10-10,2890_eid_s03_4-10-10_dog_10_n02109525_5590.JPEG
subject-03,3,331,0.629930019378662,clock,clock,2-0-10,2891_eid_s03_2-0-10_clock_10_n04548280_4838.JPEG
subject-03,3,332,0.718904972076416,car,car,1-0-10,2892_eid_s03_1-0-10_car_10_n03100240_16439.JPEG
subject-03,3,333,0.675781011581421,oven,bicycle,64-3-10,2893_eid_s03_64-3-10_bicycle_10_n02835271_2317.JPEG
subject-03,3,334,NaN,na,bear,64-0-10,2894_eid_s03_64-0-10_bear_10_n02134418_3779.JPEG
subject-03,3,335,0.679754018783569,car,truck,32-10-10,2895_eid_s03_32-10-10_truck_10_n03417042_10752.JPEG
subject-03,3,336,0.890411138534546,dog,bear,1-0-10,2896_eid_s03_1-0-10_bear_10_n02132136_5517.JPEG
subject-03,3,337,0.684619903564453,oven,knife,64-0-10,2897_eid_s03_64-0-10_knife_10_n03041632_24376.JPEG
subject-03,3,338,0.749855995178223,bottle,bottle,16-10-10,2898_eid_s03_16-10-10_bottle_10_n02823428_1774.JPEG
subject-03,3,339,0.884742975234985,clock,truck,32-0-10,2899_eid_s03_32-0-10_truck_10_n04467665_66047.JPEG
subject-03,3,340,0.748985052108765,knife,truck,8-3-10,2900_eid_s03_8-3-10_truck_10_n04467665_21266.JPEG
subject-03,3,341,0.867985963821411,bottle,bottle,1-3-10,2901_eid_s03_1-3-10_bottle_10_n03983396_10709.JPEG
subject-03,3,342,0.600192785263062,clock,keyboard,16-0-10,2902_eid_s03_16-0-10_keyboard_10_n04505470_2378.JPEG
subject-03,3,343,0.710916042327881,oven,car,128-3-10,2903_eid_s03_128-3-10_car_10_n04285008_7446.JPEG
subject-03,3,344,0.759296894073486,oven,oven,1-10-10,2904_eid_s03_1-10-10_oven_10_n04111531_4227.JPEG
subject-03,3,345,1.34574890136719,boat,bird,2-0-10,2905_eid_s03_2-0-10_bird_10_n02027492_296.JPEG
subject-03,3,346,0.994248151779175,bird,bird,2-10-10,2906_eid_s03_2-10-10_bird_10_n02006656_4486.JPEG
subject-03,3,347,0.612699031829834,boat,boat,4-0-10,2907_eid_s03_4-0-10_boat_10_n03344393_9255.JPEG
subject-03,3,348,0.761462926864624,bicycle,bicycle,2-3-10,2908_eid_s03_2-3-10_bicycle_10_n03792782_7773.JPEG
subject-03,3,349,0.655479907989502,car,car,2-3-10,2909_eid_s03_2-3-10_car_10_n03100240_15070.JPEG
subject-03,3,350,0.806340932846069,truck,truck,1-3-10,2910_eid_s03_1-3-10_truck_10_n03796401_6923.JPEG
subject-03,3,351,0.615161180496216,bear,bear,8-10-10,2911_eid_s03_8-10-10_bear_10_n02134084_2797.JPEG
subject-03,3,352,0.641792058944702,clock,clock,1-3-10,2912_eid_s03_1-3-10_clock_10_n04548280_4114.JPEG
subject-03,3,353,0.560486078262329,oven,bicycle,16-3-10,2913_eid_s03_16-3-10_bicycle_10_n03792782_12330.JPEG
subject-03,3,354,0.571081161499023,clock,chair,16-3-10,2914_eid_s03_16-3-10_chair_10_n02791124_3755.JPEG
subject-03,3,355,1.11957097053528,bicycle,elephant,128-10-10,2915_eid_s03_128-10-10_elephant_10_n02504013_4023.JPEG
subject-03,3,356,0.497750043869019,boat,knife,64-3-10,2916_eid_s03_64-3-10_knife_10_n03041632_21034.JPEG
subject-03,3,357,0.654333829879761,airplane,airplane,2-10-10,2917_eid_s03_2-10-10_airplane_10_n02690373_3400.JPEG
subject-03,3,358,0.526738882064819,boat,chair,128-10-10,2918_eid_s03_128-10-10_chair_10_n04429376_3820.JPEG
subject-03,3,359,0.883303880691528,cat,cat,4-3-10,2919_eid_s03_4-3-10_cat_10_n02123045_567.JPEG
subject-03,3,360,0.769245147705078,boat,chair,32-3-10,2920_eid_s03_32-3-10_chair_10_n04429376_40894.JPEG
subject-03,3,361,1.05594301223755,truck,truck,4-3-10,2921_eid_s03_4-3-10_truck_10_n03417042_10908.JPEG
subject-03,3,362,0.666300058364868,bottle,bottle,8-3-10,2922_eid_s03_8-3-10_bottle_10_n04579145_7653.JPEG
subject-03,3,363,1.34506297111511,bird,bird,4-3-10,2923_eid_s03_4-3-10_bird_10_n02025239_21310.JPEG
subject-03,3,364,0.587158918380737,bottle,bottle,1-0-10,2924_eid_s03_1-0-10_bottle_10_n02823428_334.JPEG
subject-03,3,365,0.77324390411377,cat,oven,128-3-10,2925_eid_s03_128-3-10_oven_10_n04111531_4234.JPEG
subject-03,3,366,0.57598090171814,cat,truck,32-10-10,2926_eid_s03_32-10-10_truck_10_n04467665_77937.JPEG
subject-03,3,367,0.878862142562866,knife,keyboard,32-10-10,2927_eid_s03_32-10-10_keyboard_10_n04505470_9395.JPEG
subject-03,3,368,0.535188913345337,cat,keyboard,64-0-10,2928_eid_s03_64-0-10_keyboard_10_n04505470_7721.JPEG
subject-03,3,369,0.937808990478516,cat,bear,64-10-10,2929_eid_s03_64-10-10_bear_10_n02134418_5710.JPEG
subject-03,3,370,0.602295160293579,bird,bird,1-10-10,2930_eid_s03_1-10-10_bird_10_n02007558_6123.JPEG
subject-03,3,371,0.689271211624146,cat,knife,16-3-10,2931_eid_s03_16-3-10_knife_10_n03041632_26710.JPEG
subject-03,3,372,0.523584127426147,boat,bear,64-0-10,2932_eid_s03_64-0-10_bear_10_n02133161_7849.JPEG
subject-03,3,373,0.826349973678589,oven,bird,16-3-10,2933_eid_s03_16-3-10_bird_10_n02007558_4414.JPEG
subject-03,3,374,0.774327993392944,keyboard,chair,64-10-10,2934_eid_s03_64-10-10_chair_10_n04099969_6325.JPEG
subject-03,3,375,0.837016105651855,truck,truck,1-10-10,2935_eid_s03_1-10-10_truck_10_n03796401_7438.JPEG
subject-03,3,376,0.8939368724823,dog,dog,1-0-10,2936_eid_s03_1-0-10_dog_10_n02097658_646.JPEG
subject-03,3,377,0.974582195281982,knife,bird,4-10-10,2937_eid_s03_4-10-10_bird_10_n01829413_4781.JPEG
subject-03,3,378,0.747503042221069,cat,elephant,4-3-10,2938_eid_s03_4-3-10_elephant_10_n02504458_6437.JPEG
subject-03,3,379,1.27968215942383,car,boat,2-0-10,2939_eid_s03_2-0-10_boat_10_n03344393_12310.JPEG
subject-03,3,380,0.952462911605835,bicycle,bicycle,2-10-10,2940_eid_s03_2-10-10_bicycle_10_n02835271_10364.JPEG
subject-03,3,381,0.563366174697876,oven,oven,32-10-10,2941_eid_s03_32-10-10_oven_10_n04111531_73.JPEG
subject-03,3,382,0.795384883880615,bottle,clock,32-10-10,2942_eid_s03_32-10-10_clock_10_n04548280_6989.JPEG
subject-03,3,383,0.643655776977539,boat,boat,16-3-10,2943_eid_s03_16-3-10_boat_10_n03662601_24579.JPEG
subject-03,3,384,0.900248050689697,keyboard,oven,4-3-10,2944_eid_s03_4-3-10_oven_10_n04111531_13277.JPEG
subject-03,3,385,NaN,na,car,4-0-10,2945_eid_s03_4-0-10_car_10_n04285008_8383.JPEG
subject-03,3,386,0.613408088684082,cat,cat,1-3-10,2946_eid_s03_1-3-10_cat_10_n02123159_4075.JPEG
subject-03,3,387,0.561409950256348,cat,car,16-3-10,2947_eid_s03_16-3-10_car_10_n02814533_18213.JPEG
subject-03,3,388,0.732259035110474,cat,airplane,64-0-10,2948_eid_s03_64-0-10_airplane_10_n02690373_1474.JPEG
subject-03,3,389,0.934851169586182,bear,truck,16-10-10,2949_eid_s03_16-10-10_truck_10_n03417042_11558.JPEG
subject-03,3,390,0.569368124008179,cat,keyboard,128-10-10,2950_eid_s03_128-10-10_keyboard_10_n03085013_24309.JPEG
subject-03,3,391,0.940191030502319,elephant,elephant,2-3-10,2951_eid_s03_2-3-10_elephant_10_n02504458_3225.JPEG
subject-03,3,392,0.996223926544189,elephant,bicycle,64-0-10,2952_eid_s03_64-0-10_bicycle_10_n03792782_8725.JPEG
subject-03,3,393,1.08502292633057,bottle,clock,8-3-10,2953_eid_s03_8-3-10_clock_10_n04548280_10686.JPEG
subject-03,3,394,0.693319082260132,oven,oven,2-10-10,2954_eid_s03_2-10-10_oven_10_n04111531_10465.JPEG
subject-03,3,395,0.604398012161255,clock,clock,4-0-10,2955_eid_s03_4-0-10_clock_10_n04548280_8795.JPEG
subject-03,3,396,0.538669109344482,clock,oven,8-3-10,2956_eid_s03_8-3-10_oven_10_n04111531_13520.JPEG
subject-03,3,397,1.01733684539795,chair,chair,2-0-10,2957_eid_s03_2-0-10_chair_10_n04099969_5010.JPEG
subject-03,3,398,0.781857967376709,oven,boat,128-10-10,2958_eid_s03_128-10-10_boat_10_n04273569_4208.JPEG
subject-03,3,399,0.760088920593262,chair,chair,8-10-10,2959_eid_s03_8-10-10_chair_10_n04099969_16.JPEG
subject-03,3,400,0.942561864852905,dog,dog,1-3-10,2960_eid_s03_1-3-10_dog_10_n02086079_1451.JPEG
subject-03,3,401,0.875202178955078,bird,dog,64-10-10,2961_eid_s03_64-10-10_dog_10_n02100583_3498.JPEG
subject-03,3,402,0.548170804977417,clock,boat,8-3-10,2962_eid_s03_8-3-10_boat_10_n04612504_21983.JPEG
subject-03,3,403,0.596599102020264,clock,clock,16-0-10,2963_eid_s03_16-0-10_clock_10_n03196217_6083.JPEG
subject-03,3,404,0.91471004486084,elephant,boat,128-10-10,2964_eid_s03_128-10-10_boat_10_n02951358_6378.JPEG
subject-03,3,405,0.855376005172729,knife,keyboard,16-0-10,2965_eid_s03_16-0-10_keyboard_10_n03085013_19724.JPEG
subject-03,3,406,0.712147951126099,oven,oven,8-10-10,2966_eid_s03_8-10-10_oven_10_n04111531_2027.JPEG
subject-03,3,407,0.568592071533203,oven,elephant,64-0-10,2967_eid_s03_64-0-10_elephant_10_n02504458_6018.JPEG
subject-03,3,408,0.71513819694519,boat,bottle,128-3-10,2968_eid_s03_128-3-10_bottle_10_n04579145_5636.JPEG
subject-03,3,409,0.517231941223145,oven,truck,128-3-10,2969_eid_s03_128-3-10_truck_10_n04467665_4165.JPEG
subject-03,3,410,0.80402398109436,cat,cat,2-0-10,2970_eid_s03_2-0-10_cat_10_n02123597_12119.JPEG
subject-03,3,411,0.552670001983643,cat,bird,64-3-10,2971_eid_s03_64-3-10_bird_10_n01843383_6307.JPEG
subject-03,3,412,0.724920988082886,clock,oven,32-3-10,2972_eid_s03_32-3-10_oven_10_n04111531_7340.JPEG
subject-03,3,413,0.687621116638184,bicycle,bicycle,4-0-10,2973_eid_s03_4-0-10_bicycle_10_n02835271_5373.JPEG
subject-03,3,414,1.02834892272949,dog,dog,2-0-10,2974_eid_s03_2-0-10_dog_10_n02108422_12073.JPEG
subject-03,3,415,0.808680057525635,cat,bicycle,8-0-10,2975_eid_s03_8-0-10_bicycle_10_n03792782_16034.JPEG
subject-03,3,416,0.779524087905884,bird,knife,32-10-10,2976_eid_s03_32-10-10_knife_10_n03041632_22570.JPEG
subject-03,3,417,0.635771036148071,elephant,bird,64-10-10,2977_eid_s03_64-10-10_bird_10_n01560419_7698.JPEG
subject-03,3,418,1.00003290176392,bird,bird,8-10-10,2978_eid_s03_8-10-10_bird_10_n02017213_11072.JPEG
subject-03,3,419,0.632825136184692,boat,car,4-0-10,2979_eid_s03_4-0-10_car_10_n04285008_8880.JPEG
subject-03,3,420,0.695010900497437,boat,clock,16-0-10,2980_eid_s03_16-0-10_clock_10_n04548280_8672.JPEG
subject-03,3,421,0.935161113739014,car,bicycle,64-10-10,2981_eid_s03_64-10-10_bicycle_10_n03792782_13077.JPEG
subject-03,3,422,0.71549391746521,oven,bird,32-0-10,2982_eid_s03_32-0-10_bird_10_n01534433_15226.JPEG
subject-03,3,423,1.16389894485474,bear,boat,64-10-10,2983_eid_s03_64-10-10_boat_10_n04273569_12426.JPEG
subject-03,3,424,0.918658018112183,airplane,airplane,128-3-10,2984_eid_s03_128-3-10_airplane_10_n02690373_8804.JPEG
subject-03,3,425,1.50009703636169,bird,bird,1-0-10,2985_eid_s03_1-0-10_bird_10_n01558993_11752.JPEG
subject-03,3,426,0.940514802932739,dog,dog,4-10-10,2986_eid_s03_4-10-10_dog_10_n02088466_6972.JPEG
subject-03,3,427,1.28945302963257,dog,dog,2-0-10,2987_eid_s03_2-0-10_dog_10_n02102177_7507.JPEG
subject-03,3,428,1.09979391098022,cat,cat,16-0-10,2988_eid_s03_16-0-10_cat_10_n02123045_7334.JPEG
subject-03,3,429,0.856391906738281,keyboard,keyboard,8-3-10,2989_eid_s03_8-3-10_keyboard_10_n03085013_20206.JPEG
subject-03,3,430,1.0131778717041,elephant,bear,128-0-10,2990_eid_s03_128-0-10_bear_10_n02132136_8539.JPEG
subject-03,3,431,1.1210629940033,bear,bear,1-3-10,2991_eid_s03_1-3-10_bear_10_n02132136_6817.JPEG
subject-03,3,432,0.672001123428345,airplane,airplane,1-10-10,2992_eid_s03_1-10-10_airplane_10_n02690373_7615.JPEG
subject-03,3,433,0.812510967254639,elephant,elephant,1-3-10,2993_eid_s03_1-3-10_elephant_10_n02504013_9299.JPEG
subject-03,3,434,0.744463920593262,chair,oven,4-0-10,2994_eid_s03_4-0-10_oven_10_n04111531_14488.JPEG
subject-03,3,435,0.801033973693848,keyboard,knife,128-0-10,2995_eid_s03_128-0-10_knife_10_n03041632_7064.JPEG
subject-03,3,436,1.01799583435059,clock,clock,2-10-10,2996_eid_s03_2-10-10_clock_10_n03196217_5365.JPEG
subject-03,3,437,0.744433164596558,keyboard,bear,128-3-10,2997_eid_s03_128-3-10_bear_10_n02132136_24311.JPEG
subject-03,3,438,1.18542504310608,oven,oven,4-10-10,2998_eid_s03_4-10-10_oven_10_n04111531_9611.JPEG
subject-03,3,439,0.841960906982422,oven,oven,2-10-10,2999_eid_s03_2-10-10_oven_10_n04111531_8462.JPEG
subject-03,3,440,0.912145853042603,knife,knife,8-10-10,3000_eid_s03_8-10-10_knife_10_n03041632_13645.JPEG
subject-03,3,441,0.799062013626099,elephant,elephant,4-0-10,3001_eid_s03_4-0-10_elephant_10_n02504458_581.JPEG
subject-03,3,442,0.747749805450439,bicycle,bicycle,1-3-10,3002_eid_s03_1-3-10_bicycle_10_n03792782_1124.JPEG
subject-03,3,443,1.31815004348755,bear,car,128-10-10,3003_eid_s03_128-10-10_car_10_n03100240_2203.JPEG
subject-03,3,444,0.787556886672974,bear,bicycle,32-0-10,3004_eid_s03_32-0-10_bicycle_10_n02835271_6978.JPEG
subject-03,3,445,0.87440013885498,bear,boat,128-0-10,3005_eid_s03_128-0-10_boat_10_n04612504_14406.JPEG
subject-03,3,446,0.759865999221802,airplane,airplane,2-0-10,3006_eid_s03_2-0-10_airplane_10_n02690373_5524.JPEG
subject-03,3,447,0.645798921585083,boat,boat,2-10-10,3007_eid_s03_2-10-10_boat_10_n02951358_11770.JPEG
subject-03,3,448,0.900804042816162,boat,car,8-3-10,3008_eid_s03_8-3-10_car_10_n04285008_3194.JPEG
subject-03,3,449,0.994748830795288,boat,boat,32-10-10,3009_eid_s03_32-10-10_boat_10_n03344393_7826.JPEG
subject-03,3,450,0.781705856323242,bicycle,bicycle,2-3-10,3010_eid_s03_2-3-10_bicycle_10_n02835271_15617.JPEG
subject-03,3,451,0.746457815170288,bottle,bottle,1-0-10,3011_eid_s03_1-0-10_bottle_10_n04579145_1667.JPEG
subject-03,3,452,1.02492094039917,bear,bear,1-10-10,3012_eid_s03_1-10-10_bear_10_n02134084_9156.JPEG
subject-03,3,453,0.981208086013794,bottle,bottle,8-10-10,3013_eid_s03_8-10-10_bottle_10_n04591713_3430.JPEG
subject-03,3,454,0.86832594871521,car,keyboard,64-10-10,3014_eid_s03_64-10-10_keyboard_10_n03085013_22013.JPEG
subject-03,3,455,0.654924869537354,cat,bicycle,16-0-10,3015_eid_s03_16-0-10_bicycle_10_n03792782_18896.JPEG
subject-03,3,456,0.957145929336548,cat,oven,64-10-10,3016_eid_s03_64-10-10_oven_10_n04111531_4944.JPEG
subject-03,3,457,0.521810054779053,boat,boat,64-0-10,3017_eid_s03_64-0-10_boat_10_n03662601_1955.JPEG
subject-03,3,458,0.783659219741821,bear,bear,1-0-10,3018_eid_s03_1-0-10_bear_10_n02133161_14151.JPEG
subject-03,3,459,0.978046178817749,truck,truck,1-10-10,3019_eid_s03_1-10-10_truck_10_n04467665_69667.JPEG
subject-03,3,460,0.894967079162598,cat,cat,1-0-10,3020_eid_s03_1-0-10_cat_10_n02123597_12279.JPEG
subject-03,3,461,0.697836875915527,bear,bird,64-3-10,3021_eid_s03_64-3-10_bird_10_n01798484_2271.JPEG
subject-03,3,462,1.47627711296082,elephant,boat,1-0-10,3022_eid_s03_1-0-10_boat_10_n03662601_4059.JPEG
subject-03,3,463,0.994801998138428,clock,clock,1-3-10,3023_eid_s03_1-3-10_clock_10_n03196217_9343.JPEG
subject-03,3,464,0.719405889511108,cat,bicycle,8-0-10,3024_eid_s03_8-0-10_bicycle_10_n02835271_17615.JPEG
subject-03,3,465,0.784051895141602,car,knife,16-10-10,3025_eid_s03_16-10-10_knife_10_n03041632_3926.JPEG
subject-03,3,466,0.697221040725708,knife,keyboard,64-10-10,3026_eid_s03_64-10-10_keyboard_10_n04505470_5726.JPEG
subject-03,3,467,0.691757917404175,oven,oven,1-0-10,3027_eid_s03_1-0-10_oven_10_n04111531_14559.JPEG
subject-03,3,468,0.631070137023926,bicycle,bicycle,2-10-10,3028_eid_s03_2-10-10_bicycle_10_n02835271_781.JPEG
subject-03,3,469,0.985921859741211,bicycle,bear,4-3-10,3029_eid_s03_4-3-10_bear_10_n02133161_5434.JPEG
subject-03,3,470,0.464364051818848,oven,cat,32-0-10,3030_eid_s03_32-0-10_cat_10_n02125311_9566.JPEG
subject-03,3,471,0.61269998550415,bear,bear,1-0-10,3031_eid_s03_1-0-10_bear_10_n02134084_16176.JPEG
subject-03,3,472,0.915152072906494,airplane,airplane,2-3-10,3032_eid_s03_2-3-10_airplane_10_n02690373_7740.JPEG
subject-03,3,473,0.6944260597229,bicycle,airplane,32-0-10,3033_eid_s03_32-0-10_airplane_10_n02690373_9743.JPEG
subject-03,3,474,0.634551048278809,car,car,4-10-10,3034_eid_s03_4-10-10_car_10_n02814533_21600.JPEG
subject-03,3,475,0.573587894439697,clock,boat,128-10-10,3035_eid_s03_128-10-10_boat_10_n02951358_29825.JPEG
subject-03,3,476,0.629665851593018,clock,cat,32-0-10,3036_eid_s03_32-0-10_cat_10_n02123159_1032.JPEG
subject-03,3,477,0.924456119537354,knife,bicycle,32-10-10,3037_eid_s03_32-10-10_bicycle_10_n02835271_8995.JPEG
subject-03,3,478,0.970530986785889,bicycle,bear,128-10-10,3038_eid_s03_128-10-10_bear_10_n02134418_1080.JPEG
subject-03,3,479,0.807553052902222,bicycle,bicycle,2-10-10,3039_eid_s03_2-10-10_bicycle_10_n02835271_3941.JPEG
subject-03,3,480,1.14777493476868,boat,bird,128-10-10,3040_eid_s03_128-10-10_bird_10_n01829413_8815.JPEG
subject-03,3,481,0.650121927261353,oven,truck,8-0-10,3041_eid_s03_8-0-10_truck_10_n03796401_4211.JPEG
subject-03,3,482,0.849951028823853,oven,oven,4-10-10,3042_eid_s03_4-10-10_oven_10_n04111531_20359.JPEG
subject-03,3,483,1.01483988761902,bottle,bottle,2-0-10,3043_eid_s03_2-0-10_bottle_10_n03937543_2759.JPEG
subject-03,3,484,0.802495002746582,bottle,bottle,2-3-10,3044_eid_s03_2-3-10_bottle_10_n02823428_5135.JPEG
subject-03,3,485,0.748324871063232,boat,boat,1-10-10,3045_eid_s03_1-10-10_boat_10_n02951358_3126.JPEG
subject-03,3,486,0.734900951385498,oven,bottle,4-10-10,3046_eid_s03_4-10-10_bottle_10_n04591713_14419.JPEG
subject-03,3,487,0.62931489944458,oven,clock,64-0-10,3047_eid_s03_64-0-10_clock_10_n04548280_2751.JPEG
subject-03,3,488,1.45393300056458,knife,keyboard,16-3-10,3048_eid_s03_16-3-10_keyboard_10_n03085013_20898.JPEG
subject-03,3,489,0.878056049346924,knife,bicycle,64-0-10,3049_eid_s03_64-0-10_bicycle_10_n03792782_15189.JPEG
subject-03,3,490,0.893281221389771,clock,car,64-3-10,3050_eid_s03_64-3-10_car_10_n03100240_2914.JPEG
subject-03,3,491,0.741366147994995,oven,knife,64-10-10,3051_eid_s03_64-10-10_knife_10_n03041632_90407.JPEG
subject-03,3,492,0.635855913162231,bottle,bottle,1-3-10,3052_eid_s03_1-3-10_bottle_10_n02823428_7535.JPEG
subject-03,3,493,0.904504060745239,bicycle,chair,16-0-10,3053_eid_s03_16-0-10_chair_10_n04099969_739.JPEG
subject-03,3,494,0.685370922088623,boat,boat,2-0-10,3054_eid_s03_2-0-10_boat_10_n03344393_3515.JPEG
subject-03,3,495,0.971943140029907,knife,knife,8-0-10,3055_eid_s03_8-0-10_knife_10_n03041632_4879.JPEG
subject-03,3,496,0.858163118362427,chair,chair,4-0-10,3056_eid_s03_4-0-10_chair_10_n02791124_3926.JPEG
subject-03,3,497,0.544218778610229,boat,knife,128-10-10,3057_eid_s03_128-10-10_knife_10_n03041632_32785.JPEG
subject-03,3,498,0.661694049835205,chair,chair,1-0-10,3058_eid_s03_1-0-10_chair_10_n03376595_18787.JPEG
subject-03,3,499,0.585373163223267,boat,boat,16-0-10,3059_eid_s03_16-0-10_boat_10_n04612504_4719.JPEG
subject-03,3,500,0.634291887283325,clock,clock,128-3-10,3060_eid_s03_128-3-10_clock_10_n04548280_7490.JPEG
subject-03,3,501,0.850379943847656,boat,bear,32-3-10,3061_eid_s03_32-3-10_bear_10_n02132136_1380.JPEG
subject-03,3,502,0.813657999038696,clock,clock,2-0-10,3062_eid_s03_2-0-10_clock_10_n02708093_1908.JPEG
subject-03,3,503,0.824318885803223,bird,bird,2-10-10,3063_eid_s03_2-10-10_bird_10_n02009912_24036.JPEG
subject-03,3,504,0.810934782028198,bicycle,bicycle,2-10-10,3064_eid_s03_2-10-10_bicycle_10_n02835271_19557.JPEG
subject-03,3,505,0.859577178955078,oven,truck,4-10-10,3065_eid_s03_4-10-10_truck_10_n03417042_15898.JPEG
subject-03,3,506,0.815768957138062,bear,bear,1-10-10,3066_eid_s03_1-10-10_bear_10_n02134418_2825.JPEG
subject-03,3,507,0.917263984680176,bear,bottle,64-3-10,3067_eid_s03_64-3-10_bottle_10_n04591713_1172.JPEG
subject-03,3,508,0.581538915634155,chair,chair,4-10-10,3068_eid_s03_4-10-10_chair_10_n03376595_513.JPEG
subject-03,3,509,0.884500026702881,chair,elephant,1-3-10,3069_eid_s03_1-3-10_elephant_10_n02504013_3402.JPEG
subject-03,3,510,0.523098945617676,clock,clock,2-3-10,3070_eid_s03_2-3-10_clock_10_n04548280_4524.JPEG
subject-03,3,511,0.871273994445801,bear,elephant,32-0-10,3071_eid_s03_32-0-10_elephant_10_n02504013_828.JPEG
subject-03,3,512,0.857692003250122,bicycle,bicycle,4-10-10,3072_eid_s03_4-10-10_bicycle_10_n03792782_7099.JPEG
subject-03,3,513,0.608880996704102,bicycle,bicycle,128-10-10,3073_eid_s03_128-10-10_bicycle_10_n02835271_8105.JPEG
subject-03,3,514,0.503968000411987,cat,cat,8-10-10,3074_eid_s03_8-10-10_cat_10_n02123045_11963.JPEG
subject-03,3,515,0.806195020675659,bear,oven,32-0-10,3075_eid_s03_32-0-10_oven_10_n04111531_5582.JPEG
subject-03,3,516,0.53863000869751,cat,cat,4-0-10,3076_eid_s03_4-0-10_cat_10_n02123045_4812.JPEG
subject-03,3,517,0.532909870147705,boat,car,16-3-10,3077_eid_s03_16-3-10_car_10_n04285008_10893.JPEG
subject-03,3,518,0.903410196304321,knife,boat,32-10-10,3078_eid_s03_32-10-10_boat_10_n03662601_11924.JPEG
subject-03,3,519,0.495834112167358,oven,bear,128-10-10,3079_eid_s03_128-10-10_bear_10_n02134418_532.JPEG
subject-03,3,520,0.76662278175354,cat,bird,32-10-10,3080_eid_s03_32-10-10_bird_10_n01622779_3095.JPEG
subject-03,3,521,0.4844970703125,cat,cat,1-0-10,3081_eid_s03_1-0-10_cat_10_n02124075_6586.JPEG
subject-03,3,522,0.501887083053589,boat,boat,2-0-10,3082_eid_s03_2-0-10_boat_10_n02951358_12125.JPEG
subject-03,3,523,0.488278150558472,cat,dog,4-3-10,3083_eid_s03_4-3-10_dog_10_n02112350_10100.JPEG
subject-03,3,524,0.575317144393921,bird,clock,64-3-10,3084_eid_s03_64-3-10_clock_10_n04548280_8510.JPEG
subject-03,3,525,0.699297904968262,boat,car,32-3-10,3085_eid_s03_32-3-10_car_10_n02814533_596.JPEG
subject-03,3,526,0.702075958251953,boat,bicycle,16-3-10,3086_eid_s03_16-3-10_bicycle_10_n02835271_4003.JPEG
subject-03,3,527,0.494162082672119,cat,clock,64-10-10,3087_eid_s03_64-10-10_clock_10_n02708093_2346.JPEG
subject-03,3,528,0.84234094619751,airplane,knife,8-10-10,3088_eid_s03_8-10-10_knife_10_n03041632_29684.JPEG
subject-03,3,529,0.650713920593262,knife,chair,32-0-10,3089_eid_s03_32-0-10_chair_10_n02791124_3116.JPEG
subject-03,3,530,0.92130708694458,bear,dog,1-0-10,3090_eid_s03_1-0-10_dog_10_n02104365_5277.JPEG
subject-03,3,531,0.453433990478516,clock,keyboard,32-3-10,3091_eid_s03_32-3-10_keyboard_10_n03085013_25419.JPEG
subject-03,3,532,0.694267988204956,oven,bicycle,64-10-10,3092_eid_s03_64-10-10_bicycle_10_n03792782_2035.JPEG
subject-03,3,533,0.618632078170776,chair,car,32-0-10,3093_eid_s03_32-0-10_car_10_n04285008_14786.JPEG
subject-03,3,534,0.718993902206421,keyboard,keyboard,8-0-10,3094_eid_s03_8-0-10_keyboard_10_n04505470_4374.JPEG
subject-03,3,535,0.837752103805542,airplane,elephant,32-3-10,3095_eid_s03_32-3-10_elephant_10_n02504013_4594.JPEG
subject-03,3,536,0.476075887680054,oven,oven,2-0-10,3096_eid_s03_2-0-10_oven_10_n04111531_15582.JPEG
subject-03,3,537,0.654913187026978,chair,chair,1-3-10,3097_eid_s03_1-3-10_chair_10_n04099969_13105.JPEG
subject-03,3,538,0.557262897491455,oven,chair,128-0-10,3098_eid_s03_128-0-10_chair_10_n04099969_17259.JPEG
subject-03,3,539,0.835881233215332,truck,bottle,64-0-10,3099_eid_s03_64-0-10_bottle_10_n03983396_4241.JPEG
subject-03,3,540,0.660211086273193,bicycle,chair,128-3-10,3100_eid_s03_128-3-10_chair_10_n04099969_20650.JPEG
subject-03,3,541,0.709384918212891,oven,truck,4-0-10,3101_eid_s03_4-0-10_truck_10_n03417042_1262.JPEG
subject-03,3,542,1.50012016296387,keyboard,car,1-0-10,3102_eid_s03_1-0-10_car_10_n03100240_5773.JPEG
subject-03,3,543,0.750525951385498,boat,bear,16-0-10,3103_eid_s03_16-0-10_bear_10_n02132136_17756.JPEG
subject-03,3,544,0.544703006744385,bear,bicycle,128-0-10,3104_eid_s03_128-0-10_bicycle_10_n02835271_21287.JPEG
subject-03,3,545,0.728096961975098,clock,oven,128-0-10,3105_eid_s03_128-0-10_oven_10_n04111531_10339.JPEG
subject-03,3,546,0.64452600479126,oven,bear,32-0-10,3106_eid_s03_32-0-10_bear_10_n02133161_5106.JPEG
subject-03,3,547,0.484539031982422,boat,truck,32-3-10,3107_eid_s03_32-3-10_truck_10_n03417042_6034.JPEG
subject-03,3,548,0.66018009185791,bird,bear,4-10-10,3108_eid_s03_4-10-10_bear_10_n02133161_7261.JPEG
subject-03,3,549,1.122967004776,cat,dog,16-3-10,3109_eid_s03_16-3-10_dog_10_n02097474_17827.JPEG
subject-03,3,550,0.571658849716187,airplane,airplane,4-3-10,3110_eid_s03_4-3-10_airplane_10_n02690373_7473.JPEG
subject-03,3,551,0.750130891799927,bicycle,cat,16-0-10,3111_eid_s03_16-0-10_cat_10_n02123159_6799.JPEG
subject-03,3,552,0.606474876403809,oven,elephant,16-0-10,3112_eid_s03_16-0-10_elephant_10_n02504013_1088.JPEG
subject-03,3,553,0.744875907897949,oven,knife,128-3-10,3113_eid_s03_128-3-10_knife_10_n03041632_31632.JPEG
subject-03,3,554,0.823956966400146,oven,clock,2-0-10,3114_eid_s03_2-0-10_clock_10_n03196217_2346.JPEG
subject-03,3,555,0.556192874908447,clock,boat,32-3-10,3115_eid_s03_32-3-10_boat_10_n03344393_4394.JPEG
subject-03,3,556,0.648400783538818,bicycle,bear,2-0-10,3116_eid_s03_2-0-10_bear_10_n02133161_4360.JPEG
subject-03,3,557,0.596158981323242,car,car,1-3-10,3117_eid_s03_1-3-10_car_10_n03100240_2595.JPEG
subject-03,3,558,0.488833904266357,oven,dog,128-10-10,3118_eid_s03_128-10-10_dog_10_n02090721_175.JPEG
subject-03,3,559,0.653065204620361,bicycle,bicycle,4-0-10,3119_eid_s03_4-0-10_bicycle_10_n02835271_7737.JPEG
subject-03,3,560,0.52445387840271,clock,clock,4-0-10,3120_eid_s03_4-0-10_clock_10_n03196217_289.JPEG
subject-03,3,561,0.740218877792358,bicycle,clock,128-3-10,3121_eid_s03_128-3-10_clock_10_n04548280_2641.JPEG
subject-03,3,562,0.824942111968994,car,car,2-3-10,3122_eid_s03_2-3-10_car_10_n03100240_977.JPEG
subject-03,3,563,0.535734891891479,oven,elephant,64-3-10,3123_eid_s03_64-3-10_elephant_10_n02504013_3173.JPEG
subject-03,3,564,NaN,na,oven,8-10-10,3124_eid_s03_8-10-10_oven_10_n04111531_3286.JPEG
subject-03,3,565,0.977138996124268,bird,bird,1-3-10,3125_eid_s03_1-3-10_bird_10_n01560419_8302.JPEG
subject-03,3,566,0.523507833480835,chair,chair,1-0-10,3126_eid_s03_1-0-10_chair_10_n03376595_5302.JPEG
subject-03,3,567,0.793524026870728,airplane,airplane,8-0-10,3127_eid_s03_8-0-10_airplane_10_n02690373_3326.JPEG
subject-03,3,568,1.20224690437317,chair,chair,8-0-10,3128_eid_s03_8-0-10_chair_10_n03376595_3166.JPEG
subject-03,3,569,0.926621913909912,airplane,airplane,8-3-10,3129_eid_s03_8-3-10_airplane_10_n02690373_4133.JPEG
subject-03,3,570,0.580358028411865,airplane,clock,32-0-10,3130_eid_s03_32-0-10_clock_10_n04548280_2421.JPEG
subject-03,3,571,1.18915319442749,knife,car,32-10-10,3131_eid_s03_32-10-10_car_10_n03100240_11107.JPEG
subject-03,3,572,0.853342056274414,boat,clock,64-10-10,3132_eid_s03_64-10-10_clock_10_n04548280_5136.JPEG
subject-03,3,573,0.946017980575562,oven,bird,16-0-10,3133_eid_s03_16-0-10_bird_10_n01514859_909.JPEG
subject-03,3,574,0.656606912612915,chair,truck,2-3-10,3134_eid_s03_2-3-10_truck_10_n03417042_12304.JPEG
subject-03,3,575,0.497024059295654,bicycle,chair,32-3-10,3135_eid_s03_32-3-10_chair_10_n04099969_13948.JPEG
subject-03,3,576,0.651777982711792,boat,oven,128-0-10,3136_eid_s03_128-0-10_oven_10_n04111531_10419.JPEG
subject-03,3,577,1.02282905578613,bear,bear,4-10-10,3137_eid_s03_4-10-10_bear_10_n02134418_1646.JPEG
subject-03,3,578,0.785510063171387,car,boat,128-0-10,3138_eid_s03_128-0-10_boat_10_n04273569_26182.JPEG
subject-03,3,579,0.495989084243774,oven,oven,2-0-10,3139_eid_s03_2-0-10_oven_10_n04111531_14383.JPEG
subject-03,3,580,1.01033210754395,bottle,car,16-10-10,3140_eid_s03_16-10-10_car_10_n04285008_12727.JPEG
subject-03,3,581,0.880611181259155,cat,cat,2-10-10,3141_eid_s03_2-10-10_cat_10_n02123159_6291.JPEG
subject-03,3,582,0.667367935180664,chair,oven,1-0-10,3142_eid_s03_1-0-10_oven_10_n04111531_5015.JPEG
subject-03,3,583,0.453487873077393,airplane,knife,16-3-10,3143_eid_s03_16-3-10_knife_10_n03041632_31483.JPEG
subject-03,3,584,0.884265899658203,elephant,elephant,4-3-10,3144_eid_s03_4-3-10_elephant_10_n02504458_3485.JPEG
subject-03,3,585,0.516947984695435,bear,oven,64-0-10,3145_eid_s03_64-0-10_oven_10_n04111531_891.JPEG
subject-03,3,586,0.525211095809937,boat,oven,128-10-10,3146_eid_s03_128-10-10_oven_10_n04111531_15267.JPEG
subject-03,3,587,0.711824893951416,chair,keyboard,4-0-10,3147_eid_s03_4-0-10_keyboard_10_n03085013_26325.JPEG
subject-03,3,588,0.881923198699951,knife,bird,32-0-10,3148_eid_s03_32-0-10_bird_10_n02037110_6902.JPEG
subject-03,3,589,0.66082501411438,cat,clock,128-10-10,3149_eid_s03_128-10-10_clock_10_n02708093_5944.JPEG
subject-03,3,590,0.615741014480591,bear,oven,128-10-10,3150_eid_s03_128-10-10_oven_10_n04111531_8537.JPEG
subject-03,3,591,0.556133031845093,cat,dog,1-0-10,3151_eid_s03_1-0-10_dog_10_n02106662_23730.JPEG
subject-03,3,592,NaN,na,oven,8-10-10,3152_eid_s03_8-10-10_oven_10_n04111531_22388.JPEG
subject-03,3,593,0.788309097290039,airplane,bottle,64-10-10,3153_eid_s03_64-10-10_bottle_10_n04557648_3114.JPEG
subject-03,3,594,0.927463054656982,car,car,8-0-10,3154_eid_s03_8-0-10_car_10_n03100240_9761.JPEG
subject-03,3,595,0.967964887619019,car,car,8-10-10,3155_eid_s03_8-10-10_car_10_n03100240_13707.JPEG
subject-03,3,596,0.524457931518555,oven,bicycle,64-0-10,3156_eid_s03_64-0-10_bicycle_10_n03792782_2809.JPEG
subject-03,3,597,NaN,na,airplane,32-10-10,3157_eid_s03_32-10-10_airplane_10_n02690373_6856.JPEG
subject-03,3,598,0.649583101272583,chair,chair,1-3-10,3158_eid_s03_1-3-10_chair_10_n04429376_20487.JPEG
subject-03,3,599,0.574255228042603,clock,chair,64-0-10,3159_eid_s03_64-0-10_chair_10_n04429376_24699.JPEG
subject-03,3,600,0.635628938674927,bear,truck,128-3-10,3160_eid_s03_128-3-10_truck_10_n03417042_5110.JPEG
subject-03,3,601,0.560095071792603,bear,oven,128-10-10,3161_eid_s03_128-10-10_oven_10_n04111531_2209.JPEG
subject-03,3,602,0.590806007385254,oven,knife,64-10-10,3162_eid_s03_64-10-10_knife_10_n03041632_4714.JPEG
subject-03,3,603,0.88493800163269,clock,bicycle,16-0-10,3163_eid_s03_16-0-10_bicycle_10_n03792782_17337.JPEG
subject-03,3,604,0.855664014816284,knife,bicycle,8-3-10,3164_eid_s03_8-3-10_bicycle_10_n03792782_7269.JPEG
subject-03,3,605,0.626362085342407,cat,bird,4-3-10,3165_eid_s03_4-3-10_bird_10_n01558993_10059.JPEG
subject-03,3,606,0.689213037490845,bird,bird,2-10-10,3166_eid_s03_2-10-10_bird_10_n01818515_16181.JPEG
subject-03,3,607,0.889129161834717,bird,dog,8-3-10,3167_eid_s03_8-3-10_dog_10_n02097298_232.JPEG
subject-03,3,608,NaN,na,bear,1-0-10,3168_eid_s03_1-0-10_bear_10_n02134418_5807.JPEG
subject-03,3,609,0.554473161697388,bird,cat,4-3-10,3169_eid_s03_4-3-10_cat_10_n02123394_3173.JPEG
subject-03,3,610,0.808430910110474,boat,bicycle,1-0-10,3170_eid_s03_1-0-10_bicycle_10_n03792782_1782.JPEG
subject-03,3,611,0.795508146286011,bottle,boat,4-0-10,3171_eid_s03_4-0-10_boat_10_n03662601_13244.JPEG
subject-03,3,612,0.574258089065552,cat,boat,8-0-10,3172_eid_s03_8-0-10_boat_10_n03662601_873.JPEG
subject-03,3,613,0.85306191444397,elephant,elephant,4-10-10,3173_eid_s03_4-10-10_elephant_10_n02504013_4673.JPEG
subject-03,3,614,0.799374103546143,knife,oven,16-3-10,3174_eid_s03_16-3-10_oven_10_n04111531_4467.JPEG
subject-03,3,615,0.799674034118652,knife,knife,1-10-10,3175_eid_s03_1-10-10_knife_10_n03041632_14766.JPEG
subject-03,3,616,0.594576120376587,keyboard,keyboard,2-10-10,3176_eid_s03_2-10-10_keyboard_10_n04505470_1820.JPEG
subject-03,3,617,0.56491494178772,keyboard,elephant,128-3-10,3177_eid_s03_128-3-10_elephant_10_n02504458_1157.JPEG
subject-03,3,618,0.702728986740112,airplane,dog,32-10-10,3178_eid_s03_32-10-10_dog_10_n02096051_5779.JPEG
subject-03,3,619,0.642818927764893,knife,keyboard,128-10-10,3179_eid_s03_128-10-10_keyboard_10_n03085013_25864.JPEG
subject-03,3,620,1.15778112411499,cat,cat,64-3-10,3180_eid_s03_64-3-10_cat_10_n02123159_3996.JPEG
subject-03,3,621,1.28238701820374,bicycle,bicycle,2-3-10,3181_eid_s03_2-3-10_bicycle_10_n02835271_6946.JPEG
subject-03,3,622,0.730887889862061,chair,chair,1-3-10,3182_eid_s03_1-3-10_chair_10_n04099969_18220.JPEG
subject-03,3,623,0.679925918579102,bear,bear,1-10-10,3183_eid_s03_1-10-10_bear_10_n02132136_2514.JPEG
subject-03,3,624,0.993993043899536,clock,clock,2-3-10,3184_eid_s03_2-3-10_clock_10_n04548280_9533.JPEG
subject-03,3,625,0.688429117202759,chair,chair,16-3-10,3185_eid_s03_16-3-10_chair_10_n03376595_9219.JPEG
subject-03,3,626,0.572740793228149,boat,dog,16-10-10,3186_eid_s03_16-10-10_dog_10_n02100877_8603.JPEG
subject-03,3,627,0.475300073623657,cat,bottle,128-3-10,3187_eid_s03_128-3-10_bottle_10_n04557648_12369.JPEG
subject-03,3,628,0.842777013778687,clock,clock,4-0-10,3188_eid_s03_4-0-10_clock_10_n02708093_3544.JPEG
subject-03,3,629,0.666436910629272,clock,clock,2-0-10,3189_eid_s03_2-0-10_clock_10_n04548280_5305.JPEG
subject-03,3,630,0.821001052856445,knife,keyboard,32-10-10,3190_eid_s03_32-10-10_keyboard_10_n03085013_20849.JPEG
subject-03,3,631,0.753805875778198,keyboard,truck,8-10-10,3191_eid_s03_8-10-10_truck_10_n04467665_29960.JPEG
subject-03,3,632,0.508413076400757,car,car,8-3-10,3192_eid_s03_8-3-10_car_10_n03100240_23195.JPEG
subject-03,3,633,0.770642042160034,bicycle,bicycle,8-0-10,3193_eid_s03_8-0-10_bicycle_10_n02835271_4255.JPEG
subject-03,3,634,0.6492018699646,oven,oven,2-10-10,3194_eid_s03_2-10-10_oven_10_n04111531_5737.JPEG
subject-03,3,635,0.858047962188721,bird,dog,32-10-10,3195_eid_s03_32-10-10_dog_10_n02108422_4445.JPEG
subject-03,3,636,0.60398006439209,airplane,airplane,2-3-10,3196_eid_s03_2-3-10_airplane_10_n02690373_2150.JPEG
subject-03,3,637,0.958544969558716,cat,cat,4-0-10,3197_eid_s03_4-0-10_cat_10_n02124075_9339.JPEG
subject-03,3,638,NaN,na,oven,8-3-10,3198_eid_s03_8-3-10_oven_10_n04111531_15317.JPEG
subject-03,3,639,0.653489828109741,oven,dog,128-3-10,3199_eid_s03_128-3-10_dog_10_n02110185_2440.JPEG
subject-03,3,640,0.694178104400635,cat,dog,32-10-10,3200_eid_s03_32-10-10_dog_10_n02109047_358.JPEG
subject-03,3,641,0.915688037872314,chair,chair,4-0-10,3201_eid_s03_4-0-10_chair_10_n04099969_3850.JPEG
subject-03,3,642,0.648084878921509,oven,car,16-10-10,3202_eid_s03_16-10-10_car_10_n04285008_7610.JPEG
subject-03,3,643,0.532751083374023,oven,keyboard,64-10-10,3203_eid_s03_64-10-10_keyboard_10_n03085013_24506.JPEG
subject-03,3,644,1.01134896278381,bicycle,bicycle,2-0-10,3204_eid_s03_2-0-10_bicycle_10_n02835271_2491.JPEG
subject-03,3,645,0.933696031570435,bicycle,bicycle,4-0-10,3205_eid_s03_4-0-10_bicycle_10_n03792782_6215.JPEG
subject-03,3,646,0.974560976028442,keyboard,keyboard,4-0-10,3206_eid_s03_4-0-10_keyboard_10_n04505470_2889.JPEG
subject-03,3,647,0.520740032196045,oven,truck,16-0-10,3207_eid_s03_16-0-10_truck_10_n04467665_36621.JPEG
subject-03,3,648,0.653260946273804,oven,boat,32-0-10,3208_eid_s03_32-0-10_boat_10_n03662601_889.JPEG
subject-03,3,649,0.607816934585571,clock,clock,2-10-10,3209_eid_s03_2-10-10_clock_10_n04548280_22842.JPEG
subject-03,3,650,1.00727105140686,clock,knife,32-0-10,3210_eid_s03_32-0-10_knife_10_n03041632_81630.JPEG
subject-03,3,651,0.784446954727173,clock,bottle,32-10-10,3211_eid_s03_32-10-10_bottle_10_n04557648_17011.JPEG
subject-03,3,652,0.676375150680542,bird,bird,8-10-10,3212_eid_s03_8-10-10_bird_10_n01796340_4567.JPEG
subject-03,3,653,0.884252071380615,keyboard,keyboard,1-10-10,3213_eid_s03_1-10-10_keyboard_10_n03085013_3148.JPEG
subject-03,3,654,0.876243114471436,cat,car,16-0-10,3214_eid_s03_16-0-10_car_10_n02814533_1912.JPEG
subject-03,3,655,0.678835153579712,boat,elephant,8-10-10,3215_eid_s03_8-10-10_elephant_10_n02504013_1673.JPEG
subject-03,3,656,0.633404970169067,cat,clock,16-0-10,3216_eid_s03_16-0-10_clock_10_n04548280_4561.JPEG
subject-03,3,657,0.825567007064819,clock,truck,16-3-10,3217_eid_s03_16-3-10_truck_10_n03417042_11166.JPEG
subject-03,3,658,0.904439210891724,bear,keyboard,64-10-10,3218_eid_s03_64-10-10_keyboard_10_n04505470_1717.JPEG
subject-03,3,659,0.567378044128418,clock,clock,1-3-10,3219_eid_s03_1-3-10_clock_10_n02708093_3079.JPEG
subject-03,3,660,1.06696510314941,keyboard,oven,4-10-10,3220_eid_s03_4-10-10_oven_10_n04111531_9838.JPEG
subject-03,3,661,0.976144075393677,chair,knife,1-0-10,3221_eid_s03_1-0-10_knife_10_n03041632_99875.JPEG
subject-03,3,662,0.624684810638428,clock,airplane,128-0-10,3222_eid_s03_128-0-10_airplane_10_n02690373_5597.JPEG
subject-03,3,663,0.787460088729858,bear,boat,16-3-10,3223_eid_s03_16-3-10_boat_10_n03662601_9286.JPEG
subject-03,3,664,1.30218601226807,keyboard,chair,8-10-10,3224_eid_s03_8-10-10_chair_10_n04429376_25760.JPEG
subject-03,3,665,0.788058996200562,bear,bird,8-3-10,3225_eid_s03_8-3-10_bird_10_n01622779_764.JPEG
subject-03,3,666,0.604561805725098,clock,clock,1-10-10,3226_eid_s03_1-10-10_clock_10_n02708093_4040.JPEG
subject-03,3,667,1.05984997749329,airplane,bottle,1-3-10,3227_eid_s03_1-3-10_bottle_10_n04557648_1856.JPEG
subject-03,3,668,0.729440927505493,boat,truck,8-0-10,3228_eid_s03_8-0-10_truck_10_n04467665_52003.JPEG
subject-03,3,669,0.900662183761597,bear,bear,4-3-10,3229_eid_s03_4-3-10_bear_10_n02132136_32072.JPEG
subject-03,3,670,0.970772981643677,bird,bird,8-3-10,3230_eid_s03_8-3-10_bird_10_n01860187_924.JPEG
subject-03,3,671,0.717790842056274,bear,dog,16-3-10,3231_eid_s03_16-3-10_dog_10_n02110806_13307.JPEG
subject-03,3,672,0.83467698097229,bear,bottle,4-0-10,3232_eid_s03_4-0-10_bottle_10_n04557648_3345.JPEG
subject-03,3,673,0.797481060028076,bicycle,bird,128-0-10,3233_eid_s03_128-0-10_bird_10_n02028035_25291.JPEG
subject-03,3,674,0.813678026199341,keyboard,keyboard,4-10-10,3234_eid_s03_4-10-10_keyboard_10_n04505470_5354.JPEG
subject-03,3,675,0.855079174041748,bear,knife,128-10-10,3235_eid_s03_128-10-10_knife_10_n03041632_42162.JPEG
subject-03,3,676,0.808458089828491,chair,chair,2-10-10,3236_eid_s03_2-10-10_chair_10_n03376595_12251.JPEG
subject-03,3,677,1.01821088790894,bird,clock,64-10-10,3237_eid_s03_64-10-10_clock_10_n04548280_4354.JPEG
subject-03,3,678,0.734740972518921,chair,chair,1-0-10,3238_eid_s03_1-0-10_chair_10_n04429376_5269.JPEG
subject-03,3,679,0.751227140426636,clock,clock,16-10-10,3239_eid_s03_16-10-10_clock_10_n04548280_3303.JPEG
subject-03,3,680,0.776298999786377,clock,dog,64-0-10,3240_eid_s03_64-0-10_dog_10_n02102480_5565.JPEG
subject-03,3,681,0.638705968856812,oven,elephant,16-0-10,3241_eid_s03_16-0-10_elephant_10_n02504013_3029.JPEG
subject-03,3,682,0.815108060836792,bicycle,car,64-3-10,3242_eid_s03_64-3-10_car_10_n03100240_18984.JPEG
subject-03,3,683,0.823629856109619,knife,oven,8-0-10,3243_eid_s03_8-0-10_oven_10_n04111531_2213.JPEG
subject-03,3,684,0.886222124099731,bear,bottle,64-3-10,3244_eid_s03_64-3-10_bottle_10_n04591713_6057.JPEG
subject-03,3,685,0.656898975372314,cat,chair,64-3-10,3245_eid_s03_64-3-10_chair_10_n04099969_25085.JPEG
subject-03,3,686,0.556909084320068,oven,bottle,64-10-10,3246_eid_s03_64-10-10_bottle_10_n04560804_20087.JPEG
subject-03,3,687,0.695602178573608,bear,cat,2-10-10,3247_eid_s03_2-10-10_cat_10_n02123597_14332.JPEG
subject-03,3,688,0.765944957733154,knife,car,16-0-10,3248_eid_s03_16-0-10_car_10_n04285008_3549.JPEG
subject-03,3,689,0.465941905975342,clock,clock,1-3-10,3249_eid_s03_1-3-10_clock_10_n04548280_3352.JPEG
subject-03,3,690,0.950737953186035,truck,truck,16-10-10,3250_eid_s03_16-10-10_truck_10_n03796401_14028.JPEG
subject-03,3,691,0.967370986938477,truck,truck,2-0-10,3251_eid_s03_2-0-10_truck_10_n03796401_9105.JPEG
subject-03,3,692,0.867827892303467,car,oven,16-3-10,3252_eid_s03_16-3-10_oven_10_n04111531_4795.JPEG
subject-03,3,693,0.859416961669922,bear,elephant,1-10-10,3253_eid_s03_1-10-10_elephant_10_n02504013_5747.JPEG
subject-03,3,694,1.00528001785278,chair,chair,1-0-10,3254_eid_s03_1-0-10_chair_10_n03376595_6939.JPEG
subject-03,3,695,0.897527933120728,boat,knife,64-10-10,3255_eid_s03_64-10-10_knife_10_n03041632_4057.JPEG
subject-03,3,696,0.48445987701416,oven,keyboard,64-0-10,3256_eid_s03_64-0-10_keyboard_10_n03085013_28083.JPEG
subject-03,3,697,1.05509209632874,dog,dog,2-0-10,3257_eid_s03_2-0-10_dog_10_n02093991_837.JPEG
subject-03,3,698,0.901524066925049,dog,dog,2-10-10,3258_eid_s03_2-10-10_dog_10_n02090379_10009.JPEG
subject-03,3,699,1.09627103805542,clock,oven,2-3-10,3259_eid_s03_2-3-10_oven_10_n04111531_6629.JPEG
subject-03,3,700,0.567682981491089,cat,bottle,32-0-10,3260_eid_s03_32-0-10_bottle_10_n04560804_16214.JPEG
subject-03,3,701,0.666914939880371,bicycle,bicycle,2-0-10,3261_eid_s03_2-0-10_bicycle_10_n02835271_10390.JPEG
subject-03,3,702,0.654065132141113,bicycle,bicycle,8-3-10,3262_eid_s03_8-3-10_bicycle_10_n03792782_43328.JPEG
subject-03,3,703,0.525097846984863,cat,cat,1-0-10,3263_eid_s03_1-0-10_cat_10_n02123394_8679.JPEG
subject-03,3,704,0.655508041381836,bottle,bottle,1-3-10,3264_eid_s03_1-3-10_bottle_10_n04591713_4059.JPEG
subject-03,3,705,0.604197978973389,bear,knife,16-10-10,3265_eid_s03_16-10-10_knife_10_n03041632_31909.JPEG
subject-03,3,706,0.663770914077759,bicycle,bird,1-0-10,3266_eid_s03_1-0-10_bird_10_n01530575_10372.JPEG
subject-03,3,707,1.00197792053223,elephant,elephant,64-10-10,3267_eid_s03_64-10-10_elephant_10_n02504013_1830.JPEG
subject-03,3,708,0.743086814880371,keyboard,keyboard,8-10-10,3268_eid_s03_8-10-10_keyboard_10_n04505470_5149.JPEG
subject-03,3,709,0.764790058135986,keyboard,bird,32-0-10,3269_eid_s03_32-0-10_bird_10_n01855032_3235.JPEG
subject-03,3,710,0.819311857223511,oven,car,32-10-10,3270_eid_s03_32-10-10_car_10_n02814533_46403.JPEG
subject-03,3,711,NaN,na,bottle,1-0-10,3271_eid_s03_1-0-10_bottle_10_n02823428_1192.JPEG
subject-03,3,712,0.636758089065552,airplane,airplane,2-10-10,3272_eid_s03_2-10-10_airplane_10_n02690373_19286.JPEG
subject-03,3,713,1.0832691192627,dog,dog,1-10-10,3273_eid_s03_1-10-10_dog_10_n02106030_6007.JPEG
subject-03,3,714,0.778138160705566,bottle,keyboard,128-10-10,3274_eid_s03_128-10-10_keyboard_10_n03085013_24045.JPEG
subject-03,3,715,0.778834104537964,clock,clock,1-3-10,3275_eid_s03_1-3-10_clock_10_n04548280_10183.JPEG
subject-03,3,716,0.749269962310791,clock,car,32-10-10,3276_eid_s03_32-10-10_car_10_n02814533_7632.JPEG
subject-03,3,717,0.863152027130127,dog,elephant,4-0-10,3277_eid_s03_4-0-10_elephant_10_n02504013_318.JPEG
subject-03,3,718,0.58831000328064,clock,airplane,32-3-10,3278_eid_s03_32-3-10_airplane_10_n02690373_20122.JPEG
subject-03,3,719,0.634879112243652,cat,bird,128-10-10,3279_eid_s03_128-10-10_bird_10_n01824575_1198.JPEG
subject-03,3,720,0.789469957351685,bear,knife,128-0-10,3280_eid_s03_128-0-10_knife_10_n03041632_43506.JPEG
subject-03,3,721,0.606105089187622,bear,bear,1-3-10,3281_eid_s03_1-3-10_bear_10_n02133161_24490.JPEG
subject-03,3,722,0.83063793182373,elephant,bird,32-0-10,3282_eid_s03_32-0-10_bird_10_n02002724_1875.JPEG
subject-03,3,723,0.685168981552124,clock,bird,64-3-10,3283_eid_s03_64-3-10_bird_10_n02007558_179.JPEG
subject-03,3,724,0.793087005615234,clock,bird,64-0-10,3284_eid_s03_64-0-10_bird_10_n01819313_6276.JPEG
subject-03,3,725,0.445089101791382,bear,car,128-0-10,3285_eid_s03_128-0-10_car_10_n04285008_11323.JPEG
subject-03,3,726,0.699498176574707,bear,car,32-3-10,3286_eid_s03_32-3-10_car_10_n03100240_9149.JPEG
subject-03,3,727,0.96171498298645,keyboard,keyboard,4-10-10,3287_eid_s03_4-10-10_keyboard_10_n04505470_1712.JPEG
subject-03,3,728,0.808128118515015,bicycle,bicycle,4-10-10,3288_eid_s03_4-10-10_bicycle_10_n03792782_11114.JPEG
subject-03,3,729,0.616966962814331,oven,bottle,128-0-10,3289_eid_s03_128-0-10_bottle_10_n04591713_7080.JPEG
subject-03,3,730,1.01726007461548,elephant,clock,64-0-10,3290_eid_s03_64-0-10_clock_10_n02708093_451.JPEG
subject-03,3,731,1.09470391273499,bird,bird,2-3-10,3291_eid_s03_2-3-10_bird_10_n01828970_28820.JPEG
subject-03,3,732,0.62619686126709,airplane,airplane,16-10-10,3292_eid_s03_16-10-10_airplane_10_n02690373_6285.JPEG
subject-03,3,733,0.719249963760376,bicycle,bicycle,2-10-10,3293_eid_s03_2-10-10_bicycle_10_n03792782_4704.JPEG
subject-03,3,734,0.890001058578491,bicycle,knife,16-10-10,3294_eid_s03_16-10-10_knife_10_n03041632_21345.JPEG
subject-03,3,735,0.806282997131348,airplane,airplane,2-0-10,3295_eid_s03_2-0-10_airplane_10_n02690373_3216.JPEG
subject-03,3,736,0.815193176269531,airplane,airplane,1-0-10,3296_eid_s03_1-0-10_airplane_10_n02690373_4591.JPEG
subject-03,3,737,0.883343935012817,dog,dog,4-3-10,3297_eid_s03_4-3-10_dog_10_n02107908_11575.JPEG
subject-03,3,738,0.80800986289978,oven,oven,8-0-10,3298_eid_s03_8-0-10_oven_10_n04111531_10420.JPEG
subject-03,3,739,0.808717012405396,keyboard,keyboard,1-0-10,3299_eid_s03_1-0-10_keyboard_10_n04505470_10870.JPEG
subject-03,3,740,0.779278039932251,keyboard,bicycle,128-3-10,3300_eid_s03_128-3-10_bicycle_10_n03792782_55401.JPEG
subject-03,3,741,1.21005320549011,clock,bear,16-0-10,3301_eid_s03_16-0-10_bear_10_n02132136_25399.JPEG
subject-03,3,742,0.934535980224609,car,car,16-10-10,3302_eid_s03_16-10-10_car_10_n02814533_42547.JPEG
subject-03,3,743,0.796448945999146,bottle,bottle,16-10-10,3303_eid_s03_16-10-10_bottle_10_n04591713_7158.JPEG
subject-03,3,744,1.14880704879761,bear,dog,8-0-10,3304_eid_s03_8-0-10_dog_10_n02108551_20109.JPEG
subject-03,3,745,0.581124067306519,bottle,bottle,4-10-10,3305_eid_s03_4-10-10_bottle_10_n03983396_22896.JPEG
subject-03,3,746,0.760257005691528,bear,dog,16-3-10,3306_eid_s03_16-3-10_dog_10_n02093428_18353.JPEG
subject-03,3,747,0.636909961700439,boat,boat,4-0-10,3307_eid_s03_4-0-10_boat_10_n04273569_2740.JPEG
subject-03,3,748,0.577788114547729,bicycle,bicycle,2-3-10,3308_eid_s03_2-3-10_bicycle_10_n03792782_4222.JPEG
subject-03,3,749,0.937875032424927,clock,truck,64-3-10,3309_eid_s03_64-3-10_truck_10_n03796401_5284.JPEG
subject-03,3,750,0.654129981994629,car,car,2-10-10,3310_eid_s03_2-10-10_car_10_n02814533_89837.JPEG
subject-03,3,751,1.09264898300171,truck,bird,128-10-10,3311_eid_s03_128-10-10_bird_10_n01828970_2459.JPEG
subject-03,3,752,0.866703987121582,bottle,bottle,8-10-10,3312_eid_s03_8-10-10_bottle_10_n04557648_3532.JPEG
subject-03,3,753,0.683107137680054,bicycle,bicycle,8-10-10,3313_eid_s03_8-10-10_bicycle_10_n02835271_3947.JPEG
subject-03,3,754,0.937544107437134,airplane,airplane,4-0-10,3314_eid_s03_4-0-10_airplane_10_n02690373_2185.JPEG
subject-03,3,755,0.678305864334106,bicycle,car,128-3-10,3315_eid_s03_128-3-10_car_10_n02814533_25767.JPEG
subject-03,3,756,0.470744132995605,oven,oven,128-10-10,3316_eid_s03_128-10-10_oven_10_n04111531_6955.JPEG
subject-03,3,757,0.762821912765503,elephant,cat,32-0-10,3317_eid_s03_32-0-10_cat_10_n02123045_10878.JPEG
subject-03,3,758,0.925378084182739,elephant,keyboard,64-0-10,3318_eid_s03_64-0-10_keyboard_10_n03085013_5667.JPEG
subject-03,3,759,1.01816415786743,truck,truck,2-3-10,3319_eid_s03_2-3-10_truck_10_n04467665_90715.JPEG
subject-03,3,760,0.748426914215088,oven,airplane,64-0-10,3320_eid_s03_64-0-10_airplane_10_n02690373_8925.JPEG
subject-03,3,761,0.772880077362061,clock,clock,2-3-10,3321_eid_s03_2-3-10_clock_10_n04548280_7951.JPEG
subject-03,3,762,0.91184401512146,oven,chair,64-3-10,3322_eid_s03_64-3-10_chair_10_n02791124_117.JPEG
subject-03,3,763,0.960546016693115,bicycle,chair,16-10-10,3323_eid_s03_16-10-10_chair_10_n02791124_2606.JPEG
subject-03,3,764,0.814718008041382,oven,dog,16-0-10,3324_eid_s03_16-0-10_dog_10_n02106030_5028.JPEG
subject-03,3,765,1.207279920578,dog,bear,2-10-10,3325_eid_s03_2-10-10_bear_10_n02132136_168.JPEG
subject-03,3,766,1.01536512374878,oven,airplane,64-0-10,3326_eid_s03_64-0-10_airplane_10_n02690373_2700.JPEG
subject-03,3,767,0.961426973342896,keyboard,keyboard,4-0-10,3327_eid_s03_4-0-10_keyboard_10_n04505470_4002.JPEG
subject-03,3,768,1.07829213142395,dog,bottle,128-10-10,3328_eid_s03_128-10-10_bottle_10_n03937543_2039.JPEG
subject-03,3,769,0.814747095108032,oven,bird,32-3-10,3329_eid_s03_32-3-10_bird_10_n01622779_7041.JPEG
subject-03,3,770,0.607058048248291,airplane,airplane,16-3-10,3330_eid_s03_16-3-10_airplane_10_n02690373_20090.JPEG
subject-03,3,771,0.577644109725952,airplane,dog,8-3-10,3331_eid_s03_8-3-10_dog_10_n02088094_4703.JPEG
subject-03,3,772,0.948318004608154,dog,dog,8-10-10,3332_eid_s03_8-10-10_dog_10_n02090379_3045.JPEG
subject-03,3,773,0.748821020126343,bird,bird,2-10-10,3333_eid_s03_2-10-10_bird_10_n01537544_13401.JPEG
subject-03,3,774,0.933517217636108,dog,dog,4-0-10,3334_eid_s03_4-0-10_dog_10_n02093754_615.JPEG
subject-03,3,775,0.525588989257812,cat,bird,64-10-10,3335_eid_s03_64-10-10_bird_10_n02007558_3960.JPEG
subject-03,3,776,1.05791187286377,truck,truck,1-0-10,3336_eid_s03_1-0-10_truck_10_n03796401_6182.JPEG
subject-03,3,777,0.466535806655884,boat,boat,4-3-10,3337_eid_s03_4-3-10_boat_10_n04273569_883.JPEG
subject-03,3,778,0.535409927368164,cat,dog,64-10-10,3338_eid_s03_64-10-10_dog_10_n02111500_4412.JPEG
subject-03,3,779,0.790441989898682,bottle,bottle,1-10-10,3339_eid_s03_1-10-10_bottle_10_n03937543_3426.JPEG
subject-03,3,780,0.698698997497559,bear,oven,64-3-10,3340_eid_s03_64-3-10_oven_10_n04111531_2796.JPEG
subject-03,3,781,0.607719898223877,bottle,bottle,1-10-10,3341_eid_s03_1-10-10_bottle_10_n04557648_9694.JPEG
subject-03,3,782,0.507858037948608,boat,chair,128-0-10,3342_eid_s03_128-0-10_chair_10_n03376595_4826.JPEG
subject-03,3,783,0.654191017150879,boat,boat,4-10-10,3343_eid_s03_4-10-10_boat_10_n04612504_1860.JPEG
subject-03,3,784,0.586149930953979,cat,bear,16-3-10,3344_eid_s03_16-3-10_bear_10_n02132136_2982.JPEG
subject-03,3,785,0.622036933898926,cat,dog,8-0-10,3345_eid_s03_8-0-10_dog_10_n02111277_5238.JPEG
subject-03,3,786,0.462599039077759,boat,boat,1-10-10,3346_eid_s03_1-10-10_boat_10_n03344393_7925.JPEG
subject-03,3,787,0.709670066833496,bear,bear,2-3-10,3347_eid_s03_2-3-10_bear_10_n02133161_2402.JPEG
subject-03,3,788,0.740310907363892,bear,bear,32-10-10,3348_eid_s03_32-10-10_bear_10_n02132136_8768.JPEG
subject-03,3,789,0.69455099105835,knife,knife,1-10-10,3349_eid_s03_1-10-10_knife_10_n03041632_3247.JPEG
subject-03,3,790,0.619018077850342,bottle,bottle,1-0-10,3350_eid_s03_1-0-10_bottle_10_n04560804_1969.JPEG
subject-03,3,791,0.518563032150269,boat,bottle,8-0-10,3351_eid_s03_8-0-10_bottle_10_n04557648_11823.JPEG
subject-03,3,792,0.674227952957153,cat,bear,128-10-10,3352_eid_s03_128-10-10_bear_10_n02133161_5372.JPEG
subject-03,3,793,0.603821992874146,bear,bird,8-3-10,3353_eid_s03_8-3-10_bird_10_n01796340_15551.JPEG
subject-03,3,794,0.688439846038818,bear,truck,128-0-10,3354_eid_s03_128-0-10_truck_10_n03417042_11072.JPEG
subject-03,3,795,0.888590812683105,bear,bear,8-10-10,3355_eid_s03_8-10-10_bear_10_n02134418_2608.JPEG
subject-03,3,796,0.55146598815918,bear,oven,64-10-10,3356_eid_s03_64-10-10_oven_10_n04111531_3121.JPEG
subject-03,3,797,0.71921706199646,truck,car,2-10-10,3357_eid_s03_2-10-10_car_10_n02814533_60418.JPEG
subject-03,3,798,0.802958965301514,elephant,elephant,4-10-10,3358_eid_s03_4-10-10_elephant_10_n02504458_8341.JPEG
subject-03,3,799,0.64407205581665,bear,bicycle,64-10-10,3359_eid_s03_64-10-10_bicycle_10_n02835271_6580.JPEG
subject-03,3,800,0.650548934936523,bear,airplane,128-10-10,3360_eid_s03_128-10-10_airplane_10_n02690373_777.JPEG
subject-03,3,801,0.629019021987915,chair,knife,128-10-10,3361_eid_s03_128-10-10_knife_10_n03041632_14916.JPEG
subject-03,3,802,0.691789865493774,elephant,elephant,4-0-10,3362_eid_s03_4-0-10_elephant_10_n02504458_7324.JPEG
subject-03,3,803,0.876471042633057,bear,bottle,128-3-10,3363_eid_s03_128-3-10_bottle_10_n04579145_3773.JPEG
subject-03,3,804,0.860375165939331,elephant,elephant,1-0-10,3364_eid_s03_1-0-10_elephant_10_n02504013_6426.JPEG
subject-03,3,805,1.03890180587769,elephant,chair,32-0-10,3365_eid_s03_32-0-10_chair_10_n04429376_9022.JPEG
subject-03,3,806,0.709729909896851,elephant,boat,128-10-10,3366_eid_s03_128-10-10_boat_10_n02951358_12627.JPEG
subject-03,3,807,0.686222076416016,car,car,1-3-10,3367_eid_s03_1-3-10_car_10_n04285008_10802.JPEG
subject-03,3,808,0.918927192687988,car,airplane,128-10-10,3368_eid_s03_128-10-10_airplane_10_n02690373_10079.JPEG
subject-03,3,809,0.889248132705688,car,car,128-10-10,3369_eid_s03_128-10-10_car_10_n03100240_5136.JPEG
subject-03,3,810,0.735276937484741,knife,chair,4-10-10,3370_eid_s03_4-10-10_chair_10_n03376595_1615.JPEG
subject-03,3,811,0.881911039352417,bird,car,16-3-10,3371_eid_s03_16-3-10_car_10_n02814533_25986.JPEG
subject-03,3,812,0.912497997283936,bird,bear,16-3-10,3372_eid_s03_16-3-10_bear_10_n02133161_699.JPEG
subject-03,3,813,1.06652307510376,cat,cat,1-3-10,3373_eid_s03_1-3-10_cat_10_n02125311_7988.JPEG
subject-03,3,814,0.66677713394165,car,truck,16-10-10,3374_eid_s03_16-10-10_truck_10_n03417042_1258.JPEG
subject-03,3,815,0.767038822174072,elephant,elephant,16-10-10,3375_eid_s03_16-10-10_elephant_10_n02504458_1614.JPEG
subject-03,3,816,0.600219964981079,car,car,4-10-10,3376_eid_s03_4-10-10_car_10_n04285008_16035.JPEG
subject-03,3,817,NaN,na,knife,32-3-10,3377_eid_s03_32-3-10_knife_10_n03041632_40652.JPEG
subject-03,3,818,1.13353300094604,bottle,knife,8-3-10,3378_eid_s03_8-3-10_knife_10_n03041632_27963.JPEG
subject-03,3,819,0.601678133010864,boat,boat,128-0-10,3379_eid_s03_128-0-10_boat_10_n04612504_8636.JPEG
subject-03,3,820,0.672083139419556,oven,car,128-10-10,3380_eid_s03_128-10-10_car_10_n02814533_93476.JPEG
subject-03,3,821,0.573070049285889,bird,car,32-0-10,3381_eid_s03_32-0-10_car_10_n03100240_9422.JPEG
subject-03,3,822,0.597503900527954,bird,bird,4-10-10,3382_eid_s03_4-10-10_bird_10_n01530575_10335.JPEG
subject-03,3,823,0.927752017974854,bicycle,bicycle,4-10-10,3383_eid_s03_4-10-10_bicycle_10_n02835271_12903.JPEG
subject-03,3,824,0.906524896621704,boat,boat,1-3-10,3384_eid_s03_1-3-10_boat_10_n04612504_15159.JPEG
subject-03,3,825,0.769053936004639,airplane,airplane,1-0-10,3385_eid_s03_1-0-10_airplane_10_n02690373_2569.JPEG
subject-03,3,826,0.677556991577148,clock,chair,64-0-10,3386_eid_s03_64-0-10_chair_10_n02791124_3936.JPEG
subject-03,3,827,0.993794202804565,elephant,elephant,4-10-10,3387_eid_s03_4-10-10_elephant_10_n02504013_2445.JPEG
subject-03,3,828,0.832836151123047,bird,bird,8-10-10,3388_eid_s03_8-10-10_bird_10_n02051845_1319.JPEG
subject-03,3,829,0.733007907867432,keyboard,keyboard,2-3-10,3389_eid_s03_2-3-10_keyboard_10_n04505470_4199.JPEG
subject-03,3,830,0.873156070709229,cat,knife,2-3-10,3390_eid_s03_2-3-10_knife_10_n03041632_24326.JPEG
subject-03,3,831,0.936048030853271,bear,bear,2-0-10,3391_eid_s03_2-0-10_bear_10_n02134084_16100.JPEG
subject-03,3,832,0.83624005317688,bird,bird,4-0-10,3392_eid_s03_4-0-10_bird_10_n02009229_2418.JPEG
subject-03,3,833,0.74528694152832,airplane,airplane,1-0-10,3393_eid_s03_1-0-10_airplane_10_n02690373_2498.JPEG
subject-03,3,834,0.673730134963989,bear,knife,128-3-10,3394_eid_s03_128-3-10_knife_10_n03041632_24060.JPEG
subject-03,3,835,0.663740873336792,oven,dog,16-0-10,3395_eid_s03_16-0-10_dog_10_n02093859_2598.JPEG
subject-03,3,836,0.942981004714966,chair,chair,4-0-10,3396_eid_s03_4-0-10_chair_10_n03376595_6586.JPEG
subject-03,3,837,0.935378074645996,bicycle,bicycle,2-0-10,3397_eid_s03_2-0-10_bicycle_10_n02835271_12946.JPEG
subject-03,3,838,0.635579109191895,bicycle,chair,32-0-10,3398_eid_s03_32-0-10_chair_10_n02791124_9071.JPEG
subject-03,3,839,0.738691806793213,oven,truck,4-3-10,3399_eid_s03_4-3-10_truck_10_n03417042_6685.JPEG
subject-03,3,840,0.685003995895386,clock,knife,64-0-10,3400_eid_s03_64-0-10_knife_10_n03041632_37618.JPEG
subject-03,3,841,0.815546035766602,bicycle,truck,4-10-10,3401_eid_s03_4-10-10_truck_10_n04467665_64249.JPEG
subject-03,3,842,0.570140838623047,oven,bottle,64-0-10,3402_eid_s03_64-0-10_bottle_10_n04579145_1951.JPEG
subject-03,3,843,0.656599044799805,oven,dog,32-3-10,3403_eid_s03_32-3-10_dog_10_n02109961_36114.JPEG
subject-03,3,844,0.74114990234375,bicycle,airplane,16-0-10,3404_eid_s03_16-0-10_airplane_10_n02690373_7536.JPEG
subject-03,3,845,0.465513944625854,oven,bottle,128-3-10,3405_eid_s03_128-3-10_bottle_10_n03937543_9119.JPEG
subject-03,3,846,0.949923992156982,oven,oven,1-3-10,3406_eid_s03_1-3-10_oven_10_n04111531_16583.JPEG
subject-03,3,847,1.16643404960632,airplane,boat,128-0-10,3407_eid_s03_128-0-10_boat_10_n03662601_26572.JPEG
subject-03,3,848,0.728896856307983,bear,knife,64-10-10,3408_eid_s03_64-10-10_knife_10_n03041632_42526.JPEG
subject-03,3,849,0.437548160552979,oven,dog,32-0-10,3409_eid_s03_32-0-10_dog_10_n02095314_1585.JPEG
subject-03,3,850,0.630326986312866,chair,chair,8-10-10,3410_eid_s03_8-10-10_chair_10_n04099969_1444.JPEG
subject-03,3,851,0.706210136413574,airplane,airplane,4-10-10,3411_eid_s03_4-10-10_airplane_10_n02690373_9071.JPEG
subject-03,3,852,0.798964977264404,clock,clock,4-10-10,3412_eid_s03_4-10-10_clock_10_n04548280_5516.JPEG
subject-03,3,853,0.693616151809692,oven,keyboard,16-10-10,3413_eid_s03_16-10-10_keyboard_10_n04505470_7946.JPEG
subject-03,3,854,0.848375797271729,chair,chair,1-3-10,3414_eid_s03_1-3-10_chair_10_n03376595_4366.JPEG
subject-03,3,855,1.34041810035706,keyboard,bear,8-3-10,3415_eid_s03_8-3-10_bear_10_n02132136_990.JPEG
subject-03,3,856,1.02450704574585,bear,bicycle,64-10-10,3416_eid_s03_64-10-10_bicycle_10_n02835271_19552.JPEG
subject-03,3,857,0.755225896835327,cat,dog,4-0-10,3417_eid_s03_4-0-10_dog_10_n02102318_1507.JPEG
subject-03,3,858,0.941268920898438,bird,bird,16-10-10,3418_eid_s03_16-10-10_bird_10_n01843383_4879.JPEG
subject-03,3,859,0.67101788520813,bird,knife,128-3-10,3419_eid_s03_128-3-10_knife_10_n03041632_33255.JPEG
subject-03,3,860,0.663956880569458,truck,knife,64-0-10,3420_eid_s03_64-0-10_knife_10_n03041632_17285.JPEG
subject-03,3,861,NaN,na,bicycle,16-0-10,3421_eid_s03_16-0-10_bicycle_10_n02835271_14966.JPEG
subject-03,3,862,0.701494932174683,dog,bear,1-10-10,3422_eid_s03_1-10-10_bear_10_n02134418_22.JPEG
subject-03,3,863,0.840224981307983,bird,dog,16-0-10,3423_eid_s03_16-0-10_dog_10_n02094114_2134.JPEG
subject-03,3,864,0.778714895248413,bird,cat,2-0-10,3424_eid_s03_2-0-10_cat_10_n02123159_3811.JPEG
subject-03,3,865,0.678522109985352,clock,clock,16-10-10,3425_eid_s03_16-10-10_clock_10_n04548280_2601.JPEG
subject-03,3,866,0.457883834838867,boat,keyboard,8-0-10,3426_eid_s03_8-0-10_keyboard_10_n04505470_5091.JPEG
subject-03,3,867,0.704596042633057,clock,keyboard,32-10-10,3427_eid_s03_32-10-10_keyboard_10_n03085013_6954.JPEG
subject-03,3,868,0.904989957809448,bicycle,truck,128-10-10,3428_eid_s03_128-10-10_truck_10_n03796401_26042.JPEG
subject-03,3,869,0.705457210540771,bear,bear,8-3-10,3429_eid_s03_8-3-10_bear_10_n02133161_10487.JPEG
subject-03,3,870,0.743906021118164,bear,bicycle,32-0-10,3430_eid_s03_32-0-10_bicycle_10_n03792782_13729.JPEG
subject-03,3,871,0.784260988235474,oven,dog,64-10-10,3431_eid_s03_64-10-10_dog_10_n02097209_6955.JPEG
subject-03,3,872,1.09038591384888,dog,clock,32-10-10,3432_eid_s03_32-10-10_clock_10_n04548280_7290.JPEG
subject-03,3,873,0.752435922622681,keyboard,keyboard,1-10-10,3433_eid_s03_1-10-10_keyboard_10_n04505470_9090.JPEG
subject-03,3,874,0.46101188659668,boat,elephant,64-3-10,3434_eid_s03_64-3-10_elephant_10_n02504013_3485.JPEG
subject-03,3,875,0.829168081283569,knife,knife,2-3-10,3435_eid_s03_2-3-10_knife_10_n03041632_29337.JPEG
subject-03,3,876,0.938103914260864,bear,chair,2-0-10,3436_eid_s03_2-0-10_chair_10_n02791124_6249.JPEG
subject-03,3,877,0.622292041778564,knife,knife,8-3-10,3437_eid_s03_8-3-10_knife_10_n03041632_44230.JPEG
subject-03,3,878,0.884957075119019,clock,clock,4-0-10,3438_eid_s03_4-0-10_clock_10_n02708093_2943.JPEG
subject-03,3,879,0.489633083343506,clock,keyboard,64-0-10,3439_eid_s03_64-0-10_keyboard_10_n04505470_4357.JPEG
subject-03,3,880,0.468101024627686,oven,cat,128-0-10,3440_eid_s03_128-0-10_cat_10_n02123159_7407.JPEG
subject-03,3,881,0.544413089752197,boat,boat,8-0-10,3441_eid_s03_8-0-10_boat_10_n03662601_12253.JPEG
subject-03,3,882,0.623217105865479,clock,boat,8-0-10,3442_eid_s03_8-0-10_boat_10_n04273569_3990.JPEG
subject-03,3,883,0.553786993026733,boat,knife,2-3-10,3443_eid_s03_2-3-10_knife_10_n03041632_102828.JPEG
subject-03,3,884,0.616492033004761,knife,chair,2-3-10,3444_eid_s03_2-3-10_chair_10_n02791124_2614.JPEG
subject-03,3,885,1.01679587364197,bear,cat,16-3-10,3445_eid_s03_16-3-10_cat_10_n02123045_11021.JPEG
subject-03,3,886,0.563577175140381,bear,chair,32-3-10,3446_eid_s03_32-3-10_chair_10_n02791124_5199.JPEG
subject-03,3,887,0.863909006118774,knife,knife,4-3-10,3447_eid_s03_4-3-10_knife_10_n03041632_30565.JPEG
subject-03,3,888,0.772325038909912,car,car,8-3-10,3448_eid_s03_8-3-10_car_10_n03100240_3136.JPEG
subject-03,3,889,0.72615909576416,clock,clock,4-3-10,3449_eid_s03_4-3-10_clock_10_n03196217_5414.JPEG
subject-03,3,890,0.92678689956665,cat,cat,16-10-10,3450_eid_s03_16-10-10_cat_10_n02124075_6864.JPEG
subject-03,3,891,0.488362073898315,cat,dog,2-10-10,3451_eid_s03_2-10-10_dog_10_n02086646_8813.JPEG
subject-03,3,892,0.810873031616211,bear,bear,8-0-10,3452_eid_s03_8-0-10_bear_10_n02134418_3211.JPEG
subject-03,3,893,0.527981042861938,clock,chair,4-3-10,3453_eid_s03_4-3-10_chair_10_n04429376_5593.JPEG
subject-03,3,894,NaN,na,car,1-10-10,3454_eid_s03_1-10-10_car_10_n03100240_1065.JPEG
subject-03,3,895,0.907538890838623,car,keyboard,64-0-10,3455_eid_s03_64-0-10_keyboard_10_n03085013_23291.JPEG
subject-03,3,896,0.637950897216797,oven,oven,8-3-10,3456_eid_s03_8-3-10_oven_10_n04111531_14208.JPEG
subject-03,3,897,0.600012063980103,bottle,dog,8-3-10,3457_eid_s03_8-3-10_dog_10_n02097298_13186.JPEG
subject-03,3,898,0.930291891098022,elephant,elephant,2-0-10,3458_eid_s03_2-0-10_elephant_10_n02504458_11345.JPEG
subject-03,3,899,0.831220865249634,bird,airplane,8-0-10,3459_eid_s03_8-0-10_airplane_10_n02690373_19131.JPEG
subject-03,3,900,0.794022798538208,chair,chair,4-10-10,3460_eid_s03_4-10-10_chair_10_n04099969_11279.JPEG
subject-03,3,901,0.596389055252075,cat,cat,2-0-10,3461_eid_s03_2-0-10_cat_10_n02123394_4837.JPEG
subject-03,3,902,0.650667905807495,elephant,elephant,1-3-10,3462_eid_s03_1-3-10_elephant_10_n02504013_6615.JPEG
subject-03,3,903,0.689873933792114,clock,clock,64-3-10,3463_eid_s03_64-3-10_clock_10_n02708093_5346.JPEG
subject-03,3,904,0.636712074279785,clock,clock,2-3-10,3464_eid_s03_2-3-10_clock_10_n02708093_2710.JPEG
subject-03,3,905,0.615642070770264,clock,clock,2-3-10,3465_eid_s03_2-3-10_clock_10_n04548280_353.JPEG
subject-03,3,906,0.8004150390625,elephant,elephant,4-10-10,3466_eid_s03_4-10-10_elephant_10_n02504458_3292.JPEG
subject-03,3,907,0.716856002807617,bird,oven,1-0-10,3467_eid_s03_1-0-10_oven_10_n04111531_1778.JPEG
subject-03,3,908,0.641816854476929,boat,boat,1-0-10,3468_eid_s03_1-0-10_boat_10_n02951358_11442.JPEG
subject-03,3,909,0.856105089187622,chair,chair,4-10-10,3469_eid_s03_4-10-10_chair_10_n04429376_15860.JPEG
subject-03,3,910,0.680714130401611,clock,airplane,128-3-10,3470_eid_s03_128-3-10_airplane_10_n02690373_3435.JPEG
subject-03,3,911,0.905467987060547,chair,dog,64-3-10,3471_eid_s03_64-3-10_dog_10_n02107142_9572.JPEG
subject-03,3,912,0.643815994262695,oven,truck,128-10-10,3472_eid_s03_128-10-10_truck_10_n03796401_22643.JPEG
subject-03,3,913,0.782221078872681,clock,keyboard,128-10-10,3473_eid_s03_128-10-10_keyboard_10_n03085013_4157.JPEG
subject-03,3,914,0.524333000183105,boat,boat,1-3-10,3474_eid_s03_1-3-10_boat_10_n04273569_13641.JPEG
subject-03,3,915,0.548971891403198,cat,bear,32-0-10,3475_eid_s03_32-0-10_bear_10_n02134418_4892.JPEG
subject-03,3,916,0.619578838348389,car,car,4-10-10,3476_eid_s03_4-10-10_car_10_n03100240_2332.JPEG
subject-03,3,917,0.85832405090332,cat,cat,2-10-10,3477_eid_s03_2-10-10_cat_10_n02124075_4460.JPEG
subject-03,3,918,0.582826137542725,cat,chair,16-3-10,3478_eid_s03_16-3-10_chair_10_n02791124_5759.JPEG
subject-03,3,919,0.542967081069946,boat,car,16-3-10,3479_eid_s03_16-3-10_car_10_n02814533_4449.JPEG
subject-03,3,920,0.453644037246704,cat,bird,64-10-10,3480_eid_s03_64-10-10_bird_10_n02033041_1275.JPEG
subject-03,3,921,0.737901926040649,cat,boat,64-0-10,3481_eid_s03_64-0-10_boat_10_n03662601_8096.JPEG
subject-03,3,922,0.584612846374512,boat,knife,128-10-10,3482_eid_s03_128-10-10_knife_10_n03041632_35116.JPEG
subject-03,3,923,0.64677095413208,cat,cat,16-0-10,3483_eid_s03_16-0-10_cat_10_n02123597_619.JPEG
subject-03,3,924,0.777432918548584,cat,bicycle,128-3-10,3484_eid_s03_128-3-10_bicycle_10_n03792782_66048.JPEG
subject-03,3,925,0.522621870040894,cat,clock,32-10-10,3485_eid_s03_32-10-10_clock_10_n04548280_16295.JPEG
subject-03,3,926,0.76908802986145,knife,knife,4-0-10,3486_eid_s03_4-0-10_knife_10_n03041632_16206.JPEG
subject-03,3,927,0.615962982177734,boat,boat,1-10-10,3487_eid_s03_1-10-10_boat_10_n03662601_21704.JPEG
subject-03,3,928,0.60315990447998,boat,elephant,16-3-10,3488_eid_s03_16-3-10_elephant_10_n02504458_7841.JPEG
subject-03,3,929,1.00911021232605,bear,bear,8-0-10,3489_eid_s03_8-0-10_bear_10_n02134084_9060.JPEG
subject-03,3,930,0.833631038665771,bicycle,bicycle,8-10-10,3490_eid_s03_8-10-10_bicycle_10_n02835271_4311.JPEG
subject-03,3,931,0.818753957748413,bear,dog,64-3-10,3491_eid_s03_64-3-10_dog_10_n02102480_8655.JPEG
subject-03,3,932,0.535763025283813,boat,boat,2-3-10,3492_eid_s03_2-3-10_boat_10_n02951358_12254.JPEG
subject-03,3,933,0.53659987449646,boat,elephant,32-10-10,3493_eid_s03_32-10-10_elephant_10_n02504458_2498.JPEG
subject-03,3,934,1.07613492012024,bicycle,chair,4-0-10,3494_eid_s03_4-0-10_chair_10_n03376595_2768.JPEG
subject-03,3,935,1.06793308258057,bicycle,bicycle,4-10-10,3495_eid_s03_4-10-10_bicycle_10_n02835271_22334.JPEG
subject-03,3,936,0.984683036804199,keyboard,keyboard,2-3-10,3496_eid_s03_2-3-10_keyboard_10_n04505470_3107.JPEG
subject-03,3,937,0.739748954772949,oven,cat,32-3-10,3497_eid_s03_32-3-10_cat_10_n02123394_6166.JPEG
subject-03,3,938,1.08599901199341,dog,dog,16-10-10,3498_eid_s03_16-10-10_dog_10_n02096051_8304.JPEG
subject-03,3,939,0.610913991928101,oven,bicycle,64-3-10,3499_eid_s03_64-3-10_bicycle_10_n02835271_3804.JPEG
subject-03,3,940,0.643364906311035,clock,knife,128-0-10,3500_eid_s03_128-0-10_knife_10_n03041632_50034.JPEG
subject-03,3,941,0.657318830490112,bicycle,dog,32-0-10,3501_eid_s03_32-0-10_dog_10_n02112350_247.JPEG
subject-03,3,942,0.704449892044067,bottle,bottle,64-10-10,3502_eid_s03_64-10-10_bottle_10_n04557648_11873.JPEG
subject-03,3,943,0.591353893280029,cat,cat,8-10-10,3503_eid_s03_8-10-10_cat_10_n02123159_7438.JPEG
subject-03,3,944,0.751831769943237,boat,chair,64-10-10,3504_eid_s03_64-10-10_chair_10_n04099969_1696.JPEG
subject-03,3,945,0.684077024459839,chair,chair,1-10-10,3505_eid_s03_1-10-10_chair_10_n04429376_20906.JPEG
subject-03,3,946,0.757508039474487,bottle,chair,128-0-10,3506_eid_s03_128-0-10_chair_10_n04429376_15286.JPEG
subject-03,3,947,0.937023162841797,dog,bear,64-3-10,3507_eid_s03_64-3-10_bear_10_n02133161_848.JPEG
subject-03,3,948,1.14531493186951,knife,knife,64-10-10,3508_eid_s03_64-10-10_knife_10_n03041632_16172.JPEG
subject-03,3,949,0.776481151580811,dog,dog,1-0-10,3509_eid_s03_1-0-10_dog_10_n02101388_1767.JPEG
subject-03,3,950,1.02990198135376,elephant,bird,16-0-10,3510_eid_s03_16-0-10_bird_10_n02002724_19371.JPEG
subject-03,3,951,0.629361152648926,knife,knife,4-10-10,3511_eid_s03_4-10-10_knife_10_n03041632_42196.JPEG
subject-03,3,952,0.405856132507324,oven,clock,128-3-10,3512_eid_s03_128-3-10_clock_10_n04548280_2343.JPEG
subject-03,3,953,0.41250205039978,boat,knife,32-3-10,3513_eid_s03_32-3-10_knife_10_n03041632_737.JPEG
subject-03,3,954,0.891494989395142,dog,dog,8-10-10,3514_eid_s03_8-10-10_dog_10_n02108915_117.JPEG
subject-03,3,955,0.627385139465332,cat,boat,64-0-10,3515_eid_s03_64-0-10_boat_10_n04612504_1134.JPEG
