subj,session,trial,rt,object_response,category,condition,imagename
subject-07,1,1,0.903507947921753,cat,oven,128-3-10,0001_eid_s07_128-3-10_oven_10_n04111531_21404.JPEG
subject-07,1,2,0.781720161437988,cat,oven,8-3-10,0002_eid_s07_8-3-10_oven_10_n04111531_6485.JPEG
subject-07,1,3,1.02011704444885,clock,clock,1-10-10,0003_eid_s07_1-10-10_clock_10_n02708093_3645.JPEG
subject-07,1,4,0.790278196334839,elephant,elephant,8-10-10,0004_eid_s07_8-10-10_elephant_10_n02504013_7273.JPEG
subject-07,1,5,1.12845611572266,cat,bird,8-0-10,0005_eid_s07_8-0-10_bird_10_n01622779_4917.JPEG
subject-07,1,6,NaN,na,airplane,32-3-10,0006_eid_s07_32-3-10_airplane_10_n02690373_306.JPEG
subject-07,1,7,0.9342041015625,dog,dog,2-3-10,0007_eid_s07_2-3-10_dog_10_n02107142_7139.JPEG
subject-07,1,8,0.982823848724365,elephant,elephant,1-0-10,0008_eid_s07_1-0-10_elephant_10_n02504013_7732.JPEG
subject-07,1,9,0.859446048736572,cat,boat,8-3-10,0009_eid_s07_8-3-10_boat_10_n03662601_2726.JPEG
subject-07,1,10,0.768110990524292,car,car,4-0-10,0010_eid_s07_4-0-10_car_10_n02814533_52045.JPEG
subject-07,1,11,0.984232902526855,bear,chair,16-3-10,0011_eid_s07_16-3-10_chair_10_n03376595_8959.JPEG
subject-07,1,12,1.10843300819397,bird,bird,4-3-10,0012_eid_s07_4-3-10_bird_10_n01614925_1821.JPEG
subject-07,1,13,1.24672484397888,dog,dog,4-0-10,0013_eid_s07_4-0-10_dog_10_n02093428_3259.JPEG
subject-07,1,14,1.31513810157776,bird,elephant,8-0-10,0014_eid_s07_8-0-10_elephant_10_n02504458_1024.JPEG
subject-07,1,15,1.2173478603363,cat,keyboard,64-10-10,0015_eid_s07_64-10-10_keyboard_10_n04505470_4611.JPEG
subject-07,1,16,0.855669975280762,chair,chair,4-3-10,0016_eid_s07_4-3-10_chair_10_n04429376_11550.JPEG
subject-07,1,17,1.2181408405304,boat,keyboard,64-10-10,0017_eid_s07_64-10-10_keyboard_10_n03085013_18858.JPEG
subject-07,1,18,1.04045104980469,cat,boat,64-3-10,0018_eid_s07_64-3-10_boat_10_n04612504_8904.JPEG
subject-07,1,19,1.10339999198914,boat,chair,128-10-10,0019_eid_s07_128-10-10_chair_10_n03376595_9267.JPEG
subject-07,1,20,0.72783088684082,elephant,elephant,1-10-10,0020_eid_s07_1-10-10_elephant_10_n02504458_4696.JPEG
subject-07,1,21,1.1432991027832,bicycle,bicycle,2-0-10,0021_eid_s07_2-0-10_bicycle_10_n03792782_15016.JPEG
subject-07,1,22,0.790328979492188,cat,oven,16-3-10,0022_eid_s07_16-3-10_oven_10_n04111531_520.JPEG
subject-07,1,23,1.09062790870667,bear,keyboard,32-3-10,0023_eid_s07_32-3-10_keyboard_10_n04505470_6955.JPEG
subject-07,1,24,0.931097984313965,cat,dog,128-0-10,0024_eid_s07_128-0-10_dog_10_n02105056_4334.JPEG
subject-07,1,25,1.28602600097656,cat,oven,4-0-10,0025_eid_s07_4-0-10_oven_10_n04111531_8036.JPEG
subject-07,1,26,1.00811505317688,dog,dog,4-3-10,0026_eid_s07_4-3-10_dog_10_n02097298_9967.JPEG
subject-07,1,27,1.25441694259644,elephant,keyboard,32-10-10,0027_eid_s07_32-10-10_keyboard_10_n04505470_10870.JPEG
subject-07,1,28,1.19227719306946,bear,oven,128-3-10,0028_eid_s07_128-3-10_oven_10_n04111531_3575.JPEG
subject-07,1,29,1.22477912902832,boat,bottle,128-10-10,0029_eid_s07_128-10-10_bottle_10_n04560804_14047.JPEG
subject-07,1,30,0.757009029388428,keyboard,keyboard,1-10-10,0030_eid_s07_1-10-10_keyboard_10_n03085013_2640.JPEG
subject-07,1,31,1.1332380771637,cat,chair,128-0-10,0031_eid_s07_128-0-10_chair_10_n02791124_8246.JPEG
subject-07,1,32,1.35178017616272,airplane,airplane,64-10-10,0032_eid_s07_64-10-10_airplane_10_n02690373_9759.JPEG
subject-07,1,33,1.14642214775085,cat,airplane,128-3-10,0033_eid_s07_128-3-10_airplane_10_n02690373_4202.JPEG
subject-07,1,34,1.19823718070984,airplane,oven,32-10-10,0034_eid_s07_32-10-10_oven_10_n04111531_9411.JPEG
subject-07,1,35,1.06013894081116,knife,knife,4-3-10,0035_eid_s07_4-3-10_knife_10_n03041632_36907.JPEG
subject-07,1,36,1.2910258769989,cat,bird,64-10-10,0036_eid_s07_64-10-10_bird_10_n01796340_15760.JPEG
subject-07,1,37,1.17747092247009,truck,truck,2-3-10,0037_eid_s07_2-3-10_truck_10_n04467665_58534.JPEG
subject-07,1,38,1.32424187660217,bear,bicycle,128-10-10,0038_eid_s07_128-10-10_bicycle_10_n02835271_3313.JPEG
subject-07,1,39,1.01092004776001,elephant,elephant,32-10-10,0039_eid_s07_32-10-10_elephant_10_n02504458_1211.JPEG
subject-07,1,40,1.16276621818542,keyboard,keyboard,4-10-10,0040_eid_s07_4-10-10_keyboard_10_n04505470_858.JPEG
subject-07,1,41,1.12493991851807,cat,dog,64-3-10,0041_eid_s07_64-3-10_dog_10_n02095570_7541.JPEG
subject-07,1,42,1.01657700538635,cat,knife,32-0-10,0042_eid_s07_32-0-10_knife_10_n03041632_3504.JPEG
subject-07,1,43,1.0628821849823,boat,bear,128-10-10,0043_eid_s07_128-10-10_bear_10_n02133161_12592.JPEG
subject-07,1,44,0.993585824966431,cat,clock,128-3-10,0044_eid_s07_128-3-10_clock_10_n04548280_4640.JPEG
subject-07,1,45,1.02582907676697,car,car,1-0-10,0045_eid_s07_1-0-10_car_10_n03100240_7206.JPEG
subject-07,1,46,1.33187913894653,elephant,elephant,2-0-10,0046_eid_s07_2-0-10_elephant_10_n02504458_3757.JPEG
subject-07,1,47,1.09387302398682,cat,oven,16-3-10,0047_eid_s07_16-3-10_oven_10_n04111531_8910.JPEG
subject-07,1,48,1.14038801193237,elephant,bicycle,16-3-10,0048_eid_s07_16-3-10_bicycle_10_n03792782_8172.JPEG
subject-07,1,49,1.20274996757507,boat,bicycle,64-10-10,0049_eid_s07_64-10-10_bicycle_10_n02835271_15524.JPEG
subject-07,1,50,1.09484481811523,cat,chair,16-3-10,0050_eid_s07_16-3-10_chair_10_n02791124_13057.JPEG
subject-07,1,51,0.927665948867798,airplane,knife,128-10-10,0051_eid_s07_128-10-10_knife_10_n03041632_36814.JPEG
subject-07,1,52,1.10292291641235,cat,boat,128-3-10,0052_eid_s07_128-3-10_boat_10_n04612504_28133.JPEG
subject-07,1,53,0.863090991973877,clock,clock,2-0-10,0053_eid_s07_2-0-10_clock_10_n03196217_4491.JPEG
subject-07,1,54,0.957857131958008,bicycle,bicycle,2-3-10,0054_eid_s07_2-3-10_bicycle_10_n02835271_24131.JPEG
subject-07,1,55,0.826072931289673,keyboard,keyboard,4-3-10,0055_eid_s07_4-3-10_keyboard_10_n04505470_4374.JPEG
subject-07,1,56,1.02646899223328,boat,boat,128-3-10,0056_eid_s07_128-3-10_boat_10_n03662601_2956.JPEG
subject-07,1,57,1.23511385917664,airplane,bird,16-3-10,0057_eid_s07_16-3-10_bird_10_n01514859_741.JPEG
subject-07,1,58,NaN,na,truck,128-3-10,0058_eid_s07_128-3-10_truck_10_n04467665_51690.JPEG
subject-07,1,59,0.673303127288818,clock,clock,1-0-10,0059_eid_s07_1-0-10_clock_10_n04548280_2356.JPEG
subject-07,1,60,1.12017917633057,bear,truck,64-3-10,0060_eid_s07_64-3-10_truck_10_n03417042_1561.JPEG
subject-07,1,61,1.50009512901306,boat,chair,64-0-10,0061_eid_s07_64-0-10_chair_10_n04099969_5639.JPEG
subject-07,1,62,1.09059190750122,bear,elephant,128-3-10,0062_eid_s07_128-3-10_elephant_10_n02504013_242.JPEG
subject-07,1,63,0.737254858016968,chair,chair,2-3-10,0063_eid_s07_2-3-10_chair_10_n04429376_294.JPEG
subject-07,1,64,0.829900979995728,boat,boat,1-3-10,0064_eid_s07_1-3-10_boat_10_n04612504_2316.JPEG
subject-07,1,65,0.778526067733765,bicycle,bicycle,2-10-10,0065_eid_s07_2-10-10_bicycle_10_n02835271_9364.JPEG
subject-07,1,66,1.03289103507996,cat,bear,64-3-10,0066_eid_s07_64-3-10_bear_10_n02132136_9557.JPEG
subject-07,1,67,1.32556295394897,bottle,bottle,32-10-10,0067_eid_s07_32-10-10_bottle_10_n03937543_2773.JPEG
subject-07,1,68,0.90174388885498,keyboard,oven,2-3-10,0068_eid_s07_2-3-10_oven_10_n04111531_9838.JPEG
subject-07,1,69,0.95644998550415,boat,bear,4-0-10,0069_eid_s07_4-0-10_bear_10_n02134084_2625.JPEG
subject-07,1,70,0.696830987930298,chair,chair,4-10-10,0070_eid_s07_4-10-10_chair_10_n02791124_14.JPEG
subject-07,1,71,0.889318943023682,car,car,4-10-10,0071_eid_s07_4-10-10_car_10_n02814533_95182.JPEG
subject-07,1,72,0.978091955184937,cat,car,128-0-10,0072_eid_s07_128-0-10_car_10_n04285008_7082.JPEG
subject-07,1,73,0.940727233886719,bicycle,bicycle,2-3-10,0073_eid_s07_2-3-10_bicycle_10_n02835271_13328.JPEG
subject-07,1,74,1.12728500366211,oven,bottle,128-10-10,0074_eid_s07_128-10-10_bottle_10_n04560804_11800.JPEG
subject-07,1,75,0.903789043426514,dog,dog,2-3-10,0075_eid_s07_2-3-10_dog_10_n02111500_7360.JPEG
subject-07,1,76,0.942179918289185,bicycle,bicycle,8-10-10,0076_eid_s07_8-10-10_bicycle_10_n02835271_8621.JPEG
subject-07,1,77,0.782766819000244,cat,car,128-3-10,0077_eid_s07_128-3-10_car_10_n03100240_8131.JPEG
subject-07,1,78,1.28923106193542,keyboard,keyboard,8-0-10,0078_eid_s07_8-0-10_keyboard_10_n03085013_23672.JPEG
subject-07,1,79,1.37574100494385,bear,bear,8-0-10,0079_eid_s07_8-0-10_bear_10_n02133161_4294.JPEG
subject-07,1,80,1.33805203437805,boat,car,128-10-10,0080_eid_s07_128-10-10_car_10_n04285008_10749.JPEG
subject-07,1,81,1.04364705085754,bear,bear,8-3-10,0081_eid_s07_8-3-10_bear_10_n02134418_5730.JPEG
subject-07,1,82,1.13806295394897,airplane,airplane,64-3-10,0082_eid_s07_64-3-10_airplane_10_n02690373_4727.JPEG
subject-07,1,83,1.28437805175781,cat,knife,64-3-10,0083_eid_s07_64-3-10_knife_10_n03041632_43289.JPEG
subject-07,1,84,1.45317101478577,elephant,bicycle,32-0-10,0084_eid_s07_32-0-10_bicycle_10_n03792782_24756.JPEG
subject-07,1,85,1.25588202476501,bear,knife,64-3-10,0085_eid_s07_64-3-10_knife_10_n03041632_32774.JPEG
subject-07,1,86,0.748247861862183,elephant,elephant,8-10-10,0086_eid_s07_8-10-10_elephant_10_n02504458_6510.JPEG
subject-07,1,87,1.3082070350647,dog,dog,64-0-10,0087_eid_s07_64-0-10_dog_10_n02090379_3587.JPEG
subject-07,1,88,1.04075717926025,car,car,16-10-10,0088_eid_s07_16-10-10_car_10_n02814533_23336.JPEG
subject-07,1,89,0.949540138244629,bear,dog,64-10-10,0089_eid_s07_64-10-10_dog_10_n02111129_314.JPEG
subject-07,1,90,1.00408887863159,truck,truck,8-3-10,0090_eid_s07_8-3-10_truck_10_n03796401_3486.JPEG
subject-07,1,91,1.18860411643982,dog,dog,2-3-10,0091_eid_s07_2-3-10_dog_10_n02085936_4569.JPEG
subject-07,1,92,1.05891513824463,bicycle,bicycle,8-3-10,0092_eid_s07_8-3-10_bicycle_10_n02835271_9288.JPEG
subject-07,1,93,1.02925109863281,clock,clock,2-10-10,0093_eid_s07_2-10-10_clock_10_n04548280_5857.JPEG
subject-07,1,94,0.829766988754272,clock,clock,4-0-10,0094_eid_s07_4-0-10_clock_10_n04548280_5470.JPEG
subject-07,1,95,NaN,na,car,64-10-10,0095_eid_s07_64-10-10_car_10_n03100240_5479.JPEG
subject-07,1,96,1.11497282981873,cat,bear,8-3-10,0096_eid_s07_8-3-10_bear_10_n02134418_19487.JPEG
subject-07,1,97,0.854921102523804,elephant,elephant,4-0-10,0097_eid_s07_4-0-10_elephant_10_n02504458_365.JPEG
subject-07,1,98,0.977739095687866,chair,chair,2-10-10,0098_eid_s07_2-10-10_chair_10_n02791124_1229.JPEG
subject-07,1,99,0.986083030700684,bear,chair,64-3-10,0099_eid_s07_64-3-10_chair_10_n02791124_4002.JPEG
subject-07,1,100,0.848074197769165,bottle,bottle,4-0-10,0100_eid_s07_4-0-10_bottle_10_n03983396_3024.JPEG
subject-07,1,101,1.14873218536377,oven,cat,128-3-10,0101_eid_s07_128-3-10_cat_10_n02123159_7608.JPEG
subject-07,1,102,1.47306299209595,boat,bicycle,64-0-10,0102_eid_s07_64-0-10_bicycle_10_n02835271_9807.JPEG
subject-07,1,103,1.2337498664856,oven,knife,2-3-10,0103_eid_s07_2-3-10_knife_10_n03041632_19866.JPEG
subject-07,1,104,1.39022302627563,bear,bottle,64-3-10,0104_eid_s07_64-3-10_bottle_10_n03983396_4713.JPEG
subject-07,1,105,1.27156591415405,boat,cat,16-3-10,0105_eid_s07_16-3-10_cat_10_n02123394_8359.JPEG
subject-07,1,106,0.796096086502075,bicycle,knife,2-10-10,0106_eid_s07_2-10-10_knife_10_n03041632_28201.JPEG
subject-07,1,107,0.796502828598022,dog,bear,8-10-10,0107_eid_s07_8-10-10_bear_10_n02134418_581.JPEG
subject-07,1,108,0.759139060974121,airplane,airplane,2-0-10,0108_eid_s07_2-0-10_airplane_10_n02690373_4233.JPEG
subject-07,1,109,1.1758279800415,oven,knife,2-10-10,0109_eid_s07_2-10-10_knife_10_n03041632_102828.JPEG
subject-07,1,110,NaN,na,boat,32-3-10,0110_eid_s07_32-3-10_boat_10_n03662601_17858.JPEG
subject-07,1,111,1.16861891746521,cat,truck,128-10-10,0111_eid_s07_128-10-10_truck_10_n03417042_212.JPEG
subject-07,1,112,0.823060989379883,boat,boat,1-10-10,0112_eid_s07_1-10-10_boat_10_n02951358_45410.JPEG
subject-07,1,113,1.36364603042603,airplane,bird,64-3-10,0113_eid_s07_64-3-10_bird_10_n02056570_727.JPEG
subject-07,1,114,1.37041521072388,bottle,bottle,8-0-10,0114_eid_s07_8-0-10_bottle_10_n04560804_15585.JPEG
subject-07,1,115,1.25669384002686,boat,cat,16-10-10,0115_eid_s07_16-10-10_cat_10_n02123045_3486.JPEG
subject-07,1,116,0.986732959747314,airplane,truck,32-10-10,0116_eid_s07_32-10-10_truck_10_n04467665_69447.JPEG
subject-07,1,117,0.695541143417358,cat,car,128-0-10,0117_eid_s07_128-0-10_car_10_n03100240_1446.JPEG
subject-07,1,118,1.07404017448425,bear,keyboard,16-0-10,0118_eid_s07_16-0-10_keyboard_10_n03085013_12164.JPEG
subject-07,1,119,0.766335964202881,cat,chair,32-10-10,0119_eid_s07_32-10-10_chair_10_n02791124_16868.JPEG
subject-07,1,120,0.666512012481689,bird,bird,1-10-10,0120_eid_s07_1-10-10_bird_10_n01534433_4427.JPEG
subject-07,1,121,1.41326308250427,car,car,4-0-10,0121_eid_s07_4-0-10_car_10_n04285008_8699.JPEG
subject-07,1,122,0.753627061843872,bicycle,bicycle,4-10-10,0122_eid_s07_4-10-10_bicycle_10_n02835271_690.JPEG
subject-07,1,123,1.022381067276,keyboard,keyboard,4-0-10,0123_eid_s07_4-0-10_keyboard_10_n04505470_2041.JPEG
subject-07,1,124,1.16851186752319,airplane,airplane,4-0-10,0124_eid_s07_4-0-10_airplane_10_n02690373_2700.JPEG
subject-07,1,125,1.23126316070557,bear,elephant,64-3-10,0125_eid_s07_64-3-10_elephant_10_n02504458_4579.JPEG
subject-07,1,126,0.947856903076172,oven,bottle,4-10-10,0126_eid_s07_4-10-10_bottle_10_n03983396_20762.JPEG
subject-07,1,127,1.10758709907532,chair,chair,8-3-10,0127_eid_s07_8-3-10_chair_10_n04099969_13096.JPEG
subject-07,1,128,1.18591380119324,bird,oven,8-0-10,0128_eid_s07_8-0-10_oven_10_n04111531_6628.JPEG
subject-07,1,129,1.50017213821411,bear,bird,8-3-10,0129_eid_s07_8-3-10_bird_10_n02018795_1485.JPEG
subject-07,1,130,1.34096193313599,bear,dog,32-3-10,0130_eid_s07_32-3-10_dog_10_n02090721_540.JPEG
subject-07,1,131,1.06378197669983,boat,dog,8-0-10,0131_eid_s07_8-0-10_dog_10_n02102480_6177.JPEG
subject-07,1,132,1.3256618976593,knife,knife,2-10-10,0132_eid_s07_2-10-10_knife_10_n03041632_4260.JPEG
subject-07,1,133,NaN,na,knife,1-0-10,0133_eid_s07_1-0-10_knife_10_n03041632_13846.JPEG
subject-07,1,134,1.17233109474182,truck,airplane,4-0-10,0134_eid_s07_4-0-10_airplane_10_n02690373_1732.JPEG
subject-07,1,135,1.0512170791626,airplane,airplane,2-10-10,0135_eid_s07_2-10-10_airplane_10_n02690373_8754.JPEG
subject-07,1,136,1.1737368106842,cat,cat,128-3-10,0136_eid_s07_128-3-10_cat_10_n02123597_6398.JPEG
subject-07,1,137,1.4575400352478,dog,bottle,8-0-10,0137_eid_s07_8-0-10_bottle_10_n02823428_6860.JPEG
subject-07,1,138,1.00364804267883,boat,boat,16-10-10,0138_eid_s07_16-10-10_boat_10_n04273569_17684.JPEG
subject-07,1,139,1.22047901153564,bear,boat,32-3-10,0139_eid_s07_32-3-10_boat_10_n02951358_12333.JPEG
subject-07,1,140,0.99917197227478,airplane,bicycle,32-3-10,0140_eid_s07_32-3-10_bicycle_10_n02835271_24847.JPEG
subject-07,1,141,1.41340899467468,elephant,airplane,64-0-10,0141_eid_s07_64-0-10_airplane_10_n02690373_4588.JPEG
subject-07,1,142,1.23816394805908,airplane,airplane,2-10-10,0142_eid_s07_2-10-10_airplane_10_n02690373_4183.JPEG
subject-07,1,143,1.28390002250671,oven,oven,8-3-10,0143_eid_s07_8-3-10_oven_10_n04111531_4444.JPEG
subject-07,1,144,0.992421865463257,elephant,elephant,16-3-10,0144_eid_s07_16-3-10_elephant_10_n02504458_137.JPEG
subject-07,1,145,1.27692413330078,elephant,elephant,4-10-10,0145_eid_s07_4-10-10_elephant_10_n02504458_6902.JPEG
subject-07,1,146,NaN,na,keyboard,8-3-10,0146_eid_s07_8-3-10_keyboard_10_n04505470_4487.JPEG
subject-07,1,147,1.10152983665466,airplane,keyboard,32-0-10,0147_eid_s07_32-0-10_keyboard_10_n03085013_20330.JPEG
subject-07,1,148,1.2399480342865,airplane,boat,128-10-10,0148_eid_s07_128-10-10_boat_10_n04273569_4772.JPEG
subject-07,1,149,0.810251951217651,airplane,airplane,8-10-10,0149_eid_s07_8-10-10_airplane_10_n02690373_16250.JPEG
subject-07,1,150,1.14851784706116,bear,airplane,128-0-10,0150_eid_s07_128-0-10_airplane_10_n02690373_1952.JPEG
subject-07,1,151,0.916991949081421,car,oven,4-0-10,0151_eid_s07_4-0-10_oven_10_n04111531_804.JPEG
subject-07,1,152,1.07884502410889,airplane,airplane,32-3-10,0152_eid_s07_32-3-10_airplane_10_n02690373_9618.JPEG
subject-07,1,153,1.00947594642639,airplane,airplane,8-0-10,0153_eid_s07_8-0-10_airplane_10_n02690373_2676.JPEG
subject-07,1,154,NaN,na,bear,128-10-10,0154_eid_s07_128-10-10_bear_10_n02134418_495.JPEG
subject-07,1,155,1.00279498100281,bear,truck,16-0-10,0155_eid_s07_16-0-10_truck_10_n03417042_2230.JPEG
subject-07,1,156,1.34911298751831,truck,truck,1-3-10,0156_eid_s07_1-3-10_truck_10_n03417042_9057.JPEG
subject-07,1,157,1.34135699272156,airplane,knife,16-10-10,0157_eid_s07_16-10-10_knife_10_n03041632_10109.JPEG
subject-07,1,158,1.07391905784607,airplane,airplane,1-10-10,0158_eid_s07_1-10-10_airplane_10_n02690373_12929.JPEG
subject-07,1,159,1.08253121376038,oven,cat,1-3-10,0159_eid_s07_1-3-10_cat_10_n02123045_15581.JPEG
subject-07,1,160,1.42064595222473,airplane,knife,128-10-10,0160_eid_s07_128-10-10_knife_10_n03041632_83472.JPEG
subject-07,1,161,1.22928595542908,bear,bear,32-3-10,0161_eid_s07_32-3-10_bear_10_n02134418_965.JPEG
subject-07,1,162,1.14562487602234,elephant,bicycle,16-3-10,0162_eid_s07_16-3-10_bicycle_10_n03792782_5034.JPEG
subject-07,1,163,0.914288997650146,cat,truck,32-3-10,0163_eid_s07_32-3-10_truck_10_n04467665_67560.JPEG
subject-07,1,164,0.73096489906311,boat,boat,4-0-10,0164_eid_s07_4-0-10_boat_10_n02951358_30612.JPEG
subject-07,1,165,0.923630952835083,bear,oven,16-3-10,0165_eid_s07_16-3-10_oven_10_n04111531_3202.JPEG
subject-07,1,166,0.778219938278198,boat,boat,8-10-10,0166_eid_s07_8-10-10_boat_10_n03344393_3354.JPEG
subject-07,1,167,0.678590059280396,cat,cat,2-0-10,0167_eid_s07_2-0-10_cat_10_n02125311_51105.JPEG
subject-07,1,168,0.97817587852478,chair,chair,2-3-10,0168_eid_s07_2-3-10_chair_10_n04429376_10358.JPEG
subject-07,1,169,0.894789934158325,cat,dog,128-3-10,0169_eid_s07_128-3-10_dog_10_n02112018_2032.JPEG
subject-07,1,170,1.29225993156433,cat,car,128-0-10,0170_eid_s07_128-0-10_car_10_n02814533_69279.JPEG
subject-07,1,171,1.01351189613342,cat,dog,32-10-10,0171_eid_s07_32-10-10_dog_10_n02110958_15087.JPEG
subject-07,1,172,1.11377286911011,cat,boat,32-0-10,0172_eid_s07_32-0-10_boat_10_n02951358_11469.JPEG
subject-07,1,173,0.960433006286621,boat,cat,64-10-10,0173_eid_s07_64-10-10_cat_10_n02123159_6997.JPEG
subject-07,1,174,1.11478400230408,boat,keyboard,16-3-10,0174_eid_s07_16-3-10_keyboard_10_n03085013_20897.JPEG
subject-07,1,175,0.931275844573975,truck,truck,2-0-10,0175_eid_s07_2-0-10_truck_10_n03417042_8192.JPEG
subject-07,1,176,0.994255065917969,bird,bird,2-0-10,0176_eid_s07_2-0-10_bird_10_n01829413_7738.JPEG
subject-07,1,177,0.91661810874939,boat,car,128-10-10,0177_eid_s07_128-10-10_car_10_n02814533_75569.JPEG
subject-07,1,178,1.08709192276001,boat,bottle,4-0-10,0178_eid_s07_4-0-10_bottle_10_n02823428_7034.JPEG
subject-07,1,179,0.749905109405518,clock,clock,1-3-10,0179_eid_s07_1-3-10_clock_10_n02708093_8047.JPEG
subject-07,1,180,1.32633900642395,knife,knife,2-10-10,0180_eid_s07_2-10-10_knife_10_n03041632_84012.JPEG
subject-07,1,181,0.825944900512695,boat,clock,128-10-10,0181_eid_s07_128-10-10_clock_10_n04548280_2390.JPEG
subject-07,1,182,0.925279140472412,keyboard,keyboard,2-3-10,0182_eid_s07_2-3-10_keyboard_10_n03085013_18741.JPEG
subject-07,1,183,1.0258572101593,bear,bottle,32-10-10,0183_eid_s07_32-10-10_bottle_10_n04557648_4513.JPEG
subject-07,1,184,0.96445107460022,bear,chair,16-10-10,0184_eid_s07_16-10-10_chair_10_n04099969_381.JPEG
subject-07,1,185,0.902627229690552,bird,bird,8-3-10,0185_eid_s07_8-3-10_bird_10_n02028035_8556.JPEG
subject-07,1,186,0.8732590675354,cat,bird,16-0-10,0186_eid_s07_16-0-10_bird_10_n01829413_863.JPEG
subject-07,1,187,1.03588485717773,cat,dog,32-0-10,0187_eid_s07_32-0-10_dog_10_n02107142_31558.JPEG
subject-07,1,188,0.960168123245239,airplane,chair,32-3-10,0188_eid_s07_32-3-10_chair_10_n04099969_43109.JPEG
subject-07,1,189,1.32875204086304,boat,car,64-3-10,0189_eid_s07_64-3-10_car_10_n04285008_7950.JPEG
subject-07,1,190,0.915210962295532,chair,chair,8-10-10,0190_eid_s07_8-10-10_chair_10_n04099969_3471.JPEG
subject-07,1,191,0.992034912109375,knife,knife,2-10-10,0191_eid_s07_2-10-10_knife_10_n03041632_27848.JPEG
subject-07,1,192,1.11661601066589,cat,knife,4-0-10,0192_eid_s07_4-0-10_knife_10_n03041632_19098.JPEG
subject-07,1,193,0.90154504776001,chair,chair,4-10-10,0193_eid_s07_4-10-10_chair_10_n04429376_5159.JPEG
subject-07,1,194,1.07197499275208,cat,knife,128-3-10,0194_eid_s07_128-3-10_knife_10_n03041632_289.JPEG
subject-07,1,195,1.14823389053345,bear,bird,32-3-10,0195_eid_s07_32-3-10_bird_10_n01622779_69.JPEG
subject-07,1,196,1.28679203987122,cat,bicycle,128-0-10,0196_eid_s07_128-0-10_bicycle_10_n03792782_13608.JPEG
subject-07,1,197,1.04327893257141,oven,bear,8-3-10,0197_eid_s07_8-3-10_bear_10_n02132136_29772.JPEG
subject-07,1,198,0.919250965118408,knife,knife,2-10-10,0198_eid_s07_2-10-10_knife_10_n03041632_11887.JPEG
subject-07,1,199,0.765564918518066,airplane,airplane,1-10-10,0199_eid_s07_1-10-10_airplane_10_n02690373_3821.JPEG
subject-07,1,200,1.01235198974609,bird,bird,8-3-10,0200_eid_s07_8-3-10_bird_10_n01855672_61750.JPEG
subject-07,1,201,1.05854606628418,boat,dog,128-10-10,0201_eid_s07_128-10-10_dog_10_n02107142_3788.JPEG
subject-07,1,202,0.7428879737854,knife,knife,1-10-10,0202_eid_s07_1-10-10_knife_10_n03041632_7448.JPEG
subject-07,1,203,1.03521800041199,car,bird,128-3-10,0203_eid_s07_128-3-10_bird_10_n01829413_4857.JPEG
subject-07,1,204,0.735456943511963,boat,boat,1-0-10,0204_eid_s07_1-0-10_boat_10_n03344393_3247.JPEG
subject-07,1,205,0.898279905319214,cat,bird,32-10-10,0205_eid_s07_32-10-10_bird_10_n01797886_19748.JPEG
subject-07,1,206,0.906609058380127,cat,cat,8-3-10,0206_eid_s07_8-3-10_cat_10_n02123045_2087.JPEG
subject-07,1,207,0.953078031539917,dog,dog,2-10-10,0207_eid_s07_2-10-10_dog_10_n02112350_508.JPEG
subject-07,1,208,0.813320875167847,bicycle,bicycle,8-10-10,0208_eid_s07_8-10-10_bicycle_10_n02835271_5477.JPEG
subject-07,1,209,1.06784200668335,cat,chair,32-3-10,0209_eid_s07_32-3-10_chair_10_n04429376_48087.JPEG
subject-07,1,210,1.01419019699097,bear,keyboard,128-3-10,0210_eid_s07_128-3-10_keyboard_10_n03085013_24129.JPEG
subject-07,1,211,0.938936948776245,boat,knife,32-0-10,0211_eid_s07_32-0-10_knife_10_n03041632_11816.JPEG
subject-07,1,212,1.06929016113281,airplane,airplane,64-3-10,0212_eid_s07_64-3-10_airplane_10_n02690373_4375.JPEG
subject-07,1,213,1.09380412101746,chair,bottle,8-10-10,0213_eid_s07_8-10-10_bottle_10_n04557648_8038.JPEG
subject-07,1,214,1.22370910644531,bear,bicycle,8-0-10,0214_eid_s07_8-0-10_bicycle_10_n02835271_26158.JPEG
subject-07,1,215,1.25445199012756,oven,oven,8-3-10,0215_eid_s07_8-3-10_oven_10_n04111531_2937.JPEG
subject-07,1,216,1.24107313156128,boat,boat,8-3-10,0216_eid_s07_8-3-10_boat_10_n02951358_18848.JPEG
subject-07,1,217,0.817562818527222,bicycle,bicycle,1-10-10,0217_eid_s07_1-10-10_bicycle_10_n02835271_23939.JPEG
subject-07,1,218,0.942207813262939,cat,dog,64-3-10,0218_eid_s07_64-3-10_dog_10_n02111129_4284.JPEG
subject-07,1,219,0.796986103057861,truck,truck,2-10-10,0219_eid_s07_2-10-10_truck_10_n03417042_6420.JPEG
subject-07,1,220,NaN,na,bottle,2-0-10,0220_eid_s07_2-0-10_bottle_10_n04591713_7221.JPEG
subject-07,1,221,1.36619091033936,knife,boat,4-0-10,0221_eid_s07_4-0-10_boat_10_n04612504_454.JPEG
subject-07,1,222,0.760653972625732,boat,truck,128-10-10,0222_eid_s07_128-10-10_truck_10_n03417042_3307.JPEG
subject-07,1,223,0.877285957336426,airplane,boat,64-3-10,0223_eid_s07_64-3-10_boat_10_n03344393_3199.JPEG
subject-07,1,224,0.915735960006714,airplane,airplane,4-3-10,0224_eid_s07_4-3-10_airplane_10_n02690373_4199.JPEG
subject-07,1,225,1.28369998931885,car,knife,16-3-10,0225_eid_s07_16-3-10_knife_10_n03041632_4590.JPEG
subject-07,1,226,0.922077894210815,boat,truck,64-0-10,0226_eid_s07_64-0-10_truck_10_n04467665_36640.JPEG
subject-07,1,227,0.908659934997559,bird,knife,8-0-10,0227_eid_s07_8-0-10_knife_10_n03041632_27898.JPEG
subject-07,1,228,1.13900303840637,cat,knife,64-10-10,0228_eid_s07_64-10-10_knife_10_n03041632_29580.JPEG
subject-07,1,229,1.02341294288635,elephant,elephant,4-10-10,0229_eid_s07_4-10-10_elephant_10_n02504013_10765.JPEG
subject-07,1,230,1.40771889686584,clock,clock,4-3-10,0230_eid_s07_4-3-10_clock_10_n04548280_4768.JPEG
subject-07,1,231,0.720583915710449,airplane,airplane,1-0-10,0231_eid_s07_1-0-10_airplane_10_n02690373_12756.JPEG
subject-07,1,232,1.07115697860718,bear,dog,64-10-10,0232_eid_s07_64-10-10_dog_10_n02099429_3953.JPEG
subject-07,1,233,0.8177649974823,boat,boat,2-10-10,0233_eid_s07_2-10-10_boat_10_n04273569_15259.JPEG
subject-07,1,234,0.818040132522583,dog,dog,2-10-10,0234_eid_s07_2-10-10_dog_10_n02091831_192.JPEG
subject-07,1,235,0.88858699798584,airplane,bird,128-10-10,0235_eid_s07_128-10-10_bird_10_n02009229_1943.JPEG
subject-07,1,236,0.765444040298462,boat,elephant,32-3-10,0236_eid_s07_32-3-10_elephant_10_n02504458_12938.JPEG
subject-07,1,237,0.865111827850342,knife,knife,8-3-10,0237_eid_s07_8-3-10_knife_10_n03041632_29858.JPEG
subject-07,1,238,0.865694999694824,cat,cat,16-10-10,0238_eid_s07_16-10-10_cat_10_n02123394_1931.JPEG
subject-07,1,239,1.1260929107666,dog,oven,8-10-10,0239_eid_s07_8-10-10_oven_10_n04111531_283.JPEG
subject-07,1,240,0.78855299949646,cat,keyboard,64-0-10,0240_eid_s07_64-0-10_keyboard_10_n04505470_4262.JPEG
subject-07,1,241,1.0811710357666,dog,cat,1-0-10,0241_eid_s07_1-0-10_cat_10_n02125311_320.JPEG
subject-07,1,242,1.40576410293579,oven,elephant,64-0-10,0242_eid_s07_64-0-10_elephant_10_n02504458_3292.JPEG
subject-07,1,243,1.15797805786133,keyboard,chair,1-10-10,0243_eid_s07_1-10-10_chair_10_n02791124_4559.JPEG
subject-07,1,244,1.190673828125,keyboard,keyboard,2-0-10,0244_eid_s07_2-0-10_keyboard_10_n04505470_9469.JPEG
subject-07,1,245,1.16938900947571,bear,dog,32-3-10,0245_eid_s07_32-3-10_dog_10_n02108551_2946.JPEG
subject-07,1,246,0.799926042556763,airplane,airplane,8-0-10,0246_eid_s07_8-0-10_airplane_10_n02690373_12896.JPEG
subject-07,1,247,1.06827402114868,bear,bicycle,64-10-10,0247_eid_s07_64-10-10_bicycle_10_n03792782_37777.JPEG
subject-07,1,248,0.865898847579956,cat,clock,128-0-10,0248_eid_s07_128-0-10_clock_10_n03196217_8251.JPEG
subject-07,1,249,0.948622941970825,oven,clock,128-10-10,0249_eid_s07_128-10-10_clock_10_n04548280_8322.JPEG
subject-07,1,250,1.13318204879761,bear,bear,4-3-10,0250_eid_s07_4-3-10_bear_10_n02134084_160.JPEG
subject-07,1,251,0.927460908889771,cat,keyboard,128-10-10,0251_eid_s07_128-10-10_keyboard_10_n04505470_6080.JPEG
subject-07,1,252,0.796148061752319,chair,chair,8-10-10,0252_eid_s07_8-10-10_chair_10_n04099969_64.JPEG
subject-07,1,253,0.988476037979126,chair,chair,1-3-10,0253_eid_s07_1-3-10_chair_10_n04429376_4379.JPEG
subject-07,1,254,0.965160131454468,knife,knife,8-3-10,0254_eid_s07_8-3-10_knife_10_n03041632_43975.JPEG
subject-07,1,255,1.01152610778809,airplane,airplane,16-0-10,0255_eid_s07_16-0-10_airplane_10_n02690373_10044.JPEG
subject-07,1,256,0.941860914230347,cat,car,128-3-10,0256_eid_s07_128-3-10_car_10_n02814533_44792.JPEG
subject-07,1,257,1.31521105766296,elephant,elephant,16-10-10,0257_eid_s07_16-10-10_elephant_10_n02504013_6757.JPEG
subject-07,1,258,1.32348799705505,oven,bottle,1-0-10,0258_eid_s07_1-0-10_bottle_10_n03937543_6080.JPEG
subject-07,1,259,1.2609760761261,bear,airplane,32-3-10,0259_eid_s07_32-3-10_airplane_10_n02690373_21731.JPEG
subject-07,1,260,1.10762286186218,bear,oven,32-0-10,0260_eid_s07_32-0-10_oven_10_n04111531_11505.JPEG
subject-07,1,261,NaN,na,bottle,4-3-10,0261_eid_s07_4-3-10_bottle_10_n03937543_5076.JPEG
subject-07,1,262,1.25462913513184,boat,cat,16-10-10,0262_eid_s07_16-10-10_cat_10_n02123045_18895.JPEG
subject-07,1,263,1.16136789321899,bear,clock,32-0-10,0263_eid_s07_32-0-10_clock_10_n04548280_3093.JPEG
subject-07,1,264,0.661655902862549,keyboard,keyboard,8-10-10,0264_eid_s07_8-10-10_keyboard_10_n04505470_2488.JPEG
subject-07,1,265,1.12438702583313,elephant,elephant,8-3-10,0265_eid_s07_8-3-10_elephant_10_n02504013_1784.JPEG
subject-07,1,266,0.963109016418457,bear,oven,32-10-10,0266_eid_s07_32-10-10_oven_10_n04111531_23215.JPEG
subject-07,1,267,0.700598001480103,cat,cat,1-10-10,0267_eid_s07_1-10-10_cat_10_n02123597_32220.JPEG
subject-07,1,268,0.717033863067627,bear,bear,4-10-10,0268_eid_s07_4-10-10_bear_10_n02132136_24311.JPEG
subject-07,1,269,1.02349281311035,oven,bicycle,128-3-10,0269_eid_s07_128-3-10_bicycle_10_n03792782_7171.JPEG
subject-07,1,270,0.763814210891724,boat,boat,1-10-10,0270_eid_s07_1-10-10_boat_10_n04612504_6259.JPEG
subject-07,1,271,0.816147089004517,airplane,airplane,8-0-10,0271_eid_s07_8-0-10_airplane_10_n02690373_1451.JPEG
subject-07,1,272,0.740921974182129,cat,cat,8-0-10,0272_eid_s07_8-0-10_cat_10_n02123597_13825.JPEG
subject-07,1,273,1.32567691802979,bear,knife,32-10-10,0273_eid_s07_32-10-10_knife_10_n03041632_18959.JPEG
subject-07,1,274,0.964079856872559,oven,chair,128-3-10,0274_eid_s07_128-3-10_chair_10_n03376595_715.JPEG
subject-07,1,275,1.07274603843689,bird,bird,4-0-10,0275_eid_s07_4-0-10_bird_10_n02051845_11222.JPEG
subject-07,1,276,0.743021011352539,cat,dog,16-10-10,0276_eid_s07_16-10-10_dog_10_n02105251_6907.JPEG
subject-07,1,277,1.32683396339417,knife,knife,4-10-10,0277_eid_s07_4-10-10_knife_10_n03041632_1006.JPEG
subject-07,1,278,NaN,na,chair,32-10-10,0278_eid_s07_32-10-10_chair_10_n02791124_5506.JPEG
subject-07,1,279,0.787749052047729,airplane,airplane,16-10-10,0279_eid_s07_16-10-10_airplane_10_n02690373_3326.JPEG
subject-07,1,280,1.11211800575256,knife,knife,1-3-10,0280_eid_s07_1-3-10_knife_10_n03041632_3159.JPEG
subject-07,1,281,0.996300935745239,car,car,8-10-10,0281_eid_s07_8-10-10_car_10_n04285008_3729.JPEG
subject-07,1,282,1.05940389633179,truck,truck,8-3-10,0282_eid_s07_8-3-10_truck_10_n03417042_6928.JPEG
subject-07,1,283,1.05179500579834,cat,car,32-0-10,0283_eid_s07_32-0-10_car_10_n04285008_13276.JPEG
subject-07,1,284,0.820478200912476,airplane,airplane,8-10-10,0284_eid_s07_8-10-10_airplane_10_n02690373_2162.JPEG
subject-07,1,285,1.02063918113708,bear,bear,4-0-10,0285_eid_s07_4-0-10_bear_10_n02132136_30356.JPEG
subject-07,1,286,0.661309003829956,elephant,elephant,64-10-10,0286_eid_s07_64-10-10_elephant_10_n02504013_15825.JPEG
subject-07,1,287,0.745650053024292,cat,cat,2-3-10,0287_eid_s07_2-3-10_cat_10_n02123045_8231.JPEG
subject-07,1,288,0.892311811447144,cat,dog,32-0-10,0288_eid_s07_32-0-10_dog_10_n02105505_5734.JPEG
subject-07,1,289,0.763137102127075,bicycle,bicycle,4-3-10,0289_eid_s07_4-3-10_bicycle_10_n02835271_5371.JPEG
subject-07,1,290,1.1557731628418,dog,bottle,16-3-10,0290_eid_s07_16-3-10_bottle_10_n04591713_11621.JPEG
subject-07,1,291,0.878360986709595,truck,truck,4-10-10,0291_eid_s07_4-10-10_truck_10_n03796401_23734.JPEG
subject-07,1,292,0.822886943817139,bear,truck,64-3-10,0292_eid_s07_64-3-10_truck_10_n03417042_816.JPEG
subject-07,1,293,0.929455041885376,airplane,boat,8-0-10,0293_eid_s07_8-0-10_boat_10_n03662601_34444.JPEG
subject-07,1,294,0.869700193405151,keyboard,keyboard,1-0-10,0294_eid_s07_1-0-10_keyboard_10_n03085013_19197.JPEG
subject-07,1,295,0.968394041061401,keyboard,keyboard,16-10-10,0295_eid_s07_16-10-10_keyboard_10_n03085013_21615.JPEG
subject-07,1,296,0.793134927749634,car,car,1-3-10,0296_eid_s07_1-3-10_car_10_n02814533_34143.JPEG
subject-07,1,297,0.793467044830322,cat,cat,128-10-10,0297_eid_s07_128-10-10_cat_10_n02125311_14905.JPEG
subject-07,1,298,1.40794897079468,oven,oven,2-10-10,0298_eid_s07_2-10-10_oven_10_n04111531_6590.JPEG
subject-07,1,299,0.840358018875122,keyboard,keyboard,2-0-10,0299_eid_s07_2-0-10_keyboard_10_n03085013_21241.JPEG
subject-07,1,300,0.908913850784302,keyboard,keyboard,32-10-10,0300_eid_s07_32-10-10_keyboard_10_n03085013_24963.JPEG
subject-07,1,301,1.39328718185425,chair,dog,32-10-10,0301_eid_s07_32-10-10_dog_10_n02094114_7024.JPEG
subject-07,1,302,1.07207918167114,bear,cat,64-3-10,0302_eid_s07_64-3-10_cat_10_n02123045_4244.JPEG
subject-07,1,303,1.02350211143494,keyboard,knife,8-0-10,0303_eid_s07_8-0-10_knife_10_n03041632_4708.JPEG
subject-07,1,304,1.02418804168701,dog,dog,4-0-10,0304_eid_s07_4-0-10_dog_10_n02105641_7460.JPEG
subject-07,1,305,1.32484412193298,cat,keyboard,128-0-10,0305_eid_s07_128-0-10_keyboard_10_n03085013_32137.JPEG
subject-07,1,306,0.963294982910156,oven,dog,8-10-10,0306_eid_s07_8-10-10_dog_10_n02105855_10603.JPEG
subject-07,1,307,1.50004911422729,car,bear,128-0-10,0307_eid_s07_128-0-10_bear_10_n02133161_6335.JPEG
subject-07,1,308,1.14810991287231,oven,dog,128-0-10,0308_eid_s07_128-0-10_dog_10_n02104365_5943.JPEG
subject-07,1,309,0.748758792877197,airplane,elephant,16-10-10,0309_eid_s07_16-10-10_elephant_10_n02504458_3209.JPEG
subject-07,1,310,0.940639972686768,car,car,2-0-10,0310_eid_s07_2-0-10_car_10_n04285008_6027.JPEG
subject-07,1,311,0.80892014503479,bear,bear,4-3-10,0311_eid_s07_4-3-10_bear_10_n02134084_7559.JPEG
subject-07,1,312,0.88753080368042,bottle,bottle,1-10-10,0312_eid_s07_1-10-10_bottle_10_n03983396_5188.JPEG
subject-07,1,313,0.909981966018677,bear,cat,32-0-10,0313_eid_s07_32-0-10_cat_10_n02123394_7222.JPEG
subject-07,1,314,0.726333141326904,airplane,airplane,2-0-10,0314_eid_s07_2-0-10_airplane_10_n02690373_10399.JPEG
subject-07,1,315,1.07094383239746,knife,knife,1-10-10,0315_eid_s07_1-10-10_knife_10_n03041632_15754.JPEG
subject-07,1,316,0.787271976470947,dog,dog,2-3-10,0316_eid_s07_2-3-10_dog_10_n02097047_694.JPEG
subject-07,1,317,1.32609581947327,car,car,8-3-10,0317_eid_s07_8-3-10_car_10_n02814533_89472.JPEG
subject-07,1,318,0.658331155776978,keyboard,keyboard,4-3-10,0318_eid_s07_4-3-10_keyboard_10_n04505470_4950.JPEG
subject-07,1,319,0.851075887680054,airplane,truck,128-10-10,0319_eid_s07_128-10-10_truck_10_n03417042_12936.JPEG
subject-07,1,320,0.881505012512207,cat,cat,2-3-10,0320_eid_s07_2-3-10_cat_10_n02123045_5084.JPEG
subject-07,1,321,0.804106950759888,airplane,airplane,1-10-10,0321_eid_s07_1-10-10_airplane_10_n02690373_13326.JPEG
subject-07,1,322,1.07453298568726,bottle,bottle,16-3-10,0322_eid_s07_16-3-10_bottle_10_n04579145_412.JPEG
subject-07,1,323,1.05081295967102,cat,oven,128-10-10,0323_eid_s07_128-10-10_oven_10_n04111531_5126.JPEG
subject-07,1,324,0.973275899887085,cat,cat,2-3-10,0324_eid_s07_2-3-10_cat_10_n02123394_647.JPEG
subject-07,1,325,0.827143907546997,cat,truck,16-0-10,0325_eid_s07_16-0-10_truck_10_n03417042_153.JPEG
subject-07,1,326,0.711442947387695,airplane,airplane,4-3-10,0326_eid_s07_4-3-10_airplane_10_n02690373_7133.JPEG
subject-07,1,327,0.85802698135376,car,car,2-3-10,0327_eid_s07_2-3-10_car_10_n02814533_42453.JPEG
subject-07,1,328,0.712444067001343,keyboard,keyboard,1-10-10,0328_eid_s07_1-10-10_keyboard_10_n03085013_30166.JPEG
subject-07,1,329,1.29466700553894,bear,bicycle,16-0-10,0329_eid_s07_16-0-10_bicycle_10_n03792782_4512.JPEG
subject-07,1,330,1.16499900817871,car,boat,1-0-10,0330_eid_s07_1-0-10_boat_10_n03344393_1822.JPEG
subject-07,1,331,1.157222032547,boat,truck,64-0-10,0331_eid_s07_64-0-10_truck_10_n03417042_6803.JPEG
subject-07,1,332,1.50028491020203,airplane,cat,64-0-10,0332_eid_s07_64-0-10_cat_10_n02125311_30562.JPEG
subject-07,1,333,0.996026039123535,dog,cat,1-10-10,0333_eid_s07_1-10-10_cat_10_n02124075_15086.JPEG
subject-07,1,334,NaN,na,chair,16-3-10,0334_eid_s07_16-3-10_chair_10_n02791124_356.JPEG
subject-07,1,335,0.956161022186279,airplane,airplane,128-0-10,0335_eid_s07_128-0-10_airplane_10_n02690373_7971.JPEG
subject-07,1,336,0.788837909698486,cat,cat,2-3-10,0336_eid_s07_2-3-10_cat_10_n02123394_2270.JPEG
subject-07,1,337,1.04123306274414,bear,chair,16-0-10,0337_eid_s07_16-0-10_chair_10_n04099969_16647.JPEG
subject-07,1,338,1.25776195526123,oven,oven,2-3-10,0338_eid_s07_2-3-10_oven_10_n04111531_6958.JPEG
subject-07,1,339,0.996405839920044,oven,bear,64-0-10,0339_eid_s07_64-0-10_bear_10_n02133161_7819.JPEG
subject-07,1,340,0.728775978088379,airplane,airplane,1-3-10,0340_eid_s07_1-3-10_airplane_10_n02690373_5778.JPEG
subject-07,1,341,1.24334812164307,clock,cat,32-0-10,0341_eid_s07_32-0-10_cat_10_n02124075_7277.JPEG
subject-07,1,342,1.5002019405365,boat,bottle,32-0-10,0342_eid_s07_32-0-10_bottle_10_n04579145_3729.JPEG
subject-07,1,343,0.844734907150269,bottle,bottle,8-3-10,0343_eid_s07_8-3-10_bottle_10_n04557648_1339.JPEG
subject-07,1,344,1.15303492546082,elephant,elephant,16-3-10,0344_eid_s07_16-3-10_elephant_10_n02504013_2594.JPEG
subject-07,1,345,NaN,na,airplane,32-3-10,0345_eid_s07_32-3-10_airplane_10_n02690373_15472.JPEG
subject-07,1,346,0.76172399520874,bottle,bottle,2-0-10,0346_eid_s07_2-0-10_bottle_10_n02823428_11965.JPEG
subject-07,1,347,0.906299114227295,bicycle,bicycle,1-3-10,0347_eid_s07_1-3-10_bicycle_10_n03792782_16532.JPEG
subject-07,1,348,0.777125120162964,cat,cat,16-10-10,0348_eid_s07_16-10-10_cat_10_n02123045_7335.JPEG
subject-07,1,349,0.968074083328247,boat,car,128-0-10,0349_eid_s07_128-0-10_car_10_n02814533_19376.JPEG
subject-07,1,350,1.19095301628113,dog,dog,2-0-10,0350_eid_s07_2-0-10_dog_10_n02098105_2742.JPEG
subject-07,1,351,0.85303807258606,airplane,bicycle,32-3-10,0351_eid_s07_32-3-10_bicycle_10_n02835271_3931.JPEG
subject-07,1,352,1.17558789253235,cat,clock,8-0-10,0352_eid_s07_8-0-10_clock_10_n02708093_2717.JPEG
subject-07,1,353,1.0601179599762,truck,truck,1-10-10,0353_eid_s07_1-10-10_truck_10_n03417042_9096.JPEG
subject-07,1,354,0.892778158187866,airplane,bicycle,128-10-10,0354_eid_s07_128-10-10_bicycle_10_n03792782_22856.JPEG
subject-07,1,355,0.953382015228271,bird,bird,1-10-10,0355_eid_s07_1-10-10_bird_10_n01601694_4978.JPEG
subject-07,1,356,0.639884948730469,cat,clock,16-3-10,0356_eid_s07_16-3-10_clock_10_n03196217_1000.JPEG
subject-07,1,357,0.9322190284729,boat,oven,128-3-10,0357_eid_s07_128-3-10_oven_10_n04111531_10802.JPEG
subject-07,1,358,0.840938091278076,boat,keyboard,128-0-10,0358_eid_s07_128-0-10_keyboard_10_n04505470_2156.JPEG
subject-07,1,359,NaN,na,keyboard,8-0-10,0359_eid_s07_8-0-10_keyboard_10_n04505470_5058.JPEG
subject-07,1,360,0.833619832992554,airplane,airplane,1-0-10,0360_eid_s07_1-0-10_airplane_10_n02690373_8711.JPEG
subject-07,1,361,0.734359979629517,dog,dog,8-3-10,0361_eid_s07_8-3-10_dog_10_n02109525_1717.JPEG
subject-07,1,362,0.942601919174194,elephant,elephant,1-0-10,0362_eid_s07_1-0-10_elephant_10_n02504458_4587.JPEG
subject-07,1,363,0.711082935333252,truck,truck,2-10-10,0363_eid_s07_2-10-10_truck_10_n03417042_17911.JPEG
subject-07,1,364,0.703505039215088,clock,clock,1-0-10,0364_eid_s07_1-0-10_clock_10_n04548280_9752.JPEG
subject-07,1,365,0.912225008010864,airplane,chair,128-10-10,0365_eid_s07_128-10-10_chair_10_n04099969_16456.JPEG
subject-07,1,366,0.821193933486938,car,car,8-0-10,0366_eid_s07_8-0-10_car_10_n04285008_7751.JPEG
subject-07,1,367,0.697937965393066,boat,boat,4-10-10,0367_eid_s07_4-10-10_boat_10_n03344393_4942.JPEG
subject-07,1,368,0.922627925872803,car,car,1-3-10,0368_eid_s07_1-3-10_car_10_n02814533_3831.JPEG
subject-07,1,369,1.1688380241394,airplane,airplane,64-3-10,0369_eid_s07_64-3-10_airplane_10_n02690373_9071.JPEG
subject-07,1,370,0.831159114837646,clock,clock,8-3-10,0370_eid_s07_8-3-10_clock_10_n04548280_7436.JPEG
subject-07,1,371,0.777760982513428,bicycle,bicycle,1-3-10,0371_eid_s07_1-3-10_bicycle_10_n03792782_49209.JPEG
subject-07,1,372,NaN,na,bear,32-3-10,0372_eid_s07_32-3-10_bear_10_n02132136_2263.JPEG
subject-07,1,373,0.786839962005615,knife,knife,2-3-10,0373_eid_s07_2-3-10_knife_10_n03041632_34676.JPEG
subject-07,1,374,1.13943696022034,oven,clock,4-3-10,0374_eid_s07_4-3-10_clock_10_n03196217_5991.JPEG
subject-07,1,375,0.823836088180542,knife,knife,8-10-10,0375_eid_s07_8-10-10_knife_10_n03041632_11932.JPEG
subject-07,1,376,0.848521947860718,dog,dog,1-10-10,0376_eid_s07_1-10-10_dog_10_n02094114_3570.JPEG
subject-07,1,377,1.38701701164246,truck,clock,64-10-10,0377_eid_s07_64-10-10_clock_10_n02708093_888.JPEG
subject-07,1,378,0.971328973770142,dog,dog,2-10-10,0378_eid_s07_2-10-10_dog_10_n02110958_7233.JPEG
subject-07,1,379,1.05593109130859,airplane,boat,32-10-10,0379_eid_s07_32-10-10_boat_10_n02951358_7581.JPEG
subject-07,1,380,0.91871190071106,dog,dog,1-0-10,0380_eid_s07_1-0-10_dog_10_n02102177_7956.JPEG
subject-07,1,381,1.45730686187744,cat,cat,2-3-10,0381_eid_s07_2-3-10_cat_10_n02123394_6114.JPEG
subject-07,1,382,0.819862842559814,elephant,elephant,4-10-10,0382_eid_s07_4-10-10_elephant_10_n02504013_20027.JPEG
subject-07,1,383,0.882452964782715,cat,cat,1-0-10,0383_eid_s07_1-0-10_cat_10_n02123045_5175.JPEG
subject-07,1,384,1.23675298690796,keyboard,keyboard,16-10-10,0384_eid_s07_16-10-10_keyboard_10_n03085013_8007.JPEG
subject-07,1,385,0.81206202507019,cat,knife,128-3-10,0385_eid_s07_128-3-10_knife_10_n03041632_43436.JPEG
subject-07,1,386,0.71281886100769,airplane,airplane,64-10-10,0386_eid_s07_64-10-10_airplane_10_n02690373_2733.JPEG
subject-07,1,387,0.713083028793335,keyboard,bottle,2-10-10,0387_eid_s07_2-10-10_bottle_10_n04557648_2529.JPEG
subject-07,1,388,0.897800922393799,bird,bird,16-10-10,0388_eid_s07_16-10-10_bird_10_n01537544_4254.JPEG
subject-07,1,389,0.798472166061401,truck,truck,1-3-10,0389_eid_s07_1-3-10_truck_10_n03796401_3210.JPEG
subject-07,1,390,0.907077074050903,chair,chair,8-10-10,0390_eid_s07_8-10-10_chair_10_n04429376_28372.JPEG
subject-07,1,391,0.804337024688721,bear,bear,2-0-10,0391_eid_s07_2-0-10_bear_10_n02132136_495.JPEG
subject-07,1,392,1.18913888931274,truck,truck,2-10-10,0392_eid_s07_2-10-10_truck_10_n03417042_12836.JPEG
subject-07,1,393,1.08954906463623,car,car,2-10-10,0393_eid_s07_2-10-10_car_10_n03100240_8683.JPEG
subject-07,1,394,0.952095985412598,truck,truck,16-10-10,0394_eid_s07_16-10-10_truck_10_n04467665_41421.JPEG
subject-07,1,395,1.30643606185913,boat,knife,128-3-10,0395_eid_s07_128-3-10_knife_10_n03041632_50034.JPEG
subject-07,1,396,0.707427978515625,bear,bear,64-0-10,0396_eid_s07_64-0-10_bear_10_n02132136_7647.JPEG
subject-07,1,397,0.913882970809937,elephant,bear,64-10-10,0397_eid_s07_64-10-10_bear_10_n02132136_648.JPEG
subject-07,1,398,0.830399990081787,cat,truck,128-0-10,0398_eid_s07_128-0-10_truck_10_n04467665_840.JPEG
subject-07,1,399,1.31933403015137,clock,chair,128-0-10,0399_eid_s07_128-0-10_chair_10_n04429376_47345.JPEG
subject-07,1,400,1.27424907684326,knife,clock,8-10-10,0400_eid_s07_8-10-10_clock_10_n04548280_757.JPEG
subject-07,1,401,1.29895687103271,elephant,cat,8-3-10,0401_eid_s07_8-3-10_cat_10_n02123159_8257.JPEG
subject-07,1,402,0.904858112335205,truck,truck,2-10-10,0402_eid_s07_2-10-10_truck_10_n03417042_1245.JPEG
subject-07,1,403,1.05944204330444,bicycle,bicycle,4-3-10,0403_eid_s07_4-3-10_bicycle_10_n03792782_20065.JPEG
subject-07,1,404,1.27576804161072,knife,knife,1-0-10,0404_eid_s07_1-0-10_knife_10_n03041632_8666.JPEG
subject-07,1,405,1.27687001228333,oven,bottle,64-10-10,0405_eid_s07_64-10-10_bottle_10_n04591713_6761.JPEG
subject-07,1,406,0.815720081329346,boat,bottle,32-0-10,0406_eid_s07_32-0-10_bottle_10_n03983396_20499.JPEG
subject-07,1,407,0.962414979934692,cat,cat,2-0-10,0407_eid_s07_2-0-10_cat_10_n02123597_13769.JPEG
subject-07,1,408,0.978427171707153,oven,truck,4-3-10,0408_eid_s07_4-3-10_truck_10_n03796401_7438.JPEG
subject-07,1,409,0.947165012359619,bear,elephant,128-0-10,0409_eid_s07_128-0-10_elephant_10_n02504013_7716.JPEG
subject-07,1,410,1.11742997169495,bird,bird,2-3-10,0410_eid_s07_2-3-10_bird_10_n01820546_4591.JPEG
subject-07,1,411,1.03171396255493,airplane,airplane,4-10-10,0411_eid_s07_4-10-10_airplane_10_n02690373_7192.JPEG
subject-07,1,412,0.856334924697876,airplane,airplane,1-3-10,0412_eid_s07_1-3-10_airplane_10_n02690373_736.JPEG
subject-07,1,413,1.12380385398865,elephant,elephant,128-10-10,0413_eid_s07_128-10-10_elephant_10_n02504013_2460.JPEG
subject-07,1,414,1.33210778236389,bear,clock,128-10-10,0414_eid_s07_128-10-10_clock_10_n04548280_5798.JPEG
subject-07,1,415,1.0408661365509,cat,clock,32-3-10,0415_eid_s07_32-3-10_clock_10_n02708093_240.JPEG
subject-07,1,416,1.37130403518677,keyboard,keyboard,32-10-10,0416_eid_s07_32-10-10_keyboard_10_n03085013_23287.JPEG
subject-07,1,417,1.50022506713867,airplane,knife,128-10-10,0417_eid_s07_128-10-10_knife_10_n03041632_35365.JPEG
subject-07,1,418,0.994014024734497,cat,oven,128-3-10,0418_eid_s07_128-3-10_oven_10_n04111531_22493.JPEG
subject-07,1,419,1.18651103973389,truck,truck,4-10-10,0419_eid_s07_4-10-10_truck_10_n03417042_10043.JPEG
subject-07,1,420,0.918653964996338,airplane,bear,128-10-10,0420_eid_s07_128-10-10_bear_10_n02134418_531.JPEG
subject-07,1,421,0.840684175491333,knife,knife,1-10-10,0421_eid_s07_1-10-10_knife_10_n03041632_44738.JPEG
subject-07,1,422,0.84961199760437,cat,bottle,16-3-10,0422_eid_s07_16-3-10_bottle_10_n04560804_2165.JPEG
subject-07,1,423,0.880017995834351,airplane,boat,64-10-10,0423_eid_s07_64-10-10_boat_10_n03344393_9166.JPEG
subject-07,1,424,0.8501877784729,chair,chair,4-3-10,0424_eid_s07_4-3-10_chair_10_n04429376_13452.JPEG
subject-07,1,425,0.934540987014771,airplane,bird,128-10-10,0425_eid_s07_128-10-10_bird_10_n01530575_3007.JPEG
subject-07,1,426,1.03535008430481,elephant,elephant,16-10-10,0426_eid_s07_16-10-10_elephant_10_n02504458_5562.JPEG
subject-07,1,427,0.827601909637451,chair,keyboard,2-10-10,0427_eid_s07_2-10-10_keyboard_10_n04505470_4159.JPEG
subject-07,1,428,1.46621704101562,elephant,cat,128-10-10,0428_eid_s07_128-10-10_cat_10_n02124075_10583.JPEG
subject-07,1,429,0.92066502571106,airplane,knife,128-3-10,0429_eid_s07_128-3-10_knife_10_n03041632_4806.JPEG
subject-07,1,430,1.27530193328857,bear,truck,16-0-10,0430_eid_s07_16-0-10_truck_10_n04467665_33081.JPEG
subject-07,1,431,1.01365900039673,airplane,bear,64-10-10,0431_eid_s07_64-10-10_bear_10_n02134084_1945.JPEG
subject-07,1,432,0.951344966888428,boat,boat,2-3-10,0432_eid_s07_2-3-10_boat_10_n03662601_24653.JPEG
subject-07,1,433,1.42022705078125,boat,keyboard,16-0-10,0433_eid_s07_16-0-10_keyboard_10_n03085013_24392.JPEG
subject-07,1,434,1.05276799201965,airplane,oven,4-3-10,0434_eid_s07_4-3-10_oven_10_n04111531_2150.JPEG
subject-07,1,435,NaN,na,keyboard,16-0-10,0435_eid_s07_16-0-10_keyboard_10_n04505470_1632.JPEG
subject-07,1,436,0.829433917999268,airplane,truck,8-3-10,0436_eid_s07_8-3-10_truck_10_n03417042_5218.JPEG
subject-07,1,437,0.907876014709473,boat,elephant,2-3-10,0437_eid_s07_2-3-10_elephant_10_n02504458_4809.JPEG
subject-07,1,438,0.984176158905029,knife,knife,1-3-10,0438_eid_s07_1-3-10_knife_10_n03041632_52929.JPEG
subject-07,1,439,0.914355993270874,elephant,cat,64-3-10,0439_eid_s07_64-3-10_cat_10_n02123045_8481.JPEG
subject-07,1,440,1.3528139591217,knife,oven,16-10-10,0440_eid_s07_16-10-10_oven_10_n04111531_23830.JPEG
subject-07,1,441,1.45342803001404,airplane,bear,128-3-10,0441_eid_s07_128-3-10_bear_10_n02133161_4360.JPEG
subject-07,1,442,0.983965158462524,cat,dog,64-3-10,0442_eid_s07_64-3-10_dog_10_n02109961_4330.JPEG
subject-07,1,443,0.800197124481201,bear,truck,128-3-10,0443_eid_s07_128-3-10_truck_10_n03796401_25386.JPEG
subject-07,1,444,0.922075033187866,airplane,boat,32-3-10,0444_eid_s07_32-3-10_boat_10_n04612504_10637.JPEG
subject-07,1,445,0.769016027450562,car,car,8-3-10,0445_eid_s07_8-3-10_car_10_n03100240_8160.JPEG
subject-07,1,446,1.06141495704651,clock,clock,4-10-10,0446_eid_s07_4-10-10_clock_10_n02708093_5010.JPEG
subject-07,1,447,0.823296070098877,airplane,boat,128-10-10,0447_eid_s07_128-10-10_boat_10_n04612504_17663.JPEG
subject-07,1,448,0.90776515007019,cat,cat,2-0-10,0448_eid_s07_2-0-10_cat_10_n02123045_6057.JPEG
subject-07,1,449,0.876214981079102,airplane,bear,64-3-10,0449_eid_s07_64-3-10_bear_10_n02134084_7387.JPEG
subject-07,1,450,0.792781829833984,oven,bottle,4-0-10,0450_eid_s07_4-0-10_bottle_10_n04591713_6528.JPEG
subject-07,1,451,1.00110483169556,car,car,1-0-10,0451_eid_s07_1-0-10_car_10_n04285008_12767.JPEG
subject-07,1,452,0.993829965591431,bird,bicycle,4-0-10,0452_eid_s07_4-0-10_bicycle_10_n02835271_6157.JPEG
subject-07,1,453,1.14854216575623,cat,elephant,64-3-10,0453_eid_s07_64-3-10_elephant_10_n02504458_5564.JPEG
subject-07,1,454,0.962703943252563,elephant,elephant,4-0-10,0454_eid_s07_4-0-10_elephant_10_n02504013_4436.JPEG
subject-07,1,455,1.07131218910217,bear,bear,8-10-10,0455_eid_s07_8-10-10_bear_10_n02132136_3169.JPEG
subject-07,1,456,0.733660936355591,boat,boat,1-10-10,0456_eid_s07_1-10-10_boat_10_n02951358_4628.JPEG
subject-07,1,457,0.90205717086792,boat,boat,16-3-10,0457_eid_s07_16-3-10_boat_10_n03662601_19809.JPEG
subject-07,1,458,0.864413976669312,airplane,keyboard,64-10-10,0458_eid_s07_64-10-10_keyboard_10_n03085013_20216.JPEG
subject-07,1,459,0.832886219024658,chair,chair,8-10-10,0459_eid_s07_8-10-10_chair_10_n02791124_3116.JPEG
subject-07,1,460,0.7413170337677,bear,bear,4-3-10,0460_eid_s07_4-3-10_bear_10_n02132136_4671.JPEG
subject-07,1,461,0.849788904190063,chair,car,32-10-10,0461_eid_s07_32-10-10_car_10_n03100240_10953.JPEG
subject-07,1,462,1.01038098335266,keyboard,chair,16-3-10,0462_eid_s07_16-3-10_chair_10_n04099969_2574.JPEG
subject-07,1,463,0.788774967193604,truck,truck,4-0-10,0463_eid_s07_4-0-10_truck_10_n03417042_27022.JPEG
subject-07,1,464,1.0782949924469,dog,dog,4-3-10,0464_eid_s07_4-3-10_dog_10_n02088094_7146.JPEG
subject-07,1,465,0.918934106826782,bear,clock,64-0-10,0465_eid_s07_64-0-10_clock_10_n02708093_6743.JPEG
subject-07,1,466,0.925524950027466,bottle,bottle,1-10-10,0466_eid_s07_1-10-10_bottle_10_n04591713_3878.JPEG
subject-07,1,467,1.50013709068298,elephant,elephant,128-10-10,0467_eid_s07_128-10-10_elephant_10_n02504013_2672.JPEG
subject-07,1,468,1.20149207115173,bicycle,bicycle,2-3-10,0468_eid_s07_2-3-10_bicycle_10_n03792782_11115.JPEG
subject-07,1,469,0.771945953369141,cat,bird,128-0-10,0469_eid_s07_128-0-10_bird_10_n01817953_5783.JPEG
subject-07,1,470,1.09442400932312,bird,clock,128-3-10,0470_eid_s07_128-3-10_clock_10_n02708093_3595.JPEG
subject-07,1,471,0.9409499168396,boat,boat,2-10-10,0471_eid_s07_2-10-10_boat_10_n02951358_22293.JPEG
subject-07,1,472,1.0875129699707,airplane,dog,64-10-10,0472_eid_s07_64-10-10_dog_10_n02112018_8246.JPEG
subject-07,1,473,1.04772806167603,airplane,boat,32-0-10,0473_eid_s07_32-0-10_boat_10_n03344393_7667.JPEG
subject-07,1,474,0.84830117225647,bear,bear,4-10-10,0474_eid_s07_4-10-10_bear_10_n02132136_23078.JPEG
subject-07,1,475,0.848999977111816,bird,bird,16-3-10,0475_eid_s07_16-3-10_bird_10_n02002556_8986.JPEG
subject-07,1,476,0.995457887649536,dog,dog,4-3-10,0476_eid_s07_4-3-10_dog_10_n02098286_5219.JPEG
subject-07,1,477,0.912405014038086,elephant,elephant,2-3-10,0477_eid_s07_2-3-10_elephant_10_n02504458_4811.JPEG
subject-07,1,478,0.866820812225342,car,car,16-3-10,0478_eid_s07_16-3-10_car_10_n04285008_1767.JPEG
subject-07,1,479,0.835039138793945,keyboard,keyboard,1-10-10,0479_eid_s07_1-10-10_keyboard_10_n03085013_19581.JPEG
subject-07,1,480,0.819633007049561,bear,clock,16-0-10,0480_eid_s07_16-0-10_clock_10_n02708093_6114.JPEG
subject-07,1,481,0.760336875915527,cat,chair,16-3-10,0481_eid_s07_16-3-10_chair_10_n03376595_15120.JPEG
subject-07,1,482,0.752578973770142,knife,knife,4-10-10,0482_eid_s07_4-10-10_knife_10_n03041632_15431.JPEG
subject-07,1,483,0.899266004562378,cat,elephant,128-0-10,0483_eid_s07_128-0-10_elephant_10_n02504013_10638.JPEG
subject-07,1,484,0.845720052719116,airplane,airplane,16-0-10,0484_eid_s07_16-0-10_airplane_10_n02690373_9421.JPEG
subject-07,1,485,0.968415021896362,elephant,elephant,32-10-10,0485_eid_s07_32-10-10_elephant_10_n02504458_6171.JPEG
subject-07,1,486,1.16096091270447,bear,cat,32-10-10,0486_eid_s07_32-10-10_cat_10_n02123159_6147.JPEG
subject-07,1,487,0.715617895126343,airplane,cat,32-0-10,0487_eid_s07_32-0-10_cat_10_n02123394_2692.JPEG
subject-07,1,488,1.26989698410034,airplane,car,64-3-10,0488_eid_s07_64-3-10_car_10_n03100240_2907.JPEG
subject-07,1,489,1.09234809875488,bear,knife,128-3-10,0489_eid_s07_128-3-10_knife_10_n03041632_32350.JPEG
subject-07,1,490,1.22285294532776,boat,knife,16-3-10,0490_eid_s07_16-3-10_knife_10_n03041632_29338.JPEG
subject-07,1,491,1.05568504333496,airplane,airplane,16-0-10,0491_eid_s07_16-0-10_airplane_10_n02690373_5534.JPEG
subject-07,1,492,0.83448314666748,knife,knife,16-10-10,0492_eid_s07_16-10-10_knife_10_n03041632_12130.JPEG
subject-07,1,493,0.980801820755005,elephant,elephant,2-0-10,0493_eid_s07_2-0-10_elephant_10_n02504013_6243.JPEG
subject-07,1,494,1.04955697059631,cat,keyboard,64-3-10,0494_eid_s07_64-3-10_keyboard_10_n03085013_4600.JPEG
subject-07,1,495,1.1579270362854,bicycle,bicycle,8-3-10,0495_eid_s07_8-3-10_bicycle_10_n03792782_33086.JPEG
subject-07,1,496,1.1884970664978,oven,oven,1-10-10,0496_eid_s07_1-10-10_oven_10_n04111531_9455.JPEG
subject-07,1,497,1.21314215660095,bear,cat,16-3-10,0497_eid_s07_16-3-10_cat_10_n02123394_1917.JPEG
subject-07,1,498,1.09780097007751,cat,car,32-3-10,0498_eid_s07_32-3-10_car_10_n02814533_94244.JPEG
subject-07,1,499,1.09024500846863,elephant,bear,64-10-10,0499_eid_s07_64-10-10_bear_10_n02132136_4739.JPEG
subject-07,1,500,1.34481000900269,dog,airplane,16-0-10,0500_eid_s07_16-0-10_airplane_10_n02690373_2131.JPEG
subject-07,1,501,1.42903208732605,elephant,cat,2-0-10,0501_eid_s07_2-0-10_cat_10_n02123159_798.JPEG
subject-07,1,502,0.721789121627808,bear,bear,1-0-10,0502_eid_s07_1-0-10_bear_10_n02134084_875.JPEG
subject-07,1,503,0.754357099533081,elephant,elephant,16-0-10,0503_eid_s07_16-0-10_elephant_10_n02504458_6841.JPEG
subject-07,1,504,1.05256915092468,cat,bottle,32-0-10,0504_eid_s07_32-0-10_bottle_10_n03937543_9323.JPEG
subject-07,1,505,0.82315993309021,truck,truck,2-0-10,0505_eid_s07_2-0-10_truck_10_n03796401_7296.JPEG
subject-07,1,506,1.10763788223267,elephant,bear,16-10-10,0506_eid_s07_16-10-10_bear_10_n02132136_1132.JPEG
subject-07,1,507,1.0164110660553,oven,bottle,16-10-10,0507_eid_s07_16-10-10_bottle_10_n03983396_7445.JPEG
subject-07,1,508,1.00891184806824,cat,bird,16-0-10,0508_eid_s07_16-0-10_bird_10_n01622779_6730.JPEG
subject-07,1,509,1.03104496002197,boat,clock,64-3-10,0509_eid_s07_64-3-10_clock_10_n03196217_3337.JPEG
subject-07,1,510,1.07773995399475,oven,oven,4-10-10,0510_eid_s07_4-10-10_oven_10_n04111531_5351.JPEG
subject-07,1,511,1.32342791557312,bottle,bottle,4-0-10,0511_eid_s07_4-0-10_bottle_10_n04557648_8230.JPEG
subject-07,1,512,1.50008702278137,airplane,bicycle,64-0-10,0512_eid_s07_64-0-10_bicycle_10_n03792782_9280.JPEG
subject-07,1,513,0.963666915893555,bear,bear,1-10-10,0513_eid_s07_1-10-10_bear_10_n02132136_17524.JPEG
subject-07,1,514,0.856142997741699,cat,dog,8-0-10,0514_eid_s07_8-0-10_dog_10_n02089867_4812.JPEG
subject-07,1,515,0.6389000415802,chair,chair,2-10-10,0515_eid_s07_2-10-10_chair_10_n03376595_3462.JPEG
subject-07,1,516,0.739425897598267,clock,clock,1-0-10,0516_eid_s07_1-0-10_clock_10_n03196217_3129.JPEG
subject-07,1,517,0.608171939849854,cat,cat,8-0-10,0517_eid_s07_8-0-10_cat_10_n02123159_4353.JPEG
subject-07,1,518,0.855051040649414,knife,knife,4-0-10,0518_eid_s07_4-0-10_knife_10_n03041632_46103.JPEG
subject-07,1,519,1.32550382614136,bear,car,64-10-10,0519_eid_s07_64-10-10_car_10_n02814533_8994.JPEG
subject-07,1,520,0.986072778701782,elephant,elephant,4-0-10,0520_eid_s07_4-0-10_elephant_10_n02504458_5579.JPEG
subject-07,1,521,1.09484100341797,cat,cat,16-10-10,0521_eid_s07_16-10-10_cat_10_n02123597_6996.JPEG
subject-07,1,522,1.03318500518799,keyboard,keyboard,4-10-10,0522_eid_s07_4-10-10_keyboard_10_n04505470_4520.JPEG
subject-07,1,523,0.995763063430786,bear,car,64-0-10,0523_eid_s07_64-0-10_car_10_n02814533_16998.JPEG
subject-07,1,524,1.33436512947083,bear,dog,1-3-10,0524_eid_s07_1-3-10_dog_10_n02099712_630.JPEG
subject-07,1,525,1.04278612136841,truck,truck,4-10-10,0525_eid_s07_4-10-10_truck_10_n04467665_2559.JPEG
subject-07,1,526,0.995182037353516,keyboard,keyboard,8-3-10,0526_eid_s07_8-3-10_keyboard_10_n03085013_20877.JPEG
subject-07,1,527,0.711875915527344,cat,cat,64-3-10,0527_eid_s07_64-3-10_cat_10_n02123597_14094.JPEG
subject-07,1,528,0.988151073455811,cat,dog,64-0-10,0528_eid_s07_64-0-10_dog_10_n02096051_6692.JPEG
subject-07,1,529,0.691213846206665,bottle,bottle,4-0-10,0529_eid_s07_4-0-10_bottle_10_n02823428_652.JPEG
subject-07,1,530,0.859396934509277,keyboard,keyboard,2-3-10,0530_eid_s07_2-3-10_keyboard_10_n04505470_3551.JPEG
subject-07,1,531,1.11410713195801,airplane,bird,64-0-10,0531_eid_s07_64-0-10_bird_10_n02018207_437.JPEG
subject-07,1,532,1.19072508811951,bottle,bottle,4-3-10,0532_eid_s07_4-3-10_bottle_10_n04591713_6804.JPEG
subject-07,1,533,NaN,na,chair,128-0-10,0533_eid_s07_128-0-10_chair_10_n04099969_48411.JPEG
subject-07,1,534,0.837746858596802,knife,knife,4-3-10,0534_eid_s07_4-3-10_knife_10_n03041632_38610.JPEG
subject-07,1,535,0.821979999542236,knife,knife,4-3-10,0535_eid_s07_4-3-10_knife_10_n03041632_3171.JPEG
subject-07,1,536,1.00674891471863,oven,truck,64-3-10,0536_eid_s07_64-3-10_truck_10_n04467665_52709.JPEG
subject-07,1,537,0.915248155593872,boat,boat,4-10-10,0537_eid_s07_4-10-10_boat_10_n03344393_5784.JPEG
subject-07,1,538,1.0919029712677,bear,elephant,64-3-10,0538_eid_s07_64-3-10_elephant_10_n02504013_2385.JPEG
subject-07,1,539,1.06288003921509,airplane,clock,64-0-10,0539_eid_s07_64-0-10_clock_10_n04548280_4248.JPEG
subject-07,1,540,1.17096781730652,knife,knife,8-10-10,0540_eid_s07_8-10-10_knife_10_n03041632_27832.JPEG
subject-07,1,541,1.24789190292358,dog,boat,128-3-10,0541_eid_s07_128-3-10_boat_10_n03662601_11952.JPEG
subject-07,1,542,0.856121063232422,elephant,elephant,2-0-10,0542_eid_s07_2-0-10_elephant_10_n02504458_7950.JPEG
subject-07,1,543,1.00316977500916,airplane,knife,64-0-10,0543_eid_s07_64-0-10_knife_10_n03041632_17338.JPEG
subject-07,1,544,1.07912015914917,dog,dog,16-3-10,0544_eid_s07_16-3-10_dog_10_n02106030_9731.JPEG
subject-07,1,545,1.05595707893372,bear,dog,32-3-10,0545_eid_s07_32-3-10_dog_10_n02097298_8119.JPEG
subject-07,1,546,1.18615102767944,bird,bicycle,16-3-10,0546_eid_s07_16-3-10_bicycle_10_n02835271_12666.JPEG
subject-07,1,547,1.32459712028503,truck,truck,1-10-10,0547_eid_s07_1-10-10_truck_10_n03796401_26801.JPEG
subject-07,1,548,1.46331000328064,boat,oven,32-10-10,0548_eid_s07_32-10-10_oven_10_n04111531_5110.JPEG
subject-07,1,549,1.17994499206543,cat,bear,128-3-10,0549_eid_s07_128-3-10_bear_10_n02133161_6502.JPEG
subject-07,1,550,1.3645191192627,cat,knife,128-0-10,0550_eid_s07_128-0-10_knife_10_n03041632_21345.JPEG
subject-07,1,551,0.981189966201782,airplane,car,64-10-10,0551_eid_s07_64-10-10_car_10_n04285008_13174.JPEG
subject-07,1,552,1.41942882537842,oven,dog,128-3-10,0552_eid_s07_128-3-10_dog_10_n02109961_3766.JPEG
subject-07,1,553,0.874391794204712,airplane,bear,64-10-10,0553_eid_s07_64-10-10_bear_10_n02133161_4412.JPEG
subject-07,1,554,0.890827894210815,chair,chair,4-0-10,0554_eid_s07_4-0-10_chair_10_n02791124_5314.JPEG
subject-07,1,555,1.33751010894775,knife,boat,16-10-10,0555_eid_s07_16-10-10_boat_10_n03344393_10519.JPEG
subject-07,1,556,0.937829971313477,truck,chair,4-10-10,0556_eid_s07_4-10-10_chair_10_n04099969_3768.JPEG
subject-07,1,557,0.960407018661499,cat,clock,64-10-10,0557_eid_s07_64-10-10_clock_10_n04548280_5765.JPEG
subject-07,1,558,1.34501695632935,airplane,cat,64-0-10,0558_eid_s07_64-0-10_cat_10_n02123597_13241.JPEG
subject-07,1,559,0.945405006408691,knife,oven,1-10-10,0559_eid_s07_1-10-10_oven_10_n04111531_6313.JPEG
subject-07,1,560,0.745990991592407,bird,bird,2-3-10,0560_eid_s07_2-3-10_bird_10_n01614925_7608.JPEG
subject-07,1,561,0.992422103881836,car,car,4-3-10,0561_eid_s07_4-3-10_car_10_n02814533_37482.JPEG
subject-07,1,562,1.10116004943848,truck,truck,1-10-10,0562_eid_s07_1-10-10_truck_10_n03417042_28657.JPEG
subject-07,1,563,1.50012493133545,oven,chair,2-10-10,0563_eid_s07_2-10-10_chair_10_n04099969_38032.JPEG
subject-07,1,564,1.26992917060852,boat,boat,16-3-10,0564_eid_s07_16-3-10_boat_10_n04612504_4536.JPEG
subject-07,1,565,1.47884702682495,bear,airplane,64-0-10,0565_eid_s07_64-0-10_airplane_10_n02690373_17764.JPEG
subject-07,1,566,1.14905905723572,bear,bear,8-10-10,0566_eid_s07_8-10-10_bear_10_n02134084_7441.JPEG
subject-07,1,567,1.01721501350403,airplane,airplane,1-0-10,0567_eid_s07_1-0-10_airplane_10_n02690373_19646.JPEG
subject-07,1,568,1.15584206581116,car,car,1-3-10,0568_eid_s07_1-3-10_car_10_n04285008_6177.JPEG
subject-07,1,569,1.0183539390564,bear,bear,8-0-10,0569_eid_s07_8-0-10_bear_10_n02132136_4171.JPEG
subject-07,1,570,0.864525079727173,boat,bear,4-0-10,0570_eid_s07_4-0-10_bear_10_n02134084_1240.JPEG
subject-07,1,571,1.01106810569763,cat,bear,64-0-10,0571_eid_s07_64-0-10_bear_10_n02134084_6113.JPEG
subject-07,1,572,1.19566106796265,elephant,elephant,2-0-10,0572_eid_s07_2-0-10_elephant_10_n02504013_4560.JPEG
subject-07,1,573,0.964110851287842,truck,oven,1-0-10,0573_eid_s07_1-0-10_oven_10_n04111531_3555.JPEG
subject-07,1,574,1.50036311149597,bear,truck,8-3-10,0574_eid_s07_8-3-10_truck_10_n04467665_22569.JPEG
subject-07,1,575,1.01070284843445,airplane,boat,8-0-10,0575_eid_s07_8-0-10_boat_10_n03662601_8787.JPEG
subject-07,1,576,1.30308198928833,dog,bear,32-10-10,0576_eid_s07_32-10-10_bear_10_n02132136_7156.JPEG
subject-07,1,577,1.0340268611908,bear,bottle,64-10-10,0577_eid_s07_64-10-10_bottle_10_n03937543_1693.JPEG
subject-07,1,578,1.32660102844238,bear,bear,128-10-10,0578_eid_s07_128-10-10_bear_10_n02134418_2793.JPEG
subject-07,1,579,0.797178030014038,cat,cat,2-10-10,0579_eid_s07_2-10-10_cat_10_n02123045_9704.JPEG
subject-07,1,580,1.08126616477966,dog,dog,4-10-10,0580_eid_s07_4-10-10_dog_10_n02106550_142.JPEG
subject-07,1,581,0.927510023117065,boat,bear,128-10-10,0581_eid_s07_128-10-10_bear_10_n02134418_14961.JPEG
subject-07,1,582,1.08036684989929,boat,dog,1-3-10,0582_eid_s07_1-3-10_dog_10_n02098105_4265.JPEG
subject-07,1,583,0.810622215270996,keyboard,keyboard,2-3-10,0583_eid_s07_2-3-10_keyboard_10_n03085013_5440.JPEG
subject-07,1,584,1.28741812705994,oven,knife,4-0-10,0584_eid_s07_4-0-10_knife_10_n03041632_30666.JPEG
subject-07,1,585,1.04952716827393,bear,cat,32-3-10,0585_eid_s07_32-3-10_cat_10_n02123394_9667.JPEG
subject-07,1,586,0.774064064025879,airplane,bicycle,64-0-10,0586_eid_s07_64-0-10_bicycle_10_n03792782_5044.JPEG
subject-07,1,587,0.834588050842285,oven,oven,4-0-10,0587_eid_s07_4-0-10_oven_10_n04111531_17004.JPEG
subject-07,1,588,1.22332310676575,clock,clock,4-10-10,0588_eid_s07_4-10-10_clock_10_n04548280_4526.JPEG
subject-07,1,589,1.06954216957092,airplane,boat,32-0-10,0589_eid_s07_32-0-10_boat_10_n04612504_19672.JPEG
subject-07,1,590,0.978044033050537,cat,bear,4-3-10,0590_eid_s07_4-3-10_bear_10_n02133161_409.JPEG
subject-07,1,591,0.916605949401855,dog,bottle,64-0-10,0591_eid_s07_64-0-10_bottle_10_n03937543_2873.JPEG
subject-07,1,592,0.93070387840271,elephant,elephant,8-3-10,0592_eid_s07_8-3-10_elephant_10_n02504458_4582.JPEG
subject-07,1,593,0.731232166290283,boat,boat,4-10-10,0593_eid_s07_4-10-10_boat_10_n03662601_4671.JPEG
subject-07,1,594,0.82383918762207,elephant,elephant,32-3-10,0594_eid_s07_32-3-10_elephant_10_n02504458_6172.JPEG
subject-07,1,595,1.19420719146729,bear,clock,64-3-10,0595_eid_s07_64-3-10_clock_10_n02708093_1482.JPEG
subject-07,1,596,1.01687002182007,airplane,boat,64-0-10,0596_eid_s07_64-0-10_boat_10_n04612504_31680.JPEG
subject-07,1,597,0.979550838470459,bear,cat,8-3-10,0597_eid_s07_8-3-10_cat_10_n02123159_189.JPEG
subject-07,1,598,1.2800030708313,oven,oven,4-3-10,0598_eid_s07_4-3-10_oven_10_n04111531_1970.JPEG
subject-07,1,599,1.50007200241089,cat,airplane,32-0-10,0599_eid_s07_32-0-10_airplane_10_n02690373_6887.JPEG
subject-07,1,600,1.50012016296387,car,oven,64-0-10,0600_eid_s07_64-0-10_oven_10_n04111531_1989.JPEG
subject-07,1,601,1.3177649974823,cat,cat,8-0-10,0601_eid_s07_8-0-10_cat_10_n02125311_8048.JPEG
subject-07,1,602,0.882383108139038,car,car,4-3-10,0602_eid_s07_4-3-10_car_10_n02814533_44587.JPEG
subject-07,1,603,0.827208042144775,bicycle,bicycle,1-3-10,0603_eid_s07_1-3-10_bicycle_10_n03792782_12751.JPEG
subject-07,1,604,0.997547149658203,car,car,1-10-10,0604_eid_s07_1-10-10_car_10_n02814533_10594.JPEG
subject-07,1,605,1.2200038433075,oven,car,128-10-10,0605_eid_s07_128-10-10_car_10_n02814533_51524.JPEG
subject-07,1,606,0.919931888580322,cat,cat,16-0-10,0606_eid_s07_16-0-10_cat_10_n02125311_7148.JPEG
subject-07,1,607,0.675121784210205,boat,boat,2-10-10,0607_eid_s07_2-10-10_boat_10_n03344393_7118.JPEG
subject-07,1,608,1.39762115478516,bear,cat,32-10-10,0608_eid_s07_32-10-10_cat_10_n02124075_9249.JPEG
subject-07,1,609,0.967756032943726,elephant,dog,16-10-10,0609_eid_s07_16-10-10_dog_10_n02102318_3740.JPEG
subject-07,1,610,1.173996925354,car,clock,2-0-10,0610_eid_s07_2-0-10_clock_10_n03196217_5972.JPEG
subject-07,1,611,1.41221380233765,clock,truck,16-3-10,0611_eid_s07_16-3-10_truck_10_n04467665_34406.JPEG
subject-07,1,612,0.804924964904785,airplane,airplane,32-10-10,0612_eid_s07_32-10-10_airplane_10_n02690373_18506.JPEG
subject-07,1,613,1.02916193008423,bicycle,bicycle,1-0-10,0613_eid_s07_1-0-10_bicycle_10_n02835271_3383.JPEG
subject-07,1,614,1.05191802978516,boat,boat,2-10-10,0614_eid_s07_2-10-10_boat_10_n03344393_6711.JPEG
subject-07,1,615,1.20627212524414,bear,bear,16-10-10,0615_eid_s07_16-10-10_bear_10_n02133161_15593.JPEG
subject-07,1,616,1.22059416770935,oven,oven,1-3-10,0616_eid_s07_1-3-10_oven_10_n04111531_15416.JPEG
subject-07,1,617,1.00504803657532,truck,truck,2-0-10,0617_eid_s07_2-0-10_truck_10_n03417042_4980.JPEG
subject-07,1,618,0.905532121658325,bicycle,bicycle,4-10-10,0618_eid_s07_4-10-10_bicycle_10_n03792782_29276.JPEG
subject-07,1,619,0.789941072463989,oven,oven,1-0-10,0619_eid_s07_1-0-10_oven_10_n04111531_695.JPEG
subject-07,1,620,1.10647201538086,cat,oven,64-3-10,0620_eid_s07_64-3-10_oven_10_n04111531_12468.JPEG
subject-07,1,621,1.0289421081543,keyboard,keyboard,2-10-10,0621_eid_s07_2-10-10_keyboard_10_n04505470_2881.JPEG
subject-07,1,622,1.19948410987854,airplane,knife,32-0-10,0622_eid_s07_32-0-10_knife_10_n03041632_36247.JPEG
subject-07,1,623,1.05389595031738,airplane,airplane,32-0-10,0623_eid_s07_32-0-10_airplane_10_n02690373_10309.JPEG
subject-07,1,624,1.33856606483459,car,car,1-0-10,0624_eid_s07_1-0-10_car_10_n03100240_6514.JPEG
subject-07,1,625,1.16889786720276,elephant,elephant,1-0-10,0625_eid_s07_1-0-10_elephant_10_n02504013_23032.JPEG
subject-07,1,626,0.953394174575806,airplane,bottle,32-3-10,0626_eid_s07_32-3-10_bottle_10_n04591713_940.JPEG
subject-07,1,627,0.815826892852783,oven,bear,2-10-10,0627_eid_s07_2-10-10_bear_10_n02133161_15847.JPEG
subject-07,1,628,1.08428406715393,elephant,cat,16-3-10,0628_eid_s07_16-3-10_cat_10_n02123045_10431.JPEG
subject-07,1,629,1.04661297798157,oven,oven,1-10-10,0629_eid_s07_1-10-10_oven_10_n04111531_12589.JPEG
subject-07,1,630,0.917211055755615,boat,boat,2-0-10,0630_eid_s07_2-0-10_boat_10_n03344393_4844.JPEG
subject-07,1,631,0.855756998062134,dog,dog,8-10-10,0631_eid_s07_8-10-10_dog_10_n02089078_5265.JPEG
subject-07,1,632,1.1936719417572,bear,clock,8-0-10,0632_eid_s07_8-0-10_clock_10_n04548280_5224.JPEG
subject-07,1,633,0.824091911315918,car,car,2-0-10,0633_eid_s07_2-0-10_car_10_n04285008_11446.JPEG
subject-07,1,634,1.15450596809387,bicycle,bicycle,32-10-10,0634_eid_s07_32-10-10_bicycle_10_n02835271_14680.JPEG
subject-07,1,635,0.778535842895508,keyboard,keyboard,1-3-10,0635_eid_s07_1-3-10_keyboard_10_n03085013_18851.JPEG
subject-07,1,636,1.02517986297607,chair,chair,2-10-10,0636_eid_s07_2-10-10_chair_10_n04429376_11771.JPEG
subject-07,1,637,0.939769983291626,boat,chair,64-3-10,0637_eid_s07_64-3-10_chair_10_n04429376_18334.JPEG
subject-07,1,638,0.902343988418579,oven,bottle,4-10-10,0638_eid_s07_4-10-10_bottle_10_n04560804_2449.JPEG
subject-07,1,639,1.37936305999756,oven,oven,2-10-10,0639_eid_s07_2-10-10_oven_10_n04111531_643.JPEG
subject-07,1,640,1.16859984397888,boat,knife,32-3-10,0640_eid_s07_32-3-10_knife_10_n03041632_80317.JPEG
subject-07,1,641,0.938416004180908,airplane,clock,128-3-10,0641_eid_s07_128-3-10_clock_10_n04548280_750.JPEG
subject-07,1,642,1.33893895149231,bear,bear,2-3-10,0642_eid_s07_2-3-10_bear_10_n02132136_511.JPEG
subject-07,1,643,1.39144802093506,knife,knife,2-0-10,0643_eid_s07_2-0-10_knife_10_n03041632_29337.JPEG
subject-07,1,644,0.93786096572876,airplane,airplane,8-3-10,0644_eid_s07_8-3-10_airplane_10_n02690373_3561.JPEG
subject-07,1,645,1.1379759311676,airplane,bird,64-10-10,0645_eid_s07_64-10-10_bird_10_n01530575_8862.JPEG
subject-07,1,646,0.85451602935791,cat,dog,128-3-10,0646_eid_s07_128-3-10_dog_10_n02108551_25198.JPEG
subject-07,1,647,1.23853087425232,airplane,bottle,32-0-10,0647_eid_s07_32-0-10_bottle_10_n03983396_11402.JPEG
subject-07,1,648,1.23081922531128,airplane,dog,64-0-10,0648_eid_s07_64-0-10_dog_10_n02097209_803.JPEG
subject-07,1,649,0.785346031188965,dog,dog,4-3-10,0649_eid_s07_4-3-10_dog_10_n02109047_2553.JPEG
subject-07,1,650,1.21595907211304,bear,bicycle,128-10-10,0650_eid_s07_128-10-10_bicycle_10_n02835271_4246.JPEG
subject-07,1,651,NaN,na,keyboard,64-3-10,0651_eid_s07_64-3-10_keyboard_10_n03085013_9146.JPEG
subject-07,1,652,1.18496012687683,car,bird,8-10-10,0652_eid_s07_8-10-10_bird_10_n02017213_10035.JPEG
subject-07,1,653,1.32335901260376,airplane,bear,128-10-10,0653_eid_s07_128-10-10_bear_10_n02134418_648.JPEG
subject-07,1,654,NaN,na,bear,16-10-10,0654_eid_s07_16-10-10_bear_10_n02134084_6713.JPEG
subject-07,1,655,1.50038695335388,bird,bear,1-10-10,0655_eid_s07_1-10-10_bear_10_n02134418_569.JPEG
subject-07,1,656,NaN,na,bicycle,128-0-10,0656_eid_s07_128-0-10_bicycle_10_n02835271_3832.JPEG
subject-07,1,657,1.06255006790161,boat,knife,32-0-10,0657_eid_s07_32-0-10_knife_10_n03041632_24541.JPEG
subject-07,1,658,1.0086350440979,chair,chair,2-3-10,0658_eid_s07_2-3-10_chair_10_n02791124_6072.JPEG
subject-07,1,659,1.09309411048889,airplane,cat,128-10-10,0659_eid_s07_128-10-10_cat_10_n02125311_23201.JPEG
subject-07,1,660,0.809743881225586,chair,chair,4-3-10,0660_eid_s07_4-3-10_chair_10_n04099969_7174.JPEG
subject-07,1,661,1.04830098152161,bear,knife,128-0-10,0661_eid_s07_128-0-10_knife_10_n03041632_44019.JPEG
subject-07,1,662,0.908874988555908,airplane,airplane,64-3-10,0662_eid_s07_64-3-10_airplane_10_n02690373_1696.JPEG
subject-07,1,663,1.27887892723083,boat,chair,32-3-10,0663_eid_s07_32-3-10_chair_10_n04099969_2007.JPEG
subject-07,1,664,1.30166006088257,keyboard,keyboard,8-10-10,0664_eid_s07_8-10-10_keyboard_10_n03085013_20584.JPEG
subject-07,1,665,0.802199840545654,cat,bear,128-10-10,0665_eid_s07_128-10-10_bear_10_n02134084_7622.JPEG
subject-07,1,666,1.27287006378174,bear,truck,128-10-10,0666_eid_s07_128-10-10_truck_10_n03417042_7403.JPEG
subject-07,1,667,0.77330207824707,airplane,keyboard,64-0-10,0667_eid_s07_64-0-10_keyboard_10_n03085013_7858.JPEG
subject-07,1,668,0.657754182815552,bottle,bottle,1-0-10,0668_eid_s07_1-0-10_bottle_10_n02823428_9898.JPEG
subject-07,1,669,1.10382199287415,clock,clock,8-3-10,0669_eid_s07_8-3-10_clock_10_n04548280_6743.JPEG
subject-07,1,670,0.818206071853638,oven,oven,1-3-10,0670_eid_s07_1-3-10_oven_10_n04111531_13247.JPEG
subject-07,1,671,0.980885982513428,bear,knife,64-3-10,0671_eid_s07_64-3-10_knife_10_n03041632_51256.JPEG
subject-07,1,672,1.02742695808411,dog,dog,4-10-10,0672_eid_s07_4-10-10_dog_10_n02091032_1932.JPEG
subject-07,1,673,1.50008201599121,cat,keyboard,64-0-10,0673_eid_s07_64-0-10_keyboard_10_n03085013_20996.JPEG
subject-07,1,674,0.866321086883545,airplane,bottle,32-0-10,0674_eid_s07_32-0-10_bottle_10_n04579145_85.JPEG
subject-07,1,675,0.666853189468384,car,car,4-10-10,0675_eid_s07_4-10-10_car_10_n03100240_7935.JPEG
subject-07,1,676,0.951114892959595,boat,boat,16-10-10,0676_eid_s07_16-10-10_boat_10_n04612504_26151.JPEG
subject-07,1,677,1.0187840461731,clock,clock,4-3-10,0677_eid_s07_4-3-10_clock_10_n03196217_5559.JPEG
subject-07,1,678,0.857211828231812,elephant,elephant,8-3-10,0678_eid_s07_8-3-10_elephant_10_n02504013_17337.JPEG
subject-07,1,679,1.27183818817139,chair,cat,4-0-10,0679_eid_s07_4-0-10_cat_10_n02124075_19379.JPEG
subject-07,1,680,0.92463207244873,bird,bird,16-10-10,0680_eid_s07_16-10-10_bird_10_n02028035_10424.JPEG
subject-07,1,681,1.23146200180054,boat,truck,2-3-10,0681_eid_s07_2-3-10_truck_10_n03417042_3277.JPEG
subject-07,1,682,1.03977012634277,bird,bottle,64-10-10,0682_eid_s07_64-10-10_bottle_10_n04591713_5424.JPEG
subject-07,1,683,0.82417893409729,cat,elephant,32-3-10,0683_eid_s07_32-3-10_elephant_10_n02504458_6898.JPEG
subject-07,1,684,0.916733980178833,bear,clock,128-0-10,0684_eid_s07_128-0-10_clock_10_n04548280_4275.JPEG
subject-07,1,685,0.909237146377563,oven,clock,64-10-10,0685_eid_s07_64-10-10_clock_10_n04548280_574.JPEG
subject-07,1,686,1.08538317680359,airplane,airplane,8-0-10,0686_eid_s07_8-0-10_airplane_10_n02690373_891.JPEG
subject-07,1,687,0.839427947998047,elephant,elephant,2-10-10,0687_eid_s07_2-10-10_elephant_10_n02504458_6018.JPEG
subject-07,1,688,1.21580219268799,elephant,oven,8-0-10,0688_eid_s07_8-0-10_oven_10_n04111531_11405.JPEG
subject-07,1,689,1.18638205528259,knife,knife,8-0-10,0689_eid_s07_8-0-10_knife_10_n03041632_3023.JPEG
subject-07,1,690,0.67888617515564,cat,dog,128-0-10,0690_eid_s07_128-0-10_dog_10_n02091032_2503.JPEG
subject-07,1,691,0.655116081237793,bear,bear,1-3-10,0691_eid_s07_1-3-10_bear_10_n02133161_252.JPEG
subject-07,1,692,0.663646936416626,clock,clock,16-10-10,0692_eid_s07_16-10-10_clock_10_n02708093_7882.JPEG
subject-07,1,693,1.23225998878479,truck,keyboard,8-0-10,0693_eid_s07_8-0-10_keyboard_10_n03085013_20675.JPEG
subject-07,1,694,0.924615144729614,dog,dog,8-3-10,0694_eid_s07_8-3-10_dog_10_n02086646_2284.JPEG
subject-07,1,695,0.871357917785645,airplane,airplane,1-3-10,0695_eid_s07_1-3-10_airplane_10_n02690373_6313.JPEG
subject-07,1,696,0.671281814575195,car,car,1-3-10,0696_eid_s07_1-3-10_car_10_n02814533_57176.JPEG
subject-07,1,697,1.08555483818054,elephant,oven,4-3-10,0697_eid_s07_4-3-10_oven_10_n04111531_688.JPEG
subject-07,1,698,1.1721351146698,bear,bird,32-0-10,0698_eid_s07_32-0-10_bird_10_n01860187_3214.JPEG
subject-07,1,699,0.856304168701172,elephant,bird,64-10-10,0699_eid_s07_64-10-10_bird_10_n01616318_7164.JPEG
subject-07,1,700,0.970964908599854,car,car,8-0-10,0700_eid_s07_8-0-10_car_10_n03100240_10049.JPEG
subject-07,1,701,1.42538690567017,cat,boat,64-10-10,0701_eid_s07_64-10-10_boat_10_n03344393_14177.JPEG
subject-07,1,702,0.833969116210938,clock,clock,1-10-10,0702_eid_s07_1-10-10_clock_10_n04548280_1190.JPEG
subject-07,1,703,0.810754060745239,boat,clock,32-3-10,0703_eid_s07_32-3-10_clock_10_n03196217_5992.JPEG
subject-07,1,704,1.14110612869263,oven,bottle,8-10-10,0704_eid_s07_8-10-10_bottle_10_n03937543_11958.JPEG
subject-07,1,705,0.895509004592896,bicycle,bicycle,4-0-10,0705_eid_s07_4-0-10_bicycle_10_n03792782_687.JPEG
subject-07,1,706,1.03633809089661,car,car,16-10-10,0706_eid_s07_16-10-10_car_10_n03100240_2719.JPEG
subject-07,1,707,1.18788194656372,boat,bear,2-10-10,0707_eid_s07_2-10-10_bear_10_n02134084_1256.JPEG
subject-07,1,708,1.06452107429504,truck,truck,8-3-10,0708_eid_s07_8-3-10_truck_10_n04467665_75549.JPEG
subject-07,1,709,0.834743976593018,bottle,bottle,8-3-10,0709_eid_s07_8-3-10_bottle_10_n04591713_5646.JPEG
subject-07,1,710,1.30829310417175,chair,chair,2-3-10,0710_eid_s07_2-3-10_chair_10_n04429376_8095.JPEG
subject-07,1,711,0.748916149139404,bear,bicycle,32-3-10,0711_eid_s07_32-3-10_bicycle_10_n02835271_2328.JPEG
subject-07,1,712,0.979351997375488,airplane,bottle,64-0-10,0712_eid_s07_64-0-10_bottle_10_n04560804_13776.JPEG
subject-07,1,713,1.23768210411072,boat,cat,32-3-10,0713_eid_s07_32-3-10_cat_10_n02123159_7005.JPEG
subject-07,1,714,NaN,na,oven,128-0-10,0714_eid_s07_128-0-10_oven_10_n04111531_4418.JPEG
subject-07,1,715,1.07624697685242,airplane,cat,16-3-10,0715_eid_s07_16-3-10_cat_10_n02123045_12779.JPEG
subject-07,1,716,0.844859838485718,bear,bear,8-10-10,0716_eid_s07_8-10-10_bear_10_n02134418_603.JPEG
subject-07,1,717,0.915387868881226,airplane,airplane,32-0-10,0717_eid_s07_32-0-10_airplane_10_n02690373_610.JPEG
subject-07,1,718,1.35376405715942,airplane,cat,128-10-10,0718_eid_s07_128-10-10_cat_10_n02124075_14175.JPEG
subject-07,1,719,0.992416858673096,airplane,knife,16-3-10,0719_eid_s07_16-3-10_knife_10_n03041632_11358.JPEG
subject-07,1,720,0.993006944656372,dog,dog,4-0-10,0720_eid_s07_4-0-10_dog_10_n02110185_5608.JPEG
subject-07,1,721,0.831357955932617,bicycle,bicycle,1-3-10,0721_eid_s07_1-3-10_bicycle_10_n02835271_12790.JPEG
subject-07,1,722,0.856212139129639,boat,clock,64-0-10,0722_eid_s07_64-0-10_clock_10_n02708093_391.JPEG
subject-07,1,723,1.04067897796631,airplane,oven,64-3-10,0723_eid_s07_64-3-10_oven_10_n04111531_9342.JPEG
subject-07,1,724,1.00339794158936,airplane,airplane,1-3-10,0724_eid_s07_1-3-10_airplane_10_n02690373_2268.JPEG
subject-07,1,725,0.94963002204895,bear,cat,16-10-10,0725_eid_s07_16-10-10_cat_10_n02123045_665.JPEG
subject-07,1,726,0.996119022369385,truck,truck,16-10-10,0726_eid_s07_16-10-10_truck_10_n03796401_15046.JPEG
subject-07,1,727,0.889055013656616,oven,bottle,8-3-10,0727_eid_s07_8-3-10_bottle_10_n03983396_5149.JPEG
subject-07,1,728,0.880744934082031,bottle,bottle,8-10-10,0728_eid_s07_8-10-10_bottle_10_n03983396_7919.JPEG
subject-07,1,729,0.979476928710938,elephant,elephant,8-10-10,0729_eid_s07_8-10-10_elephant_10_n02504013_7305.JPEG
subject-07,1,730,1.05606698989868,car,car,32-10-10,0730_eid_s07_32-10-10_car_10_n03100240_8489.JPEG
subject-07,1,731,0.972010135650635,truck,knife,16-3-10,0731_eid_s07_16-3-10_knife_10_n03041632_24384.JPEG
subject-07,1,732,1.17826390266418,bird,oven,2-0-10,0732_eid_s07_2-0-10_oven_10_n04111531_4227.JPEG
subject-07,1,733,0.719090938568115,airplane,boat,16-10-10,0733_eid_s07_16-10-10_boat_10_n03344393_8594.JPEG
subject-07,1,734,0.965434074401855,oven,knife,16-10-10,0734_eid_s07_16-10-10_knife_10_n03041632_16932.JPEG
subject-07,1,735,0.788238048553467,bird,bird,2-0-10,0735_eid_s07_2-0-10_bird_10_n02009912_11978.JPEG
subject-07,1,736,0.772463083267212,airplane,bear,16-3-10,0736_eid_s07_16-3-10_bear_10_n02134418_597.JPEG
subject-07,1,737,1.21922588348389,cat,knife,128-0-10,0737_eid_s07_128-0-10_knife_10_n03041632_18863.JPEG
subject-07,1,738,1.15702891349792,bottle,clock,2-0-10,0738_eid_s07_2-0-10_clock_10_n03196217_9255.JPEG
subject-07,1,739,0.865240812301636,bird,oven,8-10-10,0739_eid_s07_8-10-10_oven_10_n04111531_19742.JPEG
subject-07,1,740,1.1116931438446,bear,car,16-3-10,0740_eid_s07_16-3-10_car_10_n02814533_78573.JPEG
subject-07,1,741,1.1120080947876,knife,knife,4-10-10,0741_eid_s07_4-10-10_knife_10_n03041632_17091.JPEG
subject-07,1,742,0.880376100540161,cat,car,128-3-10,0742_eid_s07_128-3-10_car_10_n04285008_9923.JPEG
subject-07,1,743,0.842864990234375,car,car,4-0-10,0743_eid_s07_4-0-10_car_10_n03100240_17336.JPEG
subject-07,1,744,0.810848951339722,airplane,airplane,32-3-10,0744_eid_s07_32-3-10_airplane_10_n02690373_9317.JPEG
subject-07,1,745,0.903372049331665,dog,dog,1-3-10,0745_eid_s07_1-3-10_dog_10_n02101388_11695.JPEG
subject-07,1,746,0.828051090240479,cat,dog,64-0-10,0746_eid_s07_64-0-10_dog_10_n02099267_16449.JPEG
subject-07,1,747,1.1502640247345,bicycle,boat,128-10-10,0747_eid_s07_128-10-10_boat_10_n03344393_14208.JPEG
subject-07,1,748,1.06665802001953,clock,knife,2-0-10,0748_eid_s07_2-0-10_knife_10_n03041632_50423.JPEG
subject-07,1,749,0.913470029830933,car,boat,4-3-10,0749_eid_s07_4-3-10_boat_10_n02951358_13562.JPEG
subject-07,1,750,1.14361095428467,cat,knife,1-10-10,0750_eid_s07_1-10-10_knife_10_n03041632_11613.JPEG
subject-07,1,751,1.15836691856384,keyboard,keyboard,1-10-10,0751_eid_s07_1-10-10_keyboard_10_n03085013_21289.JPEG
subject-07,1,752,0.92103385925293,airplane,cat,64-10-10,0752_eid_s07_64-10-10_cat_10_n02123597_3326.JPEG
subject-07,1,753,1.18410491943359,airplane,dog,128-10-10,0753_eid_s07_128-10-10_dog_10_n02091244_3249.JPEG
subject-07,1,754,1.2386269569397,airplane,airplane,2-3-10,0754_eid_s07_2-3-10_airplane_10_n02690373_9743.JPEG
subject-07,1,755,0.869393825531006,bear,bird,8-0-10,0755_eid_s07_8-0-10_bird_10_n01601694_2696.JPEG
subject-07,1,756,0.893626928329468,bird,bird,1-3-10,0756_eid_s07_1-3-10_bird_10_n01828970_15.JPEG
subject-07,1,757,1.09428405761719,bottle,bottle,4-3-10,0757_eid_s07_4-3-10_bottle_10_n04591713_6401.JPEG
subject-07,1,758,0.887305974960327,car,car,1-3-10,0758_eid_s07_1-3-10_car_10_n03100240_7836.JPEG
subject-07,1,759,0.909451961517334,boat,boat,4-10-10,0759_eid_s07_4-10-10_boat_10_n03662601_3696.JPEG
subject-07,1,760,1.03399085998535,cat,car,128-3-10,0760_eid_s07_128-3-10_car_10_n03100240_14485.JPEG
subject-07,1,761,0.872608184814453,bear,dog,4-3-10,0761_eid_s07_4-3-10_dog_10_n02105251_8725.JPEG
subject-07,1,762,0.756682157516479,bicycle,bicycle,1-0-10,0762_eid_s07_1-0-10_bicycle_10_n03792782_828.JPEG
subject-07,1,763,1.06551694869995,airplane,keyboard,64-10-10,0763_eid_s07_64-10-10_keyboard_10_n04505470_4553.JPEG
subject-07,1,764,0.811969041824341,cat,cat,2-3-10,0764_eid_s07_2-3-10_cat_10_n02124075_14568.JPEG
subject-07,1,765,0.996404886245728,airplane,keyboard,64-0-10,0765_eid_s07_64-0-10_keyboard_10_n03085013_17260.JPEG
subject-07,1,766,0.951123952865601,clock,clock,4-0-10,0766_eid_s07_4-0-10_clock_10_n02708093_1775.JPEG
subject-07,1,767,0.889653921127319,dog,cat,2-0-10,0767_eid_s07_2-0-10_cat_10_n02123394_4678.JPEG
subject-07,1,768,1.14438605308533,elephant,elephant,2-10-10,0768_eid_s07_2-10-10_elephant_10_n02504458_5685.JPEG
subject-07,1,769,0.79432487487793,clock,clock,8-3-10,0769_eid_s07_8-3-10_clock_10_n04548280_11763.JPEG
subject-07,1,770,1.36235094070435,bottle,bottle,8-0-10,0770_eid_s07_8-0-10_bottle_10_n04591713_6391.JPEG
subject-07,1,771,1.14108085632324,cat,oven,128-0-10,0771_eid_s07_128-0-10_oven_10_n04111531_4421.JPEG
subject-07,1,772,0.933249950408936,dog,bear,8-3-10,0772_eid_s07_8-3-10_bear_10_n02134418_1351.JPEG
subject-07,1,773,1.02590584754944,dog,cat,4-3-10,0773_eid_s07_4-3-10_cat_10_n02123159_6088.JPEG
subject-07,1,774,1.1245858669281,cat,car,128-3-10,0774_eid_s07_128-3-10_car_10_n03100240_5999.JPEG
subject-07,1,775,0.765069007873535,dog,knife,8-3-10,0775_eid_s07_8-3-10_knife_10_n03041632_20217.JPEG
subject-07,1,776,1.24990200996399,bear,oven,2-3-10,0776_eid_s07_2-3-10_oven_10_n04111531_21973.JPEG
subject-07,1,777,0.826720952987671,bear,clock,64-3-10,0777_eid_s07_64-3-10_clock_10_n03196217_3272.JPEG
subject-07,1,778,0.758315086364746,knife,knife,1-3-10,0778_eid_s07_1-3-10_knife_10_n03041632_32292.JPEG
subject-07,1,779,1.00479316711426,bear,bear,4-10-10,0779_eid_s07_4-10-10_bear_10_n02132136_24408.JPEG
subject-07,1,780,0.843416213989258,bear,elephant,64-3-10,0780_eid_s07_64-3-10_elephant_10_n02504013_846.JPEG
subject-07,1,781,0.703788995742798,cat,cat,1-3-10,0781_eid_s07_1-3-10_cat_10_n02124075_2884.JPEG
subject-07,1,782,0.974233150482178,cat,bicycle,64-0-10,0782_eid_s07_64-0-10_bicycle_10_n03792782_24722.JPEG
subject-07,1,783,0.766942977905273,cat,bear,64-0-10,0783_eid_s07_64-0-10_bear_10_n02134084_266.JPEG
subject-07,1,784,1.09748005867004,airplane,clock,32-3-10,0784_eid_s07_32-3-10_clock_10_n04548280_8672.JPEG
subject-07,1,785,0.921669006347656,dog,dog,2-0-10,0785_eid_s07_2-0-10_dog_10_n02097209_8186.JPEG
subject-07,1,786,0.798387050628662,car,car,2-3-10,0786_eid_s07_2-3-10_car_10_n03100240_362.JPEG
subject-07,1,787,0.768749952316284,cat,elephant,16-0-10,0787_eid_s07_16-0-10_elephant_10_n02504013_10310.JPEG
subject-07,1,788,1.17523097991943,oven,bird,1-0-10,0788_eid_s07_1-0-10_bird_10_n01795545_10145.JPEG
subject-07,1,789,0.691950082778931,bear,bear,8-0-10,0789_eid_s07_8-0-10_bear_10_n02134084_4915.JPEG
subject-07,1,790,0.854352951049805,car,dog,32-10-10,0790_eid_s07_32-10-10_dog_10_n02102973_6015.JPEG
subject-07,1,791,0.862933158874512,knife,boat,32-10-10,0791_eid_s07_32-10-10_boat_10_n04612504_15562.JPEG
subject-07,1,792,1.11772203445435,knife,knife,16-0-10,0792_eid_s07_16-0-10_knife_10_n03041632_29862.JPEG
subject-07,1,793,0.756006002426147,dog,dog,2-0-10,0793_eid_s07_2-0-10_dog_10_n02090721_381.JPEG
subject-07,1,794,0.678673028945923,airplane,airplane,8-3-10,0794_eid_s07_8-3-10_airplane_10_n02690373_1819.JPEG
subject-07,1,795,1.19505596160889,elephant,elephant,4-3-10,0795_eid_s07_4-3-10_elephant_10_n02504013_4153.JPEG
subject-07,1,796,1.12543606758118,cat,chair,16-0-10,0796_eid_s07_16-0-10_chair_10_n04099969_2523.JPEG
subject-07,1,797,0.985542058944702,bottle,bottle,4-3-10,0797_eid_s07_4-3-10_bottle_10_n02823428_330.JPEG
subject-07,1,798,0.955682039260864,car,car,8-10-10,0798_eid_s07_8-10-10_car_10_n02814533_66056.JPEG
subject-07,1,799,0.940489053726196,chair,chair,1-0-10,0799_eid_s07_1-0-10_chair_10_n03376595_16747.JPEG
subject-07,1,800,0.946814060211182,elephant,car,64-10-10,0800_eid_s07_64-10-10_car_10_n03100240_6286.JPEG
subject-07,1,801,0.887302875518799,dog,dog,4-10-10,0801_eid_s07_4-10-10_dog_10_n02093991_9584.JPEG
subject-07,1,802,0.917703866958618,chair,chair,16-10-10,0802_eid_s07_16-10-10_chair_10_n04099969_605.JPEG
subject-07,1,803,0.956403017044067,bear,keyboard,32-0-10,0803_eid_s07_32-0-10_keyboard_10_n03085013_3656.JPEG
subject-07,1,804,1.50014185905457,bird,bird,1-10-10,0804_eid_s07_1-10-10_bird_10_n01622779_2804.JPEG
subject-07,1,805,0.955426216125488,oven,chair,1-3-10,0805_eid_s07_1-3-10_chair_10_n02791124_2597.JPEG
subject-07,1,806,0.903789043426514,chair,chair,1-0-10,0806_eid_s07_1-0-10_chair_10_n04099969_4662.JPEG
subject-07,1,807,0.81450891494751,keyboard,keyboard,2-10-10,0807_eid_s07_2-10-10_keyboard_10_n04505470_2102.JPEG
subject-07,1,808,0.961065053939819,cat,elephant,64-10-10,0808_eid_s07_64-10-10_elephant_10_n02504013_3640.JPEG
subject-07,1,809,0.753638029098511,cat,clock,32-0-10,0809_eid_s07_32-0-10_clock_10_n02708093_1388.JPEG
subject-07,1,810,1.28421306610107,bear,car,16-0-10,0810_eid_s07_16-0-10_car_10_n03100240_8901.JPEG
subject-07,1,811,0.800687074661255,cat,bear,8-3-10,0811_eid_s07_8-3-10_bear_10_n02132136_21799.JPEG
subject-07,1,812,1.0931830406189,keyboard,keyboard,8-0-10,0812_eid_s07_8-0-10_keyboard_10_n04505470_2275.JPEG
subject-07,1,813,0.801715135574341,airplane,airplane,16-10-10,0813_eid_s07_16-10-10_airplane_10_n02690373_6491.JPEG
subject-07,1,814,1.11609482765198,oven,clock,128-0-10,0814_eid_s07_128-0-10_clock_10_n03196217_6431.JPEG
subject-07,1,815,0.840826988220215,bottle,bottle,1-3-10,0815_eid_s07_1-3-10_bottle_10_n04557648_10297.JPEG
subject-07,1,816,1.16891193389893,keyboard,keyboard,8-3-10,0816_eid_s07_8-3-10_keyboard_10_n03085013_24087.JPEG
subject-07,1,817,1.5000958442688,airplane,clock,128-3-10,0817_eid_s07_128-3-10_clock_10_n04548280_8171.JPEG
subject-07,1,818,1.03163886070251,airplane,bird,128-10-10,0818_eid_s07_128-10-10_bird_10_n02033041_6192.JPEG
subject-07,1,819,1.5001540184021,clock,oven,32-3-10,0819_eid_s07_32-3-10_oven_10_n04111531_21869.JPEG
subject-07,1,820,1.14677405357361,airplane,truck,16-3-10,0820_eid_s07_16-3-10_truck_10_n04467665_66016.JPEG
subject-07,1,821,1.03160691261292,bird,bear,16-3-10,0821_eid_s07_16-3-10_bear_10_n02134084_1828.JPEG
subject-07,1,822,0.785830020904541,airplane,bird,16-3-10,0822_eid_s07_16-3-10_bird_10_n02017213_429.JPEG
subject-07,1,823,1.24032688140869,clock,bottle,32-3-10,0823_eid_s07_32-3-10_bottle_10_n04579145_2868.JPEG
subject-07,1,824,NaN,na,airplane,128-10-10,0824_eid_s07_128-10-10_airplane_10_n02690373_6621.JPEG
subject-07,1,825,0.979488134384155,bottle,bicycle,64-10-10,0825_eid_s07_64-10-10_bicycle_10_n03792782_4102.JPEG
subject-07,1,826,1.40986108779907,elephant,elephant,16-3-10,0826_eid_s07_16-3-10_elephant_10_n02504458_8755.JPEG
subject-07,1,827,1.41811609268188,bear,knife,128-10-10,0827_eid_s07_128-10-10_knife_10_n03041632_15250.JPEG
subject-07,1,828,0.842787981033325,airplane,boat,32-3-10,0828_eid_s07_32-3-10_boat_10_n03662601_2120.JPEG
subject-07,1,829,1.12731504440308,truck,truck,8-3-10,0829_eid_s07_8-3-10_truck_10_n03417042_8295.JPEG
subject-07,1,830,1.08184313774109,boat,boat,2-3-10,0830_eid_s07_2-3-10_boat_10_n04273569_4584.JPEG
subject-07,1,831,0.888262987136841,cat,oven,64-10-10,0831_eid_s07_64-10-10_oven_10_n04111531_11669.JPEG
subject-07,1,832,0.880790948867798,bottle,knife,16-10-10,0832_eid_s07_16-10-10_knife_10_n03041632_42185.JPEG
subject-07,1,833,1.19710612297058,airplane,airplane,8-10-10,0833_eid_s07_8-10-10_airplane_10_n02690373_8599.JPEG
subject-07,1,834,1.39551496505737,airplane,keyboard,32-3-10,0834_eid_s07_32-3-10_keyboard_10_n03085013_11854.JPEG
subject-07,1,835,1.49999904632568,airplane,keyboard,16-0-10,0835_eid_s07_16-0-10_keyboard_10_n03085013_20999.JPEG
subject-07,1,836,1.07271289825439,truck,keyboard,128-10-10,0836_eid_s07_128-10-10_keyboard_10_n03085013_7058.JPEG
subject-07,1,837,0.880918025970459,airplane,elephant,32-3-10,0837_eid_s07_32-3-10_elephant_10_n02504458_5797.JPEG
subject-07,1,838,0.951367855072021,dog,dog,1-0-10,0838_eid_s07_1-0-10_dog_10_n02108915_8385.JPEG
subject-07,1,839,0.965984106063843,elephant,elephant,32-10-10,0839_eid_s07_32-10-10_elephant_10_n02504458_5731.JPEG
subject-07,1,840,0.674590826034546,cat,cat,8-3-10,0840_eid_s07_8-3-10_cat_10_n02123045_3557.JPEG
subject-07,1,841,0.820930004119873,bear,bear,2-3-10,0841_eid_s07_2-3-10_bear_10_n02132136_4740.JPEG
subject-07,1,842,0.905377864837646,bear,bear,8-0-10,0842_eid_s07_8-0-10_bear_10_n02133161_5418.JPEG
subject-07,1,843,0.898025035858154,bear,bird,8-0-10,0843_eid_s07_8-0-10_bird_10_n01824575_5279.JPEG
subject-07,1,844,0.927669048309326,keyboard,keyboard,4-3-10,0844_eid_s07_4-3-10_keyboard_10_n03085013_23706.JPEG
subject-07,1,845,0.806699991226196,oven,bottle,128-0-10,0845_eid_s07_128-0-10_bottle_10_n03983396_1440.JPEG
subject-07,1,846,1.21340394020081,clock,chair,16-0-10,0846_eid_s07_16-0-10_chair_10_n02791124_4595.JPEG
subject-07,1,847,NaN,na,bicycle,64-0-10,0847_eid_s07_64-0-10_bicycle_10_n03792782_953.JPEG
subject-07,1,848,1.19042706489563,chair,chair,32-10-10,0848_eid_s07_32-10-10_chair_10_n03376595_9395.JPEG
subject-07,1,849,1.00703287124634,bottle,bird,128-0-10,0849_eid_s07_128-0-10_bird_10_n02037110_5493.JPEG
subject-07,1,850,0.959346055984497,bicycle,bicycle,8-10-10,0850_eid_s07_8-10-10_bicycle_10_n03792782_63425.JPEG
subject-07,1,851,NaN,na,oven,16-0-10,0851_eid_s07_16-0-10_oven_10_n04111531_545.JPEG
subject-07,1,852,1.28160905838013,keyboard,clock,16-3-10,0852_eid_s07_16-3-10_clock_10_n02708093_4267.JPEG
subject-07,1,853,1.30132794380188,bottle,boat,128-10-10,0853_eid_s07_128-10-10_boat_10_n03662601_22272.JPEG
subject-07,1,854,1.10982799530029,oven,oven,8-10-10,0854_eid_s07_8-10-10_oven_10_n04111531_12308.JPEG
subject-07,1,855,0.969977140426636,bear,bear,1-3-10,0855_eid_s07_1-3-10_bear_10_n02134084_712.JPEG
subject-07,1,856,0.869969844818115,cat,cat,8-10-10,0856_eid_s07_8-10-10_cat_10_n02125311_13839.JPEG
subject-07,1,857,1.10788488388062,cat,keyboard,128-3-10,0857_eid_s07_128-3-10_keyboard_10_n04505470_1052.JPEG
subject-07,1,858,0.930356979370117,chair,oven,8-10-10,0858_eid_s07_8-10-10_oven_10_n04111531_5204.JPEG
subject-07,1,859,1.38464903831482,knife,knife,8-3-10,0859_eid_s07_8-3-10_knife_10_n03041632_27960.JPEG
subject-07,1,860,1.36923384666443,cat,dog,16-0-10,0860_eid_s07_16-0-10_dog_10_n02112350_5854.JPEG
subject-07,1,861,0.845762014389038,bicycle,bicycle,16-10-10,0861_eid_s07_16-10-10_bicycle_10_n03792782_52.JPEG
subject-07,1,862,1.39851021766663,boat,boat,8-10-10,0862_eid_s07_8-10-10_boat_10_n04612504_8284.JPEG
subject-07,1,863,0.800831079483032,keyboard,keyboard,2-0-10,0863_eid_s07_2-0-10_keyboard_10_n03085013_19254.JPEG
subject-07,1,864,0.685208082199097,elephant,elephant,1-10-10,0864_eid_s07_1-10-10_elephant_10_n02504013_4392.JPEG
subject-07,1,865,1.02175211906433,chair,oven,1-10-10,0865_eid_s07_1-10-10_oven_10_n04111531_690.JPEG
subject-07,1,866,0.946424961090088,elephant,truck,8-0-10,0866_eid_s07_8-0-10_truck_10_n03417042_2150.JPEG
subject-07,1,867,0.814849138259888,dog,dog,2-10-10,0867_eid_s07_2-10-10_dog_10_n02102973_5903.JPEG
subject-07,1,868,1.20713305473328,dog,bear,4-0-10,0868_eid_s07_4-0-10_bear_10_n02134084_11555.JPEG
subject-07,1,869,1.23809909820557,cat,cat,64-0-10,0869_eid_s07_64-0-10_cat_10_n02124075_7984.JPEG
subject-07,1,870,0.638604879379272,cat,cat,1-0-10,0870_eid_s07_1-0-10_cat_10_n02123597_1034.JPEG
subject-07,1,871,0.814397811889648,bird,bird,1-0-10,0871_eid_s07_1-0-10_bird_10_n01532829_7606.JPEG
subject-07,1,872,0.71486496925354,clock,clock,4-0-10,0872_eid_s07_4-0-10_clock_10_n02708093_4289.JPEG
subject-07,1,873,0.959641933441162,boat,boat,2-3-10,0873_eid_s07_2-3-10_boat_10_n02951358_31965.JPEG
subject-07,1,874,0.975471019744873,bicycle,oven,4-0-10,0874_eid_s07_4-0-10_oven_10_n04111531_344.JPEG
subject-07,1,875,1.00623607635498,oven,truck,32-10-10,0875_eid_s07_32-10-10_truck_10_n03796401_9472.JPEG
subject-07,1,876,0.982813119888306,cat,oven,4-0-10,0876_eid_s07_4-0-10_oven_10_n04111531_8852.JPEG
subject-07,1,877,1.11362600326538,dog,oven,4-0-10,0877_eid_s07_4-0-10_oven_10_n04111531_5965.JPEG
subject-07,1,878,1.08988404273987,boat,boat,32-10-10,0878_eid_s07_32-10-10_boat_10_n03344393_3008.JPEG
subject-07,1,879,0.928302049636841,car,car,8-3-10,0879_eid_s07_8-3-10_car_10_n04285008_5077.JPEG
subject-07,1,880,1.42087912559509,boat,clock,8-0-10,0880_eid_s07_8-0-10_clock_10_n03196217_5463.JPEG
subject-07,1,881,1.22920894622803,elephant,truck,16-10-10,0881_eid_s07_16-10-10_truck_10_n04467665_30209.JPEG
subject-07,1,882,0.821997880935669,car,car,1-0-10,0882_eid_s07_1-0-10_car_10_n04285008_14986.JPEG
subject-07,1,883,0.706398010253906,clock,clock,8-10-10,0883_eid_s07_8-10-10_clock_10_n04548280_3396.JPEG
subject-07,1,884,1.03681778907776,boat,cat,32-0-10,0884_eid_s07_32-0-10_cat_10_n02125311_31461.JPEG
subject-07,1,885,0.799699068069458,boat,dog,16-0-10,0885_eid_s07_16-0-10_dog_10_n02089867_3727.JPEG
subject-07,1,886,1.05988311767578,boat,bicycle,128-0-10,0886_eid_s07_128-0-10_bicycle_10_n02835271_703.JPEG
subject-07,1,887,0.776529788970947,boat,boat,1-10-10,0887_eid_s07_1-10-10_boat_10_n02951358_31772.JPEG
subject-07,1,888,0.877351999282837,bottle,bottle,8-0-10,0888_eid_s07_8-0-10_bottle_10_n04579145_2322.JPEG
subject-07,1,889,0.915602207183838,oven,oven,1-10-10,0889_eid_s07_1-10-10_oven_10_n04111531_8305.JPEG
subject-07,1,890,1.50028085708618,chair,dog,8-10-10,0890_eid_s07_8-10-10_dog_10_n02100735_1125.JPEG
subject-07,1,891,1.50031185150146,airplane,boat,32-0-10,0891_eid_s07_32-0-10_boat_10_n03662601_2073.JPEG
subject-07,1,892,1.39890599250793,bear,car,64-3-10,0892_eid_s07_64-3-10_car_10_n02814533_15249.JPEG
subject-07,1,893,0.931362152099609,bottle,bottle,4-3-10,0893_eid_s07_4-3-10_bottle_10_n03983396_4814.JPEG
subject-07,1,894,0.884210109710693,bird,bird,2-10-10,0894_eid_s07_2-10-10_bird_10_n01820546_5544.JPEG
subject-07,1,895,1.16035604476929,cat,cat,8-3-10,0895_eid_s07_8-3-10_cat_10_n02124075_11489.JPEG
subject-07,1,896,0.998800039291382,airplane,airplane,8-3-10,0896_eid_s07_8-3-10_airplane_10_n02690373_2091.JPEG
subject-07,1,897,1.25862503051758,airplane,bird,16-3-10,0897_eid_s07_16-3-10_bird_10_n01532829_15927.JPEG
subject-07,1,898,1.39942812919617,airplane,keyboard,64-0-10,0898_eid_s07_64-0-10_keyboard_10_n03085013_6069.JPEG
subject-07,1,899,0.930138111114502,car,car,2-3-10,0899_eid_s07_2-3-10_car_10_n04285008_9288.JPEG
subject-07,1,900,0.968629837036133,chair,chair,2-0-10,0900_eid_s07_2-0-10_chair_10_n04099969_39507.JPEG
subject-07,1,901,1.12289905548096,bottle,bottle,1-3-10,0901_eid_s07_1-3-10_bottle_10_n04591713_457.JPEG
subject-07,1,902,0.932038068771362,bottle,oven,8-3-10,0902_eid_s07_8-3-10_oven_10_n04111531_5246.JPEG
subject-07,1,903,1.0162980556488,keyboard,keyboard,1-0-10,0903_eid_s07_1-0-10_keyboard_10_n04505470_1833.JPEG
subject-07,1,904,0.806665897369385,bear,keyboard,16-3-10,0904_eid_s07_16-3-10_keyboard_10_n03085013_3815.JPEG
subject-07,1,905,0.831534147262573,car,car,4-10-10,0905_eid_s07_4-10-10_car_10_n04285008_3126.JPEG
subject-07,1,906,1.08381414413452,cat,knife,128-3-10,0906_eid_s07_128-3-10_knife_10_n03041632_10777.JPEG
subject-07,1,907,0.784156799316406,dog,bird,8-3-10,0907_eid_s07_8-3-10_bird_10_n02056570_9105.JPEG
subject-07,1,908,1.30683898925781,cat,bird,64-10-10,0908_eid_s07_64-10-10_bird_10_n01817953_3945.JPEG
subject-07,1,909,1.27778577804565,bear,knife,64-10-10,0909_eid_s07_64-10-10_knife_10_n03041632_21017.JPEG
subject-07,1,910,1.27616596221924,elephant,knife,32-10-10,0910_eid_s07_32-10-10_knife_10_n03041632_4975.JPEG
subject-07,1,911,1.25252199172974,cat,dog,64-10-10,0911_eid_s07_64-10-10_dog_10_n02096294_4716.JPEG
subject-07,1,912,1.13100695610046,keyboard,oven,2-10-10,0912_eid_s07_2-10-10_oven_10_n04111531_7283.JPEG
subject-07,1,913,0.853739976882935,airplane,airplane,8-10-10,0913_eid_s07_8-10-10_airplane_10_n02690373_848.JPEG
subject-07,1,914,1.31367588043213,boat,boat,4-3-10,0914_eid_s07_4-3-10_boat_10_n03662601_26082.JPEG
subject-07,1,915,1.5001540184021,airplane,airplane,32-0-10,0915_eid_s07_32-0-10_airplane_10_n02690373_4148.JPEG
subject-07,1,916,1.22099113464355,bear,keyboard,32-0-10,0916_eid_s07_32-0-10_keyboard_10_n03085013_20704.JPEG
subject-07,1,917,0.786382913589478,truck,truck,2-0-10,0917_eid_s07_2-0-10_truck_10_n03796401_7778.JPEG
subject-07,1,918,0.916566848754883,bear,bear,2-0-10,0918_eid_s07_2-0-10_bear_10_n02133161_14729.JPEG
subject-07,1,919,0.885001182556152,bird,oven,2-10-10,0919_eid_s07_2-10-10_oven_10_n04111531_4331.JPEG
subject-07,1,920,1.00729703903198,bicycle,bicycle,2-10-10,0920_eid_s07_2-10-10_bicycle_10_n02835271_8597.JPEG
subject-07,1,921,1.42959785461426,boat,bottle,2-3-10,0921_eid_s07_2-3-10_bottle_10_n02823428_5481.JPEG
subject-07,1,922,0.724145174026489,boat,boat,2-3-10,0922_eid_s07_2-3-10_boat_10_n03662601_169.JPEG
subject-07,1,923,0.962486982345581,bear,bear,16-3-10,0923_eid_s07_16-3-10_bear_10_n02133161_575.JPEG
subject-07,1,924,0.831053018569946,car,car,4-3-10,0924_eid_s07_4-3-10_car_10_n04285008_7770.JPEG
subject-07,1,925,0.993967056274414,truck,keyboard,1-3-10,0925_eid_s07_1-3-10_keyboard_10_n04505470_1118.JPEG
subject-07,1,926,0.986684799194336,boat,boat,8-10-10,0926_eid_s07_8-10-10_boat_10_n02951358_10834.JPEG
subject-07,1,927,0.924860954284668,airplane,bottle,32-10-10,0927_eid_s07_32-10-10_bottle_10_n02823428_6226.JPEG
subject-07,1,928,1.01495003700256,knife,knife,2-0-10,0928_eid_s07_2-0-10_knife_10_n03041632_18748.JPEG
subject-07,1,929,0.831156015396118,knife,knife,2-0-10,0929_eid_s07_2-0-10_knife_10_n03041632_20517.JPEG
subject-07,1,930,0.977646112442017,oven,bottle,2-10-10,0930_eid_s07_2-10-10_bottle_10_n03937543_2489.JPEG
subject-07,1,931,1.50031304359436,truck,truck,1-3-10,0931_eid_s07_1-3-10_truck_10_n03417042_7444.JPEG
subject-07,1,932,0.961046934127808,cat,clock,64-10-10,0932_eid_s07_64-10-10_clock_10_n03196217_2854.JPEG
subject-07,1,933,1.290696144104,bear,bird,32-0-10,0933_eid_s07_32-0-10_bird_10_n01817953_1892.JPEG
subject-07,1,934,1.02924704551697,bear,bicycle,32-3-10,0934_eid_s07_32-3-10_bicycle_10_n02835271_4961.JPEG
subject-07,1,935,0.938293933868408,cat,truck,32-3-10,0935_eid_s07_32-3-10_truck_10_n03796401_3431.JPEG
subject-07,1,936,1.12259984016418,elephant,elephant,1-0-10,0936_eid_s07_1-0-10_elephant_10_n02504458_6412.JPEG
subject-07,1,937,1.14491605758667,dog,dog,16-10-10,0937_eid_s07_16-10-10_dog_10_n02112018_3494.JPEG
subject-07,1,938,0.975533008575439,boat,car,64-0-10,0938_eid_s07_64-0-10_car_10_n02814533_45193.JPEG
subject-07,1,939,0.908230781555176,truck,truck,2-0-10,0939_eid_s07_2-0-10_truck_10_n03796401_1691.JPEG
subject-07,1,940,0.83080792427063,bottle,bottle,32-10-10,0940_eid_s07_32-10-10_bottle_10_n04591713_5167.JPEG
subject-07,1,941,0.837083101272583,truck,truck,2-0-10,0941_eid_s07_2-0-10_truck_10_n03417042_1756.JPEG
subject-07,1,942,1.36791706085205,airplane,truck,64-0-10,0942_eid_s07_64-0-10_truck_10_n04467665_21445.JPEG
subject-07,1,943,1.32972097396851,elephant,oven,16-10-10,0943_eid_s07_16-10-10_oven_10_n04111531_6975.JPEG
subject-07,1,944,0.698408126831055,car,car,4-10-10,0944_eid_s07_4-10-10_car_10_n04285008_14996.JPEG
subject-07,1,945,0.960498094558716,bicycle,bicycle,4-10-10,0945_eid_s07_4-10-10_bicycle_10_n03792782_51149.JPEG
subject-07,1,946,NaN,na,bottle,1-10-10,0946_eid_s07_1-10-10_bottle_10_n03937543_5328.JPEG
subject-07,1,947,0.951395034790039,bottle,bottle,2-3-10,0947_eid_s07_2-3-10_bottle_10_n04560804_13420.JPEG
subject-07,1,948,1.27417302131653,bear,knife,16-3-10,0948_eid_s07_16-3-10_knife_10_n03041632_3617.JPEG
subject-07,1,949,0.853010892868042,chair,elephant,1-10-10,0949_eid_s07_1-10-10_elephant_10_n02504458_3182.JPEG
subject-07,1,950,1.15958404541016,bottle,bottle,2-0-10,0950_eid_s07_2-0-10_bottle_10_n04557648_9809.JPEG
subject-07,1,951,0.998020887374878,chair,chair,1-0-10,0951_eid_s07_1-0-10_chair_10_n04099969_15679.JPEG
subject-07,1,952,NaN,na,truck,64-10-10,0952_eid_s07_64-10-10_truck_10_n04467665_23112.JPEG
subject-07,1,953,1.50035715103149,dog,keyboard,8-0-10,0953_eid_s07_8-0-10_keyboard_10_n04505470_6051.JPEG
subject-07,1,954,0.899773120880127,cat,truck,128-0-10,0954_eid_s07_128-0-10_truck_10_n03417042_20892.JPEG
subject-07,1,955,0.754410028457642,bear,bird,32-10-10,0955_eid_s07_32-10-10_bird_10_n02017213_1344.JPEG
subject-07,1,956,0.898885011672974,dog,dog,128-10-10,0956_eid_s07_128-10-10_dog_10_n02100583_12793.JPEG
subject-07,1,957,0.962097883224487,bear,bird,2-0-10,0957_eid_s07_2-0-10_bird_10_n01616318_37434.JPEG
subject-07,1,958,0.708325862884521,elephant,bicycle,128-0-10,0958_eid_s07_128-0-10_bicycle_10_n02835271_8798.JPEG
subject-07,1,959,NaN,na,bicycle,8-3-10,0959_eid_s07_8-3-10_bicycle_10_n02835271_3280.JPEG
