subj,session,trial,rt,object_response,category,condition,imagename
subject-03,2,1,1.26276111602783,clock,oven,32-3-10,1281_eid_s03_32-3-10_oven_10_n04111531_22715.JPEG
subject-03,2,2,0.564341068267822,boat,boat,2-3-10,1282_eid_s03_2-3-10_boat_10_n03662601_15998.JPEG
subject-03,2,3,0.675804853439331,truck,truck,4-10-10,1283_eid_s03_4-10-10_truck_10_n03796401_27288.JPEG
subject-03,2,4,0.747061014175415,clock,bicycle,32-3-10,1284_eid_s03_32-3-10_bicycle_10_n02835271_9116.JPEG
subject-03,2,5,0.849191188812256,chair,chair,2-0-10,1285_eid_s03_2-0-10_chair_10_n03376595_9800.JPEG
subject-03,2,6,0.629240989685059,bear,truck,64-3-10,1286_eid_s03_64-3-10_truck_10_n03796401_18074.JPEG
subject-03,2,7,1.35732507705688,cat,cat,1-10-10,1287_eid_s03_1-10-10_cat_10_n02123159_5441.JPEG
subject-03,2,8,0.484510183334351,car,car,2-3-10,1288_eid_s03_2-3-10_car_10_n04285008_7107.JPEG
subject-03,2,9,1.05852794647217,cat,keyboard,64-0-10,1289_eid_s03_64-0-10_keyboard_10_n04505470_6814.JPEG
subject-03,2,10,0.676578998565674,truck,truck,1-0-10,1290_eid_s03_1-0-10_truck_10_n04467665_34070.JPEG
subject-03,2,11,1.11821889877319,bottle,knife,16-10-10,1291_eid_s03_16-10-10_knife_10_n03041632_24798.JPEG
subject-03,2,12,1.09068298339844,knife,keyboard,16-10-10,1292_eid_s03_16-10-10_keyboard_10_n03085013_18897.JPEG
subject-03,2,13,1.06251811981201,knife,chair,32-10-10,1293_eid_s03_32-10-10_chair_10_n04099969_1293.JPEG
subject-03,2,14,1.15880608558655,bear,bear,1-10-10,1294_eid_s03_1-10-10_bear_10_n02134084_12355.JPEG
subject-03,2,15,0.639546155929565,airplane,airplane,2-10-10,1295_eid_s03_2-10-10_airplane_10_n02690373_1233.JPEG
subject-03,2,16,0.584432125091553,car,car,2-10-10,1296_eid_s03_2-10-10_car_10_n02814533_80927.JPEG
subject-03,2,17,1.0892128944397,airplane,oven,32-3-10,1297_eid_s03_32-3-10_oven_10_n04111531_7717.JPEG
subject-03,2,18,1.10630989074707,cat,bird,4-0-10,1298_eid_s03_4-0-10_bird_10_n02056570_2375.JPEG
subject-03,2,19,1.01912999153137,airplane,cat,128-3-10,1299_eid_s03_128-3-10_cat_10_n02123597_401.JPEG
subject-03,2,20,0.670202970504761,airplane,car,128-10-10,1300_eid_s03_128-10-10_car_10_n02814533_1955.JPEG
subject-03,2,21,0.670725107192993,airplane,knife,64-3-10,1301_eid_s03_64-3-10_knife_10_n03041632_33584.JPEG
subject-03,2,22,0.522669076919556,oven,truck,32-3-10,1302_eid_s03_32-3-10_truck_10_n04467665_2204.JPEG
subject-03,2,23,0.781152963638306,boat,bird,8-0-10,1303_eid_s03_8-0-10_bird_10_n02025239_6223.JPEG
subject-03,2,24,1.01903700828552,bear,bird,16-3-10,1304_eid_s03_16-3-10_bird_10_n02027492_20978.JPEG
subject-03,2,25,0.628331899642944,bicycle,airplane,32-0-10,1305_eid_s03_32-0-10_airplane_10_n02690373_6992.JPEG
subject-03,2,26,0.578835964202881,bear,bear,4-10-10,1306_eid_s03_4-10-10_bear_10_n02133161_68.JPEG
subject-03,2,27,0.875525951385498,elephant,oven,8-0-10,1307_eid_s03_8-0-10_oven_10_n04111531_21208.JPEG
subject-03,2,28,0.696338891983032,bear,car,16-3-10,1308_eid_s03_16-3-10_car_10_n02814533_98174.JPEG
subject-03,2,29,0.708678960800171,bird,bottle,32-3-10,1309_eid_s03_32-3-10_bottle_10_n03983396_17918.JPEG
subject-03,2,30,0.589769124984741,clock,bear,64-3-10,1310_eid_s03_64-3-10_bear_10_n02134418_1941.JPEG
subject-03,2,31,0.898934125900269,chair,chair,4-3-10,1311_eid_s03_4-3-10_chair_10_n03376595_7547.JPEG
subject-03,2,32,0.949043989181519,truck,truck,2-10-10,1312_eid_s03_2-10-10_truck_10_n03417042_2204.JPEG
subject-03,2,33,0.645175933837891,chair,boat,8-3-10,1313_eid_s03_8-3-10_boat_10_n04612504_17849.JPEG
subject-03,2,34,0.979169130325317,elephant,elephant,4-10-10,1314_eid_s03_4-10-10_elephant_10_n02504458_337.JPEG
subject-03,2,35,0.664249897003174,chair,car,32-10-10,1315_eid_s03_32-10-10_car_10_n02814533_94474.JPEG
subject-03,2,36,0.91397500038147,elephant,elephant,4-10-10,1316_eid_s03_4-10-10_elephant_10_n02504458_5972.JPEG
subject-03,2,37,0.956080913543701,bottle,bottle,4-10-10,1317_eid_s03_4-10-10_bottle_10_n04557648_29432.JPEG
subject-03,2,38,0.974249839782715,knife,knife,8-10-10,1318_eid_s03_8-10-10_knife_10_n03041632_9759.JPEG
subject-03,2,39,1.25428891181946,bear,bear,1-0-10,1319_eid_s03_1-0-10_bear_10_n02134084_2929.JPEG
subject-03,2,40,0.767056941986084,clock,oven,1-10-10,1320_eid_s03_1-10-10_oven_10_n04111531_12820.JPEG
subject-03,2,41,0.656258106231689,bear,bird,16-10-10,1321_eid_s03_16-10-10_bird_10_n01560419_701.JPEG
subject-03,2,42,0.798564195632935,car,bird,64-0-10,1322_eid_s03_64-0-10_bird_10_n01592084_3810.JPEG
subject-03,2,43,1.06236410140991,bicycle,bicycle,4-0-10,1323_eid_s03_4-0-10_bicycle_10_n03792782_6192.JPEG
subject-03,2,44,0.737256050109863,boat,boat,2-3-10,1324_eid_s03_2-3-10_boat_10_n04612504_28737.JPEG
subject-03,2,45,0.725062131881714,bear,chair,32-0-10,1325_eid_s03_32-0-10_chair_10_n04429376_848.JPEG
subject-03,2,46,0.651747941970825,chair,truck,64-10-10,1326_eid_s03_64-10-10_truck_10_n04467665_39317.JPEG
subject-03,2,47,0.740025043487549,dog,bird,64-0-10,1327_eid_s03_64-0-10_bird_10_n01798484_5988.JPEG
subject-03,2,48,0.927746057510376,bear,airplane,64-10-10,1328_eid_s03_64-10-10_airplane_10_n02690373_7748.JPEG
subject-03,2,49,0.725157022476196,bicycle,bicycle,4-3-10,1329_eid_s03_4-3-10_bicycle_10_n02835271_15344.JPEG
subject-03,2,50,1.02873110771179,chair,clock,2-10-10,1330_eid_s03_2-10-10_clock_10_n04548280_1329.JPEG
subject-03,2,51,0.563082933425903,boat,bottle,64-10-10,1331_eid_s03_64-10-10_bottle_10_n04579145_1061.JPEG
subject-03,2,52,0.711854934692383,cat,cat,16-0-10,1332_eid_s03_16-0-10_cat_10_n02123394_976.JPEG
subject-03,2,53,0.748213052749634,keyboard,keyboard,2-10-10,1333_eid_s03_2-10-10_keyboard_10_n03085013_24385.JPEG
subject-03,2,54,0.620171070098877,clock,keyboard,32-3-10,1334_eid_s03_32-3-10_keyboard_10_n03085013_20925.JPEG
subject-03,2,55,0.795493125915527,truck,truck,2-10-10,1335_eid_s03_2-10-10_truck_10_n04467665_3281.JPEG
subject-03,2,56,0.622842073440552,keyboard,keyboard,8-3-10,1336_eid_s03_8-3-10_keyboard_10_n03085013_24144.JPEG
subject-03,2,57,1.03154683113098,truck,truck,1-0-10,1337_eid_s03_1-0-10_truck_10_n03796401_10612.JPEG
subject-03,2,58,0.96542501449585,bird,keyboard,128-3-10,1338_eid_s03_128-3-10_keyboard_10_n03085013_9156.JPEG
subject-03,2,59,0.62808084487915,elephant,truck,4-0-10,1339_eid_s03_4-0-10_truck_10_n03417042_3789.JPEG
subject-03,2,60,0.808439970016479,boat,bird,4-10-10,1340_eid_s03_4-10-10_bird_10_n02028035_9598.JPEG
subject-03,2,61,0.747066974639893,knife,knife,8-0-10,1341_eid_s03_8-0-10_knife_10_n03041632_43436.JPEG
subject-03,2,62,1.06832003593445,bear,keyboard,32-0-10,1342_eid_s03_32-0-10_keyboard_10_n03085013_15836.JPEG
subject-03,2,63,1.22711110115051,bird,bird,1-3-10,1343_eid_s03_1-3-10_bird_10_n01560419_8351.JPEG
subject-03,2,64,0.669242858886719,bear,elephant,8-0-10,1344_eid_s03_8-0-10_elephant_10_n02504013_8216.JPEG
subject-03,2,65,0.858268022537231,bicycle,bicycle,1-10-10,1345_eid_s03_1-10-10_bicycle_10_n02835271_20920.JPEG
subject-03,2,66,0.568181037902832,boat,boat,1-10-10,1346_eid_s03_1-10-10_boat_10_n03344393_7362.JPEG
subject-03,2,67,0.780087947845459,truck,truck,1-10-10,1347_eid_s03_1-10-10_truck_10_n03417042_26865.JPEG
subject-03,2,68,0.681740999221802,keyboard,oven,4-10-10,1348_eid_s03_4-10-10_oven_10_n04111531_18430.JPEG
subject-03,2,69,0.669821977615356,airplane,airplane,1-10-10,1349_eid_s03_1-10-10_airplane_10_n02690373_6789.JPEG
subject-03,2,70,0.936817169189453,car,truck,2-0-10,1350_eid_s03_2-0-10_truck_10_n04467665_30588.JPEG
subject-03,2,71,1.09454703330994,bear,bottle,128-10-10,1351_eid_s03_128-10-10_bottle_10_n02823428_5813.JPEG
subject-03,2,72,0.789164066314697,chair,chair,32-10-10,1352_eid_s03_32-10-10_chair_10_n04429376_10128.JPEG
subject-03,2,73,1.12596797943115,clock,clock,1-0-10,1353_eid_s03_1-0-10_clock_10_n03196217_1797.JPEG
subject-03,2,74,0.757016897201538,airplane,bottle,1-10-10,1354_eid_s03_1-10-10_bottle_10_n02823428_6168.JPEG
subject-03,2,75,0.815597057342529,oven,clock,16-10-10,1355_eid_s03_16-10-10_clock_10_n02708093_4267.JPEG
subject-03,2,76,0.579580068588257,clock,bear,4-10-10,1356_eid_s03_4-10-10_bear_10_n02133161_1309.JPEG
subject-03,2,77,0.645684003829956,bear,bear,1-3-10,1357_eid_s03_1-3-10_bear_10_n02133161_9138.JPEG
subject-03,2,78,0.642550945281982,oven,bottle,32-3-10,1358_eid_s03_32-3-10_bottle_10_n04591713_5769.JPEG
subject-03,2,79,0.628791809082031,boat,oven,16-10-10,1359_eid_s03_16-10-10_oven_10_n04111531_8353.JPEG
subject-03,2,80,0.871120929718018,bicycle,bicycle,8-3-10,1360_eid_s03_8-3-10_bicycle_10_n02835271_12346.JPEG
subject-03,2,81,0.783121109008789,keyboard,keyboard,4-0-10,1361_eid_s03_4-0-10_keyboard_10_n04505470_816.JPEG
subject-03,2,82,0.955414056777954,airplane,knife,128-0-10,1362_eid_s03_128-0-10_knife_10_n03041632_10109.JPEG
subject-03,2,83,0.682453870773315,bird,knife,64-10-10,1363_eid_s03_64-10-10_knife_10_n03041632_4260.JPEG
subject-03,2,84,0.633011102676392,cat,boat,8-3-10,1364_eid_s03_8-3-10_boat_10_n03662601_9498.JPEG
subject-03,2,85,0.521427154541016,boat,bird,8-0-10,1365_eid_s03_8-0-10_bird_10_n01601694_5157.JPEG
subject-03,2,86,0.79389500617981,cat,oven,4-3-10,1366_eid_s03_4-3-10_oven_10_n04111531_2715.JPEG
subject-03,2,87,0.552227973937988,oven,truck,64-0-10,1367_eid_s03_64-0-10_truck_10_n03796401_14203.JPEG
subject-03,2,88,0.840770959854126,airplane,airplane,2-3-10,1368_eid_s03_2-3-10_airplane_10_n02690373_1416.JPEG
subject-03,2,89,0.561592102050781,keyboard,chair,8-0-10,1369_eid_s03_8-0-10_chair_10_n04099969_2574.JPEG
subject-03,2,90,0.826189041137695,bicycle,bird,2-0-10,1370_eid_s03_2-0-10_bird_10_n01560419_5520.JPEG
subject-03,2,91,0.568928003311157,chair,bottle,64-3-10,1371_eid_s03_64-3-10_bottle_10_n04591713_3327.JPEG
subject-03,2,92,0.570888996124268,car,dog,16-0-10,1372_eid_s03_16-0-10_dog_10_n02100735_3037.JPEG
subject-03,2,93,0.645908117294312,oven,boat,16-3-10,1373_eid_s03_16-3-10_boat_10_n03662601_15723.JPEG
subject-03,2,94,0.675152778625488,bear,airplane,32-3-10,1374_eid_s03_32-3-10_airplane_10_n02690373_4119.JPEG
subject-03,2,95,0.700939893722534,bear,truck,64-3-10,1375_eid_s03_64-3-10_truck_10_n03796401_19153.JPEG
subject-03,2,96,0.559955835342407,oven,bicycle,128-10-10,1376_eid_s03_128-10-10_bicycle_10_n03792782_8217.JPEG
subject-03,2,97,0.86299204826355,bird,bird,4-0-10,1377_eid_s03_4-0-10_bird_10_n02002724_7957.JPEG
subject-03,2,98,0.813559055328369,knife,knife,2-0-10,1378_eid_s03_2-0-10_knife_10_n03041632_30553.JPEG
subject-03,2,99,NaN,na,chair,1-10-10,1379_eid_s03_1-10-10_chair_10_n04429376_21254.JPEG
subject-03,2,100,0.630000114440918,truck,truck,1-10-10,1380_eid_s03_1-10-10_truck_10_n04467665_68137.JPEG
subject-03,2,101,0.47999906539917,oven,bird,128-0-10,1381_eid_s03_128-0-10_bird_10_n02027492_5950.JPEG
subject-03,2,102,0.55231499671936,cat,cat,4-10-10,1382_eid_s03_4-10-10_cat_10_n02123159_4033.JPEG
subject-03,2,103,1.01009178161621,car,car,2-0-10,1383_eid_s03_2-0-10_car_10_n03100240_14799.JPEG
subject-03,2,104,0.520228147506714,oven,chair,64-0-10,1384_eid_s03_64-0-10_chair_10_n04429376_31768.JPEG
subject-03,2,105,0.584851026535034,keyboard,keyboard,2-10-10,1385_eid_s03_2-10-10_keyboard_10_n03085013_25559.JPEG
subject-03,2,106,0.773597955703735,boat,chair,16-10-10,1386_eid_s03_16-10-10_chair_10_n04429376_3903.JPEG
subject-03,2,107,0.761948823928833,bear,oven,16-10-10,1387_eid_s03_16-10-10_oven_10_n04111531_14903.JPEG
subject-03,2,108,0.674542903900146,cat,boat,16-3-10,1388_eid_s03_16-3-10_boat_10_n04273569_1652.JPEG
subject-03,2,109,0.976929187774658,elephant,elephant,1-10-10,1389_eid_s03_1-10-10_elephant_10_n02504458_5384.JPEG
subject-03,2,110,0.967995882034302,bird,bird,8-0-10,1390_eid_s03_8-0-10_bird_10_n01818515_26453.JPEG
subject-03,2,111,0.708273887634277,oven,knife,16-3-10,1391_eid_s03_16-3-10_knife_10_n03041632_92637.JPEG
subject-03,2,112,0.649328947067261,keyboard,clock,16-3-10,1392_eid_s03_16-3-10_clock_10_n04548280_2273.JPEG
subject-03,2,113,1.50032877922058,bottle,bottle,8-0-10,1393_eid_s03_8-0-10_bottle_10_n04579145_3900.JPEG
subject-03,2,114,0.903008937835693,keyboard,boat,16-3-10,1394_eid_s03_16-3-10_boat_10_n04273569_6569.JPEG
subject-03,2,115,0.642007827758789,cat,bear,128-3-10,1395_eid_s03_128-3-10_bear_10_n02133161_4192.JPEG
subject-03,2,116,0.483514070510864,boat,bird,16-3-10,1396_eid_s03_16-3-10_bird_10_n01796340_9685.JPEG
subject-03,2,117,0.594089984893799,oven,oven,16-3-10,1397_eid_s03_16-3-10_oven_10_n04111531_1398.JPEG
subject-03,2,118,0.482510089874268,boat,cat,128-3-10,1398_eid_s03_128-3-10_cat_10_n02124075_583.JPEG
subject-03,2,119,0.738946199417114,airplane,airplane,1-3-10,1399_eid_s03_1-3-10_airplane_10_n02690373_9759.JPEG
subject-03,2,120,0.735512018203735,boat,bear,128-3-10,1400_eid_s03_128-3-10_bear_10_n02134084_5079.JPEG
subject-03,2,121,0.515812158584595,oven,boat,32-3-10,1401_eid_s03_32-3-10_boat_10_n04612504_33307.JPEG
subject-03,2,122,0.734840869903564,airplane,boat,64-10-10,1402_eid_s03_64-10-10_boat_10_n04273569_846.JPEG
subject-03,2,123,0.615172863006592,car,oven,16-0-10,1403_eid_s03_16-0-10_oven_10_n04111531_1922.JPEG
subject-03,2,124,0.711090087890625,dog,oven,8-0-10,1404_eid_s03_8-0-10_oven_10_n04111531_19742.JPEG
subject-03,2,125,1.09203600883484,car,car,2-10-10,1405_eid_s03_2-10-10_car_10_n04285008_3552.JPEG
subject-03,2,126,0.84067702293396,bottle,oven,2-10-10,1406_eid_s03_2-10-10_oven_10_n04111531_22886.JPEG
subject-03,2,127,0.737545013427734,bear,bear,4-10-10,1407_eid_s03_4-10-10_bear_10_n02134084_18815.JPEG
subject-03,2,128,0.826313972473145,car,car,1-0-10,1408_eid_s03_1-0-10_car_10_n03100240_3336.JPEG
subject-03,2,129,0.830631017684937,oven,chair,32-3-10,1409_eid_s03_32-3-10_chair_10_n02791124_9763.JPEG
subject-03,2,130,0.6631178855896,keyboard,keyboard,128-0-10,1410_eid_s03_128-0-10_keyboard_10_n04505470_3002.JPEG
subject-03,2,131,0.789248943328857,bird,bird,2-0-10,1411_eid_s03_2-0-10_bird_10_n02018207_1606.JPEG
subject-03,2,132,1.07723689079285,car,oven,32-10-10,1412_eid_s03_32-10-10_oven_10_n04111531_6080.JPEG
subject-03,2,133,0.624726057052612,boat,boat,8-0-10,1413_eid_s03_8-0-10_boat_10_n04612504_15870.JPEG
subject-03,2,134,0.589310169219971,bear,bear,16-10-10,1414_eid_s03_16-10-10_bear_10_n02134084_14417.JPEG
subject-03,2,135,1.44502711296082,bicycle,bicycle,2-3-10,1415_eid_s03_2-3-10_bicycle_10_n03792782_6839.JPEG
subject-03,2,136,0.917563915252686,knife,knife,8-10-10,1416_eid_s03_8-10-10_knife_10_n03041632_9406.JPEG
subject-03,2,137,0.69856595993042,keyboard,bear,32-0-10,1417_eid_s03_32-0-10_bear_10_n02133161_10715.JPEG
subject-03,2,138,0.871495008468628,elephant,clock,128-3-10,1418_eid_s03_128-3-10_clock_10_n03196217_2859.JPEG
subject-03,2,139,0.676275968551636,bottle,oven,64-0-10,1419_eid_s03_64-0-10_oven_10_n04111531_190.JPEG
subject-03,2,140,0.7032470703125,boat,airplane,128-10-10,1420_eid_s03_128-10-10_airplane_10_n02690373_4350.JPEG
subject-03,2,141,0.653542995452881,keyboard,cat,32-3-10,1421_eid_s03_32-3-10_cat_10_n02124075_12286.JPEG
subject-03,2,142,0.780056953430176,airplane,dog,128-3-10,1422_eid_s03_128-3-10_dog_10_n02097474_17344.JPEG
subject-03,2,143,0.512150049209595,oven,oven,8-10-10,1423_eid_s03_8-10-10_oven_10_n04111531_22291.JPEG
subject-03,2,144,0.87668514251709,bird,bird,16-10-10,1424_eid_s03_16-10-10_bird_10_n01843065_458.JPEG
subject-03,2,145,1.01867699623108,knife,truck,2-10-10,1425_eid_s03_2-10-10_truck_10_n03417042_3039.JPEG
subject-03,2,146,0.783732891082764,bicycle,oven,1-10-10,1426_eid_s03_1-10-10_oven_10_n04111531_804.JPEG
subject-03,2,147,0.734390020370483,bottle,bottle,1-0-10,1427_eid_s03_1-0-10_bottle_10_n04557648_7766.JPEG
subject-03,2,148,0.606572151184082,boat,dog,64-0-10,1428_eid_s03_64-0-10_dog_10_n02086240_2870.JPEG
subject-03,2,149,0.970617055892944,airplane,boat,16-10-10,1429_eid_s03_16-10-10_boat_10_n02951358_3016.JPEG
subject-03,2,150,0.664989948272705,boat,boat,32-3-10,1430_eid_s03_32-3-10_boat_10_n04612504_1595.JPEG
subject-03,2,151,0.945873975753784,airplane,oven,1-10-10,1431_eid_s03_1-10-10_oven_10_n04111531_11935.JPEG
subject-03,2,152,1.04228210449219,bear,bear,8-10-10,1432_eid_s03_8-10-10_bear_10_n02134418_1452.JPEG
subject-03,2,153,0.631563901901245,boat,boat,2-0-10,1433_eid_s03_2-0-10_boat_10_n04273569_5276.JPEG
subject-03,2,154,0.832465887069702,oven,keyboard,2-0-10,1434_eid_s03_2-0-10_keyboard_10_n04505470_4944.JPEG
subject-03,2,155,0.881109952926636,dog,dog,8-10-10,1435_eid_s03_8-10-10_dog_10_n02101556_15293.JPEG
subject-03,2,156,0.855320930480957,car,bear,32-3-10,1436_eid_s03_32-3-10_bear_10_n02132136_4696.JPEG
subject-03,2,157,0.825547933578491,bottle,bottle,4-10-10,1437_eid_s03_4-10-10_bottle_10_n02823428_10726.JPEG
subject-03,2,158,0.84431004524231,bicycle,bicycle,1-3-10,1438_eid_s03_1-3-10_bicycle_10_n02835271_2753.JPEG
subject-03,2,159,0.994575023651123,car,car,16-10-10,1439_eid_s03_16-10-10_car_10_n03100240_6311.JPEG
subject-03,2,160,0.912796974182129,bottle,bottle,32-10-10,1440_eid_s03_32-10-10_bottle_10_n04557648_2164.JPEG
subject-03,2,161,0.728108167648315,chair,bottle,8-0-10,1441_eid_s03_8-0-10_bottle_10_n03937543_793.JPEG
subject-03,2,162,0.792727947235107,car,car,16-0-10,1442_eid_s03_16-0-10_car_10_n04285008_1584.JPEG
subject-03,2,163,0.756819009780884,bear,bicycle,128-10-10,1443_eid_s03_128-10-10_bicycle_10_n02835271_4789.JPEG
subject-03,2,164,0.653272151947021,clock,clock,8-10-10,1444_eid_s03_8-10-10_clock_10_n04548280_11763.JPEG
subject-03,2,165,0.624799013137817,bird,bird,4-3-10,1445_eid_s03_4-3-10_bird_10_n01622779_1364.JPEG
subject-03,2,166,0.705751895904541,cat,cat,4-3-10,1446_eid_s03_4-3-10_cat_10_n02123597_5573.JPEG
subject-03,2,167,0.829370975494385,elephant,truck,32-0-10,1447_eid_s03_32-0-10_truck_10_n03796401_20093.JPEG
subject-03,2,168,0.77179217338562,chair,bicycle,16-3-10,1448_eid_s03_16-3-10_bicycle_10_n03792782_51686.JPEG
subject-03,2,169,0.47395396232605,oven,truck,128-10-10,1449_eid_s03_128-10-10_truck_10_n04467665_23173.JPEG
subject-03,2,170,0.924695014953613,bird,dog,128-10-10,1450_eid_s03_128-10-10_dog_10_n02085936_8240.JPEG
subject-03,2,171,0.740419864654541,car,dog,128-10-10,1451_eid_s03_128-10-10_dog_10_n02107908_7002.JPEG
subject-03,2,172,0.761368989944458,bird,bird,1-10-10,1452_eid_s03_1-10-10_bird_10_n01798484_11357.JPEG
subject-03,2,173,0.656006097793579,elephant,chair,64-10-10,1453_eid_s03_64-10-10_chair_10_n03376595_4937.JPEG
subject-03,2,174,0.873771190643311,boat,boat,4-3-10,1454_eid_s03_4-3-10_boat_10_n02951358_14612.JPEG
subject-03,2,175,1.31647610664368,dog,dog,8-3-10,1455_eid_s03_8-3-10_dog_10_n02097658_1316.JPEG
subject-03,2,176,0.743124008178711,cat,knife,64-3-10,1456_eid_s03_64-3-10_knife_10_n03041632_33198.JPEG
subject-03,2,177,NaN,na,cat,16-0-10,1457_eid_s03_16-0-10_cat_10_n02124075_15405.JPEG
subject-03,2,178,0.671419858932495,bird,chair,64-10-10,1458_eid_s03_64-10-10_chair_10_n04099969_12279.JPEG
subject-03,2,179,1.3440408706665,elephant,elephant,2-3-10,1459_eid_s03_2-3-10_elephant_10_n02504458_7337.JPEG
subject-03,2,180,0.638455152511597,airplane,boat,16-0-10,1460_eid_s03_16-0-10_boat_10_n03662601_1503.JPEG
subject-03,2,181,0.677628040313721,car,cat,16-3-10,1461_eid_s03_16-3-10_cat_10_n02125311_24985.JPEG
subject-03,2,182,0.673937082290649,elephant,elephant,8-10-10,1462_eid_s03_8-10-10_elephant_10_n02504458_5470.JPEG
subject-03,2,183,0.900576114654541,bicycle,bicycle,8-3-10,1463_eid_s03_8-3-10_bicycle_10_n02835271_21989.JPEG
subject-03,2,184,0.978579998016357,cat,bear,4-0-10,1464_eid_s03_4-0-10_bear_10_n02133161_12316.JPEG
subject-03,2,185,0.821038007736206,elephant,elephant,2-3-10,1465_eid_s03_2-3-10_elephant_10_n02504013_1132.JPEG
subject-03,2,186,0.510208129882812,boat,elephant,64-3-10,1466_eid_s03_64-3-10_elephant_10_n02504013_730.JPEG
subject-03,2,187,0.648882865905762,elephant,elephant,1-0-10,1467_eid_s03_1-0-10_elephant_10_n02504013_9407.JPEG
subject-03,2,188,0.975828886032104,bear,bottle,128-3-10,1468_eid_s03_128-3-10_bottle_10_n04591713_65.JPEG
subject-03,2,189,0.623867988586426,car,car,32-0-10,1469_eid_s03_32-0-10_car_10_n02814533_95618.JPEG
subject-03,2,190,1.30272889137268,bird,boat,4-0-10,1470_eid_s03_4-0-10_boat_10_n03662601_23903.JPEG
subject-03,2,191,0.812336206436157,bird,keyboard,32-3-10,1471_eid_s03_32-3-10_keyboard_10_n03085013_16724.JPEG
subject-03,2,192,0.783381938934326,oven,bird,16-0-10,1472_eid_s03_16-0-10_bird_10_n02018795_6879.JPEG
subject-03,2,193,1.07083415985107,dog,dog,1-10-10,1473_eid_s03_1-10-10_dog_10_n02106382_7971.JPEG
subject-03,2,194,0.872082948684692,truck,truck,8-10-10,1474_eid_s03_8-10-10_truck_10_n03417042_17862.JPEG
subject-03,2,195,0.94411301612854,bicycle,elephant,16-10-10,1475_eid_s03_16-10-10_elephant_10_n02504013_3979.JPEG
subject-03,2,196,0.783530950546265,oven,boat,128-3-10,1476_eid_s03_128-3-10_boat_10_n02951358_4876.JPEG
subject-03,2,197,NaN,na,elephant,1-10-10,1477_eid_s03_1-10-10_elephant_10_n02504013_5899.JPEG
subject-03,2,198,0.772295951843262,bear,bear,1-0-10,1478_eid_s03_1-0-10_bear_10_n02132136_1132.JPEG
subject-03,2,199,0.714972019195557,airplane,airplane,2-10-10,1479_eid_s03_2-10-10_airplane_10_n02690373_736.JPEG
subject-03,2,200,0.820166826248169,oven,bicycle,64-3-10,1480_eid_s03_64-3-10_bicycle_10_n03792782_5012.JPEG
subject-03,2,201,0.697419166564941,oven,bottle,64-3-10,1481_eid_s03_64-3-10_bottle_10_n04557648_26823.JPEG
subject-03,2,202,0.716031074523926,bear,truck,64-10-10,1482_eid_s03_64-10-10_truck_10_n03417042_2794.JPEG
subject-03,2,203,0.826389074325562,clock,knife,1-3-10,1483_eid_s03_1-3-10_knife_10_n03041632_50423.JPEG
subject-03,2,204,0.860888004302979,knife,oven,128-0-10,1484_eid_s03_128-0-10_oven_10_n04111531_3063.JPEG
subject-03,2,205,0.80157995223999,bear,bear,4-0-10,1485_eid_s03_4-0-10_bear_10_n02134084_1536.JPEG
subject-03,2,206,0.498242855072021,oven,airplane,128-0-10,1486_eid_s03_128-0-10_airplane_10_n02690373_5032.JPEG
subject-03,2,207,0.822877168655396,bear,knife,16-0-10,1487_eid_s03_16-0-10_knife_10_n03041632_84240.JPEG
subject-03,2,208,0.725997924804688,cat,car,64-3-10,1488_eid_s03_64-3-10_car_10_n04285008_12659.JPEG
subject-03,2,209,0.575662851333618,bear,elephant,4-10-10,1489_eid_s03_4-10-10_elephant_10_n02504013_1298.JPEG
subject-03,2,210,0.95586109161377,truck,truck,2-3-10,1490_eid_s03_2-3-10_truck_10_n04467665_69076.JPEG
subject-03,2,211,0.926949977874756,elephant,elephant,1-10-10,1491_eid_s03_1-10-10_elephant_10_n02504458_1698.JPEG
subject-03,2,212,1.11560988426208,bear,keyboard,32-10-10,1492_eid_s03_32-10-10_keyboard_10_n03085013_23552.JPEG
subject-03,2,213,0.618473052978516,cat,dog,1-3-10,1493_eid_s03_1-3-10_dog_10_n02105855_13850.JPEG
subject-03,2,214,0.568892002105713,oven,oven,16-0-10,1494_eid_s03_16-0-10_oven_10_n04111531_6756.JPEG
subject-03,2,215,0.693371057510376,car,car,16-3-10,1495_eid_s03_16-3-10_car_10_n02814533_20788.JPEG
subject-03,2,216,0.903035163879395,clock,cat,128-3-10,1496_eid_s03_128-3-10_cat_10_n02123394_2004.JPEG
subject-03,2,217,0.77130389213562,elephant,elephant,4-0-10,1497_eid_s03_4-0-10_elephant_10_n02504458_6443.JPEG
subject-03,2,218,1.1821460723877,keyboard,keyboard,2-0-10,1498_eid_s03_2-0-10_keyboard_10_n04505470_3022.JPEG
subject-03,2,219,0.698044776916504,airplane,elephant,128-10-10,1499_eid_s03_128-10-10_elephant_10_n02504013_1099.JPEG
subject-03,2,220,0.800307035446167,airplane,truck,32-10-10,1500_eid_s03_32-10-10_truck_10_n03417042_4655.JPEG
subject-03,2,221,0.672949075698853,bear,elephant,32-0-10,1501_eid_s03_32-0-10_elephant_10_n02504458_6834.JPEG
subject-03,2,222,0.683703899383545,car,clock,128-10-10,1502_eid_s03_128-10-10_clock_10_n04548280_4118.JPEG
subject-03,2,223,0.717834949493408,bird,oven,128-3-10,1503_eid_s03_128-3-10_oven_10_n04111531_498.JPEG
subject-03,2,224,0.766290187835693,oven,oven,32-10-10,1504_eid_s03_32-10-10_oven_10_n04111531_7338.JPEG
subject-03,2,225,0.807358026504517,bear,bird,2-0-10,1505_eid_s03_2-0-10_bird_10_n01534433_14970.JPEG
subject-03,2,226,0.617664098739624,bicycle,oven,64-0-10,1506_eid_s03_64-0-10_oven_10_n04111531_7034.JPEG
subject-03,2,227,0.77435302734375,oven,bicycle,64-10-10,1507_eid_s03_64-10-10_bicycle_10_n03792782_7864.JPEG
subject-03,2,228,0.909069061279297,chair,chair,128-0-10,1508_eid_s03_128-0-10_chair_10_n02791124_266.JPEG
subject-03,2,229,1.2816960811615,cat,clock,8-3-10,1509_eid_s03_8-3-10_clock_10_n04548280_8277.JPEG
subject-03,2,230,0.984197854995728,bird,bottle,8-0-10,1510_eid_s03_8-0-10_bottle_10_n03937543_10215.JPEG
subject-03,2,231,0.815893173217773,car,boat,128-0-10,1511_eid_s03_128-0-10_boat_10_n03662601_34496.JPEG
subject-03,2,232,1.18029499053955,truck,truck,4-3-10,1512_eid_s03_4-3-10_truck_10_n04467665_79576.JPEG
subject-03,2,233,0.628777980804443,cat,bottle,16-0-10,1513_eid_s03_16-0-10_bottle_10_n04560804_692.JPEG
subject-03,2,234,0.831509113311768,cat,oven,32-0-10,1514_eid_s03_32-0-10_oven_10_n04111531_8603.JPEG
subject-03,2,235,0.679900169372559,bear,cat,16-3-10,1515_eid_s03_16-3-10_cat_10_n02123159_7284.JPEG
subject-03,2,236,0.544028043746948,keyboard,elephant,32-0-10,1516_eid_s03_32-0-10_elephant_10_n02504013_2228.JPEG
subject-03,2,237,0.75417685508728,keyboard,keyboard,2-10-10,1517_eid_s03_2-10-10_keyboard_10_n04505470_6800.JPEG
subject-03,2,238,0.686259031295776,cat,cat,16-10-10,1518_eid_s03_16-10-10_cat_10_n02123159_7976.JPEG
subject-03,2,239,0.728966951370239,truck,truck,2-10-10,1519_eid_s03_2-10-10_truck_10_n03417042_6373.JPEG
subject-03,2,240,0.852477073669434,bottle,chair,4-10-10,1520_eid_s03_4-10-10_chair_10_n04099969_5346.JPEG
subject-03,2,241,0.716744899749756,cat,clock,128-10-10,1521_eid_s03_128-10-10_clock_10_n04548280_4588.JPEG
subject-03,2,242,0.527748823165894,boat,bottle,32-3-10,1522_eid_s03_32-3-10_bottle_10_n04557648_1254.JPEG
subject-03,2,243,0.783423900604248,clock,bird,2-3-10,1523_eid_s03_2-3-10_bird_10_n01817953_36030.JPEG
subject-03,2,244,0.708486080169678,keyboard,keyboard,2-3-10,1524_eid_s03_2-3-10_keyboard_10_n04505470_9570.JPEG
subject-03,2,245,0.711019039154053,boat,boat,8-3-10,1525_eid_s03_8-3-10_boat_10_n04273569_11645.JPEG
subject-03,2,246,0.659869909286499,boat,bird,16-10-10,1526_eid_s03_16-10-10_bird_10_n01817953_303.JPEG
subject-03,2,247,0.893907070159912,clock,clock,2-0-10,1527_eid_s03_2-0-10_clock_10_n02708093_7929.JPEG
subject-03,2,248,0.828881978988647,truck,truck,8-10-10,1528_eid_s03_8-10-10_truck_10_n04467665_83590.JPEG
subject-03,2,249,1.01513409614563,car,bear,32-0-10,1529_eid_s03_32-0-10_bear_10_n02134084_10971.JPEG
subject-03,2,250,1.13981604576111,cat,bottle,16-0-10,1530_eid_s03_16-0-10_bottle_10_n04591713_1390.JPEG
subject-03,2,251,0.696329832077026,bottle,oven,4-0-10,1531_eid_s03_4-0-10_oven_10_n04111531_22784.JPEG
subject-03,2,252,0.630902051925659,chair,truck,128-3-10,1532_eid_s03_128-3-10_truck_10_n03417042_2211.JPEG
subject-03,2,253,0.654597997665405,elephant,elephant,4-3-10,1533_eid_s03_4-3-10_elephant_10_n02504013_5390.JPEG
subject-03,2,254,0.664989948272705,cat,elephant,32-3-10,1534_eid_s03_32-3-10_elephant_10_n02504013_2233.JPEG
subject-03,2,255,0.51241397857666,oven,bicycle,32-3-10,1535_eid_s03_32-3-10_bicycle_10_n03792782_4373.JPEG
subject-03,2,256,0.545228004455566,oven,keyboard,8-3-10,1536_eid_s03_8-3-10_keyboard_10_n03085013_22605.JPEG
subject-03,2,257,0.7568199634552,cat,clock,8-0-10,1537_eid_s03_8-0-10_clock_10_n03196217_1510.JPEG
subject-03,2,258,0.821513175964355,boat,bird,128-10-10,1538_eid_s03_128-10-10_bird_10_n02002556_4520.JPEG
subject-03,2,259,0.848281145095825,bicycle,chair,1-10-10,1539_eid_s03_1-10-10_chair_10_n03376595_25.JPEG
subject-03,2,260,0.695945978164673,cat,chair,32-3-10,1540_eid_s03_32-3-10_chair_10_n04429376_1326.JPEG
subject-03,2,261,0.56076717376709,oven,elephant,16-3-10,1541_eid_s03_16-3-10_elephant_10_n02504013_8972.JPEG
subject-03,2,262,0.747972965240479,bird,clock,128-10-10,1542_eid_s03_128-10-10_clock_10_n03196217_10936.JPEG
subject-03,2,263,1.09016799926758,boat,boat,16-10-10,1543_eid_s03_16-10-10_boat_10_n03662601_23876.JPEG
subject-03,2,264,0.714728116989136,car,car,2-10-10,1544_eid_s03_2-10-10_car_10_n04285008_9232.JPEG
subject-03,2,265,0.931480884552002,knife,knife,4-3-10,1545_eid_s03_4-3-10_knife_10_n03041632_383.JPEG
subject-03,2,266,0.694839000701904,cat,cat,64-10-10,1546_eid_s03_64-10-10_cat_10_n02123159_968.JPEG
subject-03,2,267,0.984373807907104,bird,cat,2-3-10,1547_eid_s03_2-3-10_cat_10_n02123394_5907.JPEG
subject-03,2,268,0.754230976104736,car,bear,4-0-10,1548_eid_s03_4-0-10_bear_10_n02132136_8556.JPEG
subject-03,2,269,0.640149116516113,oven,keyboard,128-10-10,1549_eid_s03_128-10-10_keyboard_10_n03085013_30335.JPEG
subject-03,2,270,0.710697174072266,oven,knife,16-0-10,1550_eid_s03_16-0-10_knife_10_n03041632_15299.JPEG
subject-03,2,271,0.480226039886475,boat,boat,1-0-10,1551_eid_s03_1-0-10_boat_10_n04612504_3064.JPEG
subject-03,2,272,0.531430006027222,oven,elephant,64-0-10,1552_eid_s03_64-0-10_elephant_10_n02504013_6549.JPEG
subject-03,2,273,0.809290170669556,boat,dog,8-0-10,1553_eid_s03_8-0-10_dog_10_n02110806_6492.JPEG
subject-03,2,274,0.795632123947144,keyboard,truck,64-10-10,1554_eid_s03_64-10-10_truck_10_n04467665_53969.JPEG
subject-03,2,275,0.776498079299927,bottle,keyboard,1-10-10,1555_eid_s03_1-10-10_keyboard_10_n03085013_20673.JPEG
subject-03,2,276,0.855312824249268,elephant,elephant,16-10-10,1556_eid_s03_16-10-10_elephant_10_n02504458_1735.JPEG
subject-03,2,277,0.973619937896729,bear,bear,16-10-10,1557_eid_s03_16-10-10_bear_10_n02134418_280.JPEG
subject-03,2,278,0.814115047454834,car,boat,64-10-10,1558_eid_s03_64-10-10_boat_10_n03344393_7107.JPEG
subject-03,2,279,0.813820123672485,bottle,bottle,2-3-10,1559_eid_s03_2-3-10_bottle_10_n03983396_2746.JPEG
subject-03,2,280,0.732341051101685,oven,bottle,128-10-10,1560_eid_s03_128-10-10_bottle_10_n04591713_1548.JPEG
subject-03,2,281,0.864533185958862,knife,knife,2-0-10,1561_eid_s03_2-0-10_knife_10_n03041632_41310.JPEG
subject-03,2,282,0.672237157821655,cat,cat,4-0-10,1562_eid_s03_4-0-10_cat_10_n02124075_2986.JPEG
subject-03,2,283,0.760986089706421,airplane,airplane,4-10-10,1563_eid_s03_4-10-10_airplane_10_n02690373_5374.JPEG
subject-03,2,284,0.915141105651855,car,airplane,4-3-10,1564_eid_s03_4-3-10_airplane_10_n02690373_1732.JPEG
subject-03,2,285,0.741297006607056,oven,bottle,128-10-10,1565_eid_s03_128-10-10_bottle_10_n04579145_5458.JPEG
subject-03,2,286,0.752065181732178,bicycle,bicycle,4-10-10,1566_eid_s03_4-10-10_bicycle_10_n03792782_264.JPEG
subject-03,2,287,0.601227998733521,oven,bear,32-0-10,1567_eid_s03_32-0-10_bear_10_n02134084_18582.JPEG
subject-03,2,288,0.917693853378296,truck,truck,1-0-10,1568_eid_s03_1-0-10_truck_10_n04467665_71086.JPEG
subject-03,2,289,0.919534921646118,bird,bicycle,16-3-10,1569_eid_s03_16-3-10_bicycle_10_n03792782_8374.JPEG
subject-03,2,290,0.997036933898926,dog,bottle,64-0-10,1570_eid_s03_64-0-10_bottle_10_n03983396_4455.JPEG
subject-03,2,291,0.859745979309082,bottle,chair,32-3-10,1571_eid_s03_32-3-10_chair_10_n04429376_19617.JPEG
subject-03,2,292,0.91601300239563,chair,keyboard,128-3-10,1572_eid_s03_128-3-10_keyboard_10_n04505470_4534.JPEG
subject-03,2,293,1.04226207733154,elephant,truck,64-3-10,1573_eid_s03_64-3-10_truck_10_n04467665_66754.JPEG
subject-03,2,294,0.704866170883179,keyboard,keyboard,4-0-10,1574_eid_s03_4-0-10_keyboard_10_n04505470_4748.JPEG
subject-03,2,295,0.791332960128784,oven,car,16-0-10,1575_eid_s03_16-0-10_car_10_n02814533_19287.JPEG
subject-03,2,296,0.517478942871094,boat,bear,8-3-10,1576_eid_s03_8-3-10_bear_10_n02132136_10175.JPEG
subject-03,2,297,0.857929944992065,airplane,bird,128-10-10,1577_eid_s03_128-10-10_bird_10_n01798484_20771.JPEG
subject-03,2,298,0.783115863800049,bottle,bottle,1-3-10,1578_eid_s03_1-3-10_bottle_10_n04591713_2818.JPEG
subject-03,2,299,0.879951000213623,keyboard,clock,8-10-10,1579_eid_s03_8-10-10_clock_10_n03196217_7931.JPEG
subject-03,2,300,0.725880146026611,car,airplane,16-0-10,1580_eid_s03_16-0-10_airplane_10_n02690373_6336.JPEG
subject-03,2,301,0.814664125442505,cat,cat,2-10-10,1581_eid_s03_2-10-10_cat_10_n02123159_6052.JPEG
subject-03,2,302,0.86077880859375,elephant,elephant,1-3-10,1582_eid_s03_1-3-10_elephant_10_n02504013_6973.JPEG
subject-03,2,303,NaN,na,boat,32-0-10,1583_eid_s03_32-0-10_boat_10_n03662601_20834.JPEG
subject-03,2,304,0.990413188934326,car,bottle,4-10-10,1584_eid_s03_4-10-10_bottle_10_n04560804_17315.JPEG
subject-03,2,305,0.715063095092773,boat,keyboard,128-10-10,1585_eid_s03_128-10-10_keyboard_10_n03085013_18851.JPEG
subject-03,2,306,0.925356149673462,bear,cat,128-10-10,1586_eid_s03_128-10-10_cat_10_n02124075_9291.JPEG
subject-03,2,307,0.641942024230957,oven,oven,32-3-10,1587_eid_s03_32-3-10_oven_10_n04111531_4155.JPEG
subject-03,2,308,0.698607921600342,keyboard,elephant,128-3-10,1588_eid_s03_128-3-10_elephant_10_n02504458_5190.JPEG
subject-03,2,309,1.02315211296082,knife,knife,8-3-10,1589_eid_s03_8-3-10_knife_10_n03041632_6309.JPEG
subject-03,2,310,0.833337783813477,cat,bird,4-3-10,1590_eid_s03_4-3-10_bird_10_n01820546_6199.JPEG
subject-03,2,311,0.474108934402466,bird,airplane,64-3-10,1591_eid_s03_64-3-10_airplane_10_n02690373_1644.JPEG
subject-03,2,312,0.792520999908447,knife,knife,2-10-10,1592_eid_s03_2-10-10_knife_10_n03041632_29920.JPEG
subject-03,2,313,0.725182056427002,truck,truck,2-3-10,1593_eid_s03_2-3-10_truck_10_n04467665_51501.JPEG
subject-03,2,314,0.610177040100098,cat,cat,1-10-10,1594_eid_s03_1-10-10_cat_10_n02123159_4973.JPEG
subject-03,2,315,0.727224111557007,truck,truck,8-10-10,1595_eid_s03_8-10-10_truck_10_n03417042_4349.JPEG
subject-03,2,316,0.751791954040527,cat,boat,32-0-10,1596_eid_s03_32-0-10_boat_10_n04612504_8062.JPEG
subject-03,2,317,1.03851890563965,knife,knife,1-0-10,1597_eid_s03_1-0-10_knife_10_n03041632_1964.JPEG
subject-03,2,318,0.618762016296387,cat,dog,16-0-10,1598_eid_s03_16-0-10_dog_10_n02098286_5424.JPEG
subject-03,2,319,0.827699899673462,car,car,4-0-10,1599_eid_s03_4-0-10_car_10_n02814533_8345.JPEG
subject-03,2,320,0.653610944747925,oven,car,128-0-10,1600_eid_s03_128-0-10_car_10_n02814533_48895.JPEG
subject-03,2,321,0.686208009719849,boat,airplane,8-0-10,1601_eid_s03_8-0-10_airplane_10_n02690373_2908.JPEG
subject-03,2,322,0.618820905685425,cat,oven,8-3-10,1602_eid_s03_8-3-10_oven_10_n04111531_14848.JPEG
subject-03,2,323,0.905046224594116,oven,elephant,16-0-10,1603_eid_s03_16-0-10_elephant_10_n02504458_2595.JPEG
subject-03,2,324,0.661246061325073,airplane,airplane,2-3-10,1604_eid_s03_2-3-10_airplane_10_n02690373_3377.JPEG
subject-03,2,325,0.794291019439697,clock,bear,64-3-10,1605_eid_s03_64-3-10_bear_10_n02133161_4830.JPEG
subject-03,2,326,0.688896894454956,cat,oven,32-0-10,1606_eid_s03_32-0-10_oven_10_n04111531_3159.JPEG
subject-03,2,327,0.976034879684448,chair,chair,2-10-10,1607_eid_s03_2-10-10_chair_10_n04429376_29463.JPEG
subject-03,2,328,0.746201992034912,oven,cat,16-0-10,1608_eid_s03_16-0-10_cat_10_n02123597_12953.JPEG
subject-03,2,329,0.66454005241394,clock,truck,64-3-10,1609_eid_s03_64-3-10_truck_10_n03417042_10105.JPEG
subject-03,2,330,0.82719898223877,airplane,keyboard,2-0-10,1610_eid_s03_2-0-10_keyboard_10_n04505470_1118.JPEG
subject-03,2,331,0.691756963729858,clock,oven,128-3-10,1611_eid_s03_128-3-10_oven_10_n04111531_9939.JPEG
subject-03,2,332,1.18593788146973,bottle,knife,8-0-10,1612_eid_s03_8-0-10_knife_10_n03041632_14442.JPEG
subject-03,2,333,0.988354921340942,bottle,bottle,4-10-10,1613_eid_s03_4-10-10_bottle_10_n03983396_17777.JPEG
subject-03,2,334,1.2804958820343,oven,oven,8-3-10,1614_eid_s03_8-3-10_oven_10_n04111531_15683.JPEG
subject-03,2,335,0.950780153274536,bottle,knife,16-10-10,1615_eid_s03_16-10-10_knife_10_n03041632_21017.JPEG
subject-03,2,336,0.639427900314331,truck,truck,4-10-10,1616_eid_s03_4-10-10_truck_10_n04467665_2451.JPEG
subject-03,2,337,0.577887773513794,bottle,clock,32-0-10,1617_eid_s03_32-0-10_clock_10_n03196217_4916.JPEG
subject-03,2,338,0.835063934326172,elephant,elephant,16-10-10,1618_eid_s03_16-10-10_elephant_10_n02504013_1094.JPEG
subject-03,2,339,0.666867017745972,bottle,bottle,4-10-10,1619_eid_s03_4-10-10_bottle_10_n03983396_16710.JPEG
subject-03,2,340,NaN,na,truck,32-0-10,1620_eid_s03_32-0-10_truck_10_n03417042_3448.JPEG
subject-03,2,341,0.725921154022217,dog,dog,1-3-10,1621_eid_s03_1-3-10_dog_10_n02093428_2785.JPEG
subject-03,2,342,0.920617818832397,elephant,elephant,32-10-10,1622_eid_s03_32-10-10_elephant_10_n02504013_3708.JPEG
subject-03,2,343,0.891319036483765,bird,bird,1-0-10,1623_eid_s03_1-0-10_bird_10_n01798484_6184.JPEG
subject-03,2,344,0.79351806640625,oven,oven,1-10-10,1624_eid_s03_1-10-10_oven_10_n04111531_9314.JPEG
subject-03,2,345,0.546217918395996,boat,boat,16-0-10,1625_eid_s03_16-0-10_boat_10_n04612504_9162.JPEG
subject-03,2,346,0.674367189407349,bird,elephant,64-3-10,1626_eid_s03_64-3-10_elephant_10_n02504458_5827.JPEG
subject-03,2,347,0.753001928329468,keyboard,keyboard,16-0-10,1627_eid_s03_16-0-10_keyboard_10_n03085013_24363.JPEG
subject-03,2,348,0.645390033721924,airplane,cat,128-0-10,1628_eid_s03_128-0-10_cat_10_n02125311_19053.JPEG
subject-03,2,349,0.907455921173096,boat,knife,128-10-10,1629_eid_s03_128-10-10_knife_10_n03041632_40508.JPEG
subject-03,2,350,0.926676034927368,boat,boat,1-3-10,1630_eid_s03_1-3-10_boat_10_n02951358_14015.JPEG
subject-03,2,351,0.758961915969849,bird,bird,1-10-10,1631_eid_s03_1-10-10_bird_10_n02013706_8336.JPEG
subject-03,2,352,0.659195184707642,clock,car,16-0-10,1632_eid_s03_16-0-10_car_10_n04285008_8666.JPEG
subject-03,2,353,0.661673784255981,boat,airplane,128-10-10,1633_eid_s03_128-10-10_airplane_10_n02690373_1038.JPEG
subject-03,2,354,0.948222160339355,cat,bird,32-3-10,1634_eid_s03_32-3-10_bird_10_n01622779_6289.JPEG
subject-03,2,355,0.742208003997803,elephant,chair,64-3-10,1635_eid_s03_64-3-10_chair_10_n02791124_7424.JPEG
subject-03,2,356,0.715461015701294,chair,chair,1-0-10,1636_eid_s03_1-0-10_chair_10_n04429376_8881.JPEG
subject-03,2,357,0.618353843688965,car,car,1-3-10,1637_eid_s03_1-3-10_car_10_n04285008_9354.JPEG
subject-03,2,358,NaN,na,oven,128-0-10,1638_eid_s03_128-0-10_oven_10_n04111531_8793.JPEG
subject-03,2,359,0.799936056137085,truck,bird,64-10-10,1639_eid_s03_64-10-10_bird_10_n02002724_1654.JPEG
subject-03,2,360,0.732752799987793,bear,bear,2-0-10,1640_eid_s03_2-0-10_bear_10_n02133161_5964.JPEG
subject-03,2,361,0.580870866775513,bird,clock,128-0-10,1641_eid_s03_128-0-10_clock_10_n04548280_47.JPEG
subject-03,2,362,0.974804878234863,car,bear,64-0-10,1642_eid_s03_64-0-10_bear_10_n02134084_11993.JPEG
subject-03,2,363,0.840150117874146,truck,truck,4-10-10,1643_eid_s03_4-10-10_truck_10_n03417042_11595.JPEG
subject-03,2,364,0.848365068435669,knife,knife,8-10-10,1644_eid_s03_8-10-10_knife_10_n03041632_11887.JPEG
subject-03,2,365,0.728756189346313,boat,clock,64-0-10,1645_eid_s03_64-0-10_clock_10_n03196217_1038.JPEG
subject-03,2,366,0.806694030761719,boat,bear,2-0-10,1646_eid_s03_2-0-10_bear_10_n02134084_7256.JPEG
subject-03,2,367,0.501936912536621,oven,truck,16-3-10,1647_eid_s03_16-3-10_truck_10_n03417042_8935.JPEG
subject-03,2,368,0.580729961395264,boat,bird,64-3-10,1648_eid_s03_64-3-10_bird_10_n02025239_1041.JPEG
subject-03,2,369,0.758709192276001,oven,bottle,16-3-10,1649_eid_s03_16-3-10_bottle_10_n04591713_1126.JPEG
subject-03,2,370,0.982908964157104,clock,clock,2-0-10,1650_eid_s03_2-0-10_clock_10_n04548280_1327.JPEG
subject-03,2,371,0.664060831069946,boat,elephant,64-0-10,1651_eid_s03_64-0-10_elephant_10_n02504458_6799.JPEG
subject-03,2,372,0.812221050262451,airplane,airplane,1-3-10,1652_eid_s03_1-3-10_airplane_10_n02690373_18864.JPEG
subject-03,2,373,0.591202020645142,boat,chair,64-10-10,1653_eid_s03_64-10-10_chair_10_n03376595_2351.JPEG
subject-03,2,374,1.01588296890259,bird,bird,4-0-10,1654_eid_s03_4-0-10_bird_10_n01558993_7.JPEG
subject-03,2,375,1.07261490821838,knife,keyboard,4-0-10,1655_eid_s03_4-0-10_keyboard_10_n03085013_18756.JPEG
subject-03,2,376,0.51279091835022,clock,clock,4-10-10,1656_eid_s03_4-10-10_clock_10_n04548280_2451.JPEG
subject-03,2,377,0.600191116333008,clock,clock,1-10-10,1657_eid_s03_1-10-10_clock_10_n02708093_2546.JPEG
subject-03,2,378,0.965312004089355,oven,bicycle,64-3-10,1658_eid_s03_64-3-10_bicycle_10_n03792782_692.JPEG
subject-03,2,379,1.17358303070068,bicycle,bicycle,4-10-10,1659_eid_s03_4-10-10_bicycle_10_n03792782_22760.JPEG
subject-03,2,380,0.835279941558838,truck,truck,2-3-10,1660_eid_s03_2-3-10_truck_10_n03417042_5691.JPEG
subject-03,2,381,0.683712959289551,airplane,airplane,1-3-10,1661_eid_s03_1-3-10_airplane_10_n02690373_20350.JPEG
subject-03,2,382,0.692092895507812,cat,cat,128-10-10,1662_eid_s03_128-10-10_cat_10_n02123394_2811.JPEG
subject-03,2,383,0.686018943786621,bottle,bottle,4-0-10,1663_eid_s03_4-0-10_bottle_10_n04557648_3350.JPEG
subject-03,2,384,0.756965160369873,car,car,4-0-10,1664_eid_s03_4-0-10_car_10_n03100240_2619.JPEG
subject-03,2,385,0.675868034362793,cat,cat,1-0-10,1665_eid_s03_1-0-10_cat_10_n02123159_4335.JPEG
subject-03,2,386,1.36782479286194,clock,oven,16-10-10,1666_eid_s03_16-10-10_oven_10_n04111531_9041.JPEG
subject-03,2,387,0.586405992507935,clock,elephant,128-0-10,1667_eid_s03_128-0-10_elephant_10_n02504013_6645.JPEG
subject-03,2,388,0.964798927307129,keyboard,keyboard,4-0-10,1668_eid_s03_4-0-10_keyboard_10_n04505470_5161.JPEG
subject-03,2,389,0.48177695274353,oven,bottle,32-0-10,1669_eid_s03_32-0-10_bottle_10_n03983396_6589.JPEG
subject-03,2,390,NaN,na,oven,128-0-10,1670_eid_s03_128-0-10_oven_10_n04111531_22749.JPEG
subject-03,2,391,0.569991111755371,clock,boat,4-3-10,1671_eid_s03_4-3-10_boat_10_n03662601_2584.JPEG
subject-03,2,392,0.732666015625,bird,bird,4-10-10,1672_eid_s03_4-10-10_bird_10_n01820546_6798.JPEG
subject-03,2,393,0.948791980743408,bicycle,bicycle,2-10-10,1673_eid_s03_2-10-10_bicycle_10_n02835271_2228.JPEG
subject-03,2,394,0.622045993804932,bird,bird,4-10-10,1674_eid_s03_4-10-10_bird_10_n01820546_72.JPEG
subject-03,2,395,0.884156942367554,bird,bird,2-3-10,1675_eid_s03_2-3-10_bird_10_n01530575_40173.JPEG
subject-03,2,396,0.762248039245605,cat,knife,8-0-10,1676_eid_s03_8-0-10_knife_10_n03041632_11700.JPEG
subject-03,2,397,0.703200101852417,cat,oven,32-3-10,1677_eid_s03_32-3-10_oven_10_n04111531_4370.JPEG
subject-03,2,398,0.659853935241699,cat,dog,64-0-10,1678_eid_s03_64-0-10_dog_10_n02097658_1813.JPEG
subject-03,2,399,0.622726202011108,cat,cat,4-0-10,1679_eid_s03_4-0-10_cat_10_n02124075_15943.JPEG
subject-03,2,400,0.701205015182495,cat,elephant,16-3-10,1680_eid_s03_16-3-10_elephant_10_n02504458_7827.JPEG
subject-03,2,401,NaN,na,car,8-3-10,1681_eid_s03_8-3-10_car_10_n03100240_4187.JPEG
subject-03,2,402,0.635380029678345,keyboard,keyboard,8-10-10,1682_eid_s03_8-10-10_keyboard_10_n04505470_2389.JPEG
subject-03,2,403,0.973892211914062,bicycle,bicycle,16-10-10,1683_eid_s03_16-10-10_bicycle_10_n02835271_1665.JPEG
subject-03,2,404,0.630298137664795,boat,keyboard,64-0-10,1684_eid_s03_64-0-10_keyboard_10_n04505470_8018.JPEG
subject-03,2,405,0.968892097473145,boat,boat,32-10-10,1685_eid_s03_32-10-10_boat_10_n02951358_355.JPEG
subject-03,2,406,0.592246055603027,cat,dog,16-10-10,1686_eid_s03_16-10-10_dog_10_n02094258_5616.JPEG
subject-03,2,407,0.978507995605469,cat,dog,8-3-10,1687_eid_s03_8-3-10_dog_10_n02102177_2232.JPEG
subject-03,2,408,0.797132015228271,oven,keyboard,32-0-10,1688_eid_s03_32-0-10_keyboard_10_n03085013_19055.JPEG
subject-03,2,409,0.613744974136353,oven,truck,32-0-10,1689_eid_s03_32-0-10_truck_10_n03417042_8552.JPEG
subject-03,2,410,0.7758629322052,clock,clock,8-0-10,1690_eid_s03_8-0-10_clock_10_n03196217_775.JPEG
subject-03,2,411,1.00009679794312,cat,clock,32-0-10,1691_eid_s03_32-0-10_clock_10_n04548280_338.JPEG
subject-03,2,412,0.570096969604492,bird,truck,128-0-10,1692_eid_s03_128-0-10_truck_10_n03417042_6654.JPEG
subject-03,2,413,0.764364957809448,car,car,64-3-10,1693_eid_s03_64-3-10_car_10_n02814533_5430.JPEG
subject-03,2,414,0.721490859985352,airplane,airplane,2-0-10,1694_eid_s03_2-0-10_airplane_10_n02690373_2730.JPEG
subject-03,2,415,0.58381199836731,cat,keyboard,16-0-10,1695_eid_s03_16-0-10_keyboard_10_n03085013_2625.JPEG
subject-03,2,416,0.632421016693115,chair,elephant,128-3-10,1696_eid_s03_128-3-10_elephant_10_n02504458_6702.JPEG
subject-03,2,417,1.44877505302429,clock,keyboard,32-0-10,1697_eid_s03_32-0-10_keyboard_10_n04505470_264.JPEG
subject-03,2,418,0.773612976074219,bear,bird,64-0-10,1698_eid_s03_64-0-10_bird_10_n02002724_4786.JPEG
subject-03,2,419,0.996412038803101,airplane,airplane,8-10-10,1699_eid_s03_8-10-10_airplane_10_n02690373_1563.JPEG
subject-03,2,420,0.743228912353516,elephant,elephant,2-3-10,1700_eid_s03_2-3-10_elephant_10_n02504458_5204.JPEG
subject-03,2,421,0.662061929702759,cat,dog,128-10-10,1701_eid_s03_128-10-10_dog_10_n02097047_1609.JPEG
subject-03,2,422,0.624627113342285,bicycle,bicycle,4-10-10,1702_eid_s03_4-10-10_bicycle_10_n02835271_19143.JPEG
subject-03,2,423,1.03527593612671,bottle,bottle,1-3-10,1703_eid_s03_1-3-10_bottle_10_n03937543_4020.JPEG
subject-03,2,424,0.927052974700928,clock,chair,32-10-10,1704_eid_s03_32-10-10_chair_10_n04429376_4941.JPEG
subject-03,2,425,0.718477964401245,boat,chair,32-3-10,1705_eid_s03_32-3-10_chair_10_n04429376_3845.JPEG
subject-03,2,426,0.829773902893066,elephant,elephant,2-3-10,1706_eid_s03_2-3-10_elephant_10_n02504458_4647.JPEG
subject-03,2,427,1.11663293838501,bird,bird,8-3-10,1707_eid_s03_8-3-10_bird_10_n01560419_9071.JPEG
subject-03,2,428,0.862791061401367,oven,oven,2-3-10,1708_eid_s03_2-3-10_oven_10_n04111531_18979.JPEG
subject-03,2,429,0.533427953720093,cat,bicycle,32-3-10,1709_eid_s03_32-3-10_bicycle_10_n03792782_50569.JPEG
subject-03,2,430,1.24156999588013,bird,bird,1-10-10,1710_eid_s03_1-10-10_bird_10_n02013706_7306.JPEG
subject-03,2,431,0.896985054016113,clock,clock,4-10-10,1711_eid_s03_4-10-10_clock_10_n02708093_8390.JPEG
subject-03,2,432,0.805890083312988,airplane,airplane,2-3-10,1712_eid_s03_2-3-10_airplane_10_n02690373_220.JPEG
subject-03,2,433,0.670510053634644,cat,cat,8-0-10,1713_eid_s03_8-0-10_cat_10_n02123159_1611.JPEG
subject-03,2,434,0.624864101409912,boat,boat,16-3-10,1714_eid_s03_16-3-10_boat_10_n04273569_1607.JPEG
subject-03,2,435,0.5573890209198,oven,chair,64-10-10,1715_eid_s03_64-10-10_chair_10_n04429376_41983.JPEG
subject-03,2,436,0.697841882705688,boat,chair,128-10-10,1716_eid_s03_128-10-10_chair_10_n04099969_13096.JPEG
subject-03,2,437,0.943521976470947,bicycle,bicycle,8-3-10,1717_eid_s03_8-3-10_bicycle_10_n03792782_9920.JPEG
subject-03,2,438,0.876116991043091,bird,dog,4-0-10,1718_eid_s03_4-0-10_dog_10_n02105251_7883.JPEG
subject-03,2,439,0.79277515411377,bicycle,bicycle,4-3-10,1719_eid_s03_4-3-10_bicycle_10_n03792782_6250.JPEG
subject-03,2,440,0.66364312171936,cat,truck,64-0-10,1720_eid_s03_64-0-10_truck_10_n03417042_23296.JPEG
subject-03,2,441,1.21849489212036,elephant,keyboard,128-10-10,1721_eid_s03_128-10-10_keyboard_10_n03085013_26171.JPEG
subject-03,2,442,0.882817983627319,cat,knife,32-0-10,1722_eid_s03_32-0-10_knife_10_n03041632_13509.JPEG
subject-03,2,443,0.753581047058105,bottle,bottle,2-3-10,1723_eid_s03_2-3-10_bottle_10_n03937543_7767.JPEG
subject-03,2,444,0.936934947967529,bicycle,oven,4-3-10,1724_eid_s03_4-3-10_oven_10_n04111531_19126.JPEG
subject-03,2,445,0.745335817337036,bottle,bottle,1-3-10,1725_eid_s03_1-3-10_bottle_10_n04591713_6984.JPEG
subject-03,2,446,0.994063854217529,car,bird,64-0-10,1726_eid_s03_64-0-10_bird_10_n01824575_3108.JPEG
subject-03,2,447,1.04030704498291,bear,bear,1-3-10,1727_eid_s03_1-3-10_bear_10_n02132136_6598.JPEG
subject-03,2,448,0.735190868377686,cat,keyboard,128-0-10,1728_eid_s03_128-0-10_keyboard_10_n03085013_3859.JPEG
subject-03,2,449,1.08956003189087,cat,chair,32-0-10,1729_eid_s03_32-0-10_chair_10_n02791124_6243.JPEG
subject-03,2,450,0.630549907684326,cat,bear,64-10-10,1730_eid_s03_64-10-10_bear_10_n02133161_6802.JPEG
subject-03,2,451,0.670053005218506,cat,bird,16-3-10,1731_eid_s03_16-3-10_bird_10_n01833805_6713.JPEG
subject-03,2,452,0.808088064193726,cat,knife,1-3-10,1732_eid_s03_1-3-10_knife_10_n03041632_24384.JPEG
subject-03,2,453,0.840622901916504,airplane,airplane,4-0-10,1733_eid_s03_4-0-10_airplane_10_n02690373_4225.JPEG
subject-03,2,454,1.09580016136169,knife,keyboard,8-0-10,1734_eid_s03_8-0-10_keyboard_10_n03085013_11854.JPEG
subject-03,2,455,0.873969078063965,airplane,keyboard,16-0-10,1735_eid_s03_16-0-10_keyboard_10_n03085013_24568.JPEG
subject-03,2,456,0.668248891830444,airplane,dog,64-0-10,1736_eid_s03_64-0-10_dog_10_n02107142_18380.JPEG
subject-03,2,457,0.93590784072876,knife,bird,64-0-10,1737_eid_s03_64-0-10_bird_10_n02013706_6865.JPEG
subject-03,2,458,0.854517221450806,clock,bicycle,32-10-10,1738_eid_s03_32-10-10_bicycle_10_n03792782_3275.JPEG
subject-03,2,459,0.684803009033203,car,car,8-10-10,1739_eid_s03_8-10-10_car_10_n02814533_55937.JPEG
subject-03,2,460,0.80935001373291,boat,bird,8-0-10,1740_eid_s03_8-0-10_bird_10_n01819313_2929.JPEG
subject-03,2,461,0.64954400062561,cat,cat,8-3-10,1741_eid_s03_8-3-10_cat_10_n02123597_749.JPEG
subject-03,2,462,1.00416803359985,bear,bear,2-10-10,1742_eid_s03_2-10-10_bear_10_n02134418_2660.JPEG
subject-03,2,463,0.90656590461731,elephant,elephant,1-10-10,1743_eid_s03_1-10-10_elephant_10_n02504458_9420.JPEG
subject-03,2,464,0.647264957427979,cat,bicycle,64-3-10,1744_eid_s03_64-3-10_bicycle_10_n02835271_25790.JPEG
subject-03,2,465,0.947921991348267,bird,airplane,8-3-10,1745_eid_s03_8-3-10_airplane_10_n02690373_9427.JPEG
subject-03,2,466,0.740160942077637,car,car,8-0-10,1746_eid_s03_8-0-10_car_10_n04285008_4696.JPEG
subject-03,2,467,0.627108812332153,cat,cat,64-10-10,1747_eid_s03_64-10-10_cat_10_n02123597_4357.JPEG
subject-03,2,468,0.713279008865356,clock,clock,1-3-10,1748_eid_s03_1-3-10_clock_10_n03196217_9176.JPEG
subject-03,2,469,1.03032493591309,clock,clock,128-10-10,1749_eid_s03_128-10-10_clock_10_n03196217_6999.JPEG
subject-03,2,470,0.595141887664795,bird,bird,4-0-10,1750_eid_s03_4-0-10_bird_10_n01843065_6365.JPEG
subject-03,2,471,0.708550930023193,bird,boat,32-3-10,1751_eid_s03_32-3-10_boat_10_n03662601_614.JPEG
subject-03,2,472,0.757192850112915,bird,bird,64-10-10,1752_eid_s03_64-10-10_bird_10_n01828970_5978.JPEG
subject-03,2,473,0.765498876571655,keyboard,keyboard,8-10-10,1753_eid_s03_8-10-10_keyboard_10_n04505470_713.JPEG
subject-03,2,474,0.874361991882324,knife,knife,4-10-10,1754_eid_s03_4-10-10_knife_10_n03041632_30602.JPEG
subject-03,2,475,0.722594976425171,bicycle,bicycle,1-10-10,1755_eid_s03_1-10-10_bicycle_10_n03792782_5944.JPEG
subject-03,2,476,0.685950994491577,bird,bird,8-10-10,1756_eid_s03_8-10-10_bird_10_n01622779_2424.JPEG
subject-03,2,477,1.01839900016785,knife,keyboard,16-3-10,1757_eid_s03_16-3-10_keyboard_10_n03085013_18672.JPEG
subject-03,2,478,0.588972091674805,oven,keyboard,128-0-10,1758_eid_s03_128-0-10_keyboard_10_n03085013_21707.JPEG
subject-03,2,479,0.851310968399048,bird,keyboard,32-10-10,1759_eid_s03_32-10-10_keyboard_10_n03085013_22893.JPEG
subject-03,2,480,0.854243993759155,bear,bird,4-10-10,1760_eid_s03_4-10-10_bird_10_n01828970_9743.JPEG
subject-03,2,481,0.608328104019165,bird,bird,32-10-10,1761_eid_s03_32-10-10_bird_10_n01829413_673.JPEG
subject-03,2,482,0.678865909576416,cat,knife,32-10-10,1762_eid_s03_32-10-10_knife_10_n03041632_94202.JPEG
subject-03,2,483,0.673709869384766,bird,truck,32-3-10,1763_eid_s03_32-3-10_truck_10_n04467665_22217.JPEG
subject-03,2,484,0.544294118881226,boat,boat,8-3-10,1764_eid_s03_8-3-10_boat_10_n03662601_26557.JPEG
subject-03,2,485,0.673836946487427,oven,boat,128-0-10,1765_eid_s03_128-0-10_boat_10_n02951358_2641.JPEG
subject-03,2,486,0.87453293800354,knife,chair,8-0-10,1766_eid_s03_8-0-10_chair_10_n04429376_50302.JPEG
subject-03,2,487,0.784731149673462,bear,bear,32-10-10,1767_eid_s03_32-10-10_bear_10_n02134418_5020.JPEG
subject-03,2,488,0.569610834121704,cat,clock,16-0-10,1768_eid_s03_16-0-10_clock_10_n03196217_1687.JPEG
subject-03,2,489,0.717964172363281,boat,boat,4-3-10,1769_eid_s03_4-3-10_boat_10_n03344393_251.JPEG
subject-03,2,490,0.656589984893799,cat,truck,64-0-10,1770_eid_s03_64-0-10_truck_10_n03417042_7633.JPEG
subject-03,2,491,0.873013019561768,truck,truck,2-3-10,1771_eid_s03_2-3-10_truck_10_n03796401_4119.JPEG
subject-03,2,492,0.872912883758545,bear,boat,32-10-10,1772_eid_s03_32-10-10_boat_10_n03662601_5600.JPEG
subject-03,2,493,0.689604043960571,cat,bear,64-10-10,1773_eid_s03_64-10-10_bear_10_n02133161_15797.JPEG
subject-03,2,494,0.693279981613159,oven,dog,32-0-10,1774_eid_s03_32-0-10_dog_10_n02095570_10597.JPEG
subject-03,2,495,0.823188066482544,elephant,elephant,8-3-10,1775_eid_s03_8-3-10_elephant_10_n02504458_2557.JPEG
subject-03,2,496,0.706891059875488,clock,clock,2-0-10,1776_eid_s03_2-0-10_clock_10_n04548280_3125.JPEG
subject-03,2,497,0.769567966461182,bear,bear,4-3-10,1777_eid_s03_4-3-10_bear_10_n02134418_2899.JPEG
subject-03,2,498,0.948857069015503,bird,bird,2-10-10,1778_eid_s03_2-10-10_bird_10_n01530575_10734.JPEG
subject-03,2,499,0.794772863388062,airplane,airplane,2-0-10,1779_eid_s03_2-0-10_airplane_10_n02690373_5427.JPEG
subject-03,2,500,0.665460109710693,clock,clock,16-0-10,1780_eid_s03_16-0-10_clock_10_n02708093_5169.JPEG
subject-03,2,501,1.2787389755249,oven,oven,2-0-10,1781_eid_s03_2-0-10_oven_10_n04111531_12980.JPEG
subject-03,2,502,0.719328880310059,car,car,2-10-10,1782_eid_s03_2-10-10_car_10_n02814533_10268.JPEG
subject-03,2,503,0.857778072357178,knife,knife,1-0-10,1783_eid_s03_1-0-10_knife_10_n03041632_46422.JPEG
subject-03,2,504,0.874786138534546,truck,truck,2-10-10,1784_eid_s03_2-10-10_truck_10_n04467665_18621.JPEG
subject-03,2,505,0.836955785751343,airplane,airplane,4-3-10,1785_eid_s03_4-3-10_airplane_10_n02690373_427.JPEG
subject-03,2,506,0.631437063217163,cat,dog,2-3-10,1786_eid_s03_2-3-10_dog_10_n02088632_8868.JPEG
subject-03,2,507,NaN,na,truck,32-3-10,1787_eid_s03_32-3-10_truck_10_n03796401_24309.JPEG
subject-03,2,508,0.978738069534302,oven,oven,2-3-10,1788_eid_s03_2-3-10_oven_10_n04111531_10710.JPEG
subject-03,2,509,0.733294010162354,clock,bottle,64-3-10,1789_eid_s03_64-3-10_bottle_10_n04591713_8028.JPEG
subject-03,2,510,0.950043916702271,chair,chair,1-3-10,1790_eid_s03_1-3-10_chair_10_n03376595_1556.JPEG
subject-03,2,511,0.782477140426636,bird,bird,2-3-10,1791_eid_s03_2-3-10_bird_10_n02037110_22735.JPEG
subject-03,2,512,0.675009965896606,bear,clock,32-3-10,1792_eid_s03_32-3-10_clock_10_n04548280_3022.JPEG
subject-03,2,513,0.562316179275513,oven,boat,64-10-10,1793_eid_s03_64-10-10_boat_10_n04612504_10864.JPEG
subject-03,2,514,0.702524900436401,clock,oven,16-3-10,1794_eid_s03_16-3-10_oven_10_n04111531_8082.JPEG
subject-03,2,515,0.511229038238525,boat,elephant,64-10-10,1795_eid_s03_64-10-10_elephant_10_n02504013_7170.JPEG
subject-03,2,516,0.779788017272949,chair,chair,4-3-10,1796_eid_s03_4-3-10_chair_10_n02791124_2712.JPEG
subject-03,2,517,0.633439064025879,truck,truck,8-0-10,1797_eid_s03_8-0-10_truck_10_n03796401_2226.JPEG
subject-03,2,518,0.749942064285278,elephant,elephant,2-0-10,1798_eid_s03_2-0-10_elephant_10_n02504458_7762.JPEG
subject-03,2,519,0.720461130142212,keyboard,truck,128-0-10,1799_eid_s03_128-0-10_truck_10_n03796401_4057.JPEG
subject-03,2,520,0.674871206283569,oven,airplane,16-0-10,1800_eid_s03_16-0-10_airplane_10_n02690373_8791.JPEG
subject-03,2,521,0.599309921264648,clock,airplane,128-3-10,1801_eid_s03_128-3-10_airplane_10_n02690373_3698.JPEG
subject-03,2,522,0.608227014541626,keyboard,keyboard,4-10-10,1802_eid_s03_4-10-10_keyboard_10_n03085013_23439.JPEG
subject-03,2,523,0.792616844177246,keyboard,keyboard,1-10-10,1803_eid_s03_1-10-10_keyboard_10_n04505470_1375.JPEG
subject-03,2,524,0.816689014434814,oven,oven,1-0-10,1804_eid_s03_1-0-10_oven_10_n04111531_12468.JPEG
subject-03,2,525,0.525666952133179,clock,airplane,64-3-10,1805_eid_s03_64-3-10_airplane_10_n02690373_4055.JPEG
subject-03,2,526,0.679938077926636,airplane,airplane,2-0-10,1806_eid_s03_2-0-10_airplane_10_n02690373_10114.JPEG
subject-03,2,527,1.13447690010071,bird,bird,1-10-10,1807_eid_s03_1-10-10_bird_10_n01843065_1795.JPEG
subject-03,2,528,0.929695129394531,bicycle,bicycle,1-0-10,1808_eid_s03_1-0-10_bicycle_10_n03792782_41388.JPEG
subject-03,2,529,0.738278150558472,bird,clock,32-10-10,1809_eid_s03_32-10-10_clock_10_n04548280_1203.JPEG
subject-03,2,530,0.742968082427979,airplane,airplane,8-10-10,1810_eid_s03_8-10-10_airplane_10_n02690373_10207.JPEG
subject-03,2,531,0.883820056915283,bird,knife,128-10-10,1811_eid_s03_128-10-10_knife_10_n03041632_46112.JPEG
subject-03,2,532,0.82190990447998,elephant,elephant,16-3-10,1812_eid_s03_16-3-10_elephant_10_n02504458_11353.JPEG
subject-03,2,533,0.684371948242188,bear,elephant,64-10-10,1813_eid_s03_64-10-10_elephant_10_n02504458_3250.JPEG
subject-03,2,534,0.869565010070801,bird,bird,1-3-10,1814_eid_s03_1-3-10_bird_10_n01531178_3090.JPEG
subject-03,2,535,0.677567005157471,oven,oven,2-10-10,1815_eid_s03_2-10-10_oven_10_n04111531_15852.JPEG
subject-03,2,536,0.64832592010498,clock,bottle,8-10-10,1816_eid_s03_8-10-10_bottle_10_n03937543_3496.JPEG
subject-03,2,537,0.65669584274292,bird,bird,1-0-10,1817_eid_s03_1-0-10_bird_10_n01843065_3100.JPEG
subject-03,2,538,0.635601997375488,boat,airplane,64-0-10,1818_eid_s03_64-0-10_airplane_10_n02690373_1005.JPEG
subject-03,2,539,0.736237049102783,airplane,airplane,32-10-10,1819_eid_s03_32-10-10_airplane_10_n02690373_2525.JPEG
subject-03,2,540,0.858054161071777,cat,dog,4-10-10,1820_eid_s03_4-10-10_dog_10_n02097047_2167.JPEG
subject-03,2,541,0.668832063674927,bear,knife,128-10-10,1821_eid_s03_128-10-10_knife_10_n03041632_9488.JPEG
subject-03,2,542,0.677733898162842,cat,cat,2-10-10,1822_eid_s03_2-10-10_cat_10_n02123597_3455.JPEG
subject-03,2,543,NaN,na,knife,8-0-10,1823_eid_s03_8-0-10_knife_10_n03041632_8563.JPEG
subject-03,2,544,0.656952857971191,bicycle,bicycle,1-3-10,1824_eid_s03_1-3-10_bicycle_10_n02835271_10202.JPEG
subject-03,2,545,0.774201154708862,bear,bear,2-3-10,1825_eid_s03_2-3-10_bear_10_n02134084_8363.JPEG
subject-03,2,546,0.620152950286865,boat,boat,1-10-10,1826_eid_s03_1-10-10_boat_10_n03662601_8285.JPEG
subject-03,2,547,0.891145944595337,bear,elephant,64-10-10,1827_eid_s03_64-10-10_elephant_10_n02504458_3677.JPEG
subject-03,2,548,0.974529027938843,boat,airplane,16-0-10,1828_eid_s03_16-0-10_airplane_10_n02690373_5149.JPEG
subject-03,2,549,0.767164945602417,airplane,airplane,16-10-10,1829_eid_s03_16-10-10_airplane_10_n02690373_194.JPEG
subject-03,2,550,0.591845035552979,boat,boat,8-0-10,1830_eid_s03_8-0-10_boat_10_n04273569_6309.JPEG
subject-03,2,551,0.753927946090698,clock,cat,8-0-10,1831_eid_s03_8-0-10_cat_10_n02123159_1565.JPEG
subject-03,2,552,0.585065841674805,boat,bear,32-0-10,1832_eid_s03_32-0-10_bear_10_n02133161_5669.JPEG
subject-03,2,553,1.04830098152161,truck,truck,1-0-10,1833_eid_s03_1-0-10_truck_10_n03417042_6811.JPEG
subject-03,2,554,0.680093050003052,cat,elephant,32-10-10,1834_eid_s03_32-10-10_elephant_10_n02504458_235.JPEG
subject-03,2,555,1.26469707489014,bicycle,dog,2-3-10,1835_eid_s03_2-3-10_dog_10_n02090622_2194.JPEG
subject-03,2,556,0.880134105682373,cat,dog,2-3-10,1836_eid_s03_2-3-10_dog_10_n02110958_2656.JPEG
subject-03,2,557,0.765299081802368,airplane,airplane,4-0-10,1837_eid_s03_4-0-10_airplane_10_n02690373_1071.JPEG
subject-03,2,558,0.803972959518433,oven,truck,128-10-10,1838_eid_s03_128-10-10_truck_10_n03796401_17614.JPEG
subject-03,2,559,0.620347023010254,car,car,16-3-10,1839_eid_s03_16-3-10_car_10_n02814533_6716.JPEG
subject-03,2,560,0.682712078094482,boat,boat,2-0-10,1840_eid_s03_2-0-10_boat_10_n04612504_23136.JPEG
subject-03,2,561,1.09659004211426,chair,bear,1-0-10,1841_eid_s03_1-0-10_bear_10_n02133161_2173.JPEG
subject-03,2,562,0.76724100112915,clock,clock,16-10-10,1842_eid_s03_16-10-10_clock_10_n02708093_798.JPEG
subject-03,2,563,0.654092073440552,boat,cat,32-3-10,1843_eid_s03_32-3-10_cat_10_n02123159_1598.JPEG
subject-03,2,564,0.761995792388916,bicycle,bicycle,2-3-10,1844_eid_s03_2-3-10_bicycle_10_n02835271_9410.JPEG
subject-03,2,565,0.687416791915894,boat,knife,64-0-10,1845_eid_s03_64-0-10_knife_10_n03041632_18859.JPEG
subject-03,2,566,0.625746965408325,boat,bottle,128-0-10,1846_eid_s03_128-0-10_bottle_10_n03983396_2403.JPEG
subject-03,2,567,0.789074897766113,cat,car,64-3-10,1847_eid_s03_64-3-10_car_10_n02814533_90798.JPEG
subject-03,2,568,0.681023120880127,clock,knife,2-10-10,1848_eid_s03_2-10-10_knife_10_n03041632_28658.JPEG
subject-03,2,569,0.619560956954956,oven,airplane,128-10-10,1849_eid_s03_128-10-10_airplane_10_n02690373_20011.JPEG
subject-03,2,570,0.568149089813232,boat,boat,128-0-10,1850_eid_s03_128-0-10_boat_10_n03344393_3473.JPEG
subject-03,2,571,0.522777080535889,clock,elephant,2-0-10,1851_eid_s03_2-0-10_elephant_10_n02504458_2068.JPEG
subject-03,2,572,0.623378038406372,oven,oven,8-10-10,1852_eid_s03_8-10-10_oven_10_n04111531_11116.JPEG
subject-03,2,573,0.531535863876343,bottle,bottle,1-3-10,1853_eid_s03_1-3-10_bottle_10_n04557648_4072.JPEG
subject-03,2,574,0.748162984848022,boat,oven,128-10-10,1854_eid_s03_128-10-10_oven_10_n04111531_1938.JPEG
subject-03,2,575,0.707559108734131,boat,keyboard,64-3-10,1855_eid_s03_64-3-10_keyboard_10_n03085013_2508.JPEG
subject-03,2,576,0.977942943572998,bicycle,oven,4-10-10,1856_eid_s03_4-10-10_oven_10_n04111531_10724.JPEG
subject-03,2,577,1.0705509185791,knife,bottle,128-10-10,1857_eid_s03_128-10-10_bottle_10_n03983396_70.JPEG
subject-03,2,578,0.616782903671265,boat,bear,64-0-10,1858_eid_s03_64-0-10_bear_10_n02132136_5175.JPEG
subject-03,2,579,NaN,na,car,1-0-10,1859_eid_s03_1-0-10_car_10_n04285008_11815.JPEG
subject-03,2,580,0.931419134140015,boat,airplane,32-0-10,1860_eid_s03_32-0-10_airplane_10_n02690373_4198.JPEG
subject-03,2,581,NaN,na,dog,4-10-10,1861_eid_s03_4-10-10_dog_10_n02106662_54055.JPEG
subject-03,2,582,0.597393989562988,keyboard,keyboard,1-3-10,1862_eid_s03_1-3-10_keyboard_10_n03085013_1808.JPEG
subject-03,2,583,1.07393717765808,dog,cat,4-0-10,1863_eid_s03_4-0-10_cat_10_n02124075_5848.JPEG
subject-03,2,584,0.681864023208618,bicycle,bicycle,8-10-10,1864_eid_s03_8-10-10_bicycle_10_n03792782_892.JPEG
subject-03,2,585,0.774461984634399,cat,knife,32-0-10,1865_eid_s03_32-0-10_knife_10_n03041632_55711.JPEG
subject-03,2,586,0.783668041229248,boat,car,64-3-10,1866_eid_s03_64-3-10_car_10_n04285008_7332.JPEG
subject-03,2,587,0.944046974182129,cat,chair,16-0-10,1867_eid_s03_16-0-10_chair_10_n04429376_9000.JPEG
subject-03,2,588,0.805712938308716,cat,cat,8-10-10,1868_eid_s03_8-10-10_cat_10_n02123045_1662.JPEG
subject-03,2,589,1.24426412582397,dog,bicycle,2-0-10,1869_eid_s03_2-0-10_bicycle_10_n02835271_9049.JPEG
subject-03,2,590,1.36101388931274,knife,knife,4-3-10,1870_eid_s03_4-3-10_knife_10_n03041632_41077.JPEG
subject-03,2,591,0.553826093673706,keyboard,keyboard,2-0-10,1871_eid_s03_2-0-10_keyboard_10_n04505470_5022.JPEG
subject-03,2,592,0.63245701789856,cat,knife,16-3-10,1872_eid_s03_16-3-10_knife_10_n03041632_101673.JPEG
subject-03,2,593,0.80333399772644,bicycle,truck,4-3-10,1873_eid_s03_4-3-10_truck_10_n04467665_45611.JPEG
subject-03,2,594,0.954917907714844,boat,chair,1-10-10,1874_eid_s03_1-10-10_chair_10_n03376595_10149.JPEG
subject-03,2,595,0.817128896713257,cat,elephant,32-3-10,1875_eid_s03_32-3-10_elephant_10_n02504013_476.JPEG
subject-03,2,596,0.737238883972168,cat,dog,128-10-10,1876_eid_s03_128-10-10_dog_10_n02088238_1194.JPEG
subject-03,2,597,0.593046903610229,cat,chair,32-10-10,1877_eid_s03_32-10-10_chair_10_n02791124_16264.JPEG
subject-03,2,598,0.609498023986816,cat,cat,128-10-10,1878_eid_s03_128-10-10_cat_10_n02123045_1150.JPEG
subject-03,2,599,0.61008095741272,clock,clock,2-3-10,1879_eid_s03_2-3-10_clock_10_n04548280_5043.JPEG
subject-03,2,600,0.61828088760376,cat,oven,8-0-10,1880_eid_s03_8-0-10_oven_10_n04111531_3191.JPEG
subject-03,2,601,0.957254886627197,airplane,airplane,8-0-10,1881_eid_s03_8-0-10_airplane_10_n02690373_19118.JPEG
subject-03,2,602,0.627677917480469,boat,boat,4-3-10,1882_eid_s03_4-3-10_boat_10_n02951358_8915.JPEG
subject-03,2,603,0.603759050369263,oven,oven,4-10-10,1883_eid_s03_4-10-10_oven_10_n04111531_2189.JPEG
subject-03,2,604,0.598314046859741,car,car,8-0-10,1884_eid_s03_8-0-10_car_10_n02814533_3511.JPEG
subject-03,2,605,0.804013967514038,truck,truck,2-10-10,1885_eid_s03_2-10-10_truck_10_n04467665_66535.JPEG
subject-03,2,606,0.791063070297241,cat,clock,32-0-10,1886_eid_s03_32-0-10_clock_10_n02708093_1665.JPEG
subject-03,2,607,0.613815069198608,cat,car,64-10-10,1887_eid_s03_64-10-10_car_10_n02814533_14121.JPEG
subject-03,2,608,1.07608819007874,bear,oven,128-10-10,1888_eid_s03_128-10-10_oven_10_n04111531_6387.JPEG
subject-03,2,609,0.914454936981201,truck,truck,2-3-10,1889_eid_s03_2-3-10_truck_10_n04467665_66772.JPEG
subject-03,2,610,0.946913003921509,cat,oven,64-10-10,1890_eid_s03_64-10-10_oven_10_n04111531_1674.JPEG
subject-03,2,611,0.585407972335815,bird,car,64-0-10,1891_eid_s03_64-0-10_car_10_n03100240_3468.JPEG
subject-03,2,612,0.785256147384644,bear,truck,128-0-10,1892_eid_s03_128-0-10_truck_10_n04467665_2230.JPEG
subject-03,2,613,0.716916084289551,oven,oven,32-3-10,1893_eid_s03_32-3-10_oven_10_n04111531_18949.JPEG
subject-03,2,614,0.70359206199646,clock,clock,1-10-10,1894_eid_s03_1-10-10_clock_10_n04548280_5273.JPEG
subject-03,2,615,0.680214881896973,cat,cat,16-3-10,1895_eid_s03_16-3-10_cat_10_n02123597_10425.JPEG
subject-03,2,616,0.734829902648926,airplane,airplane,1-10-10,1896_eid_s03_1-10-10_airplane_10_n02690373_6536.JPEG
subject-03,2,617,0.459507942199707,boat,bicycle,128-10-10,1897_eid_s03_128-10-10_bicycle_10_n02835271_7326.JPEG
subject-03,2,618,0.655569076538086,cat,chair,128-10-10,1898_eid_s03_128-10-10_chair_10_n04429376_16466.JPEG
subject-03,2,619,0.818330049514771,clock,knife,16-0-10,1899_eid_s03_16-0-10_knife_10_n03041632_34676.JPEG
subject-03,2,620,0.764554977416992,bear,bear,4-0-10,1900_eid_s03_4-0-10_bear_10_n02132136_24180.JPEG
subject-03,2,621,0.503766059875488,oven,chair,16-0-10,1901_eid_s03_16-0-10_chair_10_n04429376_6581.JPEG
subject-03,2,622,0.650270938873291,cat,bear,64-3-10,1902_eid_s03_64-3-10_bear_10_n02134418_2457.JPEG
subject-03,2,623,0.71245288848877,clock,clock,16-3-10,1903_eid_s03_16-3-10_clock_10_n04548280_9492.JPEG
subject-03,2,624,0.913110971450806,cat,bird,128-10-10,1904_eid_s03_128-10-10_bird_10_n01860187_1002.JPEG
subject-03,2,625,0.59234619140625,boat,elephant,8-3-10,1905_eid_s03_8-3-10_elephant_10_n02504458_8346.JPEG
subject-03,2,626,0.998563051223755,bear,knife,128-0-10,1906_eid_s03_128-0-10_knife_10_n03041632_2338.JPEG
subject-03,2,627,0.754878997802734,car,elephant,4-0-10,1907_eid_s03_4-0-10_elephant_10_n02504013_7032.JPEG
subject-03,2,628,0.985452890396118,truck,truck,1-3-10,1908_eid_s03_1-3-10_truck_10_n03417042_7755.JPEG
subject-03,2,629,0.911743879318237,cat,cat,4-3-10,1909_eid_s03_4-3-10_cat_10_n02125311_23076.JPEG
subject-03,2,630,1.22786593437195,bear,boat,16-10-10,1910_eid_s03_16-10-10_boat_10_n04612504_20125.JPEG
subject-03,2,631,0.72065806388855,bottle,bottle,4-3-10,1911_eid_s03_4-3-10_bottle_10_n03937543_11897.JPEG
subject-03,2,632,0.867218017578125,bird,bird,4-3-10,1912_eid_s03_4-3-10_bird_10_n01616318_3062.JPEG
subject-03,2,633,0.938122987747192,bear,clock,128-3-10,1913_eid_s03_128-3-10_clock_10_n03196217_8072.JPEG
subject-03,2,634,0.838831186294556,chair,chair,2-3-10,1914_eid_s03_2-3-10_chair_10_n04429376_49173.JPEG
subject-03,2,635,0.578963994979858,clock,truck,128-3-10,1915_eid_s03_128-3-10_truck_10_n03417042_24100.JPEG
subject-03,2,636,0.847384929656982,airplane,airplane,1-0-10,1916_eid_s03_1-0-10_airplane_10_n02690373_3100.JPEG
subject-03,2,637,0.534350872039795,boat,car,64-0-10,1917_eid_s03_64-0-10_car_10_n02814533_45594.JPEG
subject-03,2,638,0.902372121810913,bear,bicycle,16-3-10,1918_eid_s03_16-3-10_bicycle_10_n03792782_26044.JPEG
subject-03,2,639,1.19507694244385,truck,truck,4-0-10,1919_eid_s03_4-0-10_truck_10_n03417042_23468.JPEG
subject-03,2,640,0.941612005233765,bear,bear,4-10-10,1920_eid_s03_4-10-10_bear_10_n02132136_2121.JPEG
subject-03,2,641,0.727870941162109,bottle,boat,64-3-10,1921_eid_s03_64-3-10_boat_10_n04612504_17933.JPEG
subject-03,2,642,0.782661914825439,chair,dog,4-10-10,1922_eid_s03_4-10-10_dog_10_n02105162_97.JPEG
subject-03,2,643,0.783565044403076,elephant,elephant,16-0-10,1923_eid_s03_16-0-10_elephant_10_n02504013_1810.JPEG
subject-03,2,644,0.842607975006104,bottle,clock,16-10-10,1924_eid_s03_16-10-10_clock_10_n03196217_2563.JPEG
subject-03,2,645,0.697717905044556,truck,truck,16-10-10,1925_eid_s03_16-10-10_truck_10_n03796401_2025.JPEG
subject-03,2,646,0.84367299079895,bicycle,bird,64-3-10,1926_eid_s03_64-3-10_bird_10_n01797886_12214.JPEG
subject-03,2,647,1.19859313964844,bottle,dog,2-0-10,1927_eid_s03_2-0-10_dog_10_n02093991_3681.JPEG
subject-03,2,648,0.829138994216919,bicycle,bottle,32-0-10,1928_eid_s03_32-0-10_bottle_10_n04579145_6635.JPEG
subject-03,2,649,0.715900897979736,clock,airplane,32-3-10,1929_eid_s03_32-3-10_airplane_10_n02690373_9720.JPEG
subject-03,2,650,0.951344966888428,boat,clock,8-3-10,1930_eid_s03_8-3-10_clock_10_n02708093_1598.JPEG
subject-03,2,651,1.06695699691772,bear,dog,16-10-10,1931_eid_s03_16-10-10_dog_10_n02102318_15466.JPEG
subject-03,2,652,0.775863885879517,dog,bicycle,128-0-10,1932_eid_s03_128-0-10_bicycle_10_n03792782_11959.JPEG
subject-03,2,653,0.693673133850098,boat,elephant,128-10-10,1933_eid_s03_128-10-10_elephant_10_n02504013_2476.JPEG
subject-03,2,654,0.716097116470337,airplane,keyboard,8-3-10,1934_eid_s03_8-3-10_keyboard_10_n03085013_688.JPEG
subject-03,2,655,0.886634111404419,bicycle,bicycle,32-3-10,1935_eid_s03_32-3-10_bicycle_10_n03792782_3513.JPEG
subject-03,2,656,0.52503514289856,cat,cat,8-10-10,1936_eid_s03_8-10-10_cat_10_n02123597_14267.JPEG
subject-03,2,657,0.573840856552124,cat,cat,1-3-10,1937_eid_s03_1-3-10_cat_10_n02123597_7388.JPEG
subject-03,2,658,0.625890016555786,cat,cat,8-3-10,1938_eid_s03_8-3-10_cat_10_n02125311_4952.JPEG
subject-03,2,659,0.894234895706177,dog,dog,1-0-10,1939_eid_s03_1-0-10_dog_10_n02112350_5141.JPEG
subject-03,2,660,0.710960149765015,car,car,2-10-10,1940_eid_s03_2-10-10_car_10_n04285008_14972.JPEG
subject-03,2,661,0.781912088394165,cat,oven,32-10-10,1941_eid_s03_32-10-10_oven_10_n04111531_9411.JPEG
subject-03,2,662,0.819686889648438,bear,bear,1-10-10,1942_eid_s03_1-10-10_bear_10_n02132136_9171.JPEG
subject-03,2,663,0.827939033508301,cat,cat,128-3-10,1943_eid_s03_128-3-10_cat_10_n02123159_8079.JPEG
subject-03,2,664,0.988559007644653,knife,knife,4-3-10,1944_eid_s03_4-3-10_knife_10_n03041632_1407.JPEG
subject-03,2,665,0.612744092941284,clock,bottle,64-3-10,1945_eid_s03_64-3-10_bottle_10_n03937543_4220.JPEG
subject-03,2,666,0.664739847183228,chair,chair,1-10-10,1946_eid_s03_1-10-10_chair_10_n02791124_717.JPEG
subject-03,2,667,0.611208200454712,bear,bottle,32-10-10,1947_eid_s03_32-10-10_bottle_10_n04579145_4605.JPEG
subject-03,2,668,0.749598026275635,bottle,keyboard,8-10-10,1948_eid_s03_8-10-10_keyboard_10_n04505470_5042.JPEG
subject-03,2,669,0.987873077392578,bottle,bottle,4-3-10,1949_eid_s03_4-3-10_bottle_10_n03937543_929.JPEG
subject-03,2,670,0.450993061065674,boat,truck,128-10-10,1950_eid_s03_128-10-10_truck_10_n04467665_28135.JPEG
subject-03,2,671,0.783143043518066,airplane,airplane,8-10-10,1951_eid_s03_8-10-10_airplane_10_n02690373_6807.JPEG
subject-03,2,672,0.597821950912476,keyboard,keyboard,4-10-10,1952_eid_s03_4-10-10_keyboard_10_n03085013_29941.JPEG
subject-03,2,673,1.31461691856384,car,car,4-3-10,1953_eid_s03_4-3-10_car_10_n02814533_8994.JPEG
subject-03,2,674,1.09092593193054,truck,clock,16-0-10,1954_eid_s03_16-0-10_clock_10_n04548280_310.JPEG
subject-03,2,675,0.929193019866943,cat,airplane,64-0-10,1955_eid_s03_64-0-10_airplane_10_n02690373_9322.JPEG
subject-03,2,676,0.883111000061035,elephant,elephant,2-3-10,1956_eid_s03_2-3-10_elephant_10_n02504013_24713.JPEG
subject-03,2,677,0.867627859115601,bicycle,truck,128-10-10,1957_eid_s03_128-10-10_truck_10_n03796401_20573.JPEG
subject-03,2,678,0.754635095596313,truck,chair,2-10-10,1958_eid_s03_2-10-10_chair_10_n04429376_45302.JPEG
subject-03,2,679,0.77138614654541,dog,dog,2-3-10,1959_eid_s03_2-3-10_dog_10_n02091831_4384.JPEG
subject-03,2,680,0.633867025375366,bear,dog,128-3-10,1960_eid_s03_128-3-10_dog_10_n02094258_5674.JPEG
subject-03,2,681,0.656723022460938,chair,chair,4-3-10,1961_eid_s03_4-3-10_chair_10_n04429376_4564.JPEG
subject-03,2,682,0.90339994430542,bear,clock,8-0-10,1962_eid_s03_8-0-10_clock_10_n03196217_5222.JPEG
subject-03,2,683,0.535731077194214,oven,bear,32-10-10,1963_eid_s03_32-10-10_bear_10_n02133161_2476.JPEG
subject-03,2,684,0.487786054611206,airplane,airplane,2-0-10,1964_eid_s03_2-0-10_airplane_10_n02690373_2579.JPEG
subject-03,2,685,0.704293966293335,bear,bird,64-3-10,1965_eid_s03_64-3-10_bird_10_n01560419_2865.JPEG
subject-03,2,686,0.575030088424683,oven,oven,2-3-10,1966_eid_s03_2-3-10_oven_10_n04111531_14279.JPEG
subject-03,2,687,NaN,na,airplane,1-3-10,1967_eid_s03_1-3-10_airplane_10_n02690373_3119.JPEG
subject-03,2,688,0.505782842636108,cat,clock,64-10-10,1968_eid_s03_64-10-10_clock_10_n02708093_8340.JPEG
subject-03,2,689,0.759886980056763,oven,dog,32-10-10,1969_eid_s03_32-10-10_dog_10_n02107142_1412.JPEG
subject-03,2,690,0.690058946609497,bear,bottle,32-0-10,1970_eid_s03_32-0-10_bottle_10_n03983396_18099.JPEG
subject-03,2,691,0.990752935409546,airplane,oven,8-3-10,1971_eid_s03_8-3-10_oven_10_n04111531_21232.JPEG
subject-03,2,692,0.49980616569519,boat,keyboard,64-10-10,1972_eid_s03_64-10-10_keyboard_10_n03085013_15162.JPEG
subject-03,2,693,0.844763994216919,bottle,bottle,4-0-10,1973_eid_s03_4-0-10_bottle_10_n03937543_4703.JPEG
subject-03,2,694,NaN,na,bear,128-10-10,1974_eid_s03_128-10-10_bear_10_n02133161_11506.JPEG
subject-03,2,695,0.74555516242981,bear,bear,128-0-10,1975_eid_s03_128-0-10_bear_10_n02134084_3490.JPEG
subject-03,2,696,0.76076602935791,truck,truck,4-10-10,1976_eid_s03_4-10-10_truck_10_n04467665_60862.JPEG
subject-03,2,697,0.706829071044922,elephant,car,128-10-10,1977_eid_s03_128-10-10_car_10_n04285008_1970.JPEG
subject-03,2,698,0.939897060394287,dog,bottle,8-3-10,1978_eid_s03_8-3-10_bottle_10_n04557648_264.JPEG
subject-03,2,699,0.586162090301514,cat,cat,32-10-10,1979_eid_s03_32-10-10_cat_10_n02123045_7829.JPEG
subject-03,2,700,1.01661705970764,elephant,bicycle,16-0-10,1980_eid_s03_16-0-10_bicycle_10_n03792782_687.JPEG
subject-03,2,701,0.473565101623535,cat,dog,32-3-10,1981_eid_s03_32-3-10_dog_10_n02093754_7739.JPEG
subject-03,2,702,0.786885023117065,elephant,elephant,64-10-10,1982_eid_s03_64-10-10_elephant_10_n02504458_2957.JPEG
subject-03,2,703,1.00389814376831,elephant,clock,32-3-10,1983_eid_s03_32-3-10_clock_10_n04548280_5978.JPEG
subject-03,2,704,0.817323923110962,bottle,bottle,16-10-10,1984_eid_s03_16-10-10_bottle_10_n03983396_12253.JPEG
subject-03,2,705,0.62596583366394,boat,bottle,128-3-10,1985_eid_s03_128-3-10_bottle_10_n03937543_11379.JPEG
subject-03,2,706,0.755889892578125,car,car,8-0-10,1986_eid_s03_8-0-10_car_10_n02814533_96869.JPEG
subject-03,2,707,0.610853910446167,bird,bird,4-0-10,1987_eid_s03_4-0-10_bird_10_n01616318_10211.JPEG
subject-03,2,708,0.718727111816406,cat,cat,16-10-10,1988_eid_s03_16-10-10_cat_10_n02125311_30471.JPEG
subject-03,2,709,0.520559787750244,boat,airplane,128-3-10,1989_eid_s03_128-3-10_airplane_10_n02690373_12436.JPEG
subject-03,2,710,0.752819061279297,bird,bird,128-10-10,1990_eid_s03_128-10-10_bird_10_n01843383_1541.JPEG
subject-03,2,711,0.945811986923218,knife,oven,4-0-10,1991_eid_s03_4-0-10_oven_10_n04111531_4189.JPEG
subject-03,2,712,0.576034069061279,cat,bottle,64-0-10,1992_eid_s03_64-0-10_bottle_10_n02823428_725.JPEG
subject-03,2,713,0.543508052825928,oven,bear,64-10-10,1993_eid_s03_64-10-10_bear_10_n02134084_5475.JPEG
subject-03,2,714,0.568207979202271,boat,airplane,32-10-10,1994_eid_s03_32-10-10_airplane_10_n02690373_7624.JPEG
subject-03,2,715,0.669023036956787,elephant,elephant,1-0-10,1995_eid_s03_1-0-10_elephant_10_n02504013_4438.JPEG
subject-03,2,716,0.615133047103882,bear,bicycle,128-3-10,1996_eid_s03_128-3-10_bicycle_10_n02835271_15038.JPEG
subject-03,2,717,0.883953094482422,bottle,bottle,2-0-10,1997_eid_s03_2-0-10_bottle_10_n04557648_3885.JPEG
subject-03,2,718,0.616168975830078,car,car,8-3-10,1998_eid_s03_8-3-10_car_10_n03100240_11033.JPEG
subject-03,2,719,0.584275960922241,clock,clock,4-3-10,1999_eid_s03_4-3-10_clock_10_n04548280_6411.JPEG
subject-03,2,720,0.500918865203857,boat,keyboard,16-0-10,2000_eid_s03_16-0-10_keyboard_10_n04505470_9747.JPEG
subject-03,2,721,1.1618959903717,dog,dog,1-10-10,2001_eid_s03_1-10-10_dog_10_n02091467_5493.JPEG
subject-03,2,722,0.761187076568604,bird,bear,8-0-10,2002_eid_s03_8-0-10_bear_10_n02133161_1930.JPEG
subject-03,2,723,0.736992120742798,car,bicycle,64-0-10,2003_eid_s03_64-0-10_bicycle_10_n02835271_6374.JPEG
subject-03,2,724,0.867322206497192,cat,knife,128-3-10,2004_eid_s03_128-3-10_knife_10_n03041632_7205.JPEG
subject-03,2,725,0.729931116104126,knife,knife,4-3-10,2005_eid_s03_4-3-10_knife_10_n03041632_10000.JPEG
subject-03,2,726,0.576740026473999,boat,bicycle,16-0-10,2006_eid_s03_16-0-10_bicycle_10_n03792782_34271.JPEG
subject-03,2,727,0.670785903930664,oven,oven,1-3-10,2007_eid_s03_1-3-10_oven_10_n04111531_15667.JPEG
subject-03,2,728,0.848113059997559,knife,bottle,4-3-10,2008_eid_s03_4-3-10_bottle_10_n02823428_2570.JPEG
subject-03,2,729,0.564354181289673,boat,airplane,16-0-10,2009_eid_s03_16-0-10_airplane_10_n02690373_4375.JPEG
subject-03,2,730,0.748539924621582,dog,elephant,4-3-10,2010_eid_s03_4-3-10_elephant_10_n02504458_3261.JPEG
subject-03,2,731,0.77095103263855,car,car,1-10-10,2011_eid_s03_1-10-10_car_10_n02814533_2560.JPEG
subject-03,2,732,1.20266819000244,boat,boat,1-0-10,2012_eid_s03_1-0-10_boat_10_n03662601_19488.JPEG
subject-03,2,733,1.16352415084839,keyboard,keyboard,1-10-10,2013_eid_s03_1-10-10_keyboard_10_n03085013_21300.JPEG
subject-03,2,734,0.671877861022949,clock,clock,64-0-10,2014_eid_s03_64-0-10_clock_10_n03196217_4973.JPEG
subject-03,2,735,0.956466913223267,knife,truck,16-10-10,2015_eid_s03_16-10-10_truck_10_n03417042_22025.JPEG
subject-03,2,736,0.610664844512939,boat,boat,32-3-10,2016_eid_s03_32-3-10_boat_10_n04273569_870.JPEG
subject-03,2,737,0.780961036682129,clock,car,4-3-10,2017_eid_s03_4-3-10_car_10_n04285008_4059.JPEG
subject-03,2,738,0.71385383605957,boat,bear,16-0-10,2018_eid_s03_16-0-10_bear_10_n02133161_4049.JPEG
subject-03,2,739,0.536234855651855,cat,clock,64-0-10,2019_eid_s03_64-0-10_clock_10_n03196217_7918.JPEG
subject-03,2,740,0.73701000213623,keyboard,keyboard,1-0-10,2020_eid_s03_1-0-10_keyboard_10_n04505470_1687.JPEG
subject-03,2,741,0.791360855102539,airplane,boat,64-3-10,2021_eid_s03_64-3-10_boat_10_n03662601_30161.JPEG
subject-03,2,742,0.554228067398071,cat,cat,2-10-10,2022_eid_s03_2-10-10_cat_10_n02123045_3298.JPEG
subject-03,2,743,0.630928039550781,boat,airplane,16-0-10,2023_eid_s03_16-0-10_airplane_10_n02690373_5405.JPEG
subject-03,2,744,0.838927984237671,oven,dog,2-3-10,2024_eid_s03_2-3-10_dog_10_n02105641_8276.JPEG
subject-03,2,745,0.763614177703857,bird,dog,8-0-10,2025_eid_s03_8-0-10_dog_10_n02088364_10216.JPEG
subject-03,2,746,0.770429849624634,boat,keyboard,32-10-10,2026_eid_s03_32-10-10_keyboard_10_n04505470_4704.JPEG
subject-03,2,747,0.786824941635132,truck,truck,1-3-10,2027_eid_s03_1-3-10_truck_10_n04467665_50912.JPEG
subject-03,2,748,0.693196058273315,bear,clock,128-0-10,2028_eid_s03_128-0-10_clock_10_n04548280_7314.JPEG
subject-03,2,749,NaN,na,bottle,64-10-10,2029_eid_s03_64-10-10_bottle_10_n04579145_5836.JPEG
subject-03,2,750,0.869396924972534,knife,chair,4-3-10,2030_eid_s03_4-3-10_chair_10_n03376595_3882.JPEG
subject-03,2,751,0.502285003662109,boat,bird,64-3-10,2031_eid_s03_64-3-10_bird_10_n01622779_5410.JPEG
subject-03,2,752,0.723977088928223,bear,clock,128-0-10,2032_eid_s03_128-0-10_clock_10_n04548280_2229.JPEG
subject-03,2,753,0.7709801197052,car,bear,64-0-10,2033_eid_s03_64-0-10_bear_10_n02133161_13921.JPEG
subject-03,2,754,0.6005539894104,cat,cat,32-10-10,2034_eid_s03_32-10-10_cat_10_n02125311_60133.JPEG
subject-03,2,755,0.493813037872314,bear,bird,128-3-10,2035_eid_s03_128-3-10_bird_10_n01820546_578.JPEG
subject-03,2,756,0.686049938201904,airplane,airplane,1-0-10,2036_eid_s03_1-0-10_airplane_10_n02690373_9687.JPEG
subject-03,2,757,0.741227865219116,cat,chair,128-3-10,2037_eid_s03_128-3-10_chair_10_n02791124_11456.JPEG
subject-03,2,758,0.819653034210205,truck,car,32-10-10,2038_eid_s03_32-10-10_car_10_n03100240_18304.JPEG
subject-03,2,759,0.641787052154541,car,car,4-10-10,2039_eid_s03_4-10-10_car_10_n02814533_26659.JPEG
subject-03,2,760,0.598635911941528,airplane,airplane,2-10-10,2040_eid_s03_2-10-10_airplane_10_n02690373_7489.JPEG
subject-03,2,761,1.00505304336548,cat,bottle,64-10-10,2041_eid_s03_64-10-10_bottle_10_n04579145_944.JPEG
subject-03,2,762,0.821461915969849,elephant,elephant,4-10-10,2042_eid_s03_4-10-10_elephant_10_n02504013_2924.JPEG
subject-03,2,763,0.567430019378662,cat,dog,8-3-10,2043_eid_s03_8-3-10_dog_10_n02113023_3425.JPEG
subject-03,2,764,0.667797088623047,airplane,car,64-10-10,2044_eid_s03_64-10-10_car_10_n02814533_54938.JPEG
subject-03,2,765,0.866205930709839,truck,truck,1-10-10,2045_eid_s03_1-10-10_truck_10_n04467665_26416.JPEG
subject-03,2,766,0.714576005935669,airplane,airplane,2-3-10,2046_eid_s03_2-3-10_airplane_10_n02690373_19646.JPEG
subject-03,2,767,0.675616979598999,cat,elephant,64-3-10,2047_eid_s03_64-3-10_elephant_10_n02504458_4121.JPEG
subject-03,2,768,0.624125957489014,keyboard,bottle,1-10-10,2048_eid_s03_1-10-10_bottle_10_n02823428_11641.JPEG
subject-03,2,769,NaN,na,boat,32-3-10,2049_eid_s03_32-3-10_boat_10_n03344393_6424.JPEG
subject-03,2,770,0.54080605506897,boat,bear,16-0-10,2050_eid_s03_16-0-10_bear_10_n02134084_22037.JPEG
subject-03,2,771,0.803225040435791,elephant,elephant,2-3-10,2051_eid_s03_2-3-10_elephant_10_n02504458_4414.JPEG
subject-03,2,772,0.572787046432495,boat,car,128-0-10,2052_eid_s03_128-0-10_car_10_n03100240_10982.JPEG
subject-03,2,773,0.719135999679565,elephant,elephant,8-3-10,2053_eid_s03_8-3-10_elephant_10_n02504458_7805.JPEG
subject-03,2,774,0.897222995758057,knife,keyboard,8-0-10,2054_eid_s03_8-0-10_keyboard_10_n04505470_2446.JPEG
subject-03,2,775,0.670056819915771,boat,bottle,2-0-10,2055_eid_s03_2-0-10_bottle_10_n03983396_2807.JPEG
subject-03,2,776,0.654846906661987,bottle,bottle,2-3-10,2056_eid_s03_2-3-10_bottle_10_n02823428_3005.JPEG
subject-03,2,777,1.22505211830139,cat,cat,4-10-10,2057_eid_s03_4-10-10_cat_10_n02125311_13604.JPEG
subject-03,2,778,0.944010019302368,dog,chair,8-0-10,2058_eid_s03_8-0-10_chair_10_n04429376_16619.JPEG
subject-03,2,779,0.706289052963257,oven,oven,8-0-10,2059_eid_s03_8-0-10_oven_10_n04111531_15947.JPEG
subject-03,2,780,0.784572124481201,cat,boat,64-10-10,2060_eid_s03_64-10-10_boat_10_n04273569_16008.JPEG
subject-03,2,781,0.525521039962769,boat,knife,128-3-10,2061_eid_s03_128-3-10_knife_10_n03041632_3079.JPEG
subject-03,2,782,0.750303983688354,knife,knife,4-10-10,2062_eid_s03_4-10-10_knife_10_n03041632_2438.JPEG
subject-03,2,783,0.575227975845337,cat,dog,64-10-10,2063_eid_s03_64-10-10_dog_10_n02108915_4274.JPEG
subject-03,2,784,0.735987901687622,car,car,2-0-10,2064_eid_s03_2-0-10_car_10_n04285008_8281.JPEG
subject-03,2,785,1.0603621006012,truck,knife,64-3-10,2065_eid_s03_64-3-10_knife_10_n03041632_14801.JPEG
subject-03,2,786,0.506716012954712,oven,truck,64-0-10,2066_eid_s03_64-0-10_truck_10_n04467665_3220.JPEG
subject-03,2,787,0.7776780128479,boat,boat,16-10-10,2067_eid_s03_16-10-10_boat_10_n04612504_17978.JPEG
subject-03,2,788,0.717211008071899,bird,bird,2-0-10,2068_eid_s03_2-0-10_bird_10_n01820546_1408.JPEG
subject-03,2,789,0.549803972244263,oven,keyboard,64-10-10,2069_eid_s03_64-10-10_keyboard_10_n03085013_3231.JPEG
subject-03,2,790,0.726376056671143,car,car,4-3-10,2070_eid_s03_4-3-10_car_10_n02814533_44670.JPEG
subject-03,2,791,0.767112016677856,bear,bear,4-0-10,2071_eid_s03_4-0-10_bear_10_n02133161_682.JPEG
subject-03,2,792,0.683483123779297,bird,boat,16-10-10,2072_eid_s03_16-10-10_boat_10_n02951358_12126.JPEG
subject-03,2,793,0.948219060897827,cat,cat,8-0-10,2073_eid_s03_8-0-10_cat_10_n02123597_13800.JPEG
subject-03,2,794,0.510258913040161,boat,boat,1-10-10,2074_eid_s03_1-10-10_boat_10_n03662601_18953.JPEG
subject-03,2,795,0.723585844039917,bear,bottle,64-0-10,2075_eid_s03_64-0-10_bottle_10_n02823428_347.JPEG
subject-03,2,796,0.571622133255005,cat,bicycle,64-0-10,2076_eid_s03_64-0-10_bicycle_10_n03792782_18734.JPEG
subject-03,2,797,0.828487873077393,cat,bird,8-0-10,2077_eid_s03_8-0-10_bird_10_n01797886_19239.JPEG
subject-03,2,798,0.467110157012939,oven,dog,128-0-10,2078_eid_s03_128-0-10_dog_10_n02102973_1323.JPEG
subject-03,2,799,0.616122961044312,clock,bottle,16-3-10,2079_eid_s03_16-3-10_bottle_10_n02823428_7033.JPEG
subject-03,2,800,0.626832962036133,bird,bird,2-0-10,2080_eid_s03_2-0-10_bird_10_n01824575_5136.JPEG
subject-03,2,801,0.635018110275269,car,cat,64-3-10,2081_eid_s03_64-3-10_cat_10_n02123394_7492.JPEG
subject-03,2,802,0.681578874588013,chair,chair,4-0-10,2082_eid_s03_4-0-10_chair_10_n03376595_6025.JPEG
subject-03,2,803,0.600363969802856,cat,dog,16-3-10,2083_eid_s03_16-3-10_dog_10_n02104365_4989.JPEG
subject-03,2,804,0.746742963790894,airplane,airplane,16-10-10,2084_eid_s03_16-10-10_airplane_10_n02690373_3561.JPEG
subject-03,2,805,0.49524998664856,boat,bottle,16-0-10,2085_eid_s03_16-0-10_bottle_10_n02823428_14355.JPEG
subject-03,2,806,0.641902208328247,clock,knife,16-3-10,2086_eid_s03_16-3-10_knife_10_n03041632_7119.JPEG
subject-03,2,807,0.705811977386475,clock,airplane,128-0-10,2087_eid_s03_128-0-10_airplane_10_n02690373_2874.JPEG
subject-03,2,808,0.494818925857544,cat,oven,64-3-10,2088_eid_s03_64-3-10_oven_10_n04111531_7452.JPEG
subject-03,2,809,1.01514101028442,bird,bird,8-3-10,2089_eid_s03_8-3-10_bird_10_n01537544_18389.JPEG
subject-03,2,810,0.550224781036377,cat,keyboard,64-3-10,2090_eid_s03_64-3-10_keyboard_10_n04505470_578.JPEG
subject-03,2,811,0.788554906845093,airplane,airplane,2-10-10,2091_eid_s03_2-10-10_airplane_10_n02690373_4108.JPEG
subject-03,2,812,0.991127967834473,bottle,bottle,4-0-10,2092_eid_s03_4-0-10_bottle_10_n04557648_5975.JPEG
subject-03,2,813,0.715251922607422,truck,truck,2-10-10,2093_eid_s03_2-10-10_truck_10_n04467665_39373.JPEG
subject-03,2,814,0.515863180160522,oven,airplane,64-10-10,2094_eid_s03_64-10-10_airplane_10_n02690373_5056.JPEG
subject-03,2,815,0.871116876602173,bicycle,bicycle,8-10-10,2095_eid_s03_8-10-10_bicycle_10_n03792782_38365.JPEG
subject-03,2,816,0.558764934539795,boat,boat,16-10-10,2096_eid_s03_16-10-10_boat_10_n03662601_34558.JPEG
subject-03,2,817,0.921988010406494,knife,knife,4-3-10,2097_eid_s03_4-3-10_knife_10_n03041632_35764.JPEG
subject-03,2,818,0.876166105270386,boat,boat,2-10-10,2098_eid_s03_2-10-10_boat_10_n03662601_8944.JPEG
subject-03,2,819,0.732946872711182,bicycle,bicycle,1-0-10,2099_eid_s03_1-0-10_bicycle_10_n03792782_70724.JPEG
subject-03,2,820,0.865789890289307,elephant,elephant,2-0-10,2100_eid_s03_2-0-10_elephant_10_n02504458_10086.JPEG
subject-03,2,821,1.01996803283691,elephant,bottle,128-10-10,2101_eid_s03_128-10-10_bottle_10_n03983396_4227.JPEG
subject-03,2,822,0.630934000015259,bottle,bottle,4-10-10,2102_eid_s03_4-10-10_bottle_10_n02823428_8074.JPEG
subject-03,2,823,0.630537986755371,oven,keyboard,16-3-10,2103_eid_s03_16-3-10_keyboard_10_n04505470_5266.JPEG
subject-03,2,824,0.714339017868042,airplane,boat,4-10-10,2104_eid_s03_4-10-10_boat_10_n04612504_2167.JPEG
subject-03,2,825,0.541503190994263,boat,elephant,32-3-10,2105_eid_s03_32-3-10_elephant_10_n02504458_1519.JPEG
subject-03,2,826,0.774466037750244,airplane,airplane,8-10-10,2106_eid_s03_8-10-10_airplane_10_n02690373_5866.JPEG
subject-03,2,827,0.661014795303345,bear,bear,32-3-10,2107_eid_s03_32-3-10_bear_10_n02133161_10744.JPEG
subject-03,2,828,0.661811113357544,oven,boat,32-3-10,2108_eid_s03_32-3-10_boat_10_n04273569_15619.JPEG
subject-03,2,829,0.472640037536621,boat,bottle,64-10-10,2109_eid_s03_64-10-10_bottle_10_n02823428_14010.JPEG
subject-03,2,830,0.826480865478516,chair,chair,8-3-10,2110_eid_s03_8-3-10_chair_10_n02791124_9328.JPEG
subject-03,2,831,0.62621283531189,clock,clock,2-10-10,2111_eid_s03_2-10-10_clock_10_n04548280_7781.JPEG
subject-03,2,832,0.552872896194458,boat,airplane,64-0-10,2112_eid_s03_64-0-10_airplane_10_n02690373_19074.JPEG
subject-03,2,833,0.569139003753662,airplane,airplane,4-10-10,2113_eid_s03_4-10-10_airplane_10_n02690373_9165.JPEG
subject-03,2,834,0.664262056350708,bear,truck,32-3-10,2114_eid_s03_32-3-10_truck_10_n03417042_20919.JPEG
subject-03,2,835,0.942247152328491,clock,chair,16-10-10,2115_eid_s03_16-10-10_chair_10_n04429376_3241.JPEG
subject-03,2,836,0.697235107421875,car,truck,8-0-10,2116_eid_s03_8-0-10_truck_10_n03417042_274.JPEG
subject-03,2,837,0.807300090789795,bear,elephant,32-0-10,2117_eid_s03_32-0-10_elephant_10_n02504013_5165.JPEG
subject-03,2,838,0.685984134674072,chair,chair,8-3-10,2118_eid_s03_8-3-10_chair_10_n04099969_6502.JPEG
subject-03,2,839,0.602352142333984,clock,clock,8-10-10,2119_eid_s03_8-10-10_clock_10_n04548280_2356.JPEG
subject-03,2,840,0.580664157867432,airplane,truck,8-3-10,2120_eid_s03_8-3-10_truck_10_n03417042_29384.JPEG
subject-03,2,841,0.717877149581909,elephant,elephant,2-0-10,2121_eid_s03_2-0-10_elephant_10_n02504458_6841.JPEG
subject-03,2,842,0.612105846405029,bear,bear,32-10-10,2122_eid_s03_32-10-10_bear_10_n02134084_1739.JPEG
subject-03,2,843,0.498307943344116,keyboard,keyboard,4-0-10,2123_eid_s03_4-0-10_keyboard_10_n04505470_812.JPEG
subject-03,2,844,0.746622085571289,bird,dog,4-3-10,2124_eid_s03_4-3-10_dog_10_n02096585_10596.JPEG
subject-03,2,845,0.792552947998047,chair,chair,4-3-10,2125_eid_s03_4-3-10_chair_10_n04099969_9918.JPEG
subject-03,2,846,0.655569076538086,bottle,chair,4-0-10,2126_eid_s03_4-0-10_chair_10_n04429376_19673.JPEG
subject-03,2,847,0.904143810272217,knife,knife,8-0-10,2127_eid_s03_8-0-10_knife_10_n03041632_22286.JPEG
subject-03,2,848,0.644783973693848,truck,truck,2-0-10,2128_eid_s03_2-0-10_truck_10_n04467665_12404.JPEG
subject-03,2,849,0.815345048904419,chair,chair,1-10-10,2129_eid_s03_1-10-10_chair_10_n03376595_8140.JPEG
subject-03,2,850,0.663908004760742,chair,chair,4-10-10,2130_eid_s03_4-10-10_chair_10_n03376595_30.JPEG
subject-03,2,851,0.871558904647827,airplane,airplane,4-0-10,2131_eid_s03_4-0-10_airplane_10_n02690373_6621.JPEG
subject-03,2,852,0.7883620262146,keyboard,keyboard,1-10-10,2132_eid_s03_1-10-10_keyboard_10_n03085013_21089.JPEG
subject-03,2,853,0.698863983154297,bear,cat,32-0-10,2133_eid_s03_32-0-10_cat_10_n02125311_27598.JPEG
subject-03,2,854,0.717787027359009,chair,chair,64-10-10,2134_eid_s03_64-10-10_chair_10_n04429376_29437.JPEG
subject-03,2,855,0.496405124664307,chair,chair,16-0-10,2135_eid_s03_16-0-10_chair_10_n03376595_8227.JPEG
subject-03,2,856,0.866185188293457,bird,dog,4-10-10,2136_eid_s03_4-10-10_dog_10_n02113624_933.JPEG
subject-03,2,857,0.468554019927979,clock,oven,32-0-10,2137_eid_s03_32-0-10_oven_10_n04111531_8398.JPEG
subject-03,2,858,0.68543815612793,bear,chair,32-3-10,2138_eid_s03_32-3-10_chair_10_n04099969_13841.JPEG
subject-03,2,859,0.539993047714233,bottle,bottle,2-3-10,2139_eid_s03_2-3-10_bottle_10_n03937543_3419.JPEG
subject-03,2,860,0.688776969909668,bicycle,bicycle,8-10-10,2140_eid_s03_8-10-10_bicycle_10_n02835271_22956.JPEG
subject-03,2,861,0.532670974731445,cat,cat,32-10-10,2141_eid_s03_32-10-10_cat_10_n02125311_9502.JPEG
subject-03,2,862,0.702800035476685,car,dog,4-0-10,2142_eid_s03_4-0-10_dog_10_n02107142_9555.JPEG
subject-03,2,863,0.556636095046997,boat,boat,2-3-10,2143_eid_s03_2-3-10_boat_10_n03344393_2448.JPEG
subject-03,2,864,0.972985982894897,bicycle,keyboard,128-10-10,2144_eid_s03_128-10-10_keyboard_10_n03085013_23693.JPEG
subject-03,2,865,0.637506008148193,car,car,8-3-10,2145_eid_s03_8-3-10_car_10_n04285008_1614.JPEG
subject-03,2,866,0.816170930862427,car,car,2-0-10,2146_eid_s03_2-0-10_car_10_n04285008_2788.JPEG
subject-03,2,867,0.794548034667969,boat,elephant,2-10-10,2147_eid_s03_2-10-10_elephant_10_n02504458_5245.JPEG
subject-03,2,868,0.765522003173828,boat,bottle,2-10-10,2148_eid_s03_2-10-10_bottle_10_n04557648_1823.JPEG
subject-03,2,869,0.690145015716553,elephant,keyboard,32-3-10,2149_eid_s03_32-3-10_keyboard_10_n03085013_8334.JPEG
subject-03,2,870,0.662387132644653,bicycle,bicycle,8-0-10,2150_eid_s03_8-0-10_bicycle_10_n03792782_26168.JPEG
subject-03,2,871,0.679020881652832,keyboard,keyboard,32-10-10,2151_eid_s03_32-10-10_keyboard_10_n03085013_15249.JPEG
subject-03,2,872,0.641506910324097,bicycle,bicycle,8-10-10,2152_eid_s03_8-10-10_bicycle_10_n02835271_608.JPEG
subject-03,2,873,0.828108787536621,clock,bird,32-10-10,2153_eid_s03_32-10-10_bird_10_n01833805_16071.JPEG
subject-03,2,874,0.930961847305298,bicycle,knife,8-0-10,2154_eid_s03_8-0-10_knife_10_n03041632_4044.JPEG
subject-03,2,875,0.593142986297607,bicycle,bird,64-3-10,2155_eid_s03_64-3-10_bird_10_n01616318_49022.JPEG
subject-03,2,876,0.488420009613037,bicycle,bicycle,4-10-10,2156_eid_s03_4-10-10_bicycle_10_n02835271_22355.JPEG
subject-03,2,877,0.695355176925659,bicycle,boat,8-10-10,2157_eid_s03_8-10-10_boat_10_n02951358_30635.JPEG
subject-03,2,878,0.780086040496826,keyboard,bottle,4-0-10,2158_eid_s03_4-0-10_bottle_10_n04560804_15538.JPEG
subject-03,2,879,0.604419946670532,bear,knife,128-3-10,2159_eid_s03_128-3-10_knife_10_n03041632_99799.JPEG
subject-03,2,880,0.606742143630981,bear,dog,64-3-10,2160_eid_s03_64-3-10_dog_10_n02093754_6343.JPEG
subject-03,2,881,0.785474061965942,cat,cat,1-10-10,2161_eid_s03_1-10-10_cat_10_n02125311_4879.JPEG
subject-03,2,882,0.609977006912231,cat,clock,64-10-10,2162_eid_s03_64-10-10_clock_10_n02708093_6799.JPEG
subject-03,2,883,0.774732828140259,elephant,elephant,2-10-10,2163_eid_s03_2-10-10_elephant_10_n02504013_1679.JPEG
subject-03,2,884,0.658299922943115,bicycle,bicycle,8-10-10,2164_eid_s03_8-10-10_bicycle_10_n02835271_1221.JPEG
subject-03,2,885,0.675226926803589,truck,truck,4-0-10,2165_eid_s03_4-0-10_truck_10_n04467665_16276.JPEG
subject-03,2,886,0.886138916015625,knife,knife,1-0-10,2166_eid_s03_1-0-10_knife_10_n03041632_5916.JPEG
subject-03,2,887,0.840502023696899,airplane,airplane,32-10-10,2167_eid_s03_32-10-10_airplane_10_n02690373_7055.JPEG
subject-03,2,888,1.11955404281616,dog,clock,4-0-10,2168_eid_s03_4-0-10_clock_10_n02708093_899.JPEG
subject-03,2,889,0.837409973144531,airplane,airplane,16-10-10,2169_eid_s03_16-10-10_airplane_10_n02690373_6328.JPEG
subject-03,2,890,0.754585981369019,bicycle,bicycle,4-0-10,2170_eid_s03_4-0-10_bicycle_10_n02835271_4937.JPEG
subject-03,2,891,0.85678505897522,keyboard,bird,64-10-10,2171_eid_s03_64-10-10_bird_10_n01798484_5923.JPEG
subject-03,2,892,0.757339954376221,bear,dog,64-0-10,2172_eid_s03_64-0-10_dog_10_n02093859_5873.JPEG
subject-03,2,893,0.782072782516479,oven,chair,16-0-10,2173_eid_s03_16-0-10_chair_10_n03376595_9974.JPEG
subject-03,2,894,0.560795068740845,boat,knife,32-10-10,2174_eid_s03_32-10-10_knife_10_n03041632_36235.JPEG
subject-03,2,895,0.709187030792236,keyboard,bottle,8-10-10,2175_eid_s03_8-10-10_bottle_10_n04591713_3153.JPEG
subject-03,2,896,0.639119863510132,clock,clock,1-3-10,2176_eid_s03_1-3-10_clock_10_n02708093_579.JPEG
subject-03,2,897,0.870924949645996,car,car,2-3-10,2177_eid_s03_2-3-10_car_10_n02814533_39559.JPEG
subject-03,2,898,0.827666044235229,boat,chair,128-3-10,2178_eid_s03_128-3-10_chair_10_n02791124_5506.JPEG
subject-03,2,899,0.674083232879639,oven,bird,64-0-10,2179_eid_s03_64-0-10_bird_10_n01616318_32409.JPEG
subject-03,2,900,0.806356906890869,oven,oven,2-3-10,2180_eid_s03_2-3-10_oven_10_n04111531_9429.JPEG
subject-03,2,901,0.708892107009888,boat,airplane,64-3-10,2181_eid_s03_64-3-10_airplane_10_n02690373_1909.JPEG
subject-03,2,902,1.02518105506897,elephant,elephant,8-3-10,2182_eid_s03_8-3-10_elephant_10_n02504458_2719.JPEG
subject-03,2,903,0.974001884460449,knife,knife,4-0-10,2183_eid_s03_4-0-10_knife_10_n03041632_28135.JPEG
subject-03,2,904,0.59024977684021,boat,clock,128-10-10,2184_eid_s03_128-10-10_clock_10_n03196217_2665.JPEG
subject-03,2,905,0.693448066711426,bear,dog,64-0-10,2185_eid_s03_64-0-10_dog_10_n02091831_2692.JPEG
subject-03,2,906,0.840123891830444,boat,boat,8-10-10,2186_eid_s03_8-10-10_boat_10_n04273569_14562.JPEG
subject-03,2,907,0.81245493888855,bear,bear,2-10-10,2187_eid_s03_2-10-10_bear_10_n02134418_3289.JPEG
subject-03,2,908,0.745213985443115,car,car,8-3-10,2188_eid_s03_8-3-10_car_10_n02814533_4533.JPEG
subject-03,2,909,NaN,na,keyboard,64-3-10,2189_eid_s03_64-3-10_keyboard_10_n03085013_21867.JPEG
subject-03,2,910,0.61014199256897,airplane,elephant,16-0-10,2190_eid_s03_16-0-10_elephant_10_n02504458_13245.JPEG
subject-03,2,911,0.794575929641724,bear,cat,4-3-10,2191_eid_s03_4-3-10_cat_10_n02125311_18138.JPEG
subject-03,2,912,0.643521070480347,bear,bear,2-10-10,2192_eid_s03_2-10-10_bear_10_n02134084_4217.JPEG
subject-03,2,913,0.637453079223633,boat,bear,32-10-10,2193_eid_s03_32-10-10_bear_10_n02134084_33483.JPEG
subject-03,2,914,0.93045711517334,boat,truck,8-3-10,2194_eid_s03_8-3-10_truck_10_n03417042_5235.JPEG
subject-03,2,915,NaN,na,bear,1-3-10,2195_eid_s03_1-3-10_bear_10_n02133161_1772.JPEG
subject-03,2,916,0.949218988418579,chair,chair,1-0-10,2196_eid_s03_1-0-10_chair_10_n04429376_29424.JPEG
subject-03,2,917,0.55196213722229,clock,bird,128-3-10,2197_eid_s03_128-3-10_bird_10_n02007558_7673.JPEG
subject-03,2,918,0.667968988418579,airplane,airplane,16-10-10,2198_eid_s03_16-10-10_airplane_10_n02690373_10817.JPEG
subject-03,2,919,0.916177034378052,bird,bird,16-0-10,2199_eid_s03_16-0-10_bird_10_n02056570_106.JPEG
subject-03,2,920,0.770668983459473,car,car,8-10-10,2200_eid_s03_8-10-10_car_10_n03100240_5762.JPEG
subject-03,2,921,0.557548999786377,clock,dog,64-0-10,2201_eid_s03_64-0-10_dog_10_n02091635_4996.JPEG
subject-03,2,922,0.849280118942261,bicycle,keyboard,32-10-10,2202_eid_s03_32-10-10_keyboard_10_n04505470_4682.JPEG
subject-03,2,923,0.827714920043945,truck,truck,1-0-10,2203_eid_s03_1-0-10_truck_10_n03417042_16038.JPEG
subject-03,2,924,0.676270008087158,boat,airplane,128-0-10,2204_eid_s03_128-0-10_airplane_10_n02690373_5992.JPEG
subject-03,2,925,0.670444965362549,clock,bear,4-3-10,2205_eid_s03_4-3-10_bear_10_n02133161_14114.JPEG
subject-03,2,926,0.557267904281616,boat,boat,16-0-10,2206_eid_s03_16-0-10_boat_10_n02951358_29341.JPEG
subject-03,2,927,NaN,na,knife,16-0-10,2207_eid_s03_16-0-10_knife_10_n03041632_11797.JPEG
subject-03,2,928,0.460511922836304,boat,clock,32-0-10,2208_eid_s03_32-0-10_clock_10_n04548280_2559.JPEG
subject-03,2,929,0.563283920288086,boat,boat,16-10-10,2209_eid_s03_16-10-10_boat_10_n03662601_1319.JPEG
subject-03,2,930,0.480119943618774,boat,elephant,16-0-10,2210_eid_s03_16-0-10_elephant_10_n02504458_2109.JPEG
subject-03,2,931,0.712038040161133,bicycle,bicycle,1-0-10,2211_eid_s03_1-0-10_bicycle_10_n03792782_6058.JPEG
subject-03,2,932,1.02056097984314,knife,knife,2-0-10,2212_eid_s03_2-0-10_knife_10_n03041632_40450.JPEG
subject-03,2,933,1.03679394721985,bear,bear,16-3-10,2213_eid_s03_16-3-10_bear_10_n02133161_8445.JPEG
subject-03,2,934,0.985299825668335,truck,truck,1-0-10,2214_eid_s03_1-0-10_truck_10_n03417042_8248.JPEG
subject-03,2,935,0.831732988357544,bottle,oven,4-10-10,2215_eid_s03_4-10-10_oven_10_n04111531_2797.JPEG
subject-03,2,936,0.71818208694458,bicycle,knife,8-3-10,2216_eid_s03_8-3-10_knife_10_n03041632_19275.JPEG
subject-03,2,937,0.812777042388916,knife,knife,64-0-10,2217_eid_s03_64-0-10_knife_10_n03041632_9302.JPEG
subject-03,2,938,0.679731845855713,bicycle,boat,64-3-10,2218_eid_s03_64-3-10_boat_10_n03662601_3903.JPEG
subject-03,2,939,0.504209041595459,cat,dog,16-3-10,2219_eid_s03_16-3-10_dog_10_n02095314_4075.JPEG
subject-03,2,940,0.714793920516968,truck,truck,2-10-10,2220_eid_s03_2-10-10_truck_10_n03417042_6623.JPEG
subject-03,2,941,0.476901054382324,clock,clock,32-0-10,2221_eid_s03_32-0-10_clock_10_n04548280_4397.JPEG
subject-03,2,942,0.44655704498291,boat,bicycle,128-0-10,2222_eid_s03_128-0-10_bicycle_10_n02835271_8212.JPEG
subject-03,2,943,0.884683132171631,chair,oven,4-0-10,2223_eid_s03_4-0-10_oven_10_n04111531_7965.JPEG
subject-03,2,944,0.739789009094238,cat,cat,8-10-10,2224_eid_s03_8-10-10_cat_10_n02123159_1769.JPEG
subject-03,2,945,0.842024087905884,bird,bird,16-3-10,2225_eid_s03_16-3-10_bird_10_n01558993_8693.JPEG
subject-03,2,946,0.49688982963562,truck,truck,1-10-10,2226_eid_s03_1-10-10_truck_10_n04467665_8768.JPEG
subject-03,2,947,0.921610832214355,cat,dog,16-3-10,2227_eid_s03_16-3-10_dog_10_n02113624_9117.JPEG
subject-03,2,948,0.740211009979248,cat,bicycle,16-10-10,2228_eid_s03_16-10-10_bicycle_10_n03792782_50972.JPEG
subject-03,2,949,0.833060026168823,bottle,bottle,8-0-10,2229_eid_s03_8-0-10_bottle_10_n02823428_10737.JPEG
subject-03,2,950,0.589478015899658,airplane,airplane,8-10-10,2230_eid_s03_8-10-10_airplane_10_n02690373_4233.JPEG
subject-03,2,951,0.859768152236938,knife,boat,4-10-10,2231_eid_s03_4-10-10_boat_10_n02951358_1136.JPEG
subject-03,2,952,1.04632997512817,elephant,elephant,8-3-10,2232_eid_s03_8-3-10_elephant_10_n02504013_10765.JPEG
subject-03,2,953,0.871901988983154,bear,truck,64-0-10,2233_eid_s03_64-0-10_truck_10_n03796401_22137.JPEG
