subj,session,trial,rt,object_response,category,condition,imagename
subject-08,2,1,0.682789087295532,clock,bottle,128-0-10,1281_eid_s08_128-0-10_bottle_10_n03983396_12670.JPEG
subject-08,2,2,NaN,na,bottle,32-10-10,1282_eid_s08_32-10-10_bottle_10_n03983396_5394.JPEG
subject-08,2,3,1.04312419891357,bicycle,bicycle,4-3-10,1283_eid_s08_4-3-10_bicycle_10_n03792782_8113.JPEG
subject-08,2,4,0.799017906188965,cat,dog,64-0-10,1284_eid_s08_64-0-10_dog_10_n02097130_5432.JPEG
subject-08,2,5,0.992769002914429,truck,truck,1-10-10,1285_eid_s08_1-10-10_truck_10_n03796401_3486.JPEG
subject-08,2,6,1.44075584411621,bottle,bottle,2-3-10,1286_eid_s08_2-3-10_bottle_10_n03983396_19006.JPEG
subject-08,2,7,0.640286922454834,bottle,bottle,4-10-10,1287_eid_s08_4-10-10_bottle_10_n03983396_11936.JPEG
subject-08,2,8,0.788933992385864,knife,bicycle,8-3-10,1288_eid_s08_8-3-10_bicycle_10_n02835271_2443.JPEG
subject-08,2,9,0.822949886322021,dog,oven,128-10-10,1289_eid_s08_128-10-10_oven_10_n04111531_10420.JPEG
subject-08,2,10,0.909088850021362,keyboard,car,64-3-10,1290_eid_s08_64-3-10_car_10_n03100240_2654.JPEG
subject-08,2,11,0.96533989906311,boat,elephant,4-10-10,1291_eid_s08_4-10-10_elephant_10_n02504013_22508.JPEG
subject-08,2,12,0.581837892532349,clock,bottle,128-3-10,1292_eid_s08_128-3-10_bottle_10_n03937543_11004.JPEG
subject-08,2,13,0.738089084625244,chair,keyboard,32-0-10,1293_eid_s08_32-0-10_keyboard_10_n03085013_26532.JPEG
subject-08,2,14,0.916244029998779,airplane,airplane,2-3-10,1294_eid_s08_2-3-10_airplane_10_n02690373_10931.JPEG
subject-08,2,15,0.764749050140381,car,car,2-0-10,1295_eid_s08_2-0-10_car_10_n02814533_4188.JPEG
subject-08,2,16,1.10509920120239,bicycle,knife,16-10-10,1296_eid_s08_16-10-10_knife_10_n03041632_8563.JPEG
subject-08,2,17,0.936933040618896,bear,airplane,128-0-10,1297_eid_s08_128-0-10_airplane_10_n02690373_1213.JPEG
subject-08,2,18,0.793292999267578,bird,bird,2-10-10,1298_eid_s08_2-10-10_bird_10_n01860187_5776.JPEG
subject-08,2,19,0.803811073303223,cat,bicycle,16-3-10,1299_eid_s08_16-3-10_bicycle_10_n02835271_7303.JPEG
subject-08,2,20,0.852428913116455,oven,oven,1-10-10,1300_eid_s08_1-10-10_oven_10_n04111531_2456.JPEG
subject-08,2,21,0.861915111541748,airplane,airplane,16-0-10,1301_eid_s08_16-0-10_airplane_10_n02690373_10449.JPEG
subject-08,2,22,0.640707015991211,boat,boat,16-3-10,1302_eid_s08_16-3-10_boat_10_n02951358_15376.JPEG
subject-08,2,23,1.00496912002563,chair,chair,4-10-10,1303_eid_s08_4-10-10_chair_10_n04099969_5524.JPEG
subject-08,2,24,0.799766778945923,oven,oven,1-3-10,1304_eid_s08_1-3-10_oven_10_n04111531_9334.JPEG
subject-08,2,25,0.563865900039673,clock,dog,32-0-10,1305_eid_s08_32-0-10_dog_10_n02097047_4283.JPEG
subject-08,2,26,0.666347026824951,car,car,1-0-10,1306_eid_s08_1-0-10_car_10_n04285008_10736.JPEG
subject-08,2,27,0.630717039108276,boat,knife,8-3-10,1307_eid_s08_8-3-10_knife_10_n03041632_737.JPEG
subject-08,2,28,0.825440168380737,bird,bear,32-10-10,1308_eid_s08_32-10-10_bear_10_n02133161_3544.JPEG
subject-08,2,29,1.11163711547852,elephant,cat,16-3-10,1309_eid_s08_16-3-10_cat_10_n02125311_3210.JPEG
subject-08,2,30,0.600055932998657,oven,boat,64-3-10,1310_eid_s08_64-3-10_boat_10_n03344393_7532.JPEG
subject-08,2,31,0.656599044799805,cat,knife,8-0-10,1311_eid_s08_8-0-10_knife_10_n03041632_51256.JPEG
subject-08,2,32,0.965076923370361,bear,oven,32-10-10,1312_eid_s08_32-10-10_oven_10_n04111531_689.JPEG
subject-08,2,33,1.01326203346252,boat,airplane,64-3-10,1313_eid_s08_64-3-10_airplane_10_n02690373_19329.JPEG
subject-08,2,34,NaN,na,oven,1-10-10,1314_eid_s08_1-10-10_oven_10_n04111531_3314.JPEG
subject-08,2,35,0.887901067733765,oven,oven,2-10-10,1315_eid_s08_2-10-10_oven_10_n04111531_19000.JPEG
subject-08,2,36,0.858465909957886,bottle,keyboard,4-0-10,1316_eid_s08_4-0-10_keyboard_10_n04505470_2616.JPEG
subject-08,2,37,0.893193006515503,airplane,airplane,1-0-10,1317_eid_s08_1-0-10_airplane_10_n02690373_5405.JPEG
subject-08,2,38,0.900928020477295,bottle,bottle,1-0-10,1318_eid_s08_1-0-10_bottle_10_n04557648_3127.JPEG
subject-08,2,39,0.895315170288086,bird,bicycle,128-10-10,1319_eid_s08_128-10-10_bicycle_10_n02835271_9237.JPEG
subject-08,2,40,1.3430860042572,bear,bear,1-10-10,1320_eid_s08_1-10-10_bear_10_n02132136_769.JPEG
subject-08,2,41,0.707753896713257,bicycle,bicycle,1-0-10,1321_eid_s08_1-0-10_bicycle_10_n03792782_4540.JPEG
subject-08,2,42,1.17211508750916,dog,bear,8-0-10,1322_eid_s08_8-0-10_bear_10_n02133161_3183.JPEG
subject-08,2,43,0.720510005950928,cat,bird,8-0-10,1323_eid_s08_8-0-10_bird_10_n02051845_10469.JPEG
subject-08,2,44,0.968966007232666,clock,cat,8-0-10,1324_eid_s08_8-0-10_cat_10_n02124075_13894.JPEG
subject-08,2,45,0.722227811813354,boat,bird,128-10-10,1325_eid_s08_128-10-10_bird_10_n02033041_2217.JPEG
subject-08,2,46,0.90864109992981,keyboard,chair,64-3-10,1326_eid_s08_64-3-10_chair_10_n02791124_10723.JPEG
subject-08,2,47,0.919384002685547,elephant,elephant,1-10-10,1327_eid_s08_1-10-10_elephant_10_n02504013_5070.JPEG
subject-08,2,48,0.767931938171387,elephant,elephant,4-10-10,1328_eid_s08_4-10-10_elephant_10_n02504013_6660.JPEG
subject-08,2,49,1.03696179389954,chair,airplane,1-3-10,1329_eid_s08_1-3-10_airplane_10_n02690373_3468.JPEG
subject-08,2,50,1.29091811180115,clock,chair,32-10-10,1330_eid_s08_32-10-10_chair_10_n04099969_11341.JPEG
subject-08,2,51,0.877208948135376,airplane,airplane,1-10-10,1331_eid_s08_1-10-10_airplane_10_n02690373_4108.JPEG
subject-08,2,52,1.41701197624207,clock,clock,2-3-10,1332_eid_s08_2-3-10_clock_10_n04548280_8795.JPEG
subject-08,2,53,1.21970105171204,airplane,airplane,8-0-10,1333_eid_s08_8-0-10_airplane_10_n02690373_9537.JPEG
subject-08,2,54,0.889381170272827,oven,oven,2-0-10,1334_eid_s08_2-0-10_oven_10_n04111531_5336.JPEG
subject-08,2,55,0.821351051330566,bicycle,bicycle,16-10-10,1335_eid_s08_16-10-10_bicycle_10_n03792782_31101.JPEG
subject-08,2,56,0.66187596321106,bottle,bottle,1-10-10,1336_eid_s08_1-10-10_bottle_10_n03937543_5617.JPEG
subject-08,2,57,0.788136005401611,boat,bicycle,16-3-10,1337_eid_s08_16-3-10_bicycle_10_n03792782_8102.JPEG
subject-08,2,58,0.781546115875244,bird,car,128-3-10,1338_eid_s08_128-3-10_car_10_n02814533_17701.JPEG
subject-08,2,59,0.822077989578247,cat,bottle,8-3-10,1339_eid_s08_8-3-10_bottle_10_n04560804_20128.JPEG
subject-08,2,60,0.670799970626831,airplane,airplane,2-3-10,1340_eid_s08_2-3-10_airplane_10_n02690373_2867.JPEG
subject-08,2,61,1.12787699699402,car,car,8-3-10,1341_eid_s08_8-3-10_car_10_n03100240_2971.JPEG
subject-08,2,62,1.08150696754456,clock,truck,128-0-10,1342_eid_s08_128-0-10_truck_10_n03796401_28856.JPEG
subject-08,2,63,0.731954097747803,dog,dog,8-10-10,1343_eid_s08_8-10-10_dog_10_n02093859_1194.JPEG
subject-08,2,64,0.910569906234741,dog,dog,1-0-10,1344_eid_s08_1-0-10_dog_10_n02108915_3643.JPEG
subject-08,2,65,1.16670703887939,knife,bird,32-3-10,1345_eid_s08_32-3-10_bird_10_n01828970_8791.JPEG
subject-08,2,66,0.795552968978882,boat,bicycle,64-0-10,1346_eid_s08_64-0-10_bicycle_10_n02835271_3677.JPEG
subject-08,2,67,1.4226770401001,bear,car,32-0-10,1347_eid_s08_32-0-10_car_10_n03100240_16310.JPEG
subject-08,2,68,0.662822008132935,clock,bottle,32-0-10,1348_eid_s08_32-0-10_bottle_10_n04560804_19462.JPEG
subject-08,2,69,0.85671591758728,bird,bird,4-3-10,1349_eid_s08_4-3-10_bird_10_n02018207_12485.JPEG
subject-08,2,70,0.872760057449341,chair,chair,8-10-10,1350_eid_s08_8-10-10_chair_10_n03376595_3169.JPEG
subject-08,2,71,0.852690935134888,keyboard,boat,64-10-10,1351_eid_s08_64-10-10_boat_10_n03344393_7805.JPEG
subject-08,2,72,1.37720012664795,clock,clock,2-10-10,1352_eid_s08_2-10-10_clock_10_n03196217_194.JPEG
subject-08,2,73,0.579447984695435,boat,chair,16-3-10,1353_eid_s08_16-3-10_chair_10_n03376595_9986.JPEG
subject-08,2,74,0.927874088287354,dog,bear,4-0-10,1354_eid_s08_4-0-10_bear_10_n02132136_9840.JPEG
subject-08,2,75,1.2141330242157,bird,bird,1-3-10,1355_eid_s08_1-3-10_bird_10_n02018795_4689.JPEG
subject-08,2,76,1.14893293380737,elephant,bicycle,16-0-10,1356_eid_s08_16-0-10_bicycle_10_n03792782_636.JPEG
subject-08,2,77,1.22805285453796,oven,boat,4-0-10,1357_eid_s08_4-0-10_boat_10_n04273569_24633.JPEG
subject-08,2,78,0.924391031265259,cat,bottle,32-3-10,1358_eid_s08_32-3-10_bottle_10_n03937543_1688.JPEG
subject-08,2,79,1.05688714981079,clock,clock,4-3-10,1359_eid_s08_4-3-10_clock_10_n04548280_2299.JPEG
subject-08,2,80,0.842854976654053,bird,bird,16-10-10,1360_eid_s08_16-10-10_bird_10_n02018207_7411.JPEG
subject-08,2,81,1.07537078857422,bicycle,elephant,32-3-10,1361_eid_s08_32-3-10_elephant_10_n02504013_7308.JPEG
subject-08,2,82,0.631650924682617,car,boat,64-0-10,1362_eid_s08_64-0-10_boat_10_n04273569_2037.JPEG
subject-08,2,83,0.888225078582764,boat,knife,4-3-10,1363_eid_s08_4-3-10_knife_10_n03041632_30565.JPEG
subject-08,2,84,0.958170175552368,cat,cat,1-0-10,1364_eid_s08_1-0-10_cat_10_n02123159_4082.JPEG
subject-08,2,85,0.914083003997803,boat,boat,2-10-10,1365_eid_s08_2-10-10_boat_10_n04273569_8776.JPEG
subject-08,2,86,0.878494024276733,boat,boat,8-0-10,1366_eid_s08_8-0-10_boat_10_n04612504_4259.JPEG
subject-08,2,87,0.936733961105347,oven,cat,128-0-10,1367_eid_s08_128-0-10_cat_10_n02123159_4523.JPEG
subject-08,2,88,1.37758183479309,dog,dog,16-10-10,1368_eid_s08_16-10-10_dog_10_n02106662_17763.JPEG
subject-08,2,89,0.979841947555542,car,bird,128-0-10,1369_eid_s08_128-0-10_bird_10_n02018207_15744.JPEG
subject-08,2,90,1.01432991027832,boat,boat,2-3-10,1370_eid_s08_2-3-10_boat_10_n04273569_32786.JPEG
subject-08,2,91,1.38480091094971,bottle,bottle,2-0-10,1371_eid_s08_2-0-10_bottle_10_n04560804_14729.JPEG
subject-08,2,92,0.69546103477478,bird,bird,4-10-10,1372_eid_s08_4-10-10_bird_10_n01843383_3415.JPEG
subject-08,2,93,0.843744993209839,car,car,1-0-10,1373_eid_s08_1-0-10_car_10_n04285008_10297.JPEG
subject-08,2,94,0.830956935882568,airplane,airplane,2-3-10,1374_eid_s08_2-3-10_airplane_10_n02690373_8711.JPEG
subject-08,2,95,0.625293970108032,boat,airplane,64-10-10,1375_eid_s08_64-10-10_airplane_10_n02690373_5797.JPEG
subject-08,2,96,0.765667915344238,knife,knife,2-10-10,1376_eid_s08_2-10-10_knife_10_n03041632_86251.JPEG
subject-08,2,97,0.713939905166626,oven,airplane,128-0-10,1377_eid_s08_128-0-10_airplane_10_n02690373_10112.JPEG
subject-08,2,98,0.762097120285034,clock,oven,64-0-10,1378_eid_s08_64-0-10_oven_10_n04111531_9844.JPEG
subject-08,2,99,0.872503995895386,keyboard,keyboard,1-0-10,1379_eid_s08_1-0-10_keyboard_10_n04505470_9156.JPEG
subject-08,2,100,1.34283185005188,keyboard,keyboard,2-10-10,1380_eid_s08_2-10-10_keyboard_10_n04505470_5046.JPEG
subject-08,2,101,0.837492942810059,bear,bear,16-0-10,1381_eid_s08_16-0-10_bear_10_n02134418_1110.JPEG
subject-08,2,102,0.81797194480896,bottle,bottle,4-3-10,1382_eid_s08_4-3-10_bottle_10_n03983396_17147.JPEG
subject-08,2,103,1.09637594223022,chair,bicycle,64-0-10,1383_eid_s08_64-0-10_bicycle_10_n02835271_3329.JPEG
subject-08,2,104,0.736769914627075,cat,dog,1-0-10,1384_eid_s08_1-0-10_dog_10_n02102480_5541.JPEG
subject-08,2,105,0.879356861114502,car,truck,32-3-10,1385_eid_s08_32-3-10_truck_10_n03417042_27151.JPEG
subject-08,2,106,1.26621007919312,dog,dog,1-10-10,1386_eid_s08_1-10-10_dog_10_n02106166_975.JPEG
subject-08,2,107,0.760303020477295,clock,bottle,128-0-10,1387_eid_s08_128-0-10_bottle_10_n04579145_5824.JPEG
subject-08,2,108,0.63805103302002,boat,cat,128-3-10,1388_eid_s08_128-3-10_cat_10_n02123394_2045.JPEG
subject-08,2,109,0.748872041702271,cat,cat,4-10-10,1389_eid_s08_4-10-10_cat_10_n02124075_14924.JPEG
subject-08,2,110,1.01318597793579,bicycle,bicycle,16-10-10,1390_eid_s08_16-10-10_bicycle_10_n03792782_19840.JPEG
subject-08,2,111,0.769807100296021,car,cat,32-3-10,1391_eid_s08_32-3-10_cat_10_n02124075_8257.JPEG
subject-08,2,112,0.878031969070435,truck,elephant,64-0-10,1392_eid_s08_64-0-10_elephant_10_n02504013_22633.JPEG
subject-08,2,113,1.21807384490967,chair,oven,64-3-10,1393_eid_s08_64-3-10_oven_10_n04111531_17072.JPEG
subject-08,2,114,1.35061597824097,keyboard,keyboard,4-3-10,1394_eid_s08_4-3-10_keyboard_10_n03085013_22494.JPEG
subject-08,2,115,0.745160102844238,boat,cat,16-0-10,1395_eid_s08_16-0-10_cat_10_n02124075_17474.JPEG
subject-08,2,116,0.709429025650024,knife,knife,1-10-10,1396_eid_s08_1-10-10_knife_10_n03041632_5916.JPEG
subject-08,2,117,1.27114987373352,airplane,keyboard,16-10-10,1397_eid_s08_16-10-10_keyboard_10_n03085013_24653.JPEG
subject-08,2,118,0.951601982116699,cat,bottle,8-0-10,1398_eid_s08_8-0-10_bottle_10_n04557648_4017.JPEG
subject-08,2,119,1.40590405464172,boat,truck,64-10-10,1399_eid_s08_64-10-10_truck_10_n04467665_12049.JPEG
subject-08,2,120,1.3404848575592,elephant,elephant,4-10-10,1400_eid_s08_4-10-10_elephant_10_n02504458_2618.JPEG
subject-08,2,121,0.849127054214478,keyboard,keyboard,1-10-10,1401_eid_s08_1-10-10_keyboard_10_n04505470_6876.JPEG
subject-08,2,122,0.645089149475098,clock,clock,2-3-10,1402_eid_s08_2-3-10_clock_10_n04548280_8156.JPEG
subject-08,2,123,1.02909898757935,bottle,bottle,4-0-10,1403_eid_s08_4-0-10_bottle_10_n04579145_6629.JPEG
subject-08,2,124,1.31536483764648,knife,airplane,64-10-10,1404_eid_s08_64-10-10_airplane_10_n02690373_5628.JPEG
subject-08,2,125,1.03884601593018,elephant,bear,4-0-10,1405_eid_s08_4-0-10_bear_10_n02132136_16699.JPEG
subject-08,2,126,0.995741844177246,car,boat,32-0-10,1406_eid_s08_32-0-10_boat_10_n02951358_35847.JPEG
subject-08,2,127,0.905529975891113,bear,elephant,16-3-10,1407_eid_s08_16-3-10_elephant_10_n02504013_22773.JPEG
subject-08,2,128,0.754392147064209,bicycle,bicycle,4-10-10,1408_eid_s08_4-10-10_bicycle_10_n02835271_3392.JPEG
subject-08,2,129,0.748965978622437,knife,knife,1-3-10,1409_eid_s08_1-3-10_knife_10_n03041632_47759.JPEG
subject-08,2,130,1.06550693511963,bear,bear,1-0-10,1410_eid_s08_1-0-10_bear_10_n02134084_3888.JPEG
subject-08,2,131,0.921306848526001,boat,bird,128-10-10,1411_eid_s08_128-10-10_bird_10_n01824575_4120.JPEG
subject-08,2,132,1.2696521282196,truck,truck,1-10-10,1412_eid_s08_1-10-10_truck_10_n04467665_11776.JPEG
subject-08,2,133,0.964418888092041,knife,knife,1-3-10,1413_eid_s08_1-3-10_knife_10_n03041632_4806.JPEG
subject-08,2,134,0.794377088546753,cat,cat,2-10-10,1414_eid_s08_2-10-10_cat_10_n02124075_11704.JPEG
subject-08,2,135,0.758928060531616,keyboard,keyboard,1-3-10,1415_eid_s08_1-3-10_keyboard_10_n04505470_996.JPEG
subject-08,2,136,0.809671878814697,boat,oven,16-3-10,1416_eid_s08_16-3-10_oven_10_n04111531_14383.JPEG
subject-08,2,137,1.0342800617218,truck,truck,16-10-10,1417_eid_s08_16-10-10_truck_10_n04467665_2790.JPEG
subject-08,2,138,1.02890920639038,car,bear,16-10-10,1418_eid_s08_16-10-10_bear_10_n02133161_8679.JPEG
subject-08,2,139,1.20136094093323,airplane,bird,64-10-10,1419_eid_s08_64-10-10_bird_10_n01582220_32867.JPEG
subject-08,2,140,0.601358890533447,boat,boat,1-10-10,1420_eid_s08_1-10-10_boat_10_n03344393_7175.JPEG
subject-08,2,141,0.674458980560303,car,car,2-0-10,1421_eid_s08_2-0-10_car_10_n04285008_1062.JPEG
subject-08,2,142,0.852644920349121,bird,elephant,128-0-10,1422_eid_s08_128-0-10_elephant_10_n02504013_9021.JPEG
subject-08,2,143,0.916575193405151,bear,bear,64-0-10,1423_eid_s08_64-0-10_bear_10_n02132136_5227.JPEG
subject-08,2,144,1.04104804992676,chair,knife,32-3-10,1424_eid_s08_32-3-10_knife_10_n03041632_33268.JPEG
subject-08,2,145,0.797302007675171,chair,chair,1-3-10,1425_eid_s08_1-3-10_chair_10_n04429376_16155.JPEG
subject-08,2,146,0.922118902206421,cat,car,64-10-10,1426_eid_s08_64-10-10_car_10_n04285008_3514.JPEG
subject-08,2,147,0.94044303894043,airplane,airplane,1-0-10,1427_eid_s08_1-0-10_airplane_10_n02690373_5238.JPEG
subject-08,2,148,0.734952211380005,boat,dog,16-3-10,1428_eid_s08_16-3-10_dog_10_n02100583_27302.JPEG
subject-08,2,149,0.975379228591919,bicycle,bicycle,2-0-10,1429_eid_s08_2-0-10_bicycle_10_n03792782_818.JPEG
subject-08,2,150,0.647664070129395,bicycle,bicycle,1-10-10,1430_eid_s08_1-10-10_bicycle_10_n02835271_15087.JPEG
subject-08,2,151,0.834191083908081,car,bicycle,128-0-10,1431_eid_s08_128-0-10_bicycle_10_n02835271_12674.JPEG
subject-08,2,152,1.0507550239563,boat,elephant,32-0-10,1432_eid_s08_32-0-10_elephant_10_n02504013_6078.JPEG
subject-08,2,153,0.860995054244995,bicycle,bicycle,2-10-10,1433_eid_s08_2-10-10_bicycle_10_n03792782_122.JPEG
subject-08,2,154,1.24697995185852,cat,knife,4-0-10,1434_eid_s08_4-0-10_knife_10_n03041632_33225.JPEG
subject-08,2,155,1.09564805030823,bird,bird,8-10-10,1435_eid_s08_8-10-10_bird_10_n01819313_6812.JPEG
subject-08,2,156,0.873480796813965,bear,chair,16-0-10,1436_eid_s08_16-0-10_chair_10_n04429376_12337.JPEG
subject-08,2,157,0.799184083938599,keyboard,keyboard,8-10-10,1437_eid_s08_8-10-10_keyboard_10_n04505470_4484.JPEG
subject-08,2,158,1.13179898262024,cat,airplane,32-0-10,1438_eid_s08_32-0-10_airplane_10_n02690373_9743.JPEG
subject-08,2,159,0.956549882888794,airplane,bicycle,128-10-10,1439_eid_s08_128-10-10_bicycle_10_n03792782_2628.JPEG
subject-08,2,160,0.958003997802734,bicycle,bear,2-10-10,1440_eid_s08_2-10-10_bear_10_n02132136_3959.JPEG
subject-08,2,161,1.14385914802551,elephant,bird,16-0-10,1441_eid_s08_16-0-10_bird_10_n02056570_9944.JPEG
subject-08,2,162,0.838093042373657,dog,dog,4-0-10,1442_eid_s08_4-0-10_dog_10_n02090721_958.JPEG
subject-08,2,163,1.13242292404175,bottle,chair,1-3-10,1443_eid_s08_1-3-10_chair_10_n02791124_146.JPEG
subject-08,2,164,0.91913890838623,cat,oven,128-10-10,1444_eid_s08_128-10-10_oven_10_n04111531_16795.JPEG
subject-08,2,165,0.705738067626953,bear,elephant,128-10-10,1445_eid_s08_128-10-10_elephant_10_n02504458_10243.JPEG
subject-08,2,166,0.886670112609863,cat,car,16-3-10,1446_eid_s08_16-3-10_car_10_n02814533_14837.JPEG
subject-08,2,167,0.848810911178589,keyboard,keyboard,1-0-10,1447_eid_s08_1-0-10_keyboard_10_n03085013_21948.JPEG
subject-08,2,168,0.883225202560425,cat,oven,8-3-10,1448_eid_s08_8-3-10_oven_10_n04111531_5991.JPEG
subject-08,2,169,0.791585922241211,elephant,elephant,1-10-10,1449_eid_s08_1-10-10_elephant_10_n02504013_4150.JPEG
subject-08,2,170,1.39401912689209,airplane,dog,1-10-10,1450_eid_s08_1-10-10_dog_10_n02098286_4779.JPEG
subject-08,2,171,1.14710903167725,oven,oven,8-10-10,1451_eid_s08_8-10-10_oven_10_n04111531_4375.JPEG
subject-08,2,172,0.841561079025269,dog,bear,16-10-10,1452_eid_s08_16-10-10_bear_10_n02134084_712.JPEG
subject-08,2,173,0.922194957733154,bear,bear,2-0-10,1453_eid_s08_2-0-10_bear_10_n02134418_5976.JPEG
subject-08,2,174,0.892592906951904,car,bottle,64-3-10,1454_eid_s08_64-3-10_bottle_10_n04557648_5370.JPEG
subject-08,2,175,0.879315137863159,cat,elephant,64-3-10,1455_eid_s08_64-3-10_elephant_10_n02504013_1502.JPEG
subject-08,2,176,0.843327045440674,keyboard,boat,64-3-10,1456_eid_s08_64-3-10_boat_10_n02951358_15016.JPEG
subject-08,2,177,1.34638595581055,bottle,knife,8-10-10,1457_eid_s08_8-10-10_knife_10_n03041632_11741.JPEG
subject-08,2,178,0.661778926849365,boat,airplane,32-3-10,1458_eid_s08_32-3-10_airplane_10_n02690373_1769.JPEG
subject-08,2,179,0.710048913955688,cat,chair,64-3-10,1459_eid_s08_64-3-10_chair_10_n02791124_263.JPEG
subject-08,2,180,0.920225858688354,chair,boat,8-0-10,1460_eid_s08_8-0-10_boat_10_n03344393_402.JPEG
subject-08,2,181,0.699115037918091,cat,cat,2-3-10,1461_eid_s08_2-3-10_cat_10_n02123045_6445.JPEG
subject-08,2,182,0.714659929275513,bear,oven,8-3-10,1462_eid_s08_8-3-10_oven_10_n04111531_8082.JPEG
subject-08,2,183,0.895188093185425,bicycle,bicycle,32-3-10,1463_eid_s08_32-3-10_bicycle_10_n03792782_4522.JPEG
subject-08,2,184,1.3192400932312,elephant,elephant,8-10-10,1464_eid_s08_8-10-10_elephant_10_n02504013_2340.JPEG
subject-08,2,185,0.851639986038208,truck,truck,4-10-10,1465_eid_s08_4-10-10_truck_10_n03417042_4491.JPEG
subject-08,2,186,0.700031995773315,clock,clock,4-0-10,1466_eid_s08_4-0-10_clock_10_n03196217_2192.JPEG
subject-08,2,187,0.832330942153931,bear,bear,2-10-10,1467_eid_s08_2-10-10_bear_10_n02134418_2822.JPEG
subject-08,2,188,1.13928198814392,car,bear,128-3-10,1468_eid_s08_128-3-10_bear_10_n02134084_13588.JPEG
subject-08,2,189,0.619750022888184,keyboard,oven,64-10-10,1469_eid_s08_64-10-10_oven_10_n04111531_15267.JPEG
subject-08,2,190,1.42834806442261,truck,truck,2-10-10,1470_eid_s08_2-10-10_truck_10_n04467665_5444.JPEG
subject-08,2,191,0.670517921447754,oven,knife,128-0-10,1471_eid_s08_128-0-10_knife_10_n03041632_13225.JPEG
subject-08,2,192,1.35693192481995,oven,airplane,2-3-10,1472_eid_s08_2-3-10_airplane_10_n02690373_139.JPEG
subject-08,2,193,1.08161616325378,elephant,elephant,32-10-10,1473_eid_s08_32-10-10_elephant_10_n02504013_5216.JPEG
subject-08,2,194,0.460012912750244,boat,chair,128-0-10,1474_eid_s08_128-0-10_chair_10_n03376595_19406.JPEG
subject-08,2,195,1.05466985702515,elephant,bear,8-0-10,1475_eid_s08_8-0-10_bear_10_n02133161_14303.JPEG
subject-08,2,196,0.73331093788147,keyboard,bottle,128-3-10,1476_eid_s08_128-3-10_bottle_10_n04579145_1614.JPEG
subject-08,2,197,1.07365393638611,chair,bottle,1-10-10,1477_eid_s08_1-10-10_bottle_10_n04560804_283.JPEG
subject-08,2,198,1.0518479347229,boat,boat,4-3-10,1478_eid_s08_4-3-10_boat_10_n03662601_81.JPEG
subject-08,2,199,0.8003089427948,cat,oven,64-0-10,1479_eid_s08_64-0-10_oven_10_n04111531_14055.JPEG
subject-08,2,200,0.749051094055176,dog,dog,1-3-10,1480_eid_s08_1-3-10_dog_10_n02102318_3542.JPEG
subject-08,2,201,0.880694150924683,car,car,2-0-10,1481_eid_s08_2-0-10_car_10_n04285008_4290.JPEG
subject-08,2,202,0.775262832641602,bear,bear,4-0-10,1482_eid_s08_4-0-10_bear_10_n02134418_704.JPEG
subject-08,2,203,0.756071090698242,bird,boat,128-0-10,1483_eid_s08_128-0-10_boat_10_n02951358_13202.JPEG
subject-08,2,204,0.768031120300293,car,car,4-3-10,1484_eid_s08_4-3-10_car_10_n03100240_584.JPEG
subject-08,2,205,1.10831212997437,keyboard,knife,128-10-10,1485_eid_s08_128-10-10_knife_10_n03041632_36390.JPEG
subject-08,2,206,0.762755155563354,dog,dog,2-0-10,1486_eid_s08_2-0-10_dog_10_n02108000_6432.JPEG
subject-08,2,207,0.756915807723999,chair,bottle,32-3-10,1487_eid_s08_32-3-10_bottle_10_n04591713_6563.JPEG
subject-08,2,208,0.675709009170532,cat,bottle,8-0-10,1488_eid_s08_8-0-10_bottle_10_n04560804_13541.JPEG
subject-08,2,209,0.700238943099976,clock,clock,2-10-10,1489_eid_s08_2-10-10_clock_10_n02708093_3352.JPEG
subject-08,2,210,1.24081015586853,knife,knife,4-3-10,1490_eid_s08_4-3-10_knife_10_n03041632_35260.JPEG
subject-08,2,211,0.875505924224854,bird,bird,2-10-10,1491_eid_s08_2-10-10_bird_10_n01829413_7281.JPEG
subject-08,2,212,0.970106840133667,car,dog,64-10-10,1492_eid_s08_64-10-10_dog_10_n02107142_3513.JPEG
subject-08,2,213,0.964179039001465,dog,dog,2-10-10,1493_eid_s08_2-10-10_dog_10_n02096051_7638.JPEG
subject-08,2,214,0.734158992767334,keyboard,keyboard,1-0-10,1494_eid_s08_1-0-10_keyboard_10_n04505470_4104.JPEG
subject-08,2,215,1.25079083442688,car,chair,32-3-10,1495_eid_s08_32-3-10_chair_10_n04429376_4564.JPEG
subject-08,2,216,0.669420957565308,cat,cat,8-10-10,1496_eid_s08_8-10-10_cat_10_n02123597_324.JPEG
subject-08,2,217,1.00986695289612,clock,bird,2-3-10,1497_eid_s08_2-3-10_bird_10_n02018207_3940.JPEG
subject-08,2,218,1.45013213157654,boat,cat,4-3-10,1498_eid_s08_4-3-10_cat_10_n02123597_7160.JPEG
subject-08,2,219,1.29105281829834,bear,bottle,2-10-10,1499_eid_s08_2-10-10_bottle_10_n04557648_2817.JPEG
subject-08,2,220,0.88570499420166,airplane,elephant,64-0-10,1500_eid_s08_64-0-10_elephant_10_n02504458_7359.JPEG
subject-08,2,221,1.04174995422363,bird,oven,4-3-10,1501_eid_s08_4-3-10_oven_10_n04111531_8036.JPEG
subject-08,2,222,0.690125942230225,boat,bear,128-3-10,1502_eid_s08_128-3-10_bear_10_n02134084_6901.JPEG
subject-08,2,223,0.860702991485596,chair,dog,64-0-10,1503_eid_s08_64-0-10_dog_10_n02094433_10679.JPEG
subject-08,2,224,1.10076403617859,elephant,elephant,1-0-10,1504_eid_s08_1-0-10_elephant_10_n02504458_4001.JPEG
subject-08,2,225,0.847096920013428,clock,dog,128-10-10,1505_eid_s08_128-10-10_dog_10_n02105251_5344.JPEG
subject-08,2,226,0.648685932159424,car,bicycle,16-0-10,1506_eid_s08_16-0-10_bicycle_10_n02835271_4593.JPEG
subject-08,2,227,0.973557949066162,bear,bottle,32-0-10,1507_eid_s08_32-0-10_bottle_10_n04591713_1825.JPEG
subject-08,2,228,1.02168202400208,keyboard,oven,8-10-10,1508_eid_s08_8-10-10_oven_10_n04111531_2473.JPEG
subject-08,2,229,1.43217611312866,truck,truck,8-10-10,1509_eid_s08_8-10-10_truck_10_n03796401_8581.JPEG
subject-08,2,230,0.902485847473145,car,car,8-3-10,1510_eid_s08_8-3-10_car_10_n03100240_15795.JPEG
subject-08,2,231,0.635451078414917,clock,clock,4-10-10,1511_eid_s08_4-10-10_clock_10_n03196217_66.JPEG
subject-08,2,232,0.784239053726196,bear,bear,64-10-10,1512_eid_s08_64-10-10_bear_10_n02134418_8454.JPEG
subject-08,2,233,0.795175790786743,chair,airplane,128-10-10,1513_eid_s08_128-10-10_airplane_10_n02690373_3216.JPEG
subject-08,2,234,0.574274063110352,boat,dog,64-10-10,1514_eid_s08_64-10-10_dog_10_n02100877_11681.JPEG
subject-08,2,235,0.923108100891113,car,car,8-10-10,1515_eid_s08_8-10-10_car_10_n02814533_19312.JPEG
subject-08,2,236,0.735125064849854,keyboard,airplane,32-0-10,1516_eid_s08_32-0-10_airplane_10_n02690373_10423.JPEG
subject-08,2,237,0.943849802017212,car,car,4-3-10,1517_eid_s08_4-3-10_car_10_n02814533_614.JPEG
subject-08,2,238,0.676196813583374,bird,bird,4-10-10,1518_eid_s08_4-10-10_bird_10_n01614925_8795.JPEG
subject-08,2,239,1.01686906814575,airplane,airplane,2-0-10,1519_eid_s08_2-0-10_airplane_10_n02690373_7145.JPEG
subject-08,2,240,1.33536386489868,car,keyboard,8-3-10,1520_eid_s08_8-3-10_keyboard_10_n03085013_19407.JPEG
subject-08,2,241,0.613489866256714,truck,truck,2-3-10,1521_eid_s08_2-3-10_truck_10_n03417042_23541.JPEG
subject-08,2,242,0.921556949615479,dog,dog,8-10-10,1522_eid_s08_8-10-10_dog_10_n02109047_6583.JPEG
subject-08,2,243,1.04518890380859,cat,cat,64-3-10,1523_eid_s08_64-3-10_cat_10_n02123045_6937.JPEG
subject-08,2,244,1.1013069152832,clock,clock,1-0-10,1524_eid_s08_1-0-10_clock_10_n03196217_3194.JPEG
subject-08,2,245,1.31395816802979,bear,knife,64-3-10,1525_eid_s08_64-3-10_knife_10_n03041632_19275.JPEG
subject-08,2,246,0.978203058242798,car,bear,128-0-10,1526_eid_s08_128-0-10_bear_10_n02133161_1764.JPEG
subject-08,2,247,1.03398704528809,cat,cat,2-0-10,1527_eid_s08_2-0-10_cat_10_n02123394_2174.JPEG
subject-08,2,248,1.06607413291931,keyboard,bottle,16-0-10,1528_eid_s08_16-0-10_bottle_10_n02823428_2908.JPEG
subject-08,2,249,1.13583612442017,bicycle,bicycle,4-10-10,1529_eid_s08_4-10-10_bicycle_10_n03792782_10734.JPEG
subject-08,2,250,0.897701025009155,chair,chair,8-0-10,1530_eid_s08_8-0-10_chair_10_n04099969_4482.JPEG
subject-08,2,251,0.984750986099243,dog,dog,1-10-10,1531_eid_s08_1-10-10_dog_10_n02113624_3522.JPEG
subject-08,2,252,0.702332019805908,elephant,elephant,8-10-10,1532_eid_s08_8-10-10_elephant_10_n02504458_4465.JPEG
subject-08,2,253,1.25662708282471,chair,chair,4-3-10,1533_eid_s08_4-3-10_chair_10_n02791124_6390.JPEG
subject-08,2,254,0.889402866363525,car,car,2-0-10,1534_eid_s08_2-0-10_car_10_n03100240_6205.JPEG
subject-08,2,255,0.845132112503052,bottle,bottle,1-0-10,1535_eid_s08_1-0-10_bottle_10_n03983396_3372.JPEG
subject-08,2,256,1.50020098686218,oven,knife,8-10-10,1536_eid_s08_8-10-10_knife_10_n03041632_18859.JPEG
subject-08,2,257,0.80334210395813,truck,truck,16-10-10,1537_eid_s08_16-10-10_truck_10_n03417042_10197.JPEG
subject-08,2,258,0.705276966094971,bird,bird,1-10-10,1538_eid_s08_1-10-10_bird_10_n02056570_8374.JPEG
subject-08,2,259,0.867543935775757,elephant,elephant,2-0-10,1539_eid_s08_2-0-10_elephant_10_n02504458_8923.JPEG
subject-08,2,260,0.653890132904053,truck,truck,1-3-10,1540_eid_s08_1-3-10_truck_10_n03796401_24078.JPEG
subject-08,2,261,0.755877017974854,knife,knife,8-0-10,1541_eid_s08_8-0-10_knife_10_n03041632_14774.JPEG
subject-08,2,262,0.610347032546997,truck,truck,4-0-10,1542_eid_s08_4-0-10_truck_10_n04467665_67592.JPEG
subject-08,2,263,0.974592208862305,elephant,cat,128-10-10,1543_eid_s08_128-10-10_cat_10_n02124075_9065.JPEG
subject-08,2,264,0.899081945419312,cat,oven,64-0-10,1544_eid_s08_64-0-10_oven_10_n04111531_15290.JPEG
subject-08,2,265,0.855532169342041,keyboard,keyboard,8-10-10,1545_eid_s08_8-10-10_keyboard_10_n03085013_22012.JPEG
subject-08,2,266,0.86369800567627,cat,cat,2-0-10,1546_eid_s08_2-0-10_cat_10_n02125311_17266.JPEG
subject-08,2,267,0.871663093566895,bear,car,64-10-10,1547_eid_s08_64-10-10_car_10_n04285008_11970.JPEG
subject-08,2,268,1.12829685211182,dog,bear,32-0-10,1548_eid_s08_32-0-10_bear_10_n02133161_3622.JPEG
subject-08,2,269,1.12255716323853,dog,dog,4-0-10,1549_eid_s08_4-0-10_dog_10_n02108915_2873.JPEG
subject-08,2,270,0.963490009307861,bird,oven,1-10-10,1550_eid_s08_1-10-10_oven_10_n04111531_15257.JPEG
subject-08,2,271,0.963361024856567,cat,chair,16-3-10,1551_eid_s08_16-3-10_chair_10_n03376595_369.JPEG
subject-08,2,272,0.806192874908447,keyboard,bottle,128-0-10,1552_eid_s08_128-0-10_bottle_10_n04591713_1316.JPEG
subject-08,2,273,1.06893801689148,bear,bear,4-3-10,1553_eid_s08_4-3-10_bear_10_n02133161_11299.JPEG
subject-08,2,274,0.817206144332886,bird,bird,4-10-10,1554_eid_s08_4-10-10_bird_10_n01828970_207.JPEG
subject-08,2,275,1.0956859588623,airplane,bird,128-10-10,1555_eid_s08_128-10-10_bird_10_n02028035_16381.JPEG
subject-08,2,276,0.666258096694946,oven,oven,1-10-10,1556_eid_s08_1-10-10_oven_10_n04111531_4392.JPEG
subject-08,2,277,0.829898118972778,car,elephant,64-0-10,1557_eid_s08_64-0-10_elephant_10_n02504458_4967.JPEG
subject-08,2,278,1.17571187019348,dog,elephant,64-0-10,1558_eid_s08_64-0-10_elephant_10_n02504458_12705.JPEG
subject-08,2,279,0.970155954360962,bird,bottle,128-10-10,1559_eid_s08_128-10-10_bottle_10_n04557648_1963.JPEG
subject-08,2,280,0.924524068832397,bear,bottle,16-0-10,1560_eid_s08_16-0-10_bottle_10_n02823428_11641.JPEG
subject-08,2,281,1.00467205047607,bird,dog,32-3-10,1561_eid_s08_32-3-10_dog_10_n02105641_10213.JPEG
subject-08,2,282,0.9510338306427,dog,bird,8-0-10,1562_eid_s08_8-0-10_bird_10_n02002556_848.JPEG
subject-08,2,283,1.03726196289062,bear,bear,4-10-10,1563_eid_s08_4-10-10_bear_10_n02133161_11817.JPEG
subject-08,2,284,1.24785113334656,car,oven,4-3-10,1564_eid_s08_4-3-10_oven_10_n04111531_22327.JPEG
subject-08,2,285,0.871538877487183,keyboard,cat,128-0-10,1565_eid_s08_128-0-10_cat_10_n02123159_901.JPEG
subject-08,2,286,0.658224821090698,boat,boat,8-10-10,1566_eid_s08_8-10-10_boat_10_n03344393_4977.JPEG
subject-08,2,287,0.95252799987793,cat,elephant,32-10-10,1567_eid_s08_32-10-10_elephant_10_n02504458_6670.JPEG
subject-08,2,288,0.86304783821106,oven,bear,64-3-10,1568_eid_s08_64-3-10_bear_10_n02133161_1712.JPEG
subject-08,2,289,0.640923976898193,boat,bird,64-3-10,1569_eid_s08_64-3-10_bird_10_n01797886_7818.JPEG
subject-08,2,290,0.811374187469482,bird,bird,1-10-10,1570_eid_s08_1-10-10_bird_10_n02017213_4296.JPEG
subject-08,2,291,0.697962045669556,airplane,airplane,8-3-10,1571_eid_s08_8-3-10_airplane_10_n02690373_10395.JPEG
subject-08,2,292,1.33795309066772,truck,bird,8-10-10,1572_eid_s08_8-10-10_bird_10_n01860187_2127.JPEG
subject-08,2,293,0.794763088226318,oven,cat,128-3-10,1573_eid_s08_128-3-10_cat_10_n02123159_5074.JPEG
subject-08,2,294,0.965021133422852,keyboard,elephant,64-3-10,1574_eid_s08_64-3-10_elephant_10_n02504013_3169.JPEG
subject-08,2,295,0.921433925628662,boat,boat,1-10-10,1575_eid_s08_1-10-10_boat_10_n03662601_35633.JPEG
subject-08,2,296,1.39219498634338,bird,knife,32-3-10,1576_eid_s08_32-3-10_knife_10_n03041632_18748.JPEG
subject-08,2,297,0.778033018112183,oven,dog,32-0-10,1577_eid_s08_32-0-10_dog_10_n02088466_7486.JPEG
subject-08,2,298,0.656914949417114,car,boat,128-10-10,1578_eid_s08_128-10-10_boat_10_n02951358_6884.JPEG
subject-08,2,299,0.713407039642334,chair,chair,4-3-10,1579_eid_s08_4-3-10_chair_10_n04099969_18254.JPEG
subject-08,2,300,0.675107002258301,bear,bear,2-0-10,1580_eid_s08_2-0-10_bear_10_n02134418_1384.JPEG
subject-08,2,301,1.00783014297485,cat,car,32-3-10,1581_eid_s08_32-3-10_car_10_n02814533_61501.JPEG
subject-08,2,302,0.893821954727173,clock,bicycle,32-3-10,1582_eid_s08_32-3-10_bicycle_10_n03792782_2264.JPEG
subject-08,2,303,0.710333108901978,car,knife,128-0-10,1583_eid_s08_128-0-10_knife_10_n03041632_9635.JPEG
subject-08,2,304,0.628613948822021,clock,clock,2-10-10,1584_eid_s08_2-10-10_clock_10_n03196217_3868.JPEG
subject-08,2,305,0.883285045623779,cat,cat,16-3-10,1585_eid_s08_16-3-10_cat_10_n02123045_12812.JPEG
subject-08,2,306,0.839601039886475,airplane,bird,16-3-10,1586_eid_s08_16-3-10_bird_10_n01820546_2190.JPEG
subject-08,2,307,0.780513048171997,boat,keyboard,8-0-10,1587_eid_s08_8-0-10_keyboard_10_n03085013_22820.JPEG
subject-08,2,308,0.607197046279907,truck,truck,4-10-10,1588_eid_s08_4-10-10_truck_10_n04467665_12311.JPEG
subject-08,2,309,1.25304985046387,bear,oven,16-3-10,1589_eid_s08_16-3-10_oven_10_n04111531_2643.JPEG
subject-08,2,310,0.809630155563354,bird,bird,2-3-10,1590_eid_s08_2-3-10_bird_10_n01843065_8242.JPEG
subject-08,2,311,0.833967208862305,knife,knife,2-10-10,1591_eid_s08_2-10-10_knife_10_n03041632_1964.JPEG
subject-08,2,312,0.952506065368652,bottle,bottle,2-3-10,1592_eid_s08_2-3-10_bottle_10_n04591713_2246.JPEG
subject-08,2,313,1.2388379573822,boat,bicycle,32-0-10,1593_eid_s08_32-0-10_bicycle_10_n02835271_6157.JPEG
subject-08,2,314,0.749330997467041,truck,clock,4-3-10,1594_eid_s08_4-3-10_clock_10_n04548280_10390.JPEG
subject-08,2,315,0.889716863632202,keyboard,boat,2-10-10,1595_eid_s08_2-10-10_boat_10_n03344393_11806.JPEG
subject-08,2,316,0.638254880905151,oven,bottle,128-3-10,1596_eid_s08_128-3-10_bottle_10_n03937543_2140.JPEG
subject-08,2,317,0.646939039230347,boat,boat,2-0-10,1597_eid_s08_2-0-10_boat_10_n02951358_10313.JPEG
subject-08,2,318,0.857251882553101,cat,bottle,64-3-10,1598_eid_s08_64-3-10_bottle_10_n03983396_5999.JPEG
subject-08,2,319,0.735745191574097,bottle,bottle,1-3-10,1599_eid_s08_1-3-10_bottle_10_n03983396_12184.JPEG
subject-08,2,320,0.629486083984375,car,truck,64-3-10,1600_eid_s08_64-3-10_truck_10_n03796401_5.JPEG
subject-08,2,321,0.707864046096802,keyboard,keyboard,2-10-10,1601_eid_s08_2-10-10_keyboard_10_n04505470_2603.JPEG
subject-08,2,322,0.924650907516479,bird,bear,128-10-10,1602_eid_s08_128-10-10_bear_10_n02134418_5067.JPEG
subject-08,2,323,0.85868501663208,cat,knife,16-0-10,1603_eid_s08_16-0-10_knife_10_n03041632_27848.JPEG
subject-08,2,324,1.25149083137512,clock,clock,4-10-10,1604_eid_s08_4-10-10_clock_10_n04548280_1032.JPEG
subject-08,2,325,1.1620409488678,boat,knife,2-0-10,1605_eid_s08_2-0-10_knife_10_n03041632_16606.JPEG
subject-08,2,326,1.01854205131531,chair,elephant,64-10-10,1606_eid_s08_64-10-10_elephant_10_n02504458_515.JPEG
subject-08,2,327,1.2593469619751,airplane,airplane,64-10-10,1607_eid_s08_64-10-10_airplane_10_n02690373_4486.JPEG
subject-08,2,328,0.637482881546021,keyboard,keyboard,1-3-10,1608_eid_s08_1-3-10_keyboard_10_n03085013_24159.JPEG
subject-08,2,329,0.730079889297485,oven,chair,128-3-10,1609_eid_s08_128-3-10_chair_10_n04429376_19905.JPEG
subject-08,2,330,0.840034008026123,airplane,airplane,2-10-10,1610_eid_s08_2-10-10_airplane_10_n02690373_6602.JPEG
subject-08,2,331,0.772512912750244,car,bicycle,8-3-10,1611_eid_s08_8-3-10_bicycle_10_n02835271_3466.JPEG
subject-08,2,332,0.850841045379639,bicycle,bicycle,2-10-10,1612_eid_s08_2-10-10_bicycle_10_n02835271_17280.JPEG
subject-08,2,333,0.883173942565918,elephant,elephant,2-10-10,1613_eid_s08_2-10-10_elephant_10_n02504013_4673.JPEG
subject-08,2,334,0.577678918838501,boat,bottle,64-0-10,1614_eid_s08_64-0-10_bottle_10_n02823428_765.JPEG
subject-08,2,335,1.09412598609924,airplane,boat,16-3-10,1615_eid_s08_16-3-10_boat_10_n03662601_25810.JPEG
subject-08,2,336,1.23417997360229,truck,clock,32-0-10,1616_eid_s08_32-0-10_clock_10_n03196217_11724.JPEG
subject-08,2,337,0.912137985229492,boat,truck,64-0-10,1617_eid_s08_64-0-10_truck_10_n03417042_30.JPEG
subject-08,2,338,0.660821914672852,keyboard,elephant,32-3-10,1618_eid_s08_32-3-10_elephant_10_n02504013_5811.JPEG
subject-08,2,339,1.07961893081665,car,car,4-10-10,1619_eid_s08_4-10-10_car_10_n02814533_70922.JPEG
subject-08,2,340,1.10415196418762,dog,dog,2-10-10,1620_eid_s08_2-10-10_dog_10_n02105162_8024.JPEG
subject-08,2,341,1.5001380443573,clock,bicycle,32-10-10,1621_eid_s08_32-10-10_bicycle_10_n02835271_12861.JPEG
subject-08,2,342,1.03056383132935,clock,clock,1-0-10,1622_eid_s08_1-0-10_clock_10_n03196217_4361.JPEG
subject-08,2,343,0.679044008255005,boat,oven,128-10-10,1623_eid_s08_128-10-10_oven_10_n04111531_14903.JPEG
subject-08,2,344,1.49570083618164,bear,clock,16-0-10,1624_eid_s08_16-0-10_clock_10_n02708093_6558.JPEG
subject-08,2,345,1.28174614906311,keyboard,knife,8-0-10,1625_eid_s08_8-0-10_knife_10_n03041632_29858.JPEG
subject-08,2,346,0.984257936477661,airplane,bird,32-10-10,1626_eid_s08_32-10-10_bird_10_n01537544_2055.JPEG
subject-08,2,347,0.592786073684692,keyboard,keyboard,1-3-10,1627_eid_s08_1-3-10_keyboard_10_n04505470_4619.JPEG
subject-08,2,348,0.91733193397522,oven,elephant,128-10-10,1628_eid_s08_128-10-10_elephant_10_n02504458_7842.JPEG
subject-08,2,349,0.957896947860718,clock,clock,8-10-10,1629_eid_s08_8-10-10_clock_10_n04548280_702.JPEG
subject-08,2,350,0.660151958465576,keyboard,keyboard,1-0-10,1630_eid_s08_1-0-10_keyboard_10_n03085013_9156.JPEG
subject-08,2,351,0.800993919372559,cat,bicycle,128-0-10,1631_eid_s08_128-0-10_bicycle_10_n02835271_262.JPEG
subject-08,2,352,1.21748208999634,airplane,bird,16-10-10,1632_eid_s08_16-10-10_bird_10_n01534433_15855.JPEG
subject-08,2,353,1.31090497970581,clock,knife,8-0-10,1633_eid_s08_8-0-10_knife_10_n03041632_54191.JPEG
subject-08,2,354,0.757272005081177,car,chair,32-10-10,1634_eid_s08_32-10-10_chair_10_n04099969_14345.JPEG
subject-08,2,355,0.729646921157837,bear,clock,64-0-10,1635_eid_s08_64-0-10_clock_10_n04548280_4198.JPEG
subject-08,2,356,0.754312992095947,cat,cat,16-0-10,1636_eid_s08_16-0-10_cat_10_n02123394_3102.JPEG
subject-08,2,357,1.4159140586853,airplane,bird,16-10-10,1637_eid_s08_16-10-10_bird_10_n01796340_3668.JPEG
subject-08,2,358,0.732995986938477,airplane,airplane,4-3-10,1638_eid_s08_4-3-10_airplane_10_n02690373_3640.JPEG
subject-08,2,359,0.859012842178345,bear,bear,16-3-10,1639_eid_s08_16-3-10_bear_10_n02134084_5314.JPEG
subject-08,2,360,0.805562973022461,car,dog,128-0-10,1640_eid_s08_128-0-10_dog_10_n02098286_1940.JPEG
subject-08,2,361,0.661939859390259,bird,bottle,32-0-10,1641_eid_s08_32-0-10_bottle_10_n03937543_2448.JPEG
subject-08,2,362,1.23249006271362,cat,dog,128-10-10,1642_eid_s08_128-10-10_dog_10_n02097658_7248.JPEG
subject-08,2,363,0.688985109329224,bottle,bottle,4-3-10,1643_eid_s08_4-3-10_bottle_10_n02823428_824.JPEG
subject-08,2,364,0.659146070480347,keyboard,bird,8-0-10,1644_eid_s08_8-0-10_bird_10_n01601694_12239.JPEG
subject-08,2,365,0.969689846038818,cat,bear,16-3-10,1645_eid_s08_16-3-10_bear_10_n02134418_3380.JPEG
subject-08,2,366,1.41030502319336,boat,knife,8-0-10,1646_eid_s08_8-0-10_knife_10_n03041632_81004.JPEG
subject-08,2,367,0.756672859191895,car,car,1-10-10,1647_eid_s08_1-10-10_car_10_n04285008_1680.JPEG
subject-08,2,368,1.12885904312134,elephant,car,32-0-10,1648_eid_s08_32-0-10_car_10_n03100240_15867.JPEG
subject-08,2,369,0.921643018722534,dog,clock,32-3-10,1649_eid_s08_32-3-10_clock_10_n04548280_3999.JPEG
subject-08,2,370,0.669847965240479,keyboard,knife,128-3-10,1650_eid_s08_128-3-10_knife_10_n03041632_48151.JPEG
subject-08,2,371,1.14027905464172,oven,oven,1-0-10,1651_eid_s08_1-0-10_oven_10_n04111531_2795.JPEG
subject-08,2,372,0.858937978744507,cat,elephant,128-3-10,1652_eid_s08_128-3-10_elephant_10_n02504013_237.JPEG
subject-08,2,373,1.00795912742615,boat,boat,8-3-10,1653_eid_s08_8-3-10_boat_10_n03662601_12982.JPEG
subject-08,2,374,1.27031517028809,bird,airplane,16-3-10,1654_eid_s08_16-3-10_airplane_10_n02690373_9322.JPEG
subject-08,2,375,0.611001968383789,cat,cat,16-10-10,1655_eid_s08_16-10-10_cat_10_n02123394_3942.JPEG
subject-08,2,376,1.19701504707336,bottle,knife,1-10-10,1656_eid_s08_1-10-10_knife_10_n03041632_15174.JPEG
subject-08,2,377,1.13753819465637,bear,bear,4-0-10,1657_eid_s08_4-0-10_bear_10_n02133161_1728.JPEG
subject-08,2,378,1.21591019630432,bear,bear,16-10-10,1658_eid_s08_16-10-10_bear_10_n02132136_2567.JPEG
subject-08,2,379,1.36968493461609,bird,knife,64-3-10,1659_eid_s08_64-3-10_knife_10_n03041632_17285.JPEG
subject-08,2,380,NaN,na,cat,128-3-10,1660_eid_s08_128-3-10_cat_10_n02124075_9298.JPEG
subject-08,2,381,0.766892910003662,airplane,airplane,16-3-10,1661_eid_s08_16-3-10_airplane_10_n02690373_5528.JPEG
subject-08,2,382,0.669443845748901,cat,boat,8-10-10,1662_eid_s08_8-10-10_boat_10_n04612504_29813.JPEG
subject-08,2,383,0.83946418762207,keyboard,keyboard,1-0-10,1663_eid_s08_1-0-10_keyboard_10_n03085013_21055.JPEG
subject-08,2,384,1.04175996780396,boat,bicycle,8-0-10,1664_eid_s08_8-0-10_bicycle_10_n02835271_8968.JPEG
subject-08,2,385,0.81971001625061,chair,chair,4-3-10,1665_eid_s08_4-3-10_chair_10_n02791124_356.JPEG
subject-08,2,386,1.00573706626892,bottle,bottle,1-3-10,1666_eid_s08_1-3-10_bottle_10_n03983396_4250.JPEG
subject-08,2,387,0.968182802200317,oven,bear,64-10-10,1667_eid_s08_64-10-10_bear_10_n02133161_3233.JPEG
subject-08,2,388,0.962630987167358,car,car,16-3-10,1668_eid_s08_16-3-10_car_10_n02814533_2880.JPEG
subject-08,2,389,0.786573171615601,cat,truck,32-10-10,1669_eid_s08_32-10-10_truck_10_n03796401_421.JPEG
subject-08,2,390,0.605392932891846,airplane,airplane,2-3-10,1670_eid_s08_2-3-10_airplane_10_n02690373_21922.JPEG
subject-08,2,391,0.776139974594116,airplane,bicycle,8-10-10,1671_eid_s08_8-10-10_bicycle_10_n02835271_8125.JPEG
subject-08,2,392,0.708479881286621,cat,cat,1-0-10,1672_eid_s08_1-0-10_cat_10_n02123394_7492.JPEG
subject-08,2,393,0.895103931427002,knife,boat,128-10-10,1673_eid_s08_128-10-10_boat_10_n03662601_2039.JPEG
subject-08,2,394,0.881447076797485,boat,keyboard,32-0-10,1674_eid_s08_32-0-10_keyboard_10_n03085013_17584.JPEG
subject-08,2,395,1.03789210319519,dog,elephant,32-10-10,1675_eid_s08_32-10-10_elephant_10_n02504458_798.JPEG
subject-08,2,396,0.524126052856445,cat,cat,4-0-10,1676_eid_s08_4-0-10_cat_10_n02123045_9947.JPEG
subject-08,2,397,0.615782976150513,bear,bottle,32-3-10,1677_eid_s08_32-3-10_bottle_10_n04557648_6091.JPEG
subject-08,2,398,0.948243141174316,bird,elephant,32-3-10,1678_eid_s08_32-3-10_elephant_10_n02504458_9094.JPEG
subject-08,2,399,1.08851504325867,truck,truck,1-3-10,1679_eid_s08_1-3-10_truck_10_n03796401_2784.JPEG
subject-08,2,400,0.843161106109619,oven,oven,32-10-10,1680_eid_s08_32-10-10_oven_10_n04111531_1313.JPEG
subject-08,2,401,0.699715852737427,elephant,elephant,4-3-10,1681_eid_s08_4-3-10_elephant_10_n02504013_2095.JPEG
subject-08,2,402,0.678002119064331,boat,car,32-10-10,1682_eid_s08_32-10-10_car_10_n03100240_16861.JPEG
subject-08,2,403,0.796159982681274,bird,bird,4-10-10,1683_eid_s08_4-10-10_bird_10_n02033041_6922.JPEG
subject-08,2,404,0.704715967178345,keyboard,bird,64-0-10,1684_eid_s08_64-0-10_bird_10_n01843065_5207.JPEG
subject-08,2,405,0.845253944396973,car,car,4-10-10,1685_eid_s08_4-10-10_car_10_n03100240_14806.JPEG
subject-08,2,406,0.901802062988281,oven,knife,2-3-10,1686_eid_s08_2-3-10_knife_10_n03041632_20217.JPEG
subject-08,2,407,1.50022912025452,truck,oven,16-3-10,1687_eid_s08_16-3-10_oven_10_n04111531_14766.JPEG
subject-08,2,408,0.890188932418823,keyboard,bird,128-3-10,1688_eid_s08_128-3-10_bird_10_n02006656_8510.JPEG
subject-08,2,409,0.990608930587769,oven,oven,8-10-10,1689_eid_s08_8-10-10_oven_10_n04111531_1303.JPEG
subject-08,2,410,0.55527400970459,cat,cat,8-10-10,1690_eid_s08_8-10-10_cat_10_n02123394_5470.JPEG
subject-08,2,411,1.22565412521362,airplane,airplane,64-10-10,1691_eid_s08_64-10-10_airplane_10_n02690373_4818.JPEG
subject-08,2,412,0.673508882522583,boat,boat,32-0-10,1692_eid_s08_32-0-10_boat_10_n03662601_11358.JPEG
subject-08,2,413,1.18984484672546,bird,knife,16-10-10,1693_eid_s08_16-10-10_knife_10_n03041632_37949.JPEG
subject-08,2,414,0.768174886703491,car,car,8-10-10,1694_eid_s08_8-10-10_car_10_n03100240_8547.JPEG
subject-08,2,415,0.654175996780396,boat,car,128-3-10,1695_eid_s08_128-3-10_car_10_n02814533_31743.JPEG
subject-08,2,416,0.971075773239136,car,clock,8-0-10,1696_eid_s08_8-0-10_clock_10_n03196217_3039.JPEG
subject-08,2,417,1.12757396697998,cat,bear,4-0-10,1697_eid_s08_4-0-10_bear_10_n02132136_1644.JPEG
subject-08,2,418,0.774030923843384,boat,bear,128-3-10,1698_eid_s08_128-3-10_bear_10_n02134418_18013.JPEG
subject-08,2,419,0.89028000831604,bear,dog,128-10-10,1699_eid_s08_128-10-10_dog_10_n02107574_5262.JPEG
subject-08,2,420,0.600137948989868,cat,cat,4-0-10,1700_eid_s08_4-0-10_cat_10_n02123159_2835.JPEG
subject-08,2,421,0.915934085845947,bear,bear,4-3-10,1701_eid_s08_4-3-10_bear_10_n02134084_221.JPEG
subject-08,2,422,0.82656192779541,airplane,airplane,1-0-10,1702_eid_s08_1-0-10_airplane_10_n02690373_5980.JPEG
subject-08,2,423,0.810812950134277,bird,bird,1-3-10,1703_eid_s08_1-3-10_bird_10_n01843383_4682.JPEG
subject-08,2,424,0.813559055328369,bird,bear,64-3-10,1704_eid_s08_64-3-10_bear_10_n02134084_21074.JPEG
subject-08,2,425,0.946013927459717,keyboard,oven,8-10-10,1705_eid_s08_8-10-10_oven_10_n04111531_4944.JPEG
subject-08,2,426,0.747861862182617,boat,cat,128-0-10,1706_eid_s08_128-0-10_cat_10_n02123159_5733.JPEG
subject-08,2,427,1.01022481918335,chair,knife,4-10-10,1707_eid_s08_4-10-10_knife_10_n03041632_9302.JPEG
subject-08,2,428,0.988292932510376,bird,bird,4-0-10,1708_eid_s08_4-0-10_bird_10_n01829413_7374.JPEG
subject-08,2,429,0.942157030105591,bicycle,bicycle,1-0-10,1709_eid_s08_1-0-10_bicycle_10_n02835271_1028.JPEG
subject-08,2,430,1.50017690658569,elephant,elephant,16-0-10,1710_eid_s08_16-0-10_elephant_10_n02504458_8273.JPEG
subject-08,2,431,0.809094190597534,elephant,elephant,4-0-10,1711_eid_s08_4-0-10_elephant_10_n02504458_1218.JPEG
subject-08,2,432,1.11687111854553,bear,car,8-0-10,1712_eid_s08_8-0-10_car_10_n03100240_14032.JPEG
subject-08,2,433,1.31942486763,oven,oven,4-3-10,1713_eid_s08_4-3-10_oven_10_n04111531_2074.JPEG
subject-08,2,434,0.82803201675415,cat,knife,16-3-10,1714_eid_s08_16-3-10_knife_10_n03041632_15431.JPEG
subject-08,2,435,0.944612979888916,bird,clock,32-0-10,1715_eid_s08_32-0-10_clock_10_n02708093_3172.JPEG
subject-08,2,436,1.14714312553406,truck,truck,2-3-10,1716_eid_s08_2-3-10_truck_10_n03417042_29941.JPEG
subject-08,2,437,0.887754201889038,dog,dog,2-3-10,1717_eid_s08_2-3-10_dog_10_n02105251_7075.JPEG
subject-08,2,438,1.12021899223328,keyboard,keyboard,16-3-10,1718_eid_s08_16-3-10_keyboard_10_n04505470_5109.JPEG
subject-08,2,439,0.760165929794312,knife,knife,8-10-10,1719_eid_s08_8-10-10_knife_10_n03041632_42162.JPEG
subject-08,2,440,0.738853216171265,boat,cat,128-0-10,1720_eid_s08_128-0-10_cat_10_n02123159_2891.JPEG
subject-08,2,441,0.949371099472046,clock,clock,4-0-10,1721_eid_s08_4-0-10_clock_10_n03196217_4920.JPEG
subject-08,2,442,0.82740592956543,airplane,airplane,1-3-10,1722_eid_s08_1-3-10_airplane_10_n02690373_9991.JPEG
subject-08,2,443,1.23594617843628,car,keyboard,64-3-10,1723_eid_s08_64-3-10_keyboard_10_n03085013_21048.JPEG
subject-08,2,444,1.1905620098114,clock,clock,32-3-10,1724_eid_s08_32-3-10_clock_10_n04548280_10673.JPEG
subject-08,2,445,1.40871691703796,clock,bicycle,128-0-10,1725_eid_s08_128-0-10_bicycle_10_n02835271_5065.JPEG
subject-08,2,446,0.803308010101318,bear,bear,64-3-10,1726_eid_s08_64-3-10_bear_10_n02134418_6174.JPEG
subject-08,2,447,0.649986982345581,truck,bird,64-3-10,1727_eid_s08_64-3-10_bird_10_n01796340_25883.JPEG
subject-08,2,448,0.744745969772339,boat,bicycle,64-10-10,1728_eid_s08_64-10-10_bicycle_10_n02835271_23936.JPEG
subject-08,2,449,0.80681300163269,airplane,bear,64-10-10,1729_eid_s08_64-10-10_bear_10_n02133161_8513.JPEG
subject-08,2,450,0.909515142440796,bird,bird,1-0-10,1730_eid_s08_1-0-10_bird_10_n02006656_5176.JPEG
subject-08,2,451,0.809242010116577,car,car,16-10-10,1731_eid_s08_16-10-10_car_10_n02814533_65623.JPEG
subject-08,2,452,1.24086689949036,airplane,airplane,32-10-10,1732_eid_s08_32-10-10_airplane_10_n02690373_12121.JPEG
subject-08,2,453,1.21144700050354,bear,cat,64-3-10,1733_eid_s08_64-3-10_cat_10_n02123045_10339.JPEG
subject-08,2,454,1.00560092926025,clock,boat,32-3-10,1734_eid_s08_32-3-10_boat_10_n02951358_26334.JPEG
subject-08,2,455,0.930561065673828,dog,dog,32-10-10,1735_eid_s08_32-10-10_dog_10_n02091467_13431.JPEG
subject-08,2,456,0.716758966445923,chair,chair,2-10-10,1736_eid_s08_2-10-10_chair_10_n03376595_6865.JPEG
subject-08,2,457,0.871373891830444,bottle,bottle,4-0-10,1737_eid_s08_4-0-10_bottle_10_n03983396_313.JPEG
subject-08,2,458,0.841434001922607,keyboard,bottle,32-3-10,1738_eid_s08_32-3-10_bottle_10_n03937543_29.JPEG
subject-08,2,459,0.876147985458374,truck,chair,64-10-10,1739_eid_s08_64-10-10_chair_10_n04429376_11668.JPEG
subject-08,2,460,1.10046315193176,airplane,truck,32-0-10,1740_eid_s08_32-0-10_truck_10_n04467665_45306.JPEG
subject-08,2,461,1.18433308601379,bear,truck,64-3-10,1741_eid_s08_64-3-10_truck_10_n03796401_19487.JPEG
subject-08,2,462,1.27130603790283,clock,clock,8-10-10,1742_eid_s08_8-10-10_clock_10_n03196217_3695.JPEG
subject-08,2,463,1.03596186637878,cat,dog,16-0-10,1743_eid_s08_16-0-10_dog_10_n02097047_2421.JPEG
subject-08,2,464,0.752644062042236,airplane,airplane,4-0-10,1744_eid_s08_4-0-10_airplane_10_n02690373_4335.JPEG
subject-08,2,465,1.0392758846283,car,chair,8-3-10,1745_eid_s08_8-3-10_chair_10_n04099969_3102.JPEG
subject-08,2,466,1.17935299873352,truck,keyboard,64-3-10,1746_eid_s08_64-3-10_keyboard_10_n03085013_21246.JPEG
subject-08,2,467,1.1877748966217,chair,chair,2-0-10,1747_eid_s08_2-0-10_chair_10_n03376595_7772.JPEG
subject-08,2,468,0.628498077392578,boat,bottle,16-0-10,1748_eid_s08_16-0-10_bottle_10_n02823428_8062.JPEG
subject-08,2,469,1.19128203392029,bear,bear,32-10-10,1749_eid_s08_32-10-10_bear_10_n02134084_23227.JPEG
subject-08,2,470,1.00155091285706,truck,car,4-0-10,1750_eid_s08_4-0-10_car_10_n02814533_97602.JPEG
subject-08,2,471,1.1421971321106,cat,dog,32-0-10,1751_eid_s08_32-0-10_dog_10_n02110063_1565.JPEG
subject-08,2,472,0.950522899627686,car,truck,128-0-10,1752_eid_s08_128-0-10_truck_10_n04467665_26266.JPEG
subject-08,2,473,0.769392967224121,bicycle,bicycle,1-3-10,1753_eid_s08_1-3-10_bicycle_10_n03792782_47774.JPEG
subject-08,2,474,0.839868068695068,airplane,knife,128-10-10,1754_eid_s08_128-10-10_knife_10_n03041632_10109.JPEG
subject-08,2,475,1.08842396736145,airplane,bear,128-10-10,1755_eid_s08_128-10-10_bear_10_n02132136_5517.JPEG
subject-08,2,476,1.26775908470154,cat,cat,32-10-10,1756_eid_s08_32-10-10_cat_10_n02123597_11752.JPEG
subject-08,2,477,0.853461980819702,knife,knife,2-3-10,1757_eid_s08_2-3-10_knife_10_n03041632_2338.JPEG
subject-08,2,478,1.12384676933289,bottle,oven,1-0-10,1758_eid_s08_1-0-10_oven_10_n04111531_6412.JPEG
subject-08,2,479,0.710351943969727,car,car,4-10-10,1759_eid_s08_4-10-10_car_10_n04285008_8281.JPEG
subject-08,2,480,1.21850514411926,truck,car,32-10-10,1760_eid_s08_32-10-10_car_10_n04285008_15536.JPEG
subject-08,2,481,0.983282804489136,bear,keyboard,128-10-10,1761_eid_s08_128-10-10_keyboard_10_n04505470_6379.JPEG
subject-08,2,482,0.939657211303711,keyboard,bear,32-0-10,1762_eid_s08_32-0-10_bear_10_n02134418_2438.JPEG
subject-08,2,483,0.856299161911011,car,truck,4-0-10,1763_eid_s08_4-0-10_truck_10_n03417042_1716.JPEG
subject-08,2,484,1.07231187820435,dog,bicycle,32-10-10,1764_eid_s08_32-10-10_bicycle_10_n03792782_16122.JPEG
subject-08,2,485,0.766576766967773,car,car,4-0-10,1765_eid_s08_4-0-10_car_10_n03100240_15693.JPEG
subject-08,2,486,0.906944036483765,bear,keyboard,32-0-10,1766_eid_s08_32-0-10_keyboard_10_n03085013_30943.JPEG
subject-08,2,487,1.00693297386169,bird,cat,64-0-10,1767_eid_s08_64-0-10_cat_10_n02123159_974.JPEG
subject-08,2,488,1.03949689865112,oven,oven,16-0-10,1768_eid_s08_16-0-10_oven_10_n04111531_6622.JPEG
subject-08,2,489,1.07959985733032,keyboard,oven,32-10-10,1769_eid_s08_32-10-10_oven_10_n04111531_9026.JPEG
subject-08,2,490,1.08766007423401,airplane,bicycle,128-10-10,1770_eid_s08_128-10-10_bicycle_10_n03792782_1004.JPEG
subject-08,2,491,1.17388296127319,bear,elephant,4-10-10,1771_eid_s08_4-10-10_elephant_10_n02504013_3695.JPEG
subject-08,2,492,1.05261993408203,elephant,elephant,2-3-10,1772_eid_s08_2-3-10_elephant_10_n02504458_1024.JPEG
subject-08,2,493,1.17698192596436,oven,knife,1-0-10,1773_eid_s08_1-0-10_knife_10_n03041632_4808.JPEG
subject-08,2,494,0.671236038208008,boat,boat,4-3-10,1774_eid_s08_4-3-10_boat_10_n03662601_6241.JPEG
subject-08,2,495,1.04197716712952,airplane,car,32-0-10,1775_eid_s08_32-0-10_car_10_n03100240_7374.JPEG
subject-08,2,496,0.91500997543335,truck,keyboard,64-10-10,1776_eid_s08_64-10-10_keyboard_10_n04505470_1288.JPEG
subject-08,2,497,1.03131318092346,car,car,1-10-10,1777_eid_s08_1-10-10_car_10_n02814533_23592.JPEG
subject-08,2,498,0.993749856948853,clock,clock,4-3-10,1778_eid_s08_4-3-10_clock_10_n02708093_228.JPEG
subject-08,2,499,0.996372938156128,chair,chair,8-0-10,1779_eid_s08_8-0-10_chair_10_n03376595_14087.JPEG
subject-08,2,500,1.15068316459656,bear,bear,1-3-10,1780_eid_s08_1-3-10_bear_10_n02132136_1064.JPEG
subject-08,2,501,0.936668157577515,elephant,car,128-10-10,1781_eid_s08_128-10-10_car_10_n03100240_3205.JPEG
subject-08,2,502,0.755457162857056,keyboard,elephant,128-0-10,1782_eid_s08_128-0-10_elephant_10_n02504458_6694.JPEG
subject-08,2,503,1.15588593482971,cat,truck,16-10-10,1783_eid_s08_16-10-10_truck_10_n03417042_1668.JPEG
subject-08,2,504,0.826366901397705,bear,cat,32-0-10,1784_eid_s08_32-0-10_cat_10_n02123159_3443.JPEG
subject-08,2,505,1.13694000244141,boat,elephant,8-10-10,1785_eid_s08_8-10-10_elephant_10_n02504458_1383.JPEG
subject-08,2,506,0.823344945907593,chair,chair,1-3-10,1786_eid_s08_1-3-10_chair_10_n03376595_9897.JPEG
subject-08,2,507,0.901907205581665,dog,dog,8-0-10,1787_eid_s08_8-0-10_dog_10_n02100877_7948.JPEG
subject-08,2,508,1.21830010414124,knife,clock,8-3-10,1788_eid_s08_8-3-10_clock_10_n03196217_1109.JPEG
subject-08,2,509,1.32054400444031,boat,truck,16-3-10,1789_eid_s08_16-3-10_truck_10_n04467665_68331.JPEG
subject-08,2,510,1.39920401573181,cat,oven,64-3-10,1790_eid_s08_64-3-10_oven_10_n04111531_11026.JPEG
subject-08,2,511,1.14587616920471,elephant,bear,2-3-10,1791_eid_s08_2-3-10_bear_10_n02134418_4662.JPEG
subject-08,2,512,1.02619385719299,keyboard,bicycle,128-3-10,1792_eid_s08_128-3-10_bicycle_10_n02835271_3383.JPEG
subject-08,2,513,1.30856108665466,chair,chair,1-10-10,1793_eid_s08_1-10-10_chair_10_n04099969_5457.JPEG
subject-08,2,514,0.773264169692993,clock,truck,8-10-10,1794_eid_s08_8-10-10_truck_10_n03796401_2751.JPEG
subject-08,2,515,0.888822793960571,dog,cat,2-0-10,1795_eid_s08_2-0-10_cat_10_n02125311_58392.JPEG
subject-08,2,516,0.567248106002808,bottle,bottle,1-3-10,1796_eid_s08_1-3-10_bottle_10_n03983396_12253.JPEG
subject-08,2,517,0.569703817367554,bird,bird,2-0-10,1797_eid_s08_2-0-10_bird_10_n02002556_7020.JPEG
subject-08,2,518,0.816457033157349,bicycle,bicycle,8-10-10,1798_eid_s08_8-10-10_bicycle_10_n02835271_8549.JPEG
subject-08,2,519,0.926618099212646,cat,oven,8-0-10,1799_eid_s08_8-0-10_oven_10_n04111531_9174.JPEG
subject-08,2,520,0.628836870193481,dog,dog,4-10-10,1800_eid_s08_4-10-10_dog_10_n02101556_7405.JPEG
subject-08,2,521,0.967700958251953,bird,bird,1-10-10,1801_eid_s08_1-10-10_bird_10_n01820546_960.JPEG
subject-08,2,522,0.677399158477783,keyboard,boat,32-0-10,1802_eid_s08_32-0-10_boat_10_n04612504_19228.JPEG
subject-08,2,523,1.19380593299866,bear,dog,128-10-10,1803_eid_s08_128-10-10_dog_10_n02110627_16632.JPEG
subject-08,2,524,1.35599517822266,knife,truck,64-0-10,1804_eid_s08_64-0-10_truck_10_n03417042_1332.JPEG
subject-08,2,525,1.50008797645569,bird,bird,4-3-10,1805_eid_s08_4-3-10_bird_10_n01622779_4473.JPEG
subject-08,2,526,0.812489986419678,dog,elephant,8-0-10,1806_eid_s08_8-0-10_elephant_10_n02504458_7331.JPEG
subject-08,2,527,0.684828042984009,keyboard,keyboard,4-10-10,1807_eid_s08_4-10-10_keyboard_10_n03085013_6405.JPEG
subject-08,2,528,0.714272975921631,keyboard,keyboard,8-3-10,1808_eid_s08_8-3-10_keyboard_10_n03085013_19345.JPEG
subject-08,2,529,0.954962968826294,bear,bear,2-3-10,1809_eid_s08_2-3-10_bear_10_n02134418_819.JPEG
subject-08,2,530,0.827722072601318,car,bottle,32-0-10,1810_eid_s08_32-0-10_bottle_10_n02823428_4520.JPEG
subject-08,2,531,1.065584897995,clock,knife,1-0-10,1811_eid_s08_1-0-10_knife_10_n03041632_3516.JPEG
subject-08,2,532,0.836672067642212,airplane,airplane,8-3-10,1812_eid_s08_8-3-10_airplane_10_n02690373_6223.JPEG
subject-08,2,533,0.9391028881073,dog,bird,128-10-10,1813_eid_s08_128-10-10_bird_10_n02017213_7382.JPEG
subject-08,2,534,0.595264911651611,clock,clock,2-0-10,1814_eid_s08_2-0-10_clock_10_n03196217_6257.JPEG
subject-08,2,535,0.957965850830078,bottle,oven,8-3-10,1815_eid_s08_8-3-10_oven_10_n04111531_12788.JPEG
subject-08,2,536,1.19015192985535,airplane,airplane,16-3-10,1816_eid_s08_16-3-10_airplane_10_n02690373_18383.JPEG
subject-08,2,537,1.02265214920044,car,bird,128-0-10,1817_eid_s08_128-0-10_bird_10_n01798484_9988.JPEG
subject-08,2,538,0.937620162963867,truck,boat,128-3-10,1818_eid_s08_128-3-10_boat_10_n02951358_16134.JPEG
subject-08,2,539,0.808337211608887,chair,bicycle,128-10-10,1819_eid_s08_128-10-10_bicycle_10_n03792782_52581.JPEG
subject-08,2,540,1.05678510665894,cat,bicycle,16-3-10,1820_eid_s08_16-3-10_bicycle_10_n02835271_15057.JPEG
subject-08,2,541,1.50018191337585,car,boat,64-10-10,1821_eid_s08_64-10-10_boat_10_n02951358_10132.JPEG
subject-08,2,542,1.00553703308105,bear,chair,16-3-10,1822_eid_s08_16-3-10_chair_10_n02791124_141.JPEG
subject-08,2,543,1.00862193107605,dog,car,32-0-10,1823_eid_s08_32-0-10_car_10_n04285008_757.JPEG
subject-08,2,544,0.608500003814697,truck,truck,8-3-10,1824_eid_s08_8-3-10_truck_10_n04467665_70071.JPEG
subject-08,2,545,0.842971086502075,dog,dog,4-3-10,1825_eid_s08_4-3-10_dog_10_n02102040_521.JPEG
subject-08,2,546,1.0518970489502,bear,bird,32-0-10,1826_eid_s08_32-0-10_bird_10_n01855672_12414.JPEG
subject-08,2,547,1.01423907279968,cat,bird,32-10-10,1827_eid_s08_32-10-10_bird_10_n01560419_1647.JPEG
subject-08,2,548,0.994668960571289,dog,dog,8-10-10,1828_eid_s08_8-10-10_dog_10_n02097130_9059.JPEG
subject-08,2,549,0.648370027542114,keyboard,clock,64-3-10,1829_eid_s08_64-3-10_clock_10_n04548280_5076.JPEG
subject-08,2,550,0.889317035675049,bottle,bicycle,4-3-10,1830_eid_s08_4-3-10_bicycle_10_n03792782_18048.JPEG
subject-08,2,551,1.12967300415039,chair,boat,64-0-10,1831_eid_s08_64-0-10_boat_10_n03662601_1764.JPEG
subject-08,2,552,1.40052199363708,bird,car,16-0-10,1832_eid_s08_16-0-10_car_10_n03100240_21700.JPEG
subject-08,2,553,0.932774066925049,elephant,boat,32-3-10,1833_eid_s08_32-3-10_boat_10_n02951358_11231.JPEG
subject-08,2,554,0.843033075332642,bottle,bottle,8-3-10,1834_eid_s08_8-3-10_bottle_10_n02823428_2965.JPEG
subject-08,2,555,1.18389487266541,knife,knife,16-0-10,1835_eid_s08_16-0-10_knife_10_n03041632_21477.JPEG
subject-08,2,556,1.06179404258728,bear,oven,16-10-10,1836_eid_s08_16-10-10_oven_10_n04111531_7076.JPEG
subject-08,2,557,1.50031185150146,knife,knife,2-0-10,1837_eid_s08_2-0-10_knife_10_n03041632_28009.JPEG
subject-08,2,558,1.04126000404358,dog,oven,4-3-10,1838_eid_s08_4-3-10_oven_10_n04111531_2433.JPEG
subject-08,2,559,0.913227081298828,car,bear,8-0-10,1839_eid_s08_8-0-10_bear_10_n02134084_2096.JPEG
subject-08,2,560,0.908651113510132,chair,dog,32-0-10,1840_eid_s08_32-0-10_dog_10_n02093428_12769.JPEG
subject-08,2,561,1.45480108261108,bear,bicycle,64-3-10,1841_eid_s08_64-3-10_bicycle_10_n02835271_22958.JPEG
subject-08,2,562,1.14941191673279,bird,clock,8-0-10,1842_eid_s08_8-0-10_clock_10_n04548280_3318.JPEG
subject-08,2,563,1.02220320701599,cat,bicycle,8-0-10,1843_eid_s08_8-0-10_bicycle_10_n02835271_9672.JPEG
subject-08,2,564,1.04621481895447,bear,cat,32-3-10,1844_eid_s08_32-3-10_cat_10_n02123045_4126.JPEG
subject-08,2,565,0.739077091217041,oven,cat,16-0-10,1845_eid_s08_16-0-10_cat_10_n02124075_8932.JPEG
subject-08,2,566,0.733232021331787,elephant,elephant,2-3-10,1846_eid_s08_2-3-10_elephant_10_n02504013_5277.JPEG
subject-08,2,567,0.897341012954712,car,oven,64-0-10,1847_eid_s08_64-0-10_oven_10_n04111531_6479.JPEG
subject-08,2,568,0.697712898254395,airplane,airplane,4-0-10,1848_eid_s08_4-0-10_airplane_10_n02690373_6716.JPEG
subject-08,2,569,0.783703804016113,bicycle,bicycle,1-0-10,1849_eid_s08_1-0-10_bicycle_10_n03792782_14557.JPEG
subject-08,2,570,1.07802295684814,bird,dog,16-3-10,1850_eid_s08_16-3-10_dog_10_n02100236_6345.JPEG
subject-08,2,571,0.578581809997559,boat,chair,32-3-10,1851_eid_s08_32-3-10_chair_10_n02791124_4192.JPEG
subject-08,2,572,0.527029037475586,boat,boat,2-0-10,1852_eid_s08_2-0-10_boat_10_n03662601_6269.JPEG
subject-08,2,573,1.27557897567749,truck,oven,16-10-10,1853_eid_s08_16-10-10_oven_10_n04111531_6810.JPEG
subject-08,2,574,0.699594974517822,oven,clock,64-10-10,1854_eid_s08_64-10-10_clock_10_n04548280_5268.JPEG
subject-08,2,575,1.14598608016968,bird,bird,4-10-10,1855_eid_s08_4-10-10_bird_10_n01796340_11749.JPEG
subject-08,2,576,0.902662992477417,dog,dog,1-10-10,1856_eid_s08_1-10-10_dog_10_n02112350_502.JPEG
subject-08,2,577,0.842926979064941,airplane,chair,32-0-10,1857_eid_s08_32-0-10_chair_10_n04099969_8687.JPEG
subject-08,2,578,0.696789979934692,boat,boat,32-0-10,1858_eid_s08_32-0-10_boat_10_n04273569_6309.JPEG
subject-08,2,579,0.815208911895752,chair,chair,32-10-10,1859_eid_s08_32-10-10_chair_10_n04099969_16985.JPEG
subject-08,2,580,0.847798109054565,cat,cat,64-0-10,1860_eid_s08_64-0-10_cat_10_n02123045_662.JPEG
subject-08,2,581,0.888147830963135,bicycle,bicycle,4-10-10,1861_eid_s08_4-10-10_bicycle_10_n03792782_8078.JPEG
subject-08,2,582,0.813354969024658,truck,truck,4-3-10,1862_eid_s08_4-3-10_truck_10_n03796401_27288.JPEG
subject-08,2,583,0.782761812210083,truck,truck,1-3-10,1863_eid_s08_1-3-10_truck_10_n04467665_3374.JPEG
subject-08,2,584,0.753331899642944,airplane,airplane,1-3-10,1864_eid_s08_1-3-10_airplane_10_n02690373_4506.JPEG
subject-08,2,585,0.656075000762939,car,bicycle,64-0-10,1865_eid_s08_64-0-10_bicycle_10_n02835271_2075.JPEG
subject-08,2,586,1.10102605819702,clock,bicycle,128-10-10,1866_eid_s08_128-10-10_bicycle_10_n02835271_3711.JPEG
subject-08,2,587,0.719458103179932,bear,bear,2-0-10,1867_eid_s08_2-0-10_bear_10_n02133161_185.JPEG
subject-08,2,588,0.798121929168701,bottle,bottle,16-10-10,1868_eid_s08_16-10-10_bottle_10_n03983396_50.JPEG
subject-08,2,589,1.31416296958923,cat,cat,32-0-10,1869_eid_s08_32-0-10_cat_10_n02123045_12278.JPEG
subject-08,2,590,0.808577060699463,car,cat,128-10-10,1870_eid_s08_128-10-10_cat_10_n02124075_13975.JPEG
subject-08,2,591,1.14111304283142,bear,chair,16-0-10,1871_eid_s08_16-0-10_chair_10_n04099969_6724.JPEG
subject-08,2,592,1.29545211791992,boat,boat,2-3-10,1872_eid_s08_2-3-10_boat_10_n03344393_14588.JPEG
subject-08,2,593,0.921984910964966,airplane,cat,32-10-10,1873_eid_s08_32-10-10_cat_10_n02125311_29265.JPEG
subject-08,2,594,1.04636907577515,airplane,keyboard,64-10-10,1874_eid_s08_64-10-10_keyboard_10_n03085013_22714.JPEG
subject-08,2,595,0.962934017181396,cat,cat,8-0-10,1875_eid_s08_8-0-10_cat_10_n02123045_6962.JPEG
subject-08,2,596,0.70353889465332,airplane,airplane,2-3-10,1876_eid_s08_2-3-10_airplane_10_n02690373_10079.JPEG
subject-08,2,597,0.705626010894775,keyboard,keyboard,8-3-10,1877_eid_s08_8-3-10_keyboard_10_n03085013_20906.JPEG
subject-08,2,598,0.884589910507202,boat,boat,1-0-10,1878_eid_s08_1-0-10_boat_10_n03344393_13085.JPEG
subject-08,2,599,0.670915842056274,chair,keyboard,32-3-10,1879_eid_s08_32-3-10_keyboard_10_n04505470_1187.JPEG
subject-08,2,600,0.627653837203979,car,keyboard,128-3-10,1880_eid_s08_128-3-10_keyboard_10_n03085013_15125.JPEG
subject-08,2,601,0.767886877059937,keyboard,keyboard,2-0-10,1881_eid_s08_2-0-10_keyboard_10_n03085013_18619.JPEG
subject-08,2,602,1.00661492347717,truck,knife,16-10-10,1882_eid_s08_16-10-10_knife_10_n03041632_33488.JPEG
subject-08,2,603,1.13907480239868,dog,cat,16-10-10,1883_eid_s08_16-10-10_cat_10_n02125311_23425.JPEG
subject-08,2,604,0.632539033889771,bicycle,bicycle,4-10-10,1884_eid_s08_4-10-10_bicycle_10_n02835271_4160.JPEG
subject-08,2,605,1.50014114379883,truck,airplane,4-0-10,1885_eid_s08_4-0-10_airplane_10_n02690373_2923.JPEG
subject-08,2,606,0.789088010787964,car,car,4-0-10,1886_eid_s08_4-0-10_car_10_n02814533_42481.JPEG
subject-08,2,607,0.759530782699585,bear,bear,8-10-10,1887_eid_s08_8-10-10_bear_10_n02134084_11205.JPEG
subject-08,2,608,0.822123050689697,truck,truck,2-3-10,1888_eid_s08_2-3-10_truck_10_n04467665_2557.JPEG
subject-08,2,609,0.802707195281982,boat,oven,128-3-10,1889_eid_s08_128-3-10_oven_10_n04111531_11499.JPEG
subject-08,2,610,1.2189519405365,airplane,bottle,64-10-10,1890_eid_s08_64-10-10_bottle_10_n04557648_29772.JPEG
subject-08,2,611,0.783612012863159,bicycle,car,128-0-10,1891_eid_s08_128-0-10_car_10_n02814533_94686.JPEG
subject-08,2,612,0.975977182388306,chair,bear,128-3-10,1892_eid_s08_128-3-10_bear_10_n02132136_33682.JPEG
subject-08,2,613,1.05637001991272,cat,dog,64-0-10,1893_eid_s08_64-0-10_dog_10_n02104029_1794.JPEG
subject-08,2,614,0.988891839981079,dog,dog,64-3-10,1894_eid_s08_64-3-10_dog_10_n02112018_3692.JPEG
subject-08,2,615,1.05921506881714,truck,chair,32-3-10,1895_eid_s08_32-3-10_chair_10_n02791124_7140.JPEG
subject-08,2,616,0.751251935958862,cat,oven,32-0-10,1896_eid_s08_32-0-10_oven_10_n04111531_4585.JPEG
subject-08,2,617,0.724141120910645,keyboard,elephant,64-3-10,1897_eid_s08_64-3-10_elephant_10_n02504013_2269.JPEG
subject-08,2,618,0.710491895675659,clock,clock,1-0-10,1898_eid_s08_1-0-10_clock_10_n04548280_1438.JPEG
subject-08,2,619,0.705600023269653,car,car,1-3-10,1899_eid_s08_1-3-10_car_10_n04285008_13055.JPEG
subject-08,2,620,0.853931903839111,chair,boat,128-3-10,1900_eid_s08_128-3-10_boat_10_n02951358_8569.JPEG
subject-08,2,621,0.845709800720215,truck,clock,64-3-10,1901_eid_s08_64-3-10_clock_10_n03196217_3735.JPEG
subject-08,2,622,0.783998966217041,bird,bird,2-0-10,1902_eid_s08_2-0-10_bird_10_n01534433_8790.JPEG
subject-08,2,623,1.00207996368408,airplane,airplane,4-3-10,1903_eid_s08_4-3-10_airplane_10_n02690373_4183.JPEG
subject-08,2,624,0.779896020889282,keyboard,keyboard,2-10-10,1904_eid_s08_2-10-10_keyboard_10_n03085013_14237.JPEG
subject-08,2,625,0.866539001464844,cat,cat,4-3-10,1905_eid_s08_4-3-10_cat_10_n02124075_5744.JPEG
subject-08,2,626,1.22874808311462,clock,chair,16-10-10,1906_eid_s08_16-10-10_chair_10_n02791124_4528.JPEG
subject-08,2,627,0.829241037368774,bear,truck,128-10-10,1907_eid_s08_128-10-10_truck_10_n04467665_67938.JPEG
subject-08,2,628,1.09919095039368,oven,oven,2-0-10,1908_eid_s08_2-0-10_oven_10_n04111531_15568.JPEG
subject-08,2,629,0.839843988418579,car,airplane,128-3-10,1909_eid_s08_128-3-10_airplane_10_n02690373_9404.JPEG
subject-08,2,630,1.25573921203613,airplane,truck,16-3-10,1910_eid_s08_16-3-10_truck_10_n04467665_9052.JPEG
subject-08,2,631,0.904231786727905,cat,elephant,64-10-10,1911_eid_s08_64-10-10_elephant_10_n02504458_3283.JPEG
subject-08,2,632,1.27416896820068,airplane,airplane,2-10-10,1912_eid_s08_2-10-10_airplane_10_n02690373_2629.JPEG
subject-08,2,633,0.719701051712036,bottle,oven,64-0-10,1913_eid_s08_64-0-10_oven_10_n04111531_14095.JPEG
subject-08,2,634,1.13613200187683,chair,chair,4-0-10,1914_eid_s08_4-0-10_chair_10_n04429376_19175.JPEG
subject-08,2,635,0.870439052581787,bicycle,bicycle,32-10-10,1915_eid_s08_32-10-10_bicycle_10_n03792782_15561.JPEG
subject-08,2,636,0.846221923828125,cat,cat,8-10-10,1916_eid_s08_8-10-10_cat_10_n02123159_1557.JPEG
subject-08,2,637,1.00851798057556,bird,elephant,32-10-10,1917_eid_s08_32-10-10_elephant_10_n02504013_3757.JPEG
subject-08,2,638,0.70517110824585,airplane,airplane,32-3-10,1918_eid_s08_32-3-10_airplane_10_n02690373_5773.JPEG
subject-08,2,639,0.997573137283325,cat,boat,1-10-10,1919_eid_s08_1-10-10_boat_10_n03662601_9249.JPEG
subject-08,2,640,1.09949588775635,elephant,chair,128-10-10,1920_eid_s08_128-10-10_chair_10_n03376595_11654.JPEG
subject-08,2,641,0.921379804611206,airplane,truck,16-0-10,1921_eid_s08_16-0-10_truck_10_n04467665_51991.JPEG
subject-08,2,642,0.585845947265625,car,car,4-3-10,1922_eid_s08_4-3-10_car_10_n03100240_12694.JPEG
subject-08,2,643,0.871819019317627,keyboard,bottle,128-0-10,1923_eid_s08_128-0-10_bottle_10_n02823428_6734.JPEG
subject-08,2,644,0.8421790599823,airplane,boat,64-0-10,1924_eid_s08_64-0-10_boat_10_n04612504_8907.JPEG
subject-08,2,645,1.1707329750061,boat,airplane,16-3-10,1925_eid_s08_16-3-10_airplane_10_n02690373_170.JPEG
subject-08,2,646,0.911104202270508,airplane,airplane,8-0-10,1926_eid_s08_8-0-10_airplane_10_n02690373_3059.JPEG
subject-08,2,647,1.22714114189148,boat,boat,1-3-10,1927_eid_s08_1-3-10_boat_10_n03344393_5779.JPEG
subject-08,2,648,0.821565866470337,airplane,boat,16-0-10,1928_eid_s08_16-0-10_boat_10_n03662601_2233.JPEG
subject-08,2,649,0.868096113204956,bear,knife,128-10-10,1929_eid_s08_128-10-10_knife_10_n03041632_29038.JPEG
subject-08,2,650,0.83227801322937,car,car,1-3-10,1930_eid_s08_1-3-10_car_10_n04285008_17007.JPEG
subject-08,2,651,0.581192970275879,clock,clock,4-0-10,1931_eid_s08_4-0-10_clock_10_n02708093_1094.JPEG
subject-08,2,652,1.01876997947693,truck,truck,16-10-10,1932_eid_s08_16-10-10_truck_10_n04467665_24756.JPEG
subject-08,2,653,0.705311059951782,car,car,64-10-10,1933_eid_s08_64-10-10_car_10_n04285008_7811.JPEG
subject-08,2,654,0.774940013885498,chair,chair,1-10-10,1934_eid_s08_1-10-10_chair_10_n04429376_5337.JPEG
subject-08,2,655,0.777868032455444,chair,chair,4-3-10,1935_eid_s08_4-3-10_chair_10_n04099969_35565.JPEG
subject-08,2,656,1.0397310256958,cat,car,64-0-10,1936_eid_s08_64-0-10_car_10_n04285008_4005.JPEG
subject-08,2,657,0.788151025772095,car,car,8-10-10,1937_eid_s08_8-10-10_car_10_n04285008_4216.JPEG
subject-08,2,658,1.11256098747253,bird,oven,4-10-10,1938_eid_s08_4-10-10_oven_10_n04111531_584.JPEG
subject-08,2,659,1.05349111557007,cat,truck,16-10-10,1939_eid_s08_16-10-10_truck_10_n03417042_3907.JPEG
subject-08,2,660,1.06372785568237,dog,chair,128-10-10,1940_eid_s08_128-10-10_chair_10_n02791124_1986.JPEG
subject-08,2,661,0.664108991622925,chair,chair,8-10-10,1941_eid_s08_8-10-10_chair_10_n04099969_6781.JPEG
subject-08,2,662,0.836788892745972,elephant,elephant,8-3-10,1942_eid_s08_8-3-10_elephant_10_n02504458_5209.JPEG
subject-08,2,663,1.22112917900085,airplane,airplane,64-3-10,1943_eid_s08_64-3-10_airplane_10_n02690373_848.JPEG
subject-08,2,664,1.10172390937805,cat,oven,16-0-10,1944_eid_s08_16-0-10_oven_10_n04111531_12702.JPEG
subject-08,2,665,NaN,na,bear,32-10-10,1945_eid_s08_32-10-10_bear_10_n02134418_2468.JPEG
subject-08,2,666,1.04193592071533,truck,truck,16-10-10,1946_eid_s08_16-10-10_truck_10_n03796401_1853.JPEG
subject-08,2,667,1.1906590461731,boat,boat,8-10-10,1947_eid_s08_8-10-10_boat_10_n03662601_37095.JPEG
subject-08,2,668,1.01431703567505,bicycle,airplane,32-3-10,1948_eid_s08_32-3-10_airplane_10_n02690373_8872.JPEG
subject-08,2,669,0.600820064544678,keyboard,keyboard,2-3-10,1949_eid_s08_2-3-10_keyboard_10_n04505470_810.JPEG
subject-08,2,670,0.787312984466553,keyboard,keyboard,8-0-10,1950_eid_s08_8-0-10_keyboard_10_n03085013_6968.JPEG
subject-08,2,671,0.66608190536499,cat,keyboard,2-10-10,1951_eid_s08_2-10-10_keyboard_10_n03085013_23483.JPEG
subject-08,2,672,0.819869041442871,clock,clock,2-3-10,1952_eid_s08_2-3-10_clock_10_n02708093_1431.JPEG
subject-08,2,673,1.34406208992004,elephant,elephant,8-3-10,1953_eid_s08_8-3-10_elephant_10_n02504013_9862.JPEG
subject-08,2,674,0.900186061859131,bear,bicycle,64-3-10,1954_eid_s08_64-3-10_bicycle_10_n03792782_21459.JPEG
subject-08,2,675,0.716407060623169,car,cat,128-0-10,1955_eid_s08_128-0-10_cat_10_n02125311_20206.JPEG
subject-08,2,676,0.826907873153687,airplane,boat,16-3-10,1956_eid_s08_16-3-10_boat_10_n04612504_30617.JPEG
subject-08,2,677,0.789422035217285,boat,bottle,64-0-10,1957_eid_s08_64-0-10_bottle_10_n04591713_3009.JPEG
subject-08,2,678,0.929872035980225,airplane,airplane,1-10-10,1958_eid_s08_1-10-10_airplane_10_n02690373_5866.JPEG
subject-08,2,679,0.94650411605835,bear,airplane,64-0-10,1959_eid_s08_64-0-10_airplane_10_n02690373_2496.JPEG
subject-08,2,680,0.840681076049805,bottle,bottle,1-10-10,1960_eid_s08_1-10-10_bottle_10_n02823428_2607.JPEG
subject-08,2,681,0.75722599029541,cat,clock,32-0-10,1961_eid_s08_32-0-10_clock_10_n02708093_5734.JPEG
subject-08,2,682,1.32156109809875,chair,chair,4-3-10,1962_eid_s08_4-3-10_chair_10_n04429376_12972.JPEG
subject-08,2,683,0.66815710067749,chair,chair,4-0-10,1963_eid_s08_4-0-10_chair_10_n02791124_6281.JPEG
subject-08,2,684,1.47893404960632,bird,bird,1-3-10,1964_eid_s08_1-3-10_bird_10_n02025239_265.JPEG
subject-08,2,685,1.35732984542847,knife,truck,32-0-10,1965_eid_s08_32-0-10_truck_10_n04467665_46029.JPEG
subject-08,2,686,0.813555002212524,keyboard,truck,8-0-10,1966_eid_s08_8-0-10_truck_10_n04467665_67115.JPEG
subject-08,2,687,0.908155918121338,chair,oven,16-0-10,1967_eid_s08_16-0-10_oven_10_n04111531_13809.JPEG
subject-08,2,688,1.25482320785522,car,dog,64-10-10,1968_eid_s08_64-10-10_dog_10_n02113799_8338.JPEG
subject-08,2,689,0.911304950714111,clock,clock,2-3-10,1969_eid_s08_2-3-10_clock_10_n03196217_847.JPEG
subject-08,2,690,0.62152099609375,cat,cat,1-3-10,1970_eid_s08_1-3-10_cat_10_n02124075_1363.JPEG
subject-08,2,691,0.868443965911865,car,truck,128-3-10,1971_eid_s08_128-3-10_truck_10_n03796401_26744.JPEG
subject-08,2,692,0.770759105682373,dog,dog,2-10-10,1972_eid_s08_2-10-10_dog_10_n02113712_14709.JPEG
subject-08,2,693,1.20323801040649,boat,dog,128-3-10,1973_eid_s08_128-3-10_dog_10_n02099712_6779.JPEG
subject-08,2,694,0.794484853744507,keyboard,elephant,128-3-10,1974_eid_s08_128-3-10_elephant_10_n02504458_7565.JPEG
subject-08,2,695,0.81876015663147,truck,bottle,8-0-10,1975_eid_s08_8-0-10_bottle_10_n02823428_3362.JPEG
subject-08,2,696,0.945740938186646,chair,chair,32-3-10,1976_eid_s08_32-3-10_chair_10_n02791124_11404.JPEG
subject-08,2,697,1.08966302871704,bottle,bicycle,128-0-10,1977_eid_s08_128-0-10_bicycle_10_n03792782_7048.JPEG
subject-08,2,698,1.0902099609375,airplane,chair,32-0-10,1978_eid_s08_32-0-10_chair_10_n04429376_13678.JPEG
subject-08,2,699,0.654654026031494,car,car,2-10-10,1979_eid_s08_2-10-10_car_10_n03100240_7044.JPEG
subject-08,2,700,0.741428852081299,bottle,bottle,2-0-10,1980_eid_s08_2-0-10_bottle_10_n02823428_3937.JPEG
subject-08,2,701,0.987635135650635,truck,truck,1-10-10,1981_eid_s08_1-10-10_truck_10_n04467665_63645.JPEG
subject-08,2,702,0.697894811630249,cat,cat,1-3-10,1982_eid_s08_1-3-10_cat_10_n02123394_3786.JPEG
subject-08,2,703,0.919574022293091,boat,clock,128-0-10,1983_eid_s08_128-0-10_clock_10_n04548280_5437.JPEG
subject-08,2,704,1.39733695983887,bird,boat,8-0-10,1984_eid_s08_8-0-10_boat_10_n02951358_32735.JPEG
subject-08,2,705,1.50013995170593,bear,car,128-10-10,1985_eid_s08_128-10-10_car_10_n02814533_88659.JPEG
subject-08,2,706,1.11065006256104,bottle,bottle,8-10-10,1986_eid_s08_8-10-10_bottle_10_n03937543_9401.JPEG
subject-08,2,707,0.594789981842041,cat,cat,16-10-10,1987_eid_s08_16-10-10_cat_10_n02123597_631.JPEG
subject-08,2,708,0.683132886886597,keyboard,bicycle,128-3-10,1988_eid_s08_128-3-10_bicycle_10_n02835271_4730.JPEG
subject-08,2,709,0.775189161300659,car,keyboard,128-3-10,1989_eid_s08_128-3-10_keyboard_10_n03085013_25875.JPEG
subject-08,2,710,0.745774030685425,bicycle,bicycle,16-10-10,1990_eid_s08_16-10-10_bicycle_10_n02835271_14820.JPEG
subject-08,2,711,0.694139957427979,knife,knife,8-3-10,1991_eid_s08_8-3-10_knife_10_n03041632_38433.JPEG
subject-08,2,712,1.00448298454285,airplane,airplane,64-0-10,1992_eid_s08_64-0-10_airplane_10_n02690373_6465.JPEG
subject-08,2,713,0.821256160736084,clock,clock,8-0-10,1993_eid_s08_8-0-10_clock_10_n04548280_7087.JPEG
subject-08,2,714,0.899533987045288,elephant,elephant,2-10-10,1994_eid_s08_2-10-10_elephant_10_n02504458_9005.JPEG
subject-08,2,715,0.918356895446777,car,keyboard,64-10-10,1995_eid_s08_64-10-10_keyboard_10_n03085013_19630.JPEG
subject-08,2,716,0.734759092330933,truck,chair,16-0-10,1996_eid_s08_16-0-10_chair_10_n03376595_522.JPEG
subject-08,2,717,0.705599069595337,bird,clock,64-0-10,1997_eid_s08_64-0-10_clock_10_n02708093_451.JPEG
subject-08,2,718,0.753352880477905,keyboard,bottle,64-0-10,1998_eid_s08_64-0-10_bottle_10_n04560804_4859.JPEG
subject-08,2,719,0.778568029403687,chair,chair,128-3-10,1999_eid_s08_128-3-10_chair_10_n04099969_4675.JPEG
subject-08,2,720,0.7969651222229,clock,cat,32-10-10,2000_eid_s08_32-10-10_cat_10_n02123394_6496.JPEG
subject-08,2,721,0.74278998374939,bottle,bottle,1-10-10,2001_eid_s08_1-10-10_bottle_10_n03983396_4266.JPEG
subject-08,2,722,1.12108397483826,boat,oven,1-3-10,2002_eid_s08_1-3-10_oven_10_n04111531_3902.JPEG
subject-08,2,723,1.09894204139709,truck,chair,16-0-10,2003_eid_s08_16-0-10_chair_10_n04429376_19459.JPEG
subject-08,2,724,0.787474155426025,bicycle,bicycle,2-0-10,2004_eid_s08_2-0-10_bicycle_10_n03792782_7770.JPEG
subject-08,2,725,0.688157081604004,car,car,2-3-10,2005_eid_s08_2-3-10_car_10_n02814533_21859.JPEG
subject-08,2,726,0.774305105209351,truck,truck,2-3-10,2006_eid_s08_2-3-10_truck_10_n04467665_13614.JPEG
subject-08,2,727,0.890079021453857,cat,oven,16-3-10,2007_eid_s08_16-3-10_oven_10_n04111531_73.JPEG
subject-08,2,728,0.968183994293213,truck,truck,8-0-10,2008_eid_s08_8-0-10_truck_10_n03796401_1922.JPEG
subject-08,2,729,0.970212936401367,boat,chair,128-0-10,2009_eid_s08_128-0-10_chair_10_n04429376_16033.JPEG
subject-08,2,730,0.781136035919189,oven,elephant,8-0-10,2010_eid_s08_8-0-10_elephant_10_n02504013_6590.JPEG
subject-08,2,731,0.880817174911499,clock,truck,32-3-10,2011_eid_s08_32-3-10_truck_10_n03417042_3586.JPEG
subject-08,2,732,0.85943603515625,cat,cat,2-3-10,2012_eid_s08_2-3-10_cat_10_n02123159_4555.JPEG
subject-08,2,733,1.0838041305542,elephant,elephant,16-3-10,2013_eid_s08_16-3-10_elephant_10_n02504458_1333.JPEG
subject-08,2,734,0.961795806884766,cat,clock,16-0-10,2014_eid_s08_16-0-10_clock_10_n02708093_3621.JPEG
subject-08,2,735,0.686368942260742,car,oven,16-0-10,2015_eid_s08_16-0-10_oven_10_n04111531_9490.JPEG
subject-08,2,736,0.988958120346069,cat,bicycle,16-0-10,2016_eid_s08_16-0-10_bicycle_10_n02835271_703.JPEG
subject-08,2,737,0.86729907989502,car,boat,128-3-10,2017_eid_s08_128-3-10_boat_10_n04612504_13345.JPEG
subject-08,2,738,0.807488918304443,truck,bicycle,16-3-10,2018_eid_s08_16-3-10_bicycle_10_n03792782_693.JPEG
subject-08,2,739,1.00201892852783,airplane,knife,64-10-10,2019_eid_s08_64-10-10_knife_10_n03041632_6708.JPEG
subject-08,2,740,0.904336929321289,cat,cat,2-10-10,2020_eid_s08_2-10-10_cat_10_n02123597_7468.JPEG
subject-08,2,741,0.853065967559814,dog,oven,32-0-10,2021_eid_s08_32-0-10_oven_10_n04111531_8959.JPEG
subject-08,2,742,1.43117523193359,elephant,cat,64-0-10,2022_eid_s08_64-0-10_cat_10_n02123045_17001.JPEG
subject-08,2,743,0.647660970687866,car,car,8-0-10,2023_eid_s08_8-0-10_car_10_n03100240_10774.JPEG
subject-08,2,744,0.734197854995728,bear,bicycle,16-0-10,2024_eid_s08_16-0-10_bicycle_10_n03792782_18343.JPEG
subject-08,2,745,0.945005893707275,boat,boat,2-0-10,2025_eid_s08_2-0-10_boat_10_n04273569_22166.JPEG
subject-08,2,746,0.552749872207642,clock,keyboard,32-3-10,2026_eid_s08_32-3-10_keyboard_10_n03085013_33447.JPEG
subject-08,2,747,0.592751979827881,oven,bear,128-10-10,2027_eid_s08_128-10-10_bear_10_n02134084_3960.JPEG
subject-08,2,748,0.549951076507568,cat,cat,4-3-10,2028_eid_s08_4-3-10_cat_10_n02124075_14705.JPEG
subject-08,2,749,0.673888921737671,car,car,8-3-10,2029_eid_s08_8-3-10_car_10_n02814533_82879.JPEG
subject-08,2,750,0.797598123550415,cat,chair,16-0-10,2030_eid_s08_16-0-10_chair_10_n04099969_9140.JPEG
subject-08,2,751,0.90009593963623,chair,keyboard,16-0-10,2031_eid_s08_16-0-10_keyboard_10_n03085013_7511.JPEG
subject-08,2,752,1.30056309700012,oven,oven,8-10-10,2032_eid_s08_8-10-10_oven_10_n04111531_21918.JPEG
subject-08,2,753,0.602382898330688,boat,bear,64-3-10,2033_eid_s08_64-3-10_bear_10_n02134084_2929.JPEG
subject-08,2,754,0.988895893096924,truck,truck,1-3-10,2034_eid_s08_1-3-10_truck_10_n03796401_2767.JPEG
subject-08,2,755,0.59170389175415,boat,chair,64-3-10,2035_eid_s08_64-3-10_chair_10_n04099969_22250.JPEG
subject-08,2,756,1.0562150478363,airplane,bear,32-10-10,2036_eid_s08_32-10-10_bear_10_n02132136_6777.JPEG
subject-08,2,757,0.880584001541138,keyboard,clock,32-3-10,2037_eid_s08_32-3-10_clock_10_n03196217_10812.JPEG
subject-08,2,758,0.691066980361938,car,keyboard,128-0-10,2038_eid_s08_128-0-10_keyboard_10_n03085013_16359.JPEG
subject-08,2,759,0.937556982040405,car,oven,16-3-10,2039_eid_s08_16-3-10_oven_10_n04111531_13354.JPEG
subject-08,2,760,1.35594701766968,dog,bear,8-0-10,2040_eid_s08_8-0-10_bear_10_n02134418_3213.JPEG
subject-08,2,761,1.45594501495361,bicycle,bird,4-3-10,2041_eid_s08_4-3-10_bird_10_n02056570_18981.JPEG
subject-08,2,762,0.67418098449707,boat,knife,16-0-10,2042_eid_s08_16-0-10_knife_10_n03041632_3063.JPEG
subject-08,2,763,0.629050970077515,clock,bottle,16-0-10,2043_eid_s08_16-0-10_bottle_10_n04591713_2116.JPEG
subject-08,2,764,0.855162858963013,elephant,elephant,8-10-10,2044_eid_s08_8-10-10_elephant_10_n02504013_2778.JPEG
subject-08,2,765,0.893062114715576,car,bicycle,64-0-10,2045_eid_s08_64-0-10_bicycle_10_n03792782_19857.JPEG
subject-08,2,766,0.741185903549194,keyboard,bird,128-3-10,2046_eid_s08_128-3-10_bird_10_n02051845_16151.JPEG
subject-08,2,767,0.703930854797363,bird,bird,8-0-10,2047_eid_s08_8-0-10_bird_10_n02027492_1105.JPEG
subject-08,2,768,0.751780986785889,keyboard,keyboard,4-10-10,2048_eid_s08_4-10-10_keyboard_10_n03085013_15646.JPEG
subject-08,2,769,0.803947925567627,airplane,bear,128-3-10,2049_eid_s08_128-3-10_bear_10_n02133161_11854.JPEG
subject-08,2,770,0.558428049087524,keyboard,bottle,8-3-10,2050_eid_s08_8-3-10_bottle_10_n02823428_7590.JPEG
subject-08,2,771,0.898339986801147,elephant,elephant,4-3-10,2051_eid_s08_4-3-10_elephant_10_n02504458_4121.JPEG
subject-08,2,772,1.4309618473053,bicycle,bicycle,2-0-10,2052_eid_s08_2-0-10_bicycle_10_n03792782_46871.JPEG
subject-08,2,773,0.62519097328186,cat,bottle,64-3-10,2053_eid_s08_64-3-10_bottle_10_n04557648_9394.JPEG
subject-08,2,774,0.581573963165283,cat,cat,4-10-10,2054_eid_s08_4-10-10_cat_10_n02125311_20227.JPEG
subject-08,2,775,0.792434930801392,car,clock,128-0-10,2055_eid_s08_128-0-10_clock_10_n04548280_1960.JPEG
subject-08,2,776,1.03267502784729,oven,oven,8-3-10,2056_eid_s08_8-3-10_oven_10_n04111531_2462.JPEG
subject-08,2,777,0.931676149368286,boat,chair,16-10-10,2057_eid_s08_16-10-10_chair_10_n02791124_8591.JPEG
subject-08,2,778,1.04006505012512,bicycle,clock,16-0-10,2058_eid_s08_16-0-10_clock_10_n03196217_2528.JPEG
subject-08,2,779,0.850720882415771,elephant,elephant,1-3-10,2059_eid_s08_1-3-10_elephant_10_n02504013_5147.JPEG
subject-08,2,780,1.42030501365662,bear,bottle,128-3-10,2060_eid_s08_128-3-10_bottle_10_n04579145_3731.JPEG
subject-08,2,781,0.760771989822388,clock,bear,128-0-10,2061_eid_s08_128-0-10_bear_10_n02134084_9466.JPEG
subject-08,2,782,0.647369861602783,cat,bottle,16-0-10,2062_eid_s08_16-0-10_bottle_10_n04560804_22669.JPEG
subject-08,2,783,0.91730785369873,dog,dog,4-0-10,2063_eid_s08_4-0-10_dog_10_n02100877_2278.JPEG
subject-08,2,784,0.773628950119019,dog,dog,16-10-10,2064_eid_s08_16-10-10_dog_10_n02106382_3770.JPEG
subject-08,2,785,0.789436101913452,car,boat,64-3-10,2065_eid_s08_64-3-10_boat_10_n04273569_2740.JPEG
subject-08,2,786,0.708163022994995,truck,bicycle,64-0-10,2066_eid_s08_64-0-10_bicycle_10_n03792782_30186.JPEG
subject-08,2,787,0.794514894485474,cat,cat,1-10-10,2067_eid_s08_1-10-10_cat_10_n02125311_17433.JPEG
subject-08,2,788,0.656582117080688,keyboard,bicycle,32-0-10,2068_eid_s08_32-0-10_bicycle_10_n02835271_10542.JPEG
subject-08,2,789,1.25709819793701,elephant,elephant,8-10-10,2069_eid_s08_8-10-10_elephant_10_n02504013_10152.JPEG
subject-08,2,790,0.737662076950073,car,truck,64-3-10,2070_eid_s08_64-3-10_truck_10_n03417042_26713.JPEG
subject-08,2,791,0.870414018630981,elephant,elephant,2-0-10,2071_eid_s08_2-0-10_elephant_10_n02504013_3939.JPEG
subject-08,2,792,1.11063385009766,truck,chair,16-0-10,2072_eid_s08_16-0-10_chair_10_n04429376_24505.JPEG
subject-08,2,793,0.635432004928589,keyboard,chair,128-3-10,2073_eid_s08_128-3-10_chair_10_n02791124_5859.JPEG
subject-08,2,794,0.745790004730225,cat,knife,128-10-10,2074_eid_s08_128-10-10_knife_10_n03041632_13108.JPEG
subject-08,2,795,0.801743030548096,boat,boat,1-0-10,2075_eid_s08_1-0-10_boat_10_n04273569_28333.JPEG
subject-08,2,796,1.01865196228027,bear,elephant,16-0-10,2076_eid_s08_16-0-10_elephant_10_n02504013_23912.JPEG
subject-08,2,797,0.812866926193237,chair,chair,2-0-10,2077_eid_s08_2-0-10_chair_10_n03376595_9658.JPEG
subject-08,2,798,0.645462989807129,car,cat,64-10-10,2078_eid_s08_64-10-10_cat_10_n02123597_207.JPEG
subject-08,2,799,0.645906209945679,clock,clock,1-3-10,2079_eid_s08_1-3-10_clock_10_n03196217_5252.JPEG
subject-08,2,800,1.14054608345032,keyboard,knife,4-0-10,2080_eid_s08_4-0-10_knife_10_n03041632_4708.JPEG
subject-08,2,801,0.927041053771973,chair,chair,2-0-10,2081_eid_s08_2-0-10_chair_10_n02791124_4193.JPEG
subject-08,2,802,1.08365678787231,bird,bird,1-3-10,2082_eid_s08_1-3-10_bird_10_n01843065_5951.JPEG
subject-08,2,803,0.808059930801392,car,cat,32-10-10,2083_eid_s08_32-10-10_cat_10_n02123597_14639.JPEG
subject-08,2,804,0.678836107254028,truck,oven,16-3-10,2084_eid_s08_16-3-10_oven_10_n04111531_695.JPEG
subject-08,2,805,1.29725694656372,cat,cat,16-10-10,2085_eid_s08_16-10-10_cat_10_n02123394_884.JPEG
subject-08,2,806,NaN,na,airplane,4-0-10,2086_eid_s08_4-0-10_airplane_10_n02690373_7002.JPEG
subject-08,2,807,0.716185092926025,knife,knife,1-10-10,2087_eid_s08_1-10-10_knife_10_n03041632_11475.JPEG
subject-08,2,808,0.770581007003784,airplane,bear,32-10-10,2088_eid_s08_32-10-10_bear_10_n02134084_6352.JPEG
subject-08,2,809,0.889145135879517,keyboard,clock,16-0-10,2089_eid_s08_16-0-10_clock_10_n04548280_9292.JPEG
subject-08,2,810,1.04341697692871,clock,bear,128-3-10,2090_eid_s08_128-3-10_bear_10_n02132136_6641.JPEG
subject-08,2,811,0.72931694984436,knife,knife,4-0-10,2091_eid_s08_4-0-10_knife_10_n03041632_94470.JPEG
subject-08,2,812,0.575603008270264,bicycle,bicycle,1-10-10,2092_eid_s08_1-10-10_bicycle_10_n03792782_54350.JPEG
subject-08,2,813,0.656359910964966,chair,chair,2-10-10,2093_eid_s08_2-10-10_chair_10_n02791124_6643.JPEG
subject-08,2,814,0.972579002380371,car,truck,32-0-10,2094_eid_s08_32-0-10_truck_10_n04467665_65113.JPEG
subject-08,2,815,0.967422962188721,bird,bird,8-0-10,2095_eid_s08_8-0-10_bird_10_n02051845_25223.JPEG
subject-08,2,816,0.730212211608887,elephant,elephant,4-0-10,2096_eid_s08_4-0-10_elephant_10_n02504013_4288.JPEG
subject-08,2,817,0.786541938781738,keyboard,dog,64-3-10,2097_eid_s08_64-3-10_dog_10_n02086240_10706.JPEG
subject-08,2,818,1.29495906829834,bird,knife,8-0-10,2098_eid_s08_8-0-10_knife_10_n03041632_42887.JPEG
subject-08,2,819,0.797027111053467,car,car,4-3-10,2099_eid_s08_4-3-10_car_10_n03100240_1520.JPEG
subject-08,2,820,0.908178091049194,bear,dog,64-10-10,2100_eid_s08_64-10-10_dog_10_n02102040_8025.JPEG
subject-08,2,821,0.648123025894165,cat,elephant,64-3-10,2101_eid_s08_64-3-10_elephant_10_n02504013_1103.JPEG
subject-08,2,822,0.856527090072632,keyboard,keyboard,16-10-10,2102_eid_s08_16-10-10_keyboard_10_n04505470_2740.JPEG
subject-08,2,823,0.696666955947876,chair,bicycle,8-0-10,2103_eid_s08_8-0-10_bicycle_10_n03792782_23764.JPEG
subject-08,2,824,1.04536318778992,elephant,elephant,1-3-10,2104_eid_s08_1-3-10_elephant_10_n02504013_17589.JPEG
subject-08,2,825,0.939825057983398,oven,oven,1-0-10,2105_eid_s08_1-0-10_oven_10_n04111531_9963.JPEG
subject-08,2,826,0.818433046340942,bird,bird,16-10-10,2106_eid_s08_16-10-10_bird_10_n01820546_2948.JPEG
subject-08,2,827,1.05094385147095,dog,dog,2-0-10,2107_eid_s08_2-0-10_dog_10_n02106550_8177.JPEG
subject-08,2,828,0.899580001831055,car,elephant,128-0-10,2108_eid_s08_128-0-10_elephant_10_n02504458_1719.JPEG
subject-08,2,829,1.16133284568787,bird,bird,8-10-10,2109_eid_s08_8-10-10_bird_10_n01829413_7564.JPEG
subject-08,2,830,0.725548982620239,car,car,4-0-10,2110_eid_s08_4-0-10_car_10_n02814533_8331.JPEG
subject-08,2,831,0.550042867660522,car,car,4-0-10,2111_eid_s08_4-0-10_car_10_n04285008_6175.JPEG
subject-08,2,832,0.966704130172729,chair,dog,128-3-10,2112_eid_s08_128-3-10_dog_10_n02097658_5507.JPEG
subject-08,2,833,0.915392160415649,truck,knife,16-3-10,2113_eid_s08_16-3-10_knife_10_n03041632_22286.JPEG
subject-08,2,834,0.915799140930176,keyboard,keyboard,8-10-10,2114_eid_s08_8-10-10_keyboard_10_n04505470_7686.JPEG
subject-08,2,835,0.772070169448853,cat,cat,1-0-10,2115_eid_s08_1-0-10_cat_10_n02123394_8849.JPEG
subject-08,2,836,0.950783014297485,chair,oven,8-0-10,2116_eid_s08_8-0-10_oven_10_n04111531_12308.JPEG
subject-08,2,837,0.698410987854004,truck,bottle,16-0-10,2117_eid_s08_16-0-10_bottle_10_n04591713_6980.JPEG
subject-08,2,838,0.999018907546997,keyboard,clock,8-10-10,2118_eid_s08_8-10-10_clock_10_n02708093_22.JPEG
subject-08,2,839,0.685687780380249,car,bottle,64-0-10,2119_eid_s08_64-0-10_bottle_10_n03937543_690.JPEG
subject-08,2,840,1.15019512176514,bear,bear,16-3-10,2120_eid_s08_16-3-10_bear_10_n02134084_1503.JPEG
subject-08,2,841,0.742498874664307,bird,oven,128-3-10,2121_eid_s08_128-3-10_oven_10_n04111531_18520.JPEG
subject-08,2,842,0.882453203201294,dog,boat,8-3-10,2122_eid_s08_8-3-10_boat_10_n02951358_32415.JPEG
subject-08,2,843,0.6058189868927,oven,bottle,128-10-10,2123_eid_s08_128-10-10_bottle_10_n04560804_6672.JPEG
subject-08,2,844,0.630483150482178,car,boat,64-3-10,2124_eid_s08_64-3-10_boat_10_n03344393_4265.JPEG
subject-08,2,845,0.670608043670654,chair,cat,16-3-10,2125_eid_s08_16-3-10_cat_10_n02123394_6265.JPEG
subject-08,2,846,0.8787841796875,chair,chair,16-10-10,2126_eid_s08_16-10-10_chair_10_n03376595_7081.JPEG
subject-08,2,847,0.897629022598267,boat,airplane,128-10-10,2127_eid_s08_128-10-10_airplane_10_n02690373_2521.JPEG
subject-08,2,848,1.09178185462952,bird,bird,4-10-10,2128_eid_s08_4-10-10_bird_10_n01796340_9841.JPEG
subject-08,2,849,0.992509841918945,airplane,airplane,8-3-10,2129_eid_s08_8-3-10_airplane_10_n02690373_6096.JPEG
subject-08,2,850,0.871057987213135,car,car,1-10-10,2130_eid_s08_1-10-10_car_10_n04285008_2314.JPEG
subject-08,2,851,0.643281936645508,clock,clock,2-0-10,2131_eid_s08_2-0-10_clock_10_n02708093_3500.JPEG
subject-08,2,852,0.714102029800415,car,car,4-10-10,2132_eid_s08_4-10-10_car_10_n04285008_569.JPEG
subject-08,2,853,0.908529043197632,bottle,bottle,4-3-10,2133_eid_s08_4-3-10_bottle_10_n04557648_9583.JPEG
subject-08,2,854,0.695266008377075,bird,dog,16-0-10,2134_eid_s08_16-0-10_dog_10_n02098286_6079.JPEG
subject-08,2,855,0.943595886230469,keyboard,boat,16-0-10,2135_eid_s08_16-0-10_boat_10_n03344393_7043.JPEG
subject-08,2,856,0.938166856765747,truck,truck,8-10-10,2136_eid_s08_8-10-10_truck_10_n03417042_22603.JPEG
subject-08,2,857,0.554773092269897,boat,boat,1-3-10,2137_eid_s08_1-3-10_boat_10_n03662601_21918.JPEG
subject-08,2,858,0.895330190658569,bottle,chair,32-10-10,2138_eid_s08_32-10-10_chair_10_n04099969_13530.JPEG
subject-08,2,859,1.04103183746338,car,bird,32-3-10,2139_eid_s08_32-3-10_bird_10_n01818515_5023.JPEG
subject-08,2,860,0.981549024581909,bicycle,truck,32-3-10,2140_eid_s08_32-3-10_truck_10_n03417042_18253.JPEG
subject-08,2,861,0.868064880371094,oven,oven,1-10-10,2141_eid_s08_1-10-10_oven_10_n04111531_9041.JPEG
subject-08,2,862,0.808430910110474,keyboard,keyboard,1-0-10,2142_eid_s08_1-0-10_keyboard_10_n03085013_21947.JPEG
subject-08,2,863,1.28678679466248,truck,truck,2-0-10,2143_eid_s08_2-0-10_truck_10_n03796401_9953.JPEG
subject-08,2,864,0.69731593132019,airplane,airplane,1-10-10,2144_eid_s08_1-10-10_airplane_10_n02690373_18234.JPEG
subject-08,2,865,0.654086112976074,airplane,airplane,4-0-10,2145_eid_s08_4-0-10_airplane_10_n02690373_3561.JPEG
subject-08,2,866,0.738647937774658,car,chair,128-10-10,2146_eid_s08_128-10-10_chair_10_n04099969_2809.JPEG
subject-08,2,867,0.825162887573242,boat,airplane,128-0-10,2147_eid_s08_128-0-10_airplane_10_n02690373_9401.JPEG
subject-08,2,868,0.788903951644897,airplane,airplane,8-0-10,2148_eid_s08_8-0-10_airplane_10_n02690373_3970.JPEG
subject-08,2,869,0.667335033416748,chair,chair,8-3-10,2149_eid_s08_8-3-10_chair_10_n02791124_3250.JPEG
subject-08,2,870,0.683302164077759,airplane,airplane,4-10-10,2150_eid_s08_4-10-10_airplane_10_n02690373_9760.JPEG
subject-08,2,871,0.991871118545532,boat,boat,32-10-10,2151_eid_s08_32-10-10_boat_10_n03344393_1418.JPEG
subject-08,2,872,0.770116090774536,cat,bear,2-3-10,2152_eid_s08_2-3-10_bear_10_n02133161_2281.JPEG
subject-08,2,873,0.802534103393555,cat,cat,1-10-10,2153_eid_s08_1-10-10_cat_10_n02123394_3724.JPEG
subject-08,2,874,1.01349115371704,bird,bird,16-10-10,2154_eid_s08_16-10-10_bird_10_n01817953_3374.JPEG
subject-08,2,875,0.899955034255981,bear,bear,2-0-10,2155_eid_s08_2-0-10_bear_10_n02132136_1665.JPEG
subject-08,2,876,1.11673402786255,bicycle,bicycle,1-10-10,2156_eid_s08_1-10-10_bicycle_10_n02835271_5814.JPEG
subject-08,2,877,1.28132700920105,airplane,truck,4-0-10,2157_eid_s08_4-0-10_truck_10_n03796401_1196.JPEG
subject-08,2,878,1.20578289031982,car,bicycle,16-3-10,2158_eid_s08_16-3-10_bicycle_10_n03792782_31313.JPEG
subject-08,2,879,0.976215839385986,bird,cat,32-0-10,2159_eid_s08_32-0-10_cat_10_n02123045_4089.JPEG
subject-08,2,880,0.65500283241272,bird,bird,2-3-10,2160_eid_s08_2-3-10_bird_10_n01797886_22372.JPEG
subject-08,2,881,1.0199339389801,keyboard,truck,128-0-10,2161_eid_s08_128-0-10_truck_10_n03417042_3163.JPEG
subject-08,2,882,0.798695087432861,dog,dog,2-3-10,2162_eid_s08_2-3-10_dog_10_n02088364_13024.JPEG
subject-08,2,883,1.04738593101501,boat,truck,16-10-10,2163_eid_s08_16-10-10_truck_10_n03417042_27850.JPEG
subject-08,2,884,1.4718189239502,bird,bird,2-10-10,2164_eid_s08_2-10-10_bird_10_n01622779_18125.JPEG
subject-08,2,885,0.790648937225342,airplane,knife,128-10-10,2165_eid_s08_128-10-10_knife_10_n03041632_3171.JPEG
subject-08,2,886,0.893225908279419,boat,boat,4-0-10,2166_eid_s08_4-0-10_boat_10_n02951358_1911.JPEG
subject-08,2,887,0.693688154220581,oven,knife,1-10-10,2167_eid_s08_1-10-10_knife_10_n03041632_8666.JPEG
subject-08,2,888,0.73409104347229,oven,keyboard,16-0-10,2168_eid_s08_16-0-10_keyboard_10_n03085013_23658.JPEG
subject-08,2,889,0.712702989578247,cat,oven,16-3-10,2169_eid_s08_16-3-10_oven_10_n04111531_13560.JPEG
subject-08,2,890,1.00715303421021,bird,oven,128-10-10,2170_eid_s08_128-10-10_oven_10_n04111531_15635.JPEG
subject-08,2,891,0.954894065856934,bottle,bottle,2-10-10,2171_eid_s08_2-10-10_bottle_10_n03983396_4965.JPEG
subject-08,2,892,0.97896409034729,bear,oven,128-10-10,2172_eid_s08_128-10-10_oven_10_n04111531_16583.JPEG
subject-08,2,893,0.657524108886719,oven,oven,2-3-10,2173_eid_s08_2-3-10_oven_10_n04111531_13644.JPEG
subject-08,2,894,0.868324995040894,clock,clock,8-10-10,2174_eid_s08_8-10-10_clock_10_n02708093_9.JPEG
subject-08,2,895,0.822810888290405,car,bicycle,8-3-10,2175_eid_s08_8-3-10_bicycle_10_n02835271_1426.JPEG
subject-08,2,896,0.885231971740723,dog,dog,2-10-10,2176_eid_s08_2-10-10_dog_10_n02093754_2711.JPEG
subject-08,2,897,1.04184985160828,airplane,bottle,64-0-10,2177_eid_s08_64-0-10_bottle_10_n02823428_1203.JPEG
subject-08,2,898,0.652288913726807,bird,bottle,32-0-10,2178_eid_s08_32-0-10_bottle_10_n03937543_4829.JPEG
subject-08,2,899,0.752810955047607,bicycle,bicycle,2-0-10,2179_eid_s08_2-0-10_bicycle_10_n02835271_9670.JPEG
subject-08,2,900,1.07135915756226,car,car,1-3-10,2180_eid_s08_1-3-10_car_10_n02814533_27571.JPEG
subject-08,2,901,0.696069002151489,boat,airplane,64-0-10,2181_eid_s08_64-0-10_airplane_10_n02690373_7915.JPEG
subject-08,2,902,0.990148067474365,airplane,knife,64-10-10,2182_eid_s08_64-10-10_knife_10_n03041632_45775.JPEG
subject-08,2,903,0.844794988632202,clock,chair,64-10-10,2183_eid_s08_64-10-10_chair_10_n04099969_4150.JPEG
subject-08,2,904,0.693517923355103,clock,clock,1-10-10,2184_eid_s08_1-10-10_clock_10_n02708093_31.JPEG
subject-08,2,905,1.08782196044922,oven,knife,16-3-10,2185_eid_s08_16-3-10_knife_10_n03041632_56436.JPEG
subject-08,2,906,1.40430498123169,car,car,16-0-10,2186_eid_s08_16-0-10_car_10_n02814533_59053.JPEG
subject-08,2,907,0.830925941467285,car,dog,4-0-10,2187_eid_s08_4-0-10_dog_10_n02086646_5779.JPEG
subject-08,2,908,0.655127048492432,boat,dog,64-0-10,2188_eid_s08_64-0-10_dog_10_n02093647_160.JPEG
subject-08,2,909,0.909682035446167,knife,clock,128-10-10,2189_eid_s08_128-10-10_clock_10_n04548280_5096.JPEG
subject-08,2,910,0.987318992614746,truck,truck,1-0-10,2190_eid_s08_1-0-10_truck_10_n03417042_620.JPEG
subject-08,2,911,0.689693927764893,elephant,elephant,1-3-10,2191_eid_s08_1-3-10_elephant_10_n02504458_6510.JPEG
subject-08,2,912,0.673593997955322,car,car,16-10-10,2192_eid_s08_16-10-10_car_10_n03100240_5342.JPEG
subject-08,2,913,0.659958124160767,keyboard,clock,128-3-10,2193_eid_s08_128-3-10_clock_10_n04548280_1004.JPEG
subject-08,2,914,0.97611403465271,bear,bird,8-0-10,2194_eid_s08_8-0-10_bird_10_n02013706_1661.JPEG
subject-08,2,915,0.716417074203491,airplane,airplane,1-3-10,2195_eid_s08_1-3-10_airplane_10_n02690373_9687.JPEG
subject-08,2,916,0.694325923919678,chair,chair,1-0-10,2196_eid_s08_1-0-10_chair_10_n04429376_1501.JPEG
subject-08,2,917,0.588722944259644,boat,chair,128-3-10,2197_eid_s08_128-3-10_chair_10_n04099969_16556.JPEG
subject-08,2,918,0.945338010787964,oven,dog,128-0-10,2198_eid_s08_128-0-10_dog_10_n02090622_585.JPEG
subject-08,2,919,1.25392079353333,bicycle,bicycle,32-10-10,2199_eid_s08_32-10-10_bicycle_10_n02835271_5861.JPEG
subject-08,2,920,1.33250904083252,bottle,bottle,2-3-10,2200_eid_s08_2-3-10_bottle_10_n03937543_2894.JPEG
subject-08,2,921,0.981043815612793,bottle,bottle,1-10-10,2201_eid_s08_1-10-10_bottle_10_n03937543_11576.JPEG
subject-08,2,922,0.929407119750977,chair,chair,2-3-10,2202_eid_s08_2-3-10_chair_10_n02791124_1345.JPEG
subject-08,2,923,1.24597096443176,truck,truck,2-3-10,2203_eid_s08_2-3-10_truck_10_n04467665_70988.JPEG
subject-08,2,924,0.918608903884888,oven,oven,128-10-10,2204_eid_s08_128-10-10_oven_10_n04111531_12510.JPEG
subject-08,2,925,1.46679091453552,oven,clock,8-10-10,2205_eid_s08_8-10-10_clock_10_n04548280_5431.JPEG
subject-08,2,926,0.753306150436401,boat,truck,32-0-10,2206_eid_s08_32-0-10_truck_10_n03417042_14525.JPEG
subject-08,2,927,0.670032978057861,cat,cat,64-3-10,2207_eid_s08_64-3-10_cat_10_n02124075_12184.JPEG
subject-08,2,928,0.756498098373413,truck,truck,2-10-10,2208_eid_s08_2-10-10_truck_10_n03796401_5376.JPEG
subject-08,2,929,0.692691087722778,car,bird,8-3-10,2209_eid_s08_8-3-10_bird_10_n01537544_256.JPEG
subject-08,2,930,1.3322639465332,knife,bird,8-10-10,2210_eid_s08_8-10-10_bird_10_n02033041_4827.JPEG
subject-08,2,931,0.940418004989624,elephant,car,16-0-10,2211_eid_s08_16-0-10_car_10_n04285008_5063.JPEG
subject-08,2,932,1.03529500961304,bird,bottle,4-0-10,2212_eid_s08_4-0-10_bottle_10_n04560804_32409.JPEG
subject-08,2,933,0.921457052230835,car,elephant,128-0-10,2213_eid_s08_128-0-10_elephant_10_n02504458_3344.JPEG
subject-08,2,934,1.16762018203735,cat,cat,32-10-10,2214_eid_s08_32-10-10_cat_10_n02123159_257.JPEG
subject-08,2,935,1.40039491653442,truck,car,64-10-10,2215_eid_s08_64-10-10_car_10_n02814533_4279.JPEG
subject-08,2,936,0.832694053649902,chair,chair,4-10-10,2216_eid_s08_4-10-10_chair_10_n04099969_20160.JPEG
subject-08,2,937,0.789225101470947,oven,boat,32-0-10,2217_eid_s08_32-0-10_boat_10_n03344393_7243.JPEG
subject-08,2,938,1.26737689971924,cat,keyboard,128-10-10,2218_eid_s08_128-10-10_keyboard_10_n03085013_25419.JPEG
subject-08,2,939,0.715804100036621,boat,chair,32-3-10,2219_eid_s08_32-3-10_chair_10_n02791124_3801.JPEG
subject-08,2,940,0.872539043426514,bird,bird,1-10-10,2220_eid_s08_1-10-10_bird_10_n01532829_11283.JPEG
subject-08,2,941,0.85605001449585,oven,oven,1-3-10,2221_eid_s08_1-3-10_oven_10_n04111531_15317.JPEG
subject-08,2,942,1.02063608169556,elephant,elephant,2-10-10,2222_eid_s08_2-10-10_elephant_10_n02504013_4106.JPEG
subject-08,2,943,0.998929977416992,bicycle,bicycle,4-3-10,2223_eid_s08_4-3-10_bicycle_10_n02835271_5956.JPEG
subject-08,2,944,0.755789041519165,keyboard,bicycle,64-10-10,2224_eid_s08_64-10-10_bicycle_10_n03792782_43328.JPEG
subject-08,2,945,0.818107843399048,car,oven,32-0-10,2225_eid_s08_32-0-10_oven_10_n04111531_7221.JPEG
subject-08,2,946,1.12871599197388,keyboard,chair,128-10-10,2226_eid_s08_128-10-10_chair_10_n03376595_9885.JPEG
subject-08,2,947,1.03724408149719,oven,clock,128-0-10,2227_eid_s08_128-0-10_clock_10_n04548280_21263.JPEG
subject-08,2,948,0.761085033416748,airplane,airplane,8-3-10,2228_eid_s08_8-3-10_airplane_10_n02690373_5724.JPEG
subject-08,2,949,0.593384981155396,clock,oven,64-3-10,2229_eid_s08_64-3-10_oven_10_n04111531_8290.JPEG
subject-08,2,950,0.971860885620117,dog,dog,2-3-10,2230_eid_s08_2-3-10_dog_10_n02096585_1014.JPEG
subject-08,2,951,1.50008797645569,chair,elephant,8-3-10,2231_eid_s08_8-3-10_elephant_10_n02504458_7144.JPEG
subject-08,2,952,0.689723968505859,car,bird,128-0-10,2232_eid_s08_128-0-10_bird_10_n02013706_6405.JPEG
subject-08,2,953,0.938437938690186,truck,keyboard,64-3-10,2233_eid_s08_64-3-10_keyboard_10_n03085013_2122.JPEG
subject-08,2,954,1.14690113067627,airplane,airplane,32-0-10,2234_eid_s08_32-0-10_airplane_10_n02690373_2024.JPEG
