subj,session,trial,rt,object_response,category,condition,imagename
subject-06,1,1,0.755805015563965,keyboard,oven,2-3-10,0001_eid_s06_2-3-10_oven_10_n04111531_4671.JPEG
subject-06,1,2,1.13976716995239,elephant,elephant,4-10-10,0002_eid_s06_4-10-10_elephant_10_n02504458_7123.JPEG
subject-06,1,3,0.918179035186768,elephant,cat,2-0-10,0003_eid_s06_2-0-10_cat_10_n02125311_24614.JPEG
subject-06,1,4,0.834192037582397,keyboard,truck,32-10-10,0004_eid_s06_32-10-10_truck_10_n04467665_59237.JPEG
subject-06,1,5,0.58069896697998,bottle,knife,8-3-10,0005_eid_s06_8-3-10_knife_10_n03041632_11741.JPEG
subject-06,1,6,0.520894050598145,knife,knife,4-10-10,0006_eid_s06_4-10-10_knife_10_n03041632_15250.JPEG
subject-06,1,7,0.667083978652954,elephant,elephant,2-0-10,0007_eid_s06_2-0-10_elephant_10_n02504458_3088.JPEG
subject-06,1,8,0.567462921142578,elephant,elephant,2-0-10,0008_eid_s06_2-0-10_elephant_10_n02504458_6995.JPEG
subject-06,1,9,0.753627061843872,car,bicycle,128-0-10,0009_eid_s06_128-0-10_bicycle_10_n03792782_52262.JPEG
subject-06,1,10,0.753687858581543,cat,cat,4-3-10,0010_eid_s06_4-3-10_cat_10_n02123045_7136.JPEG
subject-06,1,11,0.740299940109253,keyboard,keyboard,4-3-10,0011_eid_s06_4-3-10_keyboard_10_n03085013_23566.JPEG
subject-06,1,12,0.462868213653564,cat,bird,64-3-10,0012_eid_s06_64-3-10_bird_10_n01843383_9762.JPEG
subject-06,1,13,0.457351922988892,airplane,airplane,2-0-10,0013_eid_s06_2-0-10_airplane_10_n02690373_2952.JPEG
subject-06,1,14,0.569849014282227,oven,bicycle,128-3-10,0014_eid_s06_128-3-10_bicycle_10_n02835271_10754.JPEG
subject-06,1,15,0.678609848022461,elephant,elephant,1-0-10,0015_eid_s06_1-0-10_elephant_10_n02504458_1302.JPEG
subject-06,1,16,0.618310213088989,airplane,truck,8-3-10,0016_eid_s06_8-3-10_truck_10_n04467665_30208.JPEG
subject-06,1,17,0.450634002685547,cat,cat,64-3-10,0017_eid_s06_64-3-10_cat_10_n02125311_13866.JPEG
subject-06,1,18,0.719422101974487,chair,chair,1-3-10,0018_eid_s06_1-3-10_chair_10_n04099969_2525.JPEG
subject-06,1,19,0.659914970397949,truck,truck,8-3-10,0019_eid_s06_8-3-10_truck_10_n04467665_51991.JPEG
subject-06,1,20,0.614552974700928,bottle,chair,128-10-10,0020_eid_s06_128-10-10_chair_10_n04099969_25664.JPEG
subject-06,1,21,1.41497087478638,cat,bear,2-10-10,0021_eid_s06_2-10-10_bear_10_n02134084_1288.JPEG
subject-06,1,22,0.701503038406372,airplane,dog,16-0-10,0022_eid_s06_16-0-10_dog_10_n02100236_1171.JPEG
subject-06,1,23,0.447391033172607,bottle,bottle,2-3-10,0023_eid_s06_2-3-10_bottle_10_n02823428_3505.JPEG
subject-06,1,24,0.563703060150146,airplane,airplane,32-0-10,0024_eid_s06_32-0-10_airplane_10_n02690373_4213.JPEG
subject-06,1,25,0.549998998641968,keyboard,keyboard,2-3-10,0025_eid_s06_2-3-10_keyboard_10_n03085013_9475.JPEG
subject-06,1,26,0.528441905975342,airplane,bird,8-10-10,0026_eid_s06_8-10-10_bird_10_n02051845_2092.JPEG
subject-06,1,27,0.975290775299072,clock,chair,8-3-10,0027_eid_s06_8-3-10_chair_10_n04429376_57904.JPEG
subject-06,1,28,0.560989141464233,chair,chair,1-0-10,0028_eid_s06_1-0-10_chair_10_n03376595_3169.JPEG
subject-06,1,29,0.561837911605835,cat,truck,16-3-10,0029_eid_s06_16-3-10_truck_10_n03796401_6256.JPEG
subject-06,1,30,0.924455881118774,dog,dog,2-0-10,0030_eid_s06_2-0-10_dog_10_n02100877_11660.JPEG
subject-06,1,31,1.18592095375061,car,car,1-0-10,0031_eid_s06_1-0-10_car_10_n04285008_3631.JPEG
subject-06,1,32,0.502406120300293,oven,bicycle,16-0-10,0032_eid_s06_16-0-10_bicycle_10_n03792782_3759.JPEG
subject-06,1,33,0.572772026062012,oven,bicycle,16-3-10,0033_eid_s06_16-3-10_bicycle_10_n03792782_191.JPEG
subject-06,1,34,0.689598083496094,airplane,boat,4-0-10,0034_eid_s06_4-0-10_boat_10_n02951358_1240.JPEG
subject-06,1,35,0.544288873672485,cat,clock,64-0-10,0035_eid_s06_64-0-10_clock_10_n04548280_3022.JPEG
subject-06,1,36,0.468575954437256,bear,bird,32-3-10,0036_eid_s06_32-3-10_bird_10_n01560419_5115.JPEG
subject-06,1,37,0.541598081588745,clock,clock,4-0-10,0037_eid_s06_4-0-10_clock_10_n02708093_462.JPEG
subject-06,1,38,0.763416051864624,car,boat,128-3-10,0038_eid_s06_128-3-10_boat_10_n04612504_4897.JPEG
subject-06,1,39,NaN,na,car,64-10-10,0039_eid_s06_64-10-10_car_10_n03100240_8630.JPEG
subject-06,1,40,0.696619033813477,airplane,elephant,128-10-10,0040_eid_s06_128-10-10_elephant_10_n02504458_6702.JPEG
subject-06,1,41,0.650876998901367,dog,dog,4-0-10,0041_eid_s06_4-0-10_dog_10_n02097209_329.JPEG
subject-06,1,42,0.821446895599365,car,car,4-0-10,0042_eid_s06_4-0-10_car_10_n03100240_2203.JPEG
subject-06,1,43,0.675595045089722,cat,cat,8-3-10,0043_eid_s06_8-3-10_cat_10_n02124075_2993.JPEG
subject-06,1,44,0.791260004043579,truck,truck,8-3-10,0044_eid_s06_8-3-10_truck_10_n03417042_10099.JPEG
subject-06,1,45,0.93770694732666,cat,elephant,2-0-10,0045_eid_s06_2-0-10_elephant_10_n02504013_11223.JPEG
subject-06,1,46,NaN,na,bear,2-3-10,0046_eid_s06_2-3-10_bear_10_n02133161_1612.JPEG
subject-06,1,47,0.678197860717773,airplane,bird,128-10-10,0047_eid_s06_128-10-10_bird_10_n01514859_11835.JPEG
subject-06,1,48,0.664745092391968,clock,clock,2-10-10,0048_eid_s06_2-10-10_clock_10_n04548280_4042.JPEG
subject-06,1,49,0.505283117294312,cat,dog,8-3-10,0049_eid_s06_8-3-10_dog_10_n02091831_890.JPEG
subject-06,1,50,0.775986909866333,bicycle,bicycle,128-10-10,0050_eid_s06_128-10-10_bicycle_10_n02835271_9772.JPEG
subject-06,1,51,0.760184049606323,car,elephant,64-0-10,0051_eid_s06_64-0-10_elephant_10_n02504013_3500.JPEG
subject-06,1,52,0.585243940353394,oven,dog,128-10-10,0052_eid_s06_128-10-10_dog_10_n02108422_12370.JPEG
subject-06,1,53,0.633883953094482,dog,dog,1-10-10,0053_eid_s06_1-10-10_dog_10_n02086079_4614.JPEG
subject-06,1,54,0.633704900741577,cat,truck,32-3-10,0054_eid_s06_32-3-10_truck_10_n04467665_31621.JPEG
subject-06,1,55,0.926331043243408,truck,truck,2-3-10,0055_eid_s06_2-3-10_truck_10_n04467665_61362.JPEG
subject-06,1,56,0.566390991210938,chair,chair,2-3-10,0056_eid_s06_2-3-10_chair_10_n02791124_5635.JPEG
subject-06,1,57,0.620519161224365,airplane,airplane,4-10-10,0057_eid_s06_4-10-10_airplane_10_n02690373_1071.JPEG
subject-06,1,58,0.642643928527832,cat,cat,16-10-10,0058_eid_s06_16-10-10_cat_10_n02123394_2787.JPEG
subject-06,1,59,0.433845996856689,oven,car,128-0-10,0059_eid_s06_128-0-10_car_10_n04285008_1193.JPEG
subject-06,1,60,0.550375938415527,dog,dog,8-0-10,0060_eid_s06_8-0-10_dog_10_n02099601_9950.JPEG
subject-06,1,61,0.974231958389282,knife,bicycle,64-10-10,0061_eid_s06_64-10-10_bicycle_10_n02835271_11868.JPEG
subject-06,1,62,0.92800498008728,elephant,elephant,4-3-10,0062_eid_s06_4-3-10_elephant_10_n02504458_6244.JPEG
subject-06,1,63,0.582494020462036,bottle,clock,16-0-10,0063_eid_s06_16-0-10_clock_10_n02708093_615.JPEG
subject-06,1,64,0.545397043228149,oven,bird,64-10-10,0064_eid_s06_64-10-10_bird_10_n01532829_10259.JPEG
subject-06,1,65,0.523741960525513,chair,chair,2-0-10,0065_eid_s06_2-0-10_chair_10_n03376595_6942.JPEG
subject-06,1,66,0.5783531665802,oven,oven,8-0-10,0066_eid_s06_8-0-10_oven_10_n04111531_1398.JPEG
subject-06,1,67,0.886843919754028,bird,bird,4-0-10,0067_eid_s06_4-0-10_bird_10_n01797886_11441.JPEG
subject-06,1,68,0.543263912200928,clock,clock,2-0-10,0068_eid_s06_2-0-10_clock_10_n03196217_1271.JPEG
subject-06,1,69,0.881996870040894,bird,bird,2-0-10,0069_eid_s06_2-0-10_bird_10_n02017213_728.JPEG
subject-06,1,70,0.465161085128784,airplane,clock,32-0-10,0070_eid_s06_32-0-10_clock_10_n03196217_3351.JPEG
subject-06,1,71,0.527837038040161,bicycle,bicycle,8-10-10,0071_eid_s06_8-10-10_bicycle_10_n02835271_12025.JPEG
subject-06,1,72,0.421864032745361,chair,chair,4-10-10,0072_eid_s06_4-10-10_chair_10_n04099969_6221.JPEG
subject-06,1,73,0.830348014831543,keyboard,keyboard,2-3-10,0073_eid_s06_2-3-10_keyboard_10_n04505470_2787.JPEG
subject-06,1,74,0.660359144210815,clock,clock,4-0-10,0074_eid_s06_4-0-10_clock_10_n04548280_8646.JPEG
subject-06,1,75,0.799149990081787,dog,cat,16-10-10,0075_eid_s06_16-10-10_cat_10_n02125311_44755.JPEG
subject-06,1,76,0.969386100769043,car,car,1-0-10,0076_eid_s06_1-0-10_car_10_n02814533_31860.JPEG
subject-06,1,77,0.886411905288696,car,car,1-0-10,0077_eid_s06_1-0-10_car_10_n02814533_67126.JPEG
subject-06,1,78,0.718768119812012,bicycle,bicycle,4-3-10,0078_eid_s06_4-3-10_bicycle_10_n03792782_30530.JPEG
subject-06,1,79,0.580749988555908,airplane,bird,32-0-10,0079_eid_s06_32-0-10_bird_10_n02033041_967.JPEG
subject-06,1,80,0.62757420539856,oven,oven,2-0-10,0080_eid_s06_2-0-10_oven_10_n04111531_15852.JPEG
subject-06,1,81,0.782034873962402,bottle,chair,16-3-10,0081_eid_s06_16-3-10_chair_10_n02791124_4903.JPEG
subject-06,1,82,0.668878078460693,car,bicycle,16-0-10,0082_eid_s06_16-0-10_bicycle_10_n03792782_15059.JPEG
subject-06,1,83,0.868830919265747,bird,bird,2-0-10,0083_eid_s06_2-0-10_bird_10_n01829413_2840.JPEG
subject-06,1,84,0.563661098480225,cat,truck,64-10-10,0084_eid_s06_64-10-10_truck_10_n03796401_15942.JPEG
subject-06,1,85,0.680050849914551,keyboard,chair,64-10-10,0085_eid_s06_64-10-10_chair_10_n02791124_5868.JPEG
subject-06,1,86,0.867171049118042,bear,bear,8-0-10,0086_eid_s06_8-0-10_bear_10_n02134084_6265.JPEG
subject-06,1,87,0.567390918731689,bird,bird,2-10-10,0087_eid_s06_2-10-10_bird_10_n02027492_1709.JPEG
subject-06,1,88,0.592088222503662,clock,chair,128-10-10,0088_eid_s06_128-10-10_chair_10_n02791124_10723.JPEG
subject-06,1,89,0.530020952224731,boat,boat,32-3-10,0089_eid_s06_32-3-10_boat_10_n04612504_19912.JPEG
subject-06,1,90,0.408867120742798,oven,airplane,16-0-10,0090_eid_s06_16-0-10_airplane_10_n02690373_7200.JPEG
subject-06,1,91,0.524630784988403,clock,clock,2-10-10,0091_eid_s06_2-10-10_clock_10_n03196217_6419.JPEG
subject-06,1,92,0.671433210372925,keyboard,knife,8-0-10,0092_eid_s06_8-0-10_knife_10_n03041632_8563.JPEG
subject-06,1,93,0.663756132125854,keyboard,boat,16-10-10,0093_eid_s06_16-10-10_boat_10_n02951358_13127.JPEG
subject-06,1,94,0.45862603187561,car,car,4-0-10,0094_eid_s06_4-0-10_car_10_n03100240_1443.JPEG
subject-06,1,95,0.59099292755127,bird,bird,4-10-10,0095_eid_s06_4-10-10_bird_10_n02013706_1538.JPEG
subject-06,1,96,0.591448068618774,oven,dog,128-10-10,0096_eid_s06_128-10-10_dog_10_n02105251_5812.JPEG
subject-06,1,97,0.508121013641357,clock,clock,2-3-10,0097_eid_s06_2-3-10_clock_10_n04548280_3013.JPEG
subject-06,1,98,0.470276117324829,car,car,16-10-10,0098_eid_s06_16-10-10_car_10_n02814533_53054.JPEG
subject-06,1,99,0.694761991500854,chair,bottle,1-10-10,0099_eid_s06_1-10-10_bottle_10_n04591713_14096.JPEG
subject-06,1,100,0.857465982437134,bird,oven,32-10-10,0100_eid_s06_32-10-10_oven_10_n04111531_9380.JPEG
subject-06,1,101,0.5882408618927,cat,knife,16-0-10,0101_eid_s06_16-0-10_knife_10_n03041632_95293.JPEG
subject-06,1,102,0.504781007766724,oven,cat,128-3-10,0102_eid_s06_128-3-10_cat_10_n02125311_29265.JPEG
subject-06,1,103,0.74566388130188,bird,cat,16-0-10,0103_eid_s06_16-0-10_cat_10_n02123159_6960.JPEG
subject-06,1,104,0.538421154022217,bird,bird,1-10-10,0104_eid_s06_1-10-10_bird_10_n02051845_205.JPEG
subject-06,1,105,0.487531900405884,chair,chair,8-10-10,0105_eid_s06_8-10-10_chair_10_n04099969_34325.JPEG
subject-06,1,106,0.803895950317383,truck,truck,8-10-10,0106_eid_s06_8-10-10_truck_10_n03417042_3633.JPEG
subject-06,1,107,0.712183952331543,elephant,elephant,4-0-10,0107_eid_s06_4-0-10_elephant_10_n02504013_21877.JPEG
subject-06,1,108,0.75908899307251,bird,clock,128-10-10,0108_eid_s06_128-10-10_clock_10_n03196217_2447.JPEG
subject-06,1,109,0.791686058044434,keyboard,oven,16-10-10,0109_eid_s06_16-10-10_oven_10_n04111531_22886.JPEG
subject-06,1,110,0.71442699432373,bird,cat,16-3-10,0110_eid_s06_16-3-10_cat_10_n02123045_7302.JPEG
subject-06,1,111,1.17673397064209,airplane,knife,16-3-10,0111_eid_s06_16-3-10_knife_10_n03041632_28135.JPEG
subject-06,1,112,NaN,na,elephant,64-3-10,0112_eid_s06_64-3-10_elephant_10_n02504013_4231.JPEG
subject-06,1,113,1.13973522186279,bear,bear,16-10-10,0113_eid_s06_16-10-10_bear_10_n02133161_9013.JPEG
subject-06,1,114,0.487900018692017,chair,chair,8-3-10,0114_eid_s06_8-3-10_chair_10_n03376595_4669.JPEG
subject-06,1,115,0.572031021118164,bird,bird,32-0-10,0115_eid_s06_32-0-10_bird_10_n02056570_1161.JPEG
subject-06,1,116,0.479724884033203,airplane,boat,2-10-10,0116_eid_s06_2-10-10_boat_10_n03344393_4920.JPEG
subject-06,1,117,0.602132797241211,clock,clock,4-10-10,0117_eid_s06_4-10-10_clock_10_n02708093_1559.JPEG
subject-06,1,118,0.618395090103149,oven,oven,32-3-10,0118_eid_s06_32-3-10_oven_10_n04111531_2296.JPEG
subject-06,1,119,0.558369874954224,cat,chair,32-0-10,0119_eid_s06_32-0-10_chair_10_n04429376_27889.JPEG
subject-06,1,120,0.592710971832275,keyboard,keyboard,128-0-10,0120_eid_s06_128-0-10_keyboard_10_n03085013_2092.JPEG
subject-06,1,121,1.26881384849548,bird,bird,32-10-10,0121_eid_s06_32-10-10_bird_10_n01601694_594.JPEG
subject-06,1,122,0.654965877532959,bear,airplane,128-3-10,0122_eid_s06_128-3-10_airplane_10_n02690373_7473.JPEG
subject-06,1,123,0.763056039810181,airplane,boat,32-0-10,0123_eid_s06_32-0-10_boat_10_n04273569_16982.JPEG
subject-06,1,124,0.554942846298218,bird,bird,8-3-10,0124_eid_s06_8-3-10_bird_10_n02002724_12574.JPEG
subject-06,1,125,1.0310070514679,bear,bear,16-0-10,0125_eid_s06_16-0-10_bear_10_n02133161_6514.JPEG
subject-06,1,126,0.963495016098022,elephant,elephant,32-0-10,0126_eid_s06_32-0-10_elephant_10_n02504458_6424.JPEG
subject-06,1,127,0.579967975616455,keyboard,keyboard,4-10-10,0127_eid_s06_4-10-10_keyboard_10_n04505470_4487.JPEG
subject-06,1,128,0.780219078063965,bear,bear,8-0-10,0128_eid_s06_8-0-10_bear_10_n02133161_1234.JPEG
subject-06,1,129,0.642841100692749,clock,clock,4-3-10,0129_eid_s06_4-3-10_clock_10_n02708093_1894.JPEG
subject-06,1,130,0.813344955444336,airplane,truck,8-10-10,0130_eid_s06_8-10-10_truck_10_n04467665_356.JPEG
subject-06,1,131,0.643532037734985,cat,bicycle,32-10-10,0131_eid_s06_32-10-10_bicycle_10_n03792782_72443.JPEG
subject-06,1,132,0.843140840530396,keyboard,boat,128-0-10,0132_eid_s06_128-0-10_boat_10_n03344393_4701.JPEG
subject-06,1,133,0.667582988739014,bicycle,bicycle,16-10-10,0133_eid_s06_16-10-10_bicycle_10_n03792782_12691.JPEG
subject-06,1,134,0.459655046463013,cat,cat,8-10-10,0134_eid_s06_8-10-10_cat_10_n02123159_5758.JPEG
subject-06,1,135,0.99009895324707,keyboard,keyboard,8-3-10,0135_eid_s06_8-3-10_keyboard_10_n04505470_4893.JPEG
subject-06,1,136,0.538751840591431,cat,cat,2-10-10,0136_eid_s06_2-10-10_cat_10_n02124075_6586.JPEG
subject-06,1,137,0.584181070327759,clock,clock,1-0-10,0137_eid_s06_1-0-10_clock_10_n04548280_2334.JPEG
subject-06,1,138,1.1088011264801,elephant,elephant,8-3-10,0138_eid_s06_8-3-10_elephant_10_n02504013_420.JPEG
subject-06,1,139,1.0930540561676,elephant,elephant,2-0-10,0139_eid_s06_2-0-10_elephant_10_n02504458_743.JPEG
subject-06,1,140,0.733549118041992,bird,bird,2-10-10,0140_eid_s06_2-10-10_bird_10_n01843383_3426.JPEG
subject-06,1,141,0.655929088592529,bicycle,bear,64-0-10,0141_eid_s06_64-0-10_bear_10_n02133161_10913.JPEG
subject-06,1,142,0.534446001052856,chair,oven,4-0-10,0142_eid_s06_4-0-10_oven_10_n04111531_13006.JPEG
subject-06,1,143,0.942634105682373,cat,car,32-3-10,0143_eid_s06_32-3-10_car_10_n02814533_89559.JPEG
subject-06,1,144,1.00544190406799,knife,keyboard,2-3-10,0144_eid_s06_2-3-10_keyboard_10_n03085013_18979.JPEG
subject-06,1,145,1.50020098686218,car,cat,2-0-10,0145_eid_s06_2-0-10_cat_10_n02123597_893.JPEG
subject-06,1,146,0.814396142959595,bird,cat,64-10-10,0146_eid_s06_64-10-10_cat_10_n02123045_5075.JPEG
subject-06,1,147,0.730844020843506,bicycle,bicycle,32-10-10,0147_eid_s06_32-10-10_bicycle_10_n02835271_2915.JPEG
subject-06,1,148,0.955878019332886,dog,dog,4-3-10,0148_eid_s06_4-3-10_dog_10_n02110806_3007.JPEG
subject-06,1,149,0.564346790313721,cat,cat,1-3-10,0149_eid_s06_1-3-10_cat_10_n02124075_964.JPEG
subject-06,1,150,0.717632055282593,boat,keyboard,64-0-10,0150_eid_s06_64-0-10_keyboard_10_n03085013_12708.JPEG
subject-06,1,151,0.664071083068848,bicycle,airplane,64-3-10,0151_eid_s06_64-3-10_airplane_10_n02690373_1663.JPEG
subject-06,1,152,1.05676102638245,chair,chair,1-0-10,0152_eid_s06_1-0-10_chair_10_n04429376_2936.JPEG
subject-06,1,153,0.977954149246216,bird,bear,64-3-10,0153_eid_s06_64-3-10_bear_10_n02134418_4750.JPEG
subject-06,1,154,0.648373126983643,cat,cat,2-3-10,0154_eid_s06_2-3-10_cat_10_n02123159_1557.JPEG
subject-06,1,155,0.96487283706665,bottle,knife,4-10-10,0155_eid_s06_4-10-10_knife_10_n03041632_27929.JPEG
subject-06,1,156,0.573428153991699,dog,dog,2-10-10,0156_eid_s06_2-10-10_dog_10_n02110806_24978.JPEG
subject-06,1,157,0.527164936065674,bicycle,keyboard,32-0-10,0157_eid_s06_32-0-10_keyboard_10_n03085013_9066.JPEG
subject-06,1,158,0.573550939559937,keyboard,dog,128-0-10,0158_eid_s06_128-0-10_dog_10_n02108422_1424.JPEG
subject-06,1,159,1.02036094665527,oven,keyboard,32-10-10,0159_eid_s06_32-10-10_keyboard_10_n04505470_4966.JPEG
subject-06,1,160,0.490461111068726,car,car,2-10-10,0160_eid_s06_2-10-10_car_10_n04285008_10223.JPEG
subject-06,1,161,0.628970146179199,bird,bird,2-3-10,0161_eid_s06_2-3-10_bird_10_n01855672_43770.JPEG
subject-06,1,162,0.815641164779663,car,boat,4-10-10,0162_eid_s06_4-10-10_boat_10_n03344393_2674.JPEG
subject-06,1,163,1.19414591789246,bicycle,car,32-0-10,0163_eid_s06_32-0-10_car_10_n04285008_1584.JPEG
subject-06,1,164,1.1956000328064,oven,oven,4-0-10,0164_eid_s06_4-0-10_oven_10_n04111531_2473.JPEG
subject-06,1,165,0.619584798812866,clock,clock,1-3-10,0165_eid_s06_1-3-10_clock_10_n02708093_3609.JPEG
subject-06,1,166,0.512336015701294,cat,cat,4-3-10,0166_eid_s06_4-3-10_cat_10_n02123597_10164.JPEG
subject-06,1,167,0.45282506942749,clock,clock,1-3-10,0167_eid_s06_1-3-10_clock_10_n02708093_6228.JPEG
subject-06,1,168,0.706390857696533,boat,car,64-0-10,0168_eid_s06_64-0-10_car_10_n03100240_2293.JPEG
subject-06,1,169,0.628469944000244,cat,cat,4-3-10,0169_eid_s06_4-3-10_cat_10_n02125311_60143.JPEG
subject-06,1,170,0.612529993057251,bicycle,airplane,128-3-10,0170_eid_s06_128-3-10_airplane_10_n02690373_4982.JPEG
subject-06,1,171,0.807501077651978,car,boat,16-0-10,0171_eid_s06_16-0-10_boat_10_n03662601_2602.JPEG
subject-06,1,172,0.60821795463562,bicycle,keyboard,64-0-10,0172_eid_s06_64-0-10_keyboard_10_n04505470_1440.JPEG
subject-06,1,173,0.924556970596313,elephant,elephant,4-0-10,0173_eid_s06_4-0-10_elephant_10_n02504013_2095.JPEG
subject-06,1,174,0.533447027206421,boat,boat,2-10-10,0174_eid_s06_2-10-10_boat_10_n04273569_4056.JPEG
subject-06,1,175,0.496052980422974,cat,car,128-10-10,0175_eid_s06_128-10-10_car_10_n03100240_18547.JPEG
subject-06,1,176,0.78039288520813,chair,chair,2-0-10,0176_eid_s06_2-0-10_chair_10_n02791124_16885.JPEG
subject-06,1,177,0.650692939758301,cat,cat,32-0-10,0177_eid_s06_32-0-10_cat_10_n02124075_10611.JPEG
subject-06,1,178,0.651229858398438,boat,boat,1-3-10,0178_eid_s06_1-3-10_boat_10_n03344393_1821.JPEG
subject-06,1,179,0.67575216293335,bicycle,keyboard,32-10-10,0179_eid_s06_32-10-10_keyboard_10_n03085013_21947.JPEG
subject-06,1,180,0.476557016372681,cat,cat,1-10-10,0180_eid_s06_1-10-10_cat_10_n02124075_10746.JPEG
subject-06,1,181,0.601229906082153,oven,oven,1-0-10,0181_eid_s06_1-0-10_oven_10_n04111531_7664.JPEG
subject-06,1,182,0.655802965164185,truck,truck,1-0-10,0182_eid_s06_1-0-10_truck_10_n04467665_69176.JPEG
subject-06,1,183,0.747570037841797,boat,truck,16-0-10,0183_eid_s06_16-0-10_truck_10_n03796401_7303.JPEG
subject-06,1,184,1.11789011955261,airplane,oven,128-0-10,0184_eid_s06_128-0-10_oven_10_n04111531_15492.JPEG
subject-06,1,185,0.604419946670532,bicycle,clock,64-10-10,0185_eid_s06_64-10-10_clock_10_n02708093_527.JPEG
subject-06,1,186,0.721188068389893,bird,bear,64-10-10,0186_eid_s06_64-10-10_bear_10_n02133161_3553.JPEG
subject-06,1,187,0.529580116271973,boat,knife,128-10-10,0187_eid_s06_128-10-10_knife_10_n03041632_40887.JPEG
subject-06,1,188,0.521840810775757,bicycle,bicycle,4-10-10,0188_eid_s06_4-10-10_bicycle_10_n03792782_49720.JPEG
subject-06,1,189,1.19255900382996,bear,bear,1-0-10,0189_eid_s06_1-0-10_bear_10_n02134084_5158.JPEG
subject-06,1,190,0.746484994888306,clock,clock,2-3-10,0190_eid_s06_2-3-10_clock_10_n03196217_2665.JPEG
subject-06,1,191,0.947120904922485,cat,bird,8-3-10,0191_eid_s06_8-3-10_bird_10_n02002556_6115.JPEG
subject-06,1,192,0.761225938796997,knife,truck,64-10-10,0192_eid_s06_64-10-10_truck_10_n03417042_7337.JPEG
subject-06,1,193,0.739524841308594,truck,truck,1-0-10,0193_eid_s06_1-0-10_truck_10_n03417042_11031.JPEG
subject-06,1,194,0.733612060546875,cat,dog,64-10-10,0194_eid_s06_64-10-10_dog_10_n02097658_4641.JPEG
subject-06,1,195,0.864554882049561,airplane,elephant,16-0-10,0195_eid_s06_16-0-10_elephant_10_n02504013_340.JPEG
subject-06,1,196,0.443107843399048,oven,airplane,128-0-10,0196_eid_s06_128-0-10_airplane_10_n02690373_5624.JPEG
subject-06,1,197,0.703573942184448,car,bear,64-0-10,0197_eid_s06_64-0-10_bear_10_n02133161_5260.JPEG
subject-06,1,198,0.589843034744263,cat,keyboard,64-0-10,0198_eid_s06_64-0-10_keyboard_10_n03085013_23847.JPEG
subject-06,1,199,0.666587114334106,bicycle,bicycle,4-0-10,0199_eid_s06_4-0-10_bicycle_10_n03792782_22760.JPEG
subject-06,1,200,1.02113509178162,bear,bear,2-0-10,0200_eid_s06_2-0-10_bear_10_n02132136_1156.JPEG
subject-06,1,201,0.70787501335144,bird,bird,1-3-10,0201_eid_s06_1-3-10_bird_10_n02017213_7380.JPEG
subject-06,1,202,0.648238897323608,cat,elephant,32-3-10,0202_eid_s06_32-3-10_elephant_10_n02504458_515.JPEG
subject-06,1,203,0.556926965713501,oven,elephant,16-0-10,0203_eid_s06_16-0-10_elephant_10_n02504013_4229.JPEG
subject-06,1,204,0.541246891021729,cat,bear,64-10-10,0204_eid_s06_64-10-10_bear_10_n02133161_832.JPEG
subject-06,1,205,1.30372095108032,bicycle,cat,128-3-10,0205_eid_s06_128-3-10_cat_10_n02124075_15031.JPEG
subject-06,1,206,0.580475091934204,keyboard,bottle,128-0-10,0206_eid_s06_128-0-10_bottle_10_n04560804_15419.JPEG
subject-06,1,207,1.2350800037384,bicycle,oven,8-10-10,0207_eid_s06_8-10-10_oven_10_n04111531_9208.JPEG
subject-06,1,208,1.22157311439514,bicycle,clock,64-0-10,0208_eid_s06_64-0-10_clock_10_n02708093_487.JPEG
subject-06,1,209,0.54597806930542,keyboard,keyboard,16-10-10,0209_eid_s06_16-10-10_keyboard_10_n04505470_4523.JPEG
subject-06,1,210,1.01653289794922,clock,bear,128-10-10,0210_eid_s06_128-10-10_bear_10_n02134418_4918.JPEG
subject-06,1,211,1.16323208808899,elephant,elephant,8-10-10,0211_eid_s06_8-10-10_elephant_10_n02504458_7369.JPEG
subject-06,1,212,0.593184947967529,bicycle,bear,128-3-10,0212_eid_s06_128-3-10_bear_10_n02134418_4350.JPEG
subject-06,1,213,0.600916862487793,keyboard,keyboard,16-10-10,0213_eid_s06_16-10-10_keyboard_10_n03085013_11469.JPEG
subject-06,1,214,1.17732405662537,cat,knife,32-0-10,0214_eid_s06_32-0-10_knife_10_n03041632_23803.JPEG
subject-06,1,215,1.31765103340149,cat,elephant,1-3-10,0215_eid_s06_1-3-10_elephant_10_n02504013_17589.JPEG
subject-06,1,216,0.948633909225464,cat,dog,8-3-10,0216_eid_s06_8-3-10_dog_10_n02112350_4250.JPEG
subject-06,1,217,0.667443037033081,cat,bottle,128-0-10,0217_eid_s06_128-0-10_bottle_10_n04557648_2714.JPEG
subject-06,1,218,1.37389802932739,bicycle,dog,16-0-10,0218_eid_s06_16-0-10_dog_10_n02108915_11474.JPEG
subject-06,1,219,0.584331035614014,airplane,airplane,8-10-10,0219_eid_s06_8-10-10_airplane_10_n02690373_6147.JPEG
subject-06,1,220,0.8230140209198,bicycle,car,32-0-10,0220_eid_s06_32-0-10_car_10_n03100240_2536.JPEG
subject-06,1,221,1.36997413635254,bear,dog,32-10-10,0221_eid_s06_32-10-10_dog_10_n02092002_13385.JPEG
subject-06,1,222,0.978160858154297,knife,knife,8-10-10,0222_eid_s06_8-10-10_knife_10_n03041632_84048.JPEG
subject-06,1,223,0.870508193969727,bottle,bottle,8-10-10,0223_eid_s06_8-10-10_bottle_10_n03983396_580.JPEG
subject-06,1,224,0.694164037704468,bottle,dog,2-3-10,0224_eid_s06_2-3-10_dog_10_n02112018_1026.JPEG
subject-06,1,225,0.648421049118042,oven,boat,64-10-10,0225_eid_s06_64-10-10_boat_10_n04273569_24526.JPEG
subject-06,1,226,0.887328147888184,knife,knife,16-10-10,0226_eid_s06_16-10-10_knife_10_n03041632_102764.JPEG
subject-06,1,227,0.979789018630981,boat,boat,1-0-10,0227_eid_s06_1-0-10_boat_10_n02951358_588.JPEG
subject-06,1,228,1.09611701965332,chair,chair,1-10-10,0228_eid_s06_1-10-10_chair_10_n03376595_8064.JPEG
subject-06,1,229,1.00489616394043,airplane,airplane,16-3-10,0229_eid_s06_16-3-10_airplane_10_n02690373_8743.JPEG
subject-06,1,230,1.26748013496399,elephant,bear,32-10-10,0230_eid_s06_32-10-10_bear_10_n02134084_15300.JPEG
subject-06,1,231,1.39763903617859,oven,oven,1-10-10,0231_eid_s06_1-10-10_oven_10_n04111531_5102.JPEG
subject-06,1,232,0.492494821548462,clock,clock,2-0-10,0232_eid_s06_2-0-10_clock_10_n03196217_8726.JPEG
subject-06,1,233,0.630887031555176,car,airplane,128-0-10,0233_eid_s06_128-0-10_airplane_10_n02690373_4375.JPEG
subject-06,1,234,1.08515691757202,bottle,bottle,1-3-10,0234_eid_s06_1-3-10_bottle_10_n03983396_5886.JPEG
subject-06,1,235,1.50017499923706,knife,chair,32-3-10,0235_eid_s06_32-3-10_chair_10_n03376595_17810.JPEG
subject-06,1,236,1.00753498077393,keyboard,keyboard,4-10-10,0236_eid_s06_4-10-10_keyboard_10_n04505470_2616.JPEG
subject-06,1,237,1.0780189037323,bicycle,bicycle,4-0-10,0237_eid_s06_4-0-10_bicycle_10_n03792782_13140.JPEG
subject-06,1,238,0.61058497428894,clock,clock,2-3-10,0238_eid_s06_2-3-10_clock_10_n02708093_3114.JPEG
subject-06,1,239,1.14900612831116,bicycle,bicycle,2-3-10,0239_eid_s06_2-3-10_bicycle_10_n02835271_22355.JPEG
subject-06,1,240,1.3041820526123,dog,dog,4-10-10,0240_eid_s06_4-10-10_dog_10_n02097298_9089.JPEG
subject-06,1,241,0.558282136917114,bicycle,bicycle,1-3-10,0241_eid_s06_1-3-10_bicycle_10_n03792782_15435.JPEG
subject-06,1,242,1.08312916755676,truck,knife,128-3-10,0242_eid_s06_128-3-10_knife_10_n03041632_54732.JPEG
subject-06,1,243,1.00534200668335,cat,dog,64-10-10,0243_eid_s06_64-10-10_dog_10_n02105641_8949.JPEG
subject-06,1,244,0.992053985595703,chair,chair,2-3-10,0244_eid_s06_2-3-10_chair_10_n02791124_1258.JPEG
subject-06,1,245,0.530617952346802,bicycle,bicycle,1-0-10,0245_eid_s06_1-0-10_bicycle_10_n02835271_13935.JPEG
subject-06,1,246,0.721498012542725,keyboard,chair,128-10-10,0246_eid_s06_128-10-10_chair_10_n02791124_3923.JPEG
subject-06,1,247,0.606625080108643,bear,bear,4-3-10,0247_eid_s06_4-3-10_bear_10_n02134418_2424.JPEG
subject-06,1,248,0.784667015075684,bear,bear,2-3-10,0248_eid_s06_2-3-10_bear_10_n02134084_24208.JPEG
subject-06,1,249,0.714982986450195,bicycle,bear,8-0-10,0249_eid_s06_8-0-10_bear_10_n02133161_160.JPEG
subject-06,1,250,0.669616937637329,oven,oven,8-10-10,0250_eid_s06_8-10-10_oven_10_n04111531_13822.JPEG
subject-06,1,251,0.556537866592407,chair,boat,64-0-10,0251_eid_s06_64-0-10_boat_10_n04612504_3372.JPEG
subject-06,1,252,1.05674505233765,knife,boat,128-10-10,0252_eid_s06_128-10-10_boat_10_n03344393_4294.JPEG
subject-06,1,253,0.895808935165405,chair,chair,2-0-10,0253_eid_s06_2-0-10_chair_10_n03376595_3177.JPEG
subject-06,1,254,0.536316156387329,boat,clock,128-3-10,0254_eid_s06_128-3-10_clock_10_n03196217_9065.JPEG
subject-06,1,255,1.50011777877808,knife,bottle,2-0-10,0255_eid_s06_2-0-10_bottle_10_n04560804_25649.JPEG
subject-06,1,256,0.753818035125732,cat,cat,1-10-10,0256_eid_s06_1-10-10_cat_10_n02123597_505.JPEG
subject-06,1,257,0.986400127410889,bird,bird,2-3-10,0257_eid_s06_2-3-10_bird_10_n01797886_13423.JPEG
subject-06,1,258,0.918752908706665,bottle,bird,8-0-10,0258_eid_s06_8-0-10_bird_10_n02009229_4416.JPEG
subject-06,1,259,0.756931781768799,car,dog,1-0-10,0259_eid_s06_1-0-10_dog_10_n02088238_12315.JPEG
subject-06,1,260,1.00368595123291,bear,dog,128-10-10,0260_eid_s06_128-10-10_dog_10_n02107683_3591.JPEG
subject-06,1,261,0.836734056472778,dog,dog,1-3-10,0261_eid_s06_1-3-10_dog_10_n02108422_2111.JPEG
subject-06,1,262,0.696484088897705,bird,oven,16-10-10,0262_eid_s06_16-10-10_oven_10_n04111531_3121.JPEG
subject-06,1,263,0.612953186035156,bicycle,bicycle,16-10-10,0263_eid_s06_16-10-10_bicycle_10_n03792782_8087.JPEG
subject-06,1,264,0.751152038574219,bear,airplane,32-10-10,0264_eid_s06_32-10-10_airplane_10_n02690373_10514.JPEG
subject-06,1,265,1.1139497756958,oven,chair,32-0-10,0265_eid_s06_32-0-10_chair_10_n04099969_8595.JPEG
subject-06,1,266,0.700196027755737,airplane,airplane,16-3-10,0266_eid_s06_16-3-10_airplane_10_n02690373_8754.JPEG
subject-06,1,267,0.638650894165039,car,car,8-0-10,0267_eid_s06_8-0-10_car_10_n02814533_29325.JPEG
subject-06,1,268,0.701608180999756,bird,bird,2-0-10,0268_eid_s06_2-0-10_bird_10_n02013706_3702.JPEG
subject-06,1,269,0.577900171279907,oven,oven,2-0-10,0269_eid_s06_2-0-10_oven_10_n04111531_21822.JPEG
subject-06,1,270,0.66242790222168,cat,bicycle,64-3-10,0270_eid_s06_64-3-10_bicycle_10_n02835271_9904.JPEG
subject-06,1,271,0.694919109344482,car,car,1-3-10,0271_eid_s06_1-3-10_car_10_n02814533_3624.JPEG
subject-06,1,272,0.679145097732544,car,car,1-10-10,0272_eid_s06_1-10-10_car_10_n02814533_80.JPEG
subject-06,1,273,0.917825937271118,car,car,4-0-10,0273_eid_s06_4-0-10_car_10_n04285008_9411.JPEG
subject-06,1,274,0.650743961334229,oven,oven,8-10-10,0274_eid_s06_8-10-10_oven_10_n04111531_2575.JPEG
subject-06,1,275,0.5433509349823,bicycle,car,64-10-10,0275_eid_s06_64-10-10_car_10_n04285008_17052.JPEG
subject-06,1,276,0.643769979476929,bottle,bicycle,16-3-10,0276_eid_s06_16-3-10_bicycle_10_n02835271_16104.JPEG
subject-06,1,277,0.898256063461304,keyboard,airplane,128-10-10,0277_eid_s06_128-10-10_airplane_10_n02690373_6031.JPEG
subject-06,1,278,0.753046989440918,bicycle,dog,64-0-10,0278_eid_s06_64-0-10_dog_10_n02107683_3082.JPEG
subject-06,1,279,0.527959108352661,cat,dog,2-10-10,0279_eid_s06_2-10-10_dog_10_n02102318_11634.JPEG
subject-06,1,280,0.43665599822998,oven,cat,64-3-10,0280_eid_s06_64-3-10_cat_10_n02123394_6091.JPEG
subject-06,1,281,0.50688099861145,cat,elephant,64-10-10,0281_eid_s06_64-10-10_elephant_10_n02504013_2065.JPEG
subject-06,1,282,0.529958009719849,keyboard,keyboard,2-0-10,0282_eid_s06_2-0-10_keyboard_10_n04505470_751.JPEG
subject-06,1,283,0.714360952377319,oven,truck,8-0-10,0283_eid_s06_8-0-10_truck_10_n03796401_4094.JPEG
subject-06,1,284,0.554569959640503,bird,bird,2-0-10,0284_eid_s06_2-0-10_bird_10_n01622779_1196.JPEG
subject-06,1,285,1.4151439666748,dog,keyboard,64-0-10,0285_eid_s06_64-0-10_keyboard_10_n03085013_24489.JPEG
subject-06,1,286,0.653645992279053,bicycle,elephant,64-3-10,0286_eid_s06_64-3-10_elephant_10_n02504013_5364.JPEG
subject-06,1,287,0.853899955749512,boat,bicycle,16-3-10,0287_eid_s06_16-3-10_bicycle_10_n03792782_2809.JPEG
subject-06,1,288,0.55687689781189,car,car,4-3-10,0288_eid_s06_4-3-10_car_10_n03100240_13602.JPEG
subject-06,1,289,1.00899505615234,oven,oven,1-3-10,0289_eid_s06_1-3-10_oven_10_n04111531_8688.JPEG
subject-06,1,290,0.608894109725952,boat,boat,1-3-10,0290_eid_s06_1-3-10_boat_10_n03344393_737.JPEG
subject-06,1,291,0.571221828460693,car,car,2-10-10,0291_eid_s06_2-10-10_car_10_n02814533_42097.JPEG
subject-06,1,292,0.57935905456543,cat,cat,1-10-10,0292_eid_s06_1-10-10_cat_10_n02123045_4279.JPEG
subject-06,1,293,0.577666997909546,cat,cat,1-0-10,0293_eid_s06_1-0-10_cat_10_n02123597_7702.JPEG
subject-06,1,294,0.632307052612305,bicycle,knife,8-0-10,0294_eid_s06_8-0-10_knife_10_n03041632_31849.JPEG
subject-06,1,295,1.07061195373535,airplane,airplane,128-3-10,0295_eid_s06_128-3-10_airplane_10_n02690373_2155.JPEG
subject-06,1,296,0.641392946243286,cat,dog,8-3-10,0296_eid_s06_8-3-10_dog_10_n02105251_12136.JPEG
subject-06,1,297,0.627803087234497,chair,chair,4-10-10,0297_eid_s06_4-10-10_chair_10_n04429376_14967.JPEG
subject-06,1,298,0.64201283454895,bicycle,truck,32-3-10,0298_eid_s06_32-3-10_truck_10_n04467665_19138.JPEG
subject-06,1,299,1.11306595802307,keyboard,bottle,128-10-10,0299_eid_s06_128-10-10_bottle_10_n03937543_1736.JPEG
subject-06,1,300,0.683813095092773,bird,bird,8-10-10,0300_eid_s06_8-10-10_bird_10_n02002556_10078.JPEG
subject-06,1,301,0.713469982147217,bicycle,bicycle,8-3-10,0301_eid_s06_8-3-10_bicycle_10_n03792782_11328.JPEG
subject-06,1,302,0.651989936828613,airplane,airplane,16-10-10,0302_eid_s06_16-10-10_airplane_10_n02690373_1051.JPEG
subject-06,1,303,1.19878792762756,airplane,truck,16-10-10,0303_eid_s06_16-10-10_truck_10_n03796401_21407.JPEG
subject-06,1,304,0.715550184249878,keyboard,keyboard,4-3-10,0304_eid_s06_4-3-10_keyboard_10_n03085013_20753.JPEG
subject-06,1,305,1.45414614677429,chair,bottle,128-10-10,0305_eid_s06_128-10-10_bottle_10_n04591713_5461.JPEG
subject-06,1,306,1.11694407463074,airplane,car,128-10-10,0306_eid_s06_128-10-10_car_10_n03100240_8743.JPEG
subject-06,1,307,0.949289083480835,truck,truck,2-3-10,0307_eid_s06_2-3-10_truck_10_n03417042_23535.JPEG
subject-06,1,308,0.533730983734131,cat,dog,32-10-10,0308_eid_s06_32-10-10_dog_10_n02099601_6357.JPEG
subject-06,1,309,0.696399927139282,dog,dog,1-0-10,0309_eid_s06_1-0-10_dog_10_n02113712_2405.JPEG
subject-06,1,310,0.688902139663696,bicycle,bottle,16-0-10,0310_eid_s06_16-0-10_bottle_10_n02823428_1133.JPEG
subject-06,1,311,0.743447065353394,cat,cat,32-10-10,0311_eid_s06_32-10-10_cat_10_n02124075_379.JPEG
subject-06,1,312,0.643745899200439,oven,oven,1-10-10,0312_eid_s06_1-10-10_oven_10_n04111531_643.JPEG
subject-06,1,313,0.866430997848511,bird,oven,32-3-10,0313_eid_s06_32-3-10_oven_10_n04111531_10199.JPEG
subject-06,1,314,0.604434013366699,cat,bicycle,64-3-10,0314_eid_s06_64-3-10_bicycle_10_n02835271_9633.JPEG
subject-06,1,315,1.22692394256592,knife,oven,8-0-10,0315_eid_s06_8-0-10_oven_10_n04111531_4795.JPEG
subject-06,1,316,0.697671890258789,bicycle,elephant,128-10-10,0316_eid_s06_128-10-10_elephant_10_n02504458_5149.JPEG
subject-06,1,317,0.575828075408936,car,car,8-3-10,0317_eid_s06_8-3-10_car_10_n02814533_52810.JPEG
subject-06,1,318,0.573060035705566,bicycle,car,128-0-10,0318_eid_s06_128-0-10_car_10_n04285008_3425.JPEG
subject-06,1,319,0.781443119049072,car,knife,8-3-10,0319_eid_s06_8-3-10_knife_10_n03041632_3023.JPEG
subject-06,1,320,0.628154993057251,boat,boat,2-10-10,0320_eid_s06_2-10-10_boat_10_n03344393_6999.JPEG
subject-06,1,321,1.28884983062744,clock,clock,4-0-10,0321_eid_s06_4-0-10_clock_10_n03196217_10947.JPEG
subject-06,1,322,0.521501064300537,airplane,boat,4-0-10,0322_eid_s06_4-0-10_boat_10_n02951358_12126.JPEG
subject-06,1,323,0.630198955535889,boat,boat,2-10-10,0323_eid_s06_2-10-10_boat_10_n02951358_31813.JPEG
subject-06,1,324,0.692646026611328,oven,cat,128-10-10,0324_eid_s06_128-10-10_cat_10_n02124075_10035.JPEG
subject-06,1,325,1.26100397109985,knife,dog,4-10-10,0325_eid_s06_4-10-10_dog_10_n02088466_11594.JPEG
subject-06,1,326,0.977493047714233,bicycle,bicycle,8-3-10,0326_eid_s06_8-3-10_bicycle_10_n03792782_18496.JPEG
subject-06,1,327,1.2238450050354,chair,bicycle,64-0-10,0327_eid_s06_64-0-10_bicycle_10_n02835271_1488.JPEG
subject-06,1,328,NaN,na,truck,32-3-10,0328_eid_s06_32-3-10_truck_10_n04467665_3040.JPEG
subject-06,1,329,0.578834056854248,keyboard,bird,128-10-10,0329_eid_s06_128-10-10_bird_10_n01855672_9072.JPEG
subject-06,1,330,0.901821851730347,bird,dog,1-3-10,0330_eid_s06_1-3-10_dog_10_n02108000_6530.JPEG
subject-06,1,331,0.718380928039551,cat,bicycle,32-0-10,0331_eid_s06_32-0-10_bicycle_10_n03792782_12823.JPEG
subject-06,1,332,0.742891073226929,chair,cat,4-0-10,0332_eid_s06_4-0-10_cat_10_n02123159_4425.JPEG
subject-06,1,333,0.673391103744507,bottle,elephant,8-3-10,0333_eid_s06_8-3-10_elephant_10_n02504458_8823.JPEG
subject-06,1,334,0.595906972885132,bear,bear,2-3-10,0334_eid_s06_2-3-10_bear_10_n02132136_4191.JPEG
subject-06,1,335,0.750177145004272,bottle,bottle,1-0-10,0335_eid_s06_1-0-10_bottle_10_n04591713_3255.JPEG
subject-06,1,336,1.22112703323364,clock,clock,4-3-10,0336_eid_s06_4-3-10_clock_10_n04548280_5382.JPEG
subject-06,1,337,0.929602861404419,airplane,boat,8-0-10,0337_eid_s06_8-0-10_boat_10_n03344393_8491.JPEG
subject-06,1,338,0.468251943588257,car,car,4-10-10,0338_eid_s06_4-10-10_car_10_n02814533_44906.JPEG
subject-06,1,339,0.500643968582153,oven,truck,128-3-10,0339_eid_s06_128-3-10_truck_10_n03417042_5206.JPEG
subject-06,1,340,0.823131084442139,bird,bird,32-10-10,0340_eid_s06_32-10-10_bird_10_n01860187_114.JPEG
subject-06,1,341,0.637711048126221,bicycle,bottle,16-10-10,0341_eid_s06_16-10-10_bottle_10_n04579145_3830.JPEG
subject-06,1,342,0.808193922042847,clock,cat,16-0-10,0342_eid_s06_16-0-10_cat_10_n02124075_12073.JPEG
subject-06,1,343,0.824678897857666,bicycle,bicycle,4-3-10,0343_eid_s06_4-3-10_bicycle_10_n03792782_66048.JPEG
subject-06,1,344,0.609292984008789,airplane,airplane,4-10-10,0344_eid_s06_4-10-10_airplane_10_n02690373_2865.JPEG
subject-06,1,345,0.793453931808472,car,bottle,64-0-10,0345_eid_s06_64-0-10_bottle_10_n03983396_10243.JPEG
subject-06,1,346,0.656240940093994,bicycle,truck,64-0-10,0346_eid_s06_64-0-10_truck_10_n03796401_25570.JPEG
subject-06,1,347,0.824426889419556,keyboard,keyboard,4-10-10,0347_eid_s06_4-10-10_keyboard_10_n04505470_4702.JPEG
subject-06,1,348,0.602849960327148,airplane,oven,64-0-10,0348_eid_s06_64-0-10_oven_10_n04111531_2643.JPEG
subject-06,1,349,0.509289979934692,boat,knife,64-10-10,0349_eid_s06_64-10-10_knife_10_n03041632_28201.JPEG
subject-06,1,350,0.571266889572144,chair,chair,2-3-10,0350_eid_s06_2-3-10_chair_10_n04099969_3583.JPEG
subject-06,1,351,NaN,na,chair,32-3-10,0351_eid_s06_32-3-10_chair_10_n02791124_13610.JPEG
subject-06,1,352,0.801944971084595,bicycle,truck,64-0-10,0352_eid_s06_64-0-10_truck_10_n04467665_70071.JPEG
subject-06,1,353,0.618451833724976,bicycle,bicycle,2-10-10,0353_eid_s06_2-10-10_bicycle_10_n02835271_7284.JPEG
subject-06,1,354,1.18692398071289,bottle,knife,4-10-10,0354_eid_s06_4-10-10_knife_10_n03041632_19971.JPEG
subject-06,1,355,0.611238956451416,bird,bird,16-10-10,0355_eid_s06_16-10-10_bird_10_n01860187_10654.JPEG
subject-06,1,356,0.641759157180786,airplane,airplane,4-3-10,0356_eid_s06_4-3-10_airplane_10_n02690373_1986.JPEG
subject-06,1,357,0.512546062469482,bird,bottle,32-10-10,0357_eid_s06_32-10-10_bottle_10_n04557648_17011.JPEG
subject-06,1,358,0.650614023208618,bicycle,car,32-0-10,0358_eid_s06_32-0-10_car_10_n02814533_85312.JPEG
subject-06,1,359,0.856764793395996,cat,cat,4-0-10,0359_eid_s06_4-0-10_cat_10_n02124075_3693.JPEG
subject-06,1,360,0.797271013259888,knife,knife,8-3-10,0360_eid_s06_8-3-10_knife_10_n03041632_12130.JPEG
subject-06,1,361,1.07422399520874,cat,clock,16-10-10,0361_eid_s06_16-10-10_clock_10_n04548280_1177.JPEG
subject-06,1,362,0.628571033477783,dog,dog,1-10-10,0362_eid_s06_1-10-10_dog_10_n02111129_237.JPEG
subject-06,1,363,0.745206832885742,chair,truck,128-0-10,0363_eid_s06_128-0-10_truck_10_n03417042_5003.JPEG
subject-06,1,364,1.23807621002197,car,bear,16-0-10,0364_eid_s06_16-0-10_bear_10_n02134418_965.JPEG
subject-06,1,365,0.652766227722168,bottle,bottle,8-10-10,0365_eid_s06_8-10-10_bottle_10_n03937543_2894.JPEG
subject-06,1,366,0.61472487449646,knife,knife,1-10-10,0366_eid_s06_1-10-10_knife_10_n03041632_24541.JPEG
subject-06,1,367,0.931180000305176,bear,keyboard,64-10-10,0367_eid_s06_64-10-10_keyboard_10_n03085013_21166.JPEG
subject-06,1,368,0.665940999984741,bear,oven,128-0-10,0368_eid_s06_128-0-10_oven_10_n04111531_11868.JPEG
subject-06,1,369,0.490679979324341,cat,chair,8-0-10,0369_eid_s06_8-0-10_chair_10_n03376595_8950.JPEG
subject-06,1,370,0.512989044189453,cat,cat,1-0-10,0370_eid_s06_1-0-10_cat_10_n02125311_47277.JPEG
subject-06,1,371,0.434087038040161,oven,chair,128-0-10,0371_eid_s06_128-0-10_chair_10_n04429376_122.JPEG
subject-06,1,372,0.60506796836853,chair,oven,128-3-10,0372_eid_s06_128-3-10_oven_10_n04111531_12161.JPEG
subject-06,1,373,0.489367008209229,airplane,airplane,8-0-10,0373_eid_s06_8-0-10_airplane_10_n02690373_1038.JPEG
subject-06,1,374,0.866041898727417,bicycle,bicycle,2-0-10,0374_eid_s06_2-0-10_bicycle_10_n03792782_18190.JPEG
subject-06,1,375,0.682315111160278,keyboard,keyboard,1-10-10,0375_eid_s06_1-10-10_keyboard_10_n04505470_1229.JPEG
subject-06,1,376,0.636932849884033,bear,cat,128-0-10,0376_eid_s06_128-0-10_cat_10_n02125311_18483.JPEG
subject-06,1,377,1.08908796310425,keyboard,oven,32-0-10,0377_eid_s06_32-0-10_oven_10_n04111531_6567.JPEG
subject-06,1,378,0.621547937393188,airplane,airplane,32-3-10,0378_eid_s06_32-3-10_airplane_10_n02690373_19286.JPEG
subject-06,1,379,0.760113000869751,bird,bicycle,64-10-10,0379_eid_s06_64-10-10_bicycle_10_n02835271_478.JPEG
subject-06,1,380,0.614694118499756,chair,chair,1-10-10,0380_eid_s06_1-10-10_chair_10_n04099969_27865.JPEG
subject-06,1,381,0.815550088882446,bird,bird,1-0-10,0381_eid_s06_1-0-10_bird_10_n01531178_1819.JPEG
subject-06,1,382,0.8297278881073,bicycle,clock,16-0-10,0382_eid_s06_16-0-10_clock_10_n04548280_5437.JPEG
subject-06,1,383,0.6683509349823,bear,bear,8-10-10,0383_eid_s06_8-10-10_bear_10_n02133161_9724.JPEG
subject-06,1,384,0.622922897338867,cat,truck,128-10-10,0384_eid_s06_128-10-10_truck_10_n04467665_61.JPEG
subject-06,1,385,0.531077146530151,oven,clock,128-10-10,0385_eid_s06_128-10-10_clock_10_n03196217_1746.JPEG
subject-06,1,386,0.538967847824097,cat,cat,32-0-10,0386_eid_s06_32-0-10_cat_10_n02123597_9459.JPEG
subject-06,1,387,0.807426929473877,knife,clock,64-3-10,0387_eid_s06_64-3-10_clock_10_n03196217_6348.JPEG
subject-06,1,388,0.770180940628052,knife,knife,1-0-10,0388_eid_s06_1-0-10_knife_10_n03041632_7090.JPEG
subject-06,1,389,0.740783929824829,bird,cat,128-10-10,0389_eid_s06_128-10-10_cat_10_n02123394_4666.JPEG
subject-06,1,390,0.584786891937256,cat,bird,64-3-10,0390_eid_s06_64-3-10_bird_10_n01560419_129.JPEG
subject-06,1,391,0.885174036026001,chair,bicycle,32-10-10,0391_eid_s06_32-10-10_bicycle_10_n02835271_26139.JPEG
subject-06,1,392,0.909722805023193,bicycle,bicycle,16-3-10,0392_eid_s06_16-3-10_bicycle_10_n03792782_33636.JPEG
subject-06,1,393,0.702362060546875,oven,clock,32-10-10,0393_eid_s06_32-10-10_clock_10_n02708093_1747.JPEG
subject-06,1,394,0.502686977386475,boat,boat,4-0-10,0394_eid_s06_4-0-10_boat_10_n04273569_13545.JPEG
subject-06,1,395,0.448933124542236,cat,cat,8-0-10,0395_eid_s06_8-0-10_cat_10_n02123394_2745.JPEG
subject-06,1,396,0.681536912918091,clock,airplane,64-10-10,0396_eid_s06_64-10-10_airplane_10_n02690373_1434.JPEG
subject-06,1,397,0.527936220169067,cat,bear,4-3-10,0397_eid_s06_4-3-10_bear_10_n02132136_9815.JPEG
subject-06,1,398,0.588092088699341,bird,bird,4-0-10,0398_eid_s06_4-0-10_bird_10_n01829413_8698.JPEG
subject-06,1,399,0.658461093902588,airplane,truck,16-0-10,0399_eid_s06_16-0-10_truck_10_n04467665_57.JPEG
subject-06,1,400,1.24010515213013,car,bear,32-0-10,0400_eid_s06_32-0-10_bear_10_n02133161_4688.JPEG
subject-06,1,401,0.604649066925049,bicycle,bicycle,4-3-10,0401_eid_s06_4-3-10_bicycle_10_n03792782_12453.JPEG
subject-06,1,402,0.697221040725708,keyboard,keyboard,4-0-10,0402_eid_s06_4-0-10_keyboard_10_n03085013_33447.JPEG
subject-06,1,403,0.973981857299805,truck,boat,128-3-10,0403_eid_s06_128-3-10_boat_10_n02951358_3168.JPEG
subject-06,1,404,0.77442193031311,bottle,bottle,8-3-10,0404_eid_s06_8-3-10_bottle_10_n04560804_4624.JPEG
subject-06,1,405,0.77486515045166,bird,boat,16-3-10,0405_eid_s06_16-3-10_boat_10_n02951358_30479.JPEG
subject-06,1,406,0.413322925567627,clock,clock,2-10-10,0406_eid_s06_2-10-10_clock_10_n04548280_3804.JPEG
subject-06,1,407,0.651415109634399,dog,dog,4-10-10,0407_eid_s06_4-10-10_dog_10_n02095314_3618.JPEG
subject-06,1,408,0.967941045761108,bear,bear,32-0-10,0408_eid_s06_32-0-10_bear_10_n02133161_1925.JPEG
subject-06,1,409,0.589759826660156,knife,knife,4-10-10,0409_eid_s06_4-10-10_knife_10_n03041632_47410.JPEG
subject-06,1,410,0.668349027633667,oven,oven,1-3-10,0410_eid_s06_1-3-10_oven_10_n04111531_1165.JPEG
subject-06,1,411,0.544785976409912,car,oven,128-0-10,0411_eid_s06_128-0-10_oven_10_n04111531_4868.JPEG
subject-06,1,412,0.775269985198975,knife,knife,8-3-10,0412_eid_s06_8-3-10_knife_10_n03041632_48071.JPEG
subject-06,1,413,0.729622840881348,airplane,airplane,4-3-10,0413_eid_s06_4-3-10_airplane_10_n02690373_12505.JPEG
subject-06,1,414,0.752032995223999,car,car,4-3-10,0414_eid_s06_4-3-10_car_10_n04285008_4142.JPEG
subject-06,1,415,0.563117027282715,clock,clock,2-10-10,0415_eid_s06_2-10-10_clock_10_n02708093_107.JPEG
subject-06,1,416,0.593308925628662,cat,cat,16-0-10,0416_eid_s06_16-0-10_cat_10_n02124075_10164.JPEG
subject-06,1,417,0.577700138092041,airplane,airplane,1-10-10,0417_eid_s06_1-10-10_airplane_10_n02690373_3147.JPEG
subject-06,1,418,0.648077964782715,chair,chair,1-10-10,0418_eid_s06_1-10-10_chair_10_n03376595_8229.JPEG
subject-06,1,419,0.524593830108643,chair,chair,2-0-10,0419_eid_s06_2-0-10_chair_10_n04099969_16456.JPEG
subject-06,1,420,0.86324405670166,boat,dog,32-10-10,0420_eid_s06_32-10-10_dog_10_n02108915_2941.JPEG
subject-06,1,421,0.657997846603394,truck,truck,4-0-10,0421_eid_s06_4-0-10_truck_10_n04467665_5674.JPEG
subject-06,1,422,0.693384170532227,bear,bear,1-10-10,0422_eid_s06_1-10-10_bear_10_n02134418_8516.JPEG
subject-06,1,423,0.74164605140686,clock,bird,64-10-10,0423_eid_s06_64-10-10_bird_10_n01843065_7629.JPEG
subject-06,1,424,0.772109985351562,chair,truck,8-10-10,0424_eid_s06_8-10-10_truck_10_n03417042_6298.JPEG
subject-06,1,425,0.542555093765259,bicycle,bicycle,2-0-10,0425_eid_s06_2-0-10_bicycle_10_n02835271_5437.JPEG
subject-06,1,426,0.694683074951172,elephant,elephant,8-10-10,0426_eid_s06_8-10-10_elephant_10_n02504013_21215.JPEG
subject-06,1,427,1.29520201683044,bear,oven,16-0-10,0427_eid_s06_16-0-10_oven_10_n04111531_12103.JPEG
subject-06,1,428,1.17996406555176,bottle,chair,16-0-10,0428_eid_s06_16-0-10_chair_10_n02791124_424.JPEG
subject-06,1,429,0.742192029953003,knife,knife,128-3-10,0429_eid_s06_128-3-10_knife_10_n03041632_1006.JPEG
subject-06,1,430,0.904881000518799,bicycle,clock,64-3-10,0430_eid_s06_64-3-10_clock_10_n02708093_2346.JPEG
subject-06,1,431,0.513530969619751,oven,bottle,8-0-10,0431_eid_s06_8-0-10_bottle_10_n03937543_10866.JPEG
subject-06,1,432,0.499674797058105,boat,boat,32-3-10,0432_eid_s06_32-3-10_boat_10_n04612504_770.JPEG
subject-06,1,433,0.636090993881226,clock,boat,64-10-10,0433_eid_s06_64-10-10_boat_10_n03344393_3454.JPEG
subject-06,1,434,0.630508899688721,clock,clock,1-3-10,0434_eid_s06_1-3-10_clock_10_n03196217_3035.JPEG
subject-06,1,435,0.783032894134521,elephant,elephant,4-0-10,0435_eid_s06_4-0-10_elephant_10_n02504458_6027.JPEG
subject-06,1,436,0.615674018859863,bottle,chair,2-0-10,0436_eid_s06_2-0-10_chair_10_n04429376_24129.JPEG
subject-06,1,437,0.554210901260376,bear,bear,2-10-10,0437_eid_s06_2-10-10_bear_10_n02134418_851.JPEG
subject-06,1,438,0.507965087890625,clock,clock,1-10-10,0438_eid_s06_1-10-10_clock_10_n03196217_3352.JPEG
subject-06,1,439,0.562824010848999,airplane,airplane,16-10-10,0439_eid_s06_16-10-10_airplane_10_n02690373_12964.JPEG
subject-06,1,440,0.761132955551147,bicycle,chair,64-0-10,0440_eid_s06_64-0-10_chair_10_n04099969_16669.JPEG
subject-06,1,441,0.831876993179321,chair,chair,8-10-10,0441_eid_s06_8-10-10_chair_10_n02791124_4638.JPEG
subject-06,1,442,0.986276149749756,car,car,16-10-10,0442_eid_s06_16-10-10_car_10_n02814533_64961.JPEG
subject-06,1,443,0.6927330493927,bear,cat,8-3-10,0443_eid_s06_8-3-10_cat_10_n02123159_5170.JPEG
subject-06,1,444,0.830452919006348,bicycle,airplane,32-0-10,0444_eid_s06_32-0-10_airplane_10_n02690373_790.JPEG
subject-06,1,445,0.600814819335938,chair,chair,32-10-10,0445_eid_s06_32-10-10_chair_10_n02791124_4706.JPEG
subject-06,1,446,NaN,na,car,32-3-10,0446_eid_s06_32-3-10_car_10_n02814533_22922.JPEG
subject-06,1,447,0.656107902526855,bird,bird,4-3-10,0447_eid_s06_4-3-10_bird_10_n01531178_15380.JPEG
subject-06,1,448,0.610637187957764,clock,bird,16-0-10,0448_eid_s06_16-0-10_bird_10_n01622779_4040.JPEG
subject-06,1,449,0.626827955245972,bottle,oven,1-3-10,0449_eid_s06_1-3-10_oven_10_n04111531_8117.JPEG
subject-06,1,450,0.703616857528687,oven,dog,128-3-10,0450_eid_s06_128-3-10_dog_10_n02111277_50552.JPEG
subject-06,1,451,0.588113069534302,clock,boat,128-3-10,0451_eid_s06_128-3-10_boat_10_n03344393_8594.JPEG
subject-06,1,452,0.748393058776855,keyboard,keyboard,4-3-10,0452_eid_s06_4-3-10_keyboard_10_n03085013_22928.JPEG
subject-06,1,453,1.03479290008545,airplane,airplane,2-10-10,0453_eid_s06_2-10-10_airplane_10_n02690373_8711.JPEG
subject-06,1,454,0.911505937576294,bicycle,airplane,64-0-10,0454_eid_s06_64-0-10_airplane_10_n02690373_7107.JPEG
subject-06,1,455,0.657373189926147,cat,cat,4-10-10,0455_eid_s06_4-10-10_cat_10_n02123045_2397.JPEG
subject-06,1,456,0.449558973312378,bear,truck,128-3-10,0456_eid_s06_128-3-10_truck_10_n03417042_28419.JPEG
subject-06,1,457,0.812278985977173,airplane,airplane,4-0-10,0457_eid_s06_4-0-10_airplane_10_n02690373_891.JPEG
subject-06,1,458,0.896892070770264,keyboard,car,2-10-10,0458_eid_s06_2-10-10_car_10_n03100240_627.JPEG
subject-06,1,459,0.819389820098877,truck,truck,2-3-10,0459_eid_s06_2-3-10_truck_10_n04467665_4037.JPEG
subject-06,1,460,0.467842817306519,airplane,airplane,1-3-10,0460_eid_s06_1-3-10_airplane_10_n02690373_8872.JPEG
subject-06,1,461,0.736129999160767,truck,truck,1-3-10,0461_eid_s06_1-3-10_truck_10_n04467665_22557.JPEG
subject-06,1,462,0.720698833465576,knife,knife,2-3-10,0462_eid_s06_2-3-10_knife_10_n03041632_54191.JPEG
subject-06,1,463,0.669250965118408,keyboard,keyboard,4-3-10,0463_eid_s06_4-3-10_keyboard_10_n04505470_7721.JPEG
subject-06,1,464,0.813678979873657,bear,elephant,16-10-10,0464_eid_s06_16-10-10_elephant_10_n02504013_4880.JPEG
subject-06,1,465,0.938327074050903,bear,bear,1-0-10,0465_eid_s06_1-0-10_bear_10_n02132136_5429.JPEG
subject-06,1,466,0.706042051315308,truck,truck,2-3-10,0466_eid_s06_2-3-10_truck_10_n03796401_3787.JPEG
subject-06,1,467,0.630571126937866,boat,oven,64-3-10,0467_eid_s06_64-3-10_oven_10_n04111531_8309.JPEG
subject-06,1,468,0.685031890869141,car,car,4-3-10,0468_eid_s06_4-3-10_car_10_n03100240_1171.JPEG
subject-06,1,469,1.08313393592834,elephant,elephant,8-3-10,0469_eid_s06_8-3-10_elephant_10_n02504013_9144.JPEG
subject-06,1,470,0.66205883026123,car,car,1-3-10,0470_eid_s06_1-3-10_car_10_n03100240_23216.JPEG
subject-06,1,471,1.18440198898315,bird,clock,16-0-10,0471_eid_s06_16-0-10_clock_10_n04548280_3799.JPEG
subject-06,1,472,1.05493998527527,bear,oven,64-10-10,0472_eid_s06_64-10-10_oven_10_n04111531_10420.JPEG
subject-06,1,473,1.13172507286072,bird,dog,32-0-10,0473_eid_s06_32-0-10_dog_10_n02098105_1313.JPEG
subject-06,1,474,0.786201000213623,oven,elephant,64-10-10,0474_eid_s06_64-10-10_elephant_10_n02504013_7725.JPEG
subject-06,1,475,0.502609014511108,clock,clock,2-3-10,0475_eid_s06_2-3-10_clock_10_n04548280_4118.JPEG
subject-06,1,476,0.833303928375244,bear,dog,32-0-10,0476_eid_s06_32-0-10_dog_10_n02088364_11819.JPEG
subject-06,1,477,0.670475006103516,bicycle,bicycle,1-0-10,0477_eid_s06_1-0-10_bicycle_10_n02835271_13748.JPEG
subject-06,1,478,0.8228440284729,elephant,elephant,32-10-10,0478_eid_s06_32-10-10_elephant_10_n02504458_5826.JPEG
subject-06,1,479,0.555834054946899,boat,car,16-0-10,0479_eid_s06_16-0-10_car_10_n02814533_32802.JPEG
subject-06,1,480,1.20241498947144,cat,bicycle,8-0-10,0480_eid_s06_8-0-10_bicycle_10_n02835271_2317.JPEG
subject-06,1,481,0.792412042617798,bicycle,bicycle,8-3-10,0481_eid_s06_8-3-10_bicycle_10_n02835271_10551.JPEG
subject-06,1,482,0.478815078735352,bicycle,bicycle,1-10-10,0482_eid_s06_1-10-10_bicycle_10_n02835271_5152.JPEG
subject-06,1,483,0.709717988967896,truck,truck,1-0-10,0483_eid_s06_1-0-10_truck_10_n03417042_27988.JPEG
subject-06,1,484,0.664296865463257,cat,knife,32-0-10,0484_eid_s06_32-0-10_knife_10_n03041632_96345.JPEG
subject-06,1,485,0.564669132232666,cat,cat,4-0-10,0485_eid_s06_4-0-10_cat_10_n02123394_374.JPEG
subject-06,1,486,1.50007891654968,knife,knife,1-3-10,0486_eid_s06_1-3-10_knife_10_n03041632_3781.JPEG
subject-06,1,487,0.817528963088989,cat,bear,32-10-10,0487_eid_s06_32-10-10_bear_10_n02134084_7315.JPEG
subject-06,1,488,0.763982057571411,cat,cat,1-0-10,0488_eid_s06_1-0-10_cat_10_n02125311_57715.JPEG
subject-06,1,489,0.810703992843628,bottle,bottle,2-3-10,0489_eid_s06_2-3-10_bottle_10_n04560804_456.JPEG
subject-06,1,490,0.934849977493286,dog,airplane,128-0-10,0490_eid_s06_128-0-10_airplane_10_n02690373_18295.JPEG
subject-06,1,491,0.816065073013306,dog,clock,128-0-10,0491_eid_s06_128-0-10_clock_10_n02708093_1733.JPEG
subject-06,1,492,0.762781143188477,dog,knife,32-0-10,0492_eid_s06_32-0-10_knife_10_n03041632_50332.JPEG
subject-06,1,493,0.703212022781372,bicycle,airplane,128-0-10,0493_eid_s06_128-0-10_airplane_10_n02690373_8539.JPEG
subject-06,1,494,1.00991415977478,bottle,bottle,16-0-10,0494_eid_s06_16-0-10_bottle_10_n04591713_2322.JPEG
subject-06,1,495,0.788260936737061,bottle,bear,8-10-10,0495_eid_s06_8-10-10_bear_10_n02133161_12751.JPEG
subject-06,1,496,0.950776815414429,clock,clock,8-3-10,0496_eid_s06_8-3-10_clock_10_n03196217_10424.JPEG
subject-06,1,497,0.851161956787109,keyboard,chair,1-3-10,0497_eid_s06_1-3-10_chair_10_n03376595_9054.JPEG
subject-06,1,498,0.605474948883057,knife,knife,8-10-10,0498_eid_s06_8-10-10_knife_10_n03041632_24181.JPEG
subject-06,1,499,0.544291973114014,bear,clock,128-0-10,0499_eid_s06_128-0-10_clock_10_n04548280_821.JPEG
subject-06,1,500,0.606451988220215,cat,bottle,64-10-10,0500_eid_s06_64-10-10_bottle_10_n04591713_2042.JPEG
subject-06,1,501,0.707274198532104,airplane,airplane,32-3-10,0501_eid_s06_32-3-10_airplane_10_n02690373_8252.JPEG
subject-06,1,502,0.776004076004028,bird,bird,8-3-10,0502_eid_s06_8-3-10_bird_10_n01860187_4261.JPEG
subject-06,1,503,0.632536172866821,car,car,2-0-10,0503_eid_s06_2-0-10_car_10_n04285008_15604.JPEG
subject-06,1,504,0.571316957473755,car,car,32-10-10,0504_eid_s06_32-10-10_car_10_n02814533_44587.JPEG
subject-06,1,505,0.463634967803955,cat,cat,1-0-10,0505_eid_s06_1-0-10_cat_10_n02123597_26761.JPEG
subject-06,1,506,0.542598009109497,car,car,16-3-10,0506_eid_s06_16-3-10_car_10_n02814533_9194.JPEG
subject-06,1,507,0.902732133865356,bottle,oven,64-10-10,0507_eid_s06_64-10-10_oven_10_n04111531_14766.JPEG
subject-06,1,508,0.535045862197876,cat,truck,64-0-10,0508_eid_s06_64-0-10_truck_10_n03417042_12019.JPEG
subject-06,1,509,0.649808168411255,car,car,8-0-10,0509_eid_s06_8-0-10_car_10_n03100240_24420.JPEG
subject-06,1,510,0.74226713180542,bottle,bottle,2-10-10,0510_eid_s06_2-10-10_bottle_10_n02823428_14205.JPEG
subject-06,1,511,0.6126868724823,cat,cat,1-10-10,0511_eid_s06_1-10-10_cat_10_n02123045_2330.JPEG
subject-06,1,512,0.743366003036499,bicycle,dog,32-10-10,0512_eid_s06_32-10-10_dog_10_n02097130_2713.JPEG
subject-06,1,513,0.722697973251343,cat,elephant,2-3-10,0513_eid_s06_2-3-10_elephant_10_n02504458_5050.JPEG
subject-06,1,514,0.628354072570801,keyboard,car,16-10-10,0514_eid_s06_16-10-10_car_10_n02814533_51701.JPEG
subject-06,1,515,0.590131044387817,clock,clock,1-0-10,0515_eid_s06_1-0-10_clock_10_n04548280_1298.JPEG
subject-06,1,516,0.452759027481079,cat,bear,16-3-10,0516_eid_s06_16-3-10_bear_10_n02133161_891.JPEG
subject-06,1,517,NaN,na,keyboard,128-3-10,0517_eid_s06_128-3-10_keyboard_10_n03085013_3595.JPEG
subject-06,1,518,0.583531856536865,clock,chair,2-3-10,0518_eid_s06_2-3-10_chair_10_n04429376_16091.JPEG
subject-06,1,519,0.906175136566162,knife,oven,4-0-10,0519_eid_s06_4-0-10_oven_10_n04111531_1798.JPEG
subject-06,1,520,1.3526918888092,elephant,elephant,1-10-10,0520_eid_s06_1-10-10_elephant_10_n02504013_1740.JPEG
subject-06,1,521,0.60735297203064,bird,dog,16-0-10,0521_eid_s06_16-0-10_dog_10_n02099712_1449.JPEG
subject-06,1,522,0.783898115158081,chair,chair,8-10-10,0522_eid_s06_8-10-10_chair_10_n04099969_64.JPEG
subject-06,1,523,0.646030902862549,bicycle,bicycle,4-0-10,0523_eid_s06_4-0-10_bicycle_10_n03792782_485.JPEG
subject-06,1,524,0.53889799118042,chair,chair,16-10-10,0524_eid_s06_16-10-10_chair_10_n03376595_8520.JPEG
subject-06,1,525,0.425220966339111,cat,oven,32-3-10,0525_eid_s06_32-3-10_oven_10_n04111531_1828.JPEG
subject-06,1,526,0.577670097351074,cat,bird,16-3-10,0526_eid_s06_16-3-10_bird_10_n01796340_3861.JPEG
subject-06,1,527,0.978271007537842,bear,elephant,32-10-10,0527_eid_s06_32-10-10_elephant_10_n02504458_2419.JPEG
subject-06,1,528,0.632718801498413,keyboard,clock,64-0-10,0528_eid_s06_64-0-10_clock_10_n03196217_3267.JPEG
subject-06,1,529,0.51271915435791,truck,truck,1-3-10,0529_eid_s06_1-3-10_truck_10_n03796401_26359.JPEG
subject-06,1,530,0.713268995285034,bicycle,bicycle,8-0-10,0530_eid_s06_8-0-10_bicycle_10_n03792782_20889.JPEG
subject-06,1,531,1.05987906455994,elephant,elephant,2-10-10,0531_eid_s06_2-10-10_elephant_10_n02504458_825.JPEG
subject-06,1,532,0.514423847198486,bird,bird,8-0-10,0532_eid_s06_8-0-10_bird_10_n01560419_5623.JPEG
subject-06,1,533,0.583992958068848,keyboard,keyboard,2-0-10,0533_eid_s06_2-0-10_keyboard_10_n04505470_3875.JPEG
subject-06,1,534,0.706699132919312,bicycle,bird,8-3-10,0534_eid_s06_8-3-10_bird_10_n01829413_4822.JPEG
subject-06,1,535,0.791358947753906,bear,bear,16-10-10,0535_eid_s06_16-10-10_bear_10_n02134418_2878.JPEG
subject-06,1,536,0.439965009689331,cat,oven,32-0-10,0536_eid_s06_32-0-10_oven_10_n04111531_6508.JPEG
subject-06,1,537,1.23008394241333,dog,dog,4-0-10,0537_eid_s06_4-0-10_dog_10_n02088364_12367.JPEG
subject-06,1,538,0.800182104110718,airplane,airplane,2-3-10,0538_eid_s06_2-3-10_airplane_10_n02690373_462.JPEG
subject-06,1,539,0.64692497253418,boat,car,32-0-10,0539_eid_s06_32-0-10_car_10_n03100240_14200.JPEG
subject-06,1,540,0.693274021148682,bicycle,bear,32-3-10,0540_eid_s06_32-3-10_bear_10_n02134084_14260.JPEG
subject-06,1,541,0.799753904342651,bear,bear,1-3-10,0541_eid_s06_1-3-10_bear_10_n02134418_4662.JPEG
subject-06,1,542,0.908344030380249,elephant,elephant,32-0-10,0542_eid_s06_32-0-10_elephant_10_n02504013_26543.JPEG
subject-06,1,543,0.594953775405884,cat,bird,32-10-10,0543_eid_s06_32-10-10_bird_10_n01616318_4451.JPEG
subject-06,1,544,0.833340883255005,car,car,8-10-10,0544_eid_s06_8-10-10_car_10_n02814533_5110.JPEG
subject-06,1,545,1.00162482261658,bicycle,elephant,32-3-10,0545_eid_s06_32-3-10_elephant_10_n02504013_18005.JPEG
subject-06,1,546,0.618217945098877,keyboard,keyboard,8-10-10,0546_eid_s06_8-10-10_keyboard_10_n04505470_2358.JPEG
subject-06,1,547,0.586855888366699,airplane,airplane,1-0-10,0547_eid_s06_1-0-10_airplane_10_n02690373_8382.JPEG
subject-06,1,548,0.895627975463867,bottle,keyboard,8-0-10,0548_eid_s06_8-0-10_keyboard_10_n03085013_15081.JPEG
subject-06,1,549,0.635914087295532,chair,chair,4-0-10,0549_eid_s06_4-0-10_chair_10_n03376595_6107.JPEG
subject-06,1,550,0.542654991149902,bear,dog,4-0-10,0550_eid_s06_4-0-10_dog_10_n02104365_4330.JPEG
subject-06,1,551,0.580530881881714,truck,truck,2-0-10,0551_eid_s06_2-0-10_truck_10_n03796401_94.JPEG
subject-06,1,552,0.634963989257812,airplane,airplane,1-0-10,0552_eid_s06_1-0-10_airplane_10_n02690373_10399.JPEG
subject-06,1,553,0.597508907318115,chair,chair,16-10-10,0553_eid_s06_16-10-10_chair_10_n04099969_48432.JPEG
subject-06,1,554,0.589795112609863,airplane,boat,16-0-10,0554_eid_s06_16-0-10_boat_10_n04273569_6195.JPEG
subject-06,1,555,0.636645078659058,keyboard,keyboard,1-3-10,0555_eid_s06_1-3-10_keyboard_10_n03085013_22713.JPEG
subject-06,1,556,0.874736070632935,elephant,bird,16-0-10,0556_eid_s06_16-0-10_bird_10_n02037110_523.JPEG
subject-06,1,557,0.767446994781494,bottle,bottle,16-3-10,0557_eid_s06_16-3-10_bottle_10_n03983396_3675.JPEG
subject-06,1,558,0.652075052261353,bicycle,bottle,128-3-10,0558_eid_s06_128-3-10_bottle_10_n04560804_25348.JPEG
subject-06,1,559,0.698334932327271,cat,car,16-0-10,0559_eid_s06_16-0-10_car_10_n03100240_16570.JPEG
subject-06,1,560,0.936929941177368,elephant,elephant,1-10-10,0560_eid_s06_1-10-10_elephant_10_n02504013_1647.JPEG
subject-06,1,561,0.737473964691162,clock,clock,1-3-10,0561_eid_s06_1-3-10_clock_10_n03196217_4309.JPEG
subject-06,1,562,0.699874877929688,knife,bear,64-0-10,0562_eid_s06_64-0-10_bear_10_n02134418_10576.JPEG
subject-06,1,563,0.892278909683228,bear,bear,2-10-10,0563_eid_s06_2-10-10_bear_10_n02134084_3795.JPEG
subject-06,1,564,0.554826021194458,clock,chair,128-0-10,0564_eid_s06_128-0-10_chair_10_n03376595_14378.JPEG
subject-06,1,565,0.914723873138428,car,car,2-0-10,0565_eid_s06_2-0-10_car_10_n03100240_9454.JPEG
subject-06,1,566,0.677528142929077,oven,car,16-0-10,0566_eid_s06_16-0-10_car_10_n04285008_8784.JPEG
subject-06,1,567,0.707664012908936,knife,bottle,32-0-10,0567_eid_s06_32-0-10_bottle_10_n04560804_6272.JPEG
subject-06,1,568,0.800096988677979,knife,knife,8-3-10,0568_eid_s06_8-3-10_knife_10_n03041632_82878.JPEG
subject-06,1,569,0.754801988601685,knife,knife,1-3-10,0569_eid_s06_1-3-10_knife_10_n03041632_30553.JPEG
subject-06,1,570,0.485389947891235,bicycle,bicycle,1-0-10,0570_eid_s06_1-0-10_bicycle_10_n02835271_790.JPEG
subject-06,1,571,0.601805925369263,cat,car,32-3-10,0571_eid_s06_32-3-10_car_10_n04285008_13642.JPEG
subject-06,1,572,0.924244165420532,bear,dog,128-10-10,0572_eid_s06_128-10-10_dog_10_n02090622_10486.JPEG
subject-06,1,573,0.853518009185791,oven,oven,2-0-10,0573_eid_s06_2-0-10_oven_10_n04111531_136.JPEG
subject-06,1,574,0.770118951797485,bottle,cat,32-0-10,0574_eid_s06_32-0-10_cat_10_n02124075_646.JPEG
subject-06,1,575,0.508765935897827,keyboard,keyboard,1-0-10,0575_eid_s06_1-0-10_keyboard_10_n04505470_4422.JPEG
subject-06,1,576,0.685092926025391,keyboard,keyboard,1-0-10,0576_eid_s06_1-0-10_keyboard_10_n03085013_8677.JPEG
subject-06,1,577,0.970066070556641,elephant,elephant,16-10-10,0577_eid_s06_16-10-10_elephant_10_n02504013_242.JPEG
subject-06,1,578,0.700445890426636,bottle,bottle,4-0-10,0578_eid_s06_4-0-10_bottle_10_n04579145_1135.JPEG
subject-06,1,579,0.578536033630371,bicycle,bottle,128-3-10,0579_eid_s06_128-3-10_bottle_10_n04591713_4904.JPEG
subject-06,1,580,0.601720094680786,cat,airplane,64-0-10,0580_eid_s06_64-0-10_airplane_10_n02690373_15097.JPEG
subject-06,1,581,1.20204210281372,knife,oven,32-10-10,0581_eid_s06_32-10-10_oven_10_n04111531_190.JPEG
subject-06,1,582,1.12457990646362,bicycle,clock,64-0-10,0582_eid_s06_64-0-10_clock_10_n04548280_8083.JPEG
subject-06,1,583,0.610769033432007,bottle,boat,8-3-10,0583_eid_s06_8-3-10_boat_10_n03344393_5054.JPEG
subject-06,1,584,0.795427799224854,bicycle,airplane,64-0-10,0584_eid_s06_64-0-10_airplane_10_n02690373_3407.JPEG
subject-06,1,585,1.49369788169861,clock,bicycle,4-0-10,0585_eid_s06_4-0-10_bicycle_10_n02835271_8498.JPEG
subject-06,1,586,0.955331087112427,cat,dog,8-3-10,0586_eid_s06_8-3-10_dog_10_n02095570_4824.JPEG
subject-06,1,587,NaN,na,chair,64-10-10,0587_eid_s06_64-10-10_chair_10_n03376595_9986.JPEG
subject-06,1,588,1.07084107398987,boat,keyboard,8-10-10,0588_eid_s06_8-10-10_keyboard_10_n03085013_24793.JPEG
subject-06,1,589,0.671219110488892,bird,bird,1-10-10,0589_eid_s06_1-10-10_bird_10_n02018795_229.JPEG
subject-06,1,590,1.08009004592896,bear,dog,32-3-10,0590_eid_s06_32-3-10_dog_10_n02100583_706.JPEG
subject-06,1,591,0.602622032165527,keyboard,keyboard,2-0-10,0591_eid_s06_2-0-10_keyboard_10_n03085013_914.JPEG
subject-06,1,592,0.703319072723389,airplane,airplane,1-10-10,0592_eid_s06_1-10-10_airplane_10_n02690373_5238.JPEG
subject-06,1,593,0.473459005355835,cat,keyboard,64-10-10,0593_eid_s06_64-10-10_keyboard_10_n03085013_18851.JPEG
subject-06,1,594,0.742208957672119,truck,truck,8-10-10,0594_eid_s06_8-10-10_truck_10_n03796401_21335.JPEG
subject-06,1,595,0.588738203048706,cat,cat,4-3-10,0595_eid_s06_4-3-10_cat_10_n02125311_34869.JPEG
subject-06,1,596,0.696976900100708,cat,oven,8-3-10,0596_eid_s06_8-3-10_oven_10_n04111531_3976.JPEG
subject-06,1,597,0.51978611946106,airplane,airplane,8-0-10,0597_eid_s06_8-0-10_airplane_10_n02690373_9529.JPEG
subject-06,1,598,0.544151067733765,cat,oven,64-10-10,0598_eid_s06_64-10-10_oven_10_n04111531_9178.JPEG
subject-06,1,599,0.788728952407837,clock,clock,2-10-10,0599_eid_s06_2-10-10_clock_10_n02708093_1539.JPEG
subject-06,1,600,1.48943591117859,chair,bottle,4-3-10,0600_eid_s06_4-3-10_bottle_10_n04579145_5587.JPEG
subject-06,1,601,0.59775710105896,oven,oven,2-10-10,0601_eid_s06_2-10-10_oven_10_n04111531_10465.JPEG
subject-06,1,602,0.620627880096436,chair,chair,16-10-10,0602_eid_s06_16-10-10_chair_10_n02791124_295.JPEG
subject-06,1,603,1.03703808784485,bird,bear,2-0-10,0603_eid_s06_2-0-10_bear_10_n02133161_8200.JPEG
subject-06,1,604,0.597609043121338,cat,elephant,32-3-10,0604_eid_s06_32-3-10_elephant_10_n02504013_2085.JPEG
subject-06,1,605,1.22182488441467,knife,oven,2-0-10,0605_eid_s06_2-0-10_oven_10_n04111531_13820.JPEG
subject-06,1,606,0.790838956832886,elephant,elephant,1-0-10,0606_eid_s06_1-0-10_elephant_10_n02504013_130.JPEG
subject-06,1,607,0.653303146362305,bicycle,cat,64-0-10,0607_eid_s06_64-0-10_cat_10_n02124075_9501.JPEG
subject-06,1,608,0.469765186309814,cat,clock,32-0-10,0608_eid_s06_32-0-10_clock_10_n04548280_2062.JPEG
subject-06,1,609,0.868383884429932,oven,bear,16-3-10,0609_eid_s06_16-3-10_bear_10_n02132136_860.JPEG
subject-06,1,610,0.56875205039978,bottle,bottle,4-0-10,0610_eid_s06_4-0-10_bottle_10_n04560804_8116.JPEG
subject-06,1,611,0.501296043395996,cat,cat,8-10-10,0611_eid_s06_8-10-10_cat_10_n02123045_10893.JPEG
subject-06,1,612,0.853994846343994,truck,truck,1-0-10,0612_eid_s06_1-0-10_truck_10_n04467665_12311.JPEG
subject-06,1,613,NaN,na,knife,128-0-10,0613_eid_s06_128-0-10_knife_10_n03041632_11797.JPEG
subject-06,1,614,0.754653930664062,bear,bear,16-0-10,0614_eid_s06_16-0-10_bear_10_n02134084_6286.JPEG
subject-06,1,615,0.663513898849487,bottle,knife,4-3-10,0615_eid_s06_4-3-10_knife_10_n03041632_14916.JPEG
subject-06,1,616,0.963665008544922,truck,truck,2-0-10,0616_eid_s06_2-0-10_truck_10_n04467665_30461.JPEG
subject-06,1,617,0.940485000610352,boat,boat,1-10-10,0617_eid_s06_1-10-10_boat_10_n03344393_2968.JPEG
subject-06,1,618,0.754868984222412,cat,bottle,16-0-10,0618_eid_s06_16-0-10_bottle_10_n04579145_7117.JPEG
subject-06,1,619,NaN,na,bicycle,32-3-10,0619_eid_s06_32-3-10_bicycle_10_n02835271_14225.JPEG
subject-06,1,620,0.74201488494873,bear,elephant,16-10-10,0620_eid_s06_16-10-10_elephant_10_n02504013_24810.JPEG
subject-06,1,621,0.864910125732422,cat,bicycle,128-10-10,0621_eid_s06_128-10-10_bicycle_10_n02835271_9531.JPEG
subject-06,1,622,1.14930391311646,bird,bird,4-10-10,0622_eid_s06_4-10-10_bird_10_n02013706_7804.JPEG
subject-06,1,623,0.527913808822632,chair,chair,1-0-10,0623_eid_s06_1-0-10_chair_10_n03376595_10266.JPEG
subject-06,1,624,0.496733903884888,boat,boat,2-10-10,0624_eid_s06_2-10-10_boat_10_n03662601_15989.JPEG
subject-06,1,625,0.789346933364868,keyboard,dog,64-10-10,0625_eid_s06_64-10-10_dog_10_n02100735_2071.JPEG
subject-06,1,626,0.659918069839478,truck,truck,1-10-10,0626_eid_s06_1-10-10_truck_10_n03796401_5044.JPEG
subject-06,1,627,0.597870826721191,cat,cat,8-0-10,0627_eid_s06_8-0-10_cat_10_n02123394_4630.JPEG
subject-06,1,628,0.552565097808838,bicycle,truck,32-0-10,0628_eid_s06_32-0-10_truck_10_n03796401_22159.JPEG
subject-06,1,629,1.38903403282166,dog,dog,32-3-10,0629_eid_s06_32-3-10_dog_10_n02097658_5449.JPEG
subject-06,1,630,0.864339828491211,bicycle,truck,32-3-10,0630_eid_s06_32-3-10_truck_10_n04467665_40307.JPEG
subject-06,1,631,0.627140998840332,clock,clock,128-0-10,0631_eid_s06_128-0-10_clock_10_n04548280_286.JPEG
subject-06,1,632,0.369329929351807,oven,knife,64-0-10,0632_eid_s06_64-0-10_knife_10_n03041632_23667.JPEG
subject-06,1,633,0.524097919464111,clock,clock,2-0-10,0633_eid_s06_2-0-10_clock_10_n04548280_3330.JPEG
subject-06,1,634,0.67066502571106,cat,oven,16-0-10,0634_eid_s06_16-0-10_oven_10_n04111531_10336.JPEG
subject-06,1,635,0.633223056793213,keyboard,keyboard,8-10-10,0635_eid_s06_8-10-10_keyboard_10_n04505470_4575.JPEG
subject-06,1,636,0.663849115371704,chair,bottle,128-3-10,0636_eid_s06_128-3-10_bottle_10_n04591713_8058.JPEG
subject-06,1,637,1.08628582954407,keyboard,keyboard,2-3-10,0637_eid_s06_2-3-10_keyboard_10_n03085013_18945.JPEG
subject-06,1,638,0.632627010345459,bear,bear,8-3-10,0638_eid_s06_8-3-10_bear_10_n02133161_7612.JPEG
subject-06,1,639,0.541067838668823,keyboard,keyboard,16-3-10,0639_eid_s06_16-3-10_keyboard_10_n04505470_3261.JPEG
subject-06,1,640,0.587752103805542,dog,dog,1-3-10,0640_eid_s06_1-3-10_dog_10_n02106166_8122.JPEG
subject-06,1,641,0.584871053695679,oven,oven,1-10-10,0641_eid_s06_1-10-10_oven_10_n04111531_9939.JPEG
subject-06,1,642,0.54722785949707,car,car,4-10-10,0642_eid_s06_4-10-10_car_10_n03100240_3040.JPEG
subject-06,1,643,0.862165927886963,elephant,elephant,32-10-10,0643_eid_s06_32-10-10_elephant_10_n02504458_3912.JPEG
subject-06,1,644,0.770549058914185,bicycle,bicycle,64-0-10,0644_eid_s06_64-0-10_bicycle_10_n02835271_24498.JPEG
subject-06,1,645,0.671306133270264,airplane,airplane,8-3-10,0645_eid_s06_8-3-10_airplane_10_n02690373_7647.JPEG
subject-06,1,646,0.62590217590332,cat,bicycle,128-10-10,0646_eid_s06_128-10-10_bicycle_10_n02835271_31431.JPEG
subject-06,1,647,0.518460035324097,airplane,airplane,8-0-10,0647_eid_s06_8-0-10_airplane_10_n02690373_6114.JPEG
subject-06,1,648,0.91080904006958,cat,knife,16-0-10,0648_eid_s06_16-0-10_knife_10_n03041632_5727.JPEG
subject-06,1,649,0.673605918884277,chair,bicycle,8-0-10,0649_eid_s06_8-0-10_bicycle_10_n03792782_37236.JPEG
subject-06,1,650,0.595808982849121,bicycle,car,64-3-10,0650_eid_s06_64-3-10_car_10_n02814533_26880.JPEG
subject-06,1,651,0.50465989112854,car,car,4-10-10,0651_eid_s06_4-10-10_car_10_n02814533_7028.JPEG
subject-06,1,652,0.56489896774292,cat,bottle,16-0-10,0652_eid_s06_16-0-10_bottle_10_n04591713_7528.JPEG
subject-06,1,653,0.835405111312866,cat,oven,2-0-10,0653_eid_s06_2-0-10_oven_10_n04111531_8852.JPEG
subject-06,1,654,0.749961137771606,dog,oven,128-10-10,0654_eid_s06_128-10-10_oven_10_n04111531_2074.JPEG
subject-06,1,655,0.820276975631714,bear,bear,2-3-10,0655_eid_s06_2-3-10_bear_10_n02134084_17296.JPEG
subject-06,1,656,0.964882135391235,bicycle,keyboard,32-0-10,0656_eid_s06_32-0-10_keyboard_10_n04505470_10242.JPEG
subject-06,1,657,1.18163800239563,car,clock,8-0-10,0657_eid_s06_8-0-10_clock_10_n04548280_7800.JPEG
subject-06,1,658,0.574107885360718,oven,car,64-3-10,0658_eid_s06_64-3-10_car_10_n04285008_3743.JPEG
subject-06,1,659,1.11263608932495,cat,bird,8-10-10,0659_eid_s06_8-10-10_bird_10_n01616318_875.JPEG
subject-06,1,660,0.613156080245972,bird,bird,4-3-10,0660_eid_s06_4-3-10_bird_10_n01558993_2024.JPEG
subject-06,1,661,0.760042190551758,bottle,bottle,2-3-10,0661_eid_s06_2-3-10_bottle_10_n02823428_4058.JPEG
subject-06,1,662,0.776166915893555,oven,oven,4-10-10,0662_eid_s06_4-10-10_oven_10_n04111531_1073.JPEG
subject-06,1,663,0.79870080947876,bottle,chair,128-0-10,0663_eid_s06_128-0-10_chair_10_n03376595_5294.JPEG
subject-06,1,664,0.529444932937622,boat,boat,4-3-10,0664_eid_s06_4-3-10_boat_10_n03344393_7459.JPEG
subject-06,1,665,0.997886896133423,knife,knife,2-10-10,0665_eid_s06_2-10-10_knife_10_n03041632_32459.JPEG
subject-06,1,666,0.484379053115845,bottle,bottle,4-0-10,0666_eid_s06_4-0-10_bottle_10_n04557648_1375.JPEG
subject-06,1,667,0.520772933959961,boat,cat,128-0-10,0667_eid_s06_128-0-10_cat_10_n02123159_5678.JPEG
subject-06,1,668,0.545364856719971,bicycle,bicycle,1-3-10,0668_eid_s06_1-3-10_bicycle_10_n03792782_51156.JPEG
subject-06,1,669,0.843603849411011,car,dog,32-3-10,0669_eid_s06_32-3-10_dog_10_n02091032_11350.JPEG
subject-06,1,670,0.463356018066406,oven,truck,64-10-10,0670_eid_s06_64-10-10_truck_10_n03417042_22845.JPEG
subject-06,1,671,0.569936037063599,bicycle,clock,32-3-10,0671_eid_s06_32-3-10_clock_10_n04548280_8656.JPEG
subject-06,1,672,0.716431856155396,bear,elephant,1-10-10,0672_eid_s06_1-10-10_elephant_10_n02504458_8080.JPEG
subject-06,1,673,0.546795845031738,bear,bear,1-0-10,0673_eid_s06_1-0-10_bear_10_n02134084_5903.JPEG
subject-06,1,674,0.855273962020874,airplane,knife,32-3-10,0674_eid_s06_32-3-10_knife_10_n03041632_46112.JPEG
subject-06,1,675,0.801910877227783,airplane,knife,1-10-10,0675_eid_s06_1-10-10_knife_10_n03041632_48816.JPEG
subject-06,1,676,0.970283985137939,bicycle,bicycle,32-10-10,0676_eid_s06_32-10-10_bicycle_10_n03792782_13074.JPEG
subject-06,1,677,0.932945966720581,airplane,airplane,8-3-10,0677_eid_s06_8-3-10_airplane_10_n02690373_1797.JPEG
subject-06,1,678,0.809240102767944,bicycle,truck,128-3-10,0678_eid_s06_128-3-10_truck_10_n03796401_7487.JPEG
subject-06,1,679,0.932284116744995,dog,boat,32-10-10,0679_eid_s06_32-10-10_boat_10_n02951358_5643.JPEG
subject-06,1,680,0.841015100479126,knife,truck,16-10-10,0680_eid_s06_16-10-10_truck_10_n03417042_8996.JPEG
subject-06,1,681,0.765717029571533,cat,clock,32-3-10,0681_eid_s06_32-3-10_clock_10_n03196217_1850.JPEG
subject-06,1,682,0.511933088302612,clock,clock,1-0-10,0682_eid_s06_1-0-10_clock_10_n03196217_7663.JPEG
subject-06,1,683,0.626690864562988,oven,oven,16-0-10,0683_eid_s06_16-0-10_oven_10_n04111531_605.JPEG
subject-06,1,684,0.811094999313354,bicycle,bicycle,32-0-10,0684_eid_s06_32-0-10_bicycle_10_n03792782_18665.JPEG
subject-06,1,685,0.619479894638062,oven,oven,32-0-10,0685_eid_s06_32-0-10_oven_10_n04111531_9429.JPEG
subject-06,1,686,1.04228806495667,elephant,elephant,1-10-10,0686_eid_s06_1-10-10_elephant_10_n02504013_4295.JPEG
subject-06,1,687,0.78913688659668,truck,truck,4-0-10,0687_eid_s06_4-0-10_truck_10_n03796401_2934.JPEG
subject-06,1,688,0.667440891265869,knife,cat,1-3-10,0688_eid_s06_1-3-10_cat_10_n02123597_6778.JPEG
subject-06,1,689,0.789955854415894,oven,car,128-3-10,0689_eid_s06_128-3-10_car_10_n02814533_4768.JPEG
subject-06,1,690,1.23223185539246,boat,chair,2-10-10,0690_eid_s06_2-10-10_chair_10_n04429376_25110.JPEG
subject-06,1,691,0.778628826141357,elephant,elephant,1-3-10,0691_eid_s06_1-3-10_elephant_10_n02504458_6314.JPEG
subject-06,1,692,0.525119066238403,cat,dog,64-3-10,0692_eid_s06_64-3-10_dog_10_n02102480_2192.JPEG
subject-06,1,693,0.647290945053101,clock,clock,1-10-10,0693_eid_s06_1-10-10_clock_10_n04548280_3292.JPEG
subject-06,1,694,0.778126001358032,bear,bear,1-0-10,0694_eid_s06_1-0-10_bear_10_n02133161_522.JPEG
subject-06,1,695,1.35701608657837,boat,truck,128-10-10,0695_eid_s06_128-10-10_truck_10_n03796401_23811.JPEG
subject-06,1,696,0.557365894317627,keyboard,oven,4-3-10,0696_eid_s06_4-3-10_oven_10_n04111531_12903.JPEG
subject-06,1,697,1.21007895469666,clock,chair,16-3-10,0697_eid_s06_16-3-10_chair_10_n04099969_12099.JPEG
subject-06,1,698,0.458818197250366,bicycle,keyboard,128-0-10,0698_eid_s06_128-0-10_keyboard_10_n03085013_24362.JPEG
subject-06,1,699,0.519323110580444,car,car,1-3-10,0699_eid_s06_1-3-10_car_10_n03100240_8588.JPEG
subject-06,1,700,0.595709085464478,bear,truck,64-0-10,0700_eid_s06_64-0-10_truck_10_n03796401_2354.JPEG
subject-06,1,701,0.830093860626221,boat,boat,4-3-10,0701_eid_s06_4-3-10_boat_10_n04273569_1728.JPEG
subject-06,1,702,1.08470702171326,airplane,cat,64-3-10,0702_eid_s06_64-3-10_cat_10_n02124075_12634.JPEG
subject-06,1,703,1.13943004608154,elephant,elephant,2-10-10,0703_eid_s06_2-10-10_elephant_10_n02504013_1577.JPEG
subject-06,1,704,0.753583908081055,truck,bird,32-10-10,0704_eid_s06_32-10-10_bird_10_n01614925_18061.JPEG
subject-06,1,705,1.11418104171753,knife,boat,128-0-10,0705_eid_s06_128-0-10_boat_10_n04273569_6146.JPEG
subject-06,1,706,0.69254207611084,boat,boat,64-0-10,0706_eid_s06_64-0-10_boat_10_n04612504_5105.JPEG
subject-06,1,707,0.760977029800415,knife,clock,8-3-10,0707_eid_s06_8-3-10_clock_10_n04548280_5278.JPEG
subject-06,1,708,1.15377306938171,airplane,cat,64-10-10,0708_eid_s06_64-10-10_cat_10_n02123159_6560.JPEG
subject-06,1,709,0.716044902801514,keyboard,keyboard,4-0-10,0709_eid_s06_4-0-10_keyboard_10_n04505470_4603.JPEG
subject-06,1,710,0.722543001174927,bottle,cat,64-3-10,0710_eid_s06_64-3-10_cat_10_n02123045_1329.JPEG
subject-06,1,711,0.606997013092041,cat,knife,32-3-10,0711_eid_s06_32-3-10_knife_10_n03041632_10140.JPEG
subject-06,1,712,0.799903869628906,car,oven,128-10-10,0712_eid_s06_128-10-10_oven_10_n04111531_13101.JPEG
subject-06,1,713,0.816609144210815,bear,oven,16-0-10,0713_eid_s06_16-0-10_oven_10_n04111531_1580.JPEG
subject-06,1,714,1.21495294570923,bottle,chair,64-3-10,0714_eid_s06_64-3-10_chair_10_n04429376_8237.JPEG
subject-06,1,715,0.785290956497192,airplane,airplane,4-10-10,0715_eid_s06_4-10-10_airplane_10_n02690373_5870.JPEG
subject-06,1,716,0.601783990859985,airplane,airplane,1-10-10,0716_eid_s06_1-10-10_airplane_10_n02690373_6492.JPEG
subject-06,1,717,0.600399971008301,knife,bicycle,4-0-10,0717_eid_s06_4-0-10_bicycle_10_n03792782_5030.JPEG
subject-06,1,718,0.563164949417114,bird,bird,2-3-10,0718_eid_s06_2-3-10_bird_10_n01560419_18321.JPEG
subject-06,1,719,0.663508892059326,airplane,elephant,64-0-10,0719_eid_s06_64-0-10_elephant_10_n02504458_4314.JPEG
subject-06,1,720,0.731729984283447,chair,oven,64-3-10,0720_eid_s06_64-3-10_oven_10_n04111531_6080.JPEG
subject-06,1,721,0.716568946838379,bicycle,car,64-0-10,0721_eid_s06_64-0-10_car_10_n02814533_74869.JPEG
subject-06,1,722,0.938717842102051,car,oven,64-0-10,0722_eid_s06_64-0-10_oven_10_n04111531_9831.JPEG
subject-06,1,723,0.901437044143677,cat,bird,128-10-10,0723_eid_s06_128-10-10_bird_10_n01828970_11122.JPEG
subject-06,1,724,0.723735809326172,knife,knife,64-10-10,0724_eid_s06_64-10-10_knife_10_n03041632_36907.JPEG
subject-06,1,725,0.81653904914856,clock,airplane,16-0-10,0725_eid_s06_16-0-10_airplane_10_n02690373_4029.JPEG
subject-06,1,726,0.685003995895386,car,car,2-3-10,0726_eid_s06_2-3-10_car_10_n03100240_20489.JPEG
subject-06,1,727,0.707314968109131,bicycle,cat,128-0-10,0727_eid_s06_128-0-10_cat_10_n02123597_13229.JPEG
subject-06,1,728,0.846181869506836,bird,bird,1-3-10,0728_eid_s06_1-3-10_bird_10_n01514859_8995.JPEG
subject-06,1,729,0.714890956878662,bottle,keyboard,128-0-10,0729_eid_s06_128-0-10_keyboard_10_n04505470_10859.JPEG
subject-06,1,730,1.08302307128906,bottle,bottle,2-0-10,0730_eid_s06_2-0-10_bottle_10_n03937543_1933.JPEG
subject-06,1,731,0.916128158569336,knife,knife,2-10-10,0731_eid_s06_2-10-10_knife_10_n03041632_44019.JPEG
subject-06,1,732,0.692520141601562,airplane,bird,4-3-10,0732_eid_s06_4-3-10_bird_10_n01614925_15477.JPEG
subject-06,1,733,1.00709104537964,dog,dog,1-0-10,0733_eid_s06_1-0-10_dog_10_n02108422_10917.JPEG
subject-06,1,734,0.86141300201416,elephant,dog,16-0-10,0734_eid_s06_16-0-10_dog_10_n02105505_2944.JPEG
subject-06,1,735,0.714254140853882,bottle,bottle,2-10-10,0735_eid_s06_2-10-10_bottle_10_n04557648_10455.JPEG
subject-06,1,736,1.06037211418152,clock,cat,8-3-10,0736_eid_s06_8-3-10_cat_10_n02123045_8237.JPEG
subject-06,1,737,0.907027006149292,knife,bird,64-10-10,0737_eid_s06_64-10-10_bird_10_n01592084_2422.JPEG
subject-06,1,738,0.607648849487305,car,car,2-10-10,0738_eid_s06_2-10-10_car_10_n03100240_18505.JPEG
subject-06,1,739,0.690107822418213,car,car,4-3-10,0739_eid_s06_4-3-10_car_10_n04285008_10825.JPEG
subject-06,1,740,0.668918132781982,truck,truck,2-0-10,0740_eid_s06_2-0-10_truck_10_n03417042_21788.JPEG
subject-06,1,741,1.30467200279236,boat,boat,8-3-10,0741_eid_s06_8-3-10_boat_10_n03662601_16417.JPEG
subject-06,1,742,0.697305917739868,cat,bird,64-3-10,0742_eid_s06_64-3-10_bird_10_n01531178_19439.JPEG
subject-06,1,743,0.629821062088013,clock,oven,1-10-10,0743_eid_s06_1-10-10_oven_10_n04111531_2462.JPEG
subject-06,1,744,0.598270177841187,bird,bird,2-0-10,0744_eid_s06_2-0-10_bird_10_n02028035_12363.JPEG
subject-06,1,745,0.682713985443115,keyboard,bottle,64-0-10,0745_eid_s06_64-0-10_bottle_10_n03983396_1682.JPEG
subject-06,1,746,0.796714067459106,bottle,clock,8-3-10,0746_eid_s06_8-3-10_clock_10_n02708093_8143.JPEG
subject-06,1,747,0.581019878387451,chair,chair,4-10-10,0747_eid_s06_4-10-10_chair_10_n04099969_13789.JPEG
subject-06,1,748,0.941897869110107,elephant,elephant,8-10-10,0748_eid_s06_8-10-10_elephant_10_n02504458_1969.JPEG
subject-06,1,749,0.904351949691772,bicycle,cat,32-0-10,0749_eid_s06_32-0-10_cat_10_n02123045_2721.JPEG
subject-06,1,750,0.896955013275146,cat,airplane,16-0-10,0750_eid_s06_16-0-10_airplane_10_n02690373_2629.JPEG
subject-06,1,751,0.689608812332153,bird,dog,32-3-10,0751_eid_s06_32-3-10_dog_10_n02090622_879.JPEG
subject-06,1,752,1.22622203826904,clock,bottle,64-0-10,0752_eid_s06_64-0-10_bottle_10_n04579145_1104.JPEG
subject-06,1,753,1.50011396408081,boat,truck,1-10-10,0753_eid_s06_1-10-10_truck_10_n03796401_7507.JPEG
subject-06,1,754,0.631363868713379,oven,truck,64-3-10,0754_eid_s06_64-3-10_truck_10_n04467665_48649.JPEG
subject-06,1,755,0.547467947006226,clock,clock,4-10-10,0755_eid_s06_4-10-10_clock_10_n04548280_4872.JPEG
subject-06,1,756,NaN,na,oven,16-3-10,0756_eid_s06_16-3-10_oven_10_n04111531_10537.JPEG
subject-06,1,757,0.678199052810669,knife,car,64-3-10,0757_eid_s06_64-3-10_car_10_n03100240_6576.JPEG
subject-06,1,758,0.50869083404541,oven,knife,128-0-10,0758_eid_s06_128-0-10_knife_10_n03041632_51225.JPEG
subject-06,1,759,1.16969799995422,keyboard,clock,16-10-10,0759_eid_s06_16-10-10_clock_10_n02708093_8073.JPEG
subject-06,1,760,0.386248111724854,cat,cat,1-3-10,0760_eid_s06_1-3-10_cat_10_n02123597_10529.JPEG
subject-06,1,761,0.554982900619507,bottle,chair,64-10-10,0761_eid_s06_64-10-10_chair_10_n04099969_120.JPEG
subject-06,1,762,0.587404012680054,bicycle,bicycle,2-3-10,0762_eid_s06_2-3-10_bicycle_10_n02835271_307.JPEG
subject-06,1,763,1.47006487846375,boat,knife,32-10-10,0763_eid_s06_32-10-10_knife_10_n03041632_21477.JPEG
subject-06,1,764,0.745383977890015,chair,oven,1-0-10,0764_eid_s06_1-0-10_oven_10_n04111531_5781.JPEG
subject-06,1,765,0.499987125396729,boat,boat,4-0-10,0765_eid_s06_4-0-10_boat_10_n04273569_18014.JPEG
subject-06,1,766,0.914318084716797,knife,dog,8-0-10,0766_eid_s06_8-0-10_dog_10_n02090622_5857.JPEG
subject-06,1,767,1.09098386764526,clock,elephant,4-10-10,0767_eid_s06_4-10-10_elephant_10_n02504013_1636.JPEG
subject-06,1,768,1.12992000579834,chair,keyboard,128-3-10,0768_eid_s06_128-3-10_keyboard_10_n04505470_4452.JPEG
subject-06,1,769,0.539812803268433,airplane,airplane,2-3-10,0769_eid_s06_2-3-10_airplane_10_n02690373_4429.JPEG
subject-06,1,770,0.532275915145874,knife,knife,1-10-10,0770_eid_s06_1-10-10_knife_10_n03041632_105080.JPEG
subject-06,1,771,0.770705938339233,bicycle,elephant,128-3-10,0771_eid_s06_128-3-10_elephant_10_n02504013_5894.JPEG
subject-06,1,772,0.463123083114624,bottle,bottle,4-10-10,0772_eid_s06_4-10-10_bottle_10_n04560804_14876.JPEG
subject-06,1,773,0.539669990539551,bicycle,bear,128-0-10,0773_eid_s06_128-0-10_bear_10_n02133161_2761.JPEG
subject-06,1,774,0.572098970413208,cat,oven,128-10-10,0774_eid_s06_128-10-10_oven_10_n04111531_7821.JPEG
subject-06,1,775,0.83305811882019,car,car,1-3-10,0775_eid_s06_1-3-10_car_10_n02814533_77053.JPEG
subject-06,1,776,0.657412052154541,bicycle,dog,64-0-10,0776_eid_s06_64-0-10_dog_10_n02110806_1008.JPEG
subject-06,1,777,0.771914005279541,bicycle,bicycle,2-10-10,0777_eid_s06_2-10-10_bicycle_10_n02835271_648.JPEG
subject-06,1,778,0.778340101242065,car,bicycle,2-10-10,0778_eid_s06_2-10-10_bicycle_10_n03792782_2024.JPEG
subject-06,1,779,0.618635892868042,bottle,bottle,16-10-10,0779_eid_s06_16-10-10_bottle_10_n04560804_6395.JPEG
subject-06,1,780,0.763345956802368,bicycle,elephant,32-10-10,0780_eid_s06_32-10-10_elephant_10_n02504013_13560.JPEG
subject-06,1,781,0.571738004684448,clock,clock,4-0-10,0781_eid_s06_4-0-10_clock_10_n04548280_8672.JPEG
subject-06,1,782,0.464267015457153,clock,clock,2-3-10,0782_eid_s06_2-3-10_clock_10_n04548280_3864.JPEG
subject-06,1,783,1.08661389350891,bird,bird,16-3-10,0783_eid_s06_16-3-10_bird_10_n01622779_21694.JPEG
subject-06,1,784,1.01146697998047,car,car,8-3-10,0784_eid_s06_8-3-10_car_10_n04285008_9456.JPEG
subject-06,1,785,0.571727991104126,cat,oven,16-0-10,0785_eid_s06_16-0-10_oven_10_n04111531_6489.JPEG
subject-06,1,786,1.09408497810364,bicycle,dog,64-0-10,0786_eid_s06_64-0-10_dog_10_n02100877_10471.JPEG
subject-06,1,787,0.489044904708862,bird,bird,1-10-10,0787_eid_s06_1-10-10_bird_10_n01532829_4740.JPEG
subject-06,1,788,0.689572095870972,cat,clock,16-3-10,0788_eid_s06_16-3-10_clock_10_n02708093_7901.JPEG
subject-06,1,789,0.519973039627075,bird,bird,4-3-10,0789_eid_s06_4-3-10_bird_10_n01855032_1501.JPEG
subject-06,1,790,0.680568933486938,knife,bottle,64-3-10,0790_eid_s06_64-3-10_bottle_10_n03937543_2303.JPEG
subject-06,1,791,0.697213888168335,knife,knife,2-10-10,0791_eid_s06_2-10-10_knife_10_n03041632_21425.JPEG
subject-06,1,792,0.582093954086304,cat,cat,128-3-10,0792_eid_s06_128-3-10_cat_10_n02123045_334.JPEG
subject-06,1,793,1.1906840801239,cat,dog,2-0-10,0793_eid_s06_2-0-10_dog_10_n02108551_16816.JPEG
subject-06,1,794,1.37504196166992,bear,bear,4-3-10,0794_eid_s06_4-3-10_bear_10_n02134418_72.JPEG
subject-06,1,795,0.951527118682861,car,bottle,64-3-10,0795_eid_s06_64-3-10_bottle_10_n03983396_10852.JPEG
subject-06,1,796,0.713868856430054,airplane,airplane,8-10-10,0796_eid_s06_8-10-10_airplane_10_n02690373_6210.JPEG
subject-06,1,797,0.658255100250244,truck,truck,2-3-10,0797_eid_s06_2-3-10_truck_10_n03417042_19277.JPEG
subject-06,1,798,0.682785034179688,car,car,1-10-10,0798_eid_s06_1-10-10_car_10_n03100240_23849.JPEG
subject-06,1,799,0.643490791320801,keyboard,keyboard,8-10-10,0799_eid_s06_8-10-10_keyboard_10_n04505470_5561.JPEG
subject-06,1,800,0.573723077774048,bicycle,elephant,8-0-10,0800_eid_s06_8-0-10_elephant_10_n02504458_778.JPEG
subject-06,1,801,0.512256860733032,airplane,airplane,1-10-10,0801_eid_s06_1-10-10_airplane_10_n02690373_191.JPEG
subject-06,1,802,0.589437961578369,car,bottle,128-3-10,0802_eid_s06_128-3-10_bottle_10_n04560804_4572.JPEG
subject-06,1,803,0.735903978347778,bicycle,knife,32-0-10,0803_eid_s06_32-0-10_knife_10_n03041632_4808.JPEG
subject-06,1,804,0.598206996917725,keyboard,keyboard,4-10-10,0804_eid_s06_4-10-10_keyboard_10_n03085013_22870.JPEG
subject-06,1,805,0.620703935623169,bottle,boat,64-3-10,0805_eid_s06_64-3-10_boat_10_n03662601_10697.JPEG
subject-06,1,806,1.1512279510498,boat,boat,4-0-10,0806_eid_s06_4-0-10_boat_10_n03344393_7702.JPEG
subject-06,1,807,0.619566917419434,cat,cat,8-10-10,0807_eid_s06_8-10-10_cat_10_n02123597_30151.JPEG
subject-06,1,808,1.104248046875,knife,bird,128-10-10,0808_eid_s06_128-10-10_bird_10_n01514859_8222.JPEG
subject-06,1,809,0.504332065582275,car,car,4-3-10,0809_eid_s06_4-3-10_car_10_n04285008_4026.JPEG
subject-06,1,810,0.619127035140991,cat,car,64-10-10,0810_eid_s06_64-10-10_car_10_n02814533_126.JPEG
subject-06,1,811,0.549484968185425,bicycle,bicycle,8-3-10,0811_eid_s06_8-3-10_bicycle_10_n03792782_1989.JPEG
subject-06,1,812,0.787190914154053,bicycle,car,128-0-10,0812_eid_s06_128-0-10_car_10_n04285008_5063.JPEG
subject-06,1,813,0.763840913772583,elephant,elephant,1-10-10,0813_eid_s06_1-10-10_elephant_10_n02504013_1792.JPEG
subject-06,1,814,0.772779941558838,truck,truck,4-10-10,0814_eid_s06_4-10-10_truck_10_n04467665_78325.JPEG
subject-06,1,815,0.724086999893188,bottle,clock,64-10-10,0815_eid_s06_64-10-10_clock_10_n02708093_6835.JPEG
subject-06,1,816,0.768333196640015,bottle,oven,1-3-10,0816_eid_s06_1-3-10_oven_10_n04111531_689.JPEG
subject-06,1,817,0.615024089813232,cat,dog,8-0-10,0817_eid_s06_8-0-10_dog_10_n02096294_2343.JPEG
subject-06,1,818,0.545545816421509,bottle,bottle,4-10-10,0818_eid_s06_4-10-10_bottle_10_n03983396_17666.JPEG
subject-06,1,819,1.35436081886292,airplane,bear,4-10-10,0819_eid_s06_4-10-10_bear_10_n02134084_2712.JPEG
subject-06,1,820,1.2611129283905,bird,knife,64-3-10,0820_eid_s06_64-3-10_knife_10_n03041632_10109.JPEG
subject-06,1,821,0.623376846313477,bicycle,elephant,64-0-10,0821_eid_s06_64-0-10_elephant_10_n02504458_3228.JPEG
subject-06,1,822,0.569858074188232,boat,boat,2-10-10,0822_eid_s06_2-10-10_boat_10_n02951358_5321.JPEG
subject-06,1,823,0.50648021697998,oven,oven,2-3-10,0823_eid_s06_2-3-10_oven_10_n04111531_687.JPEG
subject-06,1,824,0.760725021362305,knife,keyboard,16-3-10,0824_eid_s06_16-3-10_keyboard_10_n03085013_14427.JPEG
subject-06,1,825,1.44341802597046,airplane,bicycle,16-0-10,0825_eid_s06_16-0-10_bicycle_10_n03792782_5404.JPEG
subject-06,1,826,0.543762922286987,oven,oven,1-0-10,0826_eid_s06_1-0-10_oven_10_n04111531_11265.JPEG
subject-06,1,827,0.498240947723389,cat,car,64-10-10,0827_eid_s06_64-10-10_car_10_n03100240_2683.JPEG
subject-06,1,828,0.836865901947021,knife,knife,4-0-10,0828_eid_s06_4-0-10_knife_10_n03041632_24100.JPEG
subject-06,1,829,0.613029956817627,bird,bird,2-0-10,0829_eid_s06_2-0-10_bird_10_n02011460_17243.JPEG
subject-06,1,830,0.943351030349731,bird,bird,4-0-10,0830_eid_s06_4-0-10_bird_10_n02033041_2739.JPEG
subject-06,1,831,0.778830051422119,bicycle,oven,64-0-10,0831_eid_s06_64-0-10_oven_10_n04111531_1330.JPEG
subject-06,1,832,0.785026073455811,cat,cat,1-3-10,0832_eid_s06_1-3-10_cat_10_n02125311_15360.JPEG
subject-06,1,833,0.601608037948608,keyboard,keyboard,8-10-10,0833_eid_s06_8-10-10_keyboard_10_n03085013_24250.JPEG
subject-06,1,834,0.678263902664185,bicycle,clock,16-10-10,0834_eid_s06_16-10-10_clock_10_n02708093_3232.JPEG
subject-06,1,835,0.738703966140747,truck,truck,16-10-10,0835_eid_s06_16-10-10_truck_10_n03796401_5142.JPEG
subject-06,1,836,0.954974174499512,bear,chair,8-0-10,0836_eid_s06_8-0-10_chair_10_n04429376_22734.JPEG
subject-06,1,837,0.685846090316772,bicycle,bicycle,16-10-10,0837_eid_s06_16-10-10_bicycle_10_n02835271_9669.JPEG
subject-06,1,838,1.14038109779358,cat,bicycle,32-0-10,0838_eid_s06_32-0-10_bicycle_10_n03792782_63201.JPEG
subject-06,1,839,0.755097150802612,bear,bear,1-10-10,0839_eid_s06_1-10-10_bear_10_n02134084_3383.JPEG
subject-06,1,840,0.555656909942627,truck,truck,8-10-10,0840_eid_s06_8-10-10_truck_10_n03796401_4120.JPEG
subject-06,1,841,0.740035057067871,boat,boat,8-10-10,0841_eid_s06_8-10-10_boat_10_n02951358_11810.JPEG
subject-06,1,842,1.15444207191467,cat,elephant,8-0-10,0842_eid_s06_8-0-10_elephant_10_n02504458_7005.JPEG
subject-06,1,843,0.51688814163208,truck,truck,1-10-10,0843_eid_s06_1-10-10_truck_10_n03796401_6210.JPEG
subject-06,1,844,0.563519954681396,bottle,bottle,1-3-10,0844_eid_s06_1-3-10_bottle_10_n02823428_642.JPEG
subject-06,1,845,0.661872148513794,truck,truck,4-0-10,0845_eid_s06_4-0-10_truck_10_n04467665_62621.JPEG
subject-06,1,846,0.778339862823486,airplane,bear,128-3-10,0846_eid_s06_128-3-10_bear_10_n02133161_7401.JPEG
subject-06,1,847,0.967899084091187,elephant,elephant,16-10-10,0847_eid_s06_16-10-10_elephant_10_n02504013_1708.JPEG
subject-06,1,848,0.968477010726929,dog,dog,4-3-10,0848_eid_s06_4-3-10_dog_10_n02106030_9981.JPEG
subject-06,1,849,0.669418096542358,oven,bear,8-0-10,0849_eid_s06_8-0-10_bear_10_n02134418_1076.JPEG
subject-06,1,850,0.621732950210571,elephant,elephant,4-3-10,0850_eid_s06_4-3-10_elephant_10_n02504458_6248.JPEG
subject-06,1,851,0.61445689201355,keyboard,bottle,128-0-10,0851_eid_s06_128-0-10_bottle_10_n04579145_2167.JPEG
subject-06,1,852,0.569542169570923,cat,airplane,32-0-10,0852_eid_s06_32-0-10_airplane_10_n02690373_9687.JPEG
subject-06,1,853,NaN,na,clock,64-10-10,0853_eid_s06_64-10-10_clock_10_n02708093_1461.JPEG
subject-06,1,854,NaN,na,bottle,4-3-10,0854_eid_s06_4-3-10_bottle_10_n03937543_5076.JPEG
subject-06,1,855,0.598951816558838,oven,car,64-10-10,0855_eid_s06_64-10-10_car_10_n04285008_15005.JPEG
subject-06,1,856,0.891375064849854,knife,bottle,8-0-10,0856_eid_s06_8-0-10_bottle_10_n04560804_27311.JPEG
subject-06,1,857,0.661746025085449,boat,boat,8-10-10,0857_eid_s06_8-10-10_boat_10_n02951358_30131.JPEG
subject-06,1,858,1.02282190322876,clock,clock,1-0-10,0858_eid_s06_1-0-10_clock_10_n04548280_530.JPEG
subject-06,1,859,0.574451923370361,bicycle,knife,128-3-10,0859_eid_s06_128-3-10_knife_10_n03041632_29580.JPEG
subject-06,1,860,0.637499809265137,dog,dog,4-0-10,0860_eid_s06_4-0-10_dog_10_n02093647_422.JPEG
subject-06,1,861,1.22734785079956,chair,boat,64-10-10,0861_eid_s06_64-10-10_boat_10_n04612504_2225.JPEG
subject-06,1,862,0.581198930740356,bird,bird,1-3-10,0862_eid_s06_1-3-10_bird_10_n01560419_346.JPEG
subject-06,1,863,0.620146036148071,clock,truck,128-3-10,0863_eid_s06_128-3-10_truck_10_n03417042_17099.JPEG
subject-06,1,864,1.50005793571472,keyboard,keyboard,4-3-10,0864_eid_s06_4-3-10_keyboard_10_n03085013_26171.JPEG
subject-06,1,865,0.781140089035034,car,cat,16-0-10,0865_eid_s06_16-0-10_cat_10_n02123045_13202.JPEG
subject-06,1,866,0.6336989402771,bicycle,keyboard,128-3-10,0866_eid_s06_128-3-10_keyboard_10_n03085013_21050.JPEG
subject-06,1,867,0.642212867736816,boat,boat,2-10-10,0867_eid_s06_2-10-10_boat_10_n02951358_15813.JPEG
subject-06,1,868,0.726592063903809,bird,bear,128-0-10,0868_eid_s06_128-0-10_bear_10_n02133161_1633.JPEG
subject-06,1,869,0.549041986465454,bicycle,bicycle,4-10-10,0869_eid_s06_4-10-10_bicycle_10_n02835271_5001.JPEG
subject-06,1,870,0.64116907119751,airplane,car,64-3-10,0870_eid_s06_64-3-10_car_10_n03100240_15434.JPEG
subject-06,1,871,0.75602912902832,clock,clock,1-3-10,0871_eid_s06_1-3-10_clock_10_n04548280_9533.JPEG
subject-06,1,872,0.510853052139282,airplane,airplane,1-10-10,0872_eid_s06_1-10-10_airplane_10_n02690373_5217.JPEG
subject-06,1,873,0.553858041763306,oven,oven,4-10-10,0873_eid_s06_4-10-10_oven_10_n04111531_7717.JPEG
subject-06,1,874,0.432034969329834,cat,cat,2-0-10,0874_eid_s06_2-0-10_cat_10_n02123597_32577.JPEG
subject-06,1,875,0.562787055969238,cat,cat,4-3-10,0875_eid_s06_4-3-10_cat_10_n02125311_23216.JPEG
subject-06,1,876,0.553018093109131,airplane,boat,4-10-10,0876_eid_s06_4-10-10_boat_10_n04273569_3978.JPEG
subject-06,1,877,0.861180067062378,truck,truck,4-10-10,0877_eid_s06_4-10-10_truck_10_n03417042_3389.JPEG
subject-06,1,878,0.629668951034546,cat,cat,4-10-10,0878_eid_s06_4-10-10_cat_10_n02124075_7902.JPEG
subject-06,1,879,0.960500001907349,clock,chair,64-0-10,0879_eid_s06_64-0-10_chair_10_n02791124_373.JPEG
subject-06,1,880,0.881922006607056,boat,truck,16-3-10,0880_eid_s06_16-3-10_truck_10_n03796401_22241.JPEG
subject-06,1,881,0.734292984008789,keyboard,keyboard,4-3-10,0881_eid_s06_4-3-10_keyboard_10_n03085013_1812.JPEG
subject-06,1,882,0.426302194595337,cat,bear,32-0-10,0882_eid_s06_32-0-10_bear_10_n02132136_21488.JPEG
subject-06,1,883,0.518935918807983,oven,elephant,32-10-10,0883_eid_s06_32-10-10_elephant_10_n02504458_6236.JPEG
subject-06,1,884,0.479371070861816,cat,bottle,32-3-10,0884_eid_s06_32-3-10_bottle_10_n04560804_28861.JPEG
subject-06,1,885,0.593899011611938,cat,bicycle,16-3-10,0885_eid_s06_16-3-10_bicycle_10_n03792782_20387.JPEG
subject-06,1,886,0.870031833648682,truck,bird,128-3-10,0886_eid_s06_128-3-10_bird_10_n01592084_7583.JPEG
subject-06,1,887,0.732722043991089,car,car,4-10-10,0887_eid_s06_4-10-10_car_10_n03100240_5195.JPEG
subject-06,1,888,0.61729907989502,elephant,elephant,4-0-10,0888_eid_s06_4-0-10_elephant_10_n02504458_4143.JPEG
subject-06,1,889,0.647926807403564,bottle,chair,4-0-10,0889_eid_s06_4-0-10_chair_10_n04429376_10546.JPEG
subject-06,1,890,0.646435976028442,bicycle,car,128-0-10,0890_eid_s06_128-0-10_car_10_n02814533_85928.JPEG
subject-06,1,891,0.61703896522522,clock,clock,8-3-10,0891_eid_s06_8-3-10_clock_10_n04548280_8649.JPEG
subject-06,1,892,0.647621870040894,keyboard,keyboard,4-0-10,0892_eid_s06_4-0-10_keyboard_10_n03085013_21620.JPEG
subject-06,1,893,0.662317991256714,airplane,airplane,8-10-10,0893_eid_s06_8-10-10_airplane_10_n02690373_939.JPEG
subject-06,1,894,0.884765863418579,bird,bird,32-3-10,0894_eid_s06_32-3-10_bird_10_n02002724_1668.JPEG
subject-06,1,895,0.793258190155029,dog,oven,8-3-10,0895_eid_s06_8-3-10_oven_10_n04111531_13590.JPEG
subject-06,1,896,0.639909029006958,keyboard,keyboard,2-0-10,0896_eid_s06_2-0-10_keyboard_10_n03085013_21609.JPEG
subject-06,1,897,0.708124876022339,bottle,cat,16-3-10,0897_eid_s06_16-3-10_cat_10_n02123159_11515.JPEG
subject-06,1,898,0.808839082717896,bicycle,chair,8-0-10,0898_eid_s06_8-0-10_chair_10_n03376595_3678.JPEG
subject-06,1,899,0.869862079620361,car,cat,32-10-10,0899_eid_s06_32-10-10_cat_10_n02123159_2210.JPEG
subject-06,1,900,0.82423996925354,car,car,1-3-10,0900_eid_s06_1-3-10_car_10_n03100240_300.JPEG
subject-06,1,901,0.671173095703125,bird,bird,1-10-10,0901_eid_s06_1-10-10_bird_10_n01798484_12040.JPEG
subject-06,1,902,1.08526301383972,bird,bottle,128-10-10,0902_eid_s06_128-10-10_bottle_10_n02823428_4580.JPEG
subject-06,1,903,0.454001903533936,cat,cat,2-3-10,0903_eid_s06_2-3-10_cat_10_n02123394_6324.JPEG
subject-06,1,904,0.700300931930542,bicycle,cat,64-0-10,0904_eid_s06_64-0-10_cat_10_n02123394_525.JPEG
subject-06,1,905,0.958089113235474,bottle,bird,128-10-10,0905_eid_s06_128-10-10_bird_10_n01817953_11510.JPEG
subject-06,1,906,0.628590822219849,bird,bird,16-10-10,0906_eid_s06_16-10-10_bird_10_n01820546_4810.JPEG
subject-06,1,907,0.520692110061646,cat,knife,64-10-10,0907_eid_s06_64-10-10_knife_10_n03041632_31271.JPEG
subject-06,1,908,0.965567827224731,truck,truck,4-0-10,0908_eid_s06_4-0-10_truck_10_n04467665_57380.JPEG
subject-06,1,909,0.849792003631592,bear,bear,8-0-10,0909_eid_s06_8-0-10_bear_10_n02134084_11808.JPEG
subject-06,1,910,1.32668590545654,dog,dog,8-10-10,0910_eid_s06_8-10-10_dog_10_n02105505_2596.JPEG
subject-06,1,911,1.01932692527771,bird,bird,4-0-10,0911_eid_s06_4-0-10_bird_10_n02002556_584.JPEG
subject-06,1,912,0.70383095741272,bicycle,car,128-3-10,0912_eid_s06_128-3-10_car_10_n03100240_2932.JPEG
subject-06,1,913,1.08845901489258,boat,car,64-0-10,0913_eid_s06_64-0-10_car_10_n02814533_874.JPEG
subject-06,1,914,0.924626111984253,bear,bear,2-0-10,0914_eid_s06_2-0-10_bear_10_n02134084_17358.JPEG
subject-06,1,915,0.717379093170166,keyboard,truck,16-10-10,0915_eid_s06_16-10-10_truck_10_n04467665_11487.JPEG
subject-06,1,916,0.631800889968872,cat,cat,64-0-10,0916_eid_s06_64-0-10_cat_10_n02123394_3698.JPEG
subject-06,1,917,1.42407202720642,bear,car,64-0-10,0917_eid_s06_64-0-10_car_10_n04285008_12336.JPEG
subject-06,1,918,0.846246957778931,clock,bottle,8-10-10,0918_eid_s06_8-10-10_bottle_10_n04579145_2182.JPEG
subject-06,1,919,0.744639873504639,knife,knife,16-3-10,0919_eid_s06_16-3-10_knife_10_n03041632_49513.JPEG
subject-06,1,920,0.891214847564697,bird,clock,16-0-10,0920_eid_s06_16-0-10_clock_10_n02708093_6718.JPEG
subject-06,1,921,1.27535009384155,keyboard,elephant,64-0-10,0921_eid_s06_64-0-10_elephant_10_n02504458_3731.JPEG
subject-06,1,922,0.573070049285889,cat,knife,8-0-10,0922_eid_s06_8-0-10_knife_10_n03041632_8666.JPEG
subject-06,1,923,1.16567707061768,truck,oven,128-3-10,0923_eid_s06_128-3-10_oven_10_n04111531_10711.JPEG
subject-06,1,924,1.18000292778015,keyboard,keyboard,1-0-10,0924_eid_s06_1-0-10_keyboard_10_n04505470_4878.JPEG
subject-06,1,925,NaN,na,knife,2-0-10,0925_eid_s06_2-0-10_knife_10_n03041632_84240.JPEG
subject-06,1,926,0.665405035018921,bottle,dog,128-10-10,0926_eid_s06_128-10-10_dog_10_n02093991_8450.JPEG
subject-06,1,927,0.863789081573486,bear,keyboard,32-0-10,0927_eid_s06_32-0-10_keyboard_10_n03085013_20682.JPEG
subject-06,1,928,0.548512935638428,oven,oven,2-3-10,0928_eid_s06_2-3-10_oven_10_n04111531_1303.JPEG
subject-06,1,929,0.786639928817749,knife,knife,2-10-10,0929_eid_s06_2-10-10_knife_10_n03041632_51581.JPEG
subject-06,1,930,0.617498159408569,boat,bicycle,16-0-10,0930_eid_s06_16-0-10_bicycle_10_n03792782_5665.JPEG
subject-06,1,931,0.953668117523193,car,car,16-3-10,0931_eid_s06_16-3-10_car_10_n03100240_12925.JPEG
subject-06,1,932,0.738254070281982,cat,bicycle,32-3-10,0932_eid_s06_32-3-10_bicycle_10_n03792782_5089.JPEG
subject-06,1,933,0.860713958740234,elephant,elephant,8-10-10,0933_eid_s06_8-10-10_elephant_10_n02504458_3248.JPEG
subject-06,1,934,0.775192975997925,airplane,airplane,4-10-10,0934_eid_s06_4-10-10_airplane_10_n02690373_16986.JPEG
subject-06,1,935,0.804723978042603,bottle,oven,8-3-10,0935_eid_s06_8-3-10_oven_10_n04111531_1313.JPEG
subject-06,1,936,0.527482032775879,cat,clock,32-0-10,0936_eid_s06_32-0-10_clock_10_n02708093_6414.JPEG
subject-06,1,937,0.917695045471191,elephant,elephant,4-10-10,0937_eid_s06_4-10-10_elephant_10_n02504458_155.JPEG
subject-06,1,938,0.855149984359741,dog,keyboard,128-3-10,0938_eid_s06_128-3-10_keyboard_10_n03085013_18841.JPEG
subject-06,1,939,0.683313846588135,bear,bear,4-10-10,0939_eid_s06_4-10-10_bear_10_n02132136_181.JPEG
subject-06,1,940,0.645617961883545,chair,chair,8-10-10,0940_eid_s06_8-10-10_chair_10_n04429376_26914.JPEG
subject-06,1,941,0.728155851364136,cat,cat,2-10-10,0941_eid_s06_2-10-10_cat_10_n02124075_2685.JPEG
subject-06,1,942,0.628439903259277,bear,bear,2-10-10,0942_eid_s06_2-10-10_bear_10_n02134418_1137.JPEG
subject-06,1,943,0.889297008514404,bird,clock,32-3-10,0943_eid_s06_32-3-10_clock_10_n02708093_1276.JPEG
subject-06,1,944,0.510957002639771,bottle,bottle,2-3-10,0944_eid_s06_2-3-10_bottle_10_n04591713_2194.JPEG
subject-06,1,945,0.549646139144897,cat,knife,16-0-10,0945_eid_s06_16-0-10_knife_10_n03041632_9580.JPEG
subject-06,1,946,0.517888069152832,airplane,oven,64-0-10,0946_eid_s06_64-0-10_oven_10_n04111531_22493.JPEG
subject-06,1,947,1.0508930683136,cat,elephant,64-3-10,0947_eid_s06_64-3-10_elephant_10_n02504013_3181.JPEG
subject-06,1,948,0.789496898651123,bird,oven,32-3-10,0948_eid_s06_32-3-10_oven_10_n04111531_12769.JPEG
subject-06,1,949,0.741713047027588,bicycle,bicycle,2-10-10,0949_eid_s06_2-10-10_bicycle_10_n03792782_7643.JPEG
subject-06,1,950,0.680171966552734,bicycle,bicycle,2-3-10,0950_eid_s06_2-3-10_bicycle_10_n03792782_1004.JPEG
subject-06,1,951,1.10128092765808,elephant,truck,64-10-10,0951_eid_s06_64-10-10_truck_10_n03796401_8351.JPEG
subject-06,1,952,0.775086879730225,chair,chair,4-3-10,0952_eid_s06_4-3-10_chair_10_n02791124_622.JPEG
subject-06,1,953,0.791926145553589,boat,bear,128-10-10,0953_eid_s06_128-10-10_bear_10_n02133161_274.JPEG
subject-06,1,954,0.652704954147339,bottle,bottle,2-3-10,0954_eid_s06_2-3-10_bottle_10_n03937543_4450.JPEG
