subj,session,trial,rt,object_response,category,condition,imagename
subject-05,2,1,0.772687911987305,cat,bottle,4-0-10,1281_eid_s05_4-0-10_bottle_10_n04591713_12767.JPEG
subject-05,2,2,1.02099680900574,keyboard,keyboard,2-0-10,1282_eid_s05_2-0-10_keyboard_10_n03085013_25069.JPEG
subject-05,2,3,0.647765159606934,boat,oven,16-0-10,1283_eid_s05_16-0-10_oven_10_n04111531_2199.JPEG
subject-05,2,4,0.828603029251099,bottle,bottle,1-3-10,1284_eid_s05_1-3-10_bottle_10_n03983396_551.JPEG
subject-05,2,5,0.780876874923706,boat,boat,4-0-10,1285_eid_s05_4-0-10_boat_10_n03344393_2969.JPEG
subject-05,2,6,0.844970226287842,bear,elephant,128-10-10,1286_eid_s05_128-10-10_elephant_10_n02504458_11382.JPEG
subject-05,2,7,1.09930205345154,bear,bear,8-3-10,1287_eid_s05_8-3-10_bear_10_n02132136_9684.JPEG
subject-05,2,8,1.07936787605286,chair,chair,1-0-10,1288_eid_s05_1-0-10_chair_10_n02791124_6688.JPEG
subject-05,2,9,0.848697900772095,clock,clock,8-0-10,1289_eid_s05_8-0-10_clock_10_n02708093_8355.JPEG
subject-05,2,10,0.450438976287842,cat,car,32-0-10,1290_eid_s05_32-0-10_car_10_n02814533_51973.JPEG
subject-05,2,11,1.01170897483826,truck,truck,1-10-10,1291_eid_s05_1-10-10_truck_10_n03796401_7217.JPEG
subject-05,2,12,0.690090894699097,chair,chair,4-3-10,1292_eid_s05_4-3-10_chair_10_n03376595_579.JPEG
subject-05,2,13,0.438345909118652,clock,oven,32-10-10,1293_eid_s05_32-10-10_oven_10_n04111531_9455.JPEG
subject-05,2,14,0.652369022369385,airplane,airplane,1-0-10,1294_eid_s05_1-0-10_airplane_10_n02690373_10207.JPEG
subject-05,2,15,1.10828900337219,dog,dog,2-3-10,1295_eid_s05_2-3-10_dog_10_n02095314_6249.JPEG
subject-05,2,16,1.50008296966553,elephant,elephant,4-0-10,1296_eid_s05_4-0-10_elephant_10_n02504458_2888.JPEG
subject-05,2,17,0.529443979263306,boat,bear,32-10-10,1297_eid_s05_32-10-10_bear_10_n02134084_8662.JPEG
subject-05,2,18,1.05631709098816,oven,bottle,128-3-10,1298_eid_s05_128-3-10_bottle_10_n04557648_411.JPEG
subject-05,2,19,0.634422063827515,cat,chair,64-3-10,1299_eid_s05_64-3-10_chair_10_n02791124_3411.JPEG
subject-05,2,20,1.05860900878906,knife,knife,2-3-10,1300_eid_s05_2-3-10_knife_10_n03041632_26236.JPEG
subject-05,2,21,0.618076086044312,keyboard,keyboard,2-3-10,1301_eid_s05_2-3-10_keyboard_10_n04505470_158.JPEG
subject-05,2,22,0.50442099571228,bear,bear,32-10-10,1302_eid_s05_32-10-10_bear_10_n02134084_2900.JPEG
subject-05,2,23,1.0226628780365,chair,bird,2-3-10,1303_eid_s05_2-3-10_bird_10_n01860187_1892.JPEG
subject-05,2,24,0.547942161560059,boat,keyboard,8-0-10,1304_eid_s05_8-0-10_keyboard_10_n04505470_990.JPEG
subject-05,2,25,1.03648686408997,airplane,airplane,8-10-10,1305_eid_s05_8-10-10_airplane_10_n02690373_4893.JPEG
subject-05,2,26,0.671401023864746,truck,cat,128-0-10,1306_eid_s05_128-0-10_cat_10_n02123597_4843.JPEG
subject-05,2,27,0.70392107963562,bottle,bottle,8-10-10,1307_eid_s05_8-10-10_bottle_10_n02823428_4474.JPEG
subject-05,2,28,0.630213975906372,bottle,bottle,1-3-10,1308_eid_s05_1-3-10_bottle_10_n02823428_4556.JPEG
subject-05,2,29,0.583904981613159,boat,dog,64-3-10,1309_eid_s05_64-3-10_dog_10_n02108915_3119.JPEG
subject-05,2,30,0.472664833068848,cat,bottle,4-0-10,1310_eid_s05_4-0-10_bottle_10_n03937543_2308.JPEG
subject-05,2,31,0.620309114456177,boat,oven,128-10-10,1311_eid_s05_128-10-10_oven_10_n04111531_10722.JPEG
subject-05,2,32,0.652343988418579,knife,knife,2-0-10,1312_eid_s05_2-0-10_knife_10_n03041632_4879.JPEG
subject-05,2,33,0.660284996032715,airplane,airplane,4-3-10,1313_eid_s05_4-3-10_airplane_10_n02690373_2498.JPEG
subject-05,2,34,0.694988012313843,oven,dog,64-10-10,1314_eid_s05_64-10-10_dog_10_n02096294_1062.JPEG
subject-05,2,35,0.459453105926514,boat,boat,64-3-10,1315_eid_s05_64-3-10_boat_10_n04273569_18041.JPEG
subject-05,2,36,0.421268939971924,clock,boat,8-3-10,1316_eid_s05_8-3-10_boat_10_n03344393_997.JPEG
subject-05,2,37,0.609984874725342,keyboard,keyboard,2-0-10,1317_eid_s05_2-0-10_keyboard_10_n03085013_688.JPEG
subject-05,2,38,0.504559993743896,clock,bottle,16-3-10,1318_eid_s05_16-3-10_bottle_10_n04557648_6515.JPEG
subject-05,2,39,0.639206171035767,airplane,airplane,4-10-10,1319_eid_s05_4-10-10_airplane_10_n02690373_8560.JPEG
subject-05,2,40,0.471374988555908,clock,clock,16-10-10,1320_eid_s05_16-10-10_clock_10_n04548280_5038.JPEG
subject-05,2,41,0.427956104278564,boat,oven,64-0-10,1321_eid_s05_64-0-10_oven_10_n04111531_21973.JPEG
subject-05,2,42,0.584178924560547,airplane,airplane,8-10-10,1322_eid_s05_8-10-10_airplane_10_n02690373_1815.JPEG
subject-05,2,43,0.599661827087402,bear,knife,64-0-10,1323_eid_s05_64-0-10_knife_10_n03041632_24100.JPEG
subject-05,2,44,0.518457889556885,oven,dog,64-10-10,1324_eid_s05_64-10-10_dog_10_n02099429_1773.JPEG
subject-05,2,45,1.50020098686218,bear,bear,4-3-10,1325_eid_s05_4-3-10_bear_10_n02134084_7502.JPEG
subject-05,2,46,0.531214952468872,oven,bottle,64-3-10,1326_eid_s05_64-3-10_bottle_10_n03983396_4774.JPEG
subject-05,2,47,0.450285911560059,clock,clock,128-0-10,1327_eid_s05_128-0-10_clock_10_n02708093_7160.JPEG
subject-05,2,48,0.628015995025635,car,cat,128-0-10,1328_eid_s05_128-0-10_cat_10_n02123159_512.JPEG
subject-05,2,49,0.821859121322632,airplane,airplane,2-10-10,1329_eid_s05_2-10-10_airplane_10_n02690373_4412.JPEG
subject-05,2,50,0.60237193107605,cat,cat,4-0-10,1330_eid_s05_4-0-10_cat_10_n02124075_4198.JPEG
subject-05,2,51,0.550275087356567,oven,dog,128-10-10,1331_eid_s05_128-10-10_dog_10_n02109961_5554.JPEG
subject-05,2,52,0.795909881591797,bottle,bottle,4-3-10,1332_eid_s05_4-3-10_bottle_10_n04591713_3578.JPEG
subject-05,2,53,0.493305921554565,boat,truck,128-0-10,1333_eid_s05_128-0-10_truck_10_n03417042_27850.JPEG
subject-05,2,54,0.56338906288147,cat,dog,128-0-10,1334_eid_s05_128-0-10_dog_10_n02088364_2078.JPEG
subject-05,2,55,0.594460010528564,boat,boat,1-3-10,1335_eid_s05_1-3-10_boat_10_n04612504_13987.JPEG
subject-05,2,56,0.688436031341553,oven,cat,8-0-10,1336_eid_s05_8-0-10_cat_10_n02123394_2049.JPEG
subject-05,2,57,0.691035985946655,bear,cat,16-0-10,1337_eid_s05_16-0-10_cat_10_n02124075_9224.JPEG
subject-05,2,58,0.455294847488403,clock,airplane,128-3-10,1338_eid_s05_128-3-10_airplane_10_n02690373_852.JPEG
subject-05,2,59,0.709511995315552,bear,bear,2-0-10,1339_eid_s05_2-0-10_bear_10_n02134418_3341.JPEG
subject-05,2,60,1.00608801841736,truck,truck,4-10-10,1340_eid_s05_4-10-10_truck_10_n03417042_26816.JPEG
subject-05,2,61,0.476828098297119,cat,boat,8-3-10,1341_eid_s05_8-3-10_boat_10_n02951358_30149.JPEG
subject-05,2,62,0.796120882034302,car,car,4-0-10,1342_eid_s05_4-0-10_car_10_n04285008_10108.JPEG
subject-05,2,63,0.590319871902466,oven,bird,32-3-10,1343_eid_s05_32-3-10_bird_10_n02018795_4055.JPEG
subject-05,2,64,0.462576150894165,boat,boat,8-0-10,1344_eid_s05_8-0-10_boat_10_n02951358_4736.JPEG
subject-05,2,65,0.665058851242065,chair,airplane,128-3-10,1345_eid_s05_128-3-10_airplane_10_n02690373_2075.JPEG
subject-05,2,66,0.426018953323364,oven,chair,32-0-10,1346_eid_s05_32-0-10_chair_10_n02791124_3936.JPEG
subject-05,2,67,0.706848859786987,bicycle,car,16-0-10,1347_eid_s05_16-0-10_car_10_n02814533_1066.JPEG
subject-05,2,68,0.523056983947754,oven,dog,64-0-10,1348_eid_s05_64-0-10_dog_10_n02091032_1450.JPEG
subject-05,2,69,0.520046949386597,boat,keyboard,32-3-10,1349_eid_s05_32-3-10_keyboard_10_n04505470_4513.JPEG
subject-05,2,70,1.43183708190918,bear,keyboard,4-3-10,1350_eid_s05_4-3-10_keyboard_10_n03085013_24793.JPEG
subject-05,2,71,0.442094087600708,cat,knife,64-0-10,1351_eid_s05_64-0-10_knife_10_n03041632_15099.JPEG
subject-05,2,72,0.474553108215332,boat,knife,32-0-10,1352_eid_s05_32-0-10_knife_10_n03041632_44738.JPEG
subject-05,2,73,0.646528959274292,boat,boat,4-10-10,1353_eid_s05_4-10-10_boat_10_n02951358_31383.JPEG
subject-05,2,74,0.787015914916992,keyboard,oven,64-10-10,1354_eid_s05_64-10-10_oven_10_n04111531_2650.JPEG
subject-05,2,75,0.428120851516724,clock,bicycle,64-3-10,1355_eid_s05_64-3-10_bicycle_10_n03792782_21832.JPEG
subject-05,2,76,0.582377195358276,oven,airplane,16-0-10,1356_eid_s05_16-0-10_airplane_10_n02690373_3984.JPEG
subject-05,2,77,0.75297999382019,airplane,airplane,4-0-10,1357_eid_s05_4-0-10_airplane_10_n02690373_2700.JPEG
subject-05,2,78,0.700996875762939,keyboard,keyboard,2-0-10,1358_eid_s05_2-0-10_keyboard_10_n03085013_15504.JPEG
subject-05,2,79,0.570534944534302,keyboard,keyboard,4-0-10,1359_eid_s05_4-0-10_keyboard_10_n04505470_9747.JPEG
subject-05,2,80,0.680454969406128,boat,bear,2-10-10,1360_eid_s05_2-10-10_bear_10_n02134418_7580.JPEG
subject-05,2,81,1.45916604995728,clock,keyboard,8-0-10,1361_eid_s05_8-0-10_keyboard_10_n04505470_8251.JPEG
subject-05,2,82,0.660907983779907,oven,knife,32-3-10,1362_eid_s05_32-3-10_knife_10_n03041632_2153.JPEG
subject-05,2,83,1.07594084739685,bird,clock,128-10-10,1363_eid_s05_128-10-10_clock_10_n04548280_7258.JPEG
subject-05,2,84,0.824357032775879,dog,dog,8-0-10,1364_eid_s05_8-0-10_dog_10_n02113799_9997.JPEG
subject-05,2,85,0.678151845932007,knife,knife,1-10-10,1365_eid_s05_1-10-10_knife_10_n03041632_33739.JPEG
subject-05,2,86,0.889344930648804,truck,truck,1-0-10,1366_eid_s05_1-0-10_truck_10_n03796401_5729.JPEG
subject-05,2,87,1.38591599464417,bicycle,bicycle,1-3-10,1367_eid_s05_1-3-10_bicycle_10_n03792782_14230.JPEG
subject-05,2,88,0.463747024536133,cat,bear,64-0-10,1368_eid_s05_64-0-10_bear_10_n02134418_282.JPEG
subject-05,2,89,0.617017030715942,boat,airplane,32-10-10,1369_eid_s05_32-10-10_airplane_10_n02690373_19107.JPEG
subject-05,2,90,1.03557801246643,clock,clock,4-3-10,1370_eid_s05_4-3-10_clock_10_n02708093_1400.JPEG
subject-05,2,91,0.683829069137573,bicycle,truck,128-10-10,1371_eid_s05_128-10-10_truck_10_n03796401_7527.JPEG
subject-05,2,92,0.458781003952026,oven,clock,16-0-10,1372_eid_s05_16-0-10_clock_10_n02708093_597.JPEG
subject-05,2,93,0.769812107086182,cat,boat,8-0-10,1373_eid_s05_8-0-10_boat_10_n04612504_27571.JPEG
subject-05,2,94,0.892843961715698,elephant,chair,128-10-10,1374_eid_s05_128-10-10_chair_10_n02791124_5859.JPEG
subject-05,2,95,1.04132294654846,truck,truck,1-0-10,1375_eid_s05_1-0-10_truck_10_n03417042_12836.JPEG
subject-05,2,96,0.59835410118103,bear,car,128-10-10,1376_eid_s05_128-10-10_car_10_n03100240_5834.JPEG
subject-05,2,97,0.562412023544312,cat,bottle,64-10-10,1377_eid_s05_64-10-10_bottle_10_n02823428_1158.JPEG
subject-05,2,98,0.530738115310669,airplane,airplane,1-3-10,1378_eid_s05_1-3-10_airplane_10_n02690373_2544.JPEG
subject-05,2,99,1.05571699142456,truck,truck,1-10-10,1379_eid_s05_1-10-10_truck_10_n03417042_5110.JPEG
subject-05,2,100,0.762943029403687,bicycle,bicycle,2-10-10,1380_eid_s05_2-10-10_bicycle_10_n03792782_28292.JPEG
subject-05,2,101,0.502676963806152,clock,cat,32-0-10,1381_eid_s05_32-0-10_cat_10_n02123394_2870.JPEG
subject-05,2,102,0.467592000961304,boat,bird,16-3-10,1382_eid_s05_16-3-10_bird_10_n01843383_7766.JPEG
subject-05,2,103,0.553761005401611,cat,oven,1-0-10,1383_eid_s05_1-0-10_oven_10_n04111531_7168.JPEG
subject-05,2,104,0.531600952148438,cat,bird,128-0-10,1384_eid_s05_128-0-10_bird_10_n02009229_917.JPEG
subject-05,2,105,0.72626805305481,bicycle,bicycle,2-0-10,1385_eid_s05_2-0-10_bicycle_10_n03792782_7182.JPEG
subject-05,2,106,0.444052934646606,boat,dog,64-10-10,1386_eid_s05_64-10-10_dog_10_n02086240_3646.JPEG
subject-05,2,107,0.921905040740967,bird,airplane,64-3-10,1387_eid_s05_64-3-10_airplane_10_n02690373_3956.JPEG
subject-05,2,108,0.708310127258301,car,cat,16-3-10,1388_eid_s05_16-3-10_cat_10_n02123394_720.JPEG
subject-05,2,109,0.818916082382202,bear,car,16-0-10,1389_eid_s05_16-0-10_car_10_n02814533_13150.JPEG
subject-05,2,110,0.705412149429321,oven,boat,16-10-10,1390_eid_s05_16-10-10_boat_10_n03662601_5171.JPEG
subject-05,2,111,0.708197116851807,clock,airplane,16-0-10,1391_eid_s05_16-0-10_airplane_10_n02690373_2091.JPEG
subject-05,2,112,0.648297071456909,clock,clock,8-3-10,1392_eid_s05_8-3-10_clock_10_n02708093_3662.JPEG
subject-05,2,113,0.891117095947266,truck,car,128-0-10,1393_eid_s05_128-0-10_car_10_n02814533_5916.JPEG
subject-05,2,114,0.645589113235474,car,knife,16-10-10,1394_eid_s05_16-10-10_knife_10_n03041632_54191.JPEG
subject-05,2,115,1.263916015625,bird,bird,1-10-10,1395_eid_s05_1-10-10_bird_10_n01532829_20318.JPEG
subject-05,2,116,0.70137095451355,bicycle,bicycle,2-0-10,1396_eid_s05_2-0-10_bicycle_10_n03792782_5466.JPEG
subject-05,2,117,0.90822696685791,cat,bottle,16-10-10,1397_eid_s05_16-10-10_bottle_10_n03983396_1147.JPEG
subject-05,2,118,0.681293964385986,bear,bear,128-10-10,1398_eid_s05_128-10-10_bear_10_n02134084_7147.JPEG
subject-05,2,119,0.813607931137085,truck,truck,1-0-10,1399_eid_s05_1-0-10_truck_10_n03417042_14459.JPEG
subject-05,2,120,0.545316934585571,cat,oven,128-0-10,1400_eid_s05_128-0-10_oven_10_n04111531_1674.JPEG
subject-05,2,121,0.547910928726196,boat,truck,64-0-10,1401_eid_s05_64-0-10_truck_10_n04467665_62439.JPEG
subject-05,2,122,0.618134021759033,car,car,8-10-10,1402_eid_s05_8-10-10_car_10_n03100240_3029.JPEG
subject-05,2,123,0.506901979446411,clock,oven,1-0-10,1403_eid_s05_1-0-10_oven_10_n04111531_2427.JPEG
subject-05,2,124,0.745997905731201,bottle,bottle,8-3-10,1404_eid_s05_8-3-10_bottle_10_n03937543_3158.JPEG
subject-05,2,125,0.708822011947632,boat,knife,16-10-10,1405_eid_s05_16-10-10_knife_10_n03041632_29338.JPEG
subject-05,2,126,0.939225912094116,knife,knife,1-10-10,1406_eid_s05_1-10-10_knife_10_n03041632_13194.JPEG
subject-05,2,127,0.54706597328186,cat,boat,32-10-10,1407_eid_s05_32-10-10_boat_10_n02951358_8187.JPEG
subject-05,2,128,0.570873975753784,boat,dog,1-3-10,1408_eid_s05_1-3-10_dog_10_n02102040_5845.JPEG
subject-05,2,129,0.735665082931519,cat,cat,8-3-10,1409_eid_s05_8-3-10_cat_10_n02124075_13894.JPEG
subject-05,2,130,0.828984022140503,car,car,4-0-10,1410_eid_s05_4-0-10_car_10_n03100240_10049.JPEG
subject-05,2,131,0.885504007339478,keyboard,elephant,8-0-10,1411_eid_s05_8-0-10_elephant_10_n02504458_10160.JPEG
subject-05,2,132,0.62291693687439,chair,bicycle,64-0-10,1412_eid_s05_64-0-10_bicycle_10_n02835271_1851.JPEG
subject-05,2,133,0.811495065689087,dog,dog,2-3-10,1413_eid_s05_2-3-10_dog_10_n02107574_1489.JPEG
subject-05,2,134,0.613862991333008,bottle,knife,4-0-10,1414_eid_s05_4-0-10_knife_10_n03041632_18863.JPEG
subject-05,2,135,0.530861854553223,boat,knife,16-0-10,1415_eid_s05_16-0-10_knife_10_n03041632_3247.JPEG
subject-05,2,136,0.502774000167847,cat,knife,128-10-10,1416_eid_s05_128-10-10_knife_10_n03041632_13130.JPEG
subject-05,2,137,0.464689970016479,clock,clock,1-10-10,1417_eid_s05_1-10-10_clock_10_n04548280_7211.JPEG
subject-05,2,138,0.829668045043945,car,truck,4-3-10,1418_eid_s05_4-3-10_truck_10_n03417042_15078.JPEG
subject-05,2,139,0.852828025817871,bear,bear,2-3-10,1419_eid_s05_2-3-10_bear_10_n02134418_4189.JPEG
subject-05,2,140,0.539610147476196,oven,car,128-0-10,1420_eid_s05_128-0-10_car_10_n02814533_93804.JPEG
subject-05,2,141,0.517513036727905,boat,boat,1-0-10,1421_eid_s05_1-0-10_boat_10_n03344393_3824.JPEG
subject-05,2,142,0.989841938018799,bird,bird,8-10-10,1422_eid_s05_8-10-10_bird_10_n01843383_786.JPEG
subject-05,2,143,0.519575119018555,bear,oven,16-0-10,1423_eid_s05_16-0-10_oven_10_n04111531_9041.JPEG
subject-05,2,144,0.584125995635986,clock,clock,8-3-10,1424_eid_s05_8-3-10_clock_10_n04548280_2291.JPEG
subject-05,2,145,0.608023166656494,oven,chair,4-0-10,1425_eid_s05_4-0-10_chair_10_n04429376_2478.JPEG
subject-05,2,146,0.48845386505127,boat,chair,64-0-10,1426_eid_s05_64-0-10_chair_10_n04099969_6221.JPEG
subject-05,2,147,0.93022894859314,airplane,airplane,8-0-10,1427_eid_s05_8-0-10_airplane_10_n02690373_6002.JPEG
subject-05,2,148,1.39283514022827,bicycle,chair,4-10-10,1428_eid_s05_4-10-10_chair_10_n03376595_2694.JPEG
subject-05,2,149,0.749632120132446,bottle,bottle,8-3-10,1429_eid_s05_8-3-10_bottle_10_n04560804_1417.JPEG
subject-05,2,150,1.25175404548645,dog,dog,16-10-10,1430_eid_s05_16-10-10_dog_10_n02106030_24629.JPEG
subject-05,2,151,0.867678880691528,car,car,1-10-10,1431_eid_s05_1-10-10_car_10_n02814533_84536.JPEG
subject-05,2,152,1.50029706954956,airplane,airplane,2-3-10,1432_eid_s05_2-3-10_airplane_10_n02690373_10455.JPEG
subject-05,2,153,0.540736198425293,clock,clock,1-10-10,1433_eid_s05_1-10-10_clock_10_n04548280_1230.JPEG
subject-05,2,154,0.604374885559082,boat,airplane,128-10-10,1434_eid_s05_128-10-10_airplane_10_n02690373_3511.JPEG
subject-05,2,155,0.683431148529053,bird,oven,128-10-10,1435_eid_s05_128-10-10_oven_10_n04111531_4407.JPEG
subject-05,2,156,0.770233154296875,bear,chair,32-0-10,1436_eid_s05_32-0-10_chair_10_n04099969_8595.JPEG
subject-05,2,157,0.7726731300354,truck,truck,2-10-10,1437_eid_s05_2-10-10_truck_10_n03796401_3900.JPEG
subject-05,2,158,0.734169960021973,airplane,truck,16-10-10,1438_eid_s05_16-10-10_truck_10_n04467665_69063.JPEG
subject-05,2,159,0.704609870910645,bottle,bottle,2-3-10,1439_eid_s05_2-3-10_bottle_10_n03983396_2388.JPEG
subject-05,2,160,0.560841083526611,chair,chair,32-3-10,1440_eid_s05_32-3-10_chair_10_n04429376_1528.JPEG
subject-05,2,161,1.49296402931213,bird,bird,1-3-10,1441_eid_s05_1-3-10_bird_10_n02006656_4793.JPEG
subject-05,2,162,0.987659931182861,clock,clock,1-10-10,1442_eid_s05_1-10-10_clock_10_n04548280_6467.JPEG
subject-05,2,163,0.679950952529907,cat,cat,2-3-10,1443_eid_s05_2-3-10_cat_10_n02123045_3298.JPEG
subject-05,2,164,0.490979909896851,boat,bear,128-3-10,1444_eid_s05_128-3-10_bear_10_n02132136_13623.JPEG
subject-05,2,165,0.568867921829224,bear,chair,32-10-10,1445_eid_s05_32-10-10_chair_10_n03376595_1024.JPEG
subject-05,2,166,0.401422023773193,clock,keyboard,8-0-10,1446_eid_s05_8-0-10_keyboard_10_n03085013_19197.JPEG
subject-05,2,167,0.573661088943481,oven,boat,32-10-10,1447_eid_s05_32-10-10_boat_10_n04612504_4865.JPEG
subject-05,2,168,0.757752895355225,chair,chair,2-3-10,1448_eid_s05_2-3-10_chair_10_n02791124_5690.JPEG
subject-05,2,169,0.4689621925354,boat,elephant,128-0-10,1449_eid_s05_128-0-10_elephant_10_n02504013_10901.JPEG
subject-05,2,170,0.479383945465088,cat,airplane,64-3-10,1450_eid_s05_64-3-10_airplane_10_n02690373_1751.JPEG
subject-05,2,171,0.77193284034729,car,bottle,64-3-10,1451_eid_s05_64-3-10_bottle_10_n03983396_15725.JPEG
subject-05,2,172,0.719504117965698,oven,oven,2-0-10,1452_eid_s05_2-0-10_oven_10_n04111531_22203.JPEG
subject-05,2,173,1.06895112991333,clock,car,128-10-10,1453_eid_s05_128-10-10_car_10_n02814533_79696.JPEG
subject-05,2,174,0.617386102676392,bear,cat,32-3-10,1454_eid_s05_32-3-10_cat_10_n02123394_6519.JPEG
subject-05,2,175,0.549935102462769,boat,bicycle,32-0-10,1455_eid_s05_32-0-10_bicycle_10_n03792782_2649.JPEG
subject-05,2,176,0.612107992172241,bird,bird,8-10-10,1456_eid_s05_8-10-10_bird_10_n01828970_5394.JPEG
subject-05,2,177,0.730762004852295,bicycle,bicycle,2-3-10,1457_eid_s05_2-3-10_bicycle_10_n03792782_7099.JPEG
subject-05,2,178,0.909415006637573,dog,dog,8-3-10,1458_eid_s05_8-3-10_dog_10_n02093754_3358.JPEG
subject-05,2,179,0.833721876144409,dog,elephant,64-10-10,1459_eid_s05_64-10-10_elephant_10_n02504013_2631.JPEG
subject-05,2,180,1.17410492897034,cat,bottle,16-10-10,1460_eid_s05_16-10-10_bottle_10_n04557648_14826.JPEG
subject-05,2,181,0.553225040435791,bird,airplane,64-10-10,1461_eid_s05_64-10-10_airplane_10_n02690373_5247.JPEG
subject-05,2,182,0.917802095413208,chair,chair,4-0-10,1462_eid_s05_4-0-10_chair_10_n02791124_381.JPEG
subject-05,2,183,0.912147045135498,airplane,airplane,4-10-10,1463_eid_s05_4-10-10_airplane_10_n02690373_5253.JPEG
subject-05,2,184,0.620814085006714,bear,elephant,16-0-10,1464_eid_s05_16-0-10_elephant_10_n02504013_8262.JPEG
subject-05,2,185,0.601593017578125,car,bird,64-0-10,1465_eid_s05_64-0-10_bird_10_n01558993_2755.JPEG
subject-05,2,186,0.476995944976807,truck,dog,32-3-10,1466_eid_s05_32-3-10_dog_10_n02099849_3799.JPEG
subject-05,2,187,0.458003997802734,bicycle,bicycle,64-0-10,1467_eid_s05_64-0-10_bicycle_10_n03792782_50646.JPEG
subject-05,2,188,0.829238176345825,bear,bear,8-3-10,1468_eid_s05_8-3-10_bear_10_n02134084_2865.JPEG
subject-05,2,189,0.583139181137085,car,truck,16-0-10,1469_eid_s05_16-0-10_truck_10_n04467665_51522.JPEG
subject-05,2,190,0.571587085723877,cat,oven,32-10-10,1470_eid_s05_32-10-10_oven_10_n04111531_716.JPEG
subject-05,2,191,0.642080068588257,boat,oven,16-0-10,1471_eid_s05_16-0-10_oven_10_n04111531_5216.JPEG
subject-05,2,192,0.50472617149353,clock,chair,16-10-10,1472_eid_s05_16-10-10_chair_10_n04099969_5876.JPEG
subject-05,2,193,0.620223999023438,bear,clock,128-10-10,1473_eid_s05_128-10-10_clock_10_n04548280_1565.JPEG
subject-05,2,194,0.682540893554688,bottle,dog,32-3-10,1474_eid_s05_32-3-10_dog_10_n02106166_18774.JPEG
subject-05,2,195,0.609147071838379,oven,bird,32-3-10,1475_eid_s05_32-3-10_bird_10_n01797886_15970.JPEG
subject-05,2,196,0.801582098007202,keyboard,keyboard,2-10-10,1476_eid_s05_2-10-10_keyboard_10_n03085013_20906.JPEG
subject-05,2,197,0.587805986404419,boat,airplane,128-3-10,1477_eid_s05_128-3-10_airplane_10_n02690373_2923.JPEG
subject-05,2,198,1.31986308097839,oven,elephant,8-0-10,1478_eid_s05_8-0-10_elephant_10_n02504458_7171.JPEG
subject-05,2,199,0.56023097038269,clock,clock,8-3-10,1479_eid_s05_8-3-10_clock_10_n02708093_4138.JPEG
subject-05,2,200,0.530969858169556,boat,car,64-0-10,1480_eid_s05_64-0-10_car_10_n04285008_12754.JPEG
subject-05,2,201,0.779546976089478,car,car,2-0-10,1481_eid_s05_2-0-10_car_10_n04285008_2108.JPEG
subject-05,2,202,0.68804407119751,bicycle,bicycle,4-3-10,1482_eid_s05_4-3-10_bicycle_10_n02835271_7911.JPEG
subject-05,2,203,0.553494930267334,boat,keyboard,128-10-10,1483_eid_s05_128-10-10_keyboard_10_n03085013_30166.JPEG
subject-05,2,204,0.515414953231812,boat,boat,1-0-10,1484_eid_s05_1-0-10_boat_10_n03662601_2980.JPEG
subject-05,2,205,1.06331610679626,knife,knife,2-0-10,1485_eid_s05_2-0-10_knife_10_n03041632_23087.JPEG
subject-05,2,206,0.5177161693573,boat,knife,16-0-10,1486_eid_s05_16-0-10_knife_10_n03041632_3781.JPEG
subject-05,2,207,0.666188955307007,chair,chair,1-3-10,1487_eid_s05_1-3-10_chair_10_n03376595_19348.JPEG
subject-05,2,208,0.498125791549683,bear,keyboard,128-3-10,1488_eid_s05_128-3-10_keyboard_10_n03085013_805.JPEG
subject-05,2,209,0.744879007339478,truck,bottle,16-0-10,1489_eid_s05_16-0-10_bottle_10_n03983396_3497.JPEG
subject-05,2,210,0.63121485710144,car,car,32-10-10,1490_eid_s05_32-10-10_car_10_n03100240_6481.JPEG
subject-05,2,211,0.733922004699707,keyboard,keyboard,8-3-10,1491_eid_s05_8-3-10_keyboard_10_n04505470_464.JPEG
subject-05,2,212,0.942742109298706,cat,cat,1-10-10,1492_eid_s05_1-10-10_cat_10_n02125311_13065.JPEG
subject-05,2,213,0.583683967590332,boat,bear,128-10-10,1493_eid_s05_128-10-10_bear_10_n02133161_15122.JPEG
subject-05,2,214,1.10762286186218,chair,bird,16-3-10,1494_eid_s05_16-3-10_bird_10_n01824575_4611.JPEG
subject-05,2,215,0.664463996887207,bicycle,truck,16-10-10,1495_eid_s05_16-10-10_truck_10_n03796401_2949.JPEG
subject-05,2,216,0.494134187698364,boat,clock,128-10-10,1496_eid_s05_128-10-10_clock_10_n04548280_6290.JPEG
subject-05,2,217,0.695916891098022,bottle,bottle,2-3-10,1497_eid_s05_2-3-10_bottle_10_n04579145_3924.JPEG
subject-05,2,218,0.712789058685303,airplane,airplane,1-0-10,1498_eid_s05_1-0-10_airplane_10_n02690373_5992.JPEG
subject-05,2,219,0.67746901512146,car,truck,128-10-10,1499_eid_s05_128-10-10_truck_10_n03417042_19076.JPEG
subject-05,2,220,0.869080066680908,truck,truck,1-3-10,1500_eid_s05_1-3-10_truck_10_n03417042_8192.JPEG
subject-05,2,221,0.593655109405518,clock,clock,1-3-10,1501_eid_s05_1-3-10_clock_10_n04548280_2150.JPEG
subject-05,2,222,0.62105393409729,bear,truck,8-0-10,1502_eid_s05_8-0-10_truck_10_n04467665_2199.JPEG
subject-05,2,223,1.26716303825378,bottle,clock,2-0-10,1503_eid_s05_2-0-10_clock_10_n03196217_11435.JPEG
subject-05,2,224,0.640069961547852,oven,airplane,4-0-10,1504_eid_s05_4-0-10_airplane_10_n02690373_1167.JPEG
subject-05,2,225,0.718549013137817,chair,chair,2-3-10,1505_eid_s05_2-3-10_chair_10_n03376595_1601.JPEG
subject-05,2,226,0.497109174728394,clock,oven,8-0-10,1506_eid_s05_8-0-10_oven_10_n04111531_9380.JPEG
subject-05,2,227,0.467556953430176,boat,cat,32-0-10,1507_eid_s05_32-0-10_cat_10_n02124075_8431.JPEG
subject-05,2,228,0.569847106933594,keyboard,bicycle,16-0-10,1508_eid_s05_16-0-10_bicycle_10_n03792782_3613.JPEG
subject-05,2,229,0.516902923583984,car,boat,16-3-10,1509_eid_s05_16-3-10_boat_10_n02951358_29325.JPEG
subject-05,2,230,0.889755964279175,airplane,keyboard,8-3-10,1510_eid_s05_8-3-10_keyboard_10_n04505470_6814.JPEG
subject-05,2,231,0.559679985046387,cat,cat,2-10-10,1511_eid_s05_2-10-10_cat_10_n02123159_3918.JPEG
subject-05,2,232,1.13055396080017,bird,bird,2-0-10,1512_eid_s05_2-0-10_bird_10_n02025239_5210.JPEG
subject-05,2,233,0.659656047821045,bear,knife,32-3-10,1513_eid_s05_32-3-10_knife_10_n03041632_29355.JPEG
subject-05,2,234,0.762366056442261,airplane,airplane,4-10-10,1514_eid_s05_4-10-10_airplane_10_n02690373_1386.JPEG
subject-05,2,235,0.832797050476074,bicycle,knife,2-0-10,1515_eid_s05_2-0-10_knife_10_n03041632_80829.JPEG
subject-05,2,236,0.902639865875244,bird,bird,4-3-10,1516_eid_s05_4-3-10_bird_10_n01860187_510.JPEG
subject-05,2,237,0.757587909698486,car,car,4-3-10,1517_eid_s05_4-3-10_car_10_n03100240_16439.JPEG
subject-05,2,238,0.735997915267944,bicycle,bicycle,1-0-10,1518_eid_s05_1-0-10_bicycle_10_n03792782_12603.JPEG
subject-05,2,239,0.484793186187744,boat,oven,32-0-10,1519_eid_s05_32-0-10_oven_10_n04111531_594.JPEG
subject-05,2,240,0.555627107620239,cat,chair,128-10-10,1520_eid_s05_128-10-10_chair_10_n02791124_9525.JPEG
subject-05,2,241,0.912077903747559,keyboard,keyboard,4-3-10,1521_eid_s05_4-3-10_keyboard_10_n03085013_23144.JPEG
subject-05,2,242,0.550740957260132,boat,bird,16-10-10,1522_eid_s05_16-10-10_bird_10_n01797886_1805.JPEG
subject-05,2,243,0.698663949966431,bear,dog,64-10-10,1523_eid_s05_64-10-10_dog_10_n02098286_4767.JPEG
subject-05,2,244,0.740131855010986,airplane,airplane,2-10-10,1524_eid_s05_2-10-10_airplane_10_n02690373_5007.JPEG
subject-05,2,245,1.11004209518433,bottle,bottle,16-10-10,1525_eid_s05_16-10-10_bottle_10_n04557648_26820.JPEG
subject-05,2,246,0.712846994400024,bicycle,bicycle,8-10-10,1526_eid_s05_8-10-10_bicycle_10_n03792782_14531.JPEG
subject-05,2,247,0.745277881622314,boat,car,64-3-10,1527_eid_s05_64-3-10_car_10_n04285008_9893.JPEG
subject-05,2,248,0.600317001342773,car,cat,32-0-10,1528_eid_s05_32-0-10_cat_10_n02124075_6457.JPEG
subject-05,2,249,0.716250896453857,bear,cat,128-10-10,1529_eid_s05_128-10-10_cat_10_n02123597_13890.JPEG
subject-05,2,250,0.919064044952393,oven,knife,64-10-10,1530_eid_s05_64-10-10_knife_10_n03041632_131.JPEG
subject-05,2,251,0.605216979980469,bicycle,bicycle,16-10-10,1531_eid_s05_16-10-10_bicycle_10_n02835271_4619.JPEG
subject-05,2,252,0.513750076293945,cat,keyboard,32-0-10,1532_eid_s05_32-0-10_keyboard_10_n03085013_20849.JPEG
subject-05,2,253,0.84539794921875,knife,knife,4-3-10,1533_eid_s05_4-3-10_knife_10_n03041632_3171.JPEG
subject-05,2,254,0.724161148071289,oven,dog,64-3-10,1534_eid_s05_64-3-10_dog_10_n02096585_1446.JPEG
subject-05,2,255,1.48664999008179,cat,bear,4-3-10,1535_eid_s05_4-3-10_bear_10_n02134418_4497.JPEG
subject-05,2,256,0.87354302406311,cat,chair,128-10-10,1536_eid_s05_128-10-10_chair_10_n03376595_6999.JPEG
subject-05,2,257,1.03693389892578,dog,dog,2-0-10,1537_eid_s05_2-0-10_dog_10_n02091831_5058.JPEG
subject-05,2,258,0.569947004318237,cat,knife,128-10-10,1538_eid_s05_128-10-10_knife_10_n03041632_4305.JPEG
subject-05,2,259,0.468591928482056,boat,oven,64-3-10,1539_eid_s05_64-3-10_oven_10_n04111531_3345.JPEG
subject-05,2,260,0.476703882217407,clock,boat,16-0-10,1540_eid_s05_16-0-10_boat_10_n02951358_2118.JPEG
subject-05,2,261,0.815509080886841,chair,chair,4-10-10,1541_eid_s05_4-10-10_chair_10_n04099969_9891.JPEG
subject-05,2,262,0.725538969039917,car,car,1-10-10,1542_eid_s05_1-10-10_car_10_n03100240_5093.JPEG
subject-05,2,263,0.487643957138062,bear,truck,32-0-10,1543_eid_s05_32-0-10_truck_10_n03417042_6213.JPEG
subject-05,2,264,0.550613880157471,oven,cat,16-0-10,1544_eid_s05_16-0-10_cat_10_n02123394_2693.JPEG
subject-05,2,265,0.452900886535645,clock,knife,32-10-10,1545_eid_s05_32-10-10_knife_10_n03041632_18601.JPEG
subject-05,2,266,0.76141619682312,bird,bird,2-10-10,1546_eid_s05_2-10-10_bird_10_n01560419_458.JPEG
subject-05,2,267,0.73999285697937,elephant,elephant,2-0-10,1547_eid_s05_2-0-10_elephant_10_n02504013_18498.JPEG
subject-05,2,268,0.688693046569824,car,car,8-10-10,1548_eid_s05_8-10-10_car_10_n02814533_88986.JPEG
subject-05,2,269,0.566977024078369,boat,dog,16-0-10,1549_eid_s05_16-0-10_dog_10_n02093256_870.JPEG
subject-05,2,270,0.616090059280396,bear,chair,128-3-10,1550_eid_s05_128-3-10_chair_10_n04099969_23718.JPEG
subject-05,2,271,0.762294054031372,elephant,elephant,2-0-10,1551_eid_s05_2-0-10_elephant_10_n02504458_6302.JPEG
subject-05,2,272,0.587171077728271,boat,airplane,64-3-10,1552_eid_s05_64-3-10_airplane_10_n02690373_7615.JPEG
subject-05,2,273,0.536058902740479,clock,bicycle,32-0-10,1553_eid_s05_32-0-10_bicycle_10_n02835271_9860.JPEG
subject-05,2,274,0.751708984375,car,car,1-10-10,1554_eid_s05_1-10-10_car_10_n02814533_27942.JPEG
subject-05,2,275,1.11329507827759,bottle,knife,4-3-10,1555_eid_s05_4-3-10_knife_10_n03041632_83826.JPEG
subject-05,2,276,0.613852977752686,bear,elephant,32-3-10,1556_eid_s05_32-3-10_elephant_10_n02504013_476.JPEG
subject-05,2,277,0.662286043167114,elephant,elephant,2-3-10,1557_eid_s05_2-3-10_elephant_10_n02504458_8015.JPEG
subject-05,2,278,0.532943964004517,boat,knife,16-0-10,1558_eid_s05_16-0-10_knife_10_n03041632_20662.JPEG
subject-05,2,279,0.565536975860596,cat,knife,16-3-10,1559_eid_s05_16-3-10_knife_10_n03041632_11613.JPEG
subject-05,2,280,0.727986097335815,car,boat,16-3-10,1560_eid_s05_16-3-10_boat_10_n03662601_5160.JPEG
subject-05,2,281,0.876549959182739,truck,truck,4-3-10,1561_eid_s05_4-3-10_truck_10_n03796401_25386.JPEG
subject-05,2,282,0.716628074645996,bear,bear,4-0-10,1562_eid_s05_4-0-10_bear_10_n02132136_9980.JPEG
subject-05,2,283,0.525287866592407,boat,bottle,128-10-10,1563_eid_s05_128-10-10_bottle_10_n02823428_4758.JPEG
subject-05,2,284,1.36635684967041,dog,dog,2-3-10,1564_eid_s05_2-3-10_dog_10_n02101556_10061.JPEG
subject-05,2,285,0.50703501701355,clock,clock,8-10-10,1565_eid_s05_8-10-10_clock_10_n04548280_3022.JPEG
subject-05,2,286,0.761476993560791,cat,knife,128-0-10,1566_eid_s05_128-0-10_knife_10_n03041632_23678.JPEG
subject-05,2,287,0.447345972061157,boat,airplane,64-3-10,1567_eid_s05_64-3-10_airplane_10_n02690373_4144.JPEG
subject-05,2,288,0.89401912689209,bear,chair,128-3-10,1568_eid_s05_128-3-10_chair_10_n04099969_2420.JPEG
subject-05,2,289,0.572497844696045,airplane,airplane,2-10-10,1569_eid_s05_2-10-10_airplane_10_n02690373_11799.JPEG
subject-05,2,290,0.634963035583496,airplane,airplane,1-10-10,1570_eid_s05_1-10-10_airplane_10_n02690373_6716.JPEG
subject-05,2,291,0.675525903701782,bird,bird,2-0-10,1571_eid_s05_2-0-10_bird_10_n01530575_10406.JPEG
subject-05,2,292,0.54029107093811,boat,car,32-0-10,1572_eid_s05_32-0-10_car_10_n02814533_49142.JPEG
subject-05,2,293,1.5002908706665,knife,knife,2-3-10,1573_eid_s05_2-3-10_knife_10_n03041632_27898.JPEG
subject-05,2,294,0.535258054733276,cat,keyboard,16-10-10,1574_eid_s05_16-10-10_keyboard_10_n03085013_19345.JPEG
subject-05,2,295,0.673898935317993,dog,dog,2-3-10,1575_eid_s05_2-3-10_dog_10_n02105056_14533.JPEG
subject-05,2,296,0.67624306678772,boat,bird,16-0-10,1576_eid_s05_16-0-10_bird_10_n01855672_14587.JPEG
subject-05,2,297,0.83891487121582,cat,car,16-3-10,1577_eid_s05_16-3-10_car_10_n02814533_89154.JPEG
subject-05,2,298,0.609595060348511,bird,bird,4-10-10,1578_eid_s05_4-10-10_bird_10_n02028035_5282.JPEG
subject-05,2,299,0.895992994308472,elephant,elephant,2-3-10,1579_eid_s05_2-3-10_elephant_10_n02504458_2965.JPEG
subject-05,2,300,1.00422811508179,cat,bird,4-3-10,1580_eid_s05_4-3-10_bird_10_n01601694_11879.JPEG
subject-05,2,301,1.15845489501953,truck,truck,2-3-10,1581_eid_s05_2-3-10_truck_10_n03417042_27776.JPEG
subject-05,2,302,0.784847974777222,clock,car,64-0-10,1582_eid_s05_64-0-10_car_10_n04285008_13291.JPEG
subject-05,2,303,0.664520978927612,clock,clock,4-0-10,1583_eid_s05_4-0-10_clock_10_n04548280_1314.JPEG
subject-05,2,304,0.648252964019775,boat,boat,2-0-10,1584_eid_s05_2-0-10_boat_10_n03344393_3633.JPEG
subject-05,2,305,0.720774173736572,cat,cat,1-10-10,1585_eid_s05_1-10-10_cat_10_n02124075_8197.JPEG
subject-05,2,306,0.845840930938721,bear,oven,128-3-10,1586_eid_s05_128-3-10_oven_10_n04111531_2150.JPEG
subject-05,2,307,1.23031210899353,oven,oven,1-3-10,1587_eid_s05_1-3-10_oven_10_n04111531_7430.JPEG
subject-05,2,308,0.540746927261353,boat,knife,8-3-10,1588_eid_s05_8-3-10_knife_10_n03041632_38996.JPEG
subject-05,2,309,0.679167985916138,clock,clock,1-0-10,1589_eid_s05_1-0-10_clock_10_n04548280_750.JPEG
subject-05,2,310,0.919469118118286,elephant,elephant,4-3-10,1590_eid_s05_4-3-10_elephant_10_n02504013_21877.JPEG
subject-05,2,311,0.811124086380005,bear,chair,128-10-10,1591_eid_s05_128-10-10_chair_10_n04429376_2936.JPEG
subject-05,2,312,0.482732057571411,clock,airplane,64-0-10,1592_eid_s05_64-0-10_airplane_10_n02690373_7944.JPEG
subject-05,2,313,0.869375944137573,bicycle,car,16-3-10,1593_eid_s05_16-3-10_car_10_n02814533_6660.JPEG
subject-05,2,314,0.724260091781616,boat,keyboard,4-10-10,1594_eid_s05_4-10-10_keyboard_10_n03085013_22527.JPEG
subject-05,2,315,0.888830900192261,chair,chair,1-10-10,1595_eid_s05_1-10-10_chair_10_n03376595_849.JPEG
subject-05,2,316,0.565412044525146,boat,boat,1-10-10,1596_eid_s05_1-10-10_boat_10_n03344393_9255.JPEG
subject-05,2,317,0.705756187438965,oven,bird,16-10-10,1597_eid_s05_16-10-10_bird_10_n02025239_1218.JPEG
subject-05,2,318,0.492425918579102,cat,clock,32-3-10,1598_eid_s05_32-3-10_clock_10_n02708093_2545.JPEG
subject-05,2,319,0.822666168212891,bear,bird,64-3-10,1599_eid_s05_64-3-10_bird_10_n02002724_12151.JPEG
subject-05,2,320,1.0854229927063,keyboard,bird,16-3-10,1600_eid_s05_16-3-10_bird_10_n01532829_4616.JPEG
subject-05,2,321,0.979565143585205,keyboard,clock,1-3-10,1601_eid_s05_1-3-10_clock_10_n04548280_4599.JPEG
subject-05,2,322,1.34622693061829,bottle,bottle,8-10-10,1602_eid_s05_8-10-10_bottle_10_n02823428_3242.JPEG
subject-05,2,323,0.678615093231201,car,boat,16-3-10,1603_eid_s05_16-3-10_boat_10_n04273569_13420.JPEG
subject-05,2,324,0.979878902435303,dog,dog,4-10-10,1604_eid_s05_4-10-10_dog_10_n02110806_9841.JPEG
subject-05,2,325,0.711611032485962,cat,cat,4-10-10,1605_eid_s05_4-10-10_cat_10_n02124075_4425.JPEG
subject-05,2,326,1.11280012130737,cat,boat,4-3-10,1606_eid_s05_4-3-10_boat_10_n04612504_2167.JPEG
subject-05,2,327,1.18309807777405,chair,chair,16-10-10,1607_eid_s05_16-10-10_chair_10_n03376595_9856.JPEG
subject-05,2,328,0.901612997055054,bear,car,32-3-10,1608_eid_s05_32-3-10_car_10_n03100240_10244.JPEG
subject-05,2,329,0.818437099456787,bird,dog,64-3-10,1609_eid_s05_64-3-10_dog_10_n02106030_14708.JPEG
subject-05,2,330,0.839613914489746,car,clock,16-3-10,1610_eid_s05_16-3-10_clock_10_n04548280_4894.JPEG
subject-05,2,331,0.798532009124756,airplane,airplane,8-10-10,1611_eid_s05_8-10-10_airplane_10_n02690373_3032.JPEG
subject-05,2,332,0.708858013153076,truck,truck,2-0-10,1612_eid_s05_2-0-10_truck_10_n03796401_2060.JPEG
subject-05,2,333,0.817617893218994,boat,keyboard,16-3-10,1613_eid_s05_16-3-10_keyboard_10_n04505470_2787.JPEG
subject-05,2,334,0.76373291015625,car,knife,32-3-10,1614_eid_s05_32-3-10_knife_10_n03041632_21345.JPEG
subject-05,2,335,0.588325023651123,cat,truck,16-3-10,1615_eid_s05_16-3-10_truck_10_n04467665_41282.JPEG
subject-05,2,336,0.653211116790771,airplane,airplane,8-10-10,1616_eid_s05_8-10-10_airplane_10_n02690373_9687.JPEG
subject-05,2,337,0.508090019226074,cat,dog,32-10-10,1617_eid_s05_32-10-10_dog_10_n02107312_6706.JPEG
subject-05,2,338,0.693353891372681,bottle,bottle,1-3-10,1618_eid_s05_1-3-10_bottle_10_n04591713_5595.JPEG
subject-05,2,339,0.885540962219238,bear,bear,2-0-10,1619_eid_s05_2-0-10_bear_10_n02133161_583.JPEG
subject-05,2,340,0.880620002746582,chair,chair,8-10-10,1620_eid_s05_8-10-10_chair_10_n02791124_3861.JPEG
subject-05,2,341,0.612662076950073,cat,bottle,32-0-10,1621_eid_s05_32-0-10_bottle_10_n04557648_8194.JPEG
subject-05,2,342,0.78436803817749,cat,dog,16-10-10,1622_eid_s05_16-10-10_dog_10_n02097658_1878.JPEG
subject-05,2,343,1.15468096733093,chair,chair,2-3-10,1623_eid_s05_2-3-10_chair_10_n03376595_7515.JPEG
subject-05,2,344,0.633699178695679,cat,bird,2-10-10,1624_eid_s05_2-10-10_bird_10_n02025239_6806.JPEG
subject-05,2,345,0.56571102142334,bear,bear,16-3-10,1625_eid_s05_16-3-10_bear_10_n02134418_2066.JPEG
subject-05,2,346,0.957747936248779,truck,truck,1-10-10,1626_eid_s05_1-10-10_truck_10_n04467665_749.JPEG
subject-05,2,347,0.628178834915161,car,elephant,64-10-10,1627_eid_s05_64-10-10_elephant_10_n02504458_2709.JPEG
subject-05,2,348,0.544672012329102,cat,car,8-0-10,1628_eid_s05_8-0-10_car_10_n04285008_1887.JPEG
subject-05,2,349,0.577615022659302,cat,cat,8-10-10,1629_eid_s05_8-10-10_cat_10_n02123597_12711.JPEG
subject-05,2,350,0.556228876113892,bear,bottle,64-10-10,1630_eid_s05_64-10-10_bottle_10_n04591713_6235.JPEG
subject-05,2,351,0.447027921676636,boat,clock,64-10-10,1631_eid_s05_64-10-10_clock_10_n03196217_1801.JPEG
subject-05,2,352,0.48913311958313,clock,clock,32-10-10,1632_eid_s05_32-10-10_clock_10_n04548280_7826.JPEG
subject-05,2,353,0.573451995849609,oven,bicycle,64-3-10,1633_eid_s05_64-3-10_bicycle_10_n02835271_5858.JPEG
subject-05,2,354,0.897826910018921,dog,dog,2-3-10,1634_eid_s05_2-3-10_dog_10_n02110063_9050.JPEG
subject-05,2,355,0.776403903961182,bird,bird,1-10-10,1635_eid_s05_1-10-10_bird_10_n01855672_8166.JPEG
subject-05,2,356,0.754769086837769,clock,cat,128-3-10,1636_eid_s05_128-3-10_cat_10_n02123159_4353.JPEG
subject-05,2,357,1.13132810592651,elephant,cat,8-0-10,1637_eid_s05_8-0-10_cat_10_n02125311_19419.JPEG
subject-05,2,358,0.533954858779907,boat,truck,64-3-10,1638_eid_s05_64-3-10_truck_10_n03796401_4168.JPEG
subject-05,2,359,0.958734035491943,elephant,knife,64-10-10,1639_eid_s05_64-10-10_knife_10_n03041632_16020.JPEG
subject-05,2,360,0.874974966049194,bear,keyboard,128-0-10,1640_eid_s05_128-0-10_keyboard_10_n03085013_26430.JPEG
subject-05,2,361,0.46986985206604,cat,chair,16-10-10,1641_eid_s05_16-10-10_chair_10_n03376595_7154.JPEG
subject-05,2,362,0.796497106552124,boat,airplane,16-0-10,1642_eid_s05_16-0-10_airplane_10_n02690373_693.JPEG
subject-05,2,363,1.19101309776306,bird,bird,1-0-10,1643_eid_s05_1-0-10_bird_10_n01534433_14277.JPEG
subject-05,2,364,0.645603895187378,car,cat,128-3-10,1644_eid_s05_128-3-10_cat_10_n02123045_1934.JPEG
subject-05,2,365,1.32342100143433,truck,car,16-10-10,1645_eid_s05_16-10-10_car_10_n03100240_16803.JPEG
subject-05,2,366,1.30035209655762,dog,dog,16-10-10,1646_eid_s05_16-10-10_dog_10_n02097209_7179.JPEG
subject-05,2,367,0.725049018859863,elephant,elephant,8-10-10,1647_eid_s05_8-10-10_elephant_10_n02504013_2770.JPEG
subject-05,2,368,1.15441203117371,chair,chair,8-10-10,1648_eid_s05_8-10-10_chair_10_n04429376_14691.JPEG
subject-05,2,369,0.548817873001099,boat,dog,64-3-10,1649_eid_s05_64-3-10_dog_10_n02095570_92.JPEG
subject-05,2,370,0.711829900741577,bear,clock,64-3-10,1650_eid_s05_64-3-10_clock_10_n04548280_2827.JPEG
subject-05,2,371,0.768615007400513,oven,airplane,128-0-10,1651_eid_s05_128-0-10_airplane_10_n02690373_18111.JPEG
subject-05,2,372,0.876598119735718,bicycle,bicycle,8-10-10,1652_eid_s05_8-10-10_bicycle_10_n02835271_15507.JPEG
subject-05,2,373,0.656499147415161,clock,bird,64-10-10,1653_eid_s05_64-10-10_bird_10_n02018207_7902.JPEG
subject-05,2,374,0.732441902160645,dog,cat,16-0-10,1654_eid_s05_16-0-10_cat_10_n02123597_7716.JPEG
subject-05,2,375,0.756630182266235,bicycle,knife,1-3-10,1655_eid_s05_1-3-10_knife_10_n03041632_28201.JPEG
subject-05,2,376,0.978250026702881,boat,airplane,16-0-10,1656_eid_s05_16-0-10_airplane_10_n02690373_12505.JPEG
subject-05,2,377,0.617790937423706,cat,chair,64-10-10,1657_eid_s05_64-10-10_chair_10_n04099969_22551.JPEG
subject-05,2,378,0.634414911270142,boat,knife,32-10-10,1658_eid_s05_32-10-10_knife_10_n03041632_3063.JPEG
subject-05,2,379,0.580836057662964,bear,oven,32-10-10,1659_eid_s05_32-10-10_oven_10_n04111531_2462.JPEG
subject-05,2,380,0.929317951202393,cat,keyboard,32-0-10,1660_eid_s05_32-0-10_keyboard_10_n03085013_23683.JPEG
subject-05,2,381,0.71422290802002,boat,bicycle,16-3-10,1661_eid_s05_16-3-10_bicycle_10_n02835271_2228.JPEG
subject-05,2,382,0.591901063919067,keyboard,knife,64-3-10,1662_eid_s05_64-3-10_knife_10_n03041632_62810.JPEG
subject-05,2,383,0.478839874267578,cat,cat,2-0-10,1663_eid_s05_2-0-10_cat_10_n02123159_644.JPEG
subject-05,2,384,0.579293966293335,bicycle,bird,16-3-10,1664_eid_s05_16-3-10_bird_10_n02006656_11360.JPEG
subject-05,2,385,1.27977800369263,bird,bottle,8-10-10,1665_eid_s05_8-10-10_bottle_10_n03937543_148.JPEG
subject-05,2,386,0.612128019332886,boat,knife,8-10-10,1666_eid_s05_8-10-10_knife_10_n03041632_24883.JPEG
subject-05,2,387,0.651010990142822,bear,bicycle,64-10-10,1667_eid_s05_64-10-10_bicycle_10_n03792782_6030.JPEG
subject-05,2,388,0.821506977081299,bird,bird,1-10-10,1668_eid_s05_1-10-10_bird_10_n01558993_4237.JPEG
subject-05,2,389,0.830283164978027,airplane,airplane,2-0-10,1669_eid_s05_2-0-10_airplane_10_n02690373_19131.JPEG
subject-05,2,390,0.770534038543701,boat,bird,32-10-10,1670_eid_s05_32-10-10_bird_10_n02027492_3072.JPEG
subject-05,2,391,0.579607009887695,keyboard,keyboard,8-3-10,1671_eid_s05_8-3-10_keyboard_10_n04505470_725.JPEG
subject-05,2,392,0.617766857147217,cat,truck,128-3-10,1672_eid_s05_128-3-10_truck_10_n03796401_1001.JPEG
subject-05,2,393,1.47685313224792,cat,dog,16-3-10,1673_eid_s05_16-3-10_dog_10_n02108915_5290.JPEG
subject-05,2,394,0.670947790145874,chair,chair,4-10-10,1674_eid_s05_4-10-10_chair_10_n04099969_40812.JPEG
subject-05,2,395,0.511416912078857,boat,truck,32-0-10,1675_eid_s05_32-0-10_truck_10_n03796401_21954.JPEG
subject-05,2,396,0.75550103187561,truck,bird,64-3-10,1676_eid_s05_64-3-10_bird_10_n02028035_5865.JPEG
subject-05,2,397,0.774070024490356,bottle,bottle,2-0-10,1677_eid_s05_2-0-10_bottle_10_n04591713_3839.JPEG
subject-05,2,398,0.796850919723511,oven,oven,2-0-10,1678_eid_s05_2-0-10_oven_10_n04111531_21173.JPEG
subject-05,2,399,1.16747999191284,chair,chair,8-10-10,1679_eid_s05_8-10-10_chair_10_n02791124_291.JPEG
subject-05,2,400,0.684001922607422,bird,bird,1-3-10,1680_eid_s05_1-3-10_bird_10_n02018207_37078.JPEG
subject-05,2,401,0.440754890441895,boat,dog,16-0-10,1681_eid_s05_16-0-10_dog_10_n02096051_1888.JPEG
subject-05,2,402,0.571099996566772,bicycle,bird,16-0-10,1682_eid_s05_16-0-10_bird_10_n02037110_11076.JPEG
subject-05,2,403,1.06514811515808,keyboard,truck,2-3-10,1683_eid_s05_2-3-10_truck_10_n04467665_8303.JPEG
subject-05,2,404,0.595485925674438,boat,elephant,32-10-10,1684_eid_s05_32-10-10_elephant_10_n02504013_6222.JPEG
subject-05,2,405,0.717437028884888,car,bicycle,32-3-10,1685_eid_s05_32-3-10_bicycle_10_n03792782_11237.JPEG
subject-05,2,406,1.48016691207886,keyboard,keyboard,8-10-10,1686_eid_s05_8-10-10_keyboard_10_n04505470_4289.JPEG
subject-05,2,407,0.510971069335938,cat,bottle,128-0-10,1687_eid_s05_128-0-10_bottle_10_n02823428_3772.JPEG
subject-05,2,408,0.644622087478638,oven,bird,64-0-10,1688_eid_s05_64-0-10_bird_10_n02056570_9370.JPEG
subject-05,2,409,0.791476964950562,chair,elephant,128-3-10,1689_eid_s05_128-3-10_elephant_10_n02504458_4963.JPEG
subject-05,2,410,0.629817962646484,car,car,2-0-10,1690_eid_s05_2-0-10_car_10_n03100240_5570.JPEG
subject-05,2,411,0.729526996612549,knife,knife,1-0-10,1691_eid_s05_1-0-10_knife_10_n03041632_24181.JPEG
subject-05,2,412,0.675862073898315,boat,dog,128-0-10,1692_eid_s05_128-0-10_dog_10_n02111500_2733.JPEG
subject-05,2,413,0.73245096206665,bear,elephant,16-0-10,1693_eid_s05_16-0-10_elephant_10_n02504458_5523.JPEG
subject-05,2,414,1.12214303016663,car,chair,64-3-10,1694_eid_s05_64-3-10_chair_10_n04429376_55747.JPEG
subject-05,2,415,NaN,na,dog,1-3-10,1695_eid_s05_1-3-10_dog_10_n02105855_9689.JPEG
subject-05,2,416,0.749835014343262,cat,elephant,16-10-10,1696_eid_s05_16-10-10_elephant_10_n02504013_14918.JPEG
subject-05,2,417,0.474568128585815,clock,knife,128-3-10,1697_eid_s05_128-3-10_knife_10_n03041632_90125.JPEG
subject-05,2,418,0.684916019439697,chair,bottle,128-3-10,1698_eid_s05_128-3-10_bottle_10_n04579145_3383.JPEG
subject-05,2,419,0.625290155410767,cat,keyboard,16-0-10,1699_eid_s05_16-0-10_keyboard_10_n03085013_15175.JPEG
subject-05,2,420,0.663616895675659,boat,bird,128-10-10,1700_eid_s05_128-10-10_bird_10_n02007558_5742.JPEG
subject-05,2,421,0.812273979187012,bear,bottle,32-3-10,1701_eid_s05_32-3-10_bottle_10_n03983396_14361.JPEG
subject-05,2,422,0.78345799446106,bird,dog,8-0-10,1702_eid_s05_8-0-10_dog_10_n02096294_4280.JPEG
subject-05,2,423,1.19989395141602,clock,clock,2-3-10,1703_eid_s05_2-3-10_clock_10_n02708093_3394.JPEG
subject-05,2,424,1.15200591087341,bear,bear,32-10-10,1704_eid_s05_32-10-10_bear_10_n02133161_66.JPEG
subject-05,2,425,0.676573991775513,car,car,16-10-10,1705_eid_s05_16-10-10_car_10_n02814533_32461.JPEG
subject-05,2,426,0.868928909301758,boat,knife,8-10-10,1706_eid_s05_8-10-10_knife_10_n03041632_30553.JPEG
subject-05,2,427,0.755188941955566,bird,bird,2-0-10,1707_eid_s05_2-0-10_bird_10_n01829413_5537.JPEG
subject-05,2,428,1.44808101654053,dog,chair,16-0-10,1708_eid_s05_16-0-10_chair_10_n02791124_3161.JPEG
subject-05,2,429,1.50013899803162,car,truck,4-10-10,1709_eid_s05_4-10-10_truck_10_n03796401_28190.JPEG
subject-05,2,430,0.82679295539856,oven,knife,8-0-10,1710_eid_s05_8-0-10_knife_10_n03041632_8666.JPEG
subject-05,2,431,1.35820388793945,bottle,bottle,1-0-10,1711_eid_s05_1-0-10_bottle_10_n02823428_5961.JPEG
subject-05,2,432,0.668544054031372,cat,bird,64-3-10,1712_eid_s05_64-3-10_bird_10_n01534433_23369.JPEG
subject-05,2,433,0.638628959655762,chair,oven,16-3-10,1713_eid_s05_16-3-10_oven_10_n04111531_1818.JPEG
subject-05,2,434,0.701189994812012,keyboard,chair,16-3-10,1714_eid_s05_16-3-10_chair_10_n04099969_16079.JPEG
subject-05,2,435,0.864291906356812,cat,bird,8-0-10,1715_eid_s05_8-0-10_bird_10_n01824575_5435.JPEG
subject-05,2,436,0.572699785232544,boat,boat,8-3-10,1716_eid_s05_8-3-10_boat_10_n03344393_771.JPEG
subject-05,2,437,0.703473091125488,bear,dog,8-10-10,1717_eid_s05_8-10-10_dog_10_n02093256_10199.JPEG
subject-05,2,438,0.904149055480957,knife,knife,8-10-10,1718_eid_s05_8-10-10_knife_10_n03041632_24114.JPEG
subject-05,2,439,0.443291902542114,boat,bottle,64-3-10,1719_eid_s05_64-3-10_bottle_10_n04591713_2569.JPEG
subject-05,2,440,0.545431852340698,cat,boat,8-10-10,1720_eid_s05_8-10-10_boat_10_n02951358_2588.JPEG
subject-05,2,441,0.5781409740448,boat,boat,2-0-10,1721_eid_s05_2-0-10_boat_10_n04273569_11333.JPEG
subject-05,2,442,0.856887102127075,car,keyboard,32-0-10,1722_eid_s05_32-0-10_keyboard_10_n04505470_2358.JPEG
subject-05,2,443,0.595628023147583,bird,airplane,128-3-10,1723_eid_s05_128-3-10_airplane_10_n02690373_6887.JPEG
subject-05,2,444,0.57415509223938,bear,clock,32-0-10,1724_eid_s05_32-0-10_clock_10_n02708093_1654.JPEG
subject-05,2,445,0.72101092338562,bird,bird,4-10-10,1725_eid_s05_4-10-10_bird_10_n02006656_11038.JPEG
subject-05,2,446,0.534332990646362,car,cat,128-0-10,1726_eid_s05_128-0-10_cat_10_n02124075_9137.JPEG
subject-05,2,447,0.834864854812622,car,car,1-10-10,1727_eid_s05_1-10-10_car_10_n02814533_7310.JPEG
subject-05,2,448,0.843085050582886,dog,dog,16-3-10,1728_eid_s05_16-3-10_dog_10_n02093754_5012.JPEG
subject-05,2,449,0.851632118225098,clock,clock,8-10-10,1729_eid_s05_8-10-10_clock_10_n03196217_6094.JPEG
subject-05,2,450,0.446413993835449,boat,bird,4-0-10,1730_eid_s05_4-0-10_bird_10_n02025239_7274.JPEG
subject-05,2,451,0.614444017410278,car,car,4-10-10,1731_eid_s05_4-10-10_car_10_n04285008_17151.JPEG
subject-05,2,452,0.631345987319946,oven,truck,64-3-10,1732_eid_s05_64-3-10_truck_10_n03417042_7080.JPEG
subject-05,2,453,0.713278770446777,cat,keyboard,128-0-10,1733_eid_s05_128-0-10_keyboard_10_n04505470_518.JPEG
subject-05,2,454,1.04398202896118,bicycle,bicycle,4-0-10,1734_eid_s05_4-0-10_bicycle_10_n03792782_51156.JPEG
subject-05,2,455,0.967889070510864,bear,dog,8-10-10,1735_eid_s05_8-10-10_dog_10_n02093859_3030.JPEG
subject-05,2,456,0.661725997924805,cat,chair,64-3-10,1736_eid_s05_64-3-10_chair_10_n02791124_15459.JPEG
subject-05,2,457,0.578318119049072,boat,cat,32-0-10,1737_eid_s05_32-0-10_cat_10_n02123159_2456.JPEG
subject-05,2,458,0.902554988861084,car,truck,16-3-10,1738_eid_s05_16-3-10_truck_10_n03796401_1773.JPEG
subject-05,2,459,0.911503791809082,dog,dog,1-10-10,1739_eid_s05_1-10-10_dog_10_n02086910_7412.JPEG
subject-05,2,460,0.57382607460022,cat,clock,32-0-10,1740_eid_s05_32-0-10_clock_10_n04548280_582.JPEG
subject-05,2,461,0.736265182495117,knife,knife,4-10-10,1741_eid_s05_4-10-10_knife_10_n03041632_16172.JPEG
subject-05,2,462,1.14439988136292,bottle,clock,16-10-10,1742_eid_s05_16-10-10_clock_10_n04548280_2751.JPEG
subject-05,2,463,0.982461929321289,elephant,elephant,2-3-10,1743_eid_s05_2-3-10_elephant_10_n02504013_7467.JPEG
subject-05,2,464,0.967077016830444,knife,knife,4-10-10,1744_eid_s05_4-10-10_knife_10_n03041632_4806.JPEG
subject-05,2,465,0.929580926895142,boat,truck,8-0-10,1745_eid_s05_8-0-10_truck_10_n04467665_21445.JPEG
subject-05,2,466,0.600567817687988,cat,bird,128-0-10,1746_eid_s05_128-0-10_bird_10_n01537544_10216.JPEG
subject-05,2,467,1.15534210205078,truck,oven,16-10-10,1747_eid_s05_16-10-10_oven_10_n04111531_21918.JPEG
subject-05,2,468,0.757843017578125,car,car,2-3-10,1748_eid_s05_2-3-10_car_10_n03100240_16570.JPEG
subject-05,2,469,0.688464164733887,oven,boat,128-3-10,1749_eid_s05_128-3-10_boat_10_n04273569_7417.JPEG
subject-05,2,470,1.0513379573822,keyboard,keyboard,2-0-10,1750_eid_s05_2-0-10_keyboard_10_n03085013_22719.JPEG
subject-05,2,471,0.780509948730469,bicycle,bicycle,1-3-10,1751_eid_s05_1-3-10_bicycle_10_n03792782_12504.JPEG
subject-05,2,472,0.689620971679688,boat,truck,32-0-10,1752_eid_s05_32-0-10_truck_10_n04467665_36855.JPEG
subject-05,2,473,0.784085988998413,cat,car,64-3-10,1753_eid_s05_64-3-10_car_10_n03100240_18131.JPEG
subject-05,2,474,0.730796098709106,oven,elephant,128-0-10,1754_eid_s05_128-0-10_elephant_10_n02504458_8290.JPEG
subject-05,2,475,0.669482946395874,clock,dog,32-3-10,1755_eid_s05_32-3-10_dog_10_n02098105_2390.JPEG
subject-05,2,476,1.13918209075928,chair,chair,2-10-10,1756_eid_s05_2-10-10_chair_10_n04429376_13106.JPEG
subject-05,2,477,0.855954885482788,dog,elephant,16-3-10,1757_eid_s05_16-3-10_elephant_10_n02504013_4924.JPEG
subject-05,2,478,0.807754039764404,cat,oven,8-0-10,1758_eid_s05_8-0-10_oven_10_n04111531_4671.JPEG
subject-05,2,479,0.970618009567261,bottle,oven,1-0-10,1759_eid_s05_1-0-10_oven_10_n04111531_2074.JPEG
subject-05,2,480,1.09233403205872,knife,knife,4-0-10,1760_eid_s05_4-0-10_knife_10_n03041632_35260.JPEG
subject-05,2,481,1.11648297309875,dog,car,16-3-10,1761_eid_s05_16-3-10_car_10_n04285008_8831.JPEG
subject-05,2,482,1.16335296630859,cat,bicycle,32-0-10,1762_eid_s05_32-0-10_bicycle_10_n02835271_7597.JPEG
subject-05,2,483,1.2936429977417,bear,bear,8-3-10,1763_eid_s05_8-3-10_bear_10_n02132136_26027.JPEG
subject-05,2,484,1.03343105316162,dog,dog,1-3-10,1764_eid_s05_1-3-10_dog_10_n02097474_15900.JPEG
subject-05,2,485,0.980777978897095,dog,dog,1-0-10,1765_eid_s05_1-0-10_dog_10_n02112018_2163.JPEG
subject-05,2,486,0.881533145904541,bird,truck,128-3-10,1766_eid_s05_128-3-10_truck_10_n03417042_17545.JPEG
subject-05,2,487,0.767539978027344,keyboard,clock,64-0-10,1767_eid_s05_64-0-10_clock_10_n04548280_3351.JPEG
subject-05,2,488,1.50015115737915,elephant,elephant,8-10-10,1768_eid_s05_8-10-10_elephant_10_n02504013_14948.JPEG
subject-05,2,489,0.721009016036987,bear,bear,2-0-10,1769_eid_s05_2-0-10_bear_10_n02133161_835.JPEG
subject-05,2,490,1.1675009727478,dog,chair,32-10-10,1770_eid_s05_32-10-10_chair_10_n02791124_9606.JPEG
subject-05,2,491,0.683896064758301,cat,bottle,32-3-10,1771_eid_s05_32-3-10_bottle_10_n04591713_4691.JPEG
subject-05,2,492,1.22452688217163,oven,dog,128-3-10,1772_eid_s05_128-3-10_dog_10_n02088364_17406.JPEG
subject-05,2,493,1.02284216880798,dog,dog,16-3-10,1773_eid_s05_16-3-10_dog_10_n02097474_9580.JPEG
subject-05,2,494,0.963397026062012,keyboard,keyboard,2-0-10,1774_eid_s05_2-0-10_keyboard_10_n03085013_8677.JPEG
subject-05,2,495,0.693970918655396,boat,oven,8-3-10,1775_eid_s05_8-3-10_oven_10_n04111531_2987.JPEG
subject-05,2,496,0.58641791343689,clock,elephant,64-3-10,1776_eid_s05_64-3-10_elephant_10_n02504013_5996.JPEG
subject-05,2,497,0.819190979003906,bear,dog,32-10-10,1777_eid_s05_32-10-10_dog_10_n02097130_3159.JPEG
subject-05,2,498,0.803512096405029,elephant,elephant,1-0-10,1778_eid_s05_1-0-10_elephant_10_n02504013_6275.JPEG
subject-05,2,499,0.849747180938721,cat,keyboard,64-0-10,1779_eid_s05_64-0-10_keyboard_10_n03085013_24166.JPEG
subject-05,2,500,0.720903158187866,chair,chair,2-3-10,1780_eid_s05_2-3-10_chair_10_n03376595_6691.JPEG
subject-05,2,501,0.783947944641113,bear,boat,32-10-10,1781_eid_s05_32-10-10_boat_10_n04612504_1190.JPEG
subject-05,2,502,0.867716073989868,oven,oven,4-10-10,1782_eid_s05_4-10-10_oven_10_n04111531_10336.JPEG
subject-05,2,503,0.514496088027954,cat,keyboard,64-0-10,1783_eid_s05_64-0-10_keyboard_10_n04505470_1903.JPEG
subject-05,2,504,0.439098834991455,boat,dog,16-3-10,1784_eid_s05_16-3-10_dog_10_n02110806_3857.JPEG
subject-05,2,505,0.747911930084229,chair,chair,8-3-10,1785_eid_s05_8-3-10_chair_10_n04429376_9498.JPEG
subject-05,2,506,0.555797100067139,oven,truck,16-3-10,1786_eid_s05_16-3-10_truck_10_n03417042_28610.JPEG
subject-05,2,507,0.47296404838562,cat,cat,128-3-10,1787_eid_s05_128-3-10_cat_10_n02123045_5208.JPEG
subject-05,2,508,0.481287002563477,boat,bicycle,64-10-10,1788_eid_s05_64-10-10_bicycle_10_n02835271_270.JPEG
subject-05,2,509,0.957290887832642,truck,dog,32-3-10,1789_eid_s05_32-3-10_dog_10_n02112350_3673.JPEG
subject-05,2,510,0.963658809661865,keyboard,chair,2-3-10,1790_eid_s05_2-3-10_chair_10_n04429376_34379.JPEG
subject-05,2,511,0.764426946640015,elephant,elephant,1-0-10,1791_eid_s05_1-0-10_elephant_10_n02504458_3776.JPEG
subject-05,2,512,0.788134813308716,knife,knife,8-3-10,1792_eid_s05_8-3-10_knife_10_n03041632_3159.JPEG
subject-05,2,513,0.561651945114136,boat,truck,128-0-10,1793_eid_s05_128-0-10_truck_10_n03796401_25181.JPEG
subject-05,2,514,0.592174053192139,keyboard,keyboard,4-10-10,1794_eid_s05_4-10-10_keyboard_10_n03085013_24522.JPEG
subject-05,2,515,0.538609027862549,cat,bear,128-3-10,1795_eid_s05_128-3-10_bear_10_n02133161_542.JPEG
subject-05,2,516,0.779131889343262,car,car,1-0-10,1796_eid_s05_1-0-10_car_10_n02814533_42308.JPEG
subject-05,2,517,0.557557106018066,bird,knife,32-0-10,1797_eid_s05_32-0-10_knife_10_n03041632_15250.JPEG
subject-05,2,518,0.596204996109009,boat,bird,32-0-10,1798_eid_s05_32-0-10_bird_10_n02028035_19282.JPEG
subject-05,2,519,0.488629817962646,clock,bicycle,16-3-10,1799_eid_s05_16-3-10_bicycle_10_n03792782_15679.JPEG
subject-05,2,520,0.505415916442871,cat,cat,4-0-10,1800_eid_s05_4-0-10_cat_10_n02123159_6057.JPEG
subject-05,2,521,1.0840368270874,dog,dog,4-0-10,1801_eid_s05_4-0-10_dog_10_n02088094_9220.JPEG
subject-05,2,522,0.530309915542603,cat,dog,16-0-10,1802_eid_s05_16-0-10_dog_10_n02089078_5862.JPEG
subject-05,2,523,0.47106409072876,oven,knife,16-10-10,1803_eid_s05_16-10-10_knife_10_n03041632_8528.JPEG
subject-05,2,524,0.458460807800293,boat,truck,128-3-10,1804_eid_s05_128-3-10_truck_10_n04467665_14142.JPEG
subject-05,2,525,0.742526054382324,dog,dog,16-10-10,1805_eid_s05_16-10-10_dog_10_n02106030_4790.JPEG
subject-05,2,526,0.681102991104126,knife,knife,2-10-10,1806_eid_s05_2-10-10_knife_10_n03041632_3023.JPEG
subject-05,2,527,0.529326915740967,boat,bottle,128-0-10,1807_eid_s05_128-0-10_bottle_10_n02823428_774.JPEG
subject-05,2,528,0.614338874816895,car,car,16-3-10,1808_eid_s05_16-3-10_car_10_n04285008_5952.JPEG
subject-05,2,529,0.560395002365112,cat,keyboard,64-3-10,1809_eid_s05_64-3-10_keyboard_10_n03085013_33271.JPEG
subject-05,2,530,0.623327016830444,oven,bicycle,128-10-10,1810_eid_s05_128-10-10_bicycle_10_n02835271_3042.JPEG
subject-05,2,531,1.27735805511475,car,keyboard,64-0-10,1811_eid_s05_64-0-10_keyboard_10_n03085013_24001.JPEG
subject-05,2,532,0.896222114562988,clock,clock,16-10-10,1812_eid_s05_16-10-10_clock_10_n03196217_4491.JPEG
subject-05,2,533,0.710002899169922,bottle,bottle,2-0-10,1813_eid_s05_2-0-10_bottle_10_n02823428_7806.JPEG
subject-05,2,534,0.572948932647705,boat,oven,64-3-10,1814_eid_s05_64-3-10_oven_10_n04111531_2023.JPEG
subject-05,2,535,1.00575089454651,truck,truck,4-3-10,1815_eid_s05_4-3-10_truck_10_n03796401_197.JPEG
subject-05,2,536,0.508326053619385,boat,knife,128-0-10,1816_eid_s05_128-0-10_knife_10_n03041632_86554.JPEG
subject-05,2,537,0.962699890136719,dog,dog,4-10-10,1817_eid_s05_4-10-10_dog_10_n02098286_4457.JPEG
subject-05,2,538,0.738075971603394,elephant,elephant,1-10-10,1818_eid_s05_1-10-10_elephant_10_n02504013_5501.JPEG
subject-05,2,539,0.595631837844849,boat,bear,16-0-10,1819_eid_s05_16-0-10_bear_10_n02133161_6959.JPEG
subject-05,2,540,0.504628896713257,clock,elephant,32-0-10,1820_eid_s05_32-0-10_elephant_10_n02504013_12586.JPEG
subject-05,2,541,0.575107097625732,oven,airplane,64-0-10,1821_eid_s05_64-0-10_airplane_10_n02690373_3818.JPEG
subject-05,2,542,0.475184202194214,cat,car,128-10-10,1822_eid_s05_128-10-10_car_10_n02814533_40876.JPEG
subject-05,2,543,0.538216114044189,clock,clock,2-3-10,1823_eid_s05_2-3-10_clock_10_n04548280_23780.JPEG
subject-05,2,544,0.42472505569458,boat,boat,16-0-10,1824_eid_s05_16-0-10_boat_10_n03344393_1496.JPEG
subject-05,2,545,0.563606977462769,oven,clock,8-0-10,1825_eid_s05_8-0-10_clock_10_n02708093_2180.JPEG
subject-05,2,546,0.795864820480347,chair,knife,4-0-10,1826_eid_s05_4-0-10_knife_10_n03041632_51617.JPEG
subject-05,2,547,0.712888956069946,airplane,boat,8-3-10,1827_eid_s05_8-3-10_boat_10_n03344393_748.JPEG
subject-05,2,548,0.583227872848511,bear,keyboard,128-3-10,1828_eid_s05_128-3-10_keyboard_10_n03085013_22714.JPEG
subject-05,2,549,0.800462007522583,elephant,elephant,4-3-10,1829_eid_s05_4-3-10_elephant_10_n02504458_4010.JPEG
subject-05,2,550,0.470108032226562,clock,clock,4-10-10,1830_eid_s05_4-10-10_clock_10_n04548280_5889.JPEG
subject-05,2,551,0.871052980422974,bear,bear,16-3-10,1831_eid_s05_16-3-10_bear_10_n02134418_2683.JPEG
subject-05,2,552,0.571830034255981,cat,boat,128-10-10,1832_eid_s05_128-10-10_boat_10_n02951358_13555.JPEG
subject-05,2,553,0.447690963745117,boat,chair,32-0-10,1833_eid_s05_32-0-10_chair_10_n04429376_4391.JPEG
subject-05,2,554,0.534090995788574,keyboard,keyboard,4-3-10,1834_eid_s05_4-3-10_keyboard_10_n03085013_30544.JPEG
subject-05,2,555,0.572618961334229,bottle,bottle,2-0-10,1835_eid_s05_2-0-10_bottle_10_n04591713_7280.JPEG
subject-05,2,556,0.643362045288086,car,clock,64-10-10,1836_eid_s05_64-10-10_clock_10_n03196217_775.JPEG
subject-05,2,557,0.383846998214722,cat,truck,64-3-10,1837_eid_s05_64-3-10_truck_10_n03796401_142.JPEG
subject-05,2,558,0.537436008453369,bicycle,bicycle,4-10-10,1838_eid_s05_4-10-10_bicycle_10_n03792782_6894.JPEG
subject-05,2,559,0.535284996032715,oven,car,128-0-10,1839_eid_s05_128-0-10_car_10_n02814533_14121.JPEG
subject-05,2,560,0.413809061050415,boat,bottle,16-3-10,1840_eid_s05_16-3-10_bottle_10_n03937543_11101.JPEG
subject-05,2,561,0.844280004501343,elephant,elephant,2-10-10,1841_eid_s05_2-10-10_elephant_10_n02504458_5978.JPEG
subject-05,2,562,0.596801042556763,cat,chair,128-0-10,1842_eid_s05_128-0-10_chair_10_n03376595_8647.JPEG
subject-05,2,563,0.598395109176636,bear,bottle,4-10-10,1843_eid_s05_4-10-10_bottle_10_n04557648_3615.JPEG
subject-05,2,564,1.16792798042297,elephant,elephant,8-10-10,1844_eid_s05_8-10-10_elephant_10_n02504458_11270.JPEG
subject-05,2,565,0.476521015167236,boat,oven,4-0-10,1845_eid_s05_4-0-10_oven_10_n04111531_5897.JPEG
subject-05,2,566,0.50178599357605,oven,oven,32-3-10,1846_eid_s05_32-3-10_oven_10_n04111531_8193.JPEG
subject-05,2,567,0.664052963256836,car,car,2-3-10,1847_eid_s05_2-3-10_car_10_n04285008_3007.JPEG
subject-05,2,568,1.50028586387634,truck,truck,4-3-10,1848_eid_s05_4-3-10_truck_10_n04467665_31971.JPEG
subject-05,2,569,0.664843082427979,boat,boat,8-10-10,1849_eid_s05_8-10-10_boat_10_n03344393_4512.JPEG
subject-05,2,570,0.613840103149414,clock,clock,8-3-10,1850_eid_s05_8-3-10_clock_10_n02708093_3695.JPEG
subject-05,2,571,0.776573181152344,bottle,knife,4-3-10,1851_eid_s05_4-3-10_knife_10_n03041632_7116.JPEG
subject-05,2,572,1.14680004119873,bicycle,boat,16-10-10,1852_eid_s05_16-10-10_boat_10_n02951358_3464.JPEG
subject-05,2,573,0.601557970046997,boat,boat,64-3-10,1853_eid_s05_64-3-10_boat_10_n04273569_29866.JPEG
subject-05,2,574,0.837499856948853,bicycle,bicycle,32-10-10,1854_eid_s05_32-10-10_bicycle_10_n02835271_13063.JPEG
subject-05,2,575,1.00024890899658,chair,chair,2-0-10,1855_eid_s05_2-0-10_chair_10_n02791124_2833.JPEG
subject-05,2,576,0.784231901168823,cat,bottle,32-10-10,1856_eid_s05_32-10-10_bottle_10_n04560804_315.JPEG
subject-05,2,577,1.14733600616455,keyboard,keyboard,2-0-10,1857_eid_s05_2-0-10_keyboard_10_n04505470_6361.JPEG
subject-05,2,578,1.03850603103638,airplane,truck,8-0-10,1858_eid_s05_8-0-10_truck_10_n03417042_620.JPEG
subject-05,2,579,0.650234937667847,bear,bear,4-10-10,1859_eid_s05_4-10-10_bear_10_n02133161_2011.JPEG
subject-05,2,580,0.542684078216553,boat,cat,128-10-10,1860_eid_s05_128-10-10_cat_10_n02123045_8294.JPEG
subject-05,2,581,0.883139133453369,bird,bird,1-3-10,1861_eid_s05_1-3-10_bird_10_n02018795_87.JPEG
subject-05,2,582,0.499866962432861,cat,cat,8-10-10,1862_eid_s05_8-10-10_cat_10_n02123394_673.JPEG
subject-05,2,583,0.600617170333862,bear,bear,8-3-10,1863_eid_s05_8-3-10_bear_10_n02133161_21472.JPEG
subject-05,2,584,0.533090114593506,clock,clock,1-3-10,1864_eid_s05_1-3-10_clock_10_n04548280_499.JPEG
subject-05,2,585,0.503806114196777,boat,cat,8-0-10,1865_eid_s05_8-0-10_cat_10_n02123394_6112.JPEG
subject-05,2,586,0.750051021575928,car,car,4-3-10,1866_eid_s05_4-3-10_car_10_n02814533_65056.JPEG
subject-05,2,587,0.620873928070068,bear,bear,4-10-10,1867_eid_s05_4-10-10_bear_10_n02133161_11506.JPEG
subject-05,2,588,0.790917873382568,cat,bird,32-3-10,1868_eid_s05_32-3-10_bird_10_n01601694_434.JPEG
subject-05,2,589,0.854269981384277,knife,knife,1-3-10,1869_eid_s05_1-3-10_knife_10_n03041632_2438.JPEG
subject-05,2,590,0.486435890197754,cat,keyboard,64-3-10,1870_eid_s05_64-3-10_keyboard_10_n04505470_1288.JPEG
subject-05,2,591,0.619200944900513,cat,cat,1-3-10,1871_eid_s05_1-3-10_cat_10_n02123159_1992.JPEG
subject-05,2,592,0.63542914390564,boat,car,64-3-10,1872_eid_s05_64-3-10_car_10_n03100240_2905.JPEG
subject-05,2,593,0.898081064224243,bicycle,bicycle,1-10-10,1873_eid_s05_1-10-10_bicycle_10_n02835271_3127.JPEG
subject-05,2,594,0.514405965805054,cat,airplane,8-0-10,1874_eid_s05_8-0-10_airplane_10_n02690373_1436.JPEG
subject-05,2,595,0.53600001335144,boat,boat,2-10-10,1875_eid_s05_2-10-10_boat_10_n03662601_5527.JPEG
subject-05,2,596,0.876712083816528,bear,bicycle,8-0-10,1876_eid_s05_8-0-10_bicycle_10_n03792782_8062.JPEG
subject-05,2,597,1.08522701263428,airplane,airplane,8-3-10,1877_eid_s05_8-3-10_airplane_10_n02690373_4793.JPEG
subject-05,2,598,0.501404047012329,cat,cat,4-3-10,1878_eid_s05_4-3-10_cat_10_n02123159_7396.JPEG
subject-05,2,599,0.726339101791382,cat,airplane,64-3-10,1879_eid_s05_64-3-10_airplane_10_n02690373_2629.JPEG
subject-05,2,600,0.396496057510376,boat,boat,32-3-10,1880_eid_s05_32-3-10_boat_10_n04273569_21583.JPEG
subject-05,2,601,0.626794099807739,oven,dog,128-10-10,1881_eid_s05_128-10-10_dog_10_n02107908_8554.JPEG
subject-05,2,602,0.643489122390747,car,bottle,64-10-10,1882_eid_s05_64-10-10_bottle_10_n04591713_6069.JPEG
subject-05,2,603,0.667826890945435,bear,knife,64-0-10,1883_eid_s05_64-0-10_knife_10_n03041632_37274.JPEG
subject-05,2,604,0.806221008300781,keyboard,keyboard,8-10-10,1884_eid_s05_8-10-10_keyboard_10_n03085013_23271.JPEG
subject-05,2,605,0.430015087127686,cat,bottle,16-0-10,1885_eid_s05_16-0-10_bottle_10_n03937543_2790.JPEG
subject-05,2,606,0.576631784439087,oven,knife,32-10-10,1886_eid_s05_32-10-10_knife_10_n03041632_29285.JPEG
subject-05,2,607,0.533344984054565,clock,clock,32-10-10,1887_eid_s05_32-10-10_clock_10_n04548280_1097.JPEG
subject-05,2,608,0.941747188568115,elephant,elephant,1-3-10,1888_eid_s05_1-3-10_elephant_10_n02504013_12615.JPEG
subject-05,2,609,0.779478073120117,cat,cat,16-0-10,1889_eid_s05_16-0-10_cat_10_n02125311_49964.JPEG
subject-05,2,610,1.24757313728333,boat,oven,16-10-10,1890_eid_s05_16-10-10_oven_10_n04111531_8353.JPEG
subject-05,2,611,0.557451963424683,cat,car,32-0-10,1891_eid_s05_32-0-10_car_10_n02814533_46508.JPEG
subject-05,2,612,0.580302953720093,cat,bear,16-3-10,1892_eid_s05_16-3-10_bear_10_n02132136_12191.JPEG
subject-05,2,613,0.519963026046753,cat,keyboard,8-0-10,1893_eid_s05_8-0-10_keyboard_10_n04505470_2102.JPEG
subject-05,2,614,0.527786016464233,cat,cat,8-0-10,1894_eid_s05_8-0-10_cat_10_n02123394_4920.JPEG
subject-05,2,615,0.722148180007935,boat,bicycle,32-10-10,1895_eid_s05_32-10-10_bicycle_10_n02835271_9482.JPEG
subject-05,2,616,1.15063500404358,bear,cat,32-3-10,1896_eid_s05_32-3-10_cat_10_n02123597_8497.JPEG
subject-05,2,617,0.723213911056519,bird,knife,32-0-10,1897_eid_s05_32-0-10_knife_10_n03041632_42185.JPEG
subject-05,2,618,0.647761106491089,boat,truck,16-3-10,1898_eid_s05_16-3-10_truck_10_n04467665_62504.JPEG
subject-05,2,619,0.794718980789185,clock,bicycle,64-3-10,1899_eid_s05_64-3-10_bicycle_10_n02835271_1175.JPEG
subject-05,2,620,0.427592992782593,oven,elephant,128-3-10,1900_eid_s05_128-3-10_elephant_10_n02504458_4448.JPEG
subject-05,2,621,0.519495010375977,boat,bicycle,64-3-10,1901_eid_s05_64-3-10_bicycle_10_n02835271_9237.JPEG
subject-05,2,622,0.582367897033691,cat,car,16-3-10,1902_eid_s05_16-3-10_car_10_n04285008_1314.JPEG
subject-05,2,623,0.49076509475708,oven,boat,4-0-10,1903_eid_s05_4-0-10_boat_10_n03344393_7557.JPEG
subject-05,2,624,0.414982080459595,clock,bird,16-3-10,1904_eid_s05_16-3-10_bird_10_n01855672_3222.JPEG
subject-05,2,625,0.561434984207153,boat,oven,16-10-10,1905_eid_s05_16-10-10_oven_10_n04111531_20359.JPEG
subject-05,2,626,0.863983869552612,knife,knife,1-3-10,1906_eid_s05_1-3-10_knife_10_n03041632_47759.JPEG
subject-05,2,627,0.701351881027222,clock,oven,32-0-10,1907_eid_s05_32-0-10_oven_10_n04111531_15087.JPEG
subject-05,2,628,0.915678024291992,chair,chair,1-10-10,1908_eid_s05_1-10-10_chair_10_n04429376_49717.JPEG
subject-05,2,629,0.834532976150513,elephant,elephant,8-3-10,1909_eid_s05_8-3-10_elephant_10_n02504458_7123.JPEG
subject-05,2,630,0.788728952407837,chair,knife,8-0-10,1910_eid_s05_8-0-10_knife_10_n03041632_31363.JPEG
subject-05,2,631,0.765159845352173,oven,chair,1-10-10,1911_eid_s05_1-10-10_chair_10_n03376595_9559.JPEG
subject-05,2,632,0.473554849624634,boat,keyboard,128-0-10,1912_eid_s05_128-0-10_keyboard_10_n03085013_14351.JPEG
subject-05,2,633,0.668117046356201,truck,bear,128-3-10,1913_eid_s05_128-3-10_bear_10_n02134418_5045.JPEG
subject-05,2,634,0.698493003845215,truck,truck,4-0-10,1914_eid_s05_4-0-10_truck_10_n03417042_6050.JPEG
subject-05,2,635,0.539373874664307,bear,airplane,16-10-10,1915_eid_s05_16-10-10_airplane_10_n02690373_8417.JPEG
subject-05,2,636,0.884834051132202,boat,bear,32-10-10,1916_eid_s05_32-10-10_bear_10_n02133161_1187.JPEG
subject-05,2,637,0.745266914367676,elephant,elephant,2-3-10,1917_eid_s05_2-3-10_elephant_10_n02504013_1758.JPEG
subject-05,2,638,0.385481119155884,boat,bicycle,4-0-10,1918_eid_s05_4-0-10_bicycle_10_n02835271_949.JPEG
subject-05,2,639,0.615381002426147,car,car,2-3-10,1919_eid_s05_2-3-10_car_10_n04285008_1240.JPEG
subject-05,2,640,0.455592155456543,clock,car,32-3-10,1920_eid_s05_32-3-10_car_10_n02814533_12979.JPEG
subject-05,2,641,0.523455142974854,cat,bird,16-3-10,1921_eid_s05_16-3-10_bird_10_n01818515_6671.JPEG
subject-05,2,642,0.532374858856201,boat,boat,64-10-10,1922_eid_s05_64-10-10_boat_10_n02951358_32651.JPEG
subject-05,2,643,0.673362016677856,clock,clock,2-0-10,1923_eid_s05_2-0-10_clock_10_n04548280_1878.JPEG
subject-05,2,644,0.706015825271606,airplane,airplane,4-3-10,1924_eid_s05_4-3-10_airplane_10_n02690373_744.JPEG
subject-05,2,645,0.852735042572021,boat,clock,64-0-10,1925_eid_s05_64-0-10_clock_10_n02708093_6835.JPEG
subject-05,2,646,0.56936502456665,clock,clock,4-0-10,1926_eid_s05_4-0-10_clock_10_n02708093_993.JPEG
subject-05,2,647,0.855334043502808,truck,truck,2-0-10,1927_eid_s05_2-0-10_truck_10_n03796401_588.JPEG
subject-05,2,648,0.794409036636353,airplane,airplane,1-10-10,1928_eid_s05_1-10-10_airplane_10_n02690373_4754.JPEG
subject-05,2,649,0.619255065917969,boat,elephant,16-0-10,1929_eid_s05_16-0-10_elephant_10_n02504458_7369.JPEG
subject-05,2,650,0.535338878631592,boat,boat,4-10-10,1930_eid_s05_4-10-10_boat_10_n02951358_15634.JPEG
subject-05,2,651,0.621898889541626,oven,keyboard,32-10-10,1931_eid_s05_32-10-10_keyboard_10_n03085013_7588.JPEG
subject-05,2,652,0.622474908828735,clock,clock,128-10-10,1932_eid_s05_128-10-10_clock_10_n02708093_7899.JPEG
subject-05,2,653,1.41506099700928,airplane,airplane,1-0-10,1933_eid_s05_1-0-10_airplane_10_n02690373_629.JPEG
subject-05,2,654,0.631327152252197,keyboard,keyboard,1-0-10,1934_eid_s05_1-0-10_keyboard_10_n03085013_8579.JPEG
subject-05,2,655,0.48487401008606,cat,bottle,32-0-10,1935_eid_s05_32-0-10_bottle_10_n03937543_2677.JPEG
subject-05,2,656,0.464343070983887,boat,airplane,128-0-10,1936_eid_s05_128-0-10_airplane_10_n02690373_2800.JPEG
subject-05,2,657,0.677860021591187,bear,oven,2-0-10,1937_eid_s05_2-0-10_oven_10_n04111531_6903.JPEG
subject-05,2,658,0.702550172805786,chair,knife,2-0-10,1938_eid_s05_2-0-10_knife_10_n03041632_95293.JPEG
subject-05,2,659,0.810049057006836,car,elephant,16-3-10,1939_eid_s05_16-3-10_elephant_10_n02504458_3912.JPEG
subject-05,2,660,0.718847036361694,chair,dog,2-10-10,1940_eid_s05_2-10-10_dog_10_n02091032_812.JPEG
subject-05,2,661,0.713205814361572,bird,bird,1-10-10,1941_eid_s05_1-10-10_bird_10_n01592084_4763.JPEG
subject-05,2,662,0.544062852859497,bear,bicycle,64-0-10,1942_eid_s05_64-0-10_bicycle_10_n02835271_357.JPEG
subject-05,2,663,1.17659115791321,car,oven,4-0-10,1943_eid_s05_4-0-10_oven_10_n04111531_11470.JPEG
subject-05,2,664,0.66903281211853,chair,chair,4-3-10,1944_eid_s05_4-3-10_chair_10_n03376595_3223.JPEG
subject-05,2,665,0.555903911590576,boat,airplane,16-3-10,1945_eid_s05_16-3-10_airplane_10_n02690373_2155.JPEG
subject-05,2,666,0.680299043655396,chair,chair,4-0-10,1946_eid_s05_4-0-10_chair_10_n04099969_5242.JPEG
subject-05,2,667,0.823915004730225,keyboard,oven,16-10-10,1947_eid_s05_16-10-10_oven_10_n04111531_2006.JPEG
subject-05,2,668,0.878293991088867,truck,truck,1-0-10,1948_eid_s05_1-0-10_truck_10_n03417042_3752.JPEG
subject-05,2,669,0.781031847000122,elephant,elephant,1-10-10,1949_eid_s05_1-10-10_elephant_10_n02504458_6109.JPEG
subject-05,2,670,0.903333902359009,cat,bicycle,16-3-10,1950_eid_s05_16-3-10_bicycle_10_n03792782_9436.JPEG
subject-05,2,671,1.22020602226257,knife,knife,2-10-10,1951_eid_s05_2-10-10_knife_10_n03041632_4214.JPEG
subject-05,2,672,0.790853023529053,airplane,airplane,1-10-10,1952_eid_s05_1-10-10_airplane_10_n02690373_9626.JPEG
subject-05,2,673,1.3074939250946,bicycle,bicycle,4-3-10,1953_eid_s05_4-3-10_bicycle_10_n03792782_8080.JPEG
subject-05,2,674,0.607652187347412,bear,boat,32-10-10,1954_eid_s05_32-10-10_boat_10_n03662601_35937.JPEG
subject-05,2,675,0.507389783859253,cat,airplane,32-3-10,1955_eid_s05_32-3-10_airplane_10_n02690373_8789.JPEG
subject-05,2,676,0.486531019210815,boat,truck,64-3-10,1956_eid_s05_64-3-10_truck_10_n03417042_4655.JPEG
subject-05,2,677,0.871340990066528,bottle,knife,16-10-10,1957_eid_s05_16-10-10_knife_10_n03041632_46185.JPEG
subject-05,2,678,0.641390800476074,boat,airplane,128-0-10,1958_eid_s05_128-0-10_airplane_10_n02690373_9425.JPEG
subject-05,2,679,0.696452140808105,knife,knife,2-3-10,1959_eid_s05_2-3-10_knife_10_n03041632_44133.JPEG
subject-05,2,680,1.22831797599792,chair,chair,1-0-10,1960_eid_s05_1-0-10_chair_10_n04099969_3929.JPEG
subject-05,2,681,0.620092153549194,clock,clock,1-0-10,1961_eid_s05_1-0-10_clock_10_n04548280_3644.JPEG
subject-05,2,682,0.428896903991699,boat,chair,16-0-10,1962_eid_s05_16-0-10_chair_10_n02791124_1223.JPEG
subject-05,2,683,1.30554008483887,dog,dog,1-3-10,1963_eid_s05_1-3-10_dog_10_n02098105_3803.JPEG
subject-05,2,684,0.529436111450195,boat,clock,32-10-10,1964_eid_s05_32-10-10_clock_10_n02708093_3555.JPEG
subject-05,2,685,0.531038999557495,bear,clock,128-3-10,1965_eid_s05_128-3-10_clock_10_n04548280_2170.JPEG
subject-05,2,686,0.67957615852356,boat,bear,4-10-10,1966_eid_s05_4-10-10_bear_10_n02132136_4512.JPEG
subject-05,2,687,0.634189128875732,cat,cat,64-0-10,1967_eid_s05_64-0-10_cat_10_n02123159_2465.JPEG
subject-05,2,688,0.54750919342041,clock,bear,1-0-10,1968_eid_s05_1-0-10_bear_10_n02133161_5406.JPEG
subject-05,2,689,0.654958009719849,clock,airplane,8-3-10,1969_eid_s05_8-3-10_airplane_10_n02690373_4608.JPEG
subject-05,2,690,0.671473026275635,boat,dog,16-10-10,1970_eid_s05_16-10-10_dog_10_n02090379_6579.JPEG
subject-05,2,691,0.625494003295898,cat,cat,8-10-10,1971_eid_s05_8-10-10_cat_10_n02123394_6779.JPEG
subject-05,2,692,0.726390838623047,truck,truck,2-0-10,1972_eid_s05_2-0-10_truck_10_n04467665_14719.JPEG
subject-05,2,693,1.0675060749054,car,car,1-10-10,1973_eid_s05_1-10-10_car_10_n02814533_27187.JPEG
subject-05,2,694,1.04351091384888,car,car,2-3-10,1974_eid_s05_2-3-10_car_10_n04285008_8317.JPEG
subject-05,2,695,0.652102947235107,bear,bear,4-3-10,1975_eid_s05_4-3-10_bear_10_n02133161_829.JPEG
subject-05,2,696,1.21544098854065,dog,dog,2-10-10,1976_eid_s05_2-10-10_dog_10_n02097130_11216.JPEG
subject-05,2,697,0.560934066772461,cat,knife,64-0-10,1977_eid_s05_64-0-10_knife_10_n03041632_14224.JPEG
subject-05,2,698,0.431217193603516,boat,clock,64-3-10,1978_eid_s05_64-3-10_clock_10_n04548280_7475.JPEG
subject-05,2,699,0.840072154998779,keyboard,keyboard,8-3-10,1979_eid_s05_8-3-10_keyboard_10_n03085013_23793.JPEG
subject-05,2,700,0.511100053787231,boat,chair,32-10-10,1980_eid_s05_32-10-10_chair_10_n03376595_2809.JPEG
subject-05,2,701,0.657322883605957,car,car,4-3-10,1981_eid_s05_4-3-10_car_10_n03100240_13763.JPEG
subject-05,2,702,0.643916130065918,cat,airplane,16-3-10,1982_eid_s05_16-3-10_airplane_10_n02690373_20042.JPEG
subject-05,2,703,0.649899005889893,oven,bird,4-0-10,1983_eid_s05_4-0-10_bird_10_n01833805_7400.JPEG
subject-05,2,704,0.612936973571777,bear,boat,64-0-10,1984_eid_s05_64-0-10_boat_10_n03344393_7088.JPEG
subject-05,2,705,0.507507085800171,boat,bottle,32-0-10,1985_eid_s05_32-0-10_bottle_10_n04579145_7557.JPEG
subject-05,2,706,0.454133987426758,clock,clock,64-0-10,1986_eid_s05_64-0-10_clock_10_n02708093_7143.JPEG
subject-05,2,707,1.40066480636597,oven,oven,1-0-10,1987_eid_s05_1-0-10_oven_10_n04111531_1004.JPEG
subject-05,2,708,0.784857988357544,bird,bird,1-3-10,1988_eid_s05_1-3-10_bird_10_n02007558_13008.JPEG
subject-05,2,709,0.609325170516968,bird,bird,8-3-10,1989_eid_s05_8-3-10_bird_10_n01855672_8222.JPEG
subject-05,2,710,0.680086851119995,clock,clock,2-3-10,1990_eid_s05_2-3-10_clock_10_n02708093_3504.JPEG
subject-05,2,711,0.764610052108765,bicycle,keyboard,16-10-10,1991_eid_s05_16-10-10_keyboard_10_n04505470_4851.JPEG
subject-05,2,712,0.442728996276855,cat,cat,8-10-10,1992_eid_s05_8-10-10_cat_10_n02123045_147.JPEG
subject-05,2,713,NaN,na,airplane,4-10-10,1993_eid_s05_4-10-10_airplane_10_n02690373_9175.JPEG
subject-05,2,714,0.581737041473389,cat,cat,2-0-10,1994_eid_s05_2-0-10_cat_10_n02125311_44543.JPEG
subject-05,2,715,1.21948981285095,airplane,airplane,4-0-10,1995_eid_s05_4-0-10_airplane_10_n02690373_4350.JPEG
subject-05,2,716,0.812060117721558,bird,truck,8-0-10,1996_eid_s05_8-0-10_truck_10_n03796401_6142.JPEG
subject-05,2,717,0.990275144577026,boat,bicycle,32-3-10,1997_eid_s05_32-3-10_bicycle_10_n02835271_8324.JPEG
subject-05,2,718,0.783533096313477,bicycle,bicycle,2-3-10,1998_eid_s05_2-3-10_bicycle_10_n03792782_7770.JPEG
subject-05,2,719,0.691649913787842,cat,dog,2-0-10,1999_eid_s05_2-0-10_dog_10_n02093859_2753.JPEG
subject-05,2,720,0.562674045562744,oven,boat,128-3-10,2000_eid_s05_128-3-10_boat_10_n03344393_8181.JPEG
subject-05,2,721,1.28440189361572,bird,dog,8-10-10,2001_eid_s05_8-10-10_dog_10_n02094114_1610.JPEG
subject-05,2,722,0.633058071136475,boat,elephant,128-0-10,2002_eid_s05_128-0-10_elephant_10_n02504458_10439.JPEG
subject-05,2,723,0.780115127563477,bear,chair,8-0-10,2003_eid_s05_8-0-10_chair_10_n02791124_2408.JPEG
subject-05,2,724,1.17269396781921,dog,dog,8-0-10,2004_eid_s05_8-0-10_dog_10_n02106662_41731.JPEG
subject-05,2,725,0.5191969871521,cat,cat,16-3-10,2005_eid_s05_16-3-10_cat_10_n02124075_12461.JPEG
subject-05,2,726,0.735259056091309,cat,car,32-10-10,2006_eid_s05_32-10-10_car_10_n04285008_2042.JPEG
subject-05,2,727,0.435853958129883,boat,bicycle,32-0-10,2007_eid_s05_32-0-10_bicycle_10_n02835271_6167.JPEG
subject-05,2,728,1.02058005332947,dog,bird,8-3-10,2008_eid_s05_8-3-10_bird_10_n01622779_968.JPEG
subject-05,2,729,0.54482102394104,cat,car,64-0-10,2009_eid_s05_64-0-10_car_10_n02814533_3331.JPEG
subject-05,2,730,0.653362989425659,bear,bear,32-10-10,2010_eid_s05_32-10-10_bear_10_n02132136_27823.JPEG
subject-05,2,731,1.09930992126465,knife,knife,8-10-10,2011_eid_s05_8-10-10_knife_10_n03041632_18311.JPEG
subject-05,2,732,0.884142160415649,cat,oven,1-3-10,2012_eid_s05_1-3-10_oven_10_n04111531_2930.JPEG
subject-05,2,733,0.754678010940552,knife,knife,2-10-10,2013_eid_s05_2-10-10_knife_10_n03041632_29684.JPEG
subject-05,2,734,0.679256916046143,bottle,bottle,4-0-10,2014_eid_s05_4-0-10_bottle_10_n04591713_367.JPEG
subject-05,2,735,0.534094095230103,oven,truck,16-10-10,2015_eid_s05_16-10-10_truck_10_n03417042_5105.JPEG
subject-05,2,736,1.08671498298645,bear,bear,8-10-10,2016_eid_s05_8-10-10_bear_10_n02134084_2965.JPEG
subject-05,2,737,0.589042901992798,airplane,airplane,1-10-10,2017_eid_s05_1-10-10_airplane_10_n02690373_1050.JPEG
subject-05,2,738,1.17326903343201,cat,boat,128-3-10,2018_eid_s05_128-3-10_boat_10_n04612504_38933.JPEG
subject-05,2,739,0.65724778175354,car,clock,8-3-10,2019_eid_s05_8-3-10_clock_10_n03196217_5797.JPEG
subject-05,2,740,0.744086027145386,cat,cat,16-10-10,2020_eid_s05_16-10-10_cat_10_n02123394_14.JPEG
subject-05,2,741,0.744301080703735,knife,knife,4-3-10,2021_eid_s05_4-3-10_knife_10_n03041632_6575.JPEG
subject-05,2,742,1.04266500473022,dog,dog,8-10-10,2022_eid_s05_8-10-10_dog_10_n02108000_1712.JPEG
subject-05,2,743,0.613294839859009,chair,chair,1-10-10,2023_eid_s05_1-10-10_chair_10_n04099969_1914.JPEG
subject-05,2,744,0.838042020797729,chair,car,32-10-10,2024_eid_s05_32-10-10_car_10_n04285008_17007.JPEG
subject-05,2,745,0.462128162384033,boat,boat,128-3-10,2025_eid_s05_128-3-10_boat_10_n04273569_5786.JPEG
subject-05,2,746,0.492856025695801,cat,bird,32-10-10,2026_eid_s05_32-10-10_bird_10_n01829413_827.JPEG
subject-05,2,747,0.525581836700439,bear,dog,32-0-10,2027_eid_s05_32-0-10_dog_10_n02091467_8500.JPEG
subject-05,2,748,0.533979892730713,car,chair,64-0-10,2028_eid_s05_64-0-10_chair_10_n04099969_17193.JPEG
subject-05,2,749,0.980188846588135,oven,keyboard,16-10-10,2029_eid_s05_16-10-10_keyboard_10_n03085013_8007.JPEG
subject-05,2,750,0.597286939620972,airplane,airplane,4-10-10,2030_eid_s05_4-10-10_airplane_10_n02690373_3561.JPEG
subject-05,2,751,0.982077121734619,truck,keyboard,16-10-10,2031_eid_s05_16-10-10_keyboard_10_n04505470_1537.JPEG
subject-05,2,752,0.844256162643433,cat,chair,128-10-10,2032_eid_s05_128-10-10_chair_10_n04429376_9148.JPEG
subject-05,2,753,1.09062695503235,chair,chair,8-10-10,2033_eid_s05_8-10-10_chair_10_n04099969_3686.JPEG
subject-05,2,754,0.837240934371948,boat,elephant,128-0-10,2034_eid_s05_128-0-10_elephant_10_n02504458_1190.JPEG
subject-05,2,755,1.16977000236511,airplane,truck,8-3-10,2035_eid_s05_8-3-10_truck_10_n04467665_69878.JPEG
subject-05,2,756,0.732529878616333,cat,cat,16-0-10,2036_eid_s05_16-0-10_cat_10_n02123394_5559.JPEG
subject-05,2,757,0.595216989517212,bicycle,bicycle,8-3-10,2037_eid_s05_8-3-10_bicycle_10_n02835271_4742.JPEG
subject-05,2,758,1.45567297935486,bird,bird,4-3-10,2038_eid_s05_4-3-10_bird_10_n02011460_1917.JPEG
subject-05,2,759,0.542045831680298,boat,elephant,64-0-10,2039_eid_s05_64-0-10_elephant_10_n02504013_3210.JPEG
subject-05,2,760,0.634675025939941,oven,oven,2-3-10,2040_eid_s05_2-3-10_oven_10_n04111531_20511.JPEG
subject-05,2,761,0.635492086410522,cat,airplane,64-3-10,2041_eid_s05_64-3-10_airplane_10_n02690373_8163.JPEG
subject-05,2,762,0.851812124252319,elephant,elephant,4-0-10,2042_eid_s05_4-0-10_elephant_10_n02504013_174.JPEG
subject-05,2,763,0.714437007904053,car,car,2-3-10,2043_eid_s05_2-3-10_car_10_n02814533_89061.JPEG
subject-05,2,764,0.629266023635864,cat,oven,8-3-10,2044_eid_s05_8-3-10_oven_10_n04111531_4662.JPEG
subject-05,2,765,1.06132078170776,bird,clock,32-10-10,2045_eid_s05_32-10-10_clock_10_n03196217_6824.JPEG
subject-05,2,766,1.12986397743225,chair,chair,1-10-10,2046_eid_s05_1-10-10_chair_10_n02791124_1221.JPEG
subject-05,2,767,0.854340076446533,airplane,airplane,16-10-10,2047_eid_s05_16-10-10_airplane_10_n02690373_19074.JPEG
subject-05,2,768,0.555133104324341,cat,oven,8-0-10,2048_eid_s05_8-0-10_oven_10_n04111531_19274.JPEG
subject-05,2,769,0.784476041793823,bear,chair,8-0-10,2049_eid_s05_8-0-10_chair_10_n02791124_1774.JPEG
subject-05,2,770,0.723870992660522,dog,dog,8-10-10,2050_eid_s05_8-10-10_dog_10_n02088466_6789.JPEG
subject-05,2,771,0.753772020339966,car,car,1-3-10,2051_eid_s05_1-3-10_car_10_n03100240_7452.JPEG
subject-05,2,772,0.538841009140015,car,car,4-3-10,2052_eid_s05_4-3-10_car_10_n03100240_5979.JPEG
subject-05,2,773,1.09477496147156,keyboard,keyboard,4-10-10,2053_eid_s05_4-10-10_keyboard_10_n03085013_20206.JPEG
subject-05,2,774,0.536761045455933,boat,elephant,128-3-10,2054_eid_s05_128-3-10_elephant_10_n02504013_4523.JPEG
subject-05,2,775,0.967161893844604,knife,knife,2-10-10,2055_eid_s05_2-10-10_knife_10_n03041632_19275.JPEG
subject-05,2,776,0.675880908966064,bicycle,bicycle,4-3-10,2056_eid_s05_4-3-10_bicycle_10_n02835271_14123.JPEG
subject-05,2,777,0.954810857772827,bird,bird,2-0-10,2057_eid_s05_2-0-10_bird_10_n01530575_7856.JPEG
subject-05,2,778,0.646080017089844,chair,truck,4-10-10,2058_eid_s05_4-10-10_truck_10_n03796401_6644.JPEG
subject-05,2,779,0.714552879333496,airplane,airplane,32-10-10,2059_eid_s05_32-10-10_airplane_10_n02690373_3435.JPEG
subject-05,2,780,0.783879995346069,bird,bird,2-10-10,2060_eid_s05_2-10-10_bird_10_n01797886_9520.JPEG
subject-05,2,781,0.478068113327026,boat,airplane,32-0-10,2061_eid_s05_32-0-10_airplane_10_n02690373_6755.JPEG
subject-05,2,782,1.39441299438477,bear,bear,128-3-10,2062_eid_s05_128-3-10_bear_10_n02133161_10925.JPEG
subject-05,2,783,0.579000949859619,car,dog,64-0-10,2063_eid_s05_64-0-10_dog_10_n02090379_3323.JPEG
subject-05,2,784,1.48714995384216,clock,dog,16-0-10,2064_eid_s05_16-0-10_dog_10_n02091032_4258.JPEG
subject-05,2,785,0.525524854660034,cat,car,128-10-10,2065_eid_s05_128-10-10_car_10_n04285008_7870.JPEG
subject-05,2,786,1.13451600074768,airplane,boat,16-10-10,2066_eid_s05_16-10-10_boat_10_n04612504_7077.JPEG
subject-05,2,787,0.880029916763306,airplane,airplane,4-3-10,2067_eid_s05_4-3-10_airplane_10_n02690373_6789.JPEG
subject-05,2,788,1.11892414093018,dog,cat,128-3-10,2068_eid_s05_128-3-10_cat_10_n02123159_1355.JPEG
subject-05,2,789,1.36592793464661,truck,truck,1-3-10,2069_eid_s05_1-3-10_truck_10_n04467665_70694.JPEG
subject-05,2,790,0.982372045516968,car,bicycle,8-0-10,2070_eid_s05_8-0-10_bicycle_10_n02835271_317.JPEG
subject-05,2,791,0.660676002502441,oven,bird,32-0-10,2071_eid_s05_32-0-10_bird_10_n02011460_352.JPEG
subject-05,2,792,0.78310489654541,bottle,bottle,8-0-10,2072_eid_s05_8-0-10_bottle_10_n04591713_353.JPEG
subject-05,2,793,0.607846975326538,bear,bicycle,64-0-10,2073_eid_s05_64-0-10_bicycle_10_n02835271_10166.JPEG
subject-05,2,794,0.937584161758423,car,car,1-0-10,2074_eid_s05_1-0-10_car_10_n03100240_3070.JPEG
subject-05,2,795,0.57555890083313,cat,car,32-3-10,2075_eid_s05_32-3-10_car_10_n03100240_1703.JPEG
subject-05,2,796,0.768305063247681,bird,bicycle,32-0-10,2076_eid_s05_32-0-10_bicycle_10_n02835271_14176.JPEG
subject-05,2,797,0.752105951309204,boat,dog,128-0-10,2077_eid_s05_128-0-10_dog_10_n02091032_3012.JPEG
subject-05,2,798,1.0308039188385,bear,elephant,128-3-10,2078_eid_s05_128-3-10_elephant_10_n02504458_1312.JPEG
subject-05,2,799,1.23934507369995,dog,dog,4-10-10,2079_eid_s05_4-10-10_dog_10_n02085936_19314.JPEG
subject-05,2,800,0.732295989990234,cat,bear,1-10-10,2080_eid_s05_1-10-10_bear_10_n02134084_3091.JPEG
subject-05,2,801,0.694975137710571,oven,knife,128-0-10,2081_eid_s05_128-0-10_knife_10_n03041632_23546.JPEG
subject-05,2,802,0.662810802459717,airplane,bicycle,64-3-10,2082_eid_s05_64-3-10_bicycle_10_n02835271_7311.JPEG
subject-05,2,803,0.809070110321045,dog,dog,1-0-10,2083_eid_s05_1-0-10_dog_10_n02093428_3869.JPEG
subject-05,2,804,NaN,na,bottle,128-0-10,2084_eid_s05_128-0-10_bottle_10_n04591713_1390.JPEG
subject-05,2,805,1.08862495422363,cat,chair,16-0-10,2085_eid_s05_16-0-10_chair_10_n04429376_28372.JPEG
subject-05,2,806,0.613323926925659,boat,car,128-3-10,2086_eid_s05_128-3-10_car_10_n04285008_7154.JPEG
subject-05,2,807,0.60250997543335,bear,clock,64-10-10,2087_eid_s05_64-10-10_clock_10_n03196217_6388.JPEG
subject-05,2,808,0.535157918930054,boat,boat,4-10-10,2088_eid_s05_4-10-10_boat_10_n03344393_7909.JPEG
subject-05,2,809,0.497712135314941,boat,boat,8-3-10,2089_eid_s05_8-3-10_boat_10_n03344393_7243.JPEG
subject-05,2,810,0.887439966201782,dog,bear,8-0-10,2090_eid_s05_8-0-10_bear_10_n02134084_13947.JPEG
subject-05,2,811,0.596199035644531,car,bicycle,128-3-10,2091_eid_s05_128-3-10_bicycle_10_n02835271_3815.JPEG
subject-05,2,812,0.834271907806396,bottle,bottle,2-0-10,2092_eid_s05_2-0-10_bottle_10_n04591713_2095.JPEG
subject-05,2,813,0.580348968505859,cat,elephant,32-0-10,2093_eid_s05_32-0-10_elephant_10_n02504458_5619.JPEG
subject-05,2,814,1.17293214797974,car,car,2-0-10,2094_eid_s05_2-0-10_car_10_n03100240_1248.JPEG
subject-05,2,815,0.559464931488037,bear,boat,32-10-10,2095_eid_s05_32-10-10_boat_10_n02951358_33466.JPEG
subject-05,2,816,0.706362962722778,cat,cat,1-10-10,2096_eid_s05_1-10-10_cat_10_n02123597_12609.JPEG
subject-05,2,817,0.523136138916016,boat,boat,2-3-10,2097_eid_s05_2-3-10_boat_10_n04612504_22877.JPEG
subject-05,2,818,0.604882955551147,chair,chair,4-3-10,2098_eid_s05_4-3-10_chair_10_n04099969_15593.JPEG
subject-05,2,819,0.799239873886108,keyboard,chair,128-3-10,2099_eid_s05_128-3-10_chair_10_n04429376_10453.JPEG
subject-05,2,820,0.843119859695435,bird,keyboard,64-0-10,2100_eid_s05_64-0-10_keyboard_10_n03085013_24538.JPEG
subject-05,2,821,0.610468864440918,bear,airplane,32-3-10,2101_eid_s05_32-3-10_airplane_10_n02690373_7530.JPEG
subject-05,2,822,1.14063596725464,car,car,1-10-10,2102_eid_s05_1-10-10_car_10_n02814533_59762.JPEG
subject-05,2,823,0.718993902206421,knife,truck,64-10-10,2103_eid_s05_64-10-10_truck_10_n03796401_2380.JPEG
subject-05,2,824,0.603503942489624,keyboard,keyboard,4-10-10,2104_eid_s05_4-10-10_keyboard_10_n03085013_20483.JPEG
subject-05,2,825,0.83423900604248,bottle,truck,1-3-10,2105_eid_s05_1-3-10_truck_10_n04467665_5116.JPEG
subject-05,2,826,0.488278150558472,boat,dog,64-10-10,2106_eid_s05_64-10-10_dog_10_n02089867_8718.JPEG
subject-05,2,827,0.596650838851929,cat,clock,64-10-10,2107_eid_s05_64-10-10_clock_10_n03196217_3361.JPEG
subject-05,2,828,0.713845014572144,knife,knife,1-10-10,2108_eid_s05_1-10-10_knife_10_n03041632_9488.JPEG
subject-05,2,829,1.17410802841187,bear,bottle,16-3-10,2109_eid_s05_16-3-10_bottle_10_n04591713_1834.JPEG
subject-05,2,830,0.520035982131958,bicycle,dog,64-3-10,2110_eid_s05_64-3-10_dog_10_n02113799_727.JPEG
subject-05,2,831,0.720506191253662,knife,knife,1-3-10,2111_eid_s05_1-3-10_knife_10_n03041632_17338.JPEG
subject-05,2,832,0.550952911376953,clock,clock,4-10-10,2112_eid_s05_4-10-10_clock_10_n02708093_145.JPEG
subject-05,2,833,0.505511045455933,boat,truck,128-10-10,2113_eid_s05_128-10-10_truck_10_n03417042_4114.JPEG
subject-05,2,834,0.589869976043701,bicycle,bicycle,1-10-10,2114_eid_s05_1-10-10_bicycle_10_n03792782_19774.JPEG
subject-05,2,835,0.538372993469238,cat,truck,128-0-10,2115_eid_s05_128-0-10_truck_10_n04467665_7464.JPEG
subject-05,2,836,0.798893928527832,dog,dog,1-0-10,2116_eid_s05_1-0-10_dog_10_n02088094_1829.JPEG
subject-05,2,837,0.658891916275024,car,chair,64-0-10,2117_eid_s05_64-0-10_chair_10_n04099969_8925.JPEG
subject-05,2,838,1.08865880966187,knife,airplane,1-3-10,2118_eid_s05_1-3-10_airplane_10_n02690373_1019.JPEG
subject-05,2,839,0.667523145675659,keyboard,keyboard,8-10-10,2119_eid_s05_8-10-10_keyboard_10_n03085013_17762.JPEG
subject-05,2,840,0.552279949188232,oven,cat,32-10-10,2120_eid_s05_32-10-10_cat_10_n02123159_5934.JPEG
subject-05,2,841,0.845105886459351,chair,chair,1-0-10,2121_eid_s05_1-0-10_chair_10_n02791124_3372.JPEG
subject-05,2,842,0.686698913574219,boat,bottle,64-10-10,2122_eid_s05_64-10-10_bottle_10_n03983396_20629.JPEG
subject-05,2,843,0.627523899078369,oven,bear,1-0-10,2123_eid_s05_1-0-10_bear_10_n02133161_2813.JPEG
subject-05,2,844,0.618896007537842,bear,truck,8-3-10,2124_eid_s05_8-3-10_truck_10_n03417042_11452.JPEG
subject-05,2,845,0.587642192840576,cat,chair,16-3-10,2125_eid_s05_16-3-10_chair_10_n04429376_1954.JPEG
subject-05,2,846,0.647531032562256,bear,bear,2-3-10,2126_eid_s05_2-3-10_bear_10_n02132136_12616.JPEG
subject-05,2,847,0.510642051696777,boat,knife,16-0-10,2127_eid_s05_16-0-10_knife_10_n03041632_45622.JPEG
subject-05,2,848,0.480946063995361,cat,bear,128-3-10,2128_eid_s05_128-3-10_bear_10_n02134084_8153.JPEG
subject-05,2,849,1.11667108535767,truck,truck,1-3-10,2129_eid_s05_1-3-10_truck_10_n03796401_9472.JPEG
subject-05,2,850,0.979272842407227,car,truck,2-0-10,2130_eid_s05_2-0-10_truck_10_n04467665_35336.JPEG
subject-05,2,851,0.658204078674316,cat,bear,1-0-10,2131_eid_s05_1-0-10_bear_10_n02133161_959.JPEG
subject-05,2,852,0.826234817504883,bird,oven,64-3-10,2132_eid_s05_64-3-10_oven_10_n04111531_2662.JPEG
subject-05,2,853,0.872931003570557,knife,knife,1-0-10,2133_eid_s05_1-0-10_knife_10_n03041632_20697.JPEG
subject-05,2,854,0.622495174407959,oven,oven,2-10-10,2134_eid_s05_2-10-10_oven_10_n04111531_6695.JPEG
subject-05,2,855,0.515578985214233,cat,chair,64-3-10,2135_eid_s05_64-3-10_chair_10_n03376595_14464.JPEG
subject-05,2,856,1.07796001434326,boat,car,64-3-10,2136_eid_s05_64-3-10_car_10_n02814533_2216.JPEG
subject-05,2,857,0.516897916793823,cat,oven,32-3-10,2137_eid_s05_32-3-10_oven_10_n04111531_17507.JPEG
subject-05,2,858,0.62449312210083,chair,car,64-10-10,2138_eid_s05_64-10-10_car_10_n03100240_3522.JPEG
subject-05,2,859,0.487030029296875,bear,bear,64-10-10,2139_eid_s05_64-10-10_bear_10_n02133161_11288.JPEG
subject-05,2,860,0.500802993774414,cat,knife,32-10-10,2140_eid_s05_32-10-10_knife_10_n03041632_29276.JPEG
subject-05,2,861,0.593840837478638,boat,oven,32-10-10,2141_eid_s05_32-10-10_oven_10_n04111531_4879.JPEG
subject-05,2,862,0.940315008163452,truck,car,64-10-10,2142_eid_s05_64-10-10_car_10_n04285008_2056.JPEG
subject-05,2,863,0.664834022521973,bottle,bottle,1-0-10,2143_eid_s05_1-0-10_bottle_10_n04560804_915.JPEG
subject-05,2,864,1.22541904449463,car,car,2-10-10,2144_eid_s05_2-10-10_car_10_n04285008_3150.JPEG
subject-05,2,865,1.11772799491882,cat,cat,4-10-10,2145_eid_s05_4-10-10_cat_10_n02123159_2499.JPEG
subject-05,2,866,0.564133882522583,oven,oven,1-10-10,2146_eid_s05_1-10-10_oven_10_n04111531_14126.JPEG
subject-05,2,867,0.53515100479126,bear,chair,8-3-10,2147_eid_s05_8-3-10_chair_10_n04099969_214.JPEG
subject-05,2,868,0.920111894607544,truck,truck,1-10-10,2148_eid_s05_1-10-10_truck_10_n04467665_15613.JPEG
subject-05,2,869,0.757594108581543,chair,chair,2-10-10,2149_eid_s05_2-10-10_chair_10_n03376595_9214.JPEG
subject-05,2,870,0.520210981369019,clock,keyboard,64-0-10,2150_eid_s05_64-0-10_keyboard_10_n03085013_20078.JPEG
subject-05,2,871,0.428667068481445,boat,clock,32-0-10,2151_eid_s05_32-0-10_clock_10_n03196217_5052.JPEG
subject-05,2,872,0.497694969177246,cat,clock,32-10-10,2152_eid_s05_32-10-10_clock_10_n04548280_3746.JPEG
subject-05,2,873,0.630284070968628,boat,cat,128-10-10,2153_eid_s05_128-10-10_cat_10_n02124075_15348.JPEG
subject-05,2,874,0.830695152282715,bird,bird,2-10-10,2154_eid_s05_2-10-10_bird_10_n01820546_3934.JPEG
subject-05,2,875,0.876506805419922,bicycle,bicycle,2-3-10,2155_eid_s05_2-3-10_bicycle_10_n02835271_2624.JPEG
subject-05,2,876,0.606985807418823,oven,bird,128-3-10,2156_eid_s05_128-3-10_bird_10_n02017213_2785.JPEG
subject-05,2,877,1.16105198860168,keyboard,keyboard,16-10-10,2157_eid_s05_16-10-10_keyboard_10_n04505470_10665.JPEG
subject-05,2,878,0.538189172744751,boat,truck,4-0-10,2158_eid_s05_4-0-10_truck_10_n03417042_10546.JPEG
subject-05,2,879,0.538431882858276,cat,airplane,64-0-10,2159_eid_s05_64-0-10_airplane_10_n02690373_3216.JPEG
subject-05,2,880,0.638862133026123,bicycle,bicycle,1-10-10,2160_eid_s05_1-10-10_bicycle_10_n02835271_14966.JPEG
subject-05,2,881,0.609426975250244,chair,dog,32-0-10,2161_eid_s05_32-0-10_dog_10_n02090622_10216.JPEG
subject-05,2,882,0.747557878494263,bird,bird,1-3-10,2162_eid_s05_1-3-10_bird_10_n02013706_6067.JPEG
subject-05,2,883,0.602813959121704,boat,airplane,8-0-10,2163_eid_s05_8-0-10_airplane_10_n02690373_4119.JPEG
subject-05,2,884,0.600789070129395,clock,clock,16-10-10,2164_eid_s05_16-10-10_clock_10_n03196217_8054.JPEG
subject-05,2,885,0.517520904541016,boat,boat,4-3-10,2165_eid_s05_4-3-10_boat_10_n02951358_129.JPEG
subject-05,2,886,0.888163805007935,bottle,bottle,1-3-10,2166_eid_s05_1-3-10_bottle_10_n03983396_11904.JPEG
subject-05,2,887,0.781280994415283,bear,bicycle,128-10-10,2167_eid_s05_128-10-10_bicycle_10_n03792782_3456.JPEG
subject-05,2,888,0.773725986480713,bird,bird,2-3-10,2168_eid_s05_2-3-10_bird_10_n01824575_1444.JPEG
subject-05,2,889,0.720258951187134,car,clock,32-0-10,2169_eid_s05_32-0-10_clock_10_n04548280_8246.JPEG
subject-05,2,890,0.709895133972168,elephant,elephant,4-0-10,2170_eid_s05_4-0-10_elephant_10_n02504013_1500.JPEG
subject-05,2,891,0.596853017807007,boat,boat,8-0-10,2171_eid_s05_8-0-10_boat_10_n03344393_4083.JPEG
subject-05,2,892,0.664474010467529,cat,bird,64-10-10,2172_eid_s05_64-10-10_bird_10_n01829413_5043.JPEG
subject-05,2,893,0.8108229637146,elephant,elephant,1-0-10,2173_eid_s05_1-0-10_elephant_10_n02504458_6880.JPEG
subject-05,2,894,0.720177888870239,bicycle,chair,128-0-10,2174_eid_s05_128-0-10_chair_10_n03376595_11533.JPEG
subject-05,2,895,0.512540102005005,bear,chair,64-3-10,2175_eid_s05_64-3-10_chair_10_n03376595_2001.JPEG
subject-05,2,896,0.542979001998901,oven,oven,1-3-10,2176_eid_s05_1-3-10_oven_10_n04111531_1830.JPEG
subject-05,2,897,0.95174503326416,car,clock,128-0-10,2177_eid_s05_128-0-10_clock_10_n02708093_2041.JPEG
subject-05,2,898,0.706268072128296,bird,bird,2-0-10,2178_eid_s05_2-0-10_bird_10_n02007558_11108.JPEG
subject-05,2,899,0.536314964294434,boat,bear,128-10-10,2179_eid_s05_128-10-10_bear_10_n02134418_3964.JPEG
subject-05,2,900,0.682888984680176,truck,truck,2-10-10,2180_eid_s05_2-10-10_truck_10_n03417042_20826.JPEG
subject-05,2,901,0.773179054260254,elephant,elephant,2-3-10,2181_eid_s05_2-3-10_elephant_10_n02504458_5844.JPEG
subject-05,2,902,0.835366010665894,keyboard,keyboard,1-10-10,2182_eid_s05_1-10-10_keyboard_10_n03085013_5714.JPEG
subject-05,2,903,0.590182065963745,oven,oven,8-10-10,2183_eid_s05_8-10-10_oven_10_n04111531_9224.JPEG
subject-05,2,904,0.61256217956543,boat,keyboard,128-10-10,2184_eid_s05_128-10-10_keyboard_10_n03085013_1483.JPEG
subject-05,2,905,0.943063020706177,clock,bottle,2-10-10,2185_eid_s05_2-10-10_bottle_10_n04557648_1930.JPEG
subject-05,2,906,0.483433961868286,cat,chair,128-10-10,2186_eid_s05_128-10-10_chair_10_n03376595_7835.JPEG
subject-05,2,907,0.668215990066528,chair,chair,16-10-10,2187_eid_s05_16-10-10_chair_10_n03376595_3100.JPEG
subject-05,2,908,0.898567199707031,cat,truck,16-10-10,2188_eid_s05_16-10-10_truck_10_n03417042_15898.JPEG
subject-05,2,909,1.02836298942566,boat,boat,32-0-10,2189_eid_s05_32-0-10_boat_10_n03344393_8941.JPEG
subject-05,2,910,0.713194847106934,bear,cat,32-10-10,2190_eid_s05_32-10-10_cat_10_n02125311_15440.JPEG
subject-05,2,911,0.645833969116211,cat,cat,1-10-10,2191_eid_s05_1-10-10_cat_10_n02123159_7228.JPEG
subject-05,2,912,0.590167999267578,car,bicycle,128-10-10,2192_eid_s05_128-10-10_bicycle_10_n03792782_4277.JPEG
subject-05,2,913,0.957988977432251,truck,keyboard,64-10-10,2193_eid_s05_64-10-10_keyboard_10_n03085013_20269.JPEG
subject-05,2,914,0.782788991928101,clock,clock,1-10-10,2194_eid_s05_1-10-10_clock_10_n02708093_772.JPEG
subject-05,2,915,0.526618003845215,cat,dog,8-0-10,2195_eid_s05_8-0-10_dog_10_n02096051_3899.JPEG
subject-05,2,916,0.629220962524414,boat,boat,4-0-10,2196_eid_s05_4-0-10_boat_10_n03344393_5099.JPEG
subject-05,2,917,0.560273885726929,oven,elephant,32-3-10,2197_eid_s05_32-3-10_elephant_10_n02504013_7539.JPEG
subject-05,2,918,0.668684959411621,chair,bear,32-0-10,2198_eid_s05_32-0-10_bear_10_n02132136_22717.JPEG
subject-05,2,919,0.945114850997925,keyboard,boat,32-0-10,2199_eid_s05_32-0-10_boat_10_n03662601_2686.JPEG
subject-05,2,920,0.450923919677734,boat,bear,8-0-10,2200_eid_s05_8-0-10_bear_10_n02133161_6448.JPEG
subject-05,2,921,0.789330005645752,keyboard,keyboard,2-3-10,2201_eid_s05_2-3-10_keyboard_10_n04505470_7421.JPEG
subject-05,2,922,1.07442712783813,keyboard,keyboard,1-10-10,2202_eid_s05_1-10-10_keyboard_10_n03085013_19376.JPEG
subject-05,2,923,0.699306011199951,boat,knife,128-3-10,2203_eid_s05_128-3-10_knife_10_n03041632_36907.JPEG
subject-05,2,924,1.03834199905396,car,truck,16-10-10,2204_eid_s05_16-10-10_truck_10_n03417042_7191.JPEG
subject-05,2,925,0.822561979293823,bear,knife,4-0-10,2205_eid_s05_4-0-10_knife_10_n03041632_36247.JPEG
subject-05,2,926,0.747076988220215,keyboard,keyboard,4-3-10,2206_eid_s05_4-3-10_keyboard_10_n03085013_4281.JPEG
subject-05,2,927,0.803100109100342,oven,keyboard,16-0-10,2207_eid_s05_16-0-10_keyboard_10_n04505470_4224.JPEG
subject-05,2,928,0.536082983016968,clock,oven,64-0-10,2208_eid_s05_64-0-10_oven_10_n04111531_1989.JPEG
subject-05,2,929,0.657166957855225,airplane,chair,64-10-10,2209_eid_s05_64-10-10_chair_10_n04099969_142.JPEG
subject-05,2,930,0.763474941253662,bear,car,16-0-10,2210_eid_s05_16-0-10_car_10_n04285008_13633.JPEG
subject-05,2,931,0.585754156112671,cat,cat,64-10-10,2211_eid_s05_64-10-10_cat_10_n02123394_2859.JPEG
subject-05,2,932,0.710574865341187,bottle,oven,8-0-10,2212_eid_s05_8-0-10_oven_10_n04111531_2024.JPEG
subject-05,2,933,0.670720100402832,chair,boat,128-3-10,2213_eid_s05_128-3-10_boat_10_n04612504_20800.JPEG
subject-05,2,934,0.933204889297485,bird,clock,64-10-10,2214_eid_s05_64-10-10_clock_10_n04548280_6984.JPEG
subject-05,2,935,0.863695859909058,truck,truck,2-10-10,2215_eid_s05_2-10-10_truck_10_n03796401_14189.JPEG
subject-05,2,936,0.924804925918579,car,elephant,128-3-10,2216_eid_s05_128-3-10_elephant_10_n02504013_4737.JPEG
subject-05,2,937,0.811146974563599,clock,cat,64-3-10,2217_eid_s05_64-3-10_cat_10_n02123597_3408.JPEG
subject-05,2,938,0.625785827636719,cat,elephant,32-0-10,2218_eid_s05_32-0-10_elephant_10_n02504458_2190.JPEG
subject-05,2,939,0.464974880218506,boat,elephant,16-10-10,2219_eid_s05_16-10-10_elephant_10_n02504013_4508.JPEG
subject-05,2,940,0.669857025146484,chair,bird,8-0-10,2220_eid_s05_8-0-10_bird_10_n01817953_1276.JPEG
subject-05,2,941,0.716930866241455,cat,elephant,16-3-10,2221_eid_s05_16-3-10_elephant_10_n02504458_9255.JPEG
subject-05,2,942,0.871315956115723,clock,clock,4-0-10,2222_eid_s05_4-0-10_clock_10_n03196217_1.JPEG
subject-05,2,943,1.06183409690857,bear,chair,16-10-10,2223_eid_s05_16-10-10_chair_10_n03376595_7010.JPEG
subject-05,2,944,1.13235902786255,bear,bear,4-3-10,2224_eid_s05_4-3-10_bear_10_n02134084_20692.JPEG
subject-05,2,945,0.56272292137146,cat,cat,32-10-10,2225_eid_s05_32-10-10_cat_10_n02123045_3998.JPEG
subject-05,2,946,0.985441923141479,elephant,airplane,128-10-10,2226_eid_s05_128-10-10_airplane_10_n02690373_17130.JPEG
subject-05,2,947,0.886071920394897,bird,bird,4-0-10,2227_eid_s05_4-0-10_bird_10_n02002556_735.JPEG
subject-05,2,948,1.36934304237366,elephant,elephant,4-0-10,2228_eid_s05_4-0-10_elephant_10_n02504458_945.JPEG
subject-05,2,949,0.561944007873535,bear,bottle,16-0-10,2229_eid_s05_16-0-10_bottle_10_n03937543_2270.JPEG
subject-05,2,950,0.54645299911499,cat,bird,16-3-10,2230_eid_s05_16-3-10_bird_10_n01819313_5552.JPEG
subject-05,2,951,0.66182804107666,airplane,dog,128-3-10,2231_eid_s05_128-3-10_dog_10_n02097298_9967.JPEG
subject-05,2,952,0.708332061767578,bicycle,bottle,128-10-10,2232_eid_s05_128-10-10_bottle_10_n04579145_2955.JPEG
subject-05,2,953,0.437839984893799,boat,bicycle,16-0-10,2233_eid_s05_16-0-10_bicycle_10_n02835271_11988.JPEG
subject-05,2,954,0.708914995193481,car,keyboard,64-10-10,2234_eid_s05_64-10-10_keyboard_10_n04505470_2816.JPEG
subject-05,2,955,1.12328910827637,bird,knife,8-3-10,2235_eid_s05_8-3-10_knife_10_n03041632_25331.JPEG
