subj,session,trial,rt,object_response,category,condition,imagename
subject-08,3,1,0.815179824829102,cat,car,16-0-10,2561_eid_s08_16-0-10_car_10_n04285008_11186.JPEG
subject-08,3,2,0.806924104690552,car,bird,128-0-10,2562_eid_s08_128-0-10_bird_10_n01820546_21.JPEG
subject-08,3,3,0.969012975692749,bird,bicycle,32-3-10,2563_eid_s08_32-3-10_bicycle_10_n02835271_91.JPEG
subject-08,3,4,0.684758186340332,airplane,airplane,2-10-10,2564_eid_s08_2-10-10_airplane_10_n02690373_9533.JPEG
subject-08,3,5,0.875310897827148,bear,bear,32-10-10,2565_eid_s08_32-10-10_bear_10_n02134418_925.JPEG
subject-08,3,6,1.20552492141724,boat,truck,64-10-10,2566_eid_s08_64-10-10_truck_10_n03796401_23711.JPEG
subject-08,3,7,0.760117053985596,cat,dog,64-10-10,2567_eid_s08_64-10-10_dog_10_n02107908_11160.JPEG
subject-08,3,8,0.716531038284302,bird,oven,32-3-10,2568_eid_s08_32-3-10_oven_10_n04111531_6094.JPEG
subject-08,3,9,0.808957099914551,bear,bird,128-10-10,2569_eid_s08_128-10-10_bird_10_n02028035_4041.JPEG
subject-08,3,10,1.36646008491516,knife,boat,16-10-10,2570_eid_s08_16-10-10_boat_10_n02951358_13240.JPEG
subject-08,3,11,0.797980070114136,airplane,airplane,8-10-10,2571_eid_s08_8-10-10_airplane_10_n02690373_8444.JPEG
subject-08,3,12,0.928486108779907,airplane,boat,1-10-10,2572_eid_s08_1-10-10_boat_10_n03344393_1392.JPEG
subject-08,3,13,0.676882028579712,clock,clock,1-10-10,2573_eid_s08_1-10-10_clock_10_n04548280_24096.JPEG
subject-08,3,14,0.607691049575806,bottle,bottle,2-3-10,2574_eid_s08_2-3-10_bottle_10_n04557648_9869.JPEG
subject-08,3,15,0.655272006988525,car,bear,128-0-10,2575_eid_s08_128-0-10_bear_10_n02132136_18353.JPEG
subject-08,3,16,0.73993992805481,airplane,airplane,8-10-10,2576_eid_s08_8-10-10_airplane_10_n02690373_1434.JPEG
subject-08,3,17,0.850245952606201,keyboard,bicycle,8-0-10,2577_eid_s08_8-0-10_bicycle_10_n02835271_3215.JPEG
subject-08,3,18,0.858551979064941,airplane,airplane,1-3-10,2578_eid_s08_1-3-10_airplane_10_n02690373_5824.JPEG
subject-08,3,19,1.07526683807373,bear,knife,64-3-10,2579_eid_s08_64-3-10_knife_10_n03041632_24114.JPEG
subject-08,3,20,1.05078196525574,chair,bottle,16-3-10,2580_eid_s08_16-3-10_bottle_10_n02823428_14324.JPEG
subject-08,3,21,0.552686929702759,car,dog,32-3-10,2581_eid_s08_32-3-10_dog_10_n02093754_5708.JPEG
subject-08,3,22,0.783042907714844,keyboard,dog,128-0-10,2582_eid_s08_128-0-10_dog_10_n02099849_523.JPEG
subject-08,3,23,0.823037147521973,bear,bird,64-10-10,2583_eid_s08_64-10-10_bird_10_n01798484_3256.JPEG
subject-08,3,24,0.823022127151489,chair,bicycle,64-0-10,2584_eid_s08_64-0-10_bicycle_10_n03792782_8357.JPEG
subject-08,3,25,1.03697299957275,car,oven,64-0-10,2585_eid_s08_64-0-10_oven_10_n04111531_6204.JPEG
subject-08,3,26,0.923382043838501,bottle,bottle,1-3-10,2586_eid_s08_1-3-10_bottle_10_n03983396_24161.JPEG
subject-08,3,27,1.44831895828247,bird,bird,8-0-10,2587_eid_s08_8-0-10_bird_10_n01560419_6781.JPEG
subject-08,3,28,0.986723184585571,cat,clock,64-3-10,2588_eid_s08_64-3-10_clock_10_n04548280_3049.JPEG
subject-08,3,29,0.481362819671631,cat,cat,2-10-10,2589_eid_s08_2-10-10_cat_10_n02123045_7702.JPEG
subject-08,3,30,1.04341912269592,dog,oven,8-3-10,2590_eid_s08_8-3-10_oven_10_n04111531_3702.JPEG
subject-08,3,31,0.58952522277832,car,truck,128-3-10,2591_eid_s08_128-3-10_truck_10_n03417042_21270.JPEG
subject-08,3,32,1.50021004676819,elephant,bear,2-10-10,2592_eid_s08_2-10-10_bear_10_n02132136_15581.JPEG
subject-08,3,33,1.24628400802612,bird,bird,1-0-10,2593_eid_s08_1-0-10_bird_10_n02009912_1035.JPEG
subject-08,3,34,0.993513107299805,bicycle,bear,128-0-10,2594_eid_s08_128-0-10_bear_10_n02133161_7233.JPEG
subject-08,3,35,1.02574300765991,airplane,airplane,2-10-10,2595_eid_s08_2-10-10_airplane_10_n02690373_7573.JPEG
subject-08,3,36,0.796047925949097,car,car,128-0-10,2596_eid_s08_128-0-10_car_10_n02814533_22889.JPEG
subject-08,3,37,0.966643095016479,car,car,1-3-10,2597_eid_s08_1-3-10_car_10_n03100240_13909.JPEG
subject-08,3,38,1.17497706413269,boat,truck,32-0-10,2598_eid_s08_32-0-10_truck_10_n03417042_17684.JPEG
subject-08,3,39,0.93150806427002,bird,bird,16-3-10,2599_eid_s08_16-3-10_bird_10_n01855672_6867.JPEG
subject-08,3,40,0.931747913360596,chair,chair,4-0-10,2600_eid_s08_4-0-10_chair_10_n04099969_21114.JPEG
subject-08,3,41,1.25269198417664,boat,bicycle,64-10-10,2601_eid_s08_64-10-10_bicycle_10_n02835271_17184.JPEG
subject-08,3,42,0.977728843688965,car,car,16-3-10,2602_eid_s08_16-3-10_car_10_n03100240_6979.JPEG
subject-08,3,43,1.03976202011108,bicycle,clock,128-3-10,2603_eid_s08_128-3-10_clock_10_n02708093_5346.JPEG
subject-08,3,44,0.942432165145874,cat,bear,16-3-10,2604_eid_s08_16-3-10_bear_10_n02132136_25886.JPEG
subject-08,3,45,0.758538007736206,airplane,truck,32-3-10,2605_eid_s08_32-3-10_truck_10_n03796401_1425.JPEG
subject-08,3,46,0.63672399520874,car,car,4-0-10,2606_eid_s08_4-0-10_car_10_n02814533_71838.JPEG
subject-08,3,47,1.50006103515625,knife,knife,1-3-10,2607_eid_s08_1-3-10_knife_10_n03041632_11186.JPEG
subject-08,3,48,0.783425807952881,cat,bear,64-10-10,2608_eid_s08_64-10-10_bear_10_n02133161_10859.JPEG
subject-08,3,49,0.975518941879272,chair,airplane,128-0-10,2609_eid_s08_128-0-10_airplane_10_n02690373_14117.JPEG
subject-08,3,50,0.885356903076172,boat,airplane,32-3-10,2610_eid_s08_32-3-10_airplane_10_n02690373_2447.JPEG
subject-08,3,51,0.785907983779907,keyboard,keyboard,4-0-10,2611_eid_s08_4-0-10_keyboard_10_n03085013_914.JPEG
subject-08,3,52,0.624292850494385,clock,clock,4-0-10,2612_eid_s08_4-0-10_clock_10_n04548280_15867.JPEG
subject-08,3,53,1.07258105278015,oven,oven,2-0-10,2613_eid_s08_2-0-10_oven_10_n04111531_11868.JPEG
subject-08,3,54,0.889553070068359,airplane,airplane,8-3-10,2614_eid_s08_8-3-10_airplane_10_n02690373_3956.JPEG
subject-08,3,55,1.08927798271179,bottle,bottle,4-10-10,2615_eid_s08_4-10-10_bottle_10_n03937543_464.JPEG
subject-08,3,56,0.913971185684204,car,car,16-3-10,2616_eid_s08_16-3-10_car_10_n03100240_203.JPEG
subject-08,3,57,1.06844305992126,elephant,elephant,2-10-10,2617_eid_s08_2-10-10_elephant_10_n02504013_6001.JPEG
subject-08,3,58,1.05474805831909,truck,knife,32-10-10,2618_eid_s08_32-10-10_knife_10_n03041632_1884.JPEG
subject-08,3,59,0.925204992294312,oven,clock,16-0-10,2619_eid_s08_16-0-10_clock_10_n02708093_1002.JPEG
subject-08,3,60,1.10132479667664,cat,clock,64-10-10,2620_eid_s08_64-10-10_clock_10_n04548280_6039.JPEG
subject-08,3,61,1.21797394752502,dog,bear,1-0-10,2621_eid_s08_1-0-10_bear_10_n02134418_723.JPEG
subject-08,3,62,0.779681921005249,bird,bird,16-10-10,2622_eid_s08_16-10-10_bird_10_n02006656_9363.JPEG
subject-08,3,63,1.02584290504456,car,cat,32-0-10,2623_eid_s08_32-0-10_cat_10_n02123597_2299.JPEG
subject-08,3,64,1.00457000732422,elephant,elephant,1-10-10,2624_eid_s08_1-10-10_elephant_10_n02504013_846.JPEG
subject-08,3,65,0.99915885925293,bird,bird,2-10-10,2625_eid_s08_2-10-10_bird_10_n01622779_7279.JPEG
subject-08,3,66,1.03762102127075,bear,oven,64-10-10,2626_eid_s08_64-10-10_oven_10_n04111531_8353.JPEG
subject-08,3,67,1.18618297576904,dog,bird,64-0-10,2627_eid_s08_64-0-10_bird_10_n01795545_6925.JPEG
subject-08,3,68,1.46259903907776,oven,knife,2-3-10,2628_eid_s08_2-3-10_knife_10_n03041632_6557.JPEG
subject-08,3,69,0.894863843917847,clock,clock,8-0-10,2629_eid_s08_8-0-10_clock_10_n02708093_135.JPEG
subject-08,3,70,1.21919417381287,keyboard,keyboard,1-3-10,2630_eid_s08_1-3-10_keyboard_10_n04505470_5175.JPEG
subject-08,3,71,0.943714141845703,bird,bird,2-0-10,2631_eid_s08_2-0-10_bird_10_n01820546_5571.JPEG
subject-08,3,72,1.32211017608643,knife,knife,1-3-10,2632_eid_s08_1-3-10_knife_10_n03041632_20595.JPEG
subject-08,3,73,0.890233039855957,clock,clock,16-10-10,2633_eid_s08_16-10-10_clock_10_n02708093_6799.JPEG
subject-08,3,74,0.898015022277832,boat,keyboard,64-10-10,2634_eid_s08_64-10-10_keyboard_10_n03085013_5751.JPEG
subject-08,3,75,1.15292096138,truck,boat,32-3-10,2635_eid_s08_32-3-10_boat_10_n03662601_24185.JPEG
subject-08,3,76,0.608680963516235,cat,cat,1-10-10,2636_eid_s08_1-10-10_cat_10_n02123597_2957.JPEG
subject-08,3,77,0.817070007324219,keyboard,keyboard,1-10-10,2637_eid_s08_1-10-10_keyboard_10_n03085013_22351.JPEG
subject-08,3,78,1.02557110786438,bear,dog,16-10-10,2638_eid_s08_16-10-10_dog_10_n02100877_16987.JPEG
subject-08,3,79,1.18812799453735,dog,chair,64-10-10,2639_eid_s08_64-10-10_chair_10_n03376595_3165.JPEG
subject-08,3,80,0.834302186965942,airplane,airplane,8-10-10,2640_eid_s08_8-10-10_airplane_10_n02690373_1837.JPEG
subject-08,3,81,1.12894296646118,bear,dog,32-3-10,2641_eid_s08_32-3-10_dog_10_n02091244_2334.JPEG
subject-08,3,82,0.821455001831055,cat,elephant,64-10-10,2642_eid_s08_64-10-10_elephant_10_n02504458_9922.JPEG
subject-08,3,83,1.2535982131958,bird,bird,1-0-10,2643_eid_s08_1-0-10_bird_10_n01860187_18482.JPEG
subject-08,3,84,0.966967105865479,airplane,airplane,32-10-10,2644_eid_s08_32-10-10_airplane_10_n02690373_9535.JPEG
subject-08,3,85,1.3858859539032,boat,boat,16-10-10,2645_eid_s08_16-10-10_boat_10_n04273569_21187.JPEG
subject-08,3,86,1.27852392196655,airplane,dog,1-3-10,2646_eid_s08_1-3-10_dog_10_n02098286_4586.JPEG
subject-08,3,87,0.881379842758179,elephant,elephant,1-0-10,2647_eid_s08_1-0-10_elephant_10_n02504458_6171.JPEG
subject-08,3,88,0.981895923614502,keyboard,oven,8-0-10,2648_eid_s08_8-0-10_oven_10_n04111531_3204.JPEG
subject-08,3,89,0.64382004737854,car,car,2-3-10,2649_eid_s08_2-3-10_car_10_n02814533_2905.JPEG
subject-08,3,90,0.898463010787964,bottle,bottle,16-10-10,2650_eid_s08_16-10-10_bottle_10_n03983396_4547.JPEG
subject-08,3,91,1.07718515396118,truck,keyboard,128-3-10,2651_eid_s08_128-3-10_keyboard_10_n03085013_23115.JPEG
subject-08,3,92,0.847332954406738,keyboard,knife,32-3-10,2652_eid_s08_32-3-10_knife_10_n03041632_105581.JPEG
subject-08,3,93,0.718310832977295,boat,clock,64-0-10,2653_eid_s08_64-0-10_clock_10_n04548280_20518.JPEG
subject-08,3,94,0.742645025253296,bird,bird,16-10-10,2654_eid_s08_16-10-10_bird_10_n01855672_13840.JPEG
subject-08,3,95,1.25585913658142,bear,boat,32-3-10,2655_eid_s08_32-3-10_boat_10_n03662601_12649.JPEG
subject-08,3,96,0.978227138519287,car,knife,16-3-10,2656_eid_s08_16-3-10_knife_10_n03041632_23546.JPEG
subject-08,3,97,1.0940248966217,airplane,bear,32-3-10,2657_eid_s08_32-3-10_bear_10_n02134418_4406.JPEG
subject-08,3,98,1.35639214515686,cat,keyboard,8-0-10,2658_eid_s08_8-0-10_keyboard_10_n04505470_8251.JPEG
subject-08,3,99,0.742709875106812,keyboard,chair,128-0-10,2659_eid_s08_128-0-10_chair_10_n02791124_4981.JPEG
subject-08,3,100,0.75975489616394,bicycle,bicycle,2-10-10,2660_eid_s08_2-10-10_bicycle_10_n03792782_8097.JPEG
subject-08,3,101,1.32977890968323,bear,bottle,8-0-10,2661_eid_s08_8-0-10_bottle_10_n04591713_4564.JPEG
subject-08,3,102,0.876466035842896,keyboard,oven,2-10-10,2662_eid_s08_2-10-10_oven_10_n04111531_172.JPEG
subject-08,3,103,1.30084896087646,chair,boat,2-0-10,2663_eid_s08_2-0-10_boat_10_n03662601_34676.JPEG
subject-08,3,104,NaN,na,oven,2-10-10,2664_eid_s08_2-10-10_oven_10_n04111531_5727.JPEG
subject-08,3,105,0.99586009979248,cat,bird,1-10-10,2665_eid_s08_1-10-10_bird_10_n01798484_8842.JPEG
subject-08,3,106,0.680501937866211,elephant,elephant,16-10-10,2666_eid_s08_16-10-10_elephant_10_n02504458_10264.JPEG
subject-08,3,107,0.829005002975464,car,bear,128-0-10,2667_eid_s08_128-0-10_bear_10_n02134418_2157.JPEG
subject-08,3,108,0.867645978927612,bottle,bottle,4-0-10,2668_eid_s08_4-0-10_bottle_10_n04557648_11206.JPEG
subject-08,3,109,1.19988799095154,truck,boat,8-3-10,2669_eid_s08_8-3-10_boat_10_n03662601_25430.JPEG
subject-08,3,110,0.984482049942017,bird,bird,2-3-10,2670_eid_s08_2-3-10_bird_10_n02002556_1389.JPEG
subject-08,3,111,1.05501794815063,knife,chair,32-0-10,2671_eid_s08_32-0-10_chair_10_n04099969_1229.JPEG
subject-08,3,112,0.900897026062012,clock,clock,1-0-10,2672_eid_s08_1-0-10_clock_10_n04548280_7354.JPEG
subject-08,3,113,0.887871980667114,bottle,keyboard,2-0-10,2673_eid_s08_2-0-10_keyboard_10_n04505470_8620.JPEG
subject-08,3,114,1.32827615737915,bird,bird,1-0-10,2674_eid_s08_1-0-10_bird_10_n02018207_6244.JPEG
subject-08,3,115,0.950919151306152,elephant,airplane,16-3-10,2675_eid_s08_16-3-10_airplane_10_n02690373_2605.JPEG
subject-08,3,116,1.21321511268616,cat,oven,16-10-10,2676_eid_s08_16-10-10_oven_10_n04111531_13797.JPEG
subject-08,3,117,0.769900798797607,keyboard,knife,16-0-10,2677_eid_s08_16-0-10_knife_10_n03041632_36907.JPEG
subject-08,3,118,0.724218845367432,keyboard,keyboard,2-0-10,2678_eid_s08_2-0-10_keyboard_10_n04505470_2869.JPEG
subject-08,3,119,1.31695890426636,airplane,airplane,8-10-10,2679_eid_s08_8-10-10_airplane_10_n02690373_8560.JPEG
subject-08,3,120,0.971026182174683,car,oven,32-0-10,2680_eid_s08_32-0-10_oven_10_n04111531_13520.JPEG
subject-08,3,121,1.04885220527649,bird,knife,8-3-10,2681_eid_s08_8-3-10_knife_10_n03041632_7279.JPEG
subject-08,3,122,1.11875200271606,bicycle,truck,128-3-10,2682_eid_s08_128-3-10_truck_10_n04467665_69613.JPEG
subject-08,3,123,0.993253231048584,bottle,bicycle,64-3-10,2683_eid_s08_64-3-10_bicycle_10_n02835271_1738.JPEG
subject-08,3,124,0.769602060317993,boat,bicycle,16-0-10,2684_eid_s08_16-0-10_bicycle_10_n03792782_12074.JPEG
subject-08,3,125,1.36997389793396,chair,chair,8-10-10,2685_eid_s08_8-10-10_chair_10_n03376595_13797.JPEG
subject-08,3,126,1.14849400520325,boat,boat,32-10-10,2686_eid_s08_32-10-10_boat_10_n04273569_23705.JPEG
subject-08,3,127,0.813153982162476,car,car,4-3-10,2687_eid_s08_4-3-10_car_10_n02814533_72213.JPEG
subject-08,3,128,1.06517910957336,bottle,bottle,2-10-10,2688_eid_s08_2-10-10_bottle_10_n04560804_14088.JPEG
subject-08,3,129,1.26026320457458,dog,dog,4-10-10,2689_eid_s08_4-10-10_dog_10_n02094114_6744.JPEG
subject-08,3,130,0.822617053985596,cat,keyboard,16-3-10,2690_eid_s08_16-3-10_keyboard_10_n04505470_292.JPEG
subject-08,3,131,0.646403074264526,elephant,elephant,4-10-10,2691_eid_s08_4-10-10_elephant_10_n02504458_5501.JPEG
subject-08,3,132,1.07061886787415,boat,boat,1-0-10,2692_eid_s08_1-0-10_boat_10_n03344393_9575.JPEG
subject-08,3,133,0.814464092254639,boat,boat,2-3-10,2693_eid_s08_2-3-10_boat_10_n03662601_10811.JPEG
subject-08,3,134,1.33836197853088,cat,bicycle,8-0-10,2694_eid_s08_8-0-10_bicycle_10_n02835271_942.JPEG
subject-08,3,135,0.893002033233643,bird,bird,2-0-10,2695_eid_s08_2-0-10_bird_10_n02051845_4170.JPEG
subject-08,3,136,1.15509104728699,bear,bear,4-0-10,2696_eid_s08_4-0-10_bear_10_n02134418_10221.JPEG
subject-08,3,137,0.86365795135498,bear,bear,1-3-10,2697_eid_s08_1-3-10_bear_10_n02133161_522.JPEG
subject-08,3,138,0.988127946853638,airplane,boat,128-3-10,2698_eid_s08_128-3-10_boat_10_n04273569_15600.JPEG
subject-08,3,139,0.920678853988647,keyboard,keyboard,4-3-10,2699_eid_s08_4-3-10_keyboard_10_n04505470_7721.JPEG
subject-08,3,140,1.38886880874634,bear,elephant,64-0-10,2700_eid_s08_64-0-10_elephant_10_n02504013_1986.JPEG
subject-08,3,141,1.08103895187378,chair,clock,64-3-10,2701_eid_s08_64-3-10_clock_10_n02708093_425.JPEG
subject-08,3,142,0.783368825912476,knife,knife,1-0-10,2702_eid_s08_1-0-10_knife_10_n03041632_27575.JPEG
subject-08,3,143,0.813565969467163,bicycle,bicycle,8-10-10,2703_eid_s08_8-10-10_bicycle_10_n03792782_5079.JPEG
subject-08,3,144,0.859206914901733,knife,knife,8-3-10,2704_eid_s08_8-3-10_knife_10_n03041632_45622.JPEG
subject-08,3,145,0.875514984130859,truck,car,64-3-10,2705_eid_s08_64-3-10_car_10_n02814533_88566.JPEG
subject-08,3,146,0.776454925537109,boat,boat,2-10-10,2706_eid_s08_2-10-10_boat_10_n03662601_15970.JPEG
subject-08,3,147,0.730587005615234,clock,clock,1-10-10,2707_eid_s08_1-10-10_clock_10_n03196217_4232.JPEG
subject-08,3,148,1.16332817077637,bear,chair,4-0-10,2708_eid_s08_4-0-10_chair_10_n04429376_54538.JPEG
subject-08,3,149,0.725519180297852,keyboard,keyboard,8-0-10,2709_eid_s08_8-0-10_keyboard_10_n03085013_11968.JPEG
subject-08,3,150,1.32600212097168,airplane,airplane,32-10-10,2710_eid_s08_32-10-10_airplane_10_n02690373_7600.JPEG
subject-08,3,151,1.01779198646545,clock,clock,8-3-10,2711_eid_s08_8-3-10_clock_10_n03196217_6083.JPEG
subject-08,3,152,0.70369291305542,boat,boat,4-10-10,2712_eid_s08_4-10-10_boat_10_n04273569_4611.JPEG
subject-08,3,153,0.841895818710327,bird,bird,32-0-10,2713_eid_s08_32-0-10_bird_10_n01601694_12597.JPEG
subject-08,3,154,0.88785195350647,keyboard,keyboard,1-3-10,2714_eid_s08_1-3-10_keyboard_10_n03085013_24521.JPEG
subject-08,3,155,1.1208119392395,keyboard,dog,64-0-10,2715_eid_s08_64-0-10_dog_10_n02107574_1381.JPEG
subject-08,3,156,1.08308792114258,boat,boat,2-10-10,2716_eid_s08_2-10-10_boat_10_n03344393_2985.JPEG
subject-08,3,157,0.653563022613525,cat,cat,4-10-10,2717_eid_s08_4-10-10_cat_10_n02123394_8153.JPEG
subject-08,3,158,0.846163988113403,keyboard,keyboard,16-10-10,2718_eid_s08_16-10-10_keyboard_10_n04505470_3937.JPEG
subject-08,3,159,NaN,na,airplane,32-3-10,2719_eid_s08_32-3-10_airplane_10_n02690373_5032.JPEG
subject-08,3,160,0.962632894515991,bird,bird,4-3-10,2720_eid_s08_4-3-10_bird_10_n01820546_3476.JPEG
subject-08,3,161,0.783817052841187,knife,knife,2-3-10,2721_eid_s08_2-3-10_knife_10_n03041632_20517.JPEG
subject-08,3,162,0.816767930984497,truck,truck,8-10-10,2722_eid_s08_8-10-10_truck_10_n03796401_7567.JPEG
subject-08,3,163,0.947098970413208,bird,dog,32-3-10,2723_eid_s08_32-3-10_dog_10_n02095314_6100.JPEG
subject-08,3,164,0.725442886352539,truck,truck,4-3-10,2724_eid_s08_4-3-10_truck_10_n03796401_14203.JPEG
subject-08,3,165,1.50031208992004,dog,knife,128-10-10,2725_eid_s08_128-10-10_knife_10_n03041632_86554.JPEG
subject-08,3,166,0.950063943862915,keyboard,keyboard,4-3-10,2726_eid_s08_4-3-10_keyboard_10_n04505470_4534.JPEG
subject-08,3,167,0.950109958648682,keyboard,oven,4-10-10,2727_eid_s08_4-10-10_oven_10_n04111531_9962.JPEG
subject-08,3,168,0.736722946166992,boat,chair,32-0-10,2728_eid_s08_32-0-10_chair_10_n02791124_755.JPEG
subject-08,3,169,1.09124898910522,bear,elephant,128-10-10,2729_eid_s08_128-10-10_elephant_10_n02504458_5289.JPEG
subject-08,3,170,1.20499205589294,elephant,elephant,16-10-10,2730_eid_s08_16-10-10_elephant_10_n02504458_817.JPEG
subject-08,3,171,1.15395307540894,airplane,chair,128-3-10,2731_eid_s08_128-3-10_chair_10_n03376595_17854.JPEG
subject-08,3,172,0.97858190536499,cat,dog,16-3-10,2732_eid_s08_16-3-10_dog_10_n02088632_6894.JPEG
subject-08,3,173,0.932536125183105,oven,oven,1-0-10,2733_eid_s08_1-0-10_oven_10_n04111531_7097.JPEG
subject-08,3,174,1.23931097984314,car,airplane,128-3-10,2734_eid_s08_128-3-10_airplane_10_n02690373_3408.JPEG
subject-08,3,175,0.901420831680298,clock,bird,64-3-10,2735_eid_s08_64-3-10_bird_10_n02009912_1829.JPEG
subject-08,3,176,0.82581901550293,elephant,elephant,1-3-10,2736_eid_s08_1-3-10_elephant_10_n02504458_3988.JPEG
subject-08,3,177,1.08008193969727,bicycle,bicycle,4-3-10,2737_eid_s08_4-3-10_bicycle_10_n03792782_13399.JPEG
subject-08,3,178,1.15895104408264,dog,bear,8-0-10,2738_eid_s08_8-0-10_bear_10_n02134084_6725.JPEG
subject-08,3,179,0.883107900619507,boat,truck,64-0-10,2739_eid_s08_64-0-10_truck_10_n04467665_68748.JPEG
subject-08,3,180,0.961770057678223,boat,boat,1-3-10,2740_eid_s08_1-3-10_boat_10_n02951358_15245.JPEG
subject-08,3,181,1.14618182182312,bear,bottle,32-10-10,2741_eid_s08_32-10-10_bottle_10_n02823428_14897.JPEG
subject-08,3,182,1.18678998947144,bird,bear,4-10-10,2742_eid_s08_4-10-10_bear_10_n02132136_4172.JPEG
subject-08,3,183,1.11715602874756,bottle,airplane,32-10-10,2743_eid_s08_32-10-10_airplane_10_n02690373_3775.JPEG
subject-08,3,184,NaN,na,clock,8-3-10,2744_eid_s08_8-3-10_clock_10_n04548280_8225.JPEG
subject-08,3,185,0.858322858810425,cat,oven,64-10-10,2745_eid_s08_64-10-10_oven_10_n04111531_8852.JPEG
subject-08,3,186,0.758270025253296,airplane,airplane,1-10-10,2746_eid_s08_1-10-10_airplane_10_n02690373_6342.JPEG
subject-08,3,187,0.720258951187134,boat,boat,16-0-10,2747_eid_s08_16-0-10_boat_10_n03662601_28391.JPEG
subject-08,3,188,1.30189204216003,chair,chair,1-3-10,2748_eid_s08_1-3-10_chair_10_n02791124_2105.JPEG
subject-08,3,189,0.912376165390015,elephant,elephant,1-3-10,2749_eid_s08_1-3-10_elephant_10_n02504458_2799.JPEG
subject-08,3,190,0.881398916244507,car,bird,32-0-10,2750_eid_s08_32-0-10_bird_10_n02007558_14527.JPEG
subject-08,3,191,0.991431951522827,bicycle,boat,64-3-10,2751_eid_s08_64-3-10_boat_10_n04273569_16692.JPEG
subject-08,3,192,0.775792121887207,elephant,elephant,16-10-10,2752_eid_s08_16-10-10_elephant_10_n02504458_5178.JPEG
subject-08,3,193,0.842519044876099,truck,bird,128-3-10,2753_eid_s08_128-3-10_bird_10_n01622779_10914.JPEG
subject-08,3,194,1.08123016357422,car,dog,16-3-10,2754_eid_s08_16-3-10_dog_10_n02088238_8755.JPEG
subject-08,3,195,0.859405040740967,bear,dog,64-0-10,2755_eid_s08_64-0-10_dog_10_n02101388_8994.JPEG
subject-08,3,196,1.35242414474487,elephant,elephant,1-0-10,2756_eid_s08_1-0-10_elephant_10_n02504458_11130.JPEG
subject-08,3,197,1.09204196929932,boat,boat,4-10-10,2757_eid_s08_4-10-10_boat_10_n03662601_3087.JPEG
subject-08,3,198,1.16041684150696,bottle,keyboard,8-10-10,2758_eid_s08_8-10-10_keyboard_10_n04505470_4595.JPEG
subject-08,3,199,1.08375215530396,bear,bear,16-10-10,2759_eid_s08_16-10-10_bear_10_n02133161_3203.JPEG
subject-08,3,200,1.14663004875183,bicycle,airplane,128-3-10,2760_eid_s08_128-3-10_airplane_10_n02690373_2619.JPEG
subject-08,3,201,0.900214910507202,keyboard,keyboard,1-10-10,2761_eid_s08_1-10-10_keyboard_10_n04505470_4344.JPEG
subject-08,3,202,0.892776966094971,elephant,elephant,128-10-10,2762_eid_s08_128-10-10_elephant_10_n02504458_10444.JPEG
subject-08,3,203,0.676540851593018,car,oven,128-0-10,2763_eid_s08_128-0-10_oven_10_n04111531_10064.JPEG
subject-08,3,204,0.980963945388794,knife,bicycle,128-3-10,2764_eid_s08_128-3-10_bicycle_10_n03792782_7997.JPEG
subject-08,3,205,1.49725794792175,knife,knife,4-10-10,2765_eid_s08_4-10-10_knife_10_n03041632_19614.JPEG
subject-08,3,206,0.891749858856201,knife,knife,1-0-10,2766_eid_s08_1-0-10_knife_10_n03041632_206.JPEG
subject-08,3,207,1.17657589912415,bird,dog,8-0-10,2767_eid_s08_8-0-10_dog_10_n02099712_1211.JPEG
subject-08,3,208,1.11676096916199,car,dog,128-3-10,2768_eid_s08_128-3-10_dog_10_n02100583_11656.JPEG
subject-08,3,209,0.817097902297974,bear,bicycle,16-0-10,2769_eid_s08_16-0-10_bicycle_10_n02835271_1701.JPEG
subject-08,3,210,0.95603609085083,keyboard,car,128-0-10,2770_eid_s08_128-0-10_car_10_n04285008_3762.JPEG
subject-08,3,211,0.940317153930664,bird,bird,2-0-10,2771_eid_s08_2-0-10_bird_10_n01819313_6254.JPEG
subject-08,3,212,0.86438512802124,boat,boat,2-3-10,2772_eid_s08_2-3-10_boat_10_n04612504_11949.JPEG
subject-08,3,213,1.31122303009033,cat,bear,16-10-10,2773_eid_s08_16-10-10_bear_10_n02134418_2521.JPEG
subject-08,3,214,1.23624110221863,bicycle,cat,128-10-10,2774_eid_s08_128-10-10_cat_10_n02123394_89.JPEG
subject-08,3,215,0.801042079925537,car,bear,32-3-10,2775_eid_s08_32-3-10_bear_10_n02132136_17297.JPEG
subject-08,3,216,0.823412895202637,dog,dog,2-0-10,2776_eid_s08_2-0-10_dog_10_n02109525_39753.JPEG
subject-08,3,217,1.06985998153687,keyboard,keyboard,32-10-10,2777_eid_s08_32-10-10_keyboard_10_n03085013_20779.JPEG
subject-08,3,218,1.27817392349243,bicycle,bicycle,1-10-10,2778_eid_s08_1-10-10_bicycle_10_n03792782_42978.JPEG
subject-08,3,219,1.06489205360413,car,bear,16-3-10,2779_eid_s08_16-3-10_bear_10_n02134418_5534.JPEG
subject-08,3,220,1.19503688812256,bird,clock,64-3-10,2780_eid_s08_64-3-10_clock_10_n02708093_5327.JPEG
subject-08,3,221,NaN,na,clock,2-3-10,2781_eid_s08_2-3-10_clock_10_n04548280_4305.JPEG
subject-08,3,222,0.627040863037109,boat,truck,32-0-10,2782_eid_s08_32-0-10_truck_10_n04467665_6450.JPEG
subject-08,3,223,1.47358393669128,airplane,knife,2-10-10,2783_eid_s08_2-10-10_knife_10_n03041632_92637.JPEG
subject-08,3,224,0.904236078262329,truck,cat,16-0-10,2784_eid_s08_16-0-10_cat_10_n02124075_4247.JPEG
subject-08,3,225,1.09685707092285,oven,airplane,128-0-10,2785_eid_s08_128-0-10_airplane_10_n02690373_2025.JPEG
subject-08,3,226,1.40471196174622,dog,dog,8-3-10,2786_eid_s08_8-3-10_dog_10_n02091032_2114.JPEG
subject-08,3,227,0.8294358253479,airplane,airplane,2-3-10,2787_eid_s08_2-3-10_airplane_10_n02690373_19107.JPEG
subject-08,3,228,1.50035190582275,bottle,knife,1-10-10,2788_eid_s08_1-10-10_knife_10_n03041632_30553.JPEG
subject-08,3,229,0.796523809432983,boat,clock,128-0-10,2789_eid_s08_128-0-10_clock_10_n03196217_8072.JPEG
subject-08,3,230,1.17530798912048,airplane,airplane,1-0-10,2790_eid_s08_1-0-10_airplane_10_n02690373_1044.JPEG
subject-08,3,231,1.42151498794556,boat,clock,16-0-10,2791_eid_s08_16-0-10_clock_10_n04548280_4286.JPEG
subject-08,3,232,1.03798794746399,chair,car,64-3-10,2792_eid_s08_64-3-10_car_10_n03100240_2326.JPEG
subject-08,3,233,0.722337007522583,bear,bear,128-0-10,2793_eid_s08_128-0-10_bear_10_n02134418_11765.JPEG
subject-08,3,234,1.03875398635864,airplane,knife,4-3-10,2794_eid_s08_4-3-10_knife_10_n03041632_32785.JPEG
subject-08,3,235,1.00068807601929,dog,dog,4-10-10,2795_eid_s08_4-10-10_dog_10_n02111129_2837.JPEG
subject-08,3,236,1.19331192970276,bird,knife,2-0-10,2796_eid_s08_2-0-10_knife_10_n03041632_2438.JPEG
subject-08,3,237,0.68569803237915,car,car,32-3-10,2797_eid_s08_32-3-10_car_10_n03100240_18184.JPEG
subject-08,3,238,0.756160974502563,bicycle,bicycle,2-10-10,2798_eid_s08_2-10-10_bicycle_10_n02835271_9369.JPEG
subject-08,3,239,1.2400369644165,elephant,truck,32-10-10,2799_eid_s08_32-10-10_truck_10_n03417042_10597.JPEG
subject-08,3,240,0.965449094772339,boat,boat,4-3-10,2800_eid_s08_4-3-10_boat_10_n02951358_23692.JPEG
subject-08,3,241,0.949135065078735,keyboard,keyboard,16-0-10,2801_eid_s08_16-0-10_keyboard_10_n04505470_665.JPEG
subject-08,3,242,0.890050888061523,dog,dog,2-0-10,2802_eid_s08_2-0-10_dog_10_n02112350_8849.JPEG
subject-08,3,243,0.806453943252563,cat,cat,1-3-10,2803_eid_s08_1-3-10_cat_10_n02125311_9341.JPEG
subject-08,3,244,0.797946929931641,clock,clock,1-0-10,2804_eid_s08_1-0-10_clock_10_n02708093_8267.JPEG
subject-08,3,245,1.45283389091492,bear,bottle,16-3-10,2805_eid_s08_16-3-10_bottle_10_n04560804_17997.JPEG
subject-08,3,246,0.890758037567139,car,bird,16-3-10,2806_eid_s08_16-3-10_bird_10_n01818515_5350.JPEG
subject-08,3,247,0.891282081604004,bicycle,dog,128-0-10,2807_eid_s08_128-0-10_dog_10_n02110958_2444.JPEG
subject-08,3,248,0.645553827285767,car,car,2-10-10,2808_eid_s08_2-10-10_car_10_n03100240_1821.JPEG
subject-08,3,249,0.746309041976929,car,car,4-3-10,2809_eid_s08_4-3-10_car_10_n03100240_8401.JPEG
subject-08,3,250,0.972157955169678,truck,chair,128-10-10,2810_eid_s08_128-10-10_chair_10_n02791124_6863.JPEG
subject-08,3,251,1.21875214576721,dog,dog,4-10-10,2811_eid_s08_4-10-10_dog_10_n02094258_166.JPEG
subject-08,3,252,0.813129186630249,airplane,airplane,16-3-10,2812_eid_s08_16-3-10_airplane_10_n02690373_3993.JPEG
subject-08,3,253,0.801676988601685,keyboard,cat,128-3-10,2813_eid_s08_128-3-10_cat_10_n02123045_10973.JPEG
subject-08,3,254,1.12603211402893,bear,bird,64-10-10,2814_eid_s08_64-10-10_bird_10_n01829413_2277.JPEG
subject-08,3,255,0.886354923248291,car,elephant,128-10-10,2815_eid_s08_128-10-10_elephant_10_n02504013_5864.JPEG
subject-08,3,256,0.832712888717651,truck,keyboard,64-10-10,2816_eid_s08_64-10-10_keyboard_10_n04505470_4828.JPEG
subject-08,3,257,0.985413074493408,keyboard,keyboard,2-0-10,2817_eid_s08_2-0-10_keyboard_10_n03085013_688.JPEG
subject-08,3,258,0.660967111587524,elephant,elephant,8-0-10,2818_eid_s08_8-0-10_elephant_10_n02504013_126.JPEG
subject-08,3,259,1.10752511024475,bottle,keyboard,8-10-10,2819_eid_s08_8-10-10_keyboard_10_n04505470_1632.JPEG
subject-08,3,260,0.770215034484863,cat,chair,4-0-10,2820_eid_s08_4-0-10_chair_10_n04429376_6915.JPEG
subject-08,3,261,0.554876089096069,cat,cat,2-3-10,2821_eid_s08_2-3-10_cat_10_n02124075_1913.JPEG
subject-08,3,262,1.37149095535278,boat,boat,16-10-10,2822_eid_s08_16-10-10_boat_10_n02951358_2213.JPEG
subject-08,3,263,0.694959878921509,dog,dog,1-10-10,2823_eid_s08_1-10-10_dog_10_n02105505_7701.JPEG
subject-08,3,264,0.71741795539856,cat,cat,2-10-10,2824_eid_s08_2-10-10_cat_10_n02123045_21432.JPEG
subject-08,3,265,0.625997066497803,keyboard,keyboard,2-0-10,2825_eid_s08_2-0-10_keyboard_10_n04505470_1687.JPEG
subject-08,3,266,0.73460578918457,bear,dog,64-10-10,2826_eid_s08_64-10-10_dog_10_n02098105_9806.JPEG
subject-08,3,267,0.913072109222412,car,elephant,128-3-10,2827_eid_s08_128-3-10_elephant_10_n02504013_10765.JPEG
subject-08,3,268,0.797032117843628,bicycle,chair,32-0-10,2828_eid_s08_32-0-10_chair_10_n03376595_3256.JPEG
subject-08,3,269,0.889477968215942,elephant,elephant,1-0-10,2829_eid_s08_1-0-10_elephant_10_n02504458_4819.JPEG
subject-08,3,270,0.79784893989563,bear,dog,16-10-10,2830_eid_s08_16-10-10_dog_10_n02099601_2831.JPEG
subject-08,3,271,1.25803112983704,truck,truck,4-10-10,2831_eid_s08_4-10-10_truck_10_n03796401_18976.JPEG
subject-08,3,272,0.65264105796814,cat,keyboard,8-10-10,2832_eid_s08_8-10-10_keyboard_10_n03085013_15825.JPEG
subject-08,3,273,0.912720918655396,airplane,oven,32-3-10,2833_eid_s08_32-3-10_oven_10_n04111531_3159.JPEG
subject-08,3,274,1.13716316223145,bird,bird,4-10-10,2834_eid_s08_4-10-10_bird_10_n01817953_2450.JPEG
subject-08,3,275,0.683925867080688,bear,bicycle,32-10-10,2835_eid_s08_32-10-10_bicycle_10_n03792782_12453.JPEG
subject-08,3,276,0.875877141952515,oven,knife,16-10-10,2836_eid_s08_16-10-10_knife_10_n03041632_28658.JPEG
subject-08,3,277,1.12224578857422,car,truck,32-10-10,2837_eid_s08_32-10-10_truck_10_n03417042_7328.JPEG
subject-08,3,278,1.05221796035767,bottle,clock,64-0-10,2838_eid_s08_64-0-10_clock_10_n02708093_5127.JPEG
subject-08,3,279,0.698834896087646,bicycle,elephant,64-0-10,2839_eid_s08_64-0-10_elephant_10_n02504458_3575.JPEG
subject-08,3,280,1.29946899414062,elephant,elephant,2-0-10,2840_eid_s08_2-0-10_elephant_10_n02504458_6029.JPEG
subject-08,3,281,1.3918628692627,bird,bird,4-3-10,2841_eid_s08_4-3-10_bird_10_n01798484_11493.JPEG
subject-08,3,282,1.50015997886658,knife,knife,1-3-10,2842_eid_s08_1-3-10_knife_10_n03041632_14817.JPEG
subject-08,3,283,0.646781921386719,knife,knife,2-10-10,2843_eid_s08_2-10-10_knife_10_n03041632_20697.JPEG
subject-08,3,284,0.793323040008545,cat,cat,8-3-10,2844_eid_s08_8-3-10_cat_10_n02123597_5045.JPEG
subject-08,3,285,0.872054815292358,airplane,airplane,16-0-10,2845_eid_s08_16-0-10_airplane_10_n02690373_4753.JPEG
subject-08,3,286,1.31848192214966,car,boat,4-3-10,2846_eid_s08_4-3-10_boat_10_n02951358_8503.JPEG
subject-08,3,287,0.634567022323608,bear,keyboard,128-3-10,2847_eid_s08_128-3-10_keyboard_10_n03085013_23563.JPEG
subject-08,3,288,0.81894588470459,car,car,1-3-10,2848_eid_s08_1-3-10_car_10_n03100240_14533.JPEG
subject-08,3,289,1.49546098709106,chair,chair,2-3-10,2849_eid_s08_2-3-10_chair_10_n04099969_4146.JPEG
subject-08,3,290,0.741981029510498,boat,bottle,128-0-10,2850_eid_s08_128-0-10_bottle_10_n04579145_1174.JPEG
subject-08,3,291,0.987974882125854,bottle,bottle,8-3-10,2851_eid_s08_8-3-10_bottle_10_n03937543_614.JPEG
subject-08,3,292,0.750466108322144,bear,bear,64-10-10,2852_eid_s08_64-10-10_bear_10_n02133161_79.JPEG
subject-08,3,293,0.966336011886597,airplane,knife,32-10-10,2853_eid_s08_32-10-10_knife_10_n03041632_24326.JPEG
subject-08,3,294,1.01854395866394,chair,chair,4-0-10,2854_eid_s08_4-0-10_chair_10_n04429376_16466.JPEG
subject-08,3,295,0.910322904586792,bear,truck,2-10-10,2855_eid_s08_2-10-10_truck_10_n03417042_11883.JPEG
subject-08,3,296,0.802775859832764,oven,oven,2-3-10,2856_eid_s08_2-3-10_oven_10_n04111531_9314.JPEG
subject-08,3,297,0.832973003387451,airplane,airplane,2-3-10,2857_eid_s08_2-3-10_airplane_10_n02690373_5266.JPEG
subject-08,3,298,0.932938098907471,boat,airplane,16-3-10,2858_eid_s08_16-3-10_airplane_10_n02690373_18864.JPEG
subject-08,3,299,0.979212045669556,bear,bird,64-10-10,2859_eid_s08_64-10-10_bird_10_n02009229_7497.JPEG
subject-08,3,300,0.788054943084717,chair,chair,8-3-10,2860_eid_s08_8-3-10_chair_10_n04099969_3243.JPEG
subject-08,3,301,0.71792197227478,bicycle,bicycle,2-0-10,2861_eid_s08_2-0-10_bicycle_10_n02835271_24213.JPEG
subject-08,3,302,1.09655499458313,airplane,boat,16-10-10,2862_eid_s08_16-10-10_boat_10_n04273569_12438.JPEG
subject-08,3,303,1.17806196212769,clock,clock,1-3-10,2863_eid_s08_1-3-10_clock_10_n04548280_4327.JPEG
subject-08,3,304,0.819089889526367,cat,knife,64-3-10,2864_eid_s08_64-3-10_knife_10_n03041632_7116.JPEG
subject-08,3,305,0.694778919219971,car,dog,32-0-10,2865_eid_s08_32-0-10_dog_10_n02110063_9942.JPEG
subject-08,3,306,0.918493032455444,bird,truck,64-10-10,2866_eid_s08_64-10-10_truck_10_n03417042_26971.JPEG
subject-08,3,307,1.10310101509094,elephant,bear,32-0-10,2867_eid_s08_32-0-10_bear_10_n02134418_2804.JPEG
subject-08,3,308,0.694977045059204,keyboard,keyboard,2-10-10,2868_eid_s08_2-10-10_keyboard_10_n03085013_23904.JPEG
subject-08,3,309,0.779392957687378,bear,bird,16-0-10,2869_eid_s08_16-0-10_bird_10_n02018207_1066.JPEG
subject-08,3,310,0.880001068115234,cat,knife,128-10-10,2870_eid_s08_128-10-10_knife_10_n03041632_36806.JPEG
subject-08,3,311,0.757537841796875,car,oven,64-0-10,2871_eid_s08_64-0-10_oven_10_n04111531_1770.JPEG
subject-08,3,312,0.87422513961792,bear,oven,32-0-10,2872_eid_s08_32-0-10_oven_10_n04111531_18648.JPEG
subject-08,3,313,1.10423278808594,keyboard,knife,4-10-10,2873_eid_s08_4-10-10_knife_10_n03041632_102828.JPEG
subject-08,3,314,0.729145050048828,cat,cat,2-0-10,2874_eid_s08_2-0-10_cat_10_n02124075_15419.JPEG
subject-08,3,315,0.775182962417603,car,bird,32-10-10,2875_eid_s08_32-10-10_bird_10_n02018795_5530.JPEG
subject-08,3,316,0.951711893081665,knife,cat,64-0-10,2876_eid_s08_64-0-10_cat_10_n02124075_14881.JPEG
subject-08,3,317,0.668221950531006,boat,boat,1-0-10,2877_eid_s08_1-0-10_boat_10_n02951358_2654.JPEG
subject-08,3,318,0.623055219650269,car,car,1-3-10,2878_eid_s08_1-3-10_car_10_n03100240_2595.JPEG
subject-08,3,319,0.899675846099854,airplane,airplane,8-10-10,2879_eid_s08_8-10-10_airplane_10_n02690373_7944.JPEG
subject-08,3,320,1.34026193618774,oven,oven,2-0-10,2880_eid_s08_2-0-10_oven_10_n04111531_716.JPEG
subject-08,3,321,0.786868095397949,bear,bird,16-3-10,2881_eid_s08_16-3-10_bird_10_n01817953_6623.JPEG
subject-08,3,322,0.986946105957031,boat,truck,8-3-10,2882_eid_s08_8-3-10_truck_10_n03796401_10612.JPEG
subject-08,3,323,0.942057132720947,bird,bird,1-3-10,2883_eid_s08_1-3-10_bird_10_n01828970_5386.JPEG
subject-08,3,324,1.33459210395813,chair,keyboard,16-3-10,2884_eid_s08_16-3-10_keyboard_10_n04505470_9663.JPEG
subject-08,3,325,0.72859001159668,bicycle,bicycle,4-10-10,2885_eid_s08_4-10-10_bicycle_10_n03792782_6102.JPEG
subject-08,3,326,1.2728898525238,knife,knife,4-10-10,2886_eid_s08_4-10-10_knife_10_n03041632_27898.JPEG
subject-08,3,327,0.859692811965942,car,knife,32-10-10,2887_eid_s08_32-10-10_knife_10_n03041632_27960.JPEG
subject-08,3,328,1.45145893096924,bear,chair,8-0-10,2888_eid_s08_8-0-10_chair_10_n04099969_7060.JPEG
subject-08,3,329,0.883843898773193,oven,oven,4-10-10,2889_eid_s08_4-10-10_oven_10_n04111531_20953.JPEG
subject-08,3,330,1.03861808776855,keyboard,clock,16-0-10,2890_eid_s08_16-0-10_clock_10_n04548280_9492.JPEG
subject-08,3,331,0.761418104171753,car,keyboard,64-0-10,2891_eid_s08_64-0-10_keyboard_10_n03085013_22016.JPEG
subject-08,3,332,NaN,na,clock,4-10-10,2892_eid_s08_4-10-10_clock_10_n02708093_1108.JPEG
subject-08,3,333,0.716132164001465,boat,airplane,64-0-10,2893_eid_s08_64-0-10_airplane_10_n02690373_6836.JPEG
subject-08,3,334,0.932709932327271,elephant,elephant,8-10-10,2894_eid_s08_8-10-10_elephant_10_n02504013_4038.JPEG
subject-08,3,335,0.855381011962891,truck,knife,64-0-10,2895_eid_s08_64-0-10_knife_10_n03041632_7832.JPEG
subject-08,3,336,1.00977778434753,knife,bottle,8-10-10,2896_eid_s08_8-10-10_bottle_10_n02823428_4028.JPEG
subject-08,3,337,0.758484125137329,boat,elephant,64-10-10,2897_eid_s08_64-10-10_elephant_10_n02504458_7570.JPEG
subject-08,3,338,0.771930932998657,bicycle,bicycle,4-10-10,2898_eid_s08_4-10-10_bicycle_10_n02835271_794.JPEG
subject-08,3,339,0.734491109848022,chair,chair,1-3-10,2899_eid_s08_1-3-10_chair_10_n04429376_49511.JPEG
subject-08,3,340,0.780555009841919,truck,elephant,64-0-10,2900_eid_s08_64-0-10_elephant_10_n02504013_2402.JPEG
subject-08,3,341,0.613220930099487,airplane,oven,32-0-10,2901_eid_s08_32-0-10_oven_10_n04111531_4809.JPEG
subject-08,3,342,0.92809796333313,bear,car,8-0-10,2902_eid_s08_8-0-10_car_10_n03100240_1284.JPEG
subject-08,3,343,1.50025510787964,elephant,elephant,2-10-10,2903_eid_s08_2-10-10_elephant_10_n02504458_341.JPEG
subject-08,3,344,1.14471101760864,dog,truck,8-0-10,2904_eid_s08_8-0-10_truck_10_n04467665_6746.JPEG
subject-08,3,345,0.97578501701355,cat,bicycle,16-3-10,2905_eid_s08_16-3-10_bicycle_10_n03792782_4927.JPEG
subject-08,3,346,1.06789112091064,bear,oven,32-10-10,2906_eid_s08_32-10-10_oven_10_n04111531_8688.JPEG
subject-08,3,347,1.00629901885986,car,car,2-3-10,2907_eid_s08_2-3-10_car_10_n02814533_32693.JPEG
subject-08,3,348,1.06916499137878,cat,bicycle,32-3-10,2908_eid_s08_32-3-10_bicycle_10_n02835271_10818.JPEG
subject-08,3,349,0.971828937530518,oven,boat,128-0-10,2909_eid_s08_128-0-10_boat_10_n03344393_5708.JPEG
subject-08,3,350,1.08093905448914,bear,bear,2-10-10,2910_eid_s08_2-10-10_bear_10_n02133161_12710.JPEG
subject-08,3,351,0.759757041931152,cat,dog,16-0-10,2911_eid_s08_16-0-10_dog_10_n02094433_1174.JPEG
subject-08,3,352,1.11191415786743,keyboard,chair,32-10-10,2912_eid_s08_32-10-10_chair_10_n04099969_1879.JPEG
subject-08,3,353,1.0900719165802,dog,bottle,32-3-10,2913_eid_s08_32-3-10_bottle_10_n04557648_4504.JPEG
subject-08,3,354,0.714248895645142,chair,knife,128-0-10,2914_eid_s08_128-0-10_knife_10_n03041632_24384.JPEG
subject-08,3,355,0.643987894058228,cat,cat,4-0-10,2915_eid_s08_4-0-10_cat_10_n02123394_2084.JPEG
subject-08,3,356,0.836362838745117,cat,bear,1-3-10,2916_eid_s08_1-3-10_bear_10_n02134418_5821.JPEG
subject-08,3,357,0.745614051818848,keyboard,keyboard,4-3-10,2917_eid_s08_4-3-10_keyboard_10_n03085013_22600.JPEG
subject-08,3,358,0.737385988235474,bird,bird,4-0-10,2918_eid_s08_4-0-10_bird_10_n02018207_8271.JPEG
subject-08,3,359,0.877602100372314,bicycle,airplane,128-10-10,2919_eid_s08_128-10-10_airplane_10_n02690373_8666.JPEG
subject-08,3,360,1.12169790267944,truck,truck,2-0-10,2920_eid_s08_2-0-10_truck_10_n04467665_13825.JPEG
subject-08,3,361,1.06738591194153,chair,bottle,4-3-10,2921_eid_s08_4-3-10_bottle_10_n03937543_4379.JPEG
subject-08,3,362,0.77567720413208,oven,oven,1-3-10,2922_eid_s08_1-3-10_oven_10_n04111531_6958.JPEG
subject-08,3,363,0.605885982513428,clock,clock,128-3-10,2923_eid_s08_128-3-10_clock_10_n02708093_6414.JPEG
subject-08,3,364,1.44661402702332,boat,airplane,2-0-10,2924_eid_s08_2-0-10_airplane_10_n02690373_3696.JPEG
subject-08,3,365,1.13921117782593,bottle,keyboard,2-3-10,2925_eid_s08_2-3-10_keyboard_10_n04505470_3107.JPEG
subject-08,3,366,0.831809043884277,bottle,bottle,2-10-10,2926_eid_s08_2-10-10_bottle_10_n04591713_7493.JPEG
subject-08,3,367,0.806753158569336,bicycle,clock,128-3-10,2927_eid_s08_128-3-10_clock_10_n02708093_1360.JPEG
subject-08,3,368,0.74763298034668,airplane,bottle,32-3-10,2928_eid_s08_32-3-10_bottle_10_n04557648_2889.JPEG
subject-08,3,369,0.655426979064941,bear,car,16-0-10,2929_eid_s08_16-0-10_car_10_n02814533_77309.JPEG
subject-08,3,370,1.09434199333191,cat,car,16-0-10,2930_eid_s08_16-0-10_car_10_n04285008_5189.JPEG
subject-08,3,371,0.986574172973633,airplane,airplane,4-3-10,2931_eid_s08_4-3-10_airplane_10_n02690373_6380.JPEG
subject-08,3,372,0.804040908813477,bottle,bottle,4-0-10,2932_eid_s08_4-0-10_bottle_10_n04557648_3900.JPEG
subject-08,3,373,0.919646978378296,dog,dog,4-3-10,2933_eid_s08_4-3-10_dog_10_n02093859_415.JPEG
subject-08,3,374,0.75806713104248,car,elephant,128-0-10,2934_eid_s08_128-0-10_elephant_10_n02504013_2460.JPEG
subject-08,3,375,0.91242504119873,dog,dog,32-10-10,2935_eid_s08_32-10-10_dog_10_n02086646_2236.JPEG
subject-08,3,376,1.020663022995,dog,bird,32-10-10,2936_eid_s08_32-10-10_bird_10_n02051845_5948.JPEG
subject-08,3,377,1.08309483528137,bottle,knife,1-3-10,2937_eid_s08_1-3-10_knife_10_n03041632_84012.JPEG
subject-08,3,378,0.929901123046875,clock,boat,4-3-10,2938_eid_s08_4-3-10_boat_10_n03344393_8583.JPEG
subject-08,3,379,0.953662872314453,truck,elephant,128-3-10,2939_eid_s08_128-3-10_elephant_10_n02504013_4646.JPEG
subject-08,3,380,1.0304491519928,boat,bird,64-10-10,2940_eid_s08_64-10-10_bird_10_n02009912_778.JPEG
subject-08,3,381,1.15571093559265,bear,elephant,8-3-10,2941_eid_s08_8-3-10_elephant_10_n02504458_5474.JPEG
subject-08,3,382,0.926393032073975,bottle,knife,4-0-10,2942_eid_s08_4-0-10_knife_10_n03041632_13465.JPEG
subject-08,3,383,1.08775115013123,airplane,keyboard,128-0-10,2943_eid_s08_128-0-10_keyboard_10_n04505470_4447.JPEG
subject-08,3,384,0.996658802032471,keyboard,oven,4-3-10,2944_eid_s08_4-3-10_oven_10_n04111531_9692.JPEG
subject-08,3,385,0.767429113388062,bear,bear,16-0-10,2945_eid_s08_16-0-10_bear_10_n02132136_10318.JPEG
subject-08,3,386,0.905472040176392,car,boat,64-0-10,2946_eid_s08_64-0-10_boat_10_n03662601_34713.JPEG
subject-08,3,387,0.784469127655029,bicycle,oven,32-3-10,2947_eid_s08_32-3-10_oven_10_n04111531_14269.JPEG
subject-08,3,388,0.860814809799194,airplane,airplane,32-10-10,2948_eid_s08_32-10-10_airplane_10_n02690373_7279.JPEG
subject-08,3,389,1.07758688926697,cat,cat,4-3-10,2949_eid_s08_4-3-10_cat_10_n02123045_11126.JPEG
subject-08,3,390,0.948652982711792,knife,knife,1-0-10,2950_eid_s08_1-0-10_knife_10_n03041632_23129.JPEG
subject-08,3,391,1.34069204330444,dog,bottle,2-0-10,2951_eid_s08_2-0-10_bottle_10_n03983396_5055.JPEG
subject-08,3,392,0.895434856414795,bird,chair,1-10-10,2952_eid_s08_1-10-10_chair_10_n02791124_9609.JPEG
subject-08,3,393,0.8747239112854,truck,elephant,128-3-10,2953_eid_s08_128-3-10_elephant_10_n02504458_3163.JPEG
subject-08,3,394,1.03379487991333,cat,cat,128-3-10,2954_eid_s08_128-3-10_cat_10_n02123045_3435.JPEG
subject-08,3,395,0.904183864593506,bird,bird,16-10-10,2955_eid_s08_16-10-10_bird_10_n01833805_5687.JPEG
subject-08,3,396,1.00483107566833,knife,knife,64-10-10,2956_eid_s08_64-10-10_knife_10_n03041632_24228.JPEG
subject-08,3,397,0.981589078903198,airplane,truck,4-0-10,2957_eid_s08_4-0-10_truck_10_n03796401_4311.JPEG
subject-08,3,398,0.768764972686768,car,cat,128-3-10,2958_eid_s08_128-3-10_cat_10_n02123597_7009.JPEG
subject-08,3,399,1.09943604469299,airplane,airplane,16-10-10,2959_eid_s08_16-10-10_airplane_10_n02690373_9712.JPEG
subject-08,3,400,0.526424169540405,boat,bear,64-3-10,2960_eid_s08_64-3-10_bear_10_n02134418_2472.JPEG
subject-08,3,401,0.687378883361816,bicycle,bicycle,64-3-10,2961_eid_s08_64-3-10_bicycle_10_n02835271_2315.JPEG
subject-08,3,402,NaN,na,chair,16-10-10,2962_eid_s08_16-10-10_chair_10_n04429376_9116.JPEG
subject-08,3,403,0.632203817367554,boat,bottle,64-0-10,2963_eid_s08_64-0-10_bottle_10_n02823428_8074.JPEG
subject-08,3,404,0.933358907699585,clock,chair,2-3-10,2964_eid_s08_2-3-10_chair_10_n03376595_3910.JPEG
subject-08,3,405,0.787757873535156,dog,dog,1-10-10,2965_eid_s08_1-10-10_dog_10_n02107574_5096.JPEG
subject-08,3,406,0.780349016189575,oven,cat,64-3-10,2966_eid_s08_64-3-10_cat_10_n02124075_6004.JPEG
subject-08,3,407,1.0348789691925,bear,clock,64-10-10,2967_eid_s08_64-10-10_clock_10_n02708093_5031.JPEG
subject-08,3,408,0.929239988327026,knife,knife,1-3-10,2968_eid_s08_1-3-10_knife_10_n03041632_35365.JPEG
subject-08,3,409,1.09035205841064,bird,bird,2-10-10,2969_eid_s08_2-10-10_bird_10_n01795545_11314.JPEG
subject-08,3,410,1.00647878646851,keyboard,keyboard,16-0-10,2970_eid_s08_16-0-10_keyboard_10_n03085013_22700.JPEG
subject-08,3,411,0.798757076263428,car,car,1-3-10,2971_eid_s08_1-3-10_car_10_n03100240_2323.JPEG
subject-08,3,412,0.660346984863281,keyboard,keyboard,8-10-10,2972_eid_s08_8-10-10_keyboard_10_n04505470_4575.JPEG
subject-08,3,413,0.861028909683228,bear,dog,128-3-10,2973_eid_s08_128-3-10_dog_10_n02106166_761.JPEG
subject-08,3,414,1.02339792251587,airplane,knife,16-0-10,2974_eid_s08_16-0-10_knife_10_n03041632_105081.JPEG
subject-08,3,415,0.924352884292603,chair,chair,8-10-10,2975_eid_s08_8-10-10_chair_10_n03376595_4843.JPEG
subject-08,3,416,0.978285789489746,dog,dog,8-3-10,2976_eid_s08_8-3-10_dog_10_n02090622_10593.JPEG
subject-08,3,417,1.05470895767212,car,bear,128-0-10,2977_eid_s08_128-0-10_bear_10_n02134418_2634.JPEG
subject-08,3,418,1.19540095329285,dog,bottle,16-3-10,2978_eid_s08_16-3-10_bottle_10_n04557648_9839.JPEG
subject-08,3,419,0.803974151611328,chair,chair,1-3-10,2979_eid_s08_1-3-10_chair_10_n02791124_4475.JPEG
subject-08,3,420,0.688348054885864,car,car,2-3-10,2980_eid_s08_2-3-10_car_10_n02814533_35294.JPEG
subject-08,3,421,0.626445055007935,bear,car,64-3-10,2981_eid_s08_64-3-10_car_10_n04285008_5917.JPEG
subject-08,3,422,0.92681097984314,keyboard,bottle,8-3-10,2982_eid_s08_8-3-10_bottle_10_n03983396_3027.JPEG
subject-08,3,423,0.605227947235107,car,car,4-10-10,2983_eid_s08_4-10-10_car_10_n02814533_14782.JPEG
subject-08,3,424,1.26593708992004,elephant,elephant,4-3-10,2984_eid_s08_4-3-10_elephant_10_n02504458_543.JPEG
subject-08,3,425,1.23627996444702,bicycle,clock,32-10-10,2985_eid_s08_32-10-10_clock_10_n04548280_1304.JPEG
subject-08,3,426,0.991014003753662,bottle,boat,8-10-10,2986_eid_s08_8-10-10_boat_10_n03344393_1268.JPEG
subject-08,3,427,1.44563794136047,bottle,bottle,1-3-10,2987_eid_s08_1-3-10_bottle_10_n03937543_3822.JPEG
subject-08,3,428,0.946391820907593,car,bird,64-3-10,2988_eid_s08_64-3-10_bird_10_n02006656_1087.JPEG
subject-08,3,429,1.03243088722229,airplane,boat,8-0-10,2989_eid_s08_8-0-10_boat_10_n04273569_5593.JPEG
subject-08,3,430,0.932940006256104,car,car,2-10-10,2990_eid_s08_2-10-10_car_10_n04285008_10442.JPEG
subject-08,3,431,1.0093150138855,truck,car,64-3-10,2991_eid_s08_64-3-10_car_10_n02814533_1294.JPEG
subject-08,3,432,1.22574901580811,boat,boat,4-0-10,2992_eid_s08_4-0-10_boat_10_n02951358_5384.JPEG
subject-08,3,433,0.563738107681274,boat,boat,2-3-10,2993_eid_s08_2-3-10_boat_10_n03662601_4137.JPEG
subject-08,3,434,0.850737810134888,truck,truck,8-0-10,2994_eid_s08_8-0-10_truck_10_n03796401_10784.JPEG
subject-08,3,435,0.964271068572998,bear,oven,8-0-10,2995_eid_s08_8-0-10_oven_10_n04111531_7452.JPEG
subject-08,3,436,0.972149848937988,dog,knife,8-3-10,2996_eid_s08_8-3-10_knife_10_n03041632_19571.JPEG
subject-08,3,437,0.956541061401367,knife,boat,128-10-10,2997_eid_s08_128-10-10_boat_10_n04273569_12789.JPEG
subject-08,3,438,0.848875045776367,bicycle,airplane,32-0-10,2998_eid_s08_32-0-10_airplane_10_n02690373_7133.JPEG
subject-08,3,439,1.37318992614746,oven,knife,2-10-10,2999_eid_s08_2-10-10_knife_10_n03041632_29338.JPEG
subject-08,3,440,0.588772058486938,boat,boat,16-3-10,3000_eid_s08_16-3-10_boat_10_n02951358_5245.JPEG
subject-08,3,441,0.835158109664917,clock,chair,128-10-10,3001_eid_s08_128-10-10_chair_10_n04429376_6424.JPEG
subject-08,3,442,0.734976053237915,elephant,elephant,4-10-10,3002_eid_s08_4-10-10_elephant_10_n02504458_4327.JPEG
subject-08,3,443,0.941442012786865,car,knife,32-3-10,3003_eid_s08_32-3-10_knife_10_n03041632_9580.JPEG
subject-08,3,444,1.38825607299805,elephant,chair,16-10-10,3004_eid_s08_16-10-10_chair_10_n03376595_2103.JPEG
subject-08,3,445,0.950438022613525,bird,cat,4-3-10,3005_eid_s08_4-3-10_cat_10_n02123597_13529.JPEG
subject-08,3,446,0.904217958450317,bear,car,128-3-10,3006_eid_s08_128-3-10_car_10_n04285008_10539.JPEG
subject-08,3,447,0.842471837997437,truck,truck,8-3-10,3007_eid_s08_8-3-10_truck_10_n03796401_14028.JPEG
subject-08,3,448,0.850270986557007,airplane,airplane,8-3-10,3008_eid_s08_8-3-10_airplane_10_n02690373_6429.JPEG
subject-08,3,449,0.629019975662231,car,truck,64-0-10,3009_eid_s08_64-0-10_truck_10_n03417042_28657.JPEG
subject-08,3,450,1.25317716598511,bottle,bottle,4-10-10,3010_eid_s08_4-10-10_bottle_10_n04557648_2400.JPEG
subject-08,3,451,0.79194188117981,keyboard,elephant,16-0-10,3011_eid_s08_16-0-10_elephant_10_n02504013_1132.JPEG
subject-08,3,452,0.837435960769653,bicycle,truck,64-3-10,3012_eid_s08_64-3-10_truck_10_n03796401_30128.JPEG
subject-08,3,453,1.00056099891663,bear,bottle,128-3-10,3013_eid_s08_128-3-10_bottle_10_n04591713_1310.JPEG
subject-08,3,454,0.954580068588257,keyboard,keyboard,1-3-10,3014_eid_s08_1-3-10_keyboard_10_n03085013_8136.JPEG
subject-08,3,455,1.28560018539429,oven,oven,4-10-10,3015_eid_s08_4-10-10_oven_10_n04111531_545.JPEG
subject-08,3,456,0.639682054519653,boat,bird,64-0-10,3016_eid_s08_64-0-10_bird_10_n01532829_3370.JPEG
subject-08,3,457,1.21544909477234,airplane,boat,32-0-10,3017_eid_s08_32-0-10_boat_10_n03662601_20059.JPEG
subject-08,3,458,1.23161792755127,airplane,airplane,64-10-10,3018_eid_s08_64-10-10_airplane_10_n02690373_1800.JPEG
subject-08,3,459,0.817907094955444,car,boat,64-0-10,3019_eid_s08_64-0-10_boat_10_n03344393_9231.JPEG
subject-08,3,460,0.964849948883057,truck,elephant,32-0-10,3020_eid_s08_32-0-10_elephant_10_n02504013_6465.JPEG
subject-08,3,461,0.911008834838867,car,elephant,32-3-10,3021_eid_s08_32-3-10_elephant_10_n02504458_2511.JPEG
subject-08,3,462,NaN,na,truck,16-10-10,3022_eid_s08_16-10-10_truck_10_n03417042_27988.JPEG
subject-08,3,463,1.45780301094055,airplane,elephant,16-10-10,3023_eid_s08_16-10-10_elephant_10_n02504458_7496.JPEG
subject-08,3,464,0.719675064086914,car,boat,64-10-10,3024_eid_s08_64-10-10_boat_10_n03344393_2517.JPEG
subject-08,3,465,0.741912126541138,bicycle,cat,32-0-10,3025_eid_s08_32-0-10_cat_10_n02124075_5542.JPEG
subject-08,3,466,1.14277100563049,bird,cat,64-0-10,3026_eid_s08_64-0-10_cat_10_n02123394_2514.JPEG
subject-08,3,467,0.967082023620605,knife,knife,128-3-10,3027_eid_s08_128-3-10_knife_10_n03041632_32177.JPEG
subject-08,3,468,0.81212306022644,chair,bottle,128-3-10,3028_eid_s08_128-3-10_bottle_10_n03937543_5296.JPEG
subject-08,3,469,1.28889989852905,dog,bear,8-0-10,3029_eid_s08_8-0-10_bear_10_n02134084_622.JPEG
subject-08,3,470,1.32707405090332,bird,bird,16-0-10,3030_eid_s08_16-0-10_bird_10_n01855672_37776.JPEG
subject-08,3,471,1.0216338634491,bicycle,bicycle,1-3-10,3031_eid_s08_1-3-10_bicycle_10_n03792782_16111.JPEG
subject-08,3,472,1.19244599342346,bear,oven,64-10-10,3032_eid_s08_64-10-10_oven_10_n04111531_3076.JPEG
subject-08,3,473,0.808924198150635,cat,bear,4-0-10,3033_eid_s08_4-0-10_bear_10_n02133161_2749.JPEG
subject-08,3,474,0.768898010253906,car,bicycle,32-0-10,3034_eid_s08_32-0-10_bicycle_10_n03792782_1479.JPEG
subject-08,3,475,0.968908071517944,keyboard,bicycle,32-10-10,3035_eid_s08_32-10-10_bicycle_10_n02835271_22549.JPEG
subject-08,3,476,1.00980281829834,clock,airplane,64-3-10,3036_eid_s08_64-3-10_airplane_10_n02690373_1950.JPEG
subject-08,3,477,0.955651044845581,chair,chair,4-0-10,3037_eid_s08_4-0-10_chair_10_n03376595_12982.JPEG
subject-08,3,478,0.964075803756714,bear,airplane,8-0-10,3038_eid_s08_8-0-10_airplane_10_n02690373_9423.JPEG
subject-08,3,479,1.4785840511322,boat,boat,16-3-10,3039_eid_s08_16-3-10_boat_10_n04273569_3085.JPEG
subject-08,3,480,0.802701950073242,boat,car,16-3-10,3040_eid_s08_16-3-10_car_10_n02814533_28216.JPEG
subject-08,3,481,0.757006883621216,car,knife,64-3-10,3041_eid_s08_64-3-10_knife_10_n03041632_29920.JPEG
subject-08,3,482,0.889721870422363,knife,bear,128-3-10,3042_eid_s08_128-3-10_bear_10_n02134418_5014.JPEG
subject-08,3,483,0.844310998916626,elephant,elephant,8-3-10,3043_eid_s08_8-3-10_elephant_10_n02504458_410.JPEG
subject-08,3,484,1.31291198730469,bird,dog,16-10-10,3044_eid_s08_16-10-10_dog_10_n02085782_11588.JPEG
subject-08,3,485,0.837535858154297,car,bottle,64-3-10,3045_eid_s08_64-3-10_bottle_10_n04591713_7096.JPEG
subject-08,3,486,0.645768880844116,bicycle,dog,128-3-10,3046_eid_s08_128-3-10_dog_10_n02086240_5327.JPEG
subject-08,3,487,1.00852298736572,truck,knife,8-3-10,3047_eid_s08_8-3-10_knife_10_n03041632_23968.JPEG
subject-08,3,488,1.04113006591797,bottle,chair,16-0-10,3048_eid_s08_16-0-10_chair_10_n03376595_6107.JPEG
subject-08,3,489,0.841847896575928,boat,boat,1-3-10,3049_eid_s08_1-3-10_boat_10_n03344393_1581.JPEG
subject-08,3,490,1.13431715965271,bear,bicycle,32-0-10,3050_eid_s08_32-0-10_bicycle_10_n03792782_4895.JPEG
subject-08,3,491,1.15647411346436,knife,chair,8-3-10,3051_eid_s08_8-3-10_chair_10_n02791124_2973.JPEG
subject-08,3,492,0.834958076477051,car,car,64-0-10,3052_eid_s08_64-0-10_car_10_n04285008_9860.JPEG
subject-08,3,493,0.890002012252808,boat,knife,2-0-10,3053_eid_s08_2-0-10_knife_10_n03041632_751.JPEG
subject-08,3,494,1.03561496734619,bird,bird,4-0-10,3054_eid_s08_4-0-10_bird_10_n01860187_10189.JPEG
subject-08,3,495,0.766372203826904,elephant,elephant,4-3-10,3055_eid_s08_4-3-10_elephant_10_n02504013_4247.JPEG
subject-08,3,496,0.819703102111816,chair,chair,4-10-10,3056_eid_s08_4-10-10_chair_10_n04099969_3652.JPEG
subject-08,3,497,0.828430891036987,bird,bird,2-10-10,3057_eid_s08_2-10-10_bird_10_n02025239_697.JPEG
subject-08,3,498,1.00292491912842,airplane,oven,128-0-10,3058_eid_s08_128-0-10_oven_10_n04111531_6923.JPEG
subject-08,3,499,0.881459951400757,bicycle,truck,32-3-10,3059_eid_s08_32-3-10_truck_10_n03417042_1718.JPEG
subject-08,3,500,0.682425022125244,car,car,2-0-10,3060_eid_s08_2-0-10_car_10_n02814533_12198.JPEG
subject-08,3,501,1.43663001060486,boat,chair,2-10-10,3061_eid_s08_2-10-10_chair_10_n04429376_40894.JPEG
subject-08,3,502,0.961394071578979,cat,keyboard,16-0-10,3062_eid_s08_16-0-10_keyboard_10_n03085013_2277.JPEG
subject-08,3,503,1.32207798957825,airplane,knife,16-3-10,3063_eid_s08_16-3-10_knife_10_n03041632_84240.JPEG
subject-08,3,504,0.776023864746094,cat,knife,64-10-10,3064_eid_s08_64-10-10_knife_10_n03041632_29580.JPEG
subject-08,3,505,0.716814041137695,car,car,4-10-10,3065_eid_s08_4-10-10_car_10_n02814533_32335.JPEG
subject-08,3,506,0.822399139404297,bear,bear,2-3-10,3066_eid_s08_2-3-10_bear_10_n02134418_1957.JPEG
subject-08,3,507,1.20975208282471,car,clock,32-0-10,3067_eid_s08_32-0-10_clock_10_n04548280_1584.JPEG
subject-08,3,508,0.655616044998169,clock,oven,16-3-10,3068_eid_s08_16-3-10_oven_10_n04111531_2163.JPEG
subject-08,3,509,0.894155025482178,airplane,boat,32-3-10,3069_eid_s08_32-3-10_boat_10_n03662601_6625.JPEG
subject-08,3,510,0.994255781173706,chair,truck,32-0-10,3070_eid_s08_32-0-10_truck_10_n03796401_6472.JPEG
subject-08,3,511,0.802727937698364,cat,truck,16-3-10,3071_eid_s08_16-3-10_truck_10_n03417042_11136.JPEG
subject-08,3,512,1.05728507041931,truck,truck,4-3-10,3072_eid_s08_4-3-10_truck_10_n03796401_1001.JPEG
subject-08,3,513,0.770157098770142,bicycle,bicycle,4-0-10,3073_eid_s08_4-0-10_bicycle_10_n02835271_15765.JPEG
subject-08,3,514,0.840505838394165,car,car,32-3-10,3074_eid_s08_32-3-10_car_10_n02814533_36898.JPEG
subject-08,3,515,0.632999897003174,boat,boat,4-0-10,3075_eid_s08_4-0-10_boat_10_n04273569_5388.JPEG
subject-08,3,516,1.01951503753662,bottle,bottle,16-0-10,3076_eid_s08_16-0-10_bottle_10_n04591713_3093.JPEG
subject-08,3,517,0.833617925643921,airplane,airplane,2-10-10,3077_eid_s08_2-10-10_airplane_10_n02690373_6665.JPEG
subject-08,3,518,0.78783106803894,chair,chair,1-10-10,3078_eid_s08_1-10-10_chair_10_n02791124_4538.JPEG
subject-08,3,519,0.987900018692017,cat,cat,16-10-10,3079_eid_s08_16-10-10_cat_10_n02124075_2129.JPEG
subject-08,3,520,0.99609899520874,cat,clock,32-3-10,3080_eid_s08_32-3-10_clock_10_n03196217_10936.JPEG
subject-08,3,521,0.734483003616333,oven,dog,64-0-10,3081_eid_s08_64-0-10_dog_10_n02095314_4249.JPEG
subject-08,3,522,0.621047973632812,keyboard,keyboard,1-3-10,3082_eid_s08_1-3-10_keyboard_10_n04505470_4707.JPEG
subject-08,3,523,0.743342876434326,car,clock,16-3-10,3083_eid_s08_16-3-10_clock_10_n03196217_4849.JPEG
subject-08,3,524,1.05956196784973,keyboard,keyboard,1-3-10,3084_eid_s08_1-3-10_keyboard_10_n03085013_20357.JPEG
subject-08,3,525,0.735853910446167,bicycle,bicycle,128-0-10,3085_eid_s08_128-0-10_bicycle_10_n02835271_12105.JPEG
subject-08,3,526,0.798671960830688,car,knife,128-0-10,3086_eid_s08_128-0-10_knife_10_n03041632_965.JPEG
subject-08,3,527,0.984920978546143,airplane,airplane,2-10-10,3087_eid_s08_2-10-10_airplane_10_n02690373_4119.JPEG
subject-08,3,528,0.723080158233643,bicycle,bicycle,1-10-10,3088_eid_s08_1-10-10_bicycle_10_n03792782_77826.JPEG
subject-08,3,529,1.18361401557922,bear,bear,2-3-10,3089_eid_s08_2-3-10_bear_10_n02132136_18542.JPEG
subject-08,3,530,0.832131862640381,bottle,bottle,4-0-10,3090_eid_s08_4-0-10_bottle_10_n03983396_9278.JPEG
subject-08,3,531,0.770185947418213,car,airplane,128-0-10,3091_eid_s08_128-0-10_airplane_10_n02690373_6674.JPEG
subject-08,3,532,0.786341905593872,airplane,bicycle,64-3-10,3092_eid_s08_64-3-10_bicycle_10_n03792782_34689.JPEG
subject-08,3,533,0.841364860534668,oven,oven,2-3-10,3093_eid_s08_2-3-10_oven_10_n04111531_15416.JPEG
subject-08,3,534,0.703834056854248,boat,boat,1-10-10,3094_eid_s08_1-10-10_boat_10_n02951358_1279.JPEG
subject-08,3,535,0.80423903465271,clock,bottle,128-10-10,3095_eid_s08_128-10-10_bottle_10_n04560804_15687.JPEG
subject-08,3,536,0.764940023422241,cat,cat,64-0-10,3096_eid_s08_64-0-10_cat_10_n02123159_5106.JPEG
subject-08,3,537,0.575392007827759,car,car,8-3-10,3097_eid_s08_8-3-10_car_10_n04285008_14128.JPEG
subject-08,3,538,0.636101007461548,bear,bear,2-10-10,3098_eid_s08_2-10-10_bear_10_n02134084_7670.JPEG
subject-08,3,539,0.638669013977051,cat,cat,8-3-10,3099_eid_s08_8-3-10_cat_10_n02124075_1382.JPEG
subject-08,3,540,1.12330293655396,dog,dog,8-10-10,3100_eid_s08_8-10-10_dog_10_n02086079_16047.JPEG
subject-08,3,541,0.761568069458008,bird,bear,32-3-10,3101_eid_s08_32-3-10_bear_10_n02134084_1564.JPEG
subject-08,3,542,0.662151098251343,cat,bicycle,128-10-10,3102_eid_s08_128-10-10_bicycle_10_n02835271_4374.JPEG
subject-08,3,543,1.07026195526123,keyboard,keyboard,4-0-10,3103_eid_s08_4-0-10_keyboard_10_n04505470_5091.JPEG
subject-08,3,544,0.737629890441895,airplane,airplane,4-10-10,3104_eid_s08_4-10-10_airplane_10_n02690373_871.JPEG
subject-08,3,545,0.724535942077637,clock,dog,128-3-10,3105_eid_s08_128-3-10_dog_10_n02106550_116.JPEG
subject-08,3,546,0.553808212280273,car,keyboard,32-3-10,3106_eid_s08_32-3-10_keyboard_10_n03085013_20570.JPEG
subject-08,3,547,0.716120958328247,airplane,oven,2-3-10,3107_eid_s08_2-3-10_oven_10_n04111531_249.JPEG
subject-08,3,548,0.784829139709473,dog,dog,8-3-10,3108_eid_s08_8-3-10_dog_10_n02093428_2206.JPEG
subject-08,3,549,1.08511710166931,bear,elephant,32-3-10,3109_eid_s08_32-3-10_elephant_10_n02504458_6475.JPEG
subject-08,3,550,0.662771940231323,oven,car,32-0-10,3110_eid_s08_32-0-10_car_10_n02814533_80101.JPEG
subject-08,3,551,1.05542898178101,car,bottle,64-3-10,3111_eid_s08_64-3-10_bottle_10_n04591713_6744.JPEG
subject-08,3,552,0.601892948150635,boat,cat,16-3-10,3112_eid_s08_16-3-10_cat_10_n02123597_7497.JPEG
subject-08,3,553,0.863755941390991,keyboard,boat,128-3-10,3113_eid_s08_128-3-10_boat_10_n03344393_6653.JPEG
subject-08,3,554,0.685933113098145,chair,bird,4-0-10,3114_eid_s08_4-0-10_bird_10_n01601694_7740.JPEG
subject-08,3,555,0.632176876068115,oven,airplane,64-3-10,3115_eid_s08_64-3-10_airplane_10_n02690373_1696.JPEG
subject-08,3,556,0.778055906295776,cat,dog,32-3-10,3116_eid_s08_32-3-10_dog_10_n02086240_4878.JPEG
subject-08,3,557,0.908096075057983,bird,airplane,64-3-10,3117_eid_s08_64-3-10_airplane_10_n02690373_2095.JPEG
subject-08,3,558,0.970460891723633,knife,bird,16-10-10,3118_eid_s08_16-10-10_bird_10_n01828970_6035.JPEG
subject-08,3,559,0.749019861221313,bottle,elephant,128-3-10,3119_eid_s08_128-3-10_elephant_10_n02504013_3084.JPEG
subject-08,3,560,0.987519025802612,bicycle,bicycle,2-0-10,3120_eid_s08_2-0-10_bicycle_10_n03792782_7657.JPEG
subject-08,3,561,0.957460165023804,bear,oven,32-3-10,3121_eid_s08_32-3-10_oven_10_n04111531_3121.JPEG
subject-08,3,562,0.663810014724731,car,bicycle,16-3-10,3122_eid_s08_16-3-10_bicycle_10_n03792782_50569.JPEG
subject-08,3,563,0.834085941314697,dog,truck,64-10-10,3123_eid_s08_64-10-10_truck_10_n04467665_11374.JPEG
subject-08,3,564,0.857848167419434,car,car,2-3-10,3124_eid_s08_2-3-10_car_10_n02814533_98315.JPEG
subject-08,3,565,0.871946096420288,bear,bear,64-10-10,3125_eid_s08_64-10-10_bear_10_n02134084_7998.JPEG
subject-08,3,566,0.64263391494751,clock,clock,1-0-10,3126_eid_s08_1-0-10_clock_10_n02708093_1775.JPEG
subject-08,3,567,1.01890206336975,keyboard,knife,32-10-10,3127_eid_s08_32-10-10_knife_10_n03041632_2973.JPEG
subject-08,3,568,0.951074123382568,boat,boat,2-3-10,3128_eid_s08_2-3-10_boat_10_n04273569_1233.JPEG
subject-08,3,569,0.690036058425903,bottle,bottle,1-0-10,3129_eid_s08_1-0-10_bottle_10_n02823428_4609.JPEG
subject-08,3,570,1.16890501976013,truck,truck,4-10-10,3130_eid_s08_4-10-10_truck_10_n04467665_21942.JPEG
subject-08,3,571,0.946707963943481,airplane,car,32-10-10,3131_eid_s08_32-10-10_car_10_n03100240_7072.JPEG
subject-08,3,572,0.723000049591064,clock,clock,1-3-10,3132_eid_s08_1-3-10_clock_10_n04548280_3125.JPEG
subject-08,3,573,0.761250972747803,bear,bear,2-10-10,3133_eid_s08_2-10-10_bear_10_n02132136_4084.JPEG
subject-08,3,574,0.909850120544434,cat,bicycle,8-3-10,3134_eid_s08_8-3-10_bicycle_10_n03792782_49889.JPEG
subject-08,3,575,0.638572931289673,car,boat,128-3-10,3135_eid_s08_128-3-10_boat_10_n02951358_31257.JPEG
subject-08,3,576,0.847384929656982,bottle,bottle,2-10-10,3136_eid_s08_2-10-10_bottle_10_n02823428_40.JPEG
subject-08,3,577,1.1700279712677,airplane,airplane,16-10-10,3137_eid_s08_16-10-10_airplane_10_n02690373_9170.JPEG
subject-08,3,578,0.872622966766357,car,airplane,128-0-10,3138_eid_s08_128-0-10_airplane_10_n02690373_4310.JPEG
subject-08,3,579,0.656779050827026,clock,dog,32-0-10,3139_eid_s08_32-0-10_dog_10_n02088364_16372.JPEG
subject-08,3,580,0.865636110305786,chair,chair,2-10-10,3140_eid_s08_2-10-10_chair_10_n03376595_7547.JPEG
subject-08,3,581,1.08994793891907,bird,bird,4-10-10,3141_eid_s08_4-10-10_bird_10_n01614925_8413.JPEG
subject-08,3,582,0.860460996627808,dog,dog,8-10-10,3142_eid_s08_8-10-10_dog_10_n02092339_1053.JPEG
subject-08,3,583,1.39848399162292,truck,car,4-3-10,3143_eid_s08_4-3-10_car_10_n03100240_7206.JPEG
subject-08,3,584,0.853116035461426,cat,clock,32-0-10,3144_eid_s08_32-0-10_clock_10_n04548280_2273.JPEG
subject-08,3,585,0.937492847442627,boat,bear,4-0-10,3145_eid_s08_4-0-10_bear_10_n02134084_14346.JPEG
subject-08,3,586,1.11274814605713,bird,cat,8-10-10,3146_eid_s08_8-10-10_cat_10_n02125311_17546.JPEG
subject-08,3,587,0.745235919952393,oven,bear,128-0-10,3147_eid_s08_128-0-10_bear_10_n02133161_714.JPEG
subject-08,3,588,0.716031074523926,bottle,oven,64-3-10,3148_eid_s08_64-3-10_oven_10_n04111531_15735.JPEG
subject-08,3,589,0.716094970703125,keyboard,bottle,64-0-10,3149_eid_s08_64-0-10_bottle_10_n04557648_4133.JPEG
subject-08,3,590,0.800604820251465,chair,chair,4-10-10,3150_eid_s08_4-10-10_chair_10_n02791124_10686.JPEG
subject-08,3,591,0.871115922927856,car,keyboard,16-3-10,3151_eid_s08_16-3-10_keyboard_10_n03085013_12708.JPEG
subject-08,3,592,0.816912174224854,airplane,bird,16-0-10,3152_eid_s08_16-0-10_bird_10_n01819313_1426.JPEG
subject-08,3,593,0.817505836486816,bicycle,clock,32-0-10,3153_eid_s08_32-0-10_clock_10_n03196217_1473.JPEG
subject-08,3,594,1.13979005813599,cat,elephant,4-3-10,3154_eid_s08_4-3-10_elephant_10_n02504013_9361.JPEG
subject-08,3,595,0.781008005142212,car,car,16-0-10,3155_eid_s08_16-0-10_car_10_n02814533_52045.JPEG
subject-08,3,596,0.711006164550781,boat,bicycle,16-0-10,3156_eid_s08_16-0-10_bicycle_10_n02835271_9569.JPEG
subject-08,3,597,0.751920938491821,cat,cat,1-3-10,3157_eid_s08_1-3-10_cat_10_n02124075_7027.JPEG
subject-08,3,598,0.998252868652344,elephant,elephant,2-3-10,3158_eid_s08_2-3-10_elephant_10_n02504458_3951.JPEG
subject-08,3,599,0.78485107421875,elephant,bear,2-0-10,3159_eid_s08_2-0-10_bear_10_n02133161_2670.JPEG
subject-08,3,600,0.856948852539062,boat,dog,128-0-10,3160_eid_s08_128-0-10_dog_10_n02097047_526.JPEG
subject-08,3,601,0.773644924163818,keyboard,chair,128-0-10,3161_eid_s08_128-0-10_chair_10_n02791124_7630.JPEG
subject-08,3,602,1.04384994506836,car,car,8-10-10,3162_eid_s08_8-10-10_car_10_n03100240_12165.JPEG
subject-08,3,603,1.21951913833618,keyboard,keyboard,16-10-10,3163_eid_s08_16-10-10_keyboard_10_n03085013_6643.JPEG
subject-08,3,604,1.01155304908752,truck,truck,64-3-10,3164_eid_s08_64-3-10_truck_10_n03796401_7177.JPEG
subject-08,3,605,0.733962059020996,chair,bottle,32-0-10,3165_eid_s08_32-0-10_bottle_10_n03983396_3692.JPEG
subject-08,3,606,0.658371925354004,cat,cat,8-0-10,3166_eid_s08_8-0-10_cat_10_n02124075_11778.JPEG
subject-08,3,607,0.682430982589722,boat,clock,32-10-10,3167_eid_s08_32-10-10_clock_10_n02708093_1975.JPEG
subject-08,3,608,0.797085046768188,elephant,bird,8-3-10,3168_eid_s08_8-3-10_bird_10_n01860187_348.JPEG
subject-08,3,609,0.991986989974976,car,clock,64-3-10,3169_eid_s08_64-3-10_clock_10_n04548280_7639.JPEG
subject-08,3,610,0.884054899215698,bird,keyboard,64-3-10,3170_eid_s08_64-3-10_keyboard_10_n04505470_4742.JPEG
subject-08,3,611,1.17750597000122,bear,chair,64-10-10,3171_eid_s08_64-10-10_chair_10_n04429376_30142.JPEG
subject-08,3,612,0.927711009979248,bottle,chair,128-3-10,3172_eid_s08_128-3-10_chair_10_n04099969_9425.JPEG
subject-08,3,613,1.24442195892334,bird,airplane,32-10-10,3173_eid_s08_32-10-10_airplane_10_n02690373_5729.JPEG
subject-08,3,614,0.984814882278442,car,boat,64-0-10,3174_eid_s08_64-0-10_boat_10_n03662601_4416.JPEG
subject-08,3,615,0.914878129959106,keyboard,keyboard,2-10-10,3175_eid_s08_2-10-10_keyboard_10_n03085013_23672.JPEG
subject-08,3,616,1.23935198783875,bird,dog,128-10-10,3176_eid_s08_128-10-10_dog_10_n02099849_8737.JPEG
subject-08,3,617,0.791191816329956,car,car,128-0-10,3177_eid_s08_128-0-10_car_10_n03100240_12874.JPEG
subject-08,3,618,0.861274003982544,clock,clock,32-10-10,3178_eid_s08_32-10-10_clock_10_n04548280_3155.JPEG
subject-08,3,619,0.891305208206177,truck,truck,128-3-10,3179_eid_s08_128-3-10_truck_10_n04467665_50746.JPEG
subject-08,3,620,1.02100300788879,bottle,dog,128-10-10,3180_eid_s08_128-10-10_dog_10_n02096294_6258.JPEG
subject-08,3,621,1.22217297554016,car,truck,2-3-10,3181_eid_s08_2-3-10_truck_10_n03417042_4552.JPEG
subject-08,3,622,1.22228813171387,keyboard,oven,8-10-10,3182_eid_s08_8-10-10_oven_10_n04111531_7355.JPEG
subject-08,3,623,0.916404008865356,elephant,elephant,2-0-10,3183_eid_s08_2-0-10_elephant_10_n02504458_2908.JPEG
subject-08,3,624,0.83347487449646,bicycle,bicycle,4-0-10,3184_eid_s08_4-0-10_bicycle_10_n02835271_21573.JPEG
subject-08,3,625,0.879683971405029,truck,truck,2-0-10,3185_eid_s08_2-0-10_truck_10_n04467665_360.JPEG
subject-08,3,626,0.747779130935669,keyboard,keyboard,2-3-10,3186_eid_s08_2-3-10_keyboard_10_n03085013_20837.JPEG
subject-08,3,627,1.25601315498352,truck,truck,8-10-10,3187_eid_s08_8-10-10_truck_10_n04467665_53969.JPEG
subject-08,3,628,1.24051594734192,bear,oven,16-0-10,3188_eid_s08_16-0-10_oven_10_n04111531_7034.JPEG
subject-08,3,629,1.01866388320923,boat,car,16-10-10,3189_eid_s08_16-10-10_car_10_n02814533_35174.JPEG
subject-08,3,630,0.703040838241577,car,keyboard,32-3-10,3190_eid_s08_32-3-10_keyboard_10_n03085013_21066.JPEG
subject-08,3,631,0.673443078994751,keyboard,keyboard,4-3-10,3191_eid_s08_4-3-10_keyboard_10_n03085013_31972.JPEG
subject-08,3,632,0.905925035476685,bear,bear,1-3-10,3192_eid_s08_1-3-10_bear_10_n02134418_380.JPEG
subject-08,3,633,0.895694017410278,airplane,airplane,2-0-10,3193_eid_s08_2-0-10_airplane_10_n02690373_8650.JPEG
subject-08,3,634,1.11249709129333,bird,bird,16-0-10,3194_eid_s08_16-0-10_bird_10_n02025239_7145.JPEG
subject-08,3,635,1.0066831111908,bird,bear,8-3-10,3195_eid_s08_8-3-10_bear_10_n02132136_4426.JPEG
subject-08,3,636,1.45949292182922,bird,bird,32-0-10,3196_eid_s08_32-0-10_bird_10_n01622779_9539.JPEG
subject-08,3,637,0.64522910118103,car,elephant,16-0-10,3197_eid_s08_16-0-10_elephant_10_n02504458_758.JPEG
subject-08,3,638,1.03783297538757,dog,oven,64-3-10,3198_eid_s08_64-3-10_oven_10_n04111531_804.JPEG
subject-08,3,639,0.984424829483032,bear,boat,128-10-10,3199_eid_s08_128-10-10_boat_10_n03662601_10486.JPEG
subject-08,3,640,1.15506792068481,oven,knife,2-10-10,3200_eid_s08_2-10-10_knife_10_n03041632_101673.JPEG
subject-08,3,641,0.869057893753052,car,bottle,128-0-10,3201_eid_s08_128-0-10_bottle_10_n02823428_10584.JPEG
subject-08,3,642,1.26419901847839,boat,bicycle,8-0-10,3202_eid_s08_8-0-10_bicycle_10_n03792782_14746.JPEG
subject-08,3,643,1.18052387237549,car,clock,4-3-10,3203_eid_s08_4-3-10_clock_10_n03196217_3430.JPEG
subject-08,3,644,0.934993028640747,dog,bear,16-0-10,3204_eid_s08_16-0-10_bear_10_n02134084_1949.JPEG
subject-08,3,645,0.981146097183228,elephant,elephant,16-3-10,3205_eid_s08_16-3-10_elephant_10_n02504458_4883.JPEG
subject-08,3,646,0.981094121932983,dog,dog,4-0-10,3206_eid_s08_4-0-10_dog_10_n02107908_10662.JPEG
subject-08,3,647,0.665112018585205,bird,keyboard,32-3-10,3207_eid_s08_32-3-10_keyboard_10_n04505470_10581.JPEG
subject-08,3,648,0.649099111557007,keyboard,truck,128-10-10,3208_eid_s08_128-10-10_truck_10_n04467665_20700.JPEG
subject-08,3,649,1.25726199150085,bird,bottle,8-0-10,3209_eid_s08_8-0-10_bottle_10_n04591713_3062.JPEG
subject-08,3,650,1.03431701660156,car,truck,4-0-10,3210_eid_s08_4-0-10_truck_10_n03417042_4761.JPEG
subject-08,3,651,1.38264393806458,bear,dog,4-3-10,3211_eid_s08_4-3-10_dog_10_n02095314_3864.JPEG
subject-08,3,652,1.48351097106934,chair,clock,64-10-10,3212_eid_s08_64-10-10_clock_10_n04548280_4635.JPEG
subject-08,3,653,0.775804996490479,chair,chair,8-3-10,3213_eid_s08_8-3-10_chair_10_n04429376_29737.JPEG
subject-08,3,654,0.89698314666748,boat,chair,64-0-10,3214_eid_s08_64-0-10_chair_10_n04429376_14880.JPEG
subject-08,3,655,0.914247989654541,bicycle,bicycle,1-3-10,3215_eid_s08_1-3-10_bicycle_10_n03792782_8561.JPEG
subject-08,3,656,1.07629680633545,airplane,clock,16-0-10,3216_eid_s08_16-0-10_clock_10_n02708093_6743.JPEG
subject-08,3,657,0.997757196426392,cat,cat,32-3-10,3217_eid_s08_32-3-10_cat_10_n02124075_7925.JPEG
subject-08,3,658,1.21374607086182,elephant,bird,32-10-10,3218_eid_s08_32-10-10_bird_10_n01820546_6628.JPEG
subject-08,3,659,0.713841915130615,car,elephant,32-3-10,3219_eid_s08_32-3-10_elephant_10_n02504013_295.JPEG
subject-08,3,660,1.13646292686462,bottle,bottle,4-10-10,3220_eid_s08_4-10-10_bottle_10_n04557648_10233.JPEG
subject-08,3,661,0.707120895385742,clock,chair,128-3-10,3221_eid_s08_128-3-10_chair_10_n02791124_56.JPEG
subject-08,3,662,0.785351037979126,dog,dog,8-10-10,3222_eid_s08_8-10-10_dog_10_n02106662_48473.JPEG
subject-08,3,663,1.06966686248779,cat,oven,1-3-10,3223_eid_s08_1-3-10_oven_10_n04111531_13422.JPEG
subject-08,3,664,0.948255062103271,bird,bottle,64-3-10,3224_eid_s08_64-3-10_bottle_10_n04579145_1660.JPEG
subject-08,3,665,0.862348079681396,dog,bear,2-0-10,3225_eid_s08_2-0-10_bear_10_n02134418_559.JPEG
subject-08,3,666,1.4486608505249,bear,elephant,32-0-10,3226_eid_s08_32-0-10_elephant_10_n02504013_2545.JPEG
subject-08,3,667,0.773210048675537,car,car,16-3-10,3227_eid_s08_16-3-10_car_10_n03100240_8489.JPEG
subject-08,3,668,1.02565002441406,knife,knife,8-10-10,3228_eid_s08_8-10-10_knife_10_n03041632_30602.JPEG
subject-08,3,669,0.950171947479248,airplane,elephant,64-10-10,3229_eid_s08_64-10-10_elephant_10_n02504013_10131.JPEG
subject-08,3,670,1.04175901412964,truck,boat,64-3-10,3230_eid_s08_64-3-10_boat_10_n03662601_21711.JPEG
subject-08,3,671,0.741194009780884,car,knife,64-3-10,3231_eid_s08_64-3-10_knife_10_n03041632_27963.JPEG
subject-08,3,672,0.701203107833862,boat,chair,128-10-10,3232_eid_s08_128-10-10_chair_10_n02791124_10108.JPEG
subject-08,3,673,1.38605499267578,chair,cat,8-3-10,3233_eid_s08_8-3-10_cat_10_n02123394_8379.JPEG
subject-08,3,674,1.03988194465637,dog,cat,64-10-10,3234_eid_s08_64-10-10_cat_10_n02123159_4442.JPEG
subject-08,3,675,0.756095170974731,airplane,airplane,1-10-10,3235_eid_s08_1-10-10_airplane_10_n02690373_1386.JPEG
subject-08,3,676,0.626729965209961,boat,bird,32-3-10,3236_eid_s08_32-3-10_bird_10_n01514859_3242.JPEG
subject-08,3,677,0.681414127349854,airplane,airplane,1-3-10,3237_eid_s08_1-3-10_airplane_10_n02690373_2498.JPEG
subject-08,3,678,0.895895004272461,dog,dog,16-10-10,3238_eid_s08_16-10-10_dog_10_n02086646_7690.JPEG
subject-08,3,679,1.15822505950928,keyboard,oven,1-0-10,3239_eid_s08_1-0-10_oven_10_n04111531_9762.JPEG
subject-08,3,680,1.00414609909058,bird,clock,64-10-10,3240_eid_s08_64-10-10_clock_10_n02708093_8152.JPEG
subject-08,3,681,1.2283570766449,cat,bird,32-10-10,3241_eid_s08_32-10-10_bird_10_n02006656_11310.JPEG
subject-08,3,682,0.828606128692627,boat,bear,32-0-10,3242_eid_s08_32-0-10_bear_10_n02134084_19803.JPEG
subject-08,3,683,0.674842119216919,airplane,airplane,2-0-10,3243_eid_s08_2-0-10_airplane_10_n02690373_16250.JPEG
subject-08,3,684,0.643169164657593,car,oven,8-0-10,3244_eid_s08_8-0-10_oven_10_n04111531_3717.JPEG
subject-08,3,685,0.864970207214355,airplane,airplane,8-3-10,3245_eid_s08_8-3-10_airplane_10_n02690373_15472.JPEG
subject-08,3,686,1.12763214111328,cat,oven,8-0-10,3246_eid_s08_8-0-10_oven_10_n04111531_20369.JPEG
subject-08,3,687,0.627300977706909,boat,boat,2-10-10,3247_eid_s08_2-10-10_boat_10_n04612504_13586.JPEG
subject-08,3,688,0.74445104598999,car,car,4-3-10,3248_eid_s08_4-3-10_car_10_n02814533_26417.JPEG
subject-08,3,689,0.89855694770813,chair,bottle,8-0-10,3249_eid_s08_8-0-10_bottle_10_n04560804_154.JPEG
subject-08,3,690,0.982762098312378,airplane,airplane,1-0-10,3250_eid_s08_1-0-10_airplane_10_n02690373_10228.JPEG
subject-08,3,691,0.675939083099365,boat,bottle,128-10-10,3251_eid_s08_128-10-10_bottle_10_n04557648_6406.JPEG
subject-08,3,692,0.775928020477295,bicycle,boat,16-0-10,3252_eid_s08_16-0-10_boat_10_n04273569_10538.JPEG
subject-08,3,693,1.0685830116272,dog,dog,4-3-10,3253_eid_s08_4-3-10_dog_10_n02096585_2962.JPEG
subject-08,3,694,1.02304601669312,bicycle,bicycle,8-3-10,3254_eid_s08_8-3-10_bicycle_10_n02835271_19306.JPEG
subject-08,3,695,1.14513397216797,keyboard,boat,4-10-10,3255_eid_s08_4-10-10_boat_10_n02951358_30099.JPEG
subject-08,3,696,1.09111309051514,bottle,knife,8-10-10,3256_eid_s08_8-10-10_knife_10_n03041632_49163.JPEG
subject-08,3,697,0.915179014205933,car,knife,8-10-10,3257_eid_s08_8-10-10_knife_10_n03041632_25498.JPEG
subject-08,3,698,0.876049995422363,dog,dog,1-0-10,3258_eid_s08_1-0-10_dog_10_n02097658_1228.JPEG
subject-08,3,699,0.954330921173096,bear,bear,2-3-10,3259_eid_s08_2-3-10_bear_10_n02134084_2723.JPEG
subject-08,3,700,0.892786026000977,car,truck,128-10-10,3260_eid_s08_128-10-10_truck_10_n03417042_4665.JPEG
subject-08,3,701,1.14483189582825,truck,oven,8-10-10,3261_eid_s08_8-10-10_oven_10_n04111531_9429.JPEG
subject-08,3,702,0.811486005783081,clock,keyboard,32-0-10,3262_eid_s08_32-0-10_keyboard_10_n04505470_73.JPEG
subject-08,3,703,0.989647150039673,dog,cat,4-10-10,3263_eid_s08_4-10-10_cat_10_n02123597_10648.JPEG
subject-08,3,704,0.890017032623291,bird,bird,1-3-10,3264_eid_s08_1-3-10_bird_10_n01843383_469.JPEG
subject-08,3,705,1.05875492095947,elephant,elephant,32-10-10,3265_eid_s08_32-10-10_elephant_10_n02504013_257.JPEG
subject-08,3,706,0.788733005523682,bear,bear,8-0-10,3266_eid_s08_8-0-10_bear_10_n02132136_5317.JPEG
subject-08,3,707,0.597314834594727,car,truck,128-10-10,3267_eid_s08_128-10-10_truck_10_n03796401_7518.JPEG
subject-08,3,708,0.935419082641602,keyboard,cat,64-3-10,3268_eid_s08_64-3-10_cat_10_n02125311_57758.JPEG
subject-08,3,709,0.774084806442261,cat,keyboard,64-3-10,3269_eid_s08_64-3-10_keyboard_10_n04505470_5151.JPEG
subject-08,3,710,1.00626516342163,knife,knife,4-3-10,3270_eid_s08_4-3-10_knife_10_n03041632_101553.JPEG
subject-08,3,711,0.922875881195068,oven,oven,1-10-10,3271_eid_s08_1-10-10_oven_10_n04111531_7106.JPEG
subject-08,3,712,0.915150165557861,car,bicycle,128-0-10,3272_eid_s08_128-0-10_bicycle_10_n02835271_9297.JPEG
subject-08,3,713,1.02016115188599,truck,elephant,128-3-10,3273_eid_s08_128-3-10_elephant_10_n02504013_140.JPEG
subject-08,3,714,1.03715205192566,chair,cat,64-3-10,3274_eid_s08_64-3-10_cat_10_n02123045_12692.JPEG
subject-08,3,715,1.22942304611206,boat,boat,2-0-10,3275_eid_s08_2-0-10_boat_10_n03344393_7667.JPEG
subject-08,3,716,0.859985113143921,car,car,16-10-10,3276_eid_s08_16-10-10_car_10_n03100240_11400.JPEG
subject-08,3,717,1.03868198394775,bottle,bottle,1-0-10,3277_eid_s08_1-0-10_bottle_10_n04557648_516.JPEG
subject-08,3,718,1.41509199142456,dog,bear,1-10-10,3278_eid_s08_1-10-10_bear_10_n02133161_8236.JPEG
subject-08,3,719,0.861570119857788,airplane,oven,128-3-10,3279_eid_s08_128-3-10_oven_10_n04111531_8681.JPEG
subject-08,3,720,1.36205983161926,chair,knife,4-0-10,3280_eid_s08_4-0-10_knife_10_n03041632_31363.JPEG
subject-08,3,721,0.862261056900024,car,chair,64-0-10,3281_eid_s08_64-0-10_chair_10_n04099969_38476.JPEG
subject-08,3,722,0.732946157455444,airplane,airplane,8-0-10,3282_eid_s08_8-0-10_airplane_10_n02690373_1952.JPEG
subject-08,3,723,1.07743000984192,bicycle,bicycle,2-10-10,3283_eid_s08_2-10-10_bicycle_10_n02835271_31431.JPEG
subject-08,3,724,1.24774289131165,airplane,boat,32-10-10,3284_eid_s08_32-10-10_boat_10_n03344393_7706.JPEG
subject-08,3,725,0.640133142471313,keyboard,keyboard,4-10-10,3285_eid_s08_4-10-10_keyboard_10_n03085013_21534.JPEG
subject-08,3,726,0.686742067337036,dog,dog,1-0-10,3286_eid_s08_1-0-10_dog_10_n02105505_1579.JPEG
subject-08,3,727,0.724786996841431,keyboard,keyboard,8-3-10,3287_eid_s08_8-3-10_keyboard_10_n03085013_17884.JPEG
subject-08,3,728,0.82547402381897,bicycle,bicycle,1-0-10,3288_eid_s08_1-0-10_bicycle_10_n02835271_8209.JPEG
subject-08,3,729,1.13372206687927,bear,bear,1-10-10,3289_eid_s08_1-10-10_bear_10_n02134084_4431.JPEG
subject-08,3,730,1.16086006164551,boat,boat,16-10-10,3290_eid_s08_16-10-10_boat_10_n04273569_13972.JPEG
subject-08,3,731,1.06994605064392,airplane,airplane,4-3-10,3291_eid_s08_4-3-10_airplane_10_n02690373_4061.JPEG
subject-08,3,732,0.690258026123047,car,clock,128-0-10,3292_eid_s08_128-0-10_clock_10_n03196217_7931.JPEG
subject-08,3,733,0.836364030838013,bottle,bottle,8-10-10,3293_eid_s08_8-10-10_bottle_10_n04560804_13459.JPEG
subject-08,3,734,0.704859018325806,keyboard,keyboard,16-10-10,3294_eid_s08_16-10-10_keyboard_10_n03085013_19362.JPEG
subject-08,3,735,1.23776793479919,bird,bird,4-0-10,3295_eid_s08_4-0-10_bird_10_n01828970_19141.JPEG
subject-08,3,736,1.22976112365723,truck,truck,8-3-10,3296_eid_s08_8-3-10_truck_10_n03417042_27630.JPEG
subject-08,3,737,0.729932069778442,clock,clock,16-10-10,3297_eid_s08_16-10-10_clock_10_n04548280_8583.JPEG
subject-08,3,738,0.654500961303711,car,car,2-10-10,3298_eid_s08_2-10-10_car_10_n03100240_9143.JPEG
subject-08,3,739,1.13909792900085,bird,cat,8-3-10,3299_eid_s08_8-3-10_cat_10_n02125311_25749.JPEG
subject-08,3,740,1.46128678321838,knife,bottle,1-0-10,3300_eid_s08_1-0-10_bottle_10_n04560804_13322.JPEG
subject-08,3,741,0.880485057830811,airplane,boat,8-3-10,3301_eid_s08_8-3-10_boat_10_n03344393_4592.JPEG
subject-08,3,742,1.28652310371399,knife,bird,1-0-10,3302_eid_s08_1-0-10_bird_10_n01592084_3150.JPEG
subject-08,3,743,0.673326015472412,boat,keyboard,32-3-10,3303_eid_s08_32-3-10_keyboard_10_n03085013_23173.JPEG
subject-08,3,744,0.927580833435059,dog,dog,2-3-10,3304_eid_s08_2-3-10_dog_10_n02094114_6756.JPEG
subject-08,3,745,0.865660905838013,dog,keyboard,4-10-10,3305_eid_s08_4-10-10_keyboard_10_n03085013_3910.JPEG
subject-08,3,746,0.582379102706909,oven,cat,128-0-10,3306_eid_s08_128-0-10_cat_10_n02123394_6031.JPEG
subject-08,3,747,1.24491596221924,bear,boat,64-3-10,3307_eid_s08_64-3-10_boat_10_n02951358_160.JPEG
subject-08,3,748,1.19135284423828,bird,boat,16-3-10,3308_eid_s08_16-3-10_boat_10_n02951358_11242.JPEG
subject-08,3,749,1.09972190856934,cat,cat,4-0-10,3309_eid_s08_4-0-10_cat_10_n02123597_10484.JPEG
subject-08,3,750,1.29984998703003,car,car,8-0-10,3310_eid_s08_8-0-10_car_10_n02814533_44208.JPEG
subject-08,3,751,0.97832202911377,clock,knife,1-10-10,3311_eid_s08_1-10-10_knife_10_n03041632_7380.JPEG
subject-08,3,752,0.792663097381592,boat,bear,1-3-10,3312_eid_s08_1-3-10_bear_10_n02133161_499.JPEG
subject-08,3,753,0.808926105499268,airplane,truck,16-0-10,3313_eid_s08_16-0-10_truck_10_n04467665_27873.JPEG
subject-08,3,754,0.833534002304077,chair,bottle,128-0-10,3314_eid_s08_128-0-10_bottle_10_n03983396_6920.JPEG
subject-08,3,755,1.36409592628479,car,truck,1-10-10,3315_eid_s08_1-10-10_truck_10_n03796401_8399.JPEG
subject-08,3,756,0.702522039413452,dog,dog,1-3-10,3316_eid_s08_1-3-10_dog_10_n02093754_5571.JPEG
subject-08,3,757,0.934808015823364,bear,bear,8-3-10,3317_eid_s08_8-3-10_bear_10_n02134418_1960.JPEG
subject-08,3,758,0.896591901779175,bird,dog,8-10-10,3318_eid_s08_8-10-10_dog_10_n02099849_592.JPEG
subject-08,3,759,1.38089895248413,cat,chair,16-3-10,3319_eid_s08_16-3-10_chair_10_n03376595_6721.JPEG
subject-08,3,760,0.827603101730347,cat,dog,16-3-10,3320_eid_s08_16-3-10_dog_10_n02093754_692.JPEG
subject-08,3,761,0.832494020462036,airplane,airplane,4-3-10,3321_eid_s08_4-3-10_airplane_10_n02690373_5176.JPEG
subject-08,3,762,0.718903064727783,car,dog,32-0-10,3322_eid_s08_32-0-10_dog_10_n02089867_6154.JPEG
subject-08,3,763,1.0894889831543,bear,bear,8-3-10,3323_eid_s08_8-3-10_bear_10_n02134084_7532.JPEG
subject-08,3,764,1.35764694213867,airplane,airplane,8-0-10,3324_eid_s08_8-0-10_airplane_10_n02690373_3874.JPEG
subject-08,3,765,0.665895938873291,cat,cat,2-0-10,3325_eid_s08_2-0-10_cat_10_n02123597_13706.JPEG
subject-08,3,766,1.1503849029541,knife,knife,4-10-10,3326_eid_s08_4-10-10_knife_10_n03041632_46112.JPEG
subject-08,3,767,1.15821194648743,bicycle,bicycle,4-10-10,3327_eid_s08_4-10-10_bicycle_10_n02835271_23888.JPEG
subject-08,3,768,1.05903100967407,bear,bear,1-0-10,3328_eid_s08_1-0-10_bear_10_n02132136_4888.JPEG
subject-08,3,769,1.40384697914124,airplane,car,32-3-10,3329_eid_s08_32-3-10_car_10_n03100240_6948.JPEG
subject-08,3,770,0.928523063659668,bear,bear,32-10-10,3330_eid_s08_32-10-10_bear_10_n02133161_3642.JPEG
subject-08,3,771,1.20507407188416,airplane,knife,32-10-10,3331_eid_s08_32-10-10_knife_10_n03041632_25479.JPEG
subject-08,3,772,0.759178876876831,oven,car,128-3-10,3332_eid_s08_128-3-10_car_10_n04285008_4893.JPEG
subject-08,3,773,0.983844995498657,bird,keyboard,64-10-10,3333_eid_s08_64-10-10_keyboard_10_n03085013_19130.JPEG
subject-08,3,774,1.15191888809204,knife,bottle,16-10-10,3334_eid_s08_16-10-10_bottle_10_n02823428_943.JPEG
subject-08,3,775,0.822099924087524,car,knife,64-3-10,3335_eid_s08_64-3-10_knife_10_n03041632_84869.JPEG
subject-08,3,776,0.998447895050049,truck,oven,128-3-10,3336_eid_s08_128-3-10_oven_10_n04111531_21896.JPEG
subject-08,3,777,0.652822971343994,cat,cat,2-10-10,3337_eid_s08_2-10-10_cat_10_n02123394_6519.JPEG
subject-08,3,778,0.576864957809448,cat,cat,4-10-10,3338_eid_s08_4-10-10_cat_10_n02123597_31.JPEG
subject-08,3,779,1.04565596580505,bear,truck,16-3-10,3339_eid_s08_16-3-10_truck_10_n04467665_53583.JPEG
subject-08,3,780,1.01524806022644,car,bicycle,16-3-10,3340_eid_s08_16-3-10_bicycle_10_n02835271_24851.JPEG
subject-08,3,781,0.899104118347168,boat,boat,2-3-10,3341_eid_s08_2-3-10_boat_10_n04273569_24526.JPEG
subject-08,3,782,1.04576683044434,dog,oven,4-10-10,3342_eid_s08_4-10-10_oven_10_n04111531_10537.JPEG
subject-08,3,783,0.640475988388062,car,knife,128-3-10,3343_eid_s08_128-3-10_knife_10_n03041632_51581.JPEG
subject-08,3,784,0.932754039764404,knife,boat,32-3-10,3344_eid_s08_32-3-10_boat_10_n03662601_24696.JPEG
subject-08,3,785,0.809551954269409,truck,bottle,32-3-10,3345_eid_s08_32-3-10_bottle_10_n04557648_3268.JPEG
subject-08,3,786,0.72288703918457,car,car,8-0-10,3346_eid_s08_8-0-10_car_10_n04285008_4281.JPEG
subject-08,3,787,0.717242002487183,cat,cat,2-0-10,3347_eid_s08_2-0-10_cat_10_n02123394_8676.JPEG
subject-08,3,788,1.12601208686829,chair,chair,8-0-10,3348_eid_s08_8-0-10_chair_10_n03376595_7262.JPEG
subject-08,3,789,1.04737782478333,bird,bird,1-0-10,3349_eid_s08_1-0-10_bird_10_n02037110_8019.JPEG
subject-08,3,790,0.939896106719971,car,clock,64-0-10,3350_eid_s08_64-0-10_clock_10_n02708093_3361.JPEG
subject-08,3,791,1.1342990398407,chair,bear,2-3-10,3351_eid_s08_2-3-10_bear_10_n02133161_3279.JPEG
subject-08,3,792,1.38993287086487,bottle,bottle,8-10-10,3352_eid_s08_8-10-10_bottle_10_n02823428_4530.JPEG
subject-08,3,793,0.906147956848145,boat,bottle,128-3-10,3353_eid_s08_128-3-10_bottle_10_n03937543_7825.JPEG
subject-08,3,794,0.627031087875366,car,bicycle,128-3-10,3354_eid_s08_128-3-10_bicycle_10_n03792782_4207.JPEG
subject-08,3,795,0.689520835876465,bottle,bottle,1-10-10,3355_eid_s08_1-10-10_bottle_10_n03983396_19926.JPEG
subject-08,3,796,0.982013940811157,bicycle,bicycle,4-3-10,3356_eid_s08_4-3-10_bicycle_10_n03792782_4502.JPEG
subject-08,3,797,0.998593091964722,cat,cat,8-0-10,3357_eid_s08_8-0-10_cat_10_n02123159_2682.JPEG
subject-08,3,798,1.50028800964355,boat,knife,1-10-10,3358_eid_s08_1-10-10_knife_10_n03041632_25603.JPEG
subject-08,3,799,0.921630144119263,airplane,car,64-0-10,3359_eid_s08_64-0-10_car_10_n02814533_53533.JPEG
subject-08,3,800,0.683709144592285,bird,airplane,128-3-10,3360_eid_s08_128-3-10_airplane_10_n02690373_6676.JPEG
subject-08,3,801,0.929814100265503,car,car,128-3-10,3361_eid_s08_128-3-10_car_10_n02814533_40315.JPEG
subject-08,3,802,0.906312227249146,car,car,4-0-10,3362_eid_s08_4-0-10_car_10_n02814533_40700.JPEG
subject-08,3,803,0.954329013824463,truck,truck,8-10-10,3363_eid_s08_8-10-10_truck_10_n04467665_66535.JPEG
subject-08,3,804,0.722245931625366,cat,cat,16-10-10,3364_eid_s08_16-10-10_cat_10_n02123597_10723.JPEG
subject-08,3,805,1.26141095161438,car,truck,8-3-10,3365_eid_s08_8-3-10_truck_10_n03417042_3669.JPEG
subject-08,3,806,1.1778998374939,airplane,airplane,4-10-10,3366_eid_s08_4-10-10_airplane_10_n02690373_7676.JPEG
subject-08,3,807,0.702747106552124,boat,dog,8-0-10,3367_eid_s08_8-0-10_dog_10_n02105641_1710.JPEG
subject-08,3,808,1.11112499237061,bear,bear,32-3-10,3368_eid_s08_32-3-10_bear_10_n02134084_1689.JPEG
subject-08,3,809,0.757637977600098,bird,elephant,8-10-10,3369_eid_s08_8-10-10_elephant_10_n02504458_7835.JPEG
subject-08,3,810,0.903892993927002,airplane,car,64-10-10,3370_eid_s08_64-10-10_car_10_n02814533_81616.JPEG
subject-08,3,811,0.658722877502441,car,chair,16-0-10,3371_eid_s08_16-0-10_chair_10_n03376595_1762.JPEG
subject-08,3,812,0.80489706993103,boat,bottle,8-0-10,3372_eid_s08_8-0-10_bottle_10_n03983396_2525.JPEG
subject-08,3,813,1.10525298118591,dog,knife,8-0-10,3373_eid_s08_8-0-10_knife_10_n03041632_31271.JPEG
subject-08,3,814,0.751049995422363,cat,cat,4-3-10,3374_eid_s08_4-3-10_cat_10_n02123159_4816.JPEG
subject-08,3,815,0.734045028686523,car,chair,128-0-10,3375_eid_s08_128-0-10_chair_10_n03376595_10945.JPEG
subject-08,3,816,0.748528003692627,truck,truck,8-0-10,3376_eid_s08_8-0-10_truck_10_n03417042_8297.JPEG
subject-08,3,817,0.732627868652344,knife,bottle,64-10-10,3377_eid_s08_64-10-10_bottle_10_n03937543_2973.JPEG
subject-08,3,818,1.06471109390259,knife,knife,2-10-10,3378_eid_s08_2-10-10_knife_10_n03041632_22051.JPEG
subject-08,3,819,0.956998825073242,chair,cat,1-0-10,3379_eid_s08_1-0-10_cat_10_n02123159_6596.JPEG
subject-08,3,820,1.0954749584198,elephant,dog,32-10-10,3380_eid_s08_32-10-10_dog_10_n02086079_10629.JPEG
subject-08,3,821,1.08728003501892,elephant,elephant,2-0-10,3381_eid_s08_2-0-10_elephant_10_n02504013_2125.JPEG
subject-08,3,822,0.887255907058716,truck,truck,2-0-10,3382_eid_s08_2-0-10_truck_10_n04467665_51054.JPEG
subject-08,3,823,1.01771688461304,bird,clock,32-3-10,3383_eid_s08_32-3-10_clock_10_n03196217_5645.JPEG
subject-08,3,824,0.879721879959106,boat,boat,128-10-10,3384_eid_s08_128-10-10_boat_10_n04612504_6308.JPEG
subject-08,3,825,1.15603518486023,dog,dog,4-3-10,3385_eid_s08_4-3-10_dog_10_n02101006_3422.JPEG
subject-08,3,826,1.15614604949951,car,clock,32-0-10,3386_eid_s08_32-0-10_clock_10_n02708093_643.JPEG
subject-08,3,827,0.748609066009521,bear,bird,32-0-10,3387_eid_s08_32-0-10_bird_10_n02056570_7734.JPEG
subject-08,3,828,0.849157810211182,airplane,bear,16-3-10,3388_eid_s08_16-3-10_bear_10_n02134084_15888.JPEG
subject-08,3,829,0.757338762283325,oven,oven,4-3-10,3389_eid_s08_4-3-10_oven_10_n04111531_9224.JPEG
subject-08,3,830,1.00410890579224,bear,bear,8-0-10,3390_eid_s08_8-0-10_bear_10_n02133161_1222.JPEG
subject-08,3,831,1.25035405158997,truck,truck,1-0-10,3391_eid_s08_1-0-10_truck_10_n03417042_7337.JPEG
subject-08,3,832,1.1271960735321,dog,dog,32-10-10,3392_eid_s08_32-10-10_dog_10_n02104029_5955.JPEG
subject-08,3,833,1.13504815101624,truck,truck,8-10-10,3393_eid_s08_8-10-10_truck_10_n03417042_2383.JPEG
subject-08,3,834,1.03548908233643,cat,bicycle,16-10-10,3394_eid_s08_16-10-10_bicycle_10_n02835271_508.JPEG
subject-08,3,835,0.638156175613403,boat,chair,32-0-10,3395_eid_s08_32-0-10_chair_10_n04429376_16677.JPEG
subject-08,3,836,1.33653593063354,elephant,elephant,16-10-10,3396_eid_s08_16-10-10_elephant_10_n02504458_7805.JPEG
subject-08,3,837,0.939383983612061,chair,chair,1-0-10,3397_eid_s08_1-0-10_chair_10_n04099969_13996.JPEG
subject-08,3,838,0.993831872940063,bear,bear,8-10-10,3398_eid_s08_8-10-10_bear_10_n02134084_1066.JPEG
subject-08,3,839,1.39415407180786,elephant,bear,16-0-10,3399_eid_s08_16-0-10_bear_10_n02134418_11602.JPEG
subject-08,3,840,0.902976989746094,car,chair,16-3-10,3400_eid_s08_16-3-10_chair_10_n03376595_11839.JPEG
subject-08,3,841,0.711461067199707,chair,chair,1-10-10,3401_eid_s08_1-10-10_chair_10_n04099969_18182.JPEG
subject-08,3,842,0.781720876693726,bicycle,bicycle,2-3-10,3402_eid_s08_2-3-10_bicycle_10_n03792782_50972.JPEG
subject-08,3,843,0.720313787460327,car,knife,64-0-10,3403_eid_s08_64-0-10_knife_10_n03041632_21560.JPEG
subject-08,3,844,NaN,na,boat,8-10-10,3404_eid_s08_8-10-10_boat_10_n03662601_3850.JPEG
subject-08,3,845,0.891535043716431,bear,bear,32-3-10,3405_eid_s08_32-3-10_bear_10_n02134418_5242.JPEG
subject-08,3,846,NaN,na,boat,2-0-10,3406_eid_s08_2-0-10_boat_10_n02951358_11395.JPEG
subject-08,3,847,0.776605844497681,car,cat,8-0-10,3407_eid_s08_8-0-10_cat_10_n02125311_30558.JPEG
subject-08,3,848,0.746831178665161,dog,dog,16-3-10,3408_eid_s08_16-3-10_dog_10_n02093647_1721.JPEG
subject-08,3,849,0.647634983062744,bird,bear,32-0-10,3409_eid_s08_32-0-10_bear_10_n02132136_10301.JPEG
subject-08,3,850,0.840283870697021,car,dog,32-3-10,3410_eid_s08_32-3-10_dog_10_n02095570_4661.JPEG
subject-08,3,851,0.942291021347046,elephant,elephant,4-10-10,3411_eid_s08_4-10-10_elephant_10_n02504458_11693.JPEG
subject-08,3,852,0.864615917205811,oven,oven,2-10-10,3412_eid_s08_2-10-10_oven_10_n04111531_82.JPEG
subject-08,3,853,0.880840063095093,truck,airplane,8-0-10,3413_eid_s08_8-0-10_airplane_10_n02690373_599.JPEG
subject-08,3,854,0.765321969985962,keyboard,elephant,8-0-10,3414_eid_s08_8-0-10_elephant_10_n02504458_2946.JPEG
subject-08,3,855,0.703346967697144,car,bird,4-0-10,3415_eid_s08_4-0-10_bird_10_n02007558_13680.JPEG
subject-08,3,856,0.565920114517212,cat,cat,1-10-10,3416_eid_s08_1-10-10_cat_10_n02124075_5643.JPEG
subject-08,3,857,0.812267065048218,bird,boat,64-0-10,3417_eid_s08_64-0-10_boat_10_n04273569_1423.JPEG
subject-08,3,858,1.21281385421753,airplane,airplane,4-3-10,3418_eid_s08_4-3-10_airplane_10_n02690373_1360.JPEG
subject-08,3,859,0.913145065307617,airplane,airplane,16-3-10,3419_eid_s08_16-3-10_airplane_10_n02690373_4964.JPEG
subject-08,3,860,0.914037942886353,chair,chair,1-10-10,3420_eid_s08_1-10-10_chair_10_n04099969_4194.JPEG
subject-08,3,861,0.698482036590576,bear,cat,32-3-10,3421_eid_s08_32-3-10_cat_10_n02123597_6904.JPEG
subject-08,3,862,0.798863172531128,bear,bird,16-3-10,3422_eid_s08_16-3-10_bird_10_n01614925_2677.JPEG
subject-08,3,863,0.983551025390625,cat,knife,4-3-10,3423_eid_s08_4-3-10_knife_10_n03041632_21345.JPEG
subject-08,3,864,0.732106924057007,car,chair,128-3-10,3424_eid_s08_128-3-10_chair_10_n04099969_10261.JPEG
subject-08,3,865,0.907186031341553,bird,bird,2-0-10,3425_eid_s08_2-0-10_bird_10_n02051845_11994.JPEG
subject-08,3,866,1.0458550453186,airplane,car,32-0-10,3426_eid_s08_32-0-10_car_10_n02814533_6424.JPEG
subject-08,3,867,0.800209045410156,cat,dog,8-3-10,3427_eid_s08_8-3-10_dog_10_n02106382_630.JPEG
subject-08,3,868,0.822851896286011,truck,clock,16-3-10,3428_eid_s08_16-3-10_clock_10_n03196217_6814.JPEG
subject-08,3,869,0.847478866577148,airplane,airplane,2-0-10,3429_eid_s08_2-0-10_airplane_10_n02690373_7046.JPEG
subject-08,3,870,1.45533108711243,clock,boat,4-10-10,3430_eid_s08_4-10-10_boat_10_n03662601_2793.JPEG
subject-08,3,871,1.0093879699707,cat,dog,128-10-10,3431_eid_s08_128-10-10_dog_10_n02088364_12852.JPEG
subject-08,3,872,0.823693037033081,car,chair,64-3-10,3432_eid_s08_64-3-10_chair_10_n03376595_1047.JPEG
subject-08,3,873,1.2538948059082,chair,clock,16-3-10,3433_eid_s08_16-3-10_clock_10_n03196217_3986.JPEG
subject-08,3,874,0.924422025680542,keyboard,bicycle,128-0-10,3434_eid_s08_128-0-10_bicycle_10_n03792782_24756.JPEG
subject-08,3,875,0.841130971908569,airplane,airplane,1-3-10,3435_eid_s08_1-3-10_airplane_10_n02690373_633.JPEG
subject-08,3,876,1.13809585571289,cat,elephant,128-10-10,3436_eid_s08_128-10-10_elephant_10_n02504458_3689.JPEG
subject-08,3,877,0.930414915084839,clock,clock,2-10-10,3437_eid_s08_2-10-10_clock_10_n04548280_3398.JPEG
subject-08,3,878,0.875184059143066,truck,dog,128-3-10,3438_eid_s08_128-3-10_dog_10_n02102480_14889.JPEG
subject-08,3,879,1.30523920059204,bear,oven,4-10-10,3439_eid_s08_4-10-10_oven_10_n04111531_6298.JPEG
subject-08,3,880,0.737681865692139,dog,dog,1-0-10,3440_eid_s08_1-0-10_dog_10_n02106030_889.JPEG
subject-08,3,881,0.852300882339478,bicycle,bicycle,4-0-10,3441_eid_s08_4-0-10_bicycle_10_n02835271_18222.JPEG
subject-08,3,882,0.935558080673218,airplane,knife,128-3-10,3442_eid_s08_128-3-10_knife_10_n03041632_52371.JPEG
subject-08,3,883,1.38214087486267,car,truck,4-3-10,3443_eid_s08_4-3-10_truck_10_n03417042_12031.JPEG
subject-08,3,884,0.584752082824707,boat,airplane,128-0-10,3444_eid_s08_128-0-10_airplane_10_n02690373_1023.JPEG
subject-08,3,885,1.22035598754883,airplane,bear,128-10-10,3445_eid_s08_128-10-10_bear_10_n02134084_5153.JPEG
subject-08,3,886,1.19904017448425,chair,oven,128-0-10,3446_eid_s08_128-0-10_oven_10_n04111531_7168.JPEG
subject-08,3,887,1.08367586135864,dog,bird,64-10-10,3447_eid_s08_64-10-10_bird_10_n02006656_1006.JPEG
subject-08,3,888,0.891835927963257,bicycle,bicycle,2-3-10,3448_eid_s08_2-3-10_bicycle_10_n02835271_2900.JPEG
subject-08,3,889,1.06262993812561,cat,bear,1-0-10,3449_eid_s08_1-0-10_bear_10_n02133161_4882.JPEG
subject-08,3,890,1.00898790359497,boat,boat,1-3-10,3450_eid_s08_1-3-10_boat_10_n03662601_3903.JPEG
subject-08,3,891,1.10137987136841,truck,bird,32-0-10,3451_eid_s08_32-0-10_bird_10_n02028035_5668.JPEG
subject-08,3,892,1.40185689926147,bottle,bottle,2-10-10,3452_eid_s08_2-10-10_bottle_10_n03983396_24004.JPEG
subject-08,3,893,1.38655591011047,car,car,1-10-10,3453_eid_s08_1-10-10_car_10_n04285008_3204.JPEG
subject-08,3,894,NaN,na,clock,4-3-10,3454_eid_s08_4-3-10_clock_10_n03196217_127.JPEG
subject-08,3,895,0.924983024597168,cat,cat,8-10-10,3455_eid_s08_8-10-10_cat_10_n02123159_5273.JPEG
subject-08,3,896,0.662948846817017,boat,truck,16-0-10,3456_eid_s08_16-0-10_truck_10_n04467665_49656.JPEG
subject-08,3,897,1.40157985687256,bird,oven,128-0-10,3457_eid_s08_128-0-10_oven_10_n04111531_14126.JPEG
subject-08,3,898,0.571942806243896,bicycle,bicycle,1-10-10,3458_eid_s08_1-10-10_bicycle_10_n03792782_5426.JPEG
subject-08,3,899,NaN,na,bear,8-0-10,3459_eid_s08_8-0-10_bear_10_n02134084_8842.JPEG
subject-08,3,900,1.00305819511414,truck,truck,1-10-10,3460_eid_s08_1-10-10_truck_10_n03417042_27907.JPEG
subject-08,3,901,1.5003879070282,cat,cat,2-3-10,3461_eid_s08_2-3-10_cat_10_n02123159_1868.JPEG
subject-08,3,902,0.774256944656372,keyboard,keyboard,2-3-10,3462_eid_s08_2-3-10_keyboard_10_n03085013_20424.JPEG
subject-08,3,903,0.758808135986328,car,elephant,128-0-10,3463_eid_s08_128-0-10_elephant_10_n02504013_7081.JPEG
subject-08,3,904,1.04275012016296,bottle,bottle,4-3-10,3464_eid_s08_4-3-10_bottle_10_n02823428_8217.JPEG
subject-08,3,905,0.758976936340332,airplane,knife,16-0-10,3465_eid_s08_16-0-10_knife_10_n03041632_25257.JPEG
subject-08,3,906,1.05084586143494,truck,boat,16-0-10,3466_eid_s08_16-0-10_boat_10_n03344393_5308.JPEG
subject-08,3,907,NaN,na,airplane,4-0-10,3467_eid_s08_4-0-10_airplane_10_n02690373_20242.JPEG
subject-08,3,908,0.781189918518066,chair,chair,4-0-10,3468_eid_s08_4-0-10_chair_10_n04429376_14691.JPEG
subject-08,3,909,0.987604856491089,bottle,bottle,1-0-10,3469_eid_s08_1-0-10_bottle_10_n04560804_7444.JPEG
subject-08,3,910,0.934393167495728,car,dog,64-3-10,3470_eid_s08_64-3-10_dog_10_n02093859_1518.JPEG
subject-08,3,911,0.91861891746521,chair,truck,4-0-10,3471_eid_s08_4-0-10_truck_10_n03796401_12606.JPEG
subject-08,3,912,0.489464998245239,bear,car,128-0-10,3472_eid_s08_128-0-10_car_10_n04285008_7322.JPEG
subject-08,3,913,1.473876953125,cat,cat,2-10-10,3473_eid_s08_2-10-10_cat_10_n02125311_5464.JPEG
subject-08,3,914,0.806496858596802,truck,truck,2-10-10,3474_eid_s08_2-10-10_truck_10_n04467665_3109.JPEG
subject-08,3,915,0.799073934555054,car,keyboard,64-0-10,3475_eid_s08_64-0-10_keyboard_10_n03085013_24217.JPEG
subject-08,3,916,1.17575883865356,chair,chair,8-10-10,3476_eid_s08_8-10-10_chair_10_n04099969_7545.JPEG
subject-08,3,917,0.646272897720337,cat,cat,2-10-10,3477_eid_s08_2-10-10_cat_10_n02123597_11037.JPEG
subject-08,3,918,0.746855020523071,airplane,clock,16-0-10,3478_eid_s08_16-0-10_clock_10_n04548280_82.JPEG
subject-08,3,919,0.701446056365967,keyboard,cat,64-10-10,3479_eid_s08_64-10-10_cat_10_n02125311_26486.JPEG
subject-08,3,920,1.09390592575073,oven,car,16-10-10,3480_eid_s08_16-10-10_car_10_n02814533_44090.JPEG
subject-08,3,921,0.916218996047974,car,airplane,128-10-10,3481_eid_s08_128-10-10_airplane_10_n02690373_4233.JPEG
subject-08,3,922,1.01098012924194,clock,clock,1-3-10,3482_eid_s08_1-3-10_clock_10_n03196217_3136.JPEG
subject-08,3,923,0.887150049209595,boat,bottle,128-10-10,3483_eid_s08_128-10-10_bottle_10_n04557648_77.JPEG
subject-08,3,924,0.947082996368408,knife,knife,2-10-10,3484_eid_s08_2-10-10_knife_10_n03041632_21425.JPEG
subject-08,3,925,0.979804992675781,truck,bear,128-10-10,3485_eid_s08_128-10-10_bear_10_n02134418_6037.JPEG
subject-08,3,926,0.858556032180786,bottle,chair,32-3-10,3486_eid_s08_32-3-10_chair_10_n04099969_17930.JPEG
subject-08,3,927,0.850950956344604,chair,chair,1-3-10,3487_eid_s08_1-3-10_chair_10_n02791124_5823.JPEG
subject-08,3,928,0.926960945129395,keyboard,keyboard,8-0-10,3488_eid_s08_8-0-10_keyboard_10_n03085013_3257.JPEG
subject-08,3,929,1.18122100830078,knife,bottle,32-10-10,3489_eid_s08_32-10-10_bottle_10_n04591713_2042.JPEG
subject-08,3,930,0.781867980957031,car,bottle,16-0-10,3490_eid_s08_16-0-10_bottle_10_n04591713_7080.JPEG
subject-08,3,931,0.850368976593018,bird,bird,2-10-10,3491_eid_s08_2-10-10_bird_10_n01601694_4084.JPEG
subject-08,3,932,0.812875986099243,airplane,boat,128-10-10,3492_eid_s08_128-10-10_boat_10_n03344393_7262.JPEG
subject-08,3,933,0.696785926818848,bear,elephant,4-0-10,3493_eid_s08_4-0-10_elephant_10_n02504013_22740.JPEG
subject-08,3,934,1.15154218673706,bottle,bottle,1-3-10,3494_eid_s08_1-3-10_bottle_10_n04557648_3624.JPEG
subject-08,3,935,0.78924298286438,car,boat,128-0-10,3495_eid_s08_128-0-10_boat_10_n02951358_8406.JPEG
subject-08,3,936,1.17725706100464,bear,bear,1-3-10,3496_eid_s08_1-3-10_bear_10_n02134084_32585.JPEG
subject-08,3,937,1.24522590637207,dog,dog,4-0-10,3497_eid_s08_4-0-10_dog_10_n02104365_482.JPEG
subject-08,3,938,0.767565965652466,keyboard,keyboard,1-10-10,3498_eid_s08_1-10-10_keyboard_10_n04505470_10419.JPEG
subject-08,3,939,0.976356029510498,bird,bird,4-3-10,3499_eid_s08_4-3-10_bird_10_n02025239_7359.JPEG
subject-08,3,940,1.06262707710266,cat,airplane,8-0-10,3500_eid_s08_8-0-10_airplane_10_n02690373_1426.JPEG
subject-08,3,941,0.931294918060303,car,dog,32-0-10,3501_eid_s08_32-0-10_dog_10_n02104365_3687.JPEG
subject-08,3,942,1.09366488456726,cat,clock,32-10-10,3502_eid_s08_32-10-10_clock_10_n03196217_1573.JPEG
subject-08,3,943,0.786303043365479,oven,oven,4-3-10,3503_eid_s08_4-3-10_oven_10_n04111531_8984.JPEG
subject-08,3,944,1.1240599155426,chair,chair,8-0-10,3504_eid_s08_8-0-10_chair_10_n04429376_10928.JPEG
subject-08,3,945,1.46258997917175,bear,bear,2-10-10,3505_eid_s08_2-10-10_bear_10_n02132136_2514.JPEG
subject-08,3,946,1.17099905014038,bird,boat,8-3-10,3506_eid_s08_8-3-10_boat_10_n04273569_18077.JPEG
subject-08,3,947,0.825469017028809,cat,bicycle,8-0-10,3507_eid_s08_8-0-10_bicycle_10_n03792782_2701.JPEG
subject-08,3,948,0.948150157928467,chair,chair,2-10-10,3508_eid_s08_2-10-10_chair_10_n02791124_6999.JPEG
subject-08,3,949,0.68887186050415,oven,oven,2-10-10,3509_eid_s08_2-10-10_oven_10_n04111531_6313.JPEG
subject-08,3,950,0.826936006546021,cat,bird,16-0-10,3510_eid_s08_16-0-10_bird_10_n01843383_6658.JPEG
subject-08,3,951,0.621511936187744,cat,cat,1-3-10,3511_eid_s08_1-3-10_cat_10_n02123045_3729.JPEG
subject-08,3,952,0.998507976531982,car,knife,32-0-10,3512_eid_s08_32-0-10_knife_10_n03041632_32774.JPEG
subject-08,3,953,0.866302967071533,bottle,bottle,1-10-10,3513_eid_s08_1-10-10_bottle_10_n03983396_13193.JPEG
subject-08,3,954,NaN,na,bear,1-3-10,3514_eid_s08_1-3-10_bear_10_n02132136_3361.JPEG
subject-08,3,955,0.91569185256958,truck,truck,2-3-10,3515_eid_s08_2-3-10_truck_10_n04467665_17283.JPEG
subject-08,3,956,1.19212508201599,keyboard,cat,128-10-10,3516_eid_s08_128-10-10_cat_10_n02123394_7392.JPEG
