subj,session,trial,rt,object_response,category,condition,imagename
subject-01,1,1,0.704178094863892,dog,dog,0,0001_org_s01_0_dog_00_dog5.png
subject-01,1,2,0.91608715057373,dog,dog,0,0002_org_s01_0_dog_00_dog8.png
subject-01,1,3,0.761077880859375,oven,oven,0,0003_org_s01_0_oven_00_oven10.png
subject-01,1,4,0.583366870880127,bottle,bottle,0,0004_org_s01_0_bottle_00_bottle5.png
subject-01,1,5,0.597075939178467,clock,clock,0,0005_org_s01_0_clock_00_clock4.png
subject-01,1,6,0.671197891235352,bicycle,bicycle,0,0006_org_s01_0_bicycle_00_bicycle9.png
subject-01,1,7,0.608543872833252,dog,dog,0,0007_org_s01_0_dog_00_dog10.png
subject-01,1,8,0.752839088439941,bottle,bottle,0,0008_org_s01_0_bottle_00_bottle10.png
subject-01,1,9,0.653022050857544,dog,dog,0,0009_org_s01_0_dog_00_dog1.png
subject-01,1,10,1.01313781738281,oven,oven,0,0010_org_s01_0_oven_00_oven2.png
subject-01,1,11,0.68976092338562,bear,bear,0,0011_org_s01_0_bear_00_bear9.png
subject-01,1,12,0.587491989135742,chair,chair,0,0012_org_s01_0_chair_00_chair4.png
subject-01,1,13,0.655132055282593,bear,bear,0,0013_org_s01_0_bear_00_bear5.png
subject-01,1,14,0.777430057525635,car,car,0,0014_org_s01_0_car_00_car6.png
subject-01,1,15,0.88261604309082,bicycle,bicycle,0,0015_org_s01_0_bicycle_00_bicycle4.png
subject-01,1,16,0.781147003173828,bird,bird,0,0016_org_s01_0_bird_00_bird1.png
subject-01,1,17,0.686926126480103,keyboard,keyboard,0,0017_org_s01_0_keyboard_00_keyboard8.png
subject-01,1,18,0.633247852325439,oven,oven,0,0018_org_s01_0_oven_00_oven7.png
subject-01,1,19,0.641613960266113,clock,clock,0,0019_org_s01_0_clock_00_clock8.png
subject-01,1,20,0.818322896957397,bear,bear,0,0020_org_s01_0_bear_00_bear6.png
subject-01,1,21,0.586901903152466,cat,cat,0,0021_org_s01_0_cat_00_cat5.png
subject-01,1,22,0.830596923828125,bear,bear,0,0022_org_s01_0_bear_00_bear8.png
subject-01,1,23,0.847177982330322,bear,bear,0,0023_org_s01_0_bear_00_bear2.png
subject-01,1,24,0.723187923431396,airplane,airplane,0,0024_org_s01_0_airplane_00_airplane9.png
subject-01,1,25,0.567502975463867,bird,bird,0,0025_org_s01_0_bird_00_bird10.png
subject-01,1,26,1.00351405143738,truck,truck,0,0026_org_s01_0_truck_00_truck10.png
subject-01,1,27,0.64994215965271,clock,clock,0,0027_org_s01_0_clock_00_clock7.png
subject-01,1,28,0.557938098907471,bottle,bottle,0,0028_org_s01_0_bottle_00_bottle6.png
subject-01,1,29,0.748466014862061,knife,knife,0,0029_org_s01_0_knife_00_knife10.png
subject-01,1,30,0.854692935943604,dog,dog,0,0030_org_s01_0_dog_00_dog4.png
subject-01,1,31,0.639387845993042,knife,knife,0,0031_org_s01_0_knife_00_knife6.png
subject-01,1,32,0.531350135803223,cat,cat,0,0032_org_s01_0_cat_00_cat8.png
subject-01,1,33,0.650506973266602,car,car,0,0033_org_s01_0_car_00_car1.png
subject-01,1,34,1.0267539024353,elephant,elephant,0,0034_org_s01_0_elephant_00_elephant5.png
subject-01,1,35,0.749284982681274,airplane,airplane,0,0035_org_s01_0_airplane_00_airplane2.png
subject-01,1,36,0.854691982269287,keyboard,keyboard,0,0036_org_s01_0_keyboard_00_keyboard3.png
subject-01,1,37,0.585418939590454,boat,boat,0,0037_org_s01_0_boat_00_boat5.png
subject-01,1,38,0.923408985137939,boat,boat,0,0038_org_s01_0_boat_00_boat2.png
subject-01,1,39,1.0594470500946,car,car,0,0039_org_s01_0_car_00_car9.png
subject-01,1,40,0.605648040771484,clock,clock,0,0040_org_s01_0_clock_00_clock1.png
subject-01,1,41,0.649827003479004,bicycle,bicycle,0,0041_org_s01_0_bicycle_00_bicycle6.png
subject-01,1,42,1.03427386283875,knife,knife,0,0042_org_s01_0_knife_00_knife8.png
subject-01,1,43,0.689028978347778,chair,chair,0,0043_org_s01_0_chair_00_chair2.png
subject-01,1,44,1.09527802467346,clock,clock,0,0044_org_s01_0_clock_00_clock6.png
subject-01,1,45,0.555798053741455,oven,oven,0,0045_org_s01_0_oven_00_oven6.png
subject-01,1,46,0.75621485710144,bird,bird,0,0046_org_s01_0_bird_00_bird6.png
subject-01,1,47,0.824678897857666,chair,chair,0,0047_org_s01_0_chair_00_chair10.png
subject-01,1,48,0.585188865661621,bicycle,bicycle,0,0048_org_s01_0_bicycle_00_bicycle2.png
subject-01,1,49,0.607162952423096,oven,oven,0,0049_org_s01_0_oven_00_oven3.png
subject-01,1,50,0.666486024856567,car,car,0,0050_org_s01_0_car_00_car7.png
subject-01,1,51,0.919296979904175,elephant,elephant,0,0051_org_s01_0_elephant_00_elephant4.png
subject-01,1,52,0.987764120101929,bear,bear,0,0052_org_s01_0_bear_00_bear10.png
subject-01,1,53,0.796236038208008,car,car,0,0053_org_s01_0_car_00_car5.png
subject-01,1,54,1.0698459148407,chair,chair,0,0054_org_s01_0_chair_00_chair5.png
subject-01,1,55,0.716032981872559,airplane,airplane,0,0055_org_s01_0_airplane_00_airplane6.png
subject-01,1,56,0.759702920913696,bicycle,bicycle,0,0056_org_s01_0_bicycle_00_bicycle7.png
subject-01,1,57,0.611884832382202,cat,cat,0,0057_org_s01_0_cat_00_cat6.png
subject-01,1,58,0.655662059783936,knife,knife,0,0058_org_s01_0_knife_00_knife9.png
subject-01,1,59,0.671702146530151,keyboard,keyboard,0,0059_org_s01_0_keyboard_00_keyboard6.png
subject-01,1,60,0.807662963867188,boat,boat,0,0060_org_s01_0_boat_00_boat10.png
subject-01,1,61,0.675970077514648,airplane,airplane,0,0061_org_s01_0_airplane_00_airplane4.png
subject-01,1,62,1.26546502113342,knife,knife,0,0062_org_s01_0_knife_00_knife5.png
subject-01,1,63,0.696083784103394,bird,bird,0,0063_org_s01_0_bird_00_bird2.png
subject-01,1,64,0.734289884567261,keyboard,keyboard,0,0064_org_s01_0_keyboard_00_keyboard7.png
subject-01,1,65,1.03507995605469,knife,knife,0,0065_org_s01_0_knife_00_knife2.png
subject-01,1,66,0.85730504989624,car,car,0,0066_org_s01_0_car_00_car8.png
subject-01,1,67,0.947400093078613,bear,bear,0,0067_org_s01_0_bear_00_bear1.png
subject-01,1,68,0.6858069896698,clock,clock,0,0068_org_s01_0_clock_00_clock5.png
subject-01,1,69,0.915977001190186,dog,dog,0,0069_org_s01_0_dog_00_dog9.png
subject-01,1,70,0.984509944915771,airplane,airplane,0,0070_org_s01_0_airplane_00_airplane1.png
subject-01,1,71,0.990638017654419,elephant,elephant,0,0071_org_s01_0_elephant_00_elephant9.png
subject-01,1,72,0.890992879867554,elephant,elephant,0,0072_org_s01_0_elephant_00_elephant10.png
subject-01,1,73,0.691511154174805,car,car,0,0073_org_s01_0_car_00_car4.png
subject-01,1,74,0.728280067443848,boat,boat,0,0074_org_s01_0_boat_00_boat4.png
subject-01,1,75,0.874073028564453,chair,chair,0,0075_org_s01_0_chair_00_chair6.png
subject-01,1,76,0.96683406829834,bicycle,bicycle,0,0076_org_s01_0_bicycle_00_bicycle8.png
subject-01,1,77,0.773209095001221,boat,boat,0,0077_org_s01_0_boat_00_boat1.png
subject-01,1,78,0.949788093566895,elephant,elephant,0,0078_org_s01_0_elephant_00_elephant2.png
subject-01,1,79,0.985922813415527,bicycle,bicycle,0,0079_org_s01_0_bicycle_00_bicycle5.png
subject-01,1,80,0.894199848175049,bicycle,bicycle,0,0080_org_s01_0_bicycle_00_bicycle3.png
subject-01,1,81,0.838963985443115,elephant,elephant,0,0081_org_s01_0_elephant_00_elephant7.png
subject-01,1,82,0.717448949813843,cat,cat,0,0082_org_s01_0_cat_00_cat9.png
subject-01,1,83,0.67787504196167,bird,bird,0,0083_org_s01_0_bird_00_bird9.png
subject-01,1,84,0.667155981063843,clock,clock,0,0084_org_s01_0_clock_00_clock3.png
subject-01,1,85,0.965273141860962,truck,truck,0,0085_org_s01_0_truck_00_truck6.png
subject-01,1,86,0.917380809783936,truck,truck,0,0086_org_s01_0_truck_00_truck5.png
subject-01,1,87,1.1258659362793,knife,knife,0,0087_org_s01_0_knife_00_knife4.png
subject-01,1,88,0.731763124465942,boat,boat,0,0088_org_s01_0_boat_00_boat7.png
subject-01,1,89,1.09203696250916,truck,truck,0,0089_org_s01_0_truck_00_truck2.png
subject-01,1,90,0.898230075836182,car,car,0,0090_org_s01_0_car_00_car10.png
subject-01,1,91,0.636583089828491,cat,cat,0,0091_org_s01_0_cat_00_cat3.png
subject-01,1,92,0.804450988769531,bird,bird,0,0092_org_s01_0_bird_00_bird3.png
subject-01,1,93,0.872932195663452,keyboard,keyboard,0,0093_org_s01_0_keyboard_00_keyboard1.png
subject-01,1,94,0.887141227722168,elephant,elephant,0,0094_org_s01_0_elephant_00_elephant8.png
subject-01,1,95,1.12373399734497,keyboard,keyboard,0,0095_org_s01_0_keyboard_00_keyboard5.png
subject-01,1,96,1.03201413154602,car,car,0,0096_org_s01_0_car_00_car2.png
subject-01,1,97,0.870434999465942,truck,truck,0,0097_org_s01_0_truck_00_truck8.png
subject-01,1,98,0.684567928314209,oven,oven,0,0098_org_s01_0_oven_00_oven8.png
subject-01,1,99,0.829092979431152,truck,truck,0,0099_org_s01_0_truck_00_truck3.png
subject-01,1,100,0.819702863693237,bottle,bottle,0,0100_org_s01_0_bottle_00_bottle3.png
subject-01,1,101,0.928067922592163,airplane,airplane,0,0101_org_s01_0_airplane_00_airplane5.png
subject-01,1,102,0.618726015090942,oven,oven,0,0102_org_s01_0_oven_00_oven9.png
subject-01,1,103,1.13280296325684,keyboard,keyboard,0,0103_org_s01_0_keyboard_00_keyboard4.png
subject-01,1,104,0.592987060546875,boat,boat,0,0104_org_s01_0_boat_00_boat9.png
subject-01,1,105,0.715469837188721,bird,bird,0,0105_org_s01_0_bird_00_bird5.png
subject-01,1,106,0.729637861251831,chair,chair,0,0106_org_s01_0_chair_00_chair1.png
subject-01,1,107,0.821930885314941,cat,cat,0,0107_org_s01_0_cat_00_cat7.png
subject-01,1,108,0.774286031723022,bird,bird,0,0108_org_s01_0_bird_00_bird4.png
subject-01,1,109,0.604622840881348,boat,boat,0,0109_org_s01_0_boat_00_boat6.png
subject-01,1,110,0.740850925445557,airplane,airplane,0,0110_org_s01_0_airplane_00_airplane7.png
subject-01,1,111,0.676837921142578,boat,boat,0,0111_org_s01_0_boat_00_boat3.png
subject-01,1,112,0.714277029037476,cat,cat,0,0112_org_s01_0_cat_00_cat1.png
subject-01,1,113,0.620796918869019,keyboard,keyboard,0,0113_org_s01_0_keyboard_00_keyboard2.png
subject-01,1,114,0.83543586730957,elephant,elephant,0,0114_org_s01_0_elephant_00_elephant1.png
subject-01,1,115,0.673893928527832,clock,clock,0,0115_org_s01_0_clock_00_clock10.png
subject-01,1,116,0.788453102111816,chair,chair,0,0116_org_s01_0_chair_00_chair3.png
subject-01,1,117,1.39293098449707,oven,oven,0,0117_org_s01_0_oven_00_oven4.png
subject-01,1,118,0.547060966491699,oven,oven,0,0118_org_s01_0_oven_00_oven5.png
subject-01,1,119,1.08325695991516,chair,chair,0,0119_org_s01_0_chair_00_chair9.png
subject-01,1,120,0.899617195129395,airplane,airplane,0,0120_org_s01_0_airplane_00_airplane8.png
subject-01,1,121,0.736294031143188,elephant,elephant,0,0121_org_s01_0_elephant_00_elephant3.png
subject-01,1,122,1.15879106521606,bear,bear,0,0122_org_s01_0_bear_00_bear3.png
subject-01,1,123,0.673033952713013,bottle,bottle,0,0123_org_s01_0_bottle_00_bottle9.png
subject-01,1,124,0.625277042388916,knife,knife,0,0124_org_s01_0_knife_00_knife7.png
subject-01,1,125,0.762752056121826,airplane,airplane,0,0125_org_s01_0_airplane_00_airplane3.png
subject-01,1,126,1.02336692810059,bear,bear,0,0126_org_s01_0_bear_00_bear7.png
subject-01,1,127,0.820924997329712,bird,bird,0,0127_org_s01_0_bird_00_bird8.png
subject-01,1,128,0.703703880310059,cat,cat,0,0128_org_s01_0_cat_00_cat2.png
subject-01,1,129,0.573966026306152,oven,oven,0,0129_org_s01_0_oven_00_oven1.png
subject-01,1,130,0.985635995864868,knife,knife,0,0130_org_s01_0_knife_00_knife3.png
subject-01,1,131,0.692279815673828,car,car,0,0131_org_s01_0_car_00_car3.png
subject-01,1,132,0.754572153091431,bottle,bottle,0,0132_org_s01_0_bottle_00_bottle4.png
subject-01,1,133,0.853162050247192,dog,dog,0,0133_org_s01_0_dog_00_dog7.png
subject-01,1,134,0.981527805328369,bottle,bottle,0,0134_org_s01_0_bottle_00_bottle1.png
subject-01,1,135,0.87401294708252,truck,truck,0,0135_org_s01_0_truck_00_truck7.png
subject-01,1,136,0.828715085983276,bottle,bottle,0,0136_org_s01_0_bottle_00_bottle8.png
subject-01,1,137,0.734782934188843,boat,boat,0,0137_org_s01_0_boat_00_boat8.png
subject-01,1,138,0.83306622505188,chair,chair,0,0138_org_s01_0_chair_00_chair8.png
subject-01,1,139,0.793162107467651,bicycle,bicycle,0,0139_org_s01_0_bicycle_00_bicycle10.png
subject-01,1,140,0.807000875473022,bottle,bottle,0,0140_org_s01_0_bottle_00_bottle7.png
subject-01,1,141,0.989674091339111,truck,truck,0,0141_org_s01_0_truck_00_truck4.png
subject-01,1,142,0.849825859069824,keyboard,keyboard,0,0142_org_s01_0_keyboard_00_keyboard9.png
subject-01,1,143,0.726492166519165,bird,bird,0,0143_org_s01_0_bird_00_bird7.png
subject-01,1,144,0.956831932067871,truck,truck,0,0144_org_s01_0_truck_00_truck1.png
subject-01,1,145,0.754893779754639,airplane,airplane,0,0145_org_s01_0_airplane_00_airplane10.png
subject-01,1,146,0.85369086265564,bottle,bottle,0,0146_org_s01_0_bottle_00_bottle2.png
subject-01,1,147,0.661993026733398,knife,knife,0,0147_org_s01_0_knife_00_knife1.png
subject-01,1,148,0.606303930282593,dog,dog,0,0148_org_s01_0_dog_00_dog3.png
subject-01,1,149,0.604518890380859,clock,clock,0,0149_org_s01_0_clock_00_clock9.png
subject-01,1,150,0.673115968704224,elephant,elephant,0,0150_org_s01_0_elephant_00_elephant6.png
subject-01,1,151,0.741461038589478,chair,chair,0,0151_org_s01_0_chair_00_chair7.png
subject-01,1,152,0.725929021835327,cat,cat,0,0152_org_s01_0_cat_00_cat4.png
subject-01,1,153,0.662268161773682,keyboard,keyboard,0,0153_org_s01_0_keyboard_00_keyboard10.png
subject-01,1,154,0.992732048034668,truck,truck,0,0154_org_s01_0_truck_00_truck9.png
subject-01,1,155,1.23741888999939,bicycle,bicycle,0,0155_org_s01_0_bicycle_00_bicycle1.png
subject-01,1,156,0.783452033996582,cat,cat,0,0156_org_s01_0_cat_00_cat10.png
subject-01,1,157,0.982105016708374,dog,dog,0,0157_org_s01_0_dog_00_dog6.png
subject-01,1,158,0.88056492805481,bear,bear,0,0158_org_s01_0_bear_00_bear4.png
subject-01,1,159,0.764662981033325,clock,clock,0,0159_org_s01_0_clock_00_clock2.png
subject-01,1,160,0.717142105102539,dog,dog,0,0160_org_s01_0_dog_00_dog2.png
