subj,session,trial,rt,object_response,category,condition,imagename
subject-03,1,1,0.769198894500732,cat,cat,0,0001_org_s03_0_cat_00_cat8.png
subject-03,1,2,0.791041135787964,bottle,bottle,0,0002_org_s03_0_bottle_00_bottle5.png
subject-03,1,3,0.78730297088623,knife,knife,0,0003_org_s03_0_knife_00_knife4.png
subject-03,1,4,0.577008008956909,dog,dog,0,0004_org_s03_0_dog_00_dog1.png
subject-03,1,5,0.718580961227417,car,car,0,0005_org_s03_0_car_00_car3.png
subject-03,1,6,0.875383853912354,dog,dog,0,0006_org_s03_0_dog_00_dog8.png
subject-03,1,7,0.657735109329224,bird,bird,0,0007_org_s03_0_bird_00_bird1.png
subject-03,1,8,0.609925031661987,elephant,elephant,0,0008_org_s03_0_elephant_00_elephant7.png
subject-03,1,9,0.721935033798218,elephant,elephant,0,0009_org_s03_0_elephant_00_elephant10.png
subject-03,1,10,1.13388109207153,bear,bear,0,0010_org_s03_0_bear_00_bear1.png
subject-03,1,11,0.808348894119263,airplane,airplane,0,0011_org_s03_0_airplane_00_airplane9.png
subject-03,1,12,0.844187021255493,keyboard,keyboard,0,0012_org_s03_0_keyboard_00_keyboard5.png
subject-03,1,13,0.666481018066406,cat,cat,0,0013_org_s03_0_cat_00_cat9.png
subject-03,1,14,0.686430931091309,knife,knife,0,0014_org_s03_0_knife_00_knife10.png
subject-03,1,15,0.914969921112061,bicycle,bicycle,0,0015_org_s03_0_bicycle_00_bicycle8.png
subject-03,1,16,0.734910011291504,cat,cat,0,0016_org_s03_0_cat_00_cat1.png
subject-03,1,17,0.549345016479492,clock,clock,0,0017_org_s03_0_clock_00_clock3.png
subject-03,1,18,0.769078016281128,elephant,elephant,0,0018_org_s03_0_elephant_00_elephant4.png
subject-03,1,19,1.16560792922974,knife,boat,0,0019_org_s03_0_boat_00_boat1.png
subject-03,1,20,0.796111822128296,truck,truck,0,0020_org_s03_0_truck_00_truck2.png
subject-03,1,21,1.26249504089355,boat,boat,0,0021_org_s03_0_boat_00_boat3.png
subject-03,1,22,0.636044979095459,bird,bird,0,0022_org_s03_0_bird_00_bird7.png
subject-03,1,23,0.826534032821655,airplane,airplane,0,0023_org_s03_0_airplane_00_airplane2.png
subject-03,1,24,0.600166082382202,cat,cat,0,0024_org_s03_0_cat_00_cat10.png
subject-03,1,25,0.666836023330688,cat,cat,0,0025_org_s03_0_cat_00_cat7.png
subject-03,1,26,0.681264877319336,dog,dog,0,0026_org_s03_0_dog_00_dog6.png
subject-03,1,27,0.633746147155762,clock,clock,0,0027_org_s03_0_clock_00_clock7.png
subject-03,1,28,1.0698561668396,knife,knife,0,0028_org_s03_0_knife_00_knife2.png
subject-03,1,29,0.830375909805298,clock,clock,0,0029_org_s03_0_clock_00_clock5.png
subject-03,1,30,1.04296612739563,truck,truck,0,0030_org_s03_0_truck_00_truck7.png
subject-03,1,31,1.31675601005554,chair,chair,0,0031_org_s03_0_chair_00_chair2.png
subject-03,1,32,0.6615149974823,car,car,0,0032_org_s03_0_car_00_car7.png
subject-03,1,33,0.859662055969238,chair,chair,0,0033_org_s03_0_chair_00_chair10.png
subject-03,1,34,0.804191112518311,keyboard,keyboard,0,0034_org_s03_0_keyboard_00_keyboard1.png
subject-03,1,35,0.814438819885254,bird,bird,0,0035_org_s03_0_bird_00_bird3.png
subject-03,1,36,0.597192049026489,cat,cat,0,0036_org_s03_0_cat_00_cat4.png
subject-03,1,37,0.717507123947144,airplane,airplane,0,0037_org_s03_0_airplane_00_airplane1.png
subject-03,1,38,0.953835010528564,bear,bear,0,0038_org_s03_0_bear_00_bear10.png
subject-03,1,39,1.19767117500305,truck,truck,0,0039_org_s03_0_truck_00_truck3.png
subject-03,1,40,0.934415817260742,elephant,elephant,0,0040_org_s03_0_elephant_00_elephant9.png
subject-03,1,41,0.800405979156494,dog,dog,0,0041_org_s03_0_dog_00_dog9.png
subject-03,1,42,0.782717943191528,oven,oven,0,0042_org_s03_0_oven_00_oven1.png
subject-03,1,43,0.973127841949463,dog,dog,0,0043_org_s03_0_dog_00_dog4.png
subject-03,1,44,1.13105607032776,truck,truck,0,0044_org_s03_0_truck_00_truck4.png
subject-03,1,45,0.707184076309204,truck,truck,0,0045_org_s03_0_truck_00_truck5.png
subject-03,1,46,0.681467056274414,oven,oven,0,0046_org_s03_0_oven_00_oven10.png
subject-03,1,47,0.701721906661987,bear,bear,0,0047_org_s03_0_bear_00_bear8.png
subject-03,1,48,0.929626941680908,chair,chair,0,0048_org_s03_0_chair_00_chair8.png
subject-03,1,49,0.720092058181763,cat,cat,0,0049_org_s03_0_cat_00_cat2.png
subject-03,1,50,0.824079990386963,dog,dog,0,0050_org_s03_0_dog_00_dog2.png
subject-03,1,51,0.592782974243164,clock,clock,0,0051_org_s03_0_clock_00_clock9.png
subject-03,1,52,0.858899831771851,clock,clock,0,0052_org_s03_0_clock_00_clock1.png
subject-03,1,53,0.887406826019287,bottle,bottle,0,0053_org_s03_0_bottle_00_bottle8.png
subject-03,1,54,0.901912927627563,bird,bird,0,0054_org_s03_0_bird_00_bird9.png
subject-03,1,55,0.739711046218872,bottle,bottle,0,0055_org_s03_0_bottle_00_bottle4.png
subject-03,1,56,0.746178865432739,oven,oven,0,0056_org_s03_0_oven_00_oven8.png
subject-03,1,57,0.844228982925415,keyboard,keyboard,0,0057_org_s03_0_keyboard_00_keyboard10.png
subject-03,1,58,0.886532068252563,truck,truck,0,0058_org_s03_0_truck_00_truck6.png
subject-03,1,59,0.670977115631104,cat,cat,0,0059_org_s03_0_cat_00_cat3.png
subject-03,1,60,0.621242046356201,chair,chair,0,0060_org_s03_0_chair_00_chair4.png
subject-03,1,61,0.789502143859863,knife,knife,0,0061_org_s03_0_knife_00_knife6.png
subject-03,1,62,0.885398149490356,oven,oven,0,0062_org_s03_0_oven_00_oven3.png
subject-03,1,63,0.767933130264282,oven,oven,0,0063_org_s03_0_oven_00_oven9.png
subject-03,1,64,0.924385070800781,dog,dog,0,0064_org_s03_0_dog_00_dog7.png
subject-03,1,65,0.576943874359131,airplane,airplane,0,0065_org_s03_0_airplane_00_airplane4.png
subject-03,1,66,0.76751708984375,car,car,0,0066_org_s03_0_car_00_car8.png
subject-03,1,67,0.763802051544189,bottle,bottle,0,0067_org_s03_0_bottle_00_bottle2.png
subject-03,1,68,0.707816123962402,clock,clock,0,0068_org_s03_0_clock_00_clock10.png
subject-03,1,69,1.01464605331421,elephant,elephant,0,0069_org_s03_0_elephant_00_elephant2.png
subject-03,1,70,0.818816184997559,keyboard,keyboard,0,0070_org_s03_0_keyboard_00_keyboard9.png
subject-03,1,71,0.779014825820923,chair,chair,0,0071_org_s03_0_chair_00_chair7.png
subject-03,1,72,0.95346212387085,car,car,0,0072_org_s03_0_car_00_car9.png
subject-03,1,73,0.559980869293213,oven,oven,0,0073_org_s03_0_oven_00_oven4.png
subject-03,1,74,0.656416893005371,bottle,bottle,0,0074_org_s03_0_bottle_00_bottle10.png
subject-03,1,75,0.984658002853394,chair,oven,0,0075_org_s03_0_oven_00_oven7.png
subject-03,1,76,0.698517084121704,cat,cat,0,0076_org_s03_0_cat_00_cat6.png
subject-03,1,77,0.680954933166504,chair,chair,0,0077_org_s03_0_chair_00_chair1.png
subject-03,1,78,0.655732154846191,bicycle,bicycle,0,0078_org_s03_0_bicycle_00_bicycle10.png
subject-03,1,79,0.99197793006897,car,car,0,0079_org_s03_0_car_00_car10.png
subject-03,1,80,0.676372051239014,chair,chair,0,0080_org_s03_0_chair_00_chair3.png
subject-03,1,81,0.812937021255493,keyboard,keyboard,0,0081_org_s03_0_keyboard_00_keyboard8.png
subject-03,1,82,0.817839860916138,dog,dog,0,0082_org_s03_0_dog_00_dog10.png
subject-03,1,83,0.808331966400146,bottle,bottle,0,0083_org_s03_0_bottle_00_bottle1.png
subject-03,1,84,0.907279968261719,car,car,0,0084_org_s03_0_car_00_car2.png
subject-03,1,85,0.621542930603027,keyboard,keyboard,0,0085_org_s03_0_keyboard_00_keyboard2.png
subject-03,1,86,1.04203605651855,elephant,elephant,0,0086_org_s03_0_elephant_00_elephant8.png
subject-03,1,87,0.91654109954834,bear,bear,0,0087_org_s03_0_bear_00_bear4.png
subject-03,1,88,1.50018405914307,chair,chair,0,0088_org_s03_0_chair_00_chair6.png
subject-03,1,89,0.843208789825439,cat,cat,0,0089_org_s03_0_cat_00_cat5.png
subject-03,1,90,0.803324937820435,bear,bear,0,0090_org_s03_0_bear_00_bear3.png
subject-03,1,91,1.03182697296143,bear,bear,0,0091_org_s03_0_bear_00_bear5.png
subject-03,1,92,0.814576148986816,airplane,airplane,0,0092_org_s03_0_airplane_00_airplane7.png
subject-03,1,93,0.918952941894531,car,car,0,0093_org_s03_0_car_00_car4.png
subject-03,1,94,NaN,na,bear,0,0094_org_s03_0_bear_00_bear9.png
subject-03,1,95,1.09071493148804,knife,boat,0,0095_org_s03_0_boat_00_boat4.png
subject-03,1,96,0.635296106338501,bird,bird,0,0096_org_s03_0_bird_00_bird5.png
subject-03,1,97,0.817042827606201,bottle,bottle,0,0097_org_s03_0_bottle_00_bottle6.png
subject-03,1,98,0.853548049926758,airplane,airplane,0,0098_org_s03_0_airplane_00_airplane6.png
subject-03,1,99,0.844265937805176,bottle,bottle,0,0099_org_s03_0_bottle_00_bottle9.png
subject-03,1,100,0.840779066085815,bear,bear,0,0100_org_s03_0_bear_00_bear2.png
subject-03,1,101,0.777320861816406,keyboard,keyboard,0,0101_org_s03_0_keyboard_00_keyboard4.png
subject-03,1,102,0.799635887145996,knife,knife,0,0102_org_s03_0_knife_00_knife1.png
subject-03,1,103,0.682179927825928,boat,boat,0,0103_org_s03_0_boat_00_boat9.png
subject-03,1,104,0.860576152801514,knife,knife,0,0104_org_s03_0_knife_00_knife5.png
subject-03,1,105,0.713217973709106,bicycle,bicycle,0,0105_org_s03_0_bicycle_00_bicycle5.png
subject-03,1,106,0.971687078475952,boat,boat,0,0106_org_s03_0_boat_00_boat10.png
subject-03,1,107,0.970093965530396,knife,knife,0,0107_org_s03_0_knife_00_knife8.png
subject-03,1,108,0.966691017150879,bird,bird,0,0108_org_s03_0_bird_00_bird8.png
subject-03,1,109,1.28604578971863,truck,truck,0,0109_org_s03_0_truck_00_truck10.png
subject-03,1,110,0.846639156341553,boat,boat,0,0110_org_s03_0_boat_00_boat2.png
subject-03,1,111,0.699120044708252,airplane,airplane,0,0111_org_s03_0_airplane_00_airplane8.png
subject-03,1,112,0.924803018569946,bird,bird,0,0112_org_s03_0_bird_00_bird2.png
subject-03,1,113,0.639358997344971,keyboard,keyboard,0,0113_org_s03_0_keyboard_00_keyboard6.png
subject-03,1,114,0.975923776626587,truck,truck,0,0114_org_s03_0_truck_00_truck1.png
subject-03,1,115,0.782508850097656,chair,chair,0,0115_org_s03_0_chair_00_chair9.png
subject-03,1,116,0.816590070724487,airplane,airplane,0,0116_org_s03_0_airplane_00_airplane10.png
subject-03,1,117,0.89924693107605,dog,dog,0,0117_org_s03_0_dog_00_dog5.png
subject-03,1,118,0.713633060455322,truck,truck,0,0118_org_s03_0_truck_00_truck8.png
subject-03,1,119,0.971930027008057,car,car,0,0119_org_s03_0_car_00_car5.png
subject-03,1,120,1.2544150352478,bicycle,bicycle,0,0120_org_s03_0_bicycle_00_bicycle2.png
subject-03,1,121,0.785128831863403,chair,chair,0,0121_org_s03_0_chair_00_chair5.png
subject-03,1,122,0.781213998794556,boat,boat,0,0122_org_s03_0_boat_00_boat6.png
subject-03,1,123,0.879638910293579,bird,bird,0,0123_org_s03_0_bird_00_bird10.png
subject-03,1,124,0.72338604927063,elephant,elephant,0,0124_org_s03_0_elephant_00_elephant3.png
subject-03,1,125,0.873889207839966,knife,knife,0,0125_org_s03_0_knife_00_knife9.png
subject-03,1,126,0.96419095993042,knife,knife,0,0126_org_s03_0_knife_00_knife7.png
subject-03,1,127,0.778702974319458,dog,dog,0,0127_org_s03_0_dog_00_dog3.png
subject-03,1,128,0.720776081085205,knife,knife,0,0128_org_s03_0_knife_00_knife3.png
subject-03,1,129,0.711179971694946,bottle,bottle,0,0129_org_s03_0_bottle_00_bottle7.png
subject-03,1,130,1.10983610153198,bottle,bottle,0,0130_org_s03_0_bottle_00_bottle3.png
subject-03,1,131,0.906044006347656,bicycle,bicycle,0,0131_org_s03_0_bicycle_00_bicycle4.png
subject-03,1,132,1.00480985641479,bear,bear,0,0132_org_s03_0_bear_00_bear7.png
subject-03,1,133,0.92406702041626,keyboard,keyboard,0,0133_org_s03_0_keyboard_00_keyboard7.png
subject-03,1,134,0.876677989959717,car,car,0,0134_org_s03_0_car_00_car6.png
subject-03,1,135,0.928674936294556,elephant,elephant,0,0135_org_s03_0_elephant_00_elephant5.png
subject-03,1,136,1.2712140083313,oven,oven,0,0136_org_s03_0_oven_00_oven2.png
subject-03,1,137,0.579809904098511,clock,clock,0,0137_org_s03_0_clock_00_clock4.png
subject-03,1,138,0.699776172637939,oven,oven,0,0138_org_s03_0_oven_00_oven5.png
subject-03,1,139,0.842486143112183,clock,clock,0,0139_org_s03_0_clock_00_clock2.png
subject-03,1,140,0.878972053527832,bicycle,bicycle,0,0140_org_s03_0_bicycle_00_bicycle3.png
subject-03,1,141,0.907538890838623,bird,bird,0,0141_org_s03_0_bird_00_bird6.png
subject-03,1,142,0.759776830673218,keyboard,keyboard,0,0142_org_s03_0_keyboard_00_keyboard3.png
subject-03,1,143,0.882323980331421,clock,clock,0,0143_org_s03_0_clock_00_clock8.png
subject-03,1,144,1.20285320281982,airplane,airplane,0,0144_org_s03_0_airplane_00_airplane5.png
subject-03,1,145,0.961472034454346,elephant,elephant,0,0145_org_s03_0_elephant_00_elephant6.png
subject-03,1,146,0.70601487159729,boat,boat,0,0146_org_s03_0_boat_00_boat5.png
subject-03,1,147,1.15018892288208,bird,bear,0,0147_org_s03_0_bear_00_bear6.png
subject-03,1,148,1.09451985359192,boat,boat,0,0148_org_s03_0_boat_00_boat8.png
subject-03,1,149,1.19904899597168,bird,bird,0,0149_org_s03_0_bird_00_bird4.png
subject-03,1,150,0.799259901046753,airplane,airplane,0,0150_org_s03_0_airplane_00_airplane3.png
subject-03,1,151,0.927891969680786,oven,oven,0,0151_org_s03_0_oven_00_oven6.png
subject-03,1,152,0.610464096069336,boat,boat,0,0152_org_s03_0_boat_00_boat7.png
subject-03,1,153,0.843044996261597,car,car,0,0153_org_s03_0_car_00_car1.png
subject-03,1,154,1.21715402603149,elephant,elephant,0,0154_org_s03_0_elephant_00_elephant1.png
subject-03,1,155,0.9912428855896,bicycle,bicycle,0,0155_org_s03_0_bicycle_00_bicycle7.png
subject-03,1,156,1.04354095458984,clock,clock,0,0156_org_s03_0_clock_00_clock6.png
subject-03,1,157,0.771928787231445,bicycle,bicycle,0,0157_org_s03_0_bicycle_00_bicycle9.png
subject-03,1,158,0.662258863449097,bicycle,bicycle,0,0158_org_s03_0_bicycle_00_bicycle1.png
subject-03,1,159,1.09835386276245,truck,truck,0,0159_org_s03_0_truck_00_truck9.png
subject-03,1,160,0.772930860519409,bicycle,bicycle,0,0160_org_s03_0_bicycle_00_bicycle6.png
