subj,session,trial,rt,object_response,category,condition,imagename
alexnet,1,1,NaN,airplane,airplane,0,0001_org_dnn_0_airplane_00_airplane1.png
alexnet,1,2,NaN,airplane,airplane,0,0002_org_dnn_0_airplane_00_airplane10.png
alexnet,1,3,NaN,airplane,airplane,0,0003_org_dnn_0_airplane_00_airplane2.png
alexnet,1,4,NaN,airplane,airplane,0,0004_org_dnn_0_airplane_00_airplane3.png
alexnet,1,5,NaN,airplane,airplane,0,0005_org_dnn_0_airplane_00_airplane4.png
alexnet,1,6,NaN,airplane,airplane,0,0006_org_dnn_0_airplane_00_airplane5.png
alexnet,1,7,NaN,airplane,airplane,0,0007_org_dnn_0_airplane_00_airplane6.png
alexnet,1,8,NaN,airplane,airplane,0,0008_org_dnn_0_airplane_00_airplane7.png
alexnet,1,9,NaN,airplane,airplane,0,0009_org_dnn_0_airplane_00_airplane8.png
alexnet,1,10,NaN,airplane,airplane,0,0010_org_dnn_0_airplane_00_airplane9.png
alexnet,1,11,NaN,bear,bear,0,0011_org_dnn_0_bear_00_bear1.png
alexnet,1,12,NaN,bear,bear,0,0012_org_dnn_0_bear_00_bear10.png
alexnet,1,13,NaN,bear,bear,0,0013_org_dnn_0_bear_00_bear2.png
alexnet,1,14,NaN,bear,bear,0,0014_org_dnn_0_bear_00_bear3.png
alexnet,1,15,NaN,bear,bear,0,0015_org_dnn_0_bear_00_bear4.png
alexnet,1,16,NaN,bear,bear,0,0016_org_dnn_0_bear_00_bear5.png
alexnet,1,17,NaN,bear,bear,0,0017_org_dnn_0_bear_00_bear6.png
alexnet,1,18,NaN,bear,bear,0,0018_org_dnn_0_bear_00_bear7.png
alexnet,1,19,NaN,bear,bear,0,0019_org_dnn_0_bear_00_bear8.png
alexnet,1,20,NaN,bear,bear,0,0020_org_dnn_0_bear_00_bear9.png
alexnet,1,21,NaN,bicycle,bicycle,0,0021_org_dnn_0_bicycle_00_bicycle1.png
alexnet,1,22,NaN,bicycle,bicycle,0,0022_org_dnn_0_bicycle_00_bicycle10.png
alexnet,1,23,NaN,bicycle,bicycle,0,0023_org_dnn_0_bicycle_00_bicycle2.png
alexnet,1,24,NaN,bicycle,bicycle,0,0024_org_dnn_0_bicycle_00_bicycle3.png
alexnet,1,25,NaN,bicycle,bicycle,0,0025_org_dnn_0_bicycle_00_bicycle4.png
alexnet,1,26,NaN,bicycle,bicycle,0,0026_org_dnn_0_bicycle_00_bicycle5.png
alexnet,1,27,NaN,bicycle,bicycle,0,0027_org_dnn_0_bicycle_00_bicycle6.png
alexnet,1,28,NaN,bicycle,bicycle,0,0028_org_dnn_0_bicycle_00_bicycle7.png
alexnet,1,29,NaN,bicycle,bicycle,0,0029_org_dnn_0_bicycle_00_bicycle8.png
alexnet,1,30,NaN,bicycle,bicycle,0,0030_org_dnn_0_bicycle_00_bicycle9.png
alexnet,1,31,NaN,bird,bird,0,0031_org_dnn_0_bird_00_bird1.png
alexnet,1,32,NaN,bird,bird,0,0032_org_dnn_0_bird_00_bird10.png
alexnet,1,33,NaN,bird,bird,0,0033_org_dnn_0_bird_00_bird2.png
alexnet,1,34,NaN,bird,bird,0,0034_org_dnn_0_bird_00_bird3.png
alexnet,1,35,NaN,bird,bird,0,0035_org_dnn_0_bird_00_bird4.png
alexnet,1,36,NaN,bird,bird,0,0036_org_dnn_0_bird_00_bird5.png
alexnet,1,37,NaN,bird,bird,0,0037_org_dnn_0_bird_00_bird6.png
alexnet,1,38,NaN,bird,bird,0,0038_org_dnn_0_bird_00_bird7.png
alexnet,1,39,NaN,bird,bird,0,0039_org_dnn_0_bird_00_bird8.png
alexnet,1,40,NaN,bird,bird,0,0040_org_dnn_0_bird_00_bird9.png
alexnet,1,41,NaN,boat,boat,0,0041_org_dnn_0_boat_00_boat1.png
alexnet,1,42,NaN,boat,boat,0,0042_org_dnn_0_boat_00_boat10.png
alexnet,1,43,NaN,boat,boat,0,0043_org_dnn_0_boat_00_boat2.png
alexnet,1,44,NaN,boat,boat,0,0044_org_dnn_0_boat_00_boat3.png
alexnet,1,45,NaN,boat,boat,0,0045_org_dnn_0_boat_00_boat4.png
alexnet,1,46,NaN,boat,boat,0,0046_org_dnn_0_boat_00_boat5.png
alexnet,1,47,NaN,boat,boat,0,0047_org_dnn_0_boat_00_boat6.png
alexnet,1,48,NaN,boat,boat,0,0048_org_dnn_0_boat_00_boat7.png
alexnet,1,49,NaN,boat,boat,0,0049_org_dnn_0_boat_00_boat8.png
alexnet,1,50,NaN,boat,boat,0,0050_org_dnn_0_boat_00_boat9.png
alexnet,1,51,NaN,bottle,bottle,0,0051_org_dnn_0_bottle_00_bottle1.png
alexnet,1,52,NaN,bottle,bottle,0,0052_org_dnn_0_bottle_00_bottle10.png
alexnet,1,53,NaN,bottle,bottle,0,0053_org_dnn_0_bottle_00_bottle2.png
alexnet,1,54,NaN,bottle,bottle,0,0054_org_dnn_0_bottle_00_bottle3.png
alexnet,1,55,NaN,bottle,bottle,0,0055_org_dnn_0_bottle_00_bottle4.png
alexnet,1,56,NaN,bottle,bottle,0,0056_org_dnn_0_bottle_00_bottle5.png
alexnet,1,57,NaN,bottle,bottle,0,0057_org_dnn_0_bottle_00_bottle6.png
alexnet,1,58,NaN,bottle,bottle,0,0058_org_dnn_0_bottle_00_bottle7.png
alexnet,1,59,NaN,bottle,bottle,0,0059_org_dnn_0_bottle_00_bottle8.png
alexnet,1,60,NaN,bottle,bottle,0,0060_org_dnn_0_bottle_00_bottle9.png
alexnet,1,61,NaN,car,car,0,0061_org_dnn_0_car_00_car1.png
alexnet,1,62,NaN,car,car,0,0062_org_dnn_0_car_00_car10.png
alexnet,1,63,NaN,car,car,0,0063_org_dnn_0_car_00_car2.png
alexnet,1,64,NaN,car,car,0,0064_org_dnn_0_car_00_car3.png
alexnet,1,65,NaN,car,car,0,0065_org_dnn_0_car_00_car4.png
alexnet,1,66,NaN,car,car,0,0066_org_dnn_0_car_00_car5.png
alexnet,1,67,NaN,car,car,0,0067_org_dnn_0_car_00_car6.png
alexnet,1,68,NaN,car,car,0,0068_org_dnn_0_car_00_car7.png
alexnet,1,69,NaN,car,car,0,0069_org_dnn_0_car_00_car8.png
alexnet,1,70,NaN,car,car,0,0070_org_dnn_0_car_00_car9.png
alexnet,1,71,NaN,cat,cat,0,0071_org_dnn_0_cat_00_cat1.png
alexnet,1,72,NaN,cat,cat,0,0072_org_dnn_0_cat_00_cat10.png
alexnet,1,73,NaN,cat,cat,0,0073_org_dnn_0_cat_00_cat2.png
alexnet,1,74,NaN,cat,cat,0,0074_org_dnn_0_cat_00_cat3.png
alexnet,1,75,NaN,cat,cat,0,0075_org_dnn_0_cat_00_cat4.png
alexnet,1,76,NaN,cat,cat,0,0076_org_dnn_0_cat_00_cat5.png
alexnet,1,77,NaN,cat,cat,0,0077_org_dnn_0_cat_00_cat6.png
alexnet,1,78,NaN,cat,cat,0,0078_org_dnn_0_cat_00_cat7.png
alexnet,1,79,NaN,cat,cat,0,0079_org_dnn_0_cat_00_cat8.png
alexnet,1,80,NaN,cat,cat,0,0080_org_dnn_0_cat_00_cat9.png
alexnet,1,81,NaN,chair,chair,0,0081_org_dnn_0_chair_00_chair1.png
alexnet,1,82,NaN,chair,chair,0,0082_org_dnn_0_chair_00_chair10.png
alexnet,1,83,NaN,chair,chair,0,0083_org_dnn_0_chair_00_chair2.png
alexnet,1,84,NaN,chair,chair,0,0084_org_dnn_0_chair_00_chair3.png
alexnet,1,85,NaN,chair,chair,0,0085_org_dnn_0_chair_00_chair4.png
alexnet,1,86,NaN,chair,chair,0,0086_org_dnn_0_chair_00_chair5.png
alexnet,1,87,NaN,chair,chair,0,0087_org_dnn_0_chair_00_chair6.png
alexnet,1,88,NaN,chair,chair,0,0088_org_dnn_0_chair_00_chair7.png
alexnet,1,89,NaN,chair,chair,0,0089_org_dnn_0_chair_00_chair8.png
alexnet,1,90,NaN,chair,chair,0,0090_org_dnn_0_chair_00_chair9.png
alexnet,1,91,NaN,clock,clock,0,0091_org_dnn_0_clock_00_clock1.png
alexnet,1,92,NaN,clock,clock,0,0092_org_dnn_0_clock_00_clock10.png
alexnet,1,93,NaN,clock,clock,0,0093_org_dnn_0_clock_00_clock2.png
alexnet,1,94,NaN,clock,clock,0,0094_org_dnn_0_clock_00_clock3.png
alexnet,1,95,NaN,clock,clock,0,0095_org_dnn_0_clock_00_clock4.png
alexnet,1,96,NaN,clock,clock,0,0096_org_dnn_0_clock_00_clock5.png
alexnet,1,97,NaN,clock,clock,0,0097_org_dnn_0_clock_00_clock6.png
alexnet,1,98,NaN,clock,clock,0,0098_org_dnn_0_clock_00_clock7.png
alexnet,1,99,NaN,clock,clock,0,0099_org_dnn_0_clock_00_clock8.png
alexnet,1,100,NaN,clock,clock,0,0100_org_dnn_0_clock_00_clock9.png
alexnet,1,101,NaN,dog,dog,0,0101_org_dnn_0_dog_00_dog1.png
alexnet,1,102,NaN,dog,dog,0,0102_org_dnn_0_dog_00_dog10.png
alexnet,1,103,NaN,dog,dog,0,0103_org_dnn_0_dog_00_dog2.png
alexnet,1,104,NaN,dog,dog,0,0104_org_dnn_0_dog_00_dog3.png
alexnet,1,105,NaN,dog,dog,0,0105_org_dnn_0_dog_00_dog4.png
alexnet,1,106,NaN,dog,dog,0,0106_org_dnn_0_dog_00_dog5.png
alexnet,1,107,NaN,dog,dog,0,0107_org_dnn_0_dog_00_dog6.png
alexnet,1,108,NaN,dog,dog,0,0108_org_dnn_0_dog_00_dog7.png
alexnet,1,109,NaN,dog,dog,0,0109_org_dnn_0_dog_00_dog8.png
alexnet,1,110,NaN,dog,dog,0,0110_org_dnn_0_dog_00_dog9.png
alexnet,1,111,NaN,elephant,elephant,0,0111_org_dnn_0_elephant_00_elephant1.png
alexnet,1,112,NaN,elephant,elephant,0,0112_org_dnn_0_elephant_00_elephant10.png
alexnet,1,113,NaN,elephant,elephant,0,0113_org_dnn_0_elephant_00_elephant2.png
alexnet,1,114,NaN,elephant,elephant,0,0114_org_dnn_0_elephant_00_elephant3.png
alexnet,1,115,NaN,elephant,elephant,0,0115_org_dnn_0_elephant_00_elephant4.png
alexnet,1,116,NaN,elephant,elephant,0,0116_org_dnn_0_elephant_00_elephant5.png
alexnet,1,117,NaN,elephant,elephant,0,0117_org_dnn_0_elephant_00_elephant6.png
alexnet,1,118,NaN,elephant,elephant,0,0118_org_dnn_0_elephant_00_elephant7.png
alexnet,1,119,NaN,elephant,elephant,0,0119_org_dnn_0_elephant_00_elephant8.png
alexnet,1,120,NaN,elephant,elephant,0,0120_org_dnn_0_elephant_00_elephant9.png
alexnet,1,121,NaN,keyboard,keyboard,0,0121_org_dnn_0_keyboard_00_keyboard1.png
alexnet,1,122,NaN,keyboard,keyboard,0,0122_org_dnn_0_keyboard_00_keyboard10.png
alexnet,1,123,NaN,keyboard,keyboard,0,0123_org_dnn_0_keyboard_00_keyboard2.png
alexnet,1,124,NaN,keyboard,keyboard,0,0124_org_dnn_0_keyboard_00_keyboard3.png
alexnet,1,125,NaN,keyboard,keyboard,0,0125_org_dnn_0_keyboard_00_keyboard4.png
alexnet,1,126,NaN,keyboard,keyboard,0,0126_org_dnn_0_keyboard_00_keyboard5.png
alexnet,1,127,NaN,keyboard,keyboard,0,0127_org_dnn_0_keyboard_00_keyboard6.png
alexnet,1,128,NaN,keyboard,keyboard,0,0128_org_dnn_0_keyboard_00_keyboard7.png
alexnet,1,129,NaN,keyboard,keyboard,0,0129_org_dnn_0_keyboard_00_keyboard8.png
alexnet,1,130,NaN,keyboard,keyboard,0,0130_org_dnn_0_keyboard_00_keyboard9.png
alexnet,1,131,NaN,knife,knife,0,0131_org_dnn_0_knife_00_knife1.png
alexnet,1,132,NaN,knife,knife,0,0132_org_dnn_0_knife_00_knife10.png
alexnet,1,133,NaN,knife,knife,0,0133_org_dnn_0_knife_00_knife2.png
alexnet,1,134,NaN,knife,knife,0,0134_org_dnn_0_knife_00_knife3.png
alexnet,1,135,NaN,knife,knife,0,0135_org_dnn_0_knife_00_knife4.png
alexnet,1,136,NaN,knife,knife,0,0136_org_dnn_0_knife_00_knife5.png
alexnet,1,137,NaN,knife,knife,0,0137_org_dnn_0_knife_00_knife6.png
alexnet,1,138,NaN,knife,knife,0,0138_org_dnn_0_knife_00_knife7.png
alexnet,1,139,NaN,knife,knife,0,0139_org_dnn_0_knife_00_knife8.png
alexnet,1,140,NaN,knife,knife,0,0140_org_dnn_0_knife_00_knife9.png
alexnet,1,141,NaN,oven,oven,0,0141_org_dnn_0_oven_00_oven1.png
alexnet,1,142,NaN,oven,oven,0,0142_org_dnn_0_oven_00_oven10.png
alexnet,1,143,NaN,oven,oven,0,0143_org_dnn_0_oven_00_oven2.png
alexnet,1,144,NaN,oven,oven,0,0144_org_dnn_0_oven_00_oven3.png
alexnet,1,145,NaN,oven,oven,0,0145_org_dnn_0_oven_00_oven4.png
alexnet,1,146,NaN,oven,oven,0,0146_org_dnn_0_oven_00_oven5.png
alexnet,1,147,NaN,oven,oven,0,0147_org_dnn_0_oven_00_oven6.png
alexnet,1,148,NaN,oven,oven,0,0148_org_dnn_0_oven_00_oven7.png
alexnet,1,149,NaN,oven,oven,0,0149_org_dnn_0_oven_00_oven8.png
alexnet,1,150,NaN,oven,oven,0,0150_org_dnn_0_oven_00_oven9.png
alexnet,1,151,NaN,truck,truck,0,0151_org_dnn_0_truck_00_truck1.png
alexnet,1,152,NaN,truck,truck,0,0152_org_dnn_0_truck_00_truck10.png
alexnet,1,153,NaN,truck,truck,0,0153_org_dnn_0_truck_00_truck2.png
alexnet,1,154,NaN,truck,truck,0,0154_org_dnn_0_truck_00_truck3.png
alexnet,1,155,NaN,truck,truck,0,0155_org_dnn_0_truck_00_truck4.png
alexnet,1,156,NaN,truck,truck,0,0156_org_dnn_0_truck_00_truck5.png
alexnet,1,157,NaN,truck,truck,0,0157_org_dnn_0_truck_00_truck6.png
alexnet,1,158,NaN,truck,truck,0,0158_org_dnn_0_truck_00_truck7.png
alexnet,1,159,NaN,truck,truck,0,0159_org_dnn_0_truck_00_truck8.png
alexnet,1,160,NaN,truck,truck,0,0160_org_dnn_0_truck_00_truck9.png
