subj,session,trial,rt,object_response,category,condition,imagename
subject-05,1,1,0.584974050521851,keyboard,keyboard,30,0001_ps_s05_30_keyboard_10_n03085013_24257.png
subject-05,1,2,0.814735889434814,boat,bird,180,0002_ps_s05_180_bird_10_n02009912_1148.png
subject-05,1,3,0.813270807266235,bear,elephant,150,0003_ps_s05_150_elephant_10_n02504458_8209.png
subject-05,1,4,0.757159948348999,car,chair,150,0004_ps_s05_150_chair_10_n04099969_5021.png
subject-05,1,5,0.673562049865723,elephant,truck,150,0005_ps_s05_150_truck_10_n03417042_3657.png
subject-05,1,6,NaN,na,chair,90,0006_ps_s05_90_chair_10_n02791124_2375.png
subject-05,1,7,0.60063099861145,boat,boat,0,0007_ps_s05_0_boat_10_n04273569_62.png
subject-05,1,8,0.75475001335144,boat,dog,150,0008_ps_s05_150_dog_10_n02093428_725.png
subject-05,1,9,0.83692193031311,boat,boat,90,0009_ps_s05_90_boat_10_n03662601_11420.png
subject-05,1,10,0.775628089904785,clock,dog,180,0010_ps_s05_180_dog_10_n02086910_1203.png
subject-05,1,11,0.895665884017944,bird,bird,30,0011_ps_s05_30_bird_10_n02009912_19842.png
subject-05,1,12,0.71199893951416,bird,bird,90,0012_ps_s05_90_bird_10_n02033041_7285.png
subject-05,1,13,1.05658411979675,boat,bird,180,0013_ps_s05_180_bird_10_n01796340_2199.png
subject-05,1,14,0.917180061340332,chair,chair,0,0014_ps_s05_0_chair_10_n04099969_19914.png
subject-05,1,15,0.877913951873779,car,truck,150,0015_ps_s05_150_truck_10_n04467665_7876.png
subject-05,1,16,1.08407211303711,bottle,bottle,60,0016_ps_s05_60_bottle_10_n03937543_8008.png
subject-05,1,17,0.73088812828064,oven,truck,60,0017_ps_s05_60_truck_10_n03417042_9620.png
subject-05,1,18,0.606802940368652,boat,bottle,150,0018_ps_s05_150_bottle_10_n04557648_2525.png
subject-05,1,19,0.835417985916138,dog,dog,0,0019_ps_s05_0_dog_10_n02097047_2565.png
subject-05,1,20,0.957323789596558,car,elephant,0,0020_ps_s05_0_elephant_10_n02504013_5887.png
subject-05,1,21,0.755590915679932,car,bicycle,180,0021_ps_s05_180_bicycle_10_n03792782_65779.png
subject-05,1,22,0.853759765625,knife,knife,60,0022_ps_s05_60_knife_10_n03041632_15250.png
subject-05,1,23,0.659759998321533,car,car,90,0023_ps_s05_90_car_10_n03100240_18756.png
subject-05,1,24,0.968636035919189,truck,truck,90,0024_ps_s05_90_truck_10_n03417042_9478.png
subject-05,1,25,0.755051136016846,keyboard,knife,90,0025_ps_s05_90_knife_10_n03041632_13108.png
subject-05,1,26,0.793854951858521,boat,truck,120,0026_ps_s05_120_truck_10_n03417042_22828.png
subject-05,1,27,0.691752195358276,airplane,airplane,0,0027_ps_s05_0_airplane_10_n02690373_6682.png
subject-05,1,28,0.808388948440552,bottle,bottle,90,0028_ps_s05_90_bottle_10_n04591713_2103.png
subject-05,1,29,0.853169918060303,truck,truck,0,0029_ps_s05_0_truck_10_n03417042_1770.png
subject-05,1,30,1.08940505981445,airplane,chair,150,0030_ps_s05_150_chair_10_n03376595_2211.png
subject-05,1,31,0.827640056610107,dog,cat,30,0031_ps_s05_30_cat_10_n02125311_76916.png
subject-05,1,32,0.988058090209961,boat,elephant,150,0032_ps_s05_150_elephant_10_n02504013_517.png
subject-05,1,33,0.832090139389038,car,cat,150,0033_ps_s05_150_cat_10_n02123394_1962.png
subject-05,1,34,0.854511022567749,cat,bottle,120,0034_ps_s05_120_bottle_10_n04591713_6069.png
subject-05,1,35,0.592857837677002,clock,clock,60,0035_ps_s05_60_clock_10_n04548280_9292.png
subject-05,1,36,0.613441944122314,elephant,elephant,30,0036_ps_s05_30_elephant_10_n02504458_4463.png
subject-05,1,37,0.597912073135376,bicycle,bicycle,30,0037_ps_s05_30_bicycle_10_n02835271_1347.png
subject-05,1,38,0.696193933486938,airplane,airplane,60,0038_ps_s05_60_airplane_10_n02690373_7409.png
subject-05,1,39,0.534770965576172,bird,bird,0,0039_ps_s05_0_bird_10_n01797886_17584.png
subject-05,1,40,0.571078062057495,boat,boat,0,0040_ps_s05_0_boat_10_n03662601_15001.png
subject-05,1,41,0.569139003753662,cat,clock,120,0041_ps_s05_120_clock_10_n04548280_4768.png
subject-05,1,42,1.00441598892212,car,knife,150,0042_ps_s05_150_knife_10_n03041632_45312.png
subject-05,1,43,0.872875928878784,car,car,60,0043_ps_s05_60_car_10_n03100240_22398.png
subject-05,1,44,0.640875101089478,bicycle,bicycle,90,0044_ps_s05_90_bicycle_10_n02835271_3383.png
subject-05,1,45,0.576957941055298,airplane,airplane,90,0045_ps_s05_90_airplane_10_n02690373_2268.png
subject-05,1,46,1.15959000587463,airplane,airplane,60,0046_ps_s05_60_airplane_10_n02690373_19916.png
subject-05,1,47,0.820154905319214,airplane,airplane,30,0047_ps_s05_30_airplane_10_n02690373_18479.png
subject-05,1,48,0.742254018783569,car,bird,150,0048_ps_s05_150_bird_10_n02002556_12491.png
subject-05,1,49,0.732415914535522,cat,airplane,150,0049_ps_s05_150_airplane_10_n02690373_3712.png
subject-05,1,50,0.992780923843384,boat,keyboard,180,0050_ps_s05_180_keyboard_10_n03085013_24449.png
subject-05,1,51,1.08492088317871,cat,dog,150,0051_ps_s05_150_dog_10_n02113624_4616.png
subject-05,1,52,0.607573986053467,boat,airplane,120,0052_ps_s05_120_airplane_10_n02690373_7072.png
subject-05,1,53,0.682024002075195,boat,airplane,180,0053_ps_s05_180_airplane_10_n02690373_6138.png
subject-05,1,54,0.834609031677246,elephant,elephant,60,0054_ps_s05_60_elephant_10_n02504458_908.png
subject-05,1,55,0.794036149978638,elephant,elephant,120,0055_ps_s05_120_elephant_10_n02504458_11119.png
subject-05,1,56,0.9464271068573,bird,bottle,90,0056_ps_s05_90_bottle_10_n04557648_29432.png
subject-05,1,57,0.836174011230469,car,boat,180,0057_ps_s05_180_boat_10_n04273569_21470.png
subject-05,1,58,0.896430969238281,clock,oven,180,0058_ps_s05_180_oven_10_n04111531_11116.png
subject-05,1,59,1.34901094436646,airplane,airplane,30,0059_ps_s05_30_airplane_10_n02690373_5462.png
subject-05,1,60,0.830624103546143,keyboard,keyboard,0,0060_ps_s05_0_keyboard_10_n03085013_20161.png
subject-05,1,61,0.661062002182007,car,dog,180,0061_ps_s05_180_dog_10_n02106550_2938.png
subject-05,1,62,1.01808285713196,bicycle,bicycle,0,0062_ps_s05_0_bicycle_10_n02835271_5657.png
subject-05,1,63,0.846300840377808,bottle,bottle,90,0063_ps_s05_90_bottle_10_n03983396_10330.png
subject-05,1,64,1.02300405502319,bird,bird,0,0064_ps_s05_0_bird_10_n01798484_12863.png
subject-05,1,65,0.699151992797852,elephant,elephant,30,0065_ps_s05_30_elephant_10_n02504458_98.png
subject-05,1,66,0.921727180480957,car,clock,120,0066_ps_s05_120_clock_10_n02708093_6918.png
subject-05,1,67,1.33357501029968,knife,knife,30,0067_ps_s05_30_knife_10_n03041632_17859.png
subject-05,1,68,0.655877113342285,bottle,bottle,0,0068_ps_s05_0_bottle_10_n04557648_869.png
subject-05,1,69,0.938444137573242,knife,knife,60,0069_ps_s05_60_knife_10_n03041632_131.png
subject-05,1,70,1.10714197158813,bird,clock,180,0070_ps_s05_180_clock_10_n03196217_2528.png
subject-05,1,71,1.50001883506775,airplane,airplane,0,0071_ps_s05_0_airplane_10_n02690373_5217.png
subject-05,1,72,1.19514083862305,cat,bear,60,0072_ps_s05_60_bear_10_n02133161_8236.png
subject-05,1,73,0.893939018249512,car,bottle,180,0073_ps_s05_180_bottle_10_n04557648_27488.png
subject-05,1,74,NaN,na,keyboard,180,0074_ps_s05_180_keyboard_10_n03085013_24648.png
subject-05,1,75,1.00594997406006,car,keyboard,120,0075_ps_s05_120_keyboard_10_n04505470_4587.png
subject-05,1,76,1.09651899337769,oven,keyboard,120,0076_ps_s05_120_keyboard_10_n03085013_15530.png
subject-05,1,77,1.21080112457275,chair,chair,60,0077_ps_s05_60_chair_10_n04099969_4053.png
subject-05,1,78,0.795412063598633,car,car,60,0078_ps_s05_60_car_10_n03100240_14484.png
subject-05,1,79,1.19363784790039,knife,knife,60,0079_ps_s05_60_knife_10_n03041632_33488.png
subject-05,1,80,1.07016015052795,bear,dog,90,0080_ps_s05_90_dog_10_n02113023_8851.png
subject-05,1,81,0.698332786560059,boat,boat,60,0081_ps_s05_60_boat_10_n04273569_325.png
subject-05,1,82,0.929211139678955,car,oven,150,0082_ps_s05_150_oven_10_n04111531_6993.png
subject-05,1,83,0.73506498336792,cat,bird,180,0083_ps_s05_180_bird_10_n01833805_14.png
subject-05,1,84,0.871196985244751,boat,cat,120,0084_ps_s05_120_cat_10_n02123597_7168.png
subject-05,1,85,0.707878112792969,bottle,bottle,60,0085_ps_s05_60_bottle_10_n03983396_5647.png
subject-05,1,86,0.822059154510498,bear,bear,90,0086_ps_s05_90_bear_10_n02134084_24208.png
subject-05,1,87,0.644952058792114,bottle,bottle,120,0087_ps_s05_120_bottle_10_n04591713_2899.png
subject-05,1,88,0.981182098388672,cat,cat,30,0088_ps_s05_30_cat_10_n02123394_821.png
subject-05,1,89,0.857643127441406,car,dog,150,0089_ps_s05_150_dog_10_n02086910_2216.png
subject-05,1,90,1.20156311988831,oven,airplane,180,0090_ps_s05_180_airplane_10_n02690373_9266.png
subject-05,1,91,1.01325511932373,clock,clock,150,0091_ps_s05_150_clock_10_n03196217_4233.png
subject-05,1,92,0.835561037063599,car,keyboard,120,0092_ps_s05_120_keyboard_10_n03085013_23596.png
subject-05,1,93,0.763839960098267,clock,clock,90,0093_ps_s05_90_clock_10_n04548280_1022.png
subject-05,1,94,1.19407892227173,keyboard,bird,180,0094_ps_s05_180_bird_10_n01819313_6465.png
subject-05,1,95,0.816771984100342,bird,bird,0,0095_ps_s05_0_bird_10_n01532829_10127.png
subject-05,1,96,1.15304398536682,dog,dog,60,0096_ps_s05_60_dog_10_n02094433_13143.png
subject-05,1,97,0.551170110702515,clock,chair,180,0097_ps_s05_180_chair_10_n03376595_2094.png
subject-05,1,98,0.673794984817505,oven,knife,30,0098_ps_s05_30_knife_10_n03041632_86338.png
subject-05,1,99,0.823998928070068,bird,bear,180,0099_ps_s05_180_bear_10_n02134084_6945.png
subject-05,1,100,0.675267934799194,clock,clock,0,0100_ps_s05_0_clock_10_n04548280_5166.png
subject-05,1,101,0.605743885040283,car,car,90,0101_ps_s05_90_car_10_n02814533_65093.png
subject-05,1,102,0.63615894317627,keyboard,keyboard,0,0102_ps_s05_0_keyboard_10_n04505470_2620.png
subject-05,1,103,0.910516023635864,bear,bear,60,0103_ps_s05_60_bear_10_n02134418_772.png
subject-05,1,104,0.815004110336304,car,bear,120,0104_ps_s05_120_bear_10_n02134418_9829.png
subject-05,1,105,0.975095987319946,truck,truck,0,0105_ps_s05_0_truck_10_n03796401_23129.png
subject-05,1,106,0.859273195266724,clock,bird,150,0106_ps_s05_150_bird_10_n01592084_4092.png
subject-05,1,107,0.78010106086731,oven,oven,90,0107_ps_s05_90_oven_10_n04111531_2930.png
subject-05,1,108,1.15639185905457,cat,bird,120,0108_ps_s05_120_bird_10_n01860187_28601.png
subject-05,1,109,0.739085912704468,dog,dog,90,0109_ps_s05_90_dog_10_n02086079_54502.png
subject-05,1,110,1.11518812179565,chair,chair,90,0110_ps_s05_90_chair_10_n04099969_37437.png
subject-05,1,111,0.837579965591431,oven,oven,0,0111_ps_s05_0_oven_10_n04111531_7741.png
subject-05,1,112,0.75772500038147,bird,bird,60,0112_ps_s05_60_bird_10_n01530575_5091.png
subject-05,1,113,0.969525098800659,bird,oven,120,0113_ps_s05_120_oven_10_n04111531_892.png
subject-05,1,114,0.799995899200439,boat,bicycle,150,0114_ps_s05_150_bicycle_10_n03792782_2805.png
subject-05,1,115,1.09036803245544,oven,knife,90,0115_ps_s05_90_knife_10_n03041632_31271.png
subject-05,1,116,0.804589033126831,truck,truck,30,0116_ps_s05_30_truck_10_n03796401_26359.png
subject-05,1,117,0.981361865997314,car,truck,90,0117_ps_s05_90_truck_10_n04467665_52003.png
subject-05,1,118,1.0018470287323,boat,cat,180,0118_ps_s05_180_cat_10_n02123159_2491.png
subject-05,1,119,0.832309007644653,keyboard,bear,150,0119_ps_s05_150_bear_10_n02134084_16190.png
subject-05,1,120,0.900454998016357,elephant,elephant,0,0120_ps_s05_0_elephant_10_n02504458_7411.png
subject-05,1,121,0.911516189575195,keyboard,keyboard,0,0121_ps_s05_0_keyboard_10_n04505470_9952.png
subject-05,1,122,0.755665063858032,oven,bird,180,0122_ps_s05_180_bird_10_n01534433_4563.png
subject-05,1,123,0.975632905960083,bicycle,boat,120,0123_ps_s05_120_boat_10_n03344393_12310.png
subject-05,1,124,0.773787975311279,keyboard,keyboard,90,0124_ps_s05_90_keyboard_10_n03085013_6610.png
subject-05,1,125,0.72629189491272,car,airplane,150,0125_ps_s05_150_airplane_10_n02690373_734.png
subject-05,1,126,0.764755010604858,boat,truck,150,0126_ps_s05_150_truck_10_n03417042_2103.png
subject-05,1,127,0.963034152984619,oven,oven,30,0127_ps_s05_30_oven_10_n04111531_15416.png
subject-05,1,128,1.17757892608643,keyboard,chair,120,0128_ps_s05_120_chair_10_n02791124_1865.png
subject-05,1,129,1.08987998962402,oven,car,120,0129_ps_s05_120_car_10_n02814533_97602.png
subject-05,1,130,0.92048192024231,keyboard,oven,0,0130_ps_s05_0_oven_10_n04111531_10375.png
subject-05,1,131,0.956901073455811,elephant,airplane,120,0131_ps_s05_120_airplane_10_n02690373_2952.png
subject-05,1,132,0.848978042602539,chair,chair,90,0132_ps_s05_90_chair_10_n03376595_787.png
subject-05,1,133,0.827283143997192,oven,boat,120,0133_ps_s05_120_boat_10_n02951358_6771.png
subject-05,1,134,0.895642995834351,dog,dog,60,0134_ps_s05_60_dog_10_n02109961_67153.png
subject-05,1,135,1.39976501464844,chair,chair,30,0135_ps_s05_30_chair_10_n03376595_9656.png
subject-05,1,136,0.54558801651001,clock,clock,60,0136_ps_s05_60_clock_10_n02708093_483.png
subject-05,1,137,1.21210813522339,dog,boat,30,0137_ps_s05_30_boat_10_n02951358_2416.png
subject-05,1,138,NaN,na,truck,150,0138_ps_s05_150_truck_10_n03417042_3272.png
subject-05,1,139,0.79517388343811,keyboard,keyboard,30,0139_ps_s05_30_keyboard_10_n04505470_8937.png
subject-05,1,140,0.98569393157959,car,airplane,120,0140_ps_s05_120_airplane_10_n02690373_8740.png
subject-05,1,141,0.592303037643433,oven,elephant,150,0141_ps_s05_150_elephant_10_n02504013_173.png
subject-05,1,142,0.790811061859131,boat,boat,30,0142_ps_s05_30_boat_10_n04273569_16679.png
subject-05,1,143,0.981214046478271,clock,bear,180,0143_ps_s05_180_bear_10_n02134418_11706.png
subject-05,1,144,1.23132109642029,clock,bottle,120,0144_ps_s05_120_bottle_10_n04579145_6779.png
subject-05,1,145,0.837796926498413,chair,chair,0,0145_ps_s05_0_chair_10_n03376595_7017.png
subject-05,1,146,0.814073085784912,chair,chair,90,0146_ps_s05_90_chair_10_n03376595_10728.png
subject-05,1,147,0.612616062164307,bottle,bottle,60,0147_ps_s05_60_bottle_10_n03937543_10061.png
subject-05,1,148,1.24098110198975,bird,cat,60,0148_ps_s05_60_cat_10_n02125311_4064.png
subject-05,1,149,0.833213090896606,knife,knife,0,0149_ps_s05_0_knife_10_n03041632_77022.png
subject-05,1,150,0.923227071762085,car,truck,90,0150_ps_s05_90_truck_10_n03796401_1009.png
subject-05,1,151,0.775681972503662,cat,clock,150,0151_ps_s05_150_clock_10_n02708093_6.png
subject-05,1,152,0.543723821640015,boat,car,180,0152_ps_s05_180_car_10_n04285008_15003.png
subject-05,1,153,0.539119958877563,car,car,60,0153_ps_s05_60_car_10_n03100240_15894.png
subject-05,1,154,0.675356149673462,car,car,30,0154_ps_s05_30_car_10_n02814533_7283.png
subject-05,1,155,0.873466014862061,bear,bear,0,0155_ps_s05_0_bear_10_n02132136_3732.png
subject-05,1,156,0.818053007125854,truck,truck,60,0156_ps_s05_60_truck_10_n03417042_3197.png
subject-05,1,157,1.5001060962677,cat,bear,150,0157_ps_s05_150_bear_10_n02133161_1585.png
subject-05,1,158,1.11431407928467,boat,cat,180,0158_ps_s05_180_cat_10_n02123597_5678.png
subject-05,1,159,0.92826509475708,bird,bird,0,0159_ps_s05_0_bird_10_n01622779_5786.png
subject-05,1,160,1.00488305091858,bird,bird,30,0160_ps_s05_30_bird_10_n01818515_3122.png
subject-05,1,161,0.871334791183472,car,car,90,0161_ps_s05_90_car_10_n03100240_3207.png
subject-05,1,162,0.707693099975586,clock,clock,60,0162_ps_s05_60_clock_10_n04548280_636.png
subject-05,1,163,1.04646611213684,dog,dog,30,0163_ps_s05_30_dog_10_n02113624_8508.png
subject-05,1,164,1.14224100112915,bird,bird,60,0164_ps_s05_60_bird_10_n02002724_11010.png
subject-05,1,165,0.726542949676514,knife,knife,0,0165_ps_s05_0_knife_10_n03041632_55711.png
subject-05,1,166,0.979223012924194,car,oven,150,0166_ps_s05_150_oven_10_n04111531_6568.png
subject-05,1,167,0.969591856002808,boat,bird,120,0167_ps_s05_120_bird_10_n02018207_7930.png
subject-05,1,168,0.984210014343262,car,car,30,0168_ps_s05_30_car_10_n04285008_15637.png
subject-05,1,169,0.930819034576416,dog,oven,90,0169_ps_s05_90_oven_10_n04111531_4574.png
subject-05,1,170,0.859112977981567,truck,truck,30,0170_ps_s05_30_truck_10_n04467665_6268.png
subject-05,1,171,0.781560897827148,clock,clock,120,0171_ps_s05_120_clock_10_n02708093_3625.png
subject-05,1,172,0.792110919952393,car,bottle,120,0172_ps_s05_120_bottle_10_n04557648_570.png
subject-05,1,173,1.004469871521,car,car,0,0173_ps_s05_0_car_10_n02814533_38087.png
subject-05,1,174,0.788991928100586,bird,bicycle,120,0174_ps_s05_120_bicycle_10_n03792782_49733.png
subject-05,1,175,0.673470020294189,bicycle,bicycle,60,0175_ps_s05_60_bicycle_10_n03792782_6926.png
subject-05,1,176,0.618130207061768,car,car,90,0176_ps_s05_90_car_10_n03100240_21834.png
subject-05,1,177,0.630642890930176,boat,elephant,180,0177_ps_s05_180_elephant_10_n02504013_870.png
subject-05,1,178,0.769272089004517,boat,boat,90,0178_ps_s05_90_boat_10_n02951358_13944.png
subject-05,1,179,0.843644857406616,dog,dog,60,0179_ps_s05_60_dog_10_n02091244_4031.png
subject-05,1,180,0.820100069046021,boat,elephant,90,0180_ps_s05_90_elephant_10_n02504013_8308.png
subject-05,1,181,0.748450040817261,airplane,bottle,150,0181_ps_s05_150_bottle_10_n03937543_10866.png
subject-05,1,182,0.740818977355957,dog,dog,0,0182_ps_s05_0_dog_10_n02097474_285.png
subject-05,1,183,0.597988843917847,bicycle,bicycle,90,0183_ps_s05_90_bicycle_10_n03792782_15692.png
subject-05,1,184,0.880114078521729,truck,truck,0,0184_ps_s05_0_truck_10_n04467665_5874.png
subject-05,1,185,0.916699171066284,truck,truck,30,0185_ps_s05_30_truck_10_n03417042_20158.png
subject-05,1,186,0.731103181838989,boat,boat,30,0186_ps_s05_30_boat_10_n02951358_15750.png
subject-05,1,187,0.669652938842773,boat,boat,60,0187_ps_s05_60_boat_10_n03662601_4619.png
subject-05,1,188,0.760455131530762,car,bear,180,0188_ps_s05_180_bear_10_n02133161_5260.png
subject-05,1,189,0.704839944839478,clock,oven,150,0189_ps_s05_150_oven_10_n04111531_9224.png
subject-05,1,190,0.979295015335083,clock,bird,150,0190_ps_s05_150_bird_10_n01843065_5855.png
subject-05,1,191,1.2855179309845,bear,clock,150,0191_ps_s05_150_clock_10_n02708093_3643.png
subject-05,1,192,0.646211862564087,bird,bird,0,0192_ps_s05_0_bird_10_n02037110_3653.png
subject-05,1,193,0.714505910873413,elephant,elephant,30,0193_ps_s05_30_elephant_10_n02504458_1137.png
subject-05,1,194,0.8730149269104,chair,chair,60,0194_ps_s05_60_chair_10_n03376595_15607.png
subject-05,1,195,0.649196863174438,bottle,bottle,90,0195_ps_s05_90_bottle_10_n03983396_899.png
subject-05,1,196,0.723731994628906,oven,oven,0,0196_ps_s05_0_oven_10_n04111531_21733.png
subject-05,1,197,1.26870203018188,airplane,bear,90,0197_ps_s05_90_bear_10_n02133161_4524.png
subject-05,1,198,0.736512899398804,clock,oven,120,0198_ps_s05_120_oven_10_n04111531_1794.png
subject-05,1,199,0.780961990356445,car,car,90,0199_ps_s05_90_car_10_n04285008_13054.png
subject-05,1,200,0.633240938186646,clock,clock,0,0200_ps_s05_0_clock_10_n02708093_2041.png
subject-05,1,201,0.769551992416382,boat,boat,180,0201_ps_s05_180_boat_10_n04612504_9154.png
subject-05,1,202,0.7138671875,boat,boat,90,0202_ps_s05_90_boat_10_n03344393_6328.png
subject-05,1,203,0.982155084609985,elephant,elephant,0,0203_ps_s05_0_elephant_10_n02504458_7342.png
subject-05,1,204,0.919062852859497,car,car,180,0204_ps_s05_180_car_10_n03100240_6607.png
subject-05,1,205,0.955222845077515,dog,dog,0,0205_ps_s05_0_dog_10_n02100877_29522.png
subject-05,1,206,0.753505945205688,oven,airplane,180,0206_ps_s05_180_airplane_10_n02690373_2823.png
subject-05,1,207,0.605476140975952,boat,boat,30,0207_ps_s05_30_boat_10_n04273569_2460.png
subject-05,1,208,0.717350006103516,cat,bird,120,0208_ps_s05_120_bird_10_n02011460_7995.png
subject-05,1,209,0.761443138122559,car,car,120,0209_ps_s05_120_car_10_n04285008_11291.png
subject-05,1,210,0.983788013458252,elephant,elephant,0,0210_ps_s05_0_elephant_10_n02504458_3881.png
subject-05,1,211,0.866106033325195,airplane,airplane,90,0211_ps_s05_90_airplane_10_n02690373_102.png
subject-05,1,212,0.918758869171143,cat,bicycle,120,0212_ps_s05_120_bicycle_10_n03792782_7846.png
subject-05,1,213,1.27749991416931,elephant,dog,150,0213_ps_s05_150_dog_10_n02099849_2187.png
subject-05,1,214,1.01988005638123,chair,chair,0,0214_ps_s05_0_chair_10_n04099969_16159.png
subject-05,1,215,0.902143001556396,chair,chair,60,0215_ps_s05_60_chair_10_n02791124_1557.png
subject-05,1,216,0.708395004272461,boat,boat,90,0216_ps_s05_90_boat_10_n04273569_2723.png
subject-05,1,217,0.830833911895752,cat,cat,60,0217_ps_s05_60_cat_10_n02125311_17510.png
subject-05,1,218,0.943258047103882,truck,truck,60,0218_ps_s05_60_truck_10_n03417042_10885.png
subject-05,1,219,0.911427021026611,airplane,airplane,0,0219_ps_s05_0_airplane_10_n02690373_5003.png
subject-05,1,220,0.870173931121826,bicycle,bicycle,90,0220_ps_s05_90_bicycle_10_n02835271_6157.png
subject-05,1,221,1.0921618938446,car,airplane,150,0221_ps_s05_150_airplane_10_n02690373_961.png
subject-05,1,222,0.966665029525757,elephant,bear,0,0222_ps_s05_0_bear_10_n02133161_7332.png
subject-05,1,223,0.74889612197876,elephant,elephant,120,0223_ps_s05_120_elephant_10_n02504458_3248.png
subject-05,1,224,0.816618919372559,elephant,dog,150,0224_ps_s05_150_dog_10_n02091467_8739.png
subject-05,1,225,0.982891082763672,bear,bear,60,0225_ps_s05_60_bear_10_n02132136_462.png
subject-05,1,226,1.11134696006775,car,oven,90,0226_ps_s05_90_oven_10_n04111531_9334.png
subject-05,1,227,0.80367112159729,keyboard,airplane,180,0227_ps_s05_180_airplane_10_n02690373_5142.png
subject-05,1,228,1.09428000450134,oven,chair,90,0228_ps_s05_90_chair_10_n02791124_3395.png
subject-05,1,229,0.838266134262085,bicycle,bicycle,60,0229_ps_s05_60_bicycle_10_n02835271_6374.png
subject-05,1,230,1.23695516586304,oven,oven,90,0230_ps_s05_90_oven_10_n04111531_17004.png
subject-05,1,231,0.721343994140625,keyboard,clock,180,0231_ps_s05_180_clock_10_n02708093_7963.png
subject-05,1,232,0.895433902740479,boat,car,150,0232_ps_s05_150_car_10_n04285008_10824.png
subject-05,1,233,0.915954828262329,oven,oven,30,0233_ps_s05_30_oven_10_n04111531_4407.png
subject-05,1,234,0.875109910964966,elephant,elephant,150,0234_ps_s05_150_elephant_10_n02504013_6722.png
subject-05,1,235,0.633794784545898,clock,clock,60,0235_ps_s05_60_clock_10_n02708093_3062.png
subject-05,1,236,0.932107925415039,car,bicycle,180,0236_ps_s05_180_bicycle_10_n03792782_47004.png
subject-05,1,237,1.19274282455444,bicycle,bicycle,0,0237_ps_s05_0_bicycle_10_n03792782_1124.png
subject-05,1,238,1.32115483283997,airplane,bottle,150,0238_ps_s05_150_bottle_10_n04591713_5595.png
subject-05,1,239,1.06289792060852,cat,bottle,180,0239_ps_s05_180_bottle_10_n02823428_13931.png
subject-05,1,240,0.809226036071777,boat,boat,0,0240_ps_s05_0_boat_10_n04273569_7370.png
subject-05,1,241,1.12178683280945,boat,boat,30,0241_ps_s05_30_boat_10_n02951358_12765.png
subject-05,1,242,0.836356163024902,chair,chair,90,0242_ps_s05_90_chair_10_n04099969_16512.png
subject-05,1,243,0.917243957519531,oven,oven,30,0243_ps_s05_30_oven_10_n04111531_18223.png
subject-05,1,244,0.776959896087646,boat,boat,30,0244_ps_s05_30_boat_10_n04612504_1248.png
subject-05,1,245,0.721678972244263,cat,cat,60,0245_ps_s05_60_cat_10_n02125311_1721.png
subject-05,1,246,1.21802306175232,car,bottle,150,0246_ps_s05_150_bottle_10_n03937543_5619.png
subject-05,1,247,0.8783860206604,elephant,elephant,30,0247_ps_s05_30_elephant_10_n02504458_2046.png
subject-05,1,248,1.0465829372406,clock,clock,30,0248_ps_s05_30_clock_10_n04548280_8390.png
subject-05,1,249,0.928858995437622,boat,bicycle,90,0249_ps_s05_90_bicycle_10_n02835271_1394.png
subject-05,1,250,0.973509788513184,airplane,airplane,0,0250_ps_s05_0_airplane_10_n02690373_2147.png
subject-05,1,251,0.826042890548706,car,knife,150,0251_ps_s05_150_knife_10_n03041632_26236.png
subject-05,1,252,0.802696943283081,cat,cat,0,0252_ps_s05_0_cat_10_n02123159_4133.png
subject-05,1,253,0.546935081481934,clock,clock,30,0253_ps_s05_30_clock_10_n04548280_3610.png
subject-05,1,254,1.01338315010071,knife,knife,60,0254_ps_s05_60_knife_10_n03041632_15754.png
subject-05,1,255,0.865769863128662,bottle,bottle,30,0255_ps_s05_30_bottle_10_n03937543_6858.png
subject-05,1,256,0.688223123550415,oven,oven,30,0256_ps_s05_30_oven_10_n04111531_8046.png
subject-05,1,257,0.80003809928894,boat,car,180,0257_ps_s05_180_car_10_n04285008_12927.png
subject-05,1,258,1.01472496986389,bear,bear,30,0258_ps_s05_30_bear_10_n02133161_2010.png
subject-05,1,259,0.72911810874939,bicycle,bicycle,60,0259_ps_s05_60_bicycle_10_n02835271_14891.png
subject-05,1,260,1.02379298210144,dog,dog,60,0260_ps_s05_60_dog_10_n02100735_7752.png
subject-05,1,261,0.914339065551758,cat,chair,180,0261_ps_s05_180_chair_10_n02791124_2429.png
subject-05,1,262,0.888509035110474,car,car,30,0262_ps_s05_30_car_10_n03100240_898.png
subject-05,1,263,0.676751136779785,knife,knife,0,0263_ps_s05_0_knife_10_n03041632_4037.png
subject-05,1,264,0.818930864334106,car,car,0,0264_ps_s05_0_car_10_n03100240_13732.png
subject-05,1,265,0.992976903915405,knife,clock,30,0265_ps_s05_30_clock_10_n04548280_5076.png
subject-05,1,266,0.961419820785522,keyboard,keyboard,30,0266_ps_s05_30_keyboard_10_n03085013_23782.png
subject-05,1,267,0.981652975082397,airplane,airplane,60,0267_ps_s05_60_airplane_10_n02690373_763.png
subject-05,1,268,1.17219591140747,car,boat,150,0268_ps_s05_150_boat_10_n03344393_3370.png
subject-05,1,269,0.808516979217529,knife,knife,60,0269_ps_s05_60_knife_10_n03041632_11475.png
subject-05,1,270,1.11511993408203,cat,bear,60,0270_ps_s05_60_bear_10_n02134084_7306.png
subject-05,1,271,1.07568001747131,dog,elephant,90,0271_ps_s05_90_elephant_10_n02504458_1441.png
subject-05,1,272,0.789998054504395,boat,keyboard,150,0272_ps_s05_150_keyboard_10_n04505470_1537.png
subject-05,1,273,0.710196018218994,cat,bicycle,180,0273_ps_s05_180_bicycle_10_n02835271_21339.png
subject-05,1,274,0.716348886489868,keyboard,keyboard,90,0274_ps_s05_90_keyboard_10_n03085013_20906.png
subject-05,1,275,0.745113849639893,oven,chair,150,0275_ps_s05_150_chair_10_n04429376_1041.png
subject-05,1,276,0.63758397102356,boat,boat,60,0276_ps_s05_60_boat_10_n03344393_9732.png
subject-05,1,277,0.879462957382202,oven,bear,150,0277_ps_s05_150_bear_10_n02133161_280.png
subject-05,1,278,0.92375111579895,bottle,bottle,60,0278_ps_s05_60_bottle_10_n04591713_100.png
subject-05,1,279,0.754258155822754,cat,cat,60,0279_ps_s05_60_cat_10_n02123159_4513.png
subject-05,1,280,1.34292316436768,car,bicycle,180,0280_ps_s05_180_bicycle_10_n02835271_18173.png
subject-05,1,281,1.21858811378479,oven,bear,180,0281_ps_s05_180_bear_10_n02133161_12045.png
subject-05,1,282,0.946754932403564,bird,bicycle,150,0282_ps_s05_150_bicycle_10_n02835271_8324.png
subject-05,1,283,0.982331991195679,boat,keyboard,150,0283_ps_s05_150_keyboard_10_n03085013_9533.png
subject-05,1,284,0.734248876571655,bird,oven,180,0284_ps_s05_180_oven_10_n04111531_19104.png
subject-05,1,285,0.970983028411865,car,truck,180,0285_ps_s05_180_truck_10_n03417042_1716.png
subject-05,1,286,0.945358037948608,clock,clock,60,0286_ps_s05_60_clock_10_n04548280_7781.png
subject-05,1,287,1.14409995079041,cat,dog,90,0287_ps_s05_90_dog_10_n02087394_5276.png
subject-05,1,288,0.850489854812622,cat,cat,30,0288_ps_s05_30_cat_10_n02123597_14357.png
subject-05,1,289,0.726729154586792,boat,boat,0,0289_ps_s05_0_boat_10_n03662601_6042.png
subject-05,1,290,0.846863031387329,chair,chair,0,0290_ps_s05_0_chair_10_n04429376_20992.png
subject-05,1,291,1.08322596549988,car,car,0,0291_ps_s05_0_car_10_n04285008_16755.png
subject-05,1,292,1.09764695167542,boat,boat,90,0292_ps_s05_90_boat_10_n02951358_34836.png
subject-05,1,293,1.26396894454956,car,elephant,180,0293_ps_s05_180_elephant_10_n02504013_2399.png
subject-05,1,294,1.14085292816162,car,car,30,0294_ps_s05_30_car_10_n02814533_85312.png
subject-05,1,295,1.46869802474976,car,bird,150,0295_ps_s05_150_bird_10_n01601694_5734.png
subject-05,1,296,0.58280611038208,elephant,elephant,0,0296_ps_s05_0_elephant_10_n02504458_5839.png
subject-05,1,297,0.665266990661621,bicycle,bicycle,0,0297_ps_s05_0_bicycle_10_n02835271_6903.png
subject-05,1,298,1.50035500526428,elephant,elephant,0,0298_ps_s05_0_elephant_10_n02504013_141.png
subject-05,1,299,0.845868110656738,boat,bear,180,0299_ps_s05_180_bear_10_n02132136_1089.png
subject-05,1,300,0.576169013977051,car,car,120,0300_ps_s05_120_car_10_n03100240_9484.png
subject-05,1,301,0.72058892250061,truck,truck,60,0301_ps_s05_60_truck_10_n03796401_2025.png
subject-05,1,302,1.50013184547424,car,truck,120,0302_ps_s05_120_truck_10_n03417042_16735.png
subject-05,1,303,1.41494703292847,bird,bird,120,0303_ps_s05_120_bird_10_n01855032_6739.png
subject-05,1,304,0.62953519821167,cat,cat,60,0304_ps_s05_60_cat_10_n02123045_8535.png
subject-05,1,305,0.757333040237427,clock,dog,180,0305_ps_s05_180_dog_10_n02106166_470.png
subject-05,1,306,0.799635887145996,car,boat,150,0306_ps_s05_150_boat_10_n03344393_806.png
subject-05,1,307,0.936346054077148,bear,bear,30,0307_ps_s05_30_bear_10_n02133161_1780.png
subject-05,1,308,0.758691072463989,elephant,elephant,60,0308_ps_s05_60_elephant_10_n02504013_6575.png
subject-05,1,309,0.870584964752197,airplane,bicycle,150,0309_ps_s05_150_bicycle_10_n03792782_16568.png
subject-05,1,310,NaN,na,truck,90,0310_ps_s05_90_truck_10_n04467665_70122.png
subject-05,1,311,0.951527833938599,bird,bird,30,0311_ps_s05_30_bird_10_n01843065_2084.png
subject-05,1,312,0.720186948776245,elephant,elephant,90,0312_ps_s05_90_elephant_10_n02504458_10332.png
subject-05,1,313,0.878868103027344,bear,bear,30,0313_ps_s05_30_bear_10_n02134418_1742.png
subject-05,1,314,0.708842039108276,boat,bear,180,0314_ps_s05_180_bear_10_n02133161_3085.png
subject-05,1,315,0.666932821273804,car,elephant,180,0315_ps_s05_180_elephant_10_n02504458_1157.png
subject-05,1,316,0.573419094085693,elephant,elephant,30,0316_ps_s05_30_elephant_10_n02504013_2778.png
subject-05,1,317,0.780045986175537,cat,cat,30,0317_ps_s05_30_cat_10_n02125311_19827.png
subject-05,1,318,0.776325941085815,oven,oven,60,0318_ps_s05_60_oven_10_n04111531_9867.png
subject-05,1,319,0.744797945022583,bird,airplane,90,0319_ps_s05_90_airplane_10_n02690373_9794.png
subject-05,1,320,0.897035121917725,oven,dog,30,0320_ps_s05_30_dog_10_n02088632_152.png
subject-05,1,321,0.880048036575317,car,bicycle,150,0321_ps_s05_150_bicycle_10_n02835271_5963.png
subject-05,1,322,1.17088294029236,bird,airplane,120,0322_ps_s05_120_airplane_10_n02690373_9712.png
subject-05,1,323,1.09096503257751,clock,cat,180,0323_ps_s05_180_cat_10_n02123394_10972.png
subject-05,1,324,0.682944059371948,keyboard,keyboard,120,0324_ps_s05_120_keyboard_10_n04505470_6421.png
subject-05,1,325,0.787570953369141,car,bicycle,120,0325_ps_s05_120_bicycle_10_n02835271_1831.png
subject-05,1,326,0.717805862426758,oven,oven,90,0326_ps_s05_90_oven_10_n04111531_585.png
subject-05,1,327,0.854225158691406,elephant,boat,120,0327_ps_s05_120_boat_10_n04612504_2129.png
subject-05,1,328,0.974576950073242,bear,bear,0,0328_ps_s05_0_bear_10_n02134418_2582.png
subject-05,1,329,1.14107084274292,bear,bicycle,120,0329_ps_s05_120_bicycle_10_n03792782_1728.png
subject-05,1,330,0.963492870330811,keyboard,car,180,0330_ps_s05_180_car_10_n03100240_2277.png
subject-05,1,331,1.09211111068726,bear,dog,60,0331_ps_s05_60_dog_10_n02088238_12469.png
subject-05,1,332,0.952691078186035,boat,bird,150,0332_ps_s05_150_bird_10_n02009229_5441.png
subject-05,1,333,0.734966993331909,car,boat,150,0333_ps_s05_150_boat_10_n02951358_32429.png
subject-05,1,334,1.34767508506775,bicycle,airplane,30,0334_ps_s05_30_airplane_10_n02690373_10729.png
subject-05,1,335,1.41560196876526,clock,knife,120,0335_ps_s05_120_knife_10_n03041632_23546.png
subject-05,1,336,0.77625298500061,oven,oven,60,0336_ps_s05_60_oven_10_n04111531_1826.png
subject-05,1,337,0.650426149368286,car,car,60,0337_ps_s05_60_car_10_n02814533_74270.png
subject-05,1,338,1.06271910667419,chair,chair,60,0338_ps_s05_60_chair_10_n02791124_4930.png
subject-05,1,339,0.847110033035278,bottle,elephant,180,0339_ps_s05_180_elephant_10_n02504458_1502.png
subject-05,1,340,0.55129599571228,keyboard,keyboard,0,0340_ps_s05_0_keyboard_10_n03085013_7536.png
subject-05,1,341,0.873704195022583,elephant,elephant,30,0341_ps_s05_30_elephant_10_n02504013_7474.png
subject-05,1,342,0.594042062759399,boat,boat,120,0342_ps_s05_120_boat_10_n04612504_7388.png
subject-05,1,343,1.21485996246338,oven,knife,0,0343_ps_s05_0_knife_10_n03041632_20433.png
subject-05,1,344,0.575236082077026,clock,clock,0,0344_ps_s05_0_clock_10_n02708093_444.png
subject-05,1,345,1.50026106834412,bird,bottle,30,0345_ps_s05_30_bottle_10_n04560804_11406.png
subject-05,1,346,0.794006109237671,car,oven,180,0346_ps_s05_180_oven_10_n04111531_19075.png
subject-05,1,347,0.646855115890503,boat,knife,150,0347_ps_s05_150_knife_10_n03041632_932.png
subject-05,1,348,1.32115197181702,boat,bottle,180,0348_ps_s05_180_bottle_10_n03983396_4735.png
subject-05,1,349,1.02774405479431,elephant,knife,180,0349_ps_s05_180_knife_10_n03041632_2438.png
subject-05,1,350,0.787977933883667,dog,dog,90,0350_ps_s05_90_dog_10_n02101556_10060.png
subject-05,1,351,0.976746082305908,keyboard,chair,150,0351_ps_s05_150_chair_10_n04099969_20421.png
subject-05,1,352,0.983315944671631,clock,clock,90,0352_ps_s05_90_clock_10_n04548280_4635.png
subject-05,1,353,0.567324876785278,boat,knife,150,0353_ps_s05_150_knife_10_n03041632_1671.png
subject-05,1,354,0.90033483505249,car,cat,150,0354_ps_s05_150_cat_10_n02123159_3770.png
subject-05,1,355,0.89106011390686,airplane,airplane,120,0355_ps_s05_120_airplane_10_n02690373_4495.png
subject-05,1,356,1.21144604682922,dog,bear,120,0356_ps_s05_120_bear_10_n02133161_10127.png
subject-05,1,357,0.671947002410889,bottle,bottle,0,0357_ps_s05_0_bottle_10_n03983396_11506.png
subject-05,1,358,1.21466493606567,bottle,keyboard,120,0358_ps_s05_120_keyboard_10_n03085013_21166.png
subject-05,1,359,0.852954864501953,boat,keyboard,180,0359_ps_s05_180_keyboard_10_n03085013_4374.png
subject-05,1,360,0.6491539478302,boat,boat,60,0360_ps_s05_60_boat_10_n04612504_10152.png
subject-05,1,361,1.30182099342346,car,bear,150,0361_ps_s05_150_bear_10_n02133161_1118.png
subject-05,1,362,0.829575061798096,oven,knife,180,0362_ps_s05_180_knife_10_n03041632_45569.png
subject-05,1,363,0.882125854492188,boat,elephant,180,0363_ps_s05_180_elephant_10_n02504458_5131.png
subject-05,1,364,0.634618043899536,oven,oven,0,0364_ps_s05_0_oven_10_n04111531_13590.png
subject-05,1,365,0.901546001434326,dog,bear,60,0365_ps_s05_60_bear_10_n02134418_14365.png
subject-05,1,366,0.945157051086426,bottle,dog,90,0366_ps_s05_90_dog_10_n02102973_1821.png
subject-05,1,367,0.911384105682373,car,bottle,180,0367_ps_s05_180_bottle_10_n04560804_28922.png
subject-05,1,368,1.0260899066925,car,car,60,0368_ps_s05_60_car_10_n03100240_1435.png
subject-05,1,369,0.824643135070801,oven,bottle,180,0369_ps_s05_180_bottle_10_n03983396_2317.png
subject-05,1,370,0.698986053466797,keyboard,keyboard,30,0370_ps_s05_30_keyboard_10_n04505470_4527.png
subject-05,1,371,1.2434561252594,boat,car,180,0371_ps_s05_180_car_10_n03100240_19223.png
subject-05,1,372,0.787531852722168,boat,boat,60,0372_ps_s05_60_boat_10_n03662601_12300.png
subject-05,1,373,0.639437913894653,bicycle,bicycle,60,0373_ps_s05_60_bicycle_10_n02835271_10813.png
subject-05,1,374,1.28966307640076,boat,airplane,150,0374_ps_s05_150_airplane_10_n02690373_4586.png
subject-05,1,375,1.22573018074036,boat,keyboard,150,0375_ps_s05_150_keyboard_10_n04505470_2109.png
subject-05,1,376,0.900211811065674,knife,knife,30,0376_ps_s05_30_knife_10_n03041632_3159.png
subject-05,1,377,0.682243824005127,cat,cat,0,0377_ps_s05_0_cat_10_n02123045_2743.png
subject-05,1,378,0.69672703742981,boat,oven,150,0378_ps_s05_150_oven_10_n04111531_5737.png
subject-05,1,379,0.738945960998535,elephant,elephant,150,0379_ps_s05_150_elephant_10_n02504458_1735.png
subject-05,1,380,0.778693914413452,knife,knife,0,0380_ps_s05_0_knife_10_n03041632_9406.png
subject-05,1,381,0.769469022750854,cat,clock,60,0381_ps_s05_60_clock_10_n04548280_13172.png
subject-05,1,382,0.721678018569946,bird,bird,0,0382_ps_s05_0_bird_10_n01592084_1192.png
subject-05,1,383,0.528244972229004,oven,oven,0,0383_ps_s05_0_oven_10_n04111531_5279.png
subject-05,1,384,0.870790958404541,oven,truck,30,0384_ps_s05_30_truck_10_n03417042_10993.png
subject-05,1,385,0.815540075302124,bottle,elephant,180,0385_ps_s05_180_elephant_10_n02504458_5858.png
subject-05,1,386,0.621846914291382,car,car,30,0386_ps_s05_30_car_10_n02814533_13900.png
subject-05,1,387,1.10985708236694,oven,oven,60,0387_ps_s05_60_oven_10_n04111531_5246.png
subject-05,1,388,0.853969097137451,car,car,30,0388_ps_s05_30_car_10_n03100240_1910.png
subject-05,1,389,0.952328205108643,boat,cat,150,0389_ps_s05_150_cat_10_n02124075_6626.png
subject-05,1,390,1.24802708625793,airplane,dog,150,0390_ps_s05_150_dog_10_n02094114_5212.png
subject-05,1,391,0.894470930099487,clock,clock,90,0391_ps_s05_90_clock_10_n03196217_10352.png
subject-05,1,392,1.19917392730713,cat,cat,30,0392_ps_s05_30_cat_10_n02124075_3360.png
subject-05,1,393,1.33528900146484,knife,bear,120,0393_ps_s05_120_bear_10_n02134084_2007.png
subject-05,1,394,0.587898015975952,chair,chair,0,0394_ps_s05_0_chair_10_n04099969_19901.png
subject-05,1,395,0.586171865463257,cat,cat,0,0395_ps_s05_0_cat_10_n02123394_5343.png
subject-05,1,396,0.646793842315674,chair,knife,90,0396_ps_s05_90_knife_10_n03041632_14817.png
subject-05,1,397,0.851077079772949,bear,bottle,180,0397_ps_s05_180_bottle_10_n02823428_2513.png
subject-05,1,398,0.773364067077637,boat,knife,120,0398_ps_s05_120_knife_10_n03041632_3023.png
subject-05,1,399,0.939875841140747,knife,keyboard,60,0399_ps_s05_60_keyboard_10_n03085013_22937.png
subject-05,1,400,0.729772806167603,car,chair,150,0400_ps_s05_150_chair_10_n04099969_37485.png
subject-05,1,401,0.933986186981201,chair,chair,30,0401_ps_s05_30_chair_10_n04099969_7400.png
subject-05,1,402,0.639865159988403,oven,cat,180,0402_ps_s05_180_cat_10_n02123045_5827.png
subject-05,1,403,0.638446092605591,boat,oven,120,0403_ps_s05_120_oven_10_n04111531_2715.png
subject-05,1,404,0.750867128372192,boat,truck,180,0404_ps_s05_180_truck_10_n04467665_67560.png
subject-05,1,405,0.748897075653076,keyboard,bird,180,0405_ps_s05_180_bird_10_n01532829_15113.png
subject-05,1,406,0.77306604385376,bird,clock,180,0406_ps_s05_180_clock_10_n02708093_2057.png
subject-05,1,407,1.27748513221741,elephant,keyboard,150,0407_ps_s05_150_keyboard_10_n03085013_33447.png
subject-05,1,408,0.775981903076172,clock,bottle,0,0408_ps_s05_0_bottle_10_n04560804_7106.png
subject-05,1,409,0.790287017822266,cat,truck,150,0409_ps_s05_150_truck_10_n04467665_63662.png
subject-05,1,410,1.10260796546936,car,bottle,150,0410_ps_s05_150_bottle_10_n04591713_2845.png
subject-05,1,411,1.50020694732666,keyboard,keyboard,60,0411_ps_s05_60_keyboard_10_n04505470_4368.png
subject-05,1,412,1.34275507926941,dog,bear,30,0412_ps_s05_30_bear_10_n02134418_6204.png
subject-05,1,413,0.671380996704102,boat,boat,60,0413_ps_s05_60_boat_10_n04273569_7097.png
subject-05,1,414,0.731674909591675,knife,knife,90,0414_ps_s05_90_knife_10_n03041632_7448.png
subject-05,1,415,1.50024604797363,boat,truck,150,0415_ps_s05_150_truck_10_n03417042_23440.png
subject-05,1,416,1.2942042350769,bird,bear,150,0416_ps_s05_150_bear_10_n02134418_10221.png
subject-05,1,417,0.700523138046265,clock,bear,150,0417_ps_s05_150_bear_10_n02132136_13578.png
subject-05,1,418,0.49324107170105,oven,cat,150,0418_ps_s05_150_cat_10_n02123159_6334.png
subject-05,1,419,0.651928901672363,boat,clock,150,0419_ps_s05_150_clock_10_n03196217_8638.png
subject-05,1,420,0.851031064987183,bear,bear,30,0420_ps_s05_30_bear_10_n02134418_9205.png
subject-05,1,421,1.17917394638062,cat,cat,120,0421_ps_s05_120_cat_10_n02124075_5921.png
subject-05,1,422,0.707288980484009,boat,elephant,180,0422_ps_s05_180_elephant_10_n02504013_24486.png
subject-05,1,423,0.759740829467773,oven,oven,60,0423_ps_s05_60_oven_10_n04111531_14279.png
subject-05,1,424,0.872265100479126,airplane,bear,120,0424_ps_s05_120_bear_10_n02134084_5100.png
subject-05,1,425,0.762845993041992,car,knife,150,0425_ps_s05_150_knife_10_n03041632_24100.png
subject-05,1,426,0.991031885147095,keyboard,car,120,0426_ps_s05_120_car_10_n04285008_6563.png
subject-05,1,427,1.2113630771637,truck,truck,60,0427_ps_s05_60_truck_10_n03417042_16688.png
subject-05,1,428,0.877563953399658,car,knife,180,0428_ps_s05_180_knife_10_n03041632_35260.png
subject-05,1,429,0.637743949890137,oven,chair,150,0429_ps_s05_150_chair_10_n03376595_4875.png
subject-05,1,430,0.79597806930542,bicycle,bicycle,30,0430_ps_s05_30_bicycle_10_n03792782_52262.png
subject-05,1,431,1.26255083084106,knife,keyboard,30,0431_ps_s05_30_keyboard_10_n03085013_23693.png
subject-05,1,432,0.814594030380249,chair,chair,120,0432_ps_s05_120_chair_10_n03376595_10908.png
subject-05,1,433,0.721292972564697,car,keyboard,180,0433_ps_s05_180_keyboard_10_n04505470_4950.png
subject-05,1,434,0.649208068847656,bottle,bottle,30,0434_ps_s05_30_bottle_10_n02823428_8221.png
subject-05,1,435,0.723778963088989,cat,cat,30,0435_ps_s05_30_cat_10_n02123045_9332.png
subject-05,1,436,0.844204187393188,car,clock,180,0436_ps_s05_180_clock_10_n04548280_6493.png
subject-05,1,437,0.666837930679321,boat,truck,90,0437_ps_s05_90_truck_10_n04467665_23758.png
subject-05,1,438,0.933081865310669,bird,bird,120,0438_ps_s05_120_bird_10_n01860187_24597.png
subject-05,1,439,0.761243104934692,elephant,elephant,30,0439_ps_s05_30_elephant_10_n02504013_22388.png
subject-05,1,440,0.743072032928467,boat,bird,120,0440_ps_s05_120_bird_10_n01530575_6245.png
subject-05,1,441,0.625797033309937,boat,chair,150,0441_ps_s05_150_chair_10_n02791124_146.png
subject-05,1,442,1.50011992454529,elephant,elephant,0,0442_ps_s05_0_elephant_10_n02504013_8516.png
subject-05,1,443,0.904336929321289,chair,chair,60,0443_ps_s05_60_chair_10_n02791124_3671.png
subject-05,1,444,1.09472584724426,truck,truck,0,0444_ps_s05_0_truck_10_n04467665_17183.png
subject-05,1,445,0.569308996200562,oven,oven,0,0445_ps_s05_0_oven_10_n04111531_21460.png
subject-05,1,446,0.65906286239624,dog,dog,0,0446_ps_s05_0_dog_10_n02086079_17015.png
subject-05,1,447,0.8416748046875,elephant,truck,180,0447_ps_s05_180_truck_10_n04467665_67315.png
subject-05,1,448,0.686080932617188,cat,airplane,180,0448_ps_s05_180_airplane_10_n02690373_2941.png
subject-05,1,449,0.836724042892456,car,keyboard,150,0449_ps_s05_150_keyboard_10_n04505470_4797.png
subject-05,1,450,0.751169919967651,bicycle,bicycle,120,0450_ps_s05_120_bicycle_10_n02835271_16017.png
subject-05,1,451,0.947686910629272,bird,cat,150,0451_ps_s05_150_cat_10_n02123597_12782.png
subject-05,1,452,1.09208798408508,car,knife,120,0452_ps_s05_120_knife_10_n03041632_83826.png
subject-05,1,453,0.641586780548096,bicycle,bicycle,120,0453_ps_s05_120_bicycle_10_n02835271_21540.png
subject-05,1,454,0.656070947647095,bottle,bottle,0,0454_ps_s05_0_bottle_10_n04591713_3662.png
subject-05,1,455,0.714078903198242,elephant,elephant,60,0455_ps_s05_60_elephant_10_n02504458_3570.png
subject-05,1,456,0.650399923324585,car,car,60,0456_ps_s05_60_car_10_n02814533_75767.png
subject-05,1,457,0.703232049942017,elephant,truck,180,0457_ps_s05_180_truck_10_n03417042_7506.png
subject-05,1,458,0.847454071044922,elephant,elephant,120,0458_ps_s05_120_elephant_10_n02504458_6938.png
subject-05,1,459,0.959462881088257,elephant,boat,150,0459_ps_s05_150_boat_10_n02951358_4968.png
subject-05,1,460,0.763626098632812,boat,knife,120,0460_ps_s05_120_knife_10_n03041632_24113.png
subject-05,1,461,0.684319972991943,cat,knife,180,0461_ps_s05_180_knife_10_n03041632_4879.png
subject-05,1,462,0.66592001914978,chair,chair,60,0462_ps_s05_60_chair_10_n04099969_23298.png
subject-05,1,463,0.848560094833374,truck,truck,30,0463_ps_s05_30_truck_10_n04467665_67938.png
subject-05,1,464,0.692640066146851,elephant,elephant,30,0464_ps_s05_30_elephant_10_n02504458_817.png
subject-05,1,465,1.42736005783081,boat,bicycle,30,0465_ps_s05_30_bicycle_10_n03792782_19111.png
subject-05,1,466,0.811661958694458,airplane,airplane,120,0466_ps_s05_120_airplane_10_n02690373_2607.png
subject-05,1,467,0.70845890045166,car,car,30,0467_ps_s05_30_car_10_n04285008_6951.png
subject-05,1,468,0.952604055404663,bear,bear,150,0468_ps_s05_150_bear_10_n02132136_22226.png
subject-05,1,469,1.28136301040649,truck,truck,90,0469_ps_s05_90_truck_10_n04467665_45611.png
subject-05,1,470,0.809859991073608,car,elephant,150,0470_ps_s05_150_elephant_10_n02504013_2986.png
subject-05,1,471,0.845978021621704,oven,knife,90,0471_ps_s05_90_knife_10_n03041632_22051.png
subject-05,1,472,0.76826810836792,airplane,airplane,60,0472_ps_s05_60_airplane_10_n02690373_20074.png
subject-05,1,473,0.856343030929565,car,clock,90,0473_ps_s05_90_clock_10_n03196217_3228.png
subject-05,1,474,0.693081140518188,elephant,elephant,60,0474_ps_s05_60_elephant_10_n02504013_6223.png
subject-05,1,475,0.713660001754761,airplane,airplane,90,0475_ps_s05_90_airplane_10_n02690373_3050.png
subject-05,1,476,1.21195507049561,elephant,elephant,60,0476_ps_s05_60_elephant_10_n02504458_2719.png
subject-05,1,477,0.570158958435059,car,cat,180,0477_ps_s05_180_cat_10_n02123394_2628.png
subject-05,1,478,0.70639181137085,boat,boat,90,0478_ps_s05_90_boat_10_n02951358_4826.png
subject-05,1,479,0.818794965744019,chair,chair,30,0479_ps_s05_30_chair_10_n03376595_9025.png
subject-05,1,480,0.617499828338623,boat,airplane,150,0480_ps_s05_150_airplane_10_n02690373_5786.png
subject-05,1,481,0.926692962646484,boat,boat,60,0481_ps_s05_60_boat_10_n03662601_13847.png
subject-05,1,482,0.602514028549194,elephant,elephant,90,0482_ps_s05_90_elephant_10_n02504458_169.png
subject-05,1,483,0.644564151763916,elephant,bear,0,0483_ps_s05_0_bear_10_n02132136_445.png
subject-05,1,484,1.01870203018188,knife,knife,60,0484_ps_s05_60_knife_10_n03041632_29285.png
subject-05,1,485,0.855439901351929,car,boat,180,0485_ps_s05_180_boat_10_n03344393_8204.png
subject-05,1,486,0.683486938476562,keyboard,bear,180,0486_ps_s05_180_bear_10_n02132136_6507.png
subject-05,1,487,0.911865949630737,bicycle,oven,120,0487_ps_s05_120_oven_10_n04111531_73.png
subject-05,1,488,0.632098913192749,chair,chair,0,0488_ps_s05_0_chair_10_n04099969_12218.png
subject-05,1,489,0.93060302734375,car,car,180,0489_ps_s05_180_car_10_n04285008_4868.png
subject-05,1,490,1.24848413467407,knife,knife,30,0490_ps_s05_30_knife_10_n03041632_28129.png
subject-05,1,491,1.21719002723694,car,bear,90,0491_ps_s05_90_bear_10_n02133161_15582.png
subject-05,1,492,0.999000787734985,bird,oven,180,0492_ps_s05_180_oven_10_n04111531_857.png
subject-05,1,493,0.849634885787964,bottle,bottle,0,0493_ps_s05_0_bottle_10_n04560804_14047.png
subject-05,1,494,0.864279985427856,truck,truck,30,0494_ps_s05_30_truck_10_n03417042_20650.png
subject-05,1,495,0.938643932342529,cat,keyboard,30,0495_ps_s05_30_keyboard_10_n03085013_15825.png
subject-05,1,496,1.48894500732422,truck,dog,90,0496_ps_s05_90_dog_10_n02107908_11938.png
subject-05,1,497,0.963064908981323,boat,boat,90,0497_ps_s05_90_boat_10_n03662601_32488.png
subject-05,1,498,1.17851614952087,airplane,airplane,0,0498_ps_s05_0_airplane_10_n02690373_748.png
subject-05,1,499,0.676750898361206,car,bird,150,0499_ps_s05_150_bird_10_n02018795_17557.png
subject-05,1,500,0.959318161010742,chair,chair,0,0500_ps_s05_0_chair_10_n04099969_14522.png
subject-05,1,501,0.787859916687012,truck,truck,60,0501_ps_s05_60_truck_10_n04467665_71927.png
subject-05,1,502,0.807648897171021,bottle,bottle,60,0502_ps_s05_60_bottle_10_n04560804_15849.png
subject-05,1,503,0.77408504486084,bottle,bottle,60,0503_ps_s05_60_bottle_10_n04579145_4797.png
subject-05,1,504,0.940251111984253,boat,dog,120,0504_ps_s05_120_dog_10_n02096294_64.png
subject-05,1,505,1.07669711112976,car,car,150,0505_ps_s05_150_car_10_n02814533_10594.png
subject-05,1,506,1.09708309173584,cat,chair,120,0506_ps_s05_120_chair_10_n04429376_30926.png
subject-05,1,507,0.803832054138184,airplane,airplane,90,0507_ps_s05_90_airplane_10_n02690373_6621.png
subject-05,1,508,0.64815092086792,car,clock,180,0508_ps_s05_180_clock_10_n03196217_5258.png
subject-05,1,509,1.12279582023621,bottle,bottle,90,0509_ps_s05_90_bottle_10_n04557648_30937.png
subject-05,1,510,0.583039045333862,car,car,60,0510_ps_s05_60_car_10_n03100240_4102.png
subject-05,1,511,0.816967010498047,oven,elephant,90,0511_ps_s05_90_elephant_10_n02504013_358.png
subject-05,1,512,0.585275888442993,cat,bottle,150,0512_ps_s05_150_bottle_10_n03937543_2713.png
subject-05,1,513,0.583879947662354,elephant,bear,30,0513_ps_s05_30_bear_10_n02134418_5480.png
subject-05,1,514,1.24208784103394,knife,knife,60,0514_ps_s05_60_knife_10_n03041632_29858.png
subject-05,1,515,1.13058805465698,knife,knife,30,0515_ps_s05_30_knife_10_n03041632_12748.png
subject-05,1,516,0.71500301361084,boat,oven,120,0516_ps_s05_120_oven_10_n04111531_13560.png
subject-05,1,517,0.542977094650269,oven,bird,180,0517_ps_s05_180_bird_10_n01537544_2755.png
subject-05,1,518,1.07740998268127,car,keyboard,120,0518_ps_s05_120_keyboard_10_n04505470_709.png
subject-05,1,519,0.576151132583618,boat,boat,30,0519_ps_s05_30_boat_10_n02951358_30200.png
subject-05,1,520,0.896554946899414,cat,cat,90,0520_ps_s05_90_cat_10_n02125311_55530.png
subject-05,1,521,0.610739946365356,bicycle,bicycle,0,0521_ps_s05_0_bicycle_10_n02835271_7685.png
subject-05,1,522,0.891149997711182,bird,bird,60,0522_ps_s05_60_bird_10_n01818515_8968.png
subject-05,1,523,0.927170991897583,car,clock,90,0523_ps_s05_90_clock_10_n02708093_8179.png
subject-05,1,524,0.801821947097778,knife,knife,0,0524_ps_s05_0_knife_10_n03041632_102764.png
subject-05,1,525,0.884314060211182,boat,clock,30,0525_ps_s05_30_clock_10_n03196217_8329.png
subject-05,1,526,0.744910955429077,oven,knife,150,0526_ps_s05_150_knife_10_n03041632_9256.png
subject-05,1,527,0.881618976593018,cat,cat,150,0527_ps_s05_150_cat_10_n02125311_41249.png
subject-05,1,528,0.669673919677734,bear,oven,150,0528_ps_s05_150_oven_10_n04111531_15682.png
subject-05,1,529,0.646123886108398,cat,cat,0,0529_ps_s05_0_cat_10_n02123045_2090.png
subject-05,1,530,0.942480087280273,boat,boat,90,0530_ps_s05_90_boat_10_n03344393_8510.png
subject-05,1,531,0.640724897384644,truck,truck,90,0531_ps_s05_90_truck_10_n04467665_41.png
subject-05,1,532,0.845103979110718,cat,oven,30,0532_ps_s05_30_oven_10_n04111531_3181.png
subject-05,1,533,0.613837957382202,truck,truck,60,0533_ps_s05_60_truck_10_n03796401_4868.png
subject-05,1,534,0.642171144485474,boat,boat,90,0534_ps_s05_90_boat_10_n03662601_5600.png
subject-05,1,535,1.08450794219971,elephant,chair,90,0535_ps_s05_90_chair_10_n02791124_4193.png
subject-05,1,536,0.729259967803955,car,bottle,120,0536_ps_s05_120_bottle_10_n03937543_2597.png
subject-05,1,537,0.727513074874878,cat,keyboard,180,0537_ps_s05_180_keyboard_10_n03085013_24099.png
subject-05,1,538,0.955836057662964,dog,dog,30,0538_ps_s05_30_dog_10_n02100236_9415.png
subject-05,1,539,1.17426896095276,bird,car,150,0539_ps_s05_150_car_10_n03100240_14168.png
subject-05,1,540,0.884735107421875,bottle,knife,30,0540_ps_s05_30_knife_10_n03041632_10796.png
subject-05,1,541,0.629118204116821,car,car,0,0541_ps_s05_0_car_10_n04285008_9234.png
subject-05,1,542,0.833322048187256,oven,dog,120,0542_ps_s05_120_dog_10_n02111129_6973.png
subject-05,1,543,0.999705076217651,clock,clock,60,0543_ps_s05_60_clock_10_n02708093_6624.png
subject-05,1,544,1.02801895141602,cat,bear,60,0544_ps_s05_60_bear_10_n02133161_13089.png
subject-05,1,545,0.666446924209595,boat,boat,0,0545_ps_s05_0_boat_10_n03662601_23478.png
subject-05,1,546,0.771079063415527,elephant,elephant,60,0546_ps_s05_60_elephant_10_n02504013_2755.png
subject-05,1,547,0.845629930496216,boat,bottle,180,0547_ps_s05_180_bottle_10_n03983396_587.png
subject-05,1,548,0.919883966445923,bird,bird,30,0548_ps_s05_30_bird_10_n02028035_5521.png
subject-05,1,549,0.918740034103394,car,oven,90,0549_ps_s05_90_oven_10_n04111531_22834.png
subject-05,1,550,0.860651016235352,cat,cat,90,0550_ps_s05_90_cat_10_n02123597_13394.png
subject-05,1,551,0.725116968154907,oven,clock,90,0551_ps_s05_90_clock_10_n02708093_7957.png
subject-05,1,552,1.1054060459137,car,oven,150,0552_ps_s05_150_oven_10_n04111531_9762.png
subject-05,1,553,1.05782508850098,clock,bear,180,0553_ps_s05_180_bear_10_n02133161_13010.png
subject-05,1,554,0.894170999526978,boat,boat,180,0554_ps_s05_180_boat_10_n03662601_16128.png
subject-05,1,555,NaN,na,bottle,120,0555_ps_s05_120_bottle_10_n04560804_5636.png
subject-05,1,556,0.805299997329712,dog,dog,0,0556_ps_s05_0_dog_10_n02088238_8116.png
subject-05,1,557,NaN,na,bird,60,0557_ps_s05_60_bird_10_n02018207_1588.png
subject-05,1,558,0.792046070098877,bird,bird,30,0558_ps_s05_30_bird_10_n01537544_2399.png
subject-05,1,559,0.644254922866821,boat,boat,0,0559_ps_s05_0_boat_10_n02951358_6659.png
subject-05,1,560,NaN,na,dog,180,0560_ps_s05_180_dog_10_n02113624_613.png
subject-05,1,561,1.05282497406006,dog,dog,60,0561_ps_s05_60_dog_10_n02095314_3883.png
subject-05,1,562,0.897467851638794,boat,cat,180,0562_ps_s05_180_cat_10_n02123045_3897.png
subject-05,1,563,0.825876951217651,car,boat,180,0563_ps_s05_180_boat_10_n02951358_6343.png
subject-05,1,564,0.93844199180603,boat,boat,60,0564_ps_s05_60_boat_10_n03344393_8670.png
subject-05,1,565,0.836934089660645,dog,dog,30,0565_ps_s05_30_dog_10_n02105641_12692.png
subject-05,1,566,1.50012016296387,bird,cat,90,0566_ps_s05_90_cat_10_n02125311_45953.png
subject-05,1,567,NaN,na,keyboard,0,0567_ps_s05_0_keyboard_10_n03085013_18851.png
subject-05,1,568,0.789812088012695,keyboard,keyboard,60,0568_ps_s05_60_keyboard_10_n03085013_5738.png
subject-05,1,569,0.812495946884155,airplane,airplane,30,0569_ps_s05_30_airplane_10_n02690373_7036.png
subject-05,1,570,1.5003399848938,boat,airplane,30,0570_ps_s05_30_airplane_10_n02690373_6543.png
subject-05,1,571,0.921195030212402,car,car,30,0571_ps_s05_30_car_10_n04285008_8545.png
subject-05,1,572,0.941304922103882,boat,dog,180,0572_ps_s05_180_dog_10_n02093256_2838.png
subject-05,1,573,0.709887027740479,oven,chair,180,0573_ps_s05_180_chair_10_n03376595_4228.png
subject-05,1,574,1.01407098770142,elephant,elephant,90,0574_ps_s05_90_elephant_10_n02504458_2583.png
subject-05,1,575,0.820543050765991,cat,cat,0,0575_ps_s05_0_cat_10_n02123394_1602.png
subject-05,1,576,0.870821952819824,car,knife,180,0576_ps_s05_180_knife_10_n03041632_1884.png
subject-05,1,577,1.07536792755127,cat,truck,90,0577_ps_s05_90_truck_10_n03796401_4791.png
subject-05,1,578,0.912004947662354,car,car,150,0578_ps_s05_150_car_10_n03100240_12874.png
subject-05,1,579,1.02434802055359,boat,boat,120,0579_ps_s05_120_boat_10_n04273569_2143.png
subject-05,1,580,0.709121942520142,car,car,0,0580_ps_s05_0_car_10_n02814533_37381.png
subject-05,1,581,1.10505390167236,boat,cat,120,0581_ps_s05_120_cat_10_n02123394_3503.png
subject-05,1,582,0.859045028686523,airplane,airplane,0,0582_ps_s05_0_airplane_10_n02690373_2468.png
subject-05,1,583,0.879395008087158,bottle,bottle,30,0583_ps_s05_30_bottle_10_n04591713_360.png
subject-05,1,584,0.839837074279785,boat,bear,120,0584_ps_s05_120_bear_10_n02133161_12894.png
subject-05,1,585,0.998090982437134,cat,clock,30,0585_ps_s05_30_clock_10_n04548280_3156.png
subject-05,1,586,1.14276313781738,bottle,bottle,150,0586_ps_s05_150_bottle_10_n02823428_2488.png
subject-05,1,587,1.06046605110168,knife,knife,0,0587_ps_s05_0_knife_10_n03041632_7090.png
subject-05,1,588,1.05886006355286,cat,cat,90,0588_ps_s05_90_cat_10_n02123045_7500.png
subject-05,1,589,0.979566097259521,boat,airplane,30,0589_ps_s05_30_airplane_10_n02690373_4079.png
subject-05,1,590,1.00803995132446,bear,bear,0,0590_ps_s05_0_bear_10_n02134084_18602.png
subject-05,1,591,0.876591920852661,airplane,airplane,60,0591_ps_s05_60_airplane_10_n02690373_807.png
subject-05,1,592,0.967012166976929,car,chair,180,0592_ps_s05_180_chair_10_n02791124_6128.png
subject-05,1,593,0.687551975250244,cat,cat,60,0593_ps_s05_60_cat_10_n02123045_2364.png
subject-05,1,594,0.815839052200317,clock,clock,30,0594_ps_s05_30_clock_10_n04548280_5426.png
subject-05,1,595,0.560312032699585,cat,cat,30,0595_ps_s05_30_cat_10_n02123597_4262.png
subject-05,1,596,0.810295104980469,car,knife,120,0596_ps_s05_120_knife_10_n03041632_24998.png
subject-05,1,597,0.606569051742554,oven,truck,180,0597_ps_s05_180_truck_10_n04467665_29513.png
subject-05,1,598,0.918738842010498,car,cat,90,0598_ps_s05_90_cat_10_n02123394_7701.png
subject-05,1,599,1.0329921245575,bicycle,bicycle,60,0599_ps_s05_60_bicycle_10_n02835271_10424.png
subject-05,1,600,0.845647096633911,cat,keyboard,90,0600_ps_s05_90_keyboard_10_n04505470_3107.png
subject-05,1,601,0.857877969741821,car,chair,120,0601_ps_s05_120_chair_10_n02791124_3857.png
subject-05,1,602,0.769765853881836,bottle,bottle,30,0602_ps_s05_30_bottle_10_n04591713_3726.png
subject-05,1,603,0.914561033248901,car,bear,150,0603_ps_s05_150_bear_10_n02133161_8661.png
subject-05,1,604,0.812932014465332,cat,cat,30,0604_ps_s05_30_cat_10_n02124075_11252.png
subject-05,1,605,0.993208169937134,dog,dog,30,0605_ps_s05_30_dog_10_n02097658_4869.png
subject-05,1,606,0.828984975814819,airplane,airplane,0,0606_ps_s05_0_airplane_10_n02690373_11908.png
subject-05,1,607,0.727550029754639,boat,boat,60,0607_ps_s05_60_boat_10_n04612504_19388.png
subject-05,1,608,0.656137943267822,boat,boat,120,0608_ps_s05_120_boat_10_n03344393_1484.png
subject-05,1,609,0.652501106262207,clock,bicycle,150,0609_ps_s05_150_bicycle_10_n02835271_8304.png
subject-05,1,610,0.835000038146973,airplane,airplane,60,0610_ps_s05_60_airplane_10_n02690373_9642.png
subject-05,1,611,1.13162589073181,car,oven,60,0611_ps_s05_60_oven_10_n04111531_14055.png
subject-05,1,612,1.06837606430054,bird,chair,120,0612_ps_s05_120_chair_10_n04429376_4135.png
subject-05,1,613,0.884706974029541,cat,keyboard,150,0613_ps_s05_150_keyboard_10_n04505470_2156.png
subject-05,1,614,1.22945308685303,elephant,elephant,90,0614_ps_s05_90_elephant_10_n02504458_7331.png
subject-05,1,615,0.703389167785645,chair,chair,0,0615_ps_s05_0_chair_10_n04099969_3109.png
subject-05,1,616,0.648198843002319,bear,bear,30,0616_ps_s05_30_bear_10_n02132136_5503.png
subject-05,1,617,0.698657035827637,car,dog,120,0617_ps_s05_120_dog_10_n02091032_11468.png
subject-05,1,618,0.764775037765503,dog,dog,60,0618_ps_s05_60_dog_10_n02107312_2530.png
subject-05,1,619,1.17674589157104,bird,dog,120,0619_ps_s05_120_dog_10_n02104029_4340.png
subject-05,1,620,0.767002820968628,bicycle,bicycle,90,0620_ps_s05_90_bicycle_10_n03792782_8847.png
subject-05,1,621,0.847378015518188,boat,airplane,150,0621_ps_s05_150_airplane_10_n02690373_4754.png
subject-05,1,622,0.791198968887329,bear,bear,90,0622_ps_s05_90_bear_10_n02133161_1612.png
subject-05,1,623,0.842005968093872,car,chair,180,0623_ps_s05_180_chair_10_n04429376_16192.png
subject-05,1,624,0.724200010299683,clock,oven,180,0624_ps_s05_180_oven_10_n04111531_5110.png
subject-05,1,625,1.04504489898682,dog,chair,90,0625_ps_s05_90_chair_10_n04429376_7888.png
subject-05,1,626,0.964715957641602,clock,knife,120,0626_ps_s05_120_knife_10_n03041632_362.png
subject-05,1,627,1.18522810935974,car,boat,150,0627_ps_s05_150_boat_10_n03344393_7148.png
subject-05,1,628,1.26753520965576,boat,clock,180,0628_ps_s05_180_clock_10_n03196217_3162.png
subject-05,1,629,1.10413408279419,clock,clock,90,0629_ps_s05_90_clock_10_n02708093_1124.png
subject-05,1,630,0.962467908859253,cat,bird,60,0630_ps_s05_60_bird_10_n02002556_5848.png
subject-05,1,631,1.2510290145874,airplane,boat,0,0631_ps_s05_0_boat_10_n04273569_14265.png
subject-05,1,632,1.16542291641235,boat,dog,150,0632_ps_s05_150_dog_10_n02099429_3771.png
subject-05,1,633,1.50007820129395,oven,chair,0,0633_ps_s05_0_chair_10_n04429376_24073.png
subject-05,1,634,1.3226580619812,clock,bicycle,60,0634_ps_s05_60_bicycle_10_n03792782_15101.png
subject-05,1,635,1.07317590713501,oven,chair,90,0635_ps_s05_90_chair_10_n03376595_6012.png
subject-05,1,636,0.670459985733032,cat,cat,30,0636_ps_s05_30_cat_10_n02124075_10193.png
subject-05,1,637,0.628943920135498,bicycle,boat,60,0637_ps_s05_60_boat_10_n02951358_31127.png
subject-05,1,638,0.855251789093018,boat,car,120,0638_ps_s05_120_car_10_n03100240_3373.png
subject-05,1,639,0.599384069442749,clock,clock,0,0639_ps_s05_0_clock_10_n02708093_1165.png
subject-05,1,640,0.665714025497437,bottle,bottle,30,0640_ps_s05_30_bottle_10_n03937543_1519.png
subject-05,1,641,0.870728015899658,car,truck,90,0641_ps_s05_90_truck_10_n04467665_23695.png
subject-05,1,642,0.915095090866089,oven,oven,60,0642_ps_s05_60_oven_10_n04111531_8462.png
subject-05,1,643,1.06550598144531,dog,elephant,90,0643_ps_s05_90_elephant_10_n02504013_874.png
subject-05,1,644,0.809696912765503,keyboard,bird,180,0644_ps_s05_180_bird_10_n01855672_2402.png
subject-05,1,645,0.981165885925293,car,elephant,150,0645_ps_s05_150_elephant_10_n02504013_8298.png
subject-05,1,646,1.04770112037659,airplane,airplane,0,0646_ps_s05_0_airplane_10_n02690373_866.png
subject-05,1,647,1.06819581985474,boat,cat,120,0647_ps_s05_120_cat_10_n02125311_53223.png
subject-05,1,648,1.45598697662354,car,chair,150,0648_ps_s05_150_chair_10_n02791124_4938.png
subject-05,1,649,1.17830514907837,cat,dog,120,0649_ps_s05_120_dog_10_n02097130_60.png
subject-05,1,650,1.06689190864563,cat,chair,30,0650_ps_s05_30_chair_10_n02791124_6796.png
subject-05,1,651,0.848773956298828,dog,cat,180,0651_ps_s05_180_cat_10_n02124075_9020.png
subject-05,1,652,0.709135055541992,dog,dog,0,0652_ps_s05_0_dog_10_n02111500_9037.png
subject-05,1,653,0.791553974151611,bottle,bottle,90,0653_ps_s05_90_bottle_10_n03937543_919.png
subject-05,1,654,0.8798668384552,bottle,bottle,60,0654_ps_s05_60_bottle_10_n04560804_11350.png
subject-05,1,655,1.09239506721497,car,car,150,0655_ps_s05_150_car_10_n02814533_83806.png
subject-05,1,656,0.690623044967651,bird,car,180,0656_ps_s05_180_car_10_n02814533_48107.png
subject-05,1,657,1.03308081626892,elephant,bicycle,180,0657_ps_s05_180_bicycle_10_n02835271_9482.png
subject-05,1,658,0.769602060317993,bottle,bird,150,0658_ps_s05_150_bird_10_n02037110_7759.png
subject-05,1,659,0.751827955245972,boat,bird,90,0659_ps_s05_90_bird_10_n01860187_9.png
subject-05,1,660,0.834480047225952,dog,bear,30,0660_ps_s05_30_bear_10_n02134084_666.png
subject-05,1,661,0.960762977600098,car,bear,120,0661_ps_s05_120_bear_10_n02132136_29146.png
subject-05,1,662,1.28078603744507,dog,cat,0,0662_ps_s05_0_cat_10_n02123045_3198.png
subject-05,1,663,0.600857019424438,clock,clock,0,0663_ps_s05_0_clock_10_n04548280_6319.png
subject-05,1,664,1.0748348236084,oven,bottle,90,0664_ps_s05_90_bottle_10_n04557648_10401.png
subject-05,1,665,0.543419122695923,car,car,60,0665_ps_s05_60_car_10_n02814533_78922.png
subject-05,1,666,0.86213207244873,boat,oven,120,0666_ps_s05_120_oven_10_n04111531_1004.png
subject-05,1,667,0.782248020172119,dog,dog,30,0667_ps_s05_30_dog_10_n02107683_3158.png
subject-05,1,668,1.02679705619812,bottle,bottle,0,0668_ps_s05_0_bottle_10_n02823428_417.png
subject-05,1,669,1.02240490913391,boat,boat,0,0669_ps_s05_0_boat_10_n04273569_2942.png
subject-05,1,670,0.770803928375244,keyboard,keyboard,0,0670_ps_s05_0_keyboard_10_n04505470_3981.png
subject-05,1,671,1.15122103691101,car,clock,150,0671_ps_s05_150_clock_10_n02708093_9.png
subject-05,1,672,1.50037097930908,bird,truck,180,0672_ps_s05_180_truck_10_n03417042_1225.png
subject-05,1,673,1.50029706954956,bottle,dog,120,0673_ps_s05_120_dog_10_n02087394_11139.png
subject-05,1,674,0.698831081390381,boat,boat,30,0674_ps_s05_30_boat_10_n03662601_12270.png
subject-05,1,675,1.44135189056396,boat,truck,120,0675_ps_s05_120_truck_10_n04467665_23112.png
subject-05,1,676,1.09946799278259,keyboard,chair,30,0676_ps_s05_30_chair_10_n04099969_16161.png
subject-05,1,677,1.33539390563965,oven,keyboard,180,0677_ps_s05_180_keyboard_10_n03085013_20882.png
subject-05,1,678,0.579948902130127,boat,dog,120,0678_ps_s05_120_dog_10_n02110806_13941.png
subject-05,1,679,0.754432916641235,chair,knife,90,0679_ps_s05_90_knife_10_n03041632_21590.png
subject-05,1,680,0.920853853225708,car,airplane,150,0680_ps_s05_150_airplane_10_n02690373_4134.png
subject-05,1,681,0.848443031311035,elephant,bear,90,0681_ps_s05_90_bear_10_n02134084_16455.png
subject-05,1,682,1.12896084785461,clock,clock,0,0682_ps_s05_0_clock_10_n04548280_1055.png
subject-05,1,683,NaN,na,bird,90,0683_ps_s05_90_bird_10_n01833805_11893.png
subject-05,1,684,0.580250978469849,truck,truck,0,0684_ps_s05_0_truck_10_n04467665_8851.png
subject-05,1,685,0.800586938858032,airplane,airplane,120,0685_ps_s05_120_airplane_10_n02690373_1436.png
subject-05,1,686,0.859032154083252,boat,car,180,0686_ps_s05_180_car_10_n02814533_55399.png
subject-05,1,687,0.979399919509888,elephant,dog,150,0687_ps_s05_150_dog_10_n02092339_4925.png
subject-05,1,688,1.09728312492371,bird,elephant,120,0688_ps_s05_120_elephant_10_n02504013_1602.png
subject-05,1,689,1.04192900657654,bicycle,bicycle,90,0689_ps_s05_90_bicycle_10_n02835271_25033.png
subject-05,1,690,1.00231909751892,car,airplane,180,0690_ps_s05_180_airplane_10_n02690373_2692.png
subject-05,1,691,0.815017938613892,bird,bird,60,0691_ps_s05_60_bird_10_n02002556_5427.png
subject-05,1,692,0.719251155853271,dog,dog,30,0692_ps_s05_30_dog_10_n02105855_5527.png
subject-05,1,693,0.717756032943726,keyboard,airplane,180,0693_ps_s05_180_airplane_10_n02690373_6319.png
subject-05,1,694,0.714284181594849,dog,dog,0,0694_ps_s05_0_dog_10_n02099429_1200.png
subject-05,1,695,0.672032117843628,car,bird,120,0695_ps_s05_120_bird_10_n01622779_2250.png
subject-05,1,696,0.670541048049927,dog,dog,30,0696_ps_s05_30_dog_10_n02088094_1705.png
subject-05,1,697,1.23500800132751,car,oven,150,0697_ps_s05_150_oven_10_n04111531_9322.png
subject-05,1,698,0.895359992980957,cat,bicycle,150,0698_ps_s05_150_bicycle_10_n03792782_4796.png
subject-05,1,699,0.961848020553589,bird,bird,30,0699_ps_s05_30_bird_10_n01530575_1374.png
subject-05,1,700,0.782583951950073,bear,bear,0,0700_ps_s05_0_bear_10_n02134418_3964.png
subject-05,1,701,1.16479396820068,elephant,bear,120,0701_ps_s05_120_bear_10_n02133161_4219.png
subject-05,1,702,NaN,na,knife,30,0702_ps_s05_30_knife_10_n03041632_18468.png
subject-05,1,703,1.27317905426025,knife,bottle,30,0703_ps_s05_30_bottle_10_n04591713_10569.png
subject-05,1,704,0.901472091674805,bird,bird,90,0704_ps_s05_90_bird_10_n01828970_146.png
subject-05,1,705,1.32743906974792,oven,keyboard,90,0705_ps_s05_90_keyboard_10_n03085013_24653.png
subject-05,1,706,1.20161390304565,oven,knife,180,0706_ps_s05_180_knife_10_n03041632_22190.png
subject-05,1,707,0.808165073394775,boat,bottle,120,0707_ps_s05_120_bottle_10_n04579145_393.png
subject-05,1,708,0.79850697517395,truck,truck,0,0708_ps_s05_0_truck_10_n03796401_22241.png
subject-05,1,709,0.887064933776855,clock,clock,120,0709_ps_s05_120_clock_10_n04548280_8210.png
subject-05,1,710,0.953443050384521,car,keyboard,180,0710_ps_s05_180_keyboard_10_n03085013_14237.png
subject-05,1,711,0.730002880096436,boat,truck,150,0711_ps_s05_150_truck_10_n03417042_11602.png
subject-05,1,712,0.888551950454712,keyboard,keyboard,60,0712_ps_s05_60_keyboard_10_n03085013_974.png
subject-05,1,713,0.892988204956055,dog,elephant,120,0713_ps_s05_120_elephant_10_n02504458_3160.png
subject-05,1,714,0.851713180541992,elephant,elephant,60,0714_ps_s05_60_elephant_10_n02504013_5216.png
subject-05,1,715,1.15575695037842,dog,dog,60,0715_ps_s05_60_dog_10_n02094258_5413.png
subject-05,1,716,1.02235102653503,truck,keyboard,90,0716_ps_s05_90_keyboard_10_n04505470_2481.png
subject-05,1,717,1.50026297569275,elephant,bear,90,0717_ps_s05_90_bear_10_n02134084_3895.png
subject-05,1,718,1.13270783424377,car,truck,120,0718_ps_s05_120_truck_10_n04467665_62621.png
subject-05,1,719,1.06942987442017,bird,bird,60,0719_ps_s05_60_bird_10_n01855672_7757.png
subject-05,1,720,1.39605903625488,cat,elephant,120,0720_ps_s05_120_elephant_10_n02504013_8215.png
subject-05,1,721,1.1638810634613,car,oven,150,0721_ps_s05_150_oven_10_n04111531_13391.png
subject-05,1,722,0.944184064865112,boat,oven,180,0722_ps_s05_180_oven_10_n04111531_8350.png
subject-05,1,723,0.796421051025391,car,car,120,0723_ps_s05_120_car_10_n04285008_16775.png
subject-05,1,724,0.759965896606445,boat,bottle,90,0724_ps_s05_90_bottle_10_n04557648_7669.png
subject-05,1,725,1.0646378993988,car,boat,150,0725_ps_s05_150_boat_10_n02951358_7835.png
subject-05,1,726,0.8928542137146,bicycle,bicycle,0,0726_ps_s05_0_bicycle_10_n03792782_10876.png
subject-05,1,727,0.904152870178223,dog,cat,60,0727_ps_s05_60_cat_10_n02123045_7154.png
subject-05,1,728,0.878622055053711,dog,dog,0,0728_ps_s05_0_dog_10_n02106030_7408.png
subject-05,1,729,1.18247199058533,bird,cat,90,0729_ps_s05_90_cat_10_n02125311_20423.png
subject-05,1,730,1.12711596488953,car,dog,180,0730_ps_s05_180_dog_10_n02111500_8189.png
subject-05,1,731,1.0235869884491,bicycle,bicycle,0,0731_ps_s05_0_bicycle_10_n03792782_3338.png
subject-05,1,732,1.28987216949463,keyboard,dog,150,0732_ps_s05_150_dog_10_n02092002_7172.png
subject-05,1,733,0.942652940750122,car,oven,0,0733_ps_s05_0_oven_10_n04111531_81.png
subject-05,1,734,1.02502489089966,oven,cat,180,0734_ps_s05_180_cat_10_n02123159_7828.png
subject-05,1,735,0.929126024246216,keyboard,keyboard,0,0735_ps_s05_0_keyboard_10_n04505470_1077.png
subject-05,1,736,1.02525520324707,bear,bear,0,0736_ps_s05_0_bear_10_n02134084_3696.png
subject-05,1,737,0.969928979873657,oven,bird,120,0737_ps_s05_120_bird_10_n01818515_7676.png
subject-05,1,738,0.606380939483643,boat,knife,150,0738_ps_s05_150_knife_10_n03041632_43289.png
subject-05,1,739,0.748960971832275,car,cat,120,0739_ps_s05_120_cat_10_n02123394_6755.png
subject-05,1,740,0.93128514289856,oven,elephant,120,0740_ps_s05_120_elephant_10_n02504013_20780.png
subject-05,1,741,1.20584487915039,boat,boat,120,0741_ps_s05_120_boat_10_n02951358_2213.png
subject-05,1,742,0.712273836135864,clock,knife,180,0742_ps_s05_180_knife_10_n03041632_23667.png
subject-05,1,743,1.02262902259827,keyboard,oven,90,0743_ps_s05_90_oven_10_n04111531_5897.png
subject-05,1,744,1.06708312034607,boat,elephant,60,0744_ps_s05_60_elephant_10_n02504013_5963.png
subject-05,1,745,0.878994941711426,keyboard,keyboard,30,0745_ps_s05_30_keyboard_10_n04505470_6272.png
subject-05,1,746,0.86171293258667,car,clock,120,0746_ps_s05_120_clock_10_n04548280_8278.png
subject-05,1,747,0.80433988571167,bottle,bird,150,0747_ps_s05_150_bird_10_n02028035_9011.png
subject-05,1,748,0.840487957000732,bottle,bottle,30,0748_ps_s05_30_bottle_10_n04560804_15696.png
subject-05,1,749,0.884959936141968,bicycle,bicycle,120,0749_ps_s05_120_bicycle_10_n03792782_4629.png
subject-05,1,750,0.681662082672119,car,elephant,150,0750_ps_s05_150_elephant_10_n02504013_10463.png
subject-05,1,751,0.734211921691895,cat,keyboard,150,0751_ps_s05_150_keyboard_10_n03085013_19439.png
subject-05,1,752,0.578612089157104,oven,bicycle,150,0752_ps_s05_150_bicycle_10_n02835271_20907.png
subject-05,1,753,0.712694883346558,clock,clock,30,0753_ps_s05_30_clock_10_n03196217_868.png
subject-05,1,754,0.953641891479492,car,keyboard,120,0754_ps_s05_120_keyboard_10_n04505470_1288.png
subject-05,1,755,0.849462985992432,cat,keyboard,180,0755_ps_s05_180_keyboard_10_n03085013_21282.png
subject-05,1,756,0.739989995956421,dog,dog,30,0756_ps_s05_30_dog_10_n02094114_6265.png
subject-05,1,757,0.968457937240601,oven,elephant,150,0757_ps_s05_150_elephant_10_n02504013_10377.png
subject-05,1,758,1.0867018699646,boat,bird,90,0758_ps_s05_90_bird_10_n02017213_11810.png
subject-05,1,759,0.885462999343872,bottle,bottle,120,0759_ps_s05_120_bottle_10_n03937543_4829.png
subject-05,1,760,NaN,na,dog,60,0760_ps_s05_60_dog_10_n02097298_10102.png
subject-05,1,761,0.809662103652954,airplane,airplane,60,0761_ps_s05_60_airplane_10_n02690373_6755.png
subject-05,1,762,0.983938932418823,car,oven,120,0762_ps_s05_120_oven_10_n04111531_22327.png
subject-05,1,763,0.725117921829224,clock,clock,60,0763_ps_s05_60_clock_10_n04548280_2654.png
subject-05,1,764,1.02969193458557,keyboard,car,120,0764_ps_s05_120_car_10_n04285008_3269.png
subject-05,1,765,1.15811109542847,elephant,bear,60,0765_ps_s05_60_bear_10_n02133161_5828.png
subject-05,1,766,NaN,na,elephant,0,0766_ps_s05_0_elephant_10_n02504013_20.png
subject-05,1,767,0.660347938537598,truck,truck,30,0767_ps_s05_30_truck_10_n03796401_12730.png
subject-05,1,768,0.818524837493896,car,chair,120,0768_ps_s05_120_chair_10_n03376595_389.png
subject-05,1,769,0.838726997375488,bottle,bottle,0,0769_ps_s05_0_bottle_10_n03983396_1792.png
subject-05,1,770,1.08093690872192,bear,bear,60,0770_ps_s05_60_bear_10_n02132136_3224.png
subject-05,1,771,0.971353054046631,clock,clock,0,0771_ps_s05_0_clock_10_n02708093_742.png
subject-05,1,772,0.975683927536011,car,oven,120,0772_ps_s05_120_oven_10_n04111531_17809.png
subject-05,1,773,0.963953018188477,truck,truck,120,0773_ps_s05_120_truck_10_n03417042_6373.png
subject-05,1,774,0.679660081863403,cat,cat,150,0774_ps_s05_150_cat_10_n02123159_5678.png
subject-05,1,775,0.770272016525269,clock,clock,0,0775_ps_s05_0_clock_10_n04548280_332.png
subject-05,1,776,0.666639804840088,oven,bottle,180,0776_ps_s05_180_bottle_10_n03937543_3358.png
subject-05,1,777,0.795224189758301,cat,cat,0,0777_ps_s05_0_cat_10_n02124075_88.png
subject-05,1,778,0.923505067825317,car,knife,90,0778_ps_s05_90_knife_10_n03041632_30958.png
subject-05,1,779,0.851983070373535,boat,bottle,150,0779_ps_s05_150_bottle_10_n04560804_17783.png
subject-05,1,780,1.11621308326721,airplane,airplane,30,0780_ps_s05_30_airplane_10_n02690373_17307.png
subject-05,1,781,0.88454008102417,car,keyboard,150,0781_ps_s05_150_keyboard_10_n03085013_23916.png
subject-05,1,782,0.942727088928223,car,car,0,0782_ps_s05_0_car_10_n04285008_9501.png
subject-05,1,783,1.30941796302795,boat,boat,30,0783_ps_s05_30_boat_10_n03662601_17465.png
subject-05,1,784,0.73739218711853,bicycle,bicycle,30,0784_ps_s05_30_bicycle_10_n02835271_7621.png
subject-05,1,785,0.833881139755249,car,chair,180,0785_ps_s05_180_chair_10_n04099969_1825.png
subject-05,1,786,0.800364017486572,car,car,0,0786_ps_s05_0_car_10_n04285008_15101.png
subject-05,1,787,0.607153177261353,oven,truck,150,0787_ps_s05_150_truck_10_n03796401_2030.png
subject-05,1,788,0.573282957077026,boat,bear,0,0788_ps_s05_0_bear_10_n02132136_7259.png
subject-05,1,789,0.623699903488159,boat,airplane,120,0789_ps_s05_120_airplane_10_n02690373_4839.png
subject-05,1,790,0.766077995300293,chair,chair,30,0790_ps_s05_30_chair_10_n03376595_4669.png
subject-05,1,791,1.16219711303711,clock,chair,150,0791_ps_s05_150_chair_10_n04099969_12546.png
subject-05,1,792,0.960438966751099,boat,dog,120,0792_ps_s05_120_dog_10_n02094114_2736.png
subject-05,1,793,0.780396938323975,knife,knife,120,0793_ps_s05_120_knife_10_n03041632_11358.png
subject-05,1,794,0.823171138763428,knife,knife,0,0794_ps_s05_0_knife_10_n03041632_11887.png
subject-05,1,795,0.981060028076172,keyboard,keyboard,120,0795_ps_s05_120_keyboard_10_n04505470_9514.png
subject-05,1,796,0.671290159225464,bird,bird,30,0796_ps_s05_30_bird_10_n01531178_2861.png
subject-05,1,797,0.735699892044067,keyboard,keyboard,60,0797_ps_s05_60_keyboard_10_n04505470_2250.png
subject-05,1,798,0.734052896499634,chair,chair,60,0798_ps_s05_60_chair_10_n02791124_5512.png
subject-05,1,799,0.960384130477905,elephant,dog,180,0799_ps_s05_180_dog_10_n02102318_14892.png
subject-05,1,800,0.551167011260986,cat,cat,90,0800_ps_s05_90_cat_10_n02123045_16940.png
subject-05,1,801,0.842432022094727,car,cat,120,0801_ps_s05_120_cat_10_n02123394_2283.png
subject-05,1,802,0.724894046783447,oven,oven,30,0802_ps_s05_30_oven_10_n04111531_7717.png
subject-05,1,803,0.707365989685059,chair,chair,60,0803_ps_s05_60_chair_10_n04099969_23803.png
subject-05,1,804,0.657459020614624,keyboard,bird,150,0804_ps_s05_150_bird_10_n01795545_12957.png
subject-05,1,805,0.867480039596558,bear,bear,90,0805_ps_s05_90_bear_10_n02134084_982.png
subject-05,1,806,0.749713182449341,boat,boat,30,0806_ps_s05_30_boat_10_n04273569_24747.png
subject-05,1,807,1.18414807319641,airplane,airplane,90,0807_ps_s05_90_airplane_10_n02690373_9849.png
subject-05,1,808,0.591064214706421,clock,clock,120,0808_ps_s05_120_clock_10_n04548280_3299.png
subject-05,1,809,1.11669206619263,bear,bird,120,0809_ps_s05_120_bird_10_n01514859_1623.png
subject-05,1,810,1.22939991950989,cat,dog,90,0810_ps_s05_90_dog_10_n02091134_14315.png
subject-05,1,811,1.06568098068237,oven,knife,60,0811_ps_s05_60_knife_10_n03041632_90407.png
subject-05,1,812,0.577975988388062,bicycle,bicycle,30,0812_ps_s05_30_bicycle_10_n03792782_41388.png
subject-05,1,813,0.790253877639771,boat,airplane,90,0813_ps_s05_90_airplane_10_n02690373_9175.png
subject-05,1,814,0.726864099502563,car,clock,180,0814_ps_s05_180_clock_10_n03196217_4526.png
subject-05,1,815,0.718353986740112,truck,bear,150,0815_ps_s05_150_bear_10_n02133161_15386.png
subject-05,1,816,0.652616024017334,keyboard,bear,180,0816_ps_s05_180_bear_10_n02134418_1229.png
subject-05,1,817,0.785991907119751,bicycle,bicycle,60,0817_ps_s05_60_bicycle_10_n03792782_11023.png
subject-05,1,818,0.792232036590576,keyboard,keyboard,90,0818_ps_s05_90_keyboard_10_n03085013_4856.png
subject-05,1,819,0.772813081741333,bottle,bottle,60,0819_ps_s05_60_bottle_10_n04591713_15073.png
subject-05,1,820,0.839191913604736,car,bottle,180,0820_ps_s05_180_bottle_10_n03937543_2395.png
subject-05,1,821,0.759774923324585,truck,truck,0,0821_ps_s05_0_truck_10_n03417042_6187.png
subject-05,1,822,0.649878025054932,bird,bird,90,0822_ps_s05_90_bird_10_n02056570_2946.png
subject-05,1,823,0.594482183456421,boat,boat,120,0823_ps_s05_120_boat_10_n04273569_12204.png
subject-05,1,824,1.00678896903992,bottle,clock,90,0824_ps_s05_90_clock_10_n03196217_7971.png
subject-05,1,825,0.773480892181396,chair,chair,60,0825_ps_s05_60_chair_10_n04429376_16677.png
subject-05,1,826,0.561564922332764,keyboard,keyboard,0,0826_ps_s05_0_keyboard_10_n04505470_4655.png
subject-05,1,827,0.627753973007202,boat,boat,90,0827_ps_s05_90_boat_10_n02951358_26463.png
subject-05,1,828,0.563935041427612,chair,chair,30,0828_ps_s05_30_chair_10_n04099969_7399.png
subject-05,1,829,0.71430492401123,clock,chair,180,0829_ps_s05_180_chair_10_n02791124_10287.png
subject-05,1,830,0.935007095336914,keyboard,oven,150,0830_ps_s05_150_oven_10_n04111531_6536.png
subject-05,1,831,0.8469398021698,car,chair,180,0831_ps_s05_180_chair_10_n04429376_5542.png
subject-05,1,832,0.989495992660522,boat,airplane,90,0832_ps_s05_90_airplane_10_n02690373_1733.png
subject-05,1,833,1.08777117729187,cat,truck,180,0833_ps_s05_180_truck_10_n03417042_5748.png
subject-05,1,834,1.10032987594604,oven,truck,180,0834_ps_s05_180_truck_10_n03417042_25940.png
subject-05,1,835,0.982880830764771,bird,bird,90,0835_ps_s05_90_bird_10_n02056570_6351.png
subject-05,1,836,0.757153034210205,cat,boat,180,0836_ps_s05_180_boat_10_n04612504_3904.png
subject-05,1,837,0.794648885726929,knife,knife,30,0837_ps_s05_30_knife_10_n03041632_11186.png
subject-05,1,838,0.768399953842163,truck,truck,0,0838_ps_s05_0_truck_10_n03417042_20919.png
subject-05,1,839,0.780685901641846,truck,truck,30,0839_ps_s05_30_truck_10_n03417042_12486.png
subject-05,1,840,1.00710797309875,car,car,60,0840_ps_s05_60_car_10_n02814533_40913.png
subject-05,1,841,0.667290925979614,bird,bird,90,0841_ps_s05_90_bird_10_n02025239_477.png
subject-05,1,842,0.617223024368286,airplane,airplane,60,0842_ps_s05_60_airplane_10_n02690373_4506.png
subject-05,1,843,0.567611932754517,cat,cat,90,0843_ps_s05_90_cat_10_n02123045_11668.png
subject-05,1,844,1.50001406669617,dog,dog,0,0844_ps_s05_0_dog_10_n02092002_1253.png
subject-05,1,845,0.684628963470459,elephant,elephant,30,0845_ps_s05_30_elephant_10_n02504458_3599.png
subject-05,1,846,0.613027095794678,airplane,airplane,90,0846_ps_s05_90_airplane_10_n02690373_1589.png
subject-05,1,847,1.16314506530762,boat,knife,120,0847_ps_s05_120_knife_10_n03041632_50648.png
subject-05,1,848,0.745560884475708,car,cat,150,0848_ps_s05_150_cat_10_n02125311_31342.png
subject-05,1,849,0.520093202590942,cat,cat,90,0849_ps_s05_90_cat_10_n02123045_795.png
subject-05,1,850,0.770581960678101,truck,bicycle,180,0850_ps_s05_180_bicycle_10_n02835271_6580.png
subject-05,1,851,0.607116937637329,boat,boat,180,0851_ps_s05_180_boat_10_n04273569_31669.png
subject-05,1,852,1.24154591560364,boat,airplane,90,0852_ps_s05_90_airplane_10_n02690373_6104.png
subject-05,1,853,1.36988687515259,car,cat,150,0853_ps_s05_150_cat_10_n02125311_2897.png
subject-05,1,854,0.773706912994385,oven,chair,150,0854_ps_s05_150_chair_10_n02791124_17062.png
subject-05,1,855,0.885767221450806,knife,knife,60,0855_ps_s05_60_knife_10_n03041632_22964.png
subject-05,1,856,0.930701017379761,boat,boat,180,0856_ps_s05_180_boat_10_n03344393_2537.png
subject-05,1,857,0.646756172180176,boat,airplane,120,0857_ps_s05_120_airplane_10_n02690373_7971.png
subject-05,1,858,0.759025096893311,keyboard,keyboard,0,0858_ps_s05_0_keyboard_10_n03085013_21620.png
subject-05,1,859,1.16361618041992,bottle,bottle,0,0859_ps_s05_0_bottle_10_n03937543_4512.png
subject-05,1,860,0.637988090515137,clock,clock,60,0860_ps_s05_60_clock_10_n02708093_2025.png
subject-05,1,861,0.70435905456543,chair,chair,30,0861_ps_s05_30_chair_10_n04099969_16647.png
subject-05,1,862,0.654747009277344,elephant,elephant,60,0862_ps_s05_60_elephant_10_n02504013_1586.png
subject-05,1,863,0.690430164337158,bicycle,bicycle,60,0863_ps_s05_60_bicycle_10_n03792782_1540.png
subject-05,1,864,0.640581130981445,boat,dog,120,0864_ps_s05_120_dog_10_n02096051_2496.png
subject-05,1,865,0.582767009735107,chair,chair,90,0865_ps_s05_90_chair_10_n02791124_2260.png
subject-05,1,866,0.87932014465332,bear,bear,0,0866_ps_s05_0_bear_10_n02133161_6217.png
subject-05,1,867,0.661828994750977,elephant,knife,150,0867_ps_s05_150_knife_10_n03041632_41493.png
subject-05,1,868,0.99013090133667,car,chair,180,0868_ps_s05_180_chair_10_n03376595_7479.png
subject-05,1,869,1.50021886825562,dog,dog,90,0869_ps_s05_90_dog_10_n02110063_15327.png
subject-05,1,870,0.85283088684082,truck,truck,0,0870_ps_s05_0_truck_10_n03417042_23468.png
subject-05,1,871,NaN,na,car,90,0871_ps_s05_90_car_10_n02814533_3202.png
subject-05,1,872,0.731158971786499,car,elephant,180,0872_ps_s05_180_elephant_10_n02504013_17337.png
subject-05,1,873,0.84328818321228,keyboard,keyboard,180,0873_ps_s05_180_keyboard_10_n03085013_3656.png
subject-05,1,874,0.923598051071167,bicycle,bicycle,60,0874_ps_s05_60_bicycle_10_n02835271_7737.png
subject-05,1,875,0.646235942840576,car,bicycle,180,0875_ps_s05_180_bicycle_10_n03792782_15875.png
subject-05,1,876,0.734755992889404,boat,car,120,0876_ps_s05_120_car_10_n02814533_15976.png
subject-05,1,877,0.592688083648682,clock,keyboard,180,0877_ps_s05_180_keyboard_10_n04505470_1375.png
subject-05,1,878,0.843290090560913,bear,dog,180,0878_ps_s05_180_dog_10_n02101388_3402.png
subject-05,1,879,0.847863912582397,car,cat,90,0879_ps_s05_90_cat_10_n02123394_2265.png
subject-05,1,880,0.883816957473755,bird,elephant,180,0880_ps_s05_180_elephant_10_n02504013_1878.png
subject-05,1,881,0.888327121734619,boat,elephant,120,0881_ps_s05_120_elephant_10_n02504013_1165.png
subject-05,1,882,0.70274806022644,clock,clock,30,0882_ps_s05_30_clock_10_n02708093_8379.png
subject-05,1,883,0.599364995956421,keyboard,chair,30,0883_ps_s05_30_chair_10_n03376595_6208.png
subject-05,1,884,1.08789706230164,cat,bear,60,0884_ps_s05_60_bear_10_n02134418_2539.png
subject-05,1,885,0.753990888595581,clock,clock,120,0885_ps_s05_120_clock_10_n04548280_5857.png
subject-05,1,886,0.644290924072266,car,car,90,0886_ps_s05_90_car_10_n03100240_9099.png
subject-05,1,887,0.618995904922485,dog,dog,60,0887_ps_s05_60_dog_10_n02105162_2988.png
subject-05,1,888,0.849685907363892,bird,knife,90,0888_ps_s05_90_knife_10_n03041632_11326.png
subject-05,1,889,1.09149289131165,clock,clock,120,0889_ps_s05_120_clock_10_n03196217_11035.png
subject-05,1,890,0.836210966110229,boat,oven,120,0890_ps_s05_120_oven_10_n04111531_6204.png
subject-05,1,891,0.810747861862183,truck,truck,0,0891_ps_s05_0_truck_10_n04467665_9833.png
subject-05,1,892,1.26916909217834,airplane,airplane,30,0892_ps_s05_30_airplane_10_n02690373_5016.png
subject-05,1,893,0.672955989837646,car,knife,180,0893_ps_s05_180_knife_10_n03041632_42841.png
subject-05,1,894,0.633347034454346,clock,oven,180,0894_ps_s05_180_oven_10_n04111531_2133.png
subject-05,1,895,0.951678037643433,keyboard,knife,90,0895_ps_s05_90_knife_10_n03041632_25603.png
subject-05,1,896,0.510074138641357,boat,airplane,180,0896_ps_s05_180_airplane_10_n02690373_8560.png
subject-05,1,897,0.730550050735474,oven,clock,180,0897_ps_s05_180_clock_10_n03196217_6217.png
subject-05,1,898,0.864196062088013,clock,knife,0,0898_ps_s05_0_knife_10_n03041632_7380.png
subject-05,1,899,0.654567003250122,bird,bird,30,0899_ps_s05_30_bird_10_n02009912_8529.png
subject-05,1,900,0.835007905960083,oven,oven,60,0900_ps_s05_60_oven_10_n04111531_11499.png
subject-05,1,901,0.641596078872681,bird,bird,0,0901_ps_s05_0_bird_10_n02027492_13604.png
subject-05,1,902,0.699942111968994,dog,dog,90,0902_ps_s05_90_dog_10_n02086910_4551.png
subject-05,1,903,0.720318078994751,oven,cat,120,0903_ps_s05_120_cat_10_n02124075_4247.png
subject-05,1,904,0.619146823883057,car,car,30,0904_ps_s05_30_car_10_n02814533_7855.png
subject-05,1,905,0.677651166915894,bicycle,bicycle,30,0905_ps_s05_30_bicycle_10_n03792782_42927.png
subject-05,1,906,0.681993007659912,boat,truck,120,0906_ps_s05_120_truck_10_n03417042_28423.png
subject-05,1,907,0.732116937637329,bear,bear,30,0907_ps_s05_30_bear_10_n02132136_18303.png
subject-05,1,908,0.670840978622437,car,airplane,150,0908_ps_s05_150_airplane_10_n02690373_2253.png
subject-05,1,909,0.544928073883057,bicycle,bicycle,30,0909_ps_s05_30_bicycle_10_n02835271_3280.png
subject-05,1,910,0.725299119949341,oven,oven,30,0910_ps_s05_30_oven_10_n04111531_13422.png
subject-05,1,911,0.493709802627563,car,chair,180,0911_ps_s05_180_chair_10_n02791124_3854.png
subject-05,1,912,0.590169906616211,cat,oven,180,0912_ps_s05_180_oven_10_n04111531_17006.png
subject-05,1,913,0.74824595451355,oven,oven,90,0913_ps_s05_90_oven_10_n04111531_4662.png
subject-05,1,914,0.806811094284058,boat,knife,150,0914_ps_s05_150_knife_10_n03041632_21345.png
subject-05,1,915,1.14883303642273,clock,dog,30,0915_ps_s05_30_dog_10_n02106550_10724.png
subject-05,1,916,0.699253797531128,bird,cat,180,0916_ps_s05_180_cat_10_n02124075_3461.png
subject-05,1,917,0.857775211334229,cat,knife,180,0917_ps_s05_180_knife_10_n03041632_4806.png
subject-05,1,918,0.623992204666138,bottle,bottle,30,0918_ps_s05_30_bottle_10_n02823428_7763.png
subject-05,1,919,0.761013984680176,truck,truck,60,0919_ps_s05_60_truck_10_n04467665_27928.png
subject-05,1,920,0.881398916244507,car,boat,150,0920_ps_s05_150_boat_10_n03662601_13390.png
subject-05,1,921,0.814793109893799,bird,knife,150,0921_ps_s05_150_knife_10_n03041632_36806.png
subject-05,1,922,0.651293039321899,car,cat,150,0922_ps_s05_150_cat_10_n02124075_12472.png
subject-05,1,923,0.761568069458008,cat,truck,180,0923_ps_s05_180_truck_10_n03417042_1376.png
subject-05,1,924,0.851931095123291,bear,bear,30,0924_ps_s05_30_bear_10_n02134084_7736.png
subject-05,1,925,0.740400075912476,chair,bicycle,180,0925_ps_s05_180_bicycle_10_n03792782_49648.png
subject-05,1,926,1.09090399742126,boat,bicycle,60,0926_ps_s05_60_bicycle_10_n03792782_50077.png
subject-05,1,927,0.834419965744019,airplane,airplane,0,0927_ps_s05_0_airplane_10_n02690373_1670.png
subject-05,1,928,0.655174016952515,car,bear,120,0928_ps_s05_120_bear_10_n02134418_5418.png
subject-05,1,929,0.605386972427368,cat,bear,180,0929_ps_s05_180_bear_10_n02133161_5067.png
subject-05,1,930,0.668872833251953,bird,car,150,0930_ps_s05_150_car_10_n04285008_1797.png
subject-05,1,931,0.811471939086914,car,bottle,180,0931_ps_s05_180_bottle_10_n03983396_3989.png
subject-05,1,932,0.639176845550537,bear,bear,0,0932_ps_s05_0_bear_10_n02134418_2805.png
subject-05,1,933,0.521757841110229,car,oven,180,0933_ps_s05_180_oven_10_n04111531_12103.png
subject-05,1,934,0.978135824203491,keyboard,keyboard,30,0934_ps_s05_30_keyboard_10_n03085013_1830.png
subject-05,1,935,0.868091821670532,bird,bird,0,0935_ps_s05_0_bird_10_n01601694_21044.png
subject-05,1,936,0.818800926208496,oven,elephant,180,0936_ps_s05_180_elephant_10_n02504013_784.png
subject-05,1,937,0.639256954193115,truck,truck,30,0937_ps_s05_30_truck_10_n03417042_1875.png
subject-05,1,938,0.713514804840088,clock,clock,30,0938_ps_s05_30_clock_10_n04548280_3036.png
subject-05,1,939,0.771781921386719,boat,boat,120,0939_ps_s05_120_boat_10_n02951358_12500.png
subject-05,1,940,0.713270902633667,car,oven,120,0940_ps_s05_120_oven_10_n04111531_1945.png
subject-05,1,941,0.725801944732666,airplane,airplane,60,0941_ps_s05_60_airplane_10_n02690373_2440.png
subject-05,1,942,0.822100162506104,boat,boat,150,0942_ps_s05_150_boat_10_n02951358_1586.png
subject-05,1,943,0.582279920578003,clock,clock,30,0943_ps_s05_30_clock_10_n04548280_4738.png
subject-05,1,944,0.65491795539856,clock,clock,90,0944_ps_s05_90_clock_10_n03196217_5243.png
subject-05,1,945,0.72117280960083,keyboard,keyboard,90,0945_ps_s05_90_keyboard_10_n03085013_13848.png
subject-05,1,946,0.587679862976074,car,knife,120,0946_ps_s05_120_knife_10_n03041632_54191.png
subject-05,1,947,1.11423110961914,elephant,bear,60,0947_ps_s05_60_bear_10_n02134418_4222.png
subject-05,1,948,0.836460828781128,knife,knife,0,0948_ps_s05_0_knife_10_n03041632_39952.png
subject-05,1,949,0.862700939178467,oven,cat,60,0949_ps_s05_60_cat_10_n02123394_2568.png
subject-05,1,950,1.09683299064636,bird,cat,0,0950_ps_s05_0_cat_10_n02125311_39190.png
subject-05,1,951,1.02526521682739,bird,bird,0,0951_ps_s05_0_bird_10_n01530575_6550.png
subject-05,1,952,0.716039896011353,car,clock,180,0952_ps_s05_180_clock_10_n04548280_5068.png
subject-05,1,953,0.850160121917725,truck,truck,30,0953_ps_s05_30_truck_10_n03796401_24227.png
subject-05,1,954,0.754056930541992,bird,bird,0,0954_ps_s05_0_bird_10_n01514859_7496.png
subject-05,1,955,0.750798940658569,bottle,bottle,0,0955_ps_s05_0_bottle_10_n04591713_2701.png
subject-05,1,956,0.795192003250122,bottle,bottle,120,0956_ps_s05_120_bottle_10_n04591713_6165.png
subject-05,1,957,0.774029970169067,boat,airplane,150,0957_ps_s05_150_airplane_10_n02690373_5528.png
subject-05,1,958,1.19789505004883,keyboard,keyboard,60,0958_ps_s05_60_keyboard_10_n04505470_5065.png
subject-05,1,959,0.880098819732666,boat,boat,180,0959_ps_s05_180_boat_10_n03662601_35415.png
subject-05,1,960,0.770757913589478,elephant,elephant,90,0960_ps_s05_90_elephant_10_n02504458_6185.png
subject-05,1,961,0.575767040252686,bicycle,bicycle,0,0961_ps_s05_0_bicycle_10_n02835271_1706.png
subject-05,1,962,0.834307909011841,elephant,elephant,120,0962_ps_s05_120_elephant_10_n02504013_1702.png
subject-05,1,963,0.654762029647827,clock,clock,0,0963_ps_s05_0_clock_10_n02708093_888.png
subject-05,1,964,0.635286808013916,bicycle,bicycle,90,0964_ps_s05_90_bicycle_10_n02835271_18171.png
subject-05,1,965,0.533952951431274,cat,clock,180,0965_ps_s05_180_clock_10_n04548280_2170.png
subject-05,1,966,0.668296098709106,car,chair,120,0966_ps_s05_120_chair_10_n04429376_3244.png
subject-05,1,967,0.734441041946411,bird,boat,150,0967_ps_s05_150_boat_10_n02951358_16653.png
subject-05,1,968,0.838542938232422,boat,oven,150,0968_ps_s05_150_oven_10_n04111531_7034.png
subject-05,1,969,0.89847993850708,bottle,keyboard,30,0969_ps_s05_30_keyboard_10_n03085013_3489.png
subject-05,1,970,1.0809600353241,car,car,0,0970_ps_s05_0_car_10_n04285008_2163.png
subject-05,1,971,0.847025871276855,chair,chair,30,0971_ps_s05_30_chair_10_n04429376_26316.png
subject-05,1,972,0.913282155990601,elephant,dog,90,0972_ps_s05_90_dog_10_n02105855_11127.png
subject-05,1,973,0.887794017791748,truck,truck,90,0973_ps_s05_90_truck_10_n04467665_28986.png
subject-05,1,974,1.27381300926208,boat,bicycle,90,0974_ps_s05_90_bicycle_10_n03792782_7212.png
subject-05,1,975,0.809897184371948,knife,knife,30,0975_ps_s05_30_knife_10_n03041632_45622.png
subject-05,1,976,0.792778968811035,car,bear,120,0976_ps_s05_120_bear_10_n02132136_22840.png
subject-05,1,977,1.11085796356201,bird,keyboard,150,0977_ps_s05_150_keyboard_10_n03085013_20349.png
subject-05,1,978,1.10695314407349,airplane,airplane,30,0978_ps_s05_30_airplane_10_n02690373_4992.png
subject-05,1,979,1.50008296966553,car,car,0,0979_ps_s05_0_car_10_n02814533_65256.png
subject-05,1,980,0.909802913665771,knife,elephant,120,0980_ps_s05_120_elephant_10_n02504013_1081.png
subject-05,1,981,0.562559127807617,car,truck,150,0981_ps_s05_150_truck_10_n03417042_7036.png
subject-05,1,982,0.896728992462158,bird,cat,120,0982_ps_s05_120_cat_10_n02123394_6070.png
subject-05,1,983,1.030925989151,keyboard,keyboard,60,0983_ps_s05_60_keyboard_10_n03085013_23554.png
subject-05,1,984,0.913400888442993,bird,bird,30,0984_ps_s05_30_bird_10_n02056570_1182.png
subject-05,1,985,0.964176893234253,car,bicycle,150,0985_ps_s05_150_bicycle_10_n03792782_1344.png
subject-05,1,986,0.654551029205322,keyboard,bottle,60,0986_ps_s05_60_bottle_10_n04591713_939.png
subject-05,1,987,0.620826959609985,car,bird,180,0987_ps_s05_180_bird_10_n01843383_6752.png
subject-05,1,988,0.579668998718262,cat,bird,150,0988_ps_s05_150_bird_10_n01592084_936.png
subject-05,1,989,1.5002179145813,car,car,60,0989_ps_s05_60_car_10_n03100240_6627.png
subject-05,1,990,0.657935857772827,boat,truck,180,0990_ps_s05_180_truck_10_n03417042_11883.png
subject-05,1,991,0.862382173538208,bird,bird,30,0991_ps_s05_30_bird_10_n01855672_36971.png
subject-05,1,992,1.4944109916687,oven,clock,120,0992_ps_s05_120_clock_10_n03196217_9736.png
subject-05,1,993,0.570631980895996,boat,car,150,0993_ps_s05_150_car_10_n04285008_1140.png
subject-05,1,994,0.753397941589355,car,car,90,0994_ps_s05_90_car_10_n03100240_87.png
subject-05,1,995,0.611101150512695,bird,bottle,150,0995_ps_s05_150_bottle_10_n04591713_2199.png
subject-05,1,996,NaN,na,bird,90,0996_ps_s05_90_bird_10_n01616318_152.png
subject-05,1,997,0.820510864257812,boat,keyboard,90,0997_ps_s05_90_keyboard_10_n03085013_22293.png
subject-05,1,998,0.816647052764893,boat,boat,180,0998_ps_s05_180_boat_10_n04273569_3886.png
subject-05,1,999,1.3046760559082,car,truck,150,0999_ps_s05_150_truck_10_n03796401_6895.png
subject-05,1,1000,1.20322203636169,clock,chair,120,1000_ps_s05_120_chair_10_n04099969_6724.png
subject-05,1,1001,1.2910749912262,car,car,180,1001_ps_s05_180_car_10_n02814533_51190.png
subject-05,1,1002,1.34970712661743,airplane,knife,120,1002_ps_s05_120_knife_10_n03041632_2153.png
subject-05,1,1003,0.748063087463379,boat,boat,0,1003_ps_s05_0_boat_10_n03344393_438.png
subject-05,1,1004,0.684447050094604,keyboard,keyboard,60,1004_ps_s05_60_keyboard_10_n04505470_4978.png
subject-05,1,1005,0.90241003036499,car,truck,120,1005_ps_s05_120_truck_10_n03796401_3649.png
subject-05,1,1006,0.6529381275177,elephant,elephant,90,1006_ps_s05_90_elephant_10_n02504013_6757.png
subject-05,1,1007,0.681396007537842,boat,dog,180,1007_ps_s05_180_dog_10_n02099601_5544.png
subject-05,1,1008,1.07790112495422,oven,bottle,90,1008_ps_s05_90_bottle_10_n02823428_5923.png
subject-05,1,1009,0.906258106231689,bottle,bottle,120,1009_ps_s05_120_bottle_10_n04591713_5535.png
subject-05,1,1010,1.06433391571045,elephant,cat,60,1010_ps_s05_60_cat_10_n02123159_6954.png
subject-05,1,1011,0.784822940826416,car,clock,150,1011_ps_s05_150_clock_10_n03196217_4051.png
subject-05,1,1012,0.619369983673096,elephant,elephant,30,1012_ps_s05_30_elephant_10_n02504458_10058.png
subject-05,1,1013,0.664005041122437,boat,dog,180,1013_ps_s05_180_dog_10_n02104365_10586.png
subject-05,1,1014,1.01206302642822,knife,knife,60,1014_ps_s05_60_knife_10_n03041632_20832.png
subject-05,1,1015,0.688696146011353,knife,knife,90,1015_ps_s05_90_knife_10_n03041632_55083.png
subject-05,1,1016,0.623021125793457,car,car,0,1016_ps_s05_0_car_10_n03100240_770.png
subject-05,1,1017,0.827645063400269,bird,car,180,1017_ps_s05_180_car_10_n02814533_70448.png
subject-05,1,1018,0.891443014144897,bicycle,bicycle,120,1018_ps_s05_120_bicycle_10_n02835271_17649.png
subject-05,1,1019,0.673267126083374,car,clock,150,1019_ps_s05_150_clock_10_n03196217_4973.png
subject-05,1,1020,0.753521919250488,cat,bird,60,1020_ps_s05_60_bird_10_n01824575_5477.png
subject-05,1,1021,0.651846885681152,boat,cat,180,1021_ps_s05_180_cat_10_n02123045_20319.png
subject-05,1,1022,0.586665868759155,bicycle,bicycle,30,1022_ps_s05_30_bicycle_10_n02835271_9296.png
subject-05,1,1023,0.568849086761475,boat,car,150,1023_ps_s05_150_car_10_n03100240_932.png
subject-05,1,1024,1.05730676651001,car,bicycle,150,1024_ps_s05_150_bicycle_10_n02835271_8975.png
subject-05,1,1025,1.07521796226501,bird,oven,30,1025_ps_s05_30_oven_10_n04111531_9123.png
subject-05,1,1026,0.995558977127075,bird,bottle,0,1026_ps_s05_0_bottle_10_n04557648_1133.png
subject-05,1,1027,0.716034889221191,boat,keyboard,120,1027_ps_s05_120_keyboard_10_n04505470_4902.png
subject-05,1,1028,1.28036284446716,dog,dog,0,1028_ps_s05_0_dog_10_n02112350_5795.png
subject-05,1,1029,0.703155994415283,bear,car,150,1029_ps_s05_150_car_10_n03100240_11566.png
subject-05,1,1030,0.845414876937866,oven,oven,90,1030_ps_s05_90_oven_10_n04111531_21911.png
subject-05,1,1031,0.81975793838501,bicycle,bicycle,90,1031_ps_s05_90_bicycle_10_n02835271_11697.png
subject-05,1,1032,0.824369192123413,elephant,elephant,0,1032_ps_s05_0_elephant_10_n02504458_7133.png
subject-05,1,1033,1.15909695625305,car,car,120,1033_ps_s05_120_car_10_n03100240_6738.png
subject-05,1,1034,NaN,na,boat,120,1034_ps_s05_120_boat_10_n03662601_22434.png
subject-05,1,1035,0.874926090240479,boat,bicycle,0,1035_ps_s05_0_bicycle_10_n03792782_10727.png
subject-05,1,1036,1.0085141658783,knife,knife,30,1036_ps_s05_30_knife_10_n03041632_47410.png
subject-05,1,1037,0.737549781799316,car,airplane,180,1037_ps_s05_180_airplane_10_n02690373_9445.png
subject-05,1,1038,0.571210145950317,boat,bicycle,120,1038_ps_s05_120_bicycle_10_n02835271_554.png
subject-05,1,1039,0.561829090118408,oven,oven,0,1039_ps_s05_0_oven_10_n04111531_22517.png
subject-05,1,1040,0.772327184677124,oven,oven,0,1040_ps_s05_0_oven_10_n04111531_4809.png
subject-05,1,1041,0.578908920288086,boat,chair,60,1041_ps_s05_60_chair_10_n03376595_13578.png
subject-05,1,1042,0.542810916900635,oven,oven,60,1042_ps_s05_60_oven_10_n04111531_14804.png
subject-05,1,1043,0.715121984481812,truck,truck,60,1043_ps_s05_60_truck_10_n03796401_29612.png
subject-05,1,1044,0.81974196434021,bird,chair,120,1044_ps_s05_120_chair_10_n04099969_3231.png
subject-05,1,1045,0.671915054321289,cat,cat,30,1045_ps_s05_30_cat_10_n02124075_10927.png
subject-05,1,1046,0.697855949401855,boat,bicycle,180,1046_ps_s05_180_bicycle_10_n02835271_23936.png
subject-05,1,1047,0.718080043792725,boat,boat,0,1047_ps_s05_0_boat_10_n03344393_2813.png
subject-05,1,1048,0.852362155914307,bicycle,bicycle,0,1048_ps_s05_0_bicycle_10_n02835271_12674.png
subject-05,1,1049,0.962368011474609,car,boat,150,1049_ps_s05_150_boat_10_n04273569_29711.png
subject-05,1,1050,1.04502081871033,clock,clock,60,1050_ps_s05_60_clock_10_n04548280_338.png
subject-05,1,1051,0.595503091812134,boat,truck,120,1051_ps_s05_120_truck_10_n03417042_12169.png
subject-05,1,1052,0.662137985229492,cat,cat,120,1052_ps_s05_120_cat_10_n02123159_2465.png
subject-05,1,1053,0.757760047912598,chair,chair,0,1053_ps_s05_0_chair_10_n02791124_4261.png
subject-05,1,1054,0.607926845550537,car,knife,180,1054_ps_s05_180_knife_10_n03041632_54732.png
subject-05,1,1055,0.696136951446533,car,clock,150,1055_ps_s05_150_clock_10_n03196217_11063.png
subject-05,1,1056,0.822476863861084,bird,bird,60,1056_ps_s05_60_bird_10_n01860187_36378.png
subject-05,1,1057,1.05665707588196,oven,keyboard,150,1057_ps_s05_150_keyboard_10_n04505470_4384.png
subject-05,1,1058,0.738641023635864,cat,cat,60,1058_ps_s05_60_cat_10_n02123394_4874.png
subject-05,1,1059,1.17318105697632,bicycle,bicycle,30,1059_ps_s05_30_bicycle_10_n03792782_42773.png
subject-05,1,1060,1.06369495391846,oven,oven,90,1060_ps_s05_90_oven_10_n04111531_550.png
subject-05,1,1061,0.775803804397583,car,clock,150,1061_ps_s05_150_clock_10_n02708093_7169.png
subject-05,1,1062,0.840571165084839,bird,bicycle,180,1062_ps_s05_180_bicycle_10_n03792782_14984.png
subject-05,1,1063,0.644789934158325,keyboard,keyboard,30,1063_ps_s05_30_keyboard_10_n03085013_18918.png
subject-05,1,1064,0.702980041503906,oven,oven,60,1064_ps_s05_60_oven_10_n04111531_2350.png
subject-05,1,1065,0.555788040161133,clock,clock,0,1065_ps_s05_0_clock_10_n02708093_4737.png
subject-05,1,1066,0.628366947174072,car,car,90,1066_ps_s05_90_car_10_n04285008_4390.png
subject-05,1,1067,0.77830696105957,bottle,bottle,30,1067_ps_s05_30_bottle_10_n02823428_7273.png
subject-05,1,1068,0.674741983413696,clock,bottle,150,1068_ps_s05_150_bottle_10_n04591713_2971.png
subject-05,1,1069,0.908903121948242,cat,bear,90,1069_ps_s05_90_bear_10_n02134084_15016.png
subject-05,1,1070,0.80495285987854,dog,dog,120,1070_ps_s05_120_dog_10_n02102318_10695.png
subject-05,1,1071,0.979639053344727,bird,keyboard,120,1071_ps_s05_120_keyboard_10_n03085013_15162.png
subject-05,1,1072,0.599880933761597,clock,clock,90,1072_ps_s05_90_clock_10_n03196217_8325.png
subject-05,1,1073,0.943526983261108,truck,truck,60,1073_ps_s05_60_truck_10_n03417042_5757.png
