subj,session,trial,rt,object_response,category,condition,imagename
subject-06,1,1,1.14298415184021,cat,dog,120,0001_ps_s06_120_dog_10_n02085936_8454.png
subject-06,1,2,0.513045072555542,bicycle,bicycle,90,0002_ps_s06_90_bicycle_10_n03792782_1155.png
subject-06,1,3,1.14172196388245,airplane,oven,150,0003_ps_s06_150_oven_10_n04111531_22466.png
subject-06,1,4,0.787711143493652,oven,oven,30,0004_ps_s06_30_oven_10_n04111531_8373.png
subject-06,1,5,0.748390913009644,boat,car,180,0005_ps_s06_180_car_10_n02814533_4403.png
subject-06,1,6,0.956813812255859,car,chair,90,0006_ps_s06_90_chair_10_n02791124_1115.png
subject-06,1,7,0.955426216125488,knife,knife,30,0007_ps_s06_30_knife_10_n03041632_26236.png
subject-06,1,8,0.647642135620117,clock,clock,30,0008_ps_s06_30_clock_10_n03196217_1618.png
subject-06,1,9,0.800235986709595,oven,oven,30,0009_ps_s06_30_oven_10_n04111531_13247.png
subject-06,1,10,0.568428993225098,boat,knife,180,0010_ps_s06_180_knife_10_n03041632_44019.png
subject-06,1,11,0.722570180892944,cat,boat,120,0011_ps_s06_120_boat_10_n02951358_10162.png
subject-06,1,12,0.680402040481567,oven,dog,150,0012_ps_s06_150_dog_10_n02096585_10029.png
subject-06,1,13,0.794156074523926,bear,oven,180,0013_ps_s06_180_oven_10_n04111531_22084.png
subject-06,1,14,0.862730979919434,knife,chair,120,0014_ps_s06_120_chair_10_n04429376_10438.png
subject-06,1,15,0.881447076797485,bear,bird,30,0015_ps_s06_30_bird_10_n01829413_7023.png
subject-06,1,16,0.757742881774902,cat,cat,30,0016_ps_s06_30_cat_10_n02123159_889.png
subject-06,1,17,0.933722972869873,bicycle,bicycle,0,0017_ps_s06_0_bicycle_10_n02835271_3677.png
subject-06,1,18,0.832249879837036,bird,bird,0,0018_ps_s06_0_bird_10_n01622779_5079.png
subject-06,1,19,0.732618093490601,elephant,elephant,60,0019_ps_s06_60_elephant_10_n02504458_6930.png
subject-06,1,20,0.701035022735596,bear,bear,0,0020_ps_s06_0_bear_10_n02134084_983.png
subject-06,1,21,1.0837140083313,cat,bird,150,0021_ps_s06_150_bird_10_n01614925_3867.png
subject-06,1,22,0.708081960678101,dog,dog,30,0022_ps_s06_30_dog_10_n02113023_2938.png
subject-06,1,23,0.614513874053955,cat,oven,180,0023_ps_s06_180_oven_10_n04111531_1009.png
subject-06,1,24,0.604990005493164,car,car,60,0024_ps_s06_60_car_10_n02814533_6716.png
subject-06,1,25,0.727349042892456,knife,knife,90,0025_ps_s06_90_knife_10_n03041632_44230.png
subject-06,1,26,0.888237953186035,car,car,30,0026_ps_s06_30_car_10_n02814533_14121.png
subject-06,1,27,1.06395697593689,car,car,0,0027_ps_s06_0_car_10_n02814533_3624.png
subject-06,1,28,0.594641923904419,car,car,0,0028_ps_s06_0_car_10_n03100240_5721.png
subject-06,1,29,0.663211107254028,car,car,60,0029_ps_s06_60_car_10_n03100240_8898.png
subject-06,1,30,0.807479858398438,keyboard,oven,90,0030_ps_s06_90_oven_10_n04111531_2371.png
subject-06,1,31,0.676054000854492,oven,chair,180,0031_ps_s06_180_chair_10_n02791124_4780.png
subject-06,1,32,0.552756786346436,cat,truck,180,0032_ps_s06_180_truck_10_n03417042_943.png
subject-06,1,33,0.852998018264771,car,car,60,0033_ps_s06_60_car_10_n03100240_13929.png
subject-06,1,34,0.69769287109375,dog,dog,30,0034_ps_s06_30_dog_10_n02108551_1389.png
subject-06,1,35,0.971192121505737,cat,bear,60,0035_ps_s06_60_bear_10_n02134084_27094.png
subject-06,1,36,0.9097580909729,dog,dog,0,0036_ps_s06_0_dog_10_n02101006_1817.png
subject-06,1,37,0.562404155731201,keyboard,keyboard,30,0037_ps_s06_30_keyboard_10_n04505470_6887.png
subject-06,1,38,0.662432909011841,cat,dog,30,0038_ps_s06_30_dog_10_n02102318_3462.png
subject-06,1,39,1.50012111663818,keyboard,keyboard,180,0039_ps_s06_180_keyboard_10_n04505470_9156.png
subject-06,1,40,0.820659160614014,chair,chair,0,0040_ps_s06_0_chair_10_n02791124_3170.png
subject-06,1,41,0.626852035522461,oven,chair,150,0041_ps_s06_150_chair_10_n02791124_9216.png
subject-06,1,42,0.911585092544556,car,airplane,180,0042_ps_s06_180_airplane_10_n02690373_7686.png
subject-06,1,43,1.18554091453552,bicycle,keyboard,180,0043_ps_s06_180_keyboard_10_n04505470_186.png
subject-06,1,44,1.04614400863647,car,car,0,0044_ps_s06_0_car_10_n02814533_32337.png
subject-06,1,45,0.876361131668091,cat,oven,150,0045_ps_s06_150_oven_10_n04111531_22327.png
subject-06,1,46,0.940774202346802,dog,bottle,120,0046_ps_s06_120_bottle_10_n02823428_4162.png
subject-06,1,47,0.887167930603027,boat,boat,30,0047_ps_s06_30_boat_10_n04273569_21900.png
subject-06,1,48,0.817614078521729,bottle,bottle,90,0048_ps_s06_90_bottle_10_n02823428_3923.png
subject-06,1,49,0.969860076904297,bird,oven,180,0049_ps_s06_180_oven_10_n04111531_12080.png
subject-06,1,50,0.568112134933472,cat,cat,0,0050_ps_s06_0_cat_10_n02123045_10263.png
subject-06,1,51,0.568386077880859,oven,elephant,150,0051_ps_s06_150_elephant_10_n02504013_7175.png
subject-06,1,52,0.859077930450439,dog,clock,120,0052_ps_s06_120_clock_10_n04548280_8883.png
subject-06,1,53,0.705221176147461,elephant,elephant,60,0053_ps_s06_60_elephant_10_n02504013_6034.png
subject-06,1,54,1.28763604164124,dog,bird,90,0054_ps_s06_90_bird_10_n02037110_8766.png
subject-06,1,55,0.647952079772949,chair,chair,60,0055_ps_s06_60_chair_10_n04099969_5531.png
subject-06,1,56,0.647960901260376,airplane,airplane,30,0056_ps_s06_30_airplane_10_n02690373_5797.png
subject-06,1,57,0.792460918426514,chair,bottle,120,0057_ps_s06_120_bottle_10_n04591713_4904.png
subject-06,1,58,1.3991219997406,elephant,elephant,120,0058_ps_s06_120_elephant_10_n02504013_9466.png
subject-06,1,59,0.467044830322266,clock,clock,60,0059_ps_s06_60_clock_10_n03196217_6064.png
subject-06,1,60,0.927157878875732,chair,bicycle,120,0060_ps_s06_120_bicycle_10_n02835271_8399.png
subject-06,1,61,1.25568985939026,bear,elephant,150,0061_ps_s06_150_elephant_10_n02504458_10188.png
subject-06,1,62,0.625914812088013,car,car,0,0062_ps_s06_0_car_10_n04285008_9040.png
subject-06,1,63,0.602104902267456,bear,bear,30,0063_ps_s06_30_bear_10_n02134418_4539.png
subject-06,1,64,0.938575983047485,cat,bird,180,0064_ps_s06_180_bird_10_n02013706_17665.png
subject-06,1,65,0.660977840423584,cat,cat,0,0065_ps_s06_0_cat_10_n02124075_1128.png
subject-06,1,66,0.832495927810669,boat,chair,180,0066_ps_s06_180_chair_10_n04099969_19981.png
subject-06,1,67,0.868741989135742,cat,bicycle,150,0067_ps_s06_150_bicycle_10_n02835271_9288.png
subject-06,1,68,0.945043087005615,clock,clock,60,0068_ps_s06_60_clock_10_n02708093_3368.png
subject-06,1,69,0.767585039138794,cat,cat,60,0069_ps_s06_60_cat_10_n02123394_9791.png
subject-06,1,70,0.689752101898193,airplane,airplane,30,0070_ps_s06_30_airplane_10_n02690373_13617.png
subject-06,1,71,0.618103981018066,boat,clock,120,0071_ps_s06_120_clock_10_n03196217_170.png
subject-06,1,72,0.886018037796021,clock,chair,120,0072_ps_s06_120_chair_10_n04429376_16372.png
subject-06,1,73,0.732262134552002,oven,bottle,120,0073_ps_s06_120_bottle_10_n03983396_4300.png
subject-06,1,74,0.762632846832275,oven,knife,120,0074_ps_s06_120_knife_10_n03041632_11285.png
subject-06,1,75,0.92910099029541,car,truck,30,0075_ps_s06_30_truck_10_n03417042_5768.png
subject-06,1,76,0.843885183334351,clock,boat,120,0076_ps_s06_120_boat_10_n03344393_4143.png
subject-06,1,77,0.782420873641968,clock,bear,150,0077_ps_s06_150_bear_10_n02133161_5642.png
subject-06,1,78,0.858707904815674,chair,cat,150,0078_ps_s06_150_cat_10_n02123159_9039.png
subject-06,1,79,1.04914903640747,bottle,airplane,120,0079_ps_s06_120_airplane_10_n02690373_2643.png
subject-06,1,80,0.987226963043213,bear,knife,150,0080_ps_s06_150_knife_10_n03041632_11932.png
subject-06,1,81,0.707571029663086,keyboard,keyboard,90,0081_ps_s06_90_keyboard_10_n03085013_8364.png
subject-06,1,82,0.959698915481567,dog,dog,60,0082_ps_s06_60_dog_10_n02111277_4317.png
subject-06,1,83,0.903565883636475,bird,bird,30,0083_ps_s06_30_bird_10_n01833805_6053.png
subject-06,1,84,1.41805100440979,bottle,bottle,30,0084_ps_s06_30_bottle_10_n04557648_29603.png
subject-06,1,85,0.794625997543335,chair,chair,90,0085_ps_s06_90_chair_10_n04099969_17866.png
subject-06,1,86,1.00907707214355,oven,car,180,0086_ps_s06_180_car_10_n04285008_8898.png
subject-06,1,87,1.07743120193481,truck,truck,90,0087_ps_s06_90_truck_10_n04467665_8063.png
subject-06,1,88,0.777914047241211,boat,boat,60,0088_ps_s06_60_boat_10_n03662601_14683.png
subject-06,1,89,1.02982401847839,clock,airplane,180,0089_ps_s06_180_airplane_10_n02690373_6789.png
subject-06,1,90,1.10399293899536,clock,bear,180,0090_ps_s06_180_bear_10_n02132136_5921.png
subject-06,1,91,1.03396415710449,cat,bottle,120,0091_ps_s06_120_bottle_10_n03937543_4236.png
subject-06,1,92,0.810401201248169,oven,oven,90,0092_ps_s06_90_oven_10_n04111531_3777.png
subject-06,1,93,0.862339973449707,oven,knife,90,0093_ps_s06_90_knife_10_n03041632_25772.png
subject-06,1,94,1.03679704666138,cat,cat,60,0094_ps_s06_60_cat_10_n02123159_3784.png
subject-06,1,95,0.891540050506592,clock,boat,120,0095_ps_s06_120_boat_10_n04273569_5072.png
subject-06,1,96,0.821852922439575,oven,bicycle,150,0096_ps_s06_150_bicycle_10_n03792782_8799.png
subject-06,1,97,1.10463905334473,chair,oven,60,0097_ps_s06_60_oven_10_n04111531_15489.png
subject-06,1,98,1.20263981819153,chair,bottle,90,0098_ps_s06_90_bottle_10_n02823428_2463.png
subject-06,1,99,0.924697875976562,dog,dog,90,0099_ps_s06_90_dog_10_n02088094_9895.png
subject-06,1,100,1.50024318695068,oven,car,0,0100_ps_s06_0_car_10_n03100240_19392.png
subject-06,1,101,0.71575403213501,clock,keyboard,150,0101_ps_s06_150_keyboard_10_n04505470_1186.png
subject-06,1,102,0.998178005218506,keyboard,keyboard,0,0102_ps_s06_0_keyboard_10_n03085013_17035.png
subject-06,1,103,0.991042137145996,bear,elephant,90,0103_ps_s06_90_elephant_10_n02504013_26899.png
subject-06,1,104,0.896995067596436,bear,bear,30,0104_ps_s06_30_bear_10_n02133161_14109.png
subject-06,1,105,0.63263988494873,bear,bear,60,0105_ps_s06_60_bear_10_n02132136_50.png
subject-06,1,106,0.763436079025269,cat,dog,90,0106_ps_s06_90_dog_10_n02091032_2170.png
subject-06,1,107,0.739776134490967,cat,cat,90,0107_ps_s06_90_cat_10_n02123394_1035.png
subject-06,1,108,1.13796710968018,boat,airplane,120,0108_ps_s06_120_airplane_10_n02690373_6716.png
subject-06,1,109,0.744339942932129,clock,boat,150,0109_ps_s06_150_boat_10_n03344393_3862.png
subject-06,1,110,0.988547086715698,cat,dog,30,0110_ps_s06_30_dog_10_n02098105_2756.png
subject-06,1,111,0.705034971237183,boat,truck,180,0111_ps_s06_180_truck_10_n04467665_37833.png
subject-06,1,112,0.871345996856689,boat,clock,150,0112_ps_s06_150_clock_10_n04548280_5096.png
subject-06,1,113,0.831763029098511,clock,oven,120,0113_ps_s06_120_oven_10_n04111531_2943.png
subject-06,1,114,1.42235803604126,bear,boat,60,0114_ps_s06_60_boat_10_n03344393_3993.png
subject-06,1,115,0.780692100524902,chair,keyboard,60,0115_ps_s06_60_keyboard_10_n03085013_6904.png
subject-06,1,116,0.808673143386841,bottle,bottle,60,0116_ps_s06_60_bottle_10_n04557648_6841.png
subject-06,1,117,0.763151884078979,elephant,elephant,0,0117_ps_s06_0_elephant_10_n02504458_2031.png
subject-06,1,118,0.708123922348022,cat,cat,0,0118_ps_s06_0_cat_10_n02124075_13797.png
subject-06,1,119,1.35227298736572,chair,oven,90,0119_ps_s06_90_oven_10_n04111531_15492.png
subject-06,1,120,0.690336942672729,car,car,90,0120_ps_s06_90_car_10_n04285008_5063.png
subject-06,1,121,1.44873905181885,dog,bottle,60,0121_ps_s06_60_bottle_10_n04557648_32346.png
subject-06,1,122,1.00256586074829,bird,bird,0,0122_ps_s06_0_bird_10_n02051845_475.png
subject-06,1,123,0.571019887924194,boat,clock,180,0123_ps_s06_180_clock_10_n02708093_1430.png
subject-06,1,124,0.785400152206421,elephant,bicycle,120,0124_ps_s06_120_bicycle_10_n02835271_10933.png
subject-06,1,125,0.96742582321167,bear,dog,150,0125_ps_s06_150_dog_10_n02107683_3478.png
subject-06,1,126,1.04163503646851,airplane,airplane,0,0126_ps_s06_0_airplane_10_n02690373_4608.png
subject-06,1,127,0.863654851913452,knife,knife,60,0127_ps_s06_60_knife_10_n03041632_15444.png
subject-06,1,128,0.82415509223938,dog,dog,60,0128_ps_s06_60_dog_10_n02086079_48501.png
subject-06,1,129,0.816898107528687,boat,dog,150,0129_ps_s06_150_dog_10_n02091831_8332.png
subject-06,1,130,0.939568042755127,car,cat,150,0130_ps_s06_150_cat_10_n02123394_7782.png
subject-06,1,131,0.621492862701416,oven,bicycle,120,0131_ps_s06_120_bicycle_10_n03792782_19527.png
subject-06,1,132,0.836153030395508,oven,oven,0,0132_ps_s06_0_oven_10_n04111531_22923.png
subject-06,1,133,1.25596404075623,clock,bottle,90,0133_ps_s06_90_bottle_10_n03937543_964.png
subject-06,1,134,0.96468710899353,airplane,airplane,60,0134_ps_s06_60_airplane_10_n02690373_4979.png
subject-06,1,135,0.821965932846069,cat,cat,90,0135_ps_s06_90_cat_10_n02123597_4905.png
subject-06,1,136,0.982769966125488,boat,elephant,120,0136_ps_s06_120_elephant_10_n02504013_6731.png
subject-06,1,137,0.651087045669556,chair,chair,0,0137_ps_s06_0_chair_10_n04099969_10953.png
subject-06,1,138,1.0814847946167,knife,knife,30,0138_ps_s06_30_knife_10_n03041632_17349.png
subject-06,1,139,0.911623001098633,chair,bicycle,60,0139_ps_s06_60_bicycle_10_n02835271_9494.png
subject-06,1,140,1.03988409042358,bottle,chair,90,0140_ps_s06_90_chair_10_n03376595_3882.png
subject-06,1,141,0.754287004470825,airplane,airplane,30,0141_ps_s06_30_airplane_10_n02690373_5773.png
subject-06,1,142,0.830968856811523,boat,knife,180,0142_ps_s06_180_knife_10_n03041632_18304.png
subject-06,1,143,0.707283020019531,cat,car,180,0143_ps_s06_180_car_10_n03100240_202.png
subject-06,1,144,0.705641031265259,airplane,truck,90,0144_ps_s06_90_truck_10_n03417042_28261.png
subject-06,1,145,0.942545890808105,oven,truck,150,0145_ps_s06_150_truck_10_n03417042_29836.png
subject-06,1,146,0.964631080627441,oven,truck,150,0146_ps_s06_150_truck_10_n04467665_19132.png
subject-06,1,147,0.909368991851807,clock,clock,180,0147_ps_s06_180_clock_10_n03196217_4600.png
subject-06,1,148,0.884641885757446,bottle,bottle,90,0148_ps_s06_90_bottle_10_n03937543_1852.png
subject-06,1,149,0.799413204193115,cat,chair,150,0149_ps_s06_150_chair_10_n02791124_7466.png
subject-06,1,150,0.506028890609741,cat,dog,180,0150_ps_s06_180_dog_10_n02086646_3766.png
subject-06,1,151,0.606170177459717,cat,bottle,150,0151_ps_s06_150_bottle_10_n02823428_715.png
subject-06,1,152,0.689280033111572,dog,dog,0,0152_ps_s06_0_dog_10_n02098105_2560.png
subject-06,1,153,1.18714499473572,keyboard,keyboard,0,0153_ps_s06_0_keyboard_10_n03085013_20570.png
subject-06,1,154,1.01792097091675,oven,chair,180,0154_ps_s06_180_chair_10_n02791124_1325.png
subject-06,1,155,1.1921238899231,boat,chair,150,0155_ps_s06_150_chair_10_n04429376_18227.png
subject-06,1,156,0.77642297744751,car,car,150,0156_ps_s06_150_car_10_n02814533_27263.png
subject-06,1,157,0.84505295753479,airplane,airplane,120,0157_ps_s06_120_airplane_10_n02690373_614.png
subject-06,1,158,1.08938908576965,oven,oven,120,0158_ps_s06_120_oven_10_n04111531_4963.png
subject-06,1,159,0.95764684677124,chair,chair,90,0159_ps_s06_90_chair_10_n02791124_1740.png
subject-06,1,160,0.980131864547729,elephant,elephant,60,0160_ps_s06_60_elephant_10_n02504013_347.png
subject-06,1,161,0.938343048095703,elephant,elephant,0,0161_ps_s06_0_elephant_10_n02504013_8863.png
subject-06,1,162,0.820940971374512,car,car,0,0162_ps_s06_0_car_10_n03100240_3163.png
subject-06,1,163,0.98929500579834,cat,bear,120,0163_ps_s06_120_bear_10_n02133161_8684.png
subject-06,1,164,1.08168601989746,keyboard,keyboard,90,0164_ps_s06_90_keyboard_10_n03085013_19008.png
subject-06,1,165,0.909907102584839,keyboard,airplane,120,0165_ps_s06_120_airplane_10_n02690373_817.png
subject-06,1,166,1.11585211753845,car,car,30,0166_ps_s06_30_car_10_n04285008_3447.png
subject-06,1,167,0.927742958068848,bear,bear,0,0167_ps_s06_0_bear_10_n02133161_16133.png
subject-06,1,168,0.658530950546265,car,car,30,0168_ps_s06_30_car_10_n03100240_6928.png
subject-06,1,169,0.960177898406982,oven,bear,150,0169_ps_s06_150_bear_10_n02133161_12152.png
subject-06,1,170,0.720500946044922,clock,clock,90,0170_ps_s06_90_clock_10_n04548280_1039.png
subject-06,1,171,0.943036079406738,airplane,airplane,0,0171_ps_s06_0_airplane_10_n02690373_3859.png
subject-06,1,172,1.09471797943115,boat,boat,0,0172_ps_s06_0_boat_10_n03662601_4416.png
subject-06,1,173,1.23142194747925,bottle,bird,60,0173_ps_s06_60_bird_10_n01558993_16443.png
subject-06,1,174,0.721673965454102,bicycle,bicycle,0,0174_ps_s06_0_bicycle_10_n02835271_15691.png
subject-06,1,175,0.805633783340454,oven,car,120,0175_ps_s06_120_car_10_n03100240_18967.png
subject-06,1,176,0.765980005264282,bottle,bottle,0,0176_ps_s06_0_bottle_10_n04557648_19475.png
subject-06,1,177,1.05639100074768,boat,boat,0,0177_ps_s06_0_boat_10_n03662601_17785.png
subject-06,1,178,1.00075197219849,bear,bird,90,0178_ps_s06_90_bird_10_n01558993_5573.png
subject-06,1,179,1.3371160030365,bear,oven,120,0179_ps_s06_120_oven_10_n04111531_5906.png
subject-06,1,180,0.859843015670776,bear,bear,0,0180_ps_s06_0_bear_10_n02134418_4050.png
subject-06,1,181,0.966281890869141,oven,bear,150,0181_ps_s06_150_bear_10_n02134418_9924.png
subject-06,1,182,0.996636152267456,knife,knife,60,0182_ps_s06_60_knife_10_n03041632_30079.png
subject-06,1,183,0.580567836761475,clock,clock,0,0183_ps_s06_0_clock_10_n02708093_1917.png
subject-06,1,184,0.846395015716553,knife,knife,90,0184_ps_s06_90_knife_10_n03041632_38996.png
subject-06,1,185,0.660604953765869,boat,chair,150,0185_ps_s06_150_chair_10_n04099969_8873.png
subject-06,1,186,0.583029985427856,oven,cat,180,0186_ps_s06_180_cat_10_n02125311_37248.png
subject-06,1,187,0.773383855819702,elephant,elephant,0,0187_ps_s06_0_elephant_10_n02504458_2511.png
subject-06,1,188,1.16393113136292,keyboard,keyboard,60,0188_ps_s06_60_keyboard_10_n04505470_1831.png
subject-06,1,189,0.648512125015259,chair,chair,0,0189_ps_s06_0_chair_10_n02791124_8246.png
subject-06,1,190,0.747282981872559,chair,chair,30,0190_ps_s06_30_chair_10_n04099969_14522.png
subject-06,1,191,0.867623090744019,truck,truck,90,0191_ps_s06_90_truck_10_n03417042_1875.png
subject-06,1,192,0.605623006820679,cat,cat,0,0192_ps_s06_0_cat_10_n02123159_2804.png
subject-06,1,193,0.612061023712158,boat,boat,120,0193_ps_s06_120_boat_10_n03344393_9697.png
subject-06,1,194,0.786478996276855,truck,truck,60,0194_ps_s06_60_truck_10_n03417042_27982.png
subject-06,1,195,0.992563962936401,clock,clock,30,0195_ps_s06_30_clock_10_n02708093_6676.png
subject-06,1,196,0.674247026443481,chair,chair,60,0196_ps_s06_60_chair_10_n02791124_9918.png
subject-06,1,197,1.14243698120117,bird,bird,60,0197_ps_s06_60_bird_10_n01616318_9415.png
subject-06,1,198,1.07952404022217,keyboard,knife,120,0198_ps_s06_120_knife_10_n03041632_42185.png
subject-06,1,199,1.08565497398376,keyboard,keyboard,120,0199_ps_s06_120_keyboard_10_n03085013_17455.png
subject-06,1,200,0.68622899055481,dog,dog,60,0200_ps_s06_60_dog_10_n02109525_5498.png
subject-06,1,201,1.36065006256104,keyboard,truck,150,0201_ps_s06_150_truck_10_n03796401_7778.png
subject-06,1,202,1.09687280654907,bicycle,bicycle,120,0202_ps_s06_120_bicycle_10_n03792782_9987.png
subject-06,1,203,1.49980592727661,boat,boat,0,0203_ps_s06_0_boat_10_n03662601_3928.png
subject-06,1,204,0.967804908752441,keyboard,cat,180,0204_ps_s06_180_cat_10_n02124075_5744.png
subject-06,1,205,0.920243978500366,bird,bird,60,0205_ps_s06_60_bird_10_n01560419_2243.png
subject-06,1,206,1.28884506225586,keyboard,elephant,180,0206_ps_s06_180_elephant_10_n02504458_8226.png
subject-06,1,207,0.995242834091187,keyboard,airplane,180,0207_ps_s06_180_airplane_10_n02690373_13283.png
subject-06,1,208,1.50009512901306,oven,bicycle,150,0208_ps_s06_150_bicycle_10_n03792782_3897.png
subject-06,1,209,0.623764038085938,boat,dog,180,0209_ps_s06_180_dog_10_n02100236_5945.png
subject-06,1,210,1.42021608352661,bird,bird,30,0210_ps_s06_30_bird_10_n01820546_1049.png
subject-06,1,211,1.03407096862793,keyboard,chair,120,0211_ps_s06_120_chair_10_n03376595_5909.png
subject-06,1,212,0.748641967773438,chair,chair,90,0212_ps_s06_90_chair_10_n04099969_4543.png
subject-06,1,213,0.887434959411621,cat,bicycle,180,0213_ps_s06_180_bicycle_10_n02835271_9633.png
subject-06,1,214,1.20774602890015,keyboard,keyboard,180,0214_ps_s06_180_keyboard_10_n04505470_4400.png
subject-06,1,215,0.859862089157104,cat,keyboard,150,0215_ps_s06_150_keyboard_10_n03085013_22966.png
subject-06,1,216,1.14230108261108,cat,cat,60,0216_ps_s06_60_cat_10_n02125311_30364.png
subject-06,1,217,1.23210096359253,oven,keyboard,60,0217_ps_s06_60_keyboard_10_n03085013_23619.png
subject-06,1,218,0.804252147674561,elephant,elephant,30,0218_ps_s06_30_elephant_10_n02504458_3716.png
subject-06,1,219,0.872711896896362,oven,bottle,180,0219_ps_s06_180_bottle_10_n04579145_2902.png
subject-06,1,220,0.801100969314575,oven,bicycle,180,0220_ps_s06_180_bicycle_10_n03792782_1851.png
subject-06,1,221,0.693526983261108,airplane,airplane,60,0221_ps_s06_60_airplane_10_n02690373_8304.png
subject-06,1,222,0.875972032546997,bottle,bottle,30,0222_ps_s06_30_bottle_10_n03983396_12049.png
subject-06,1,223,0.782416105270386,oven,airplane,150,0223_ps_s06_150_airplane_10_n02690373_8446.png
subject-06,1,224,1.13999891281128,elephant,dog,90,0224_ps_s06_90_dog_10_n02088238_2967.png
subject-06,1,225,0.9324049949646,dog,dog,0,0225_ps_s06_0_dog_10_n02102040_6009.png
subject-06,1,226,0.998795986175537,chair,chair,0,0226_ps_s06_0_chair_10_n04099969_835.png
subject-06,1,227,0.842947959899902,cat,bicycle,150,0227_ps_s06_150_bicycle_10_n02835271_11522.png
subject-06,1,228,0.757459878921509,oven,bottle,120,0228_ps_s06_120_bottle_10_n04579145_3894.png
subject-06,1,229,1.5002748966217,boat,boat,30,0229_ps_s06_30_boat_10_n02951358_406.png
subject-06,1,230,0.486160039901733,clock,clock,0,0230_ps_s06_0_clock_10_n02708093_118.png
subject-06,1,231,0.638499021530151,oven,chair,150,0231_ps_s06_150_chair_10_n04429376_20220.png
subject-06,1,232,0.8507239818573,keyboard,keyboard,0,0232_ps_s06_0_keyboard_10_n03085013_8865.png
subject-06,1,233,1.07345700263977,cat,airplane,120,0233_ps_s06_120_airplane_10_n02690373_4753.png
subject-06,1,234,0.963598966598511,clock,clock,60,0234_ps_s06_60_clock_10_n04548280_6337.png
subject-06,1,235,1.50023579597473,knife,oven,0,0235_ps_s06_0_oven_10_n04111531_6387.png
subject-06,1,236,1.00612616539001,bicycle,elephant,90,0236_ps_s06_90_elephant_10_n02504013_6167.png
subject-06,1,237,0.782673120498657,car,car,60,0237_ps_s06_60_car_10_n04285008_11698.png
subject-06,1,238,0.618697881698608,oven,bear,180,0238_ps_s06_180_bear_10_n02134084_18800.png
subject-06,1,239,0.816633939743042,oven,truck,150,0239_ps_s06_150_truck_10_n04467665_31818.png
subject-06,1,240,0.653215885162354,oven,bird,120,0240_ps_s06_120_bird_10_n02009229_3559.png
subject-06,1,241,0.759562015533447,dog,dog,90,0241_ps_s06_90_dog_10_n02086646_5505.png
subject-06,1,242,0.758131980895996,dog,dog,30,0242_ps_s06_30_dog_10_n02093647_4135.png
subject-06,1,243,0.934536933898926,car,car,60,0243_ps_s06_60_car_10_n02814533_3561.png
subject-06,1,244,0.940742969512939,bear,bear,60,0244_ps_s06_60_bear_10_n02134084_617.png
subject-06,1,245,0.8232421875,clock,knife,180,0245_ps_s06_180_knife_10_n03041632_46103.png
subject-06,1,246,0.875773906707764,bicycle,bicycle,0,0246_ps_s06_0_bicycle_10_n02835271_17649.png
subject-06,1,247,0.714119911193848,oven,oven,90,0247_ps_s06_90_oven_10_n04111531_24096.png
subject-06,1,248,1.0263831615448,keyboard,keyboard,120,0248_ps_s06_120_keyboard_10_n03085013_20303.png
subject-06,1,249,1.27048707008362,knife,elephant,30,0249_ps_s06_30_elephant_10_n02504013_4116.png
subject-06,1,250,1.0473690032959,bird,bird,0,0250_ps_s06_0_bird_10_n01530575_2005.png
subject-06,1,251,0.737722873687744,clock,clock,90,0251_ps_s06_90_clock_10_n03196217_417.png
subject-06,1,252,0.913860082626343,boat,boat,30,0252_ps_s06_30_boat_10_n02951358_23710.png
subject-06,1,253,1.3200831413269,bear,elephant,90,0253_ps_s06_90_elephant_10_n02504013_3473.png
subject-06,1,254,1.23236203193665,cat,airplane,180,0254_ps_s06_180_airplane_10_n02690373_6543.png
subject-06,1,255,1.19301700592041,elephant,elephant,30,0255_ps_s06_30_elephant_10_n02504458_4.png
subject-06,1,256,1.32885217666626,elephant,bear,90,0256_ps_s06_90_bear_10_n02134418_979.png
subject-06,1,257,0.989030122756958,car,chair,180,0257_ps_s06_180_chair_10_n03376595_2401.png
subject-06,1,258,0.681126832962036,chair,chair,30,0258_ps_s06_30_chair_10_n04099969_4662.png
subject-06,1,259,1.49388599395752,cat,airplane,150,0259_ps_s06_150_airplane_10_n02690373_2856.png
subject-06,1,260,0.74794602394104,keyboard,keyboard,0,0260_ps_s06_0_keyboard_10_n04505470_945.png
subject-06,1,261,0.762247085571289,bird,bird,60,0261_ps_s06_60_bird_10_n01560419_8596.png
subject-06,1,262,1.28279519081116,boat,boat,0,0262_ps_s06_0_boat_10_n04612504_16016.png
subject-06,1,263,0.605295896530151,chair,chair,60,0263_ps_s06_60_chair_10_n04099969_6189.png
subject-06,1,264,0.465604066848755,cat,elephant,180,0264_ps_s06_180_elephant_10_n02504013_843.png
subject-06,1,265,0.686178207397461,cat,bird,180,0265_ps_s06_180_bird_10_n01601694_15131.png
subject-06,1,266,1.50021505355835,cat,boat,180,0266_ps_s06_180_boat_10_n03344393_5779.png
subject-06,1,267,0.675637006759644,bicycle,bicycle,120,0267_ps_s06_120_bicycle_10_n02835271_4384.png
subject-06,1,268,1.4421079158783,knife,keyboard,90,0268_ps_s06_90_keyboard_10_n04505470_5063.png
subject-06,1,269,0.773080110549927,car,car,60,0269_ps_s06_60_car_10_n02814533_29801.png
subject-06,1,270,1.17708611488342,cat,bear,120,0270_ps_s06_120_bear_10_n02133161_338.png
subject-06,1,271,1.42948293685913,chair,bottle,90,0271_ps_s06_90_bottle_10_n04557648_3989.png
subject-06,1,272,0.713536024093628,bicycle,bicycle,90,0272_ps_s06_90_bicycle_10_n03792782_26168.png
subject-06,1,273,1.4020140171051,dog,bear,90,0273_ps_s06_90_bear_10_n02134084_3903.png
subject-06,1,274,1.24035406112671,bear,bear,90,0274_ps_s06_90_bear_10_n02133161_4617.png
subject-06,1,275,1.37705206871033,cat,chair,120,0275_ps_s06_120_chair_10_n04099969_7391.png
subject-06,1,276,0.515222072601318,cat,cat,30,0276_ps_s06_30_cat_10_n02124075_10807.png
subject-06,1,277,0.659722089767456,oven,truck,150,0277_ps_s06_150_truck_10_n04467665_45326.png
subject-06,1,278,0.949814796447754,oven,cat,90,0278_ps_s06_90_cat_10_n02125311_30993.png
subject-06,1,279,1.18624997138977,airplane,airplane,60,0279_ps_s06_60_airplane_10_n02690373_4964.png
subject-06,1,280,NaN,na,truck,180,0280_ps_s06_180_truck_10_n03796401_9514.png
subject-06,1,281,0.806947946548462,bird,bird,120,0281_ps_s06_120_bird_10_n02002724_3559.png
subject-06,1,282,0.589385986328125,cat,boat,150,0282_ps_s06_150_boat_10_n03344393_9287.png
subject-06,1,283,0.841733932495117,airplane,airplane,90,0283_ps_s06_90_airplane_10_n02690373_10727.png
subject-06,1,284,0.978272914886475,elephant,elephant,30,0284_ps_s06_30_elephant_10_n02504013_6423.png
subject-06,1,285,0.886873006820679,clock,clock,0,0285_ps_s06_0_clock_10_n02708093_2580.png
subject-06,1,286,0.698990821838379,oven,dog,150,0286_ps_s06_150_dog_10_n02097209_7278.png
subject-06,1,287,1.0193018913269,chair,chair,60,0287_ps_s06_60_chair_10_n02791124_1156.png
subject-06,1,288,0.84956693649292,truck,truck,0,0288_ps_s06_0_truck_10_n03417042_14500.png
subject-06,1,289,1.49972581863403,cat,cat,0,0289_ps_s06_0_cat_10_n02123597_7592.png
subject-06,1,290,1.21424102783203,cat,truck,60,0290_ps_s06_60_truck_10_n03796401_6402.png
subject-06,1,291,0.852624893188477,chair,chair,60,0291_ps_s06_60_chair_10_n02791124_2918.png
subject-06,1,292,0.834701061248779,knife,knife,30,0292_ps_s06_30_knife_10_n03041632_12242.png
subject-06,1,293,0.495098114013672,cat,car,150,0293_ps_s06_150_car_10_n03100240_10502.png
subject-06,1,294,0.509619951248169,car,car,60,0294_ps_s06_60_car_10_n03100240_23906.png
subject-06,1,295,0.891983032226562,bottle,bottle,30,0295_ps_s06_30_bottle_10_n02823428_2002.png
subject-06,1,296,1.04379391670227,keyboard,keyboard,30,0296_ps_s06_30_keyboard_10_n03085013_18736.png
subject-06,1,297,0.796513080596924,keyboard,keyboard,30,0297_ps_s06_30_keyboard_10_n04505470_3171.png
subject-06,1,298,0.848536014556885,bottle,elephant,60,0298_ps_s06_60_elephant_10_n02504013_3402.png
subject-06,1,299,0.784899950027466,keyboard,keyboard,30,0299_ps_s06_30_keyboard_10_n03085013_18635.png
subject-06,1,300,0.914445161819458,boat,knife,120,0300_ps_s06_120_knife_10_n03041632_93026.png
subject-06,1,301,0.643136024475098,oven,bicycle,150,0301_ps_s06_150_bicycle_10_n03792782_5639.png
subject-06,1,302,0.741186141967773,oven,elephant,150,0302_ps_s06_150_elephant_10_n02504013_632.png
subject-06,1,303,0.947892904281616,car,car,90,0303_ps_s06_90_car_10_n02814533_83806.png
subject-06,1,304,0.808220863342285,airplane,airplane,60,0304_ps_s06_60_airplane_10_n02690373_7004.png
subject-06,1,305,0.736578941345215,boat,knife,180,0305_ps_s06_180_knife_10_n03041632_36806.png
subject-06,1,306,1.03481292724609,bicycle,bicycle,60,0306_ps_s06_60_bicycle_10_n03792782_692.png
subject-06,1,307,0.717422008514404,cat,bird,180,0307_ps_s06_180_bird_10_n01855032_6638.png
subject-06,1,308,1.3234589099884,car,knife,90,0308_ps_s06_90_knife_10_n03041632_992.png
subject-06,1,309,1.10565996170044,truck,truck,30,0309_ps_s06_30_truck_10_n03417042_12601.png
subject-06,1,310,1.12773013114929,bear,bear,90,0310_ps_s06_90_bear_10_n02134418_7580.png
subject-06,1,311,0.780113935470581,bicycle,bicycle,30,0311_ps_s06_30_bicycle_10_n02835271_21812.png
subject-06,1,312,0.494884967803955,oven,clock,180,0312_ps_s06_180_clock_10_n04548280_2535.png
subject-06,1,313,1.22090291976929,truck,airplane,90,0313_ps_s06_90_airplane_10_n02690373_5475.png
subject-06,1,314,1.28903293609619,knife,oven,90,0314_ps_s06_90_oven_10_n04111531_10306.png
subject-06,1,315,0.771375179290771,cat,clock,180,0315_ps_s06_180_clock_10_n03196217_11913.png
subject-06,1,316,0.915395021438599,boat,cat,180,0316_ps_s06_180_cat_10_n02125311_23095.png
subject-06,1,317,0.99205207824707,oven,bird,150,0317_ps_s06_150_bird_10_n02007558_9659.png
subject-06,1,318,0.76603889465332,cat,knife,180,0318_ps_s06_180_knife_10_n03041632_29276.png
subject-06,1,319,1.08856415748596,oven,elephant,60,0319_ps_s06_60_elephant_10_n02504458_2251.png
subject-06,1,320,1.01991891860962,oven,oven,90,0320_ps_s06_90_oven_10_n04111531_18520.png
subject-06,1,321,0.730431795120239,cat,knife,150,0321_ps_s06_150_knife_10_n03041632_33225.png
subject-06,1,322,0.590797901153564,knife,knife,60,0322_ps_s06_60_knife_10_n03041632_99912.png
subject-06,1,323,0.643308877944946,clock,clock,0,0323_ps_s06_0_clock_10_n03196217_7867.png
subject-06,1,324,1.26426601409912,chair,chair,60,0324_ps_s06_60_chair_10_n02791124_1221.png
subject-06,1,325,0.6788170337677,cat,cat,180,0325_ps_s06_180_cat_10_n02124075_14568.png
subject-06,1,326,0.839167833328247,elephant,elephant,60,0326_ps_s06_60_elephant_10_n02504458_5619.png
subject-06,1,327,0.637067079544067,oven,car,180,0327_ps_s06_180_car_10_n04285008_7375.png
subject-06,1,328,0.77360200881958,bear,bear,0,0328_ps_s06_0_bear_10_n02134084_1881.png
subject-06,1,329,0.865913867950439,cat,bicycle,180,0329_ps_s06_180_bicycle_10_n03792782_8114.png
subject-06,1,330,0.623900890350342,bear,bear,0,0330_ps_s06_0_bear_10_n02134418_2138.png
subject-06,1,331,1.08445119857788,dog,dog,120,0331_ps_s06_120_dog_10_n02107574_3095.png
subject-06,1,332,1.21324610710144,chair,oven,60,0332_ps_s06_60_oven_10_n04111531_3345.png
subject-06,1,333,0.873757123947144,bird,bird,90,0333_ps_s06_90_bird_10_n01514859_9395.png
subject-06,1,334,0.863905906677246,elephant,elephant,30,0334_ps_s06_30_elephant_10_n02504458_6206.png
subject-06,1,335,0.7795250415802,bird,bird,60,0335_ps_s06_60_bird_10_n02006656_2304.png
subject-06,1,336,0.946033000946045,elephant,elephant,120,0336_ps_s06_120_elephant_10_n02504458_7631.png
subject-06,1,337,0.714544057846069,bottle,bottle,60,0337_ps_s06_60_bottle_10_n04557648_9277.png
subject-06,1,338,0.828869819641113,knife,chair,120,0338_ps_s06_120_chair_10_n04099969_8080.png
subject-06,1,339,0.573615074157715,cat,cat,60,0339_ps_s06_60_cat_10_n02123159_2340.png
subject-06,1,340,0.596006155014038,oven,knife,180,0340_ps_s06_180_knife_10_n03041632_43625.png
subject-06,1,341,0.523761034011841,bicycle,bicycle,0,0341_ps_s06_0_bicycle_10_n02835271_13689.png
subject-06,1,342,0.698076963424683,cat,dog,180,0342_ps_s06_180_dog_10_n02099601_7993.png
subject-06,1,343,0.742788076400757,cat,keyboard,180,0343_ps_s06_180_keyboard_10_n03085013_6968.png
subject-06,1,344,0.619279861450195,bird,bird,90,0344_ps_s06_90_bird_10_n02007558_3794.png
subject-06,1,345,0.656026124954224,car,bird,150,0345_ps_s06_150_bird_10_n01582220_10927.png
subject-06,1,346,1.3883810043335,oven,dog,120,0346_ps_s06_120_dog_10_n02095314_1407.png
subject-06,1,347,0.702917814254761,airplane,airplane,30,0347_ps_s06_30_airplane_10_n02690373_20690.png
subject-06,1,348,0.831285953521729,cat,cat,180,0348_ps_s06_180_cat_10_n02123394_7994.png
subject-06,1,349,1.09180998802185,bottle,truck,60,0349_ps_s06_60_truck_10_n04467665_23732.png
subject-06,1,350,0.752117156982422,airplane,airplane,0,0350_ps_s06_0_airplane_10_n02690373_7432.png
subject-06,1,351,1.00249409675598,truck,truck,60,0351_ps_s06_60_truck_10_n03417042_6213.png
subject-06,1,352,0.987314939498901,boat,knife,150,0352_ps_s06_150_knife_10_n03041632_20697.png
subject-06,1,353,0.799453973770142,keyboard,keyboard,0,0353_ps_s06_0_keyboard_10_n04505470_292.png
subject-06,1,354,0.683748006820679,car,truck,120,0354_ps_s06_120_truck_10_n03796401_2884.png
subject-06,1,355,0.742129802703857,elephant,elephant,30,0355_ps_s06_30_elephant_10_n02504013_3540.png
subject-06,1,356,0.556532859802246,oven,chair,120,0356_ps_s06_120_chair_10_n03376595_13703.png
subject-06,1,357,1.06077408790588,bird,bird,30,0357_ps_s06_30_bird_10_n02009912_14322.png
subject-06,1,358,0.845602035522461,boat,boat,0,0358_ps_s06_0_boat_10_n03662601_3087.png
subject-06,1,359,0.657133102416992,oven,oven,180,0359_ps_s06_180_oven_10_n04111531_21248.png
subject-06,1,360,1.33977603912354,clock,knife,30,0360_ps_s06_30_knife_10_n03041632_13424.png
subject-06,1,361,0.631791114807129,airplane,airplane,30,0361_ps_s06_30_airplane_10_n02690373_20331.png
subject-06,1,362,0.590484142303467,cat,cat,0,0362_ps_s06_0_cat_10_n02123045_3818.png
subject-06,1,363,0.758841991424561,oven,elephant,120,0363_ps_s06_120_elephant_10_n02504458_11772.png
subject-06,1,364,0.717005968093872,clock,chair,90,0364_ps_s06_90_chair_10_n02791124_5136.png
subject-06,1,365,0.547019958496094,oven,bicycle,150,0365_ps_s06_150_bicycle_10_n02835271_14891.png
subject-06,1,366,1.27621603012085,knife,oven,60,0366_ps_s06_60_oven_10_n04111531_6204.png
subject-06,1,367,0.582873821258545,cat,cat,150,0367_ps_s06_150_cat_10_n02125311_21953.png
subject-06,1,368,0.673212051391602,bicycle,bicycle,30,0368_ps_s06_30_bicycle_10_n03792782_50569.png
subject-06,1,369,1.31506609916687,car,truck,60,0369_ps_s06_60_truck_10_n04467665_16276.png
subject-06,1,370,0.875191926956177,knife,knife,120,0370_ps_s06_120_knife_10_n03041632_32004.png
subject-06,1,371,0.727843999862671,knife,knife,0,0371_ps_s06_0_knife_10_n03041632_26340.png
subject-06,1,372,1.12616920471191,oven,keyboard,120,0372_ps_s06_120_keyboard_10_n04505470_8620.png
subject-06,1,373,0.992946147918701,cat,bird,150,0373_ps_s06_150_bird_10_n01601694_7633.png
subject-06,1,374,0.715448141098022,chair,chair,0,0374_ps_s06_0_chair_10_n04099969_5013.png
subject-06,1,375,1.02737188339233,truck,truck,0,0375_ps_s06_0_truck_10_n04467665_4593.png
subject-06,1,376,0.763489007949829,boat,truck,180,0376_ps_s06_180_truck_10_n03417042_11871.png
subject-06,1,377,1.3042619228363,boat,boat,90,0377_ps_s06_90_boat_10_n02951358_29442.png
subject-06,1,378,1.10266613960266,bottle,bicycle,120,0378_ps_s06_120_bicycle_10_n02835271_5648.png
subject-06,1,379,0.830604076385498,bottle,oven,90,0379_ps_s06_90_oven_10_n04111531_10199.png
subject-06,1,380,0.999121904373169,airplane,airplane,90,0380_ps_s06_90_airplane_10_n02690373_6314.png
subject-06,1,381,0.667773008346558,cat,bird,180,0381_ps_s06_180_bird_10_n02018207_12183.png
subject-06,1,382,0.895509958267212,bicycle,bird,120,0382_ps_s06_120_bird_10_n01855032_5391.png
subject-06,1,383,0.602205038070679,boat,elephant,150,0383_ps_s06_150_elephant_10_n02504013_10361.png
subject-06,1,384,0.852144002914429,clock,clock,90,0384_ps_s06_90_clock_10_n04548280_1036.png
subject-06,1,385,1.1507740020752,oven,boat,60,0385_ps_s06_60_boat_10_n04273569_11346.png
subject-06,1,386,0.824525117874146,keyboard,keyboard,90,0386_ps_s06_90_keyboard_10_n03085013_7091.png
subject-06,1,387,0.930824041366577,bottle,bottle,60,0387_ps_s06_60_bottle_10_n04591713_1905.png
subject-06,1,388,0.737277984619141,keyboard,clock,120,0388_ps_s06_120_clock_10_n03196217_2442.png
subject-06,1,389,0.620014905929565,truck,truck,30,0389_ps_s06_30_truck_10_n03417042_2204.png
subject-06,1,390,1.14049315452576,car,boat,150,0390_ps_s06_150_boat_10_n02951358_11271.png
subject-06,1,391,0.686629056930542,clock,clock,0,0391_ps_s06_0_clock_10_n04548280_6000.png
subject-06,1,392,0.453104019165039,oven,car,180,0392_ps_s06_180_car_10_n02814533_31170.png
subject-06,1,393,1.05136895179749,bird,bird,0,0393_ps_s06_0_bird_10_n01829413_844.png
subject-06,1,394,0.674190998077393,clock,clock,90,0394_ps_s06_90_clock_10_n04548280_4198.png
subject-06,1,395,0.807996988296509,clock,clock,120,0395_ps_s06_120_clock_10_n02708093_3755.png
subject-06,1,396,1.11986804008484,oven,cat,120,0396_ps_s06_120_cat_10_n02123159_5622.png
subject-06,1,397,0.774327993392944,chair,bicycle,30,0397_ps_s06_30_bicycle_10_n02835271_21294.png
subject-06,1,398,0.610949039459229,cat,truck,180,0398_ps_s06_180_truck_10_n04467665_12820.png
subject-06,1,399,0.754954099655151,oven,oven,0,0399_ps_s06_0_oven_10_n04111531_7221.png
subject-06,1,400,0.953488826751709,cat,bear,60,0400_ps_s06_60_bear_10_n02134084_6840.png
subject-06,1,401,0.850100994110107,knife,knife,120,0401_ps_s06_120_knife_10_n03041632_17100.png
subject-06,1,402,0.58036208152771,cat,cat,30,0402_ps_s06_30_cat_10_n02125311_2622.png
subject-06,1,403,0.724993944168091,cat,dog,180,0403_ps_s06_180_dog_10_n02097474_6892.png
subject-06,1,404,0.898875951766968,airplane,boat,30,0404_ps_s06_30_boat_10_n04273569_32209.png
subject-06,1,405,0.573185920715332,cat,oven,150,0405_ps_s06_150_oven_10_n04111531_18645.png
subject-06,1,406,0.68793797492981,boat,car,150,0406_ps_s06_150_car_10_n04285008_12557.png
subject-06,1,407,1.13794898986816,airplane,car,90,0407_ps_s06_90_car_10_n02814533_38775.png
subject-06,1,408,0.974340915679932,cat,bear,180,0408_ps_s06_180_bear_10_n02134084_6214.png
subject-06,1,409,0.496222019195557,oven,oven,180,0409_ps_s06_180_oven_10_n04111531_21869.png
subject-06,1,410,0.640666961669922,bear,bear,90,0410_ps_s06_90_bear_10_n02132136_12616.png
subject-06,1,411,0.868834018707275,elephant,elephant,30,0411_ps_s06_30_elephant_10_n02504013_24217.png
subject-06,1,412,0.880522966384888,keyboard,keyboard,90,0412_ps_s06_90_keyboard_10_n04505470_10744.png
subject-06,1,413,0.829964160919189,boat,keyboard,150,0413_ps_s06_150_keyboard_10_n04505470_8828.png
subject-06,1,414,1.344477891922,keyboard,clock,90,0414_ps_s06_90_clock_10_n04548280_3644.png
subject-06,1,415,0.742478132247925,keyboard,keyboard,180,0415_ps_s06_180_keyboard_10_n04505470_4138.png
subject-06,1,416,1.03867292404175,knife,chair,120,0416_ps_s06_120_chair_10_n04099969_6435.png
subject-06,1,417,0.652965784072876,oven,boat,120,0417_ps_s06_120_boat_10_n03344393_7433.png
subject-06,1,418,0.813371181488037,oven,oven,60,0418_ps_s06_60_oven_10_n04111531_6993.png
subject-06,1,419,1.00948691368103,truck,truck,0,0419_ps_s06_0_truck_10_n04467665_57085.png
subject-06,1,420,1.36186790466309,cat,car,180,0420_ps_s06_180_car_10_n03100240_5527.png
subject-06,1,421,1.20602083206177,clock,knife,30,0421_ps_s06_30_knife_10_n03041632_33198.png
subject-06,1,422,0.834243059158325,oven,bird,120,0422_ps_s06_120_bird_10_n01817953_1.png
subject-06,1,423,0.740822076797485,cat,boat,150,0423_ps_s06_150_boat_10_n04612504_652.png
subject-06,1,424,0.727662086486816,bottle,bottle,30,0424_ps_s06_30_bottle_10_n04591713_3793.png
subject-06,1,425,0.68802809715271,oven,oven,0,0425_ps_s06_0_oven_10_n04111531_2241.png
subject-06,1,426,0.92452597618103,cat,clock,120,0426_ps_s06_120_clock_10_n03196217_11980.png
subject-06,1,427,0.860811233520508,keyboard,clock,180,0427_ps_s06_180_clock_10_n03196217_2730.png
subject-06,1,428,0.534800052642822,cat,chair,180,0428_ps_s06_180_chair_10_n02791124_16332.png
subject-06,1,429,0.555542945861816,oven,oven,90,0429_ps_s06_90_oven_10_n04111531_4939.png
subject-06,1,430,0.975615978240967,boat,bird,150,0430_ps_s06_150_bird_10_n02018207_10148.png
subject-06,1,431,0.635905981063843,boat,boat,180,0431_ps_s06_180_boat_10_n02951358_11794.png
subject-06,1,432,0.626113891601562,oven,cat,150,0432_ps_s06_150_cat_10_n02123597_5013.png
subject-06,1,433,0.60868501663208,cat,bottle,150,0433_ps_s06_150_bottle_10_n02823428_9008.png
subject-06,1,434,0.714773893356323,bear,bear,90,0434_ps_s06_90_bear_10_n02133161_15481.png
subject-06,1,435,NaN,na,bird,90,0435_ps_s06_90_bird_10_n02002724_7067.png
subject-06,1,436,0.671236038208008,knife,knife,90,0436_ps_s06_90_knife_10_n03041632_4806.png
subject-06,1,437,0.815332889556885,airplane,airplane,30,0437_ps_s06_30_airplane_10_n02690373_8619.png
subject-06,1,438,1.26528596878052,bicycle,boat,60,0438_ps_s06_60_boat_10_n02951358_12385.png
subject-06,1,439,0.787932157516479,airplane,airplane,90,0439_ps_s06_90_airplane_10_n02690373_7676.png
subject-06,1,440,0.724309921264648,car,keyboard,150,0440_ps_s06_150_keyboard_10_n03085013_1830.png
subject-06,1,441,0.860865831375122,car,boat,90,0441_ps_s06_90_boat_10_n02951358_7714.png
subject-06,1,442,0.975514888763428,bottle,bottle,30,0442_ps_s06_30_bottle_10_n04579145_3112.png
subject-06,1,443,0.817516088485718,bird,bird,90,0443_ps_s06_90_bird_10_n02025239_2476.png
subject-06,1,444,1.47953701019287,truck,truck,30,0444_ps_s06_30_truck_10_n03796401_10208.png
subject-06,1,445,0.531616926193237,cat,oven,120,0445_ps_s06_120_oven_10_n04111531_3717.png
subject-06,1,446,0.591984987258911,cat,truck,150,0446_ps_s06_150_truck_10_n03796401_16264.png
subject-06,1,447,0.789838075637817,clock,clock,30,0447_ps_s06_30_clock_10_n02708093_2346.png
subject-06,1,448,0.807354927062988,car,car,120,0448_ps_s06_120_car_10_n03100240_416.png
subject-06,1,449,0.851890802383423,boat,keyboard,180,0449_ps_s06_180_keyboard_10_n03085013_6610.png
subject-06,1,450,0.657646894454956,clock,clock,0,0450_ps_s06_0_clock_10_n03196217_1850.png
subject-06,1,451,0.872093915939331,boat,cat,120,0451_ps_s06_120_cat_10_n02123394_853.png
subject-06,1,452,1.19267010688782,oven,oven,150,0452_ps_s06_150_oven_10_n04111531_7134.png
subject-06,1,453,0.936980962753296,oven,bird,180,0453_ps_s06_180_bird_10_n01819313_1770.png
subject-06,1,454,0.773337125778198,oven,car,150,0454_ps_s06_150_car_10_n03100240_7624.png
subject-06,1,455,1.12567210197449,oven,clock,120,0455_ps_s06_120_clock_10_n04548280_9340.png
subject-06,1,456,0.729866027832031,bird,bird,0,0456_ps_s06_0_bird_10_n01819313_4649.png
subject-06,1,457,0.814028978347778,elephant,elephant,0,0457_ps_s06_0_elephant_10_n02504013_10410.png
subject-06,1,458,0.977761030197144,bicycle,bicycle,0,0458_ps_s06_0_bicycle_10_n03792782_3067.png
subject-06,1,459,1.37597584724426,truck,truck,30,0459_ps_s06_30_truck_10_n03417042_5566.png
subject-06,1,460,0.697957992553711,bicycle,bicycle,90,0460_ps_s06_90_bicycle_10_n03792782_21832.png
subject-06,1,461,1.20766592025757,dog,bear,60,0461_ps_s06_60_bear_10_n02134084_21456.png
subject-06,1,462,1.47368311882019,dog,dog,60,0462_ps_s06_60_dog_10_n02108000_4615.png
subject-06,1,463,0.650266885757446,bear,bear,60,0463_ps_s06_60_bear_10_n02133161_9463.png
subject-06,1,464,0.816035985946655,cat,bird,150,0464_ps_s06_150_bird_10_n01855672_6812.png
subject-06,1,465,0.89251184463501,cat,knife,150,0465_ps_s06_150_knife_10_n03041632_21723.png
subject-06,1,466,1.23489284515381,bird,boat,90,0466_ps_s06_90_boat_10_n03344393_438.png
subject-06,1,467,0.840879917144775,bear,bear,60,0467_ps_s06_60_bear_10_n02133161_12739.png
subject-06,1,468,1.25375008583069,elephant,bear,0,0468_ps_s06_0_bear_10_n02134418_5510.png
subject-06,1,469,0.721455097198486,bird,bird,120,0469_ps_s06_120_bird_10_n01828970_21837.png
subject-06,1,470,0.81161093711853,cat,keyboard,150,0470_ps_s06_150_keyboard_10_n04505470_4742.png
subject-06,1,471,0.564121007919312,cat,boat,180,0471_ps_s06_180_boat_10_n04273569_25972.png
subject-06,1,472,1.50015115737915,keyboard,bicycle,90,0472_ps_s06_90_bicycle_10_n02835271_2940.png
subject-06,1,473,0.498934984207153,boat,boat,30,0473_ps_s06_30_boat_10_n04273569_11038.png
subject-06,1,474,0.705397129058838,boat,truck,120,0474_ps_s06_120_truck_10_n03417042_5320.png
subject-06,1,475,0.747847080230713,airplane,airplane,90,0475_ps_s06_90_airplane_10_n02690373_12813.png
subject-06,1,476,0.845685005187988,bottle,bottle,60,0476_ps_s06_60_bottle_10_n04560804_16052.png
subject-06,1,477,1.02015614509583,bear,bear,0,0477_ps_s06_0_bear_10_n02133161_5377.png
subject-06,1,478,0.87263011932373,cat,clock,180,0478_ps_s06_180_clock_10_n03196217_5845.png
subject-06,1,479,1.05519008636475,cat,knife,120,0479_ps_s06_120_knife_10_n03041632_16020.png
subject-06,1,480,0.861078023910522,bear,bear,30,0480_ps_s06_30_bear_10_n02134418_18013.png
subject-06,1,481,0.688092947006226,cat,bicycle,180,0481_ps_s06_180_bicycle_10_n03792782_774.png
subject-06,1,482,0.840327978134155,clock,clock,60,0482_ps_s06_60_clock_10_n04548280_4287.png
subject-06,1,483,0.762824058532715,bicycle,chair,120,0483_ps_s06_120_chair_10_n04429376_26336.png
subject-06,1,484,0.604923009872437,cat,clock,150,0484_ps_s06_150_clock_10_n02708093_8038.png
subject-06,1,485,0.535459041595459,oven,knife,150,0485_ps_s06_150_knife_10_n03041632_51766.png
subject-06,1,486,0.663892984390259,cat,cat,30,0486_ps_s06_30_cat_10_n02123597_13552.png
subject-06,1,487,0.554582834243774,cat,airplane,150,0487_ps_s06_150_airplane_10_n02690373_8406.png
subject-06,1,488,0.582880973815918,cat,bear,120,0488_ps_s06_120_bear_10_n02134084_14505.png
subject-06,1,489,0.581053972244263,cat,bicycle,150,0489_ps_s06_150_bicycle_10_n03792782_9183.png
subject-06,1,490,0.711534023284912,clock,clock,90,0490_ps_s06_90_clock_10_n03196217_12291.png
subject-06,1,491,0.426315069198608,cat,cat,180,0491_ps_s06_180_cat_10_n02125311_46330.png
subject-06,1,492,0.676018953323364,cat,bear,150,0492_ps_s06_150_bear_10_n02133161_4753.png
subject-06,1,493,0.988307952880859,elephant,elephant,90,0493_ps_s06_90_elephant_10_n02504458_4439.png
subject-06,1,494,0.678553104400635,cat,elephant,180,0494_ps_s06_180_elephant_10_n02504458_7842.png
subject-06,1,495,1.12297797203064,truck,truck,30,0495_ps_s06_30_truck_10_n04467665_52552.png
subject-06,1,496,0.991488933563232,chair,boat,120,0496_ps_s06_120_boat_10_n03662601_38238.png
subject-06,1,497,0.719874858856201,cat,chair,180,0497_ps_s06_180_chair_10_n02791124_733.png
subject-06,1,498,0.788631916046143,cat,airplane,180,0498_ps_s06_180_airplane_10_n02690373_8641.png
subject-06,1,499,0.738646030426025,oven,oven,90,0499_ps_s06_90_oven_10_n04111531_12053.png
subject-06,1,500,0.891028881072998,cat,bear,180,0500_ps_s06_180_bear_10_n02132136_6778.png
subject-06,1,501,0.689184904098511,car,car,120,0501_ps_s06_120_car_10_n04285008_7098.png
subject-06,1,502,1.05539011955261,oven,cat,120,0502_ps_s06_120_cat_10_n02124075_12686.png
subject-06,1,503,1.03801894187927,keyboard,keyboard,90,0503_ps_s06_90_keyboard_10_n04505470_4068.png
subject-06,1,504,0.806311130523682,chair,clock,90,0504_ps_s06_90_clock_10_n03196217_2503.png
subject-06,1,505,1.23221492767334,chair,bird,60,0505_ps_s06_60_bird_10_n01820546_4394.png
subject-06,1,506,0.984683036804199,cat,dog,150,0506_ps_s06_150_dog_10_n02097474_6763.png
subject-06,1,507,0.86886191368103,knife,knife,60,0507_ps_s06_60_knife_10_n03041632_20504.png
subject-06,1,508,1.18144202232361,knife,car,150,0508_ps_s06_150_car_10_n03100240_6661.png
subject-06,1,509,0.833580017089844,keyboard,knife,60,0509_ps_s06_60_knife_10_n03041632_30565.png
subject-06,1,510,1.13217496871948,oven,car,120,0510_ps_s06_120_car_10_n02814533_4697.png
subject-06,1,511,0.898173093795776,airplane,airplane,60,0511_ps_s06_60_airplane_10_n02690373_7036.png
subject-06,1,512,0.658957004547119,bird,bird,60,0512_ps_s06_60_bird_10_n01616318_33424.png
subject-06,1,513,0.940994024276733,clock,clock,150,0513_ps_s06_150_clock_10_n03196217_634.png
subject-06,1,514,0.701190948486328,chair,chair,90,0514_ps_s06_90_chair_10_n04099969_1229.png
subject-06,1,515,0.821614027023315,keyboard,keyboard,60,0515_ps_s06_60_keyboard_10_n03085013_20416.png
subject-06,1,516,0.808976888656616,keyboard,keyboard,150,0516_ps_s06_150_keyboard_10_n03085013_20453.png
subject-06,1,517,1.28311800956726,keyboard,keyboard,0,0517_ps_s06_0_keyboard_10_n03085013_19432.png
subject-06,1,518,1.44945001602173,car,car,90,0518_ps_s06_90_car_10_n03100240_4982.png
subject-06,1,519,1.07973885536194,keyboard,keyboard,60,0519_ps_s06_60_keyboard_10_n03085013_1426.png
subject-06,1,520,1.31652402877808,cat,bear,30,0520_ps_s06_30_bear_10_n02132136_729.png
subject-06,1,521,0.690535068511963,keyboard,keyboard,30,0521_ps_s06_30_keyboard_10_n03085013_20138.png
subject-06,1,522,0.942909002304077,car,car,60,0522_ps_s06_60_car_10_n02814533_12348.png
subject-06,1,523,0.911573886871338,elephant,bottle,120,0523_ps_s06_120_bottle_10_n02823428_3970.png
subject-06,1,524,0.624050855636597,cat,cat,120,0524_ps_s06_120_cat_10_n02124075_12115.png
subject-06,1,525,1.10637903213501,car,knife,180,0525_ps_s06_180_knife_10_n03041632_20576.png
subject-06,1,526,1.06410193443298,bear,bear,0,0526_ps_s06_0_bear_10_n02134084_22092.png
subject-06,1,527,1.02737092971802,dog,dog,0,0527_ps_s06_0_dog_10_n02100735_336.png
subject-06,1,528,0.917484045028687,bicycle,bicycle,60,0528_ps_s06_60_bicycle_10_n03792782_3754.png
subject-06,1,529,1.25970005989075,cat,oven,150,0529_ps_s06_150_oven_10_n04111531_19104.png
subject-06,1,530,1.07174801826477,oven,truck,150,0530_ps_s06_150_truck_10_n04467665_6687.png
subject-06,1,531,0.8401780128479,bear,elephant,90,0531_ps_s06_90_elephant_10_n02504013_1088.png
subject-06,1,532,1.0145959854126,cat,truck,180,0532_ps_s06_180_truck_10_n03417042_27017.png
subject-06,1,533,0.950847864151001,keyboard,car,120,0533_ps_s06_120_car_10_n03100240_6514.png
subject-06,1,534,1.30353307723999,knife,knife,0,0534_ps_s06_0_knife_10_n03041632_23546.png
subject-06,1,535,0.91801905632019,airplane,airplane,60,0535_ps_s06_60_airplane_10_n02690373_1295.png
subject-06,1,536,0.716662168502808,bicycle,bicycle,90,0536_ps_s06_90_bicycle_10_n03792782_8176.png
subject-06,1,537,1.20488810539246,bicycle,bottle,180,0537_ps_s06_180_bottle_10_n04560804_2190.png
subject-06,1,538,0.994619131088257,truck,truck,0,0538_ps_s06_0_truck_10_n04467665_30208.png
subject-06,1,539,0.830480098724365,boat,boat,60,0539_ps_s06_60_boat_10_n03662601_12323.png
subject-06,1,540,1.29630208015442,cat,keyboard,150,0540_ps_s06_150_keyboard_10_n04505470_142.png
subject-06,1,541,0.764583110809326,boat,boat,120,0541_ps_s06_120_boat_10_n02951358_2753.png
subject-06,1,542,1.06072998046875,dog,dog,60,0542_ps_s06_60_dog_10_n02095570_8650.png
subject-06,1,543,0.783310174942017,cat,boat,120,0543_ps_s06_120_boat_10_n03662601_2792.png
subject-06,1,544,0.91158390045166,dog,dog,90,0544_ps_s06_90_dog_10_n02105855_4871.png
subject-06,1,545,0.88617205619812,cat,cat,30,0545_ps_s06_30_cat_10_n02123159_7446.png
subject-06,1,546,1.13888812065125,cat,dog,0,0546_ps_s06_0_dog_10_n02090721_6761.png
subject-06,1,547,0.567113876342773,cat,car,180,0547_ps_s06_180_car_10_n04285008_4142.png
subject-06,1,548,0.742881059646606,cat,airplane,180,0548_ps_s06_180_airplane_10_n02690373_10001.png
subject-06,1,549,0.969462156295776,cat,truck,180,0549_ps_s06_180_truck_10_n03417042_18738.png
subject-06,1,550,0.921565055847168,knife,knife,60,0550_ps_s06_60_knife_10_n03041632_89912.png
subject-06,1,551,0.728276968002319,clock,clock,30,0551_ps_s06_30_clock_10_n04548280_8705.png
subject-06,1,552,0.87275218963623,keyboard,keyboard,120,0552_ps_s06_120_keyboard_10_n03085013_14279.png
subject-06,1,553,0.862730979919434,keyboard,cat,90,0553_ps_s06_90_cat_10_n02123159_7907.png
subject-06,1,554,1.05112195014954,keyboard,keyboard,0,0554_ps_s06_0_keyboard_10_n04505470_5086.png
subject-06,1,555,0.735832929611206,boat,boat,90,0555_ps_s06_90_boat_10_n04273569_14178.png
subject-06,1,556,1.02873301506042,bear,bicycle,120,0556_ps_s06_120_bicycle_10_n02835271_4096.png
subject-06,1,557,1.31905603408813,airplane,airplane,90,0557_ps_s06_90_airplane_10_n02690373_4320.png
subject-06,1,558,1.23478388786316,cat,bear,180,0558_ps_s06_180_bear_10_n02133161_3084.png
subject-06,1,559,0.925065040588379,bicycle,bicycle,60,0559_ps_s06_60_bicycle_10_n03792782_4522.png
subject-06,1,560,0.923632144927979,boat,boat,60,0560_ps_s06_60_boat_10_n02951358_3159.png
subject-06,1,561,0.892086029052734,clock,clock,60,0561_ps_s06_60_clock_10_n02708093_3262.png
subject-06,1,562,1.50024199485779,bear,bear,0,0562_ps_s06_0_bear_10_n02133161_7038.png
subject-06,1,563,0.802914142608643,cat,cat,60,0563_ps_s06_60_cat_10_n02123159_4803.png
subject-06,1,564,0.85527491569519,cat,bear,150,0564_ps_s06_150_bear_10_n02134084_2829.png
subject-06,1,565,0.675457954406738,oven,bird,150,0565_ps_s06_150_bird_10_n01796340_9255.png
subject-06,1,566,0.550004005432129,cat,dog,90,0566_ps_s06_90_dog_10_n02109961_1824.png
subject-06,1,567,1.12418007850647,bottle,bottle,0,0567_ps_s06_0_bottle_10_n03937543_3725.png
subject-06,1,568,1.17689895629883,bottle,clock,60,0568_ps_s06_60_clock_10_n03196217_71.png
subject-06,1,569,1.08946681022644,knife,knife,60,0569_ps_s06_60_knife_10_n03041632_22241.png
subject-06,1,570,1.0875608921051,airplane,airplane,30,0570_ps_s06_30_airplane_10_n02690373_1386.png
subject-06,1,571,1.07808709144592,boat,boat,0,0571_ps_s06_0_boat_10_n04612504_9422.png
subject-06,1,572,1.43809819221497,cat,oven,90,0572_ps_s06_90_oven_10_n04111531_9881.png
subject-06,1,573,1.0824658870697,cat,bird,180,0573_ps_s06_180_bird_10_n02017213_4282.png
subject-06,1,574,0.696702003479004,bottle,bottle,0,0574_ps_s06_0_bottle_10_n02823428_628.png
subject-06,1,575,0.97894287109375,knife,car,120,0575_ps_s06_120_car_10_n04285008_8296.png
subject-06,1,576,0.77843189239502,boat,bird,90,0576_ps_s06_90_bird_10_n01796340_2306.png
subject-06,1,577,0.830684900283813,bird,bird,30,0577_ps_s06_30_bird_10_n01860187_1815.png
subject-06,1,578,1.20299315452576,airplane,truck,90,0578_ps_s06_90_truck_10_n03796401_6710.png
subject-06,1,579,1.47757792472839,bottle,bottle,0,0579_ps_s06_0_bottle_10_n04579145_2004.png
subject-06,1,580,NaN,na,chair,0,0580_ps_s06_0_chair_10_n02791124_5908.png
subject-06,1,581,0.722578048706055,cat,bottle,150,0581_ps_s06_150_bottle_10_n04557648_9345.png
subject-06,1,582,0.713302850723267,cat,bear,150,0582_ps_s06_150_bear_10_n02132136_2470.png
subject-06,1,583,0.863070964813232,keyboard,keyboard,120,0583_ps_s06_120_keyboard_10_n04505470_4166.png
subject-06,1,584,0.747430086135864,cat,elephant,120,0584_ps_s06_120_elephant_10_n02504458_5641.png
subject-06,1,585,0.645972013473511,oven,oven,60,0585_ps_s06_60_oven_10_n04111531_7139.png
subject-06,1,586,0.804471015930176,cat,knife,150,0586_ps_s06_150_knife_10_n03041632_18959.png
subject-06,1,587,1.50037717819214,bird,bird,60,0587_ps_s06_60_bird_10_n01531178_2725.png
subject-06,1,588,1.03119301795959,bottle,bottle,0,0588_ps_s06_0_bottle_10_n04579145_2214.png
subject-06,1,589,1.12164688110352,cat,dog,150,0589_ps_s06_150_dog_10_n02109525_21801.png
subject-06,1,590,0.550057888031006,cat,truck,150,0590_ps_s06_150_truck_10_n03417042_679.png
subject-06,1,591,0.894604921340942,cat,cat,120,0591_ps_s06_120_cat_10_n02123159_4527.png
subject-06,1,592,0.54705286026001,oven,oven,120,0592_ps_s06_120_oven_10_n04111531_2199.png
subject-06,1,593,0.774808883666992,cat,boat,150,0593_ps_s06_150_boat_10_n03662601_6940.png
subject-06,1,594,1.14928102493286,keyboard,keyboard,120,0594_ps_s06_120_keyboard_10_n04505470_1914.png
subject-06,1,595,0.563815832138062,truck,truck,0,0595_ps_s06_0_truck_10_n03417042_6358.png
subject-06,1,596,0.784696817398071,oven,boat,120,0596_ps_s06_120_boat_10_n04273569_1469.png
subject-06,1,597,0.888720989227295,elephant,elephant,90,0597_ps_s06_90_elephant_10_n02504458_5565.png
subject-06,1,598,1.2249550819397,elephant,truck,120,0598_ps_s06_120_truck_10_n03417042_9023.png
subject-06,1,599,1.13176393508911,bicycle,bicycle,30,0599_ps_s06_30_bicycle_10_n02835271_1665.png
subject-06,1,600,0.997511148452759,airplane,airplane,0,0600_ps_s06_0_airplane_10_n02690373_5007.png
subject-06,1,601,0.979782104492188,cat,truck,180,0601_ps_s06_180_truck_10_n03417042_620.png
subject-06,1,602,1.06234407424927,oven,cat,90,0602_ps_s06_90_cat_10_n02123597_6717.png
subject-06,1,603,0.522188901901245,oven,dog,150,0603_ps_s06_150_dog_10_n02097658_85.png
subject-06,1,604,0.550614833831787,bottle,bottle,30,0604_ps_s06_30_bottle_10_n02823428_5933.png
subject-06,1,605,1.28708481788635,car,car,90,0605_ps_s06_90_car_10_n04285008_14119.png
subject-06,1,606,0.839779853820801,oven,clock,120,0606_ps_s06_120_clock_10_n04548280_5189.png
subject-06,1,607,0.913817882537842,oven,cat,90,0607_ps_s06_90_cat_10_n02123394_2870.png
subject-06,1,608,0.603841066360474,keyboard,keyboard,120,0608_ps_s06_120_keyboard_10_n03085013_15432.png
subject-06,1,609,1.27066707611084,keyboard,oven,0,0609_ps_s06_0_oven_10_n04111531_15629.png
subject-06,1,610,0.775179862976074,oven,elephant,180,0610_ps_s06_180_elephant_10_n02504013_1187.png
subject-06,1,611,1.01925611495972,clock,clock,30,0611_ps_s06_30_clock_10_n04548280_3018.png
subject-06,1,612,0.663489103317261,cat,car,180,0612_ps_s06_180_car_10_n04285008_12927.png
subject-06,1,613,1.36778020858765,chair,chair,60,0613_ps_s06_60_chair_10_n04099969_9789.png
subject-06,1,614,1.01245999336243,keyboard,dog,90,0614_ps_s06_90_dog_10_n02100877_18212.png
subject-06,1,615,0.903044939041138,dog,dog,60,0615_ps_s06_60_dog_10_n02086646_6126.png
subject-06,1,616,0.488760232925415,cat,clock,180,0616_ps_s06_180_clock_10_n04548280_11806.png
subject-06,1,617,0.917451143264771,cat,airplane,120,0617_ps_s06_120_airplane_10_n02690373_4188.png
subject-06,1,618,0.975589990615845,knife,knife,90,0618_ps_s06_90_knife_10_n03041632_30553.png
subject-06,1,619,1.05807900428772,boat,dog,120,0619_ps_s06_120_dog_10_n02094433_4091.png
subject-06,1,620,1.21049094200134,cat,clock,150,0620_ps_s06_150_clock_10_n02708093_612.png
subject-06,1,621,1.37664079666138,clock,clock,0,0621_ps_s06_0_clock_10_n04548280_5221.png
subject-06,1,622,1.05113983154297,truck,truck,90,0622_ps_s06_90_truck_10_n03417042_4665.png
subject-06,1,623,1.45752096176147,cat,cat,150,0623_ps_s06_150_cat_10_n02123045_10849.png
subject-06,1,624,0.656327962875366,cat,bear,180,0624_ps_s06_180_bear_10_n02132136_2313.png
subject-06,1,625,1.50025105476379,clock,clock,0,0625_ps_s06_0_clock_10_n03196217_981.png
subject-06,1,626,1.36721110343933,oven,bicycle,60,0626_ps_s06_60_bicycle_10_n03792782_51860.png
subject-06,1,627,0.805974006652832,cat,oven,180,0627_ps_s06_180_oven_10_n04111531_6810.png
subject-06,1,628,1.20218300819397,car,car,30,0628_ps_s06_30_car_10_n03100240_520.png
subject-06,1,629,1.24660897254944,clock,clock,90,0629_ps_s06_90_clock_10_n02708093_2063.png
subject-06,1,630,0.844784021377563,elephant,elephant,30,0630_ps_s06_30_elephant_10_n02504458_3912.png
subject-06,1,631,0.743464946746826,keyboard,keyboard,0,0631_ps_s06_0_keyboard_10_n04505470_5354.png
subject-06,1,632,NaN,na,dog,0,0632_ps_s06_0_dog_10_n02086079_3922.png
subject-06,1,633,1.29746699333191,bicycle,boat,90,0633_ps_s06_90_boat_10_n02951358_7112.png
subject-06,1,634,0.811877012252808,bottle,bottle,60,0634_ps_s06_60_bottle_10_n04557648_935.png
subject-06,1,635,0.618036985397339,cat,boat,90,0635_ps_s06_90_boat_10_n03344393_6356.png
subject-06,1,636,0.585442066192627,oven,bottle,120,0636_ps_s06_120_bottle_10_n04591713_1658.png
subject-06,1,637,0.583428859710693,cat,bicycle,180,0637_ps_s06_180_bicycle_10_n03792782_18308.png
subject-06,1,638,0.920002937316895,airplane,airplane,60,0638_ps_s06_60_airplane_10_n02690373_6116.png
subject-06,1,639,1.04865193367004,cat,airplane,150,0639_ps_s06_150_airplane_10_n02690373_6195.png
subject-06,1,640,0.698549032211304,cat,truck,120,0640_ps_s06_120_truck_10_n03417042_5098.png
subject-06,1,641,0.798506021499634,bear,bear,30,0641_ps_s06_30_bear_10_n02134084_14068.png
subject-06,1,642,0.559036016464233,cat,bear,120,0642_ps_s06_120_bear_10_n02132136_3329.png
subject-06,1,643,0.533585071563721,car,car,60,0643_ps_s06_60_car_10_n03100240_7572.png
subject-06,1,644,0.691644906997681,elephant,elephant,0,0644_ps_s06_0_elephant_10_n02504458_4236.png
subject-06,1,645,0.428177833557129,cat,knife,150,0645_ps_s06_150_knife_10_n03041632_35260.png
subject-06,1,646,1.01059699058533,knife,bottle,120,0646_ps_s06_120_bottle_10_n04560804_12309.png
subject-06,1,647,0.746709823608398,boat,boat,90,0647_ps_s06_90_boat_10_n04273569_229.png
subject-06,1,648,0.6286940574646,knife,knife,0,0648_ps_s06_0_knife_10_n03041632_3159.png
subject-06,1,649,0.441580057144165,cat,knife,150,0649_ps_s06_150_knife_10_n03041632_24561.png
subject-06,1,650,0.891756057739258,airplane,bicycle,90,0650_ps_s06_90_bicycle_10_n02835271_9602.png
subject-06,1,651,0.368293046951294,cat,clock,150,0651_ps_s06_150_clock_10_n04548280_4947.png
subject-06,1,652,0.483044862747192,boat,elephant,180,0652_ps_s06_180_elephant_10_n02504458_66.png
subject-06,1,653,0.503196954727173,oven,keyboard,180,0653_ps_s06_180_keyboard_10_n04505470_5050.png
subject-06,1,654,0.669504880905151,bicycle,bicycle,30,0654_ps_s06_30_bicycle_10_n02835271_8098.png
subject-06,1,655,0.481890916824341,cat,elephant,180,0655_ps_s06_180_elephant_10_n02504013_2212.png
subject-06,1,656,0.542036771774292,keyboard,keyboard,120,0656_ps_s06_120_keyboard_10_n03085013_24172.png
subject-06,1,657,0.492562055587769,oven,oven,0,0657_ps_s06_0_oven_10_n04111531_11230.png
subject-06,1,658,0.628738164901733,chair,chair,30,0658_ps_s06_30_chair_10_n04429376_25756.png
subject-06,1,659,1.09475588798523,bicycle,boat,60,0659_ps_s06_60_boat_10_n02951358_26580.png
subject-06,1,660,0.585663080215454,cat,cat,90,0660_ps_s06_90_cat_10_n02123394_1450.png
subject-06,1,661,0.689485788345337,chair,chair,60,0661_ps_s06_60_chair_10_n04099969_1087.png
subject-06,1,662,0.596323013305664,boat,boat,0,0662_ps_s06_0_boat_10_n03344393_1545.png
subject-06,1,663,0.8401780128479,chair,chair,0,0663_ps_s06_0_chair_10_n03376595_754.png
subject-06,1,664,1.21204590797424,car,knife,120,0664_ps_s06_120_knife_10_n03041632_7680.png
subject-06,1,665,0.858434200286865,cat,dog,150,0665_ps_s06_150_dog_10_n02113712_4139.png
subject-06,1,666,0.816285848617554,cat,bottle,180,0666_ps_s06_180_bottle_10_n03937543_2668.png
subject-06,1,667,0.812440156936646,oven,oven,60,0667_ps_s06_60_oven_10_n04111531_13801.png
subject-06,1,668,1.15716505050659,chair,chair,120,0668_ps_s06_120_chair_10_n02791124_5415.png
subject-06,1,669,1.15366792678833,car,dog,120,0669_ps_s06_120_dog_10_n02106550_4437.png
subject-06,1,670,0.892025947570801,oven,bird,180,0670_ps_s06_180_bird_10_n01843383_1996.png
subject-06,1,671,0.720578908920288,cat,elephant,180,0671_ps_s06_180_elephant_10_n02504458_242.png
subject-06,1,672,0.970808029174805,oven,elephant,120,0672_ps_s06_120_elephant_10_n02504013_2984.png
subject-06,1,673,0.89047908782959,chair,clock,180,0673_ps_s06_180_clock_10_n04548280_2170.png
subject-06,1,674,0.748548984527588,cat,truck,90,0674_ps_s06_90_truck_10_n03796401_867.png
subject-06,1,675,0.571041107177734,clock,clock,30,0675_ps_s06_30_clock_10_n04548280_24096.png
subject-06,1,676,0.545188903808594,cat,knife,150,0676_ps_s06_150_knife_10_n03041632_31849.png
subject-06,1,677,0.765609979629517,chair,car,120,0677_ps_s06_120_car_10_n04285008_2942.png
subject-06,1,678,0.609495878219604,cat,clock,150,0678_ps_s06_150_clock_10_n03196217_8198.png
subject-06,1,679,0.376071929931641,boat,bird,150,0679_ps_s06_150_bird_10_n01560419_5993.png
subject-06,1,680,0.742810964584351,bird,bird,0,0680_ps_s06_0_bird_10_n01860187_9357.png
subject-06,1,681,0.370743036270142,cat,elephant,150,0681_ps_s06_150_elephant_10_n02504013_4997.png
subject-06,1,682,0.677406072616577,oven,bottle,180,0682_ps_s06_180_bottle_10_n03983396_3164.png
subject-06,1,683,0.413847923278809,cat,bottle,180,0683_ps_s06_180_bottle_10_n02823428_14155.png
subject-06,1,684,0.656247854232788,boat,truck,90,0684_ps_s06_90_truck_10_n03417042_5698.png
subject-06,1,685,0.624634981155396,elephant,elephant,0,0685_ps_s06_0_elephant_10_n02504458_12776.png
subject-06,1,686,0.766855955123901,cat,elephant,150,0686_ps_s06_150_elephant_10_n02504013_7271.png
subject-06,1,687,0.464868783950806,chair,chair,30,0687_ps_s06_30_chair_10_n03376595_9838.png
subject-06,1,688,0.917534112930298,bicycle,bicycle,30,0688_ps_s06_30_bicycle_10_n03792782_10179.png
subject-06,1,689,0.70006799697876,car,car,90,0689_ps_s06_90_car_10_n02814533_17701.png
subject-06,1,690,0.652400970458984,dog,dog,0,0690_ps_s06_0_dog_10_n02096585_3216.png
subject-06,1,691,0.719665050506592,cat,cat,150,0691_ps_s06_150_cat_10_n02123597_8723.png
subject-06,1,692,0.880172967910767,bottle,bottle,90,0692_ps_s06_90_bottle_10_n03983396_4285.png
subject-06,1,693,0.716535091400146,oven,oven,150,0693_ps_s06_150_oven_10_n04111531_4146.png
subject-06,1,694,0.458801031112671,bottle,bottle,30,0694_ps_s06_30_bottle_10_n03983396_4115.png
subject-06,1,695,0.93333101272583,elephant,elephant,60,0695_ps_s06_60_elephant_10_n02504458_8172.png
subject-06,1,696,1.17772603034973,oven,oven,30,0696_ps_s06_30_oven_10_n04111531_3976.png
subject-06,1,697,0.622377157211304,bird,bird,120,0697_ps_s06_120_bird_10_n02033041_16313.png
subject-06,1,698,0.404703140258789,cat,dog,180,0698_ps_s06_180_dog_10_n02100877_25323.png
subject-06,1,699,0.617439985275269,cat,bottle,180,0699_ps_s06_180_bottle_10_n03983396_14326.png
subject-06,1,700,0.791842937469482,boat,airplane,180,0700_ps_s06_180_airplane_10_n02690373_9605.png
subject-06,1,701,0.622076034545898,bear,bear,60,0701_ps_s06_60_bear_10_n02134084_3535.png
subject-06,1,702,1.26965999603271,knife,knife,60,0702_ps_s06_60_knife_10_n03041632_28009.png
subject-06,1,703,0.751434087753296,oven,oven,60,0703_ps_s06_60_oven_10_n04111531_5171.png
subject-06,1,704,0.833795070648193,cat,oven,150,0704_ps_s06_150_oven_10_n04111531_9427.png
subject-06,1,705,0.83239483833313,car,car,90,0705_ps_s06_90_car_10_n03100240_18788.png
subject-06,1,706,0.890572071075439,bicycle,bicycle,0,0706_ps_s06_0_bicycle_10_n02835271_12105.png
subject-06,1,707,1.08110618591309,clock,clock,90,0707_ps_s06_90_clock_10_n04548280_5269.png
subject-06,1,708,0.741318941116333,bicycle,bicycle,30,0708_ps_s06_30_bicycle_10_n03792782_15101.png
subject-06,1,709,0.523312091827393,oven,airplane,180,0709_ps_s06_180_airplane_10_n02690373_2379.png
subject-06,1,710,1.2491250038147,oven,dog,150,0710_ps_s06_150_dog_10_n02113712_16191.png
subject-06,1,711,0.730180025100708,oven,clock,150,0711_ps_s06_150_clock_10_n03196217_2628.png
subject-06,1,712,0.772509813308716,cat,bottle,90,0712_ps_s06_90_bottle_10_n03983396_10362.png
subject-06,1,713,0.87090802192688,airplane,airplane,0,0713_ps_s06_0_airplane_10_n02690373_845.png
subject-06,1,714,0.615641832351685,bird,bird,0,0714_ps_s06_0_bird_10_n01796340_14360.png
subject-06,1,715,0.935886144638062,airplane,airplane,90,0715_ps_s06_90_airplane_10_n02690373_13613.png
subject-06,1,716,1.00251603126526,oven,boat,150,0716_ps_s06_150_boat_10_n03662601_34152.png
subject-06,1,717,0.762933969497681,cat,bear,180,0717_ps_s06_180_bear_10_n02134418_432.png
subject-06,1,718,0.56079888343811,clock,clock,0,0718_ps_s06_0_clock_10_n04548280_467.png
subject-06,1,719,0.657439947128296,oven,oven,30,0719_ps_s06_30_oven_10_n04111531_17006.png
subject-06,1,720,0.871870994567871,oven,cat,60,0720_ps_s06_60_cat_10_n02125311_2637.png
subject-06,1,721,1.05188012123108,chair,bear,30,0721_ps_s06_30_bear_10_n02134418_1674.png
subject-06,1,722,0.666683912277222,keyboard,keyboard,120,0722_ps_s06_120_keyboard_10_n03085013_2139.png
subject-06,1,723,0.764944076538086,knife,knife,30,0723_ps_s06_30_knife_10_n03041632_4714.png
subject-06,1,724,0.923385858535767,chair,chair,0,0724_ps_s06_0_chair_10_n03376595_120.png
subject-06,1,725,1.00607085227966,elephant,elephant,0,0725_ps_s06_0_elephant_10_n02504458_2244.png
subject-06,1,726,1.18005418777466,knife,knife,0,0726_ps_s06_0_knife_10_n03041632_42162.png
subject-06,1,727,1.03018093109131,keyboard,car,150,0727_ps_s06_150_car_10_n02814533_55399.png
subject-06,1,728,1.28066492080688,oven,truck,120,0728_ps_s06_120_truck_10_n04467665_3720.png
subject-06,1,729,0.887032985687256,bird,bird,60,0729_ps_s06_60_bird_10_n01534433_11290.png
subject-06,1,730,0.739165067672729,truck,truck,0,0730_ps_s06_0_truck_10_n03417042_26814.png
subject-06,1,731,0.739205121994019,bird,bird,30,0731_ps_s06_30_bird_10_n01614925_7586.png
subject-06,1,732,0.675826072692871,car,car,30,0732_ps_s06_30_car_10_n04285008_8412.png
subject-06,1,733,0.911725044250488,keyboard,chair,150,0733_ps_s06_150_chair_10_n02791124_367.png
subject-06,1,734,0.677828788757324,keyboard,truck,180,0734_ps_s06_180_truck_10_n03417042_8928.png
subject-06,1,735,0.906343936920166,keyboard,bird,120,0735_ps_s06_120_bird_10_n01817953_7140.png
subject-06,1,736,1.50003004074097,clock,boat,90,0736_ps_s06_90_boat_10_n04273569_1652.png
subject-06,1,737,0.641629934310913,cat,cat,0,0737_ps_s06_0_cat_10_n02123394_7462.png
subject-06,1,738,0.93005895614624,car,car,0,0738_ps_s06_0_car_10_n03100240_15778.png
subject-06,1,739,0.644920110702515,oven,airplane,120,0739_ps_s06_120_airplane_10_n02690373_4982.png
subject-06,1,740,0.848989963531494,truck,chair,30,0740_ps_s06_30_chair_10_n02791124_6074.png
subject-06,1,741,0.847563982009888,cat,elephant,150,0741_ps_s06_150_elephant_10_n02504458_6130.png
subject-06,1,742,0.68139910697937,cat,dog,180,0742_ps_s06_180_dog_10_n02101556_58.png
subject-06,1,743,0.763530969619751,airplane,airplane,0,0743_ps_s06_0_airplane_10_n02690373_6210.png
subject-06,1,744,0.654059886932373,oven,bird,180,0744_ps_s06_180_bird_10_n02028035_21462.png
subject-06,1,745,0.598546981811523,bottle,bottle,60,0745_ps_s06_60_bottle_10_n02823428_14749.png
subject-06,1,746,0.564004898071289,bird,bird,0,0746_ps_s06_0_bird_10_n01530575_5433.png
subject-06,1,747,0.484150886535645,cat,bottle,180,0747_ps_s06_180_bottle_10_n03937543_4820.png
subject-06,1,748,0.658406972885132,oven,truck,120,0748_ps_s06_120_truck_10_n03417042_26749.png
subject-06,1,749,0.841084957122803,clock,bird,90,0749_ps_s06_90_bird_10_n01795545_6666.png
subject-06,1,750,0.647581100463867,bear,bear,30,0750_ps_s06_30_bear_10_n02133161_15439.png
subject-06,1,751,0.60232400894165,bicycle,bicycle,30,0751_ps_s06_30_bicycle_10_n02835271_4480.png
subject-06,1,752,0.770932912826538,oven,oven,0,0752_ps_s06_0_oven_10_n04111531_16583.png
subject-06,1,753,1.42705702781677,oven,oven,30,0753_ps_s06_30_oven_10_n04111531_15087.png
subject-06,1,754,0.779457092285156,cat,car,150,0754_ps_s06_150_car_10_n04285008_1240.png
subject-06,1,755,1.49160385131836,oven,boat,90,0755_ps_s06_90_boat_10_n02951358_1626.png
subject-06,1,756,0.600040197372437,dog,dog,60,0756_ps_s06_60_dog_10_n02086240_12883.png
subject-06,1,757,1.21839189529419,bottle,truck,90,0757_ps_s06_90_truck_10_n03417042_28700.png
subject-06,1,758,0.700590133666992,airplane,airplane,60,0758_ps_s06_60_airplane_10_n02690373_10354.png
subject-06,1,759,1.1750500202179,clock,elephant,150,0759_ps_s06_150_elephant_10_n02504458_2662.png
subject-06,1,760,0.843063116073608,keyboard,bicycle,180,0760_ps_s06_180_bicycle_10_n02835271_4887.png
subject-06,1,761,0.97140097618103,car,car,90,0761_ps_s06_90_car_10_n04285008_12169.png
subject-06,1,762,0.800226926803589,boat,car,150,0762_ps_s06_150_car_10_n04285008_7323.png
subject-06,1,763,0.836702108383179,knife,knife,30,0763_ps_s06_30_knife_10_n03041632_38535.png
subject-06,1,764,0.697146892547607,oven,bear,150,0764_ps_s06_150_bear_10_n02134418_5478.png
subject-06,1,765,0.763666868209839,cat,cat,150,0765_ps_s06_150_cat_10_n02123159_4868.png
subject-06,1,766,0.732073068618774,bicycle,bicycle,0,0766_ps_s06_0_bicycle_10_n02835271_8834.png
subject-06,1,767,0.944253921508789,bear,bear,30,0767_ps_s06_30_bear_10_n02132136_10445.png
subject-06,1,768,1.07839703559875,airplane,airplane,30,0768_ps_s06_30_airplane_10_n02690373_306.png
subject-06,1,769,0.984755039215088,boat,truck,120,0769_ps_s06_120_truck_10_n03796401_19889.png
subject-06,1,770,0.913543939590454,cat,bottle,150,0770_ps_s06_150_bottle_10_n04557648_9084.png
subject-06,1,771,0.761014938354492,keyboard,keyboard,0,0771_ps_s06_0_keyboard_10_n03085013_19130.png
subject-06,1,772,0.857275009155273,chair,chair,30,0772_ps_s06_30_chair_10_n02791124_4777.png
subject-06,1,773,0.955756187438965,keyboard,clock,150,0773_ps_s06_150_clock_10_n02708093_3254.png
subject-06,1,774,1.23786091804504,truck,truck,0,0774_ps_s06_0_truck_10_n03417042_1775.png
subject-06,1,775,0.758583068847656,cat,bear,150,0775_ps_s06_150_bear_10_n02134084_3697.png
subject-06,1,776,1.1085638999939,elephant,elephant,30,0776_ps_s06_30_elephant_10_n02504458_5176.png
subject-06,1,777,0.506934881210327,oven,oven,30,0777_ps_s06_30_oven_10_n04111531_7338.png
subject-06,1,778,1.086256980896,elephant,elephant,60,0778_ps_s06_60_elephant_10_n02504458_8190.png
subject-06,1,779,0.868633985519409,dog,dog,60,0779_ps_s06_60_dog_10_n02104365_4991.png
subject-06,1,780,0.721092939376831,keyboard,keyboard,150,0780_ps_s06_150_keyboard_10_n04505470_4764.png
subject-06,1,781,0.649844884872437,oven,chair,150,0781_ps_s06_150_chair_10_n04099969_7718.png
subject-06,1,782,0.740219831466675,bicycle,bicycle,60,0782_ps_s06_60_bicycle_10_n02835271_1028.png
subject-06,1,783,0.922674894332886,oven,bottle,90,0783_ps_s06_90_bottle_10_n04579145_2182.png
subject-06,1,784,1.05036616325378,elephant,elephant,90,0784_ps_s06_90_elephant_10_n02504458_13100.png
subject-06,1,785,0.733023881912231,elephant,elephant,60,0785_ps_s06_60_elephant_10_n02504458_1473.png
subject-06,1,786,1.12954306602478,boat,boat,60,0786_ps_s06_60_boat_10_n04612504_3161.png
subject-06,1,787,1.1899631023407,oven,knife,180,0787_ps_s06_180_knife_10_n03041632_32896.png
subject-06,1,788,1.03468489646912,dog,dog,60,0788_ps_s06_60_dog_10_n02095570_9249.png
subject-06,1,789,0.900802850723267,cat,cat,180,0789_ps_s06_180_cat_10_n02123394_2692.png
subject-06,1,790,0.79880690574646,keyboard,elephant,150,0790_ps_s06_150_elephant_10_n02504458_3628.png
subject-06,1,791,0.761147022247314,keyboard,keyboard,60,0791_ps_s06_60_keyboard_10_n04505470_5125.png
subject-06,1,792,1.43526482582092,knife,chair,90,0792_ps_s06_90_chair_10_n04099969_6828.png
subject-06,1,793,0.825811147689819,bicycle,bicycle,90,0793_ps_s06_90_bicycle_10_n03792782_10181.png
subject-06,1,794,0.645992994308472,cat,oven,180,0794_ps_s06_180_oven_10_n04111531_21896.png
subject-06,1,795,1.00437903404236,bear,bear,0,0795_ps_s06_0_bear_10_n02134084_9307.png
subject-06,1,796,1.04661989212036,chair,clock,120,0796_ps_s06_120_clock_10_n04548280_5405.png
subject-06,1,797,1.26899790763855,bird,bird,60,0797_ps_s06_60_bird_10_n01530575_31014.png
subject-06,1,798,0.405252933502197,boat,boat,0,0798_ps_s06_0_boat_10_n03662601_8787.png
subject-06,1,799,0.67146897315979,keyboard,keyboard,90,0799_ps_s06_90_keyboard_10_n04505470_756.png
subject-06,1,800,0.531855821609497,cat,bird,180,0800_ps_s06_180_bird_10_n01622779_3605.png
subject-06,1,801,0.878031969070435,elephant,elephant,90,0801_ps_s06_90_elephant_10_n02504458_11596.png
subject-06,1,802,0.430238962173462,cat,boat,180,0802_ps_s06_180_boat_10_n03662601_13151.png
subject-06,1,803,0.442227840423584,cat,knife,180,0803_ps_s06_180_knife_10_n03041632_5727.png
subject-06,1,804,0.632433891296387,airplane,airplane,90,0804_ps_s06_90_airplane_10_n02690373_1235.png
subject-06,1,805,0.469448089599609,cat,cat,60,0805_ps_s06_60_cat_10_n02123597_3455.png
subject-06,1,806,0.672929048538208,bottle,clock,60,0806_ps_s06_60_clock_10_n03196217_1047.png
subject-06,1,807,0.725547790527344,cat,cat,120,0807_ps_s06_120_cat_10_n02123394_1964.png
subject-06,1,808,0.829545974731445,airplane,airplane,120,0808_ps_s06_120_airplane_10_n02690373_18506.png
subject-06,1,809,0.574037075042725,keyboard,keyboard,0,0809_ps_s06_0_keyboard_10_n03085013_24336.png
subject-06,1,810,0.786393880844116,airplane,boat,150,0810_ps_s06_150_boat_10_n03662601_11323.png
subject-06,1,811,1.09861993789673,knife,knife,0,0811_ps_s06_0_knife_10_n03041632_41493.png
subject-06,1,812,0.813138961791992,bicycle,knife,120,0812_ps_s06_120_knife_10_n03041632_52848.png
subject-06,1,813,0.71795392036438,oven,bear,120,0813_ps_s06_120_bear_10_n02132136_6900.png
subject-06,1,814,0.830520153045654,oven,boat,120,0814_ps_s06_120_boat_10_n04612504_11826.png
subject-06,1,815,0.452609062194824,cat,cat,150,0815_ps_s06_150_cat_10_n02124075_9747.png
subject-06,1,816,0.887416124343872,boat,bear,180,0816_ps_s06_180_bear_10_n02132136_23971.png
subject-06,1,817,0.487550020217896,cat,bear,120,0817_ps_s06_120_bear_10_n02134084_18945.png
subject-06,1,818,0.645455121994019,cat,cat,120,0818_ps_s06_120_cat_10_n02124075_18178.png
subject-06,1,819,0.833648920059204,elephant,bottle,120,0819_ps_s06_120_bottle_10_n03937543_1363.png
subject-06,1,820,0.662400007247925,keyboard,keyboard,30,0820_ps_s06_30_keyboard_10_n03085013_20689.png
subject-06,1,821,0.598222970962524,car,car,90,0821_ps_s06_90_car_10_n02814533_13612.png
subject-06,1,822,0.802996158599854,dog,dog,30,0822_ps_s06_30_dog_10_n02110185_322.png
subject-06,1,823,0.879390001296997,airplane,airplane,120,0823_ps_s06_120_airplane_10_n02690373_7145.png
subject-06,1,824,0.737499952316284,bicycle,oven,120,0824_ps_s06_120_oven_10_n04111531_4392.png
subject-06,1,825,0.758059978485107,truck,truck,30,0825_ps_s06_30_truck_10_n03417042_1336.png
subject-06,1,826,0.570641994476318,boat,boat,30,0826_ps_s06_30_boat_10_n03344393_5231.png
subject-06,1,827,0.53101110458374,airplane,airplane,0,0827_ps_s06_0_airplane_10_n02690373_2952.png
subject-06,1,828,0.735321998596191,knife,knife,60,0828_ps_s06_60_knife_10_n03041632_17338.png
subject-06,1,829,0.817986965179443,bicycle,clock,150,0829_ps_s06_150_clock_10_n04548280_1055.png
subject-06,1,830,0.976294994354248,boat,airplane,150,0830_ps_s06_150_airplane_10_n02690373_3000.png
subject-06,1,831,0.821305990219116,boat,oven,120,0831_ps_s06_120_oven_10_n04111531_13795.png
subject-06,1,832,0.741358041763306,dog,dog,0,0832_ps_s06_0_dog_10_n02097658_1537.png
subject-06,1,833,1.04599094390869,chair,boat,60,0833_ps_s06_60_boat_10_n03662601_1947.png
subject-06,1,834,0.76870584487915,truck,truck,0,0834_ps_s06_0_truck_10_n03796401_3222.png
subject-06,1,835,0.612512826919556,boat,boat,180,0835_ps_s06_180_boat_10_n04612504_972.png
subject-06,1,836,0.646639823913574,airplane,airplane,60,0836_ps_s06_60_airplane_10_n02690373_3269.png
subject-06,1,837,0.775144815444946,car,dog,180,0837_ps_s06_180_dog_10_n02112018_10698.png
subject-06,1,838,0.727602005004883,oven,oven,150,0838_ps_s06_150_oven_10_n04111531_46651.png
subject-06,1,839,0.994044780731201,cat,bicycle,150,0839_ps_s06_150_bicycle_10_n02835271_3110.png
subject-06,1,840,0.7846999168396,dog,dog,30,0840_ps_s06_30_dog_10_n02109961_7037.png
subject-06,1,841,0.59664511680603,cat,cat,60,0841_ps_s06_60_cat_10_n02123159_10292.png
subject-06,1,842,0.662891864776611,oven,bottle,0,0842_ps_s06_0_bottle_10_n03983396_8633.png
subject-06,1,843,0.629365921020508,oven,keyboard,180,0843_ps_s06_180_keyboard_10_n04505470_4741.png
subject-06,1,844,0.935773134231567,clock,clock,30,0844_ps_s06_30_clock_10_n04548280_3292.png
subject-06,1,845,0.855999946594238,bird,bird,90,0845_ps_s06_90_bird_10_n01797886_23440.png
subject-06,1,846,0.876312971115112,bicycle,bicycle,60,0846_ps_s06_60_bicycle_10_n02835271_274.png
subject-06,1,847,0.937122106552124,dog,dog,120,0847_ps_s06_120_dog_10_n02097130_310.png
subject-06,1,848,0.849178791046143,keyboard,keyboard,60,0848_ps_s06_60_keyboard_10_n04505470_665.png
subject-06,1,849,0.891561985015869,airplane,airplane,0,0849_ps_s06_0_airplane_10_n02690373_3617.png
subject-06,1,850,0.935818910598755,bear,bear,120,0850_ps_s06_120_bear_10_n02134084_12341.png
subject-06,1,851,0.9151771068573,keyboard,clock,180,0851_ps_s06_180_clock_10_n02708093_1125.png
subject-06,1,852,0.843175888061523,oven,knife,120,0852_ps_s06_120_knife_10_n03041632_105080.png
subject-06,1,853,0.587285995483398,car,car,30,0853_ps_s06_30_car_10_n02814533_13278.png
subject-06,1,854,0.531939029693604,clock,clock,30,0854_ps_s06_30_clock_10_n04548280_219.png
subject-06,1,855,0.644365072250366,bicycle,bicycle,30,0855_ps_s06_30_bicycle_10_n02835271_7828.png
subject-06,1,856,1.10267615318298,oven,oven,60,0856_ps_s06_60_oven_10_n04111531_7168.png
subject-06,1,857,0.43313193321228,boat,boat,30,0857_ps_s06_30_boat_10_n04273569_3460.png
subject-06,1,858,1.50000405311584,chair,bottle,0,0858_ps_s06_0_bottle_10_n04557648_310.png
subject-06,1,859,1.07104706764221,truck,truck,60,0859_ps_s06_60_truck_10_n04467665_28965.png
subject-06,1,860,0.615463018417358,bottle,chair,150,0860_ps_s06_150_chair_10_n03376595_17093.png
subject-06,1,861,1.05000400543213,dog,cat,30,0861_ps_s06_30_cat_10_n02123159_4937.png
subject-06,1,862,0.618585109710693,cat,boat,180,0862_ps_s06_180_boat_10_n03344393_4074.png
subject-06,1,863,0.801176071166992,boat,boat,30,0863_ps_s06_30_boat_10_n02951358_33269.png
subject-06,1,864,0.837149143218994,keyboard,keyboard,90,0864_ps_s06_90_keyboard_10_n04505470_4159.png
subject-06,1,865,0.971604824066162,oven,bottle,180,0865_ps_s06_180_bottle_10_n04557648_4428.png
subject-06,1,866,0.731716871261597,oven,oven,150,0866_ps_s06_150_oven_10_n04111531_5950.png
subject-06,1,867,1.24422192573547,boat,oven,60,0867_ps_s06_60_oven_10_n04111531_5927.png
subject-06,1,868,0.710744857788086,oven,elephant,180,0868_ps_s06_180_elephant_10_n02504458_2994.png
subject-06,1,869,1.03125,dog,cat,60,0869_ps_s06_60_cat_10_n02123597_30151.png
subject-06,1,870,0.95948314666748,cat,boat,180,0870_ps_s06_180_boat_10_n02951358_10121.png
subject-06,1,871,0.774144887924194,bird,bird,0,0871_ps_s06_0_bird_10_n01798484_4630.png
subject-06,1,872,0.764504194259644,chair,chair,90,0872_ps_s06_90_chair_10_n04099969_5534.png
subject-06,1,873,1.08250999450684,knife,chair,120,0873_ps_s06_120_chair_10_n04099969_16178.png
subject-06,1,874,1.10273289680481,oven,keyboard,180,0874_ps_s06_180_keyboard_10_n04505470_2698.png
subject-06,1,875,0.717338085174561,oven,keyboard,180,0875_ps_s06_180_keyboard_10_n03085013_8085.png
subject-06,1,876,0.837608098983765,oven,bicycle,120,0876_ps_s06_120_bicycle_10_n03792782_14907.png
subject-06,1,877,0.950002908706665,dog,dog,0,0877_ps_s06_0_dog_10_n02106166_6698.png
subject-06,1,878,0.89966893196106,cat,cat,120,0878_ps_s06_120_cat_10_n02123597_5181.png
subject-06,1,879,1.18868184089661,bird,elephant,90,0879_ps_s06_90_elephant_10_n02504013_4349.png
subject-06,1,880,0.786738157272339,elephant,elephant,0,0880_ps_s06_0_elephant_10_n02504458_1347.png
subject-06,1,881,0.669564962387085,cat,cat,30,0881_ps_s06_30_cat_10_n02123159_15.png
subject-06,1,882,0.745913028717041,cat,bird,150,0882_ps_s06_150_bird_10_n02028035_12840.png
subject-06,1,883,0.482134103775024,boat,bottle,150,0883_ps_s06_150_bottle_10_n04591713_6164.png
subject-06,1,884,0.502591848373413,clock,clock,90,0884_ps_s06_90_clock_10_n03196217_6293.png
subject-06,1,885,0.553221940994263,oven,oven,180,0885_ps_s06_180_oven_10_n04111531_797.png
subject-06,1,886,0.34320592880249,cat,truck,120,0886_ps_s06_120_truck_10_n04467665_68020.png
subject-06,1,887,0.939587116241455,cat,elephant,90,0887_ps_s06_90_elephant_10_n02504013_6275.png
subject-06,1,888,0.691866874694824,chair,oven,0,0888_ps_s06_0_oven_10_n04111531_5781.png
subject-06,1,889,0.582000017166138,boat,bottle,150,0889_ps_s06_150_bottle_10_n04591713_7390.png
subject-06,1,890,0.686774969100952,boat,clock,180,0890_ps_s06_180_clock_10_n03196217_2919.png
subject-06,1,891,0.515138864517212,cat,bear,120,0891_ps_s06_120_bear_10_n02134418_1969.png
subject-06,1,892,0.635262966156006,bear,bear,90,0892_ps_s06_90_bear_10_n02134084_10224.png
subject-06,1,893,0.961045980453491,keyboard,keyboard,60,0893_ps_s06_60_keyboard_10_n03085013_15576.png
subject-06,1,894,1.12668395042419,chair,dog,90,0894_ps_s06_90_dog_10_n02090721_1949.png
subject-06,1,895,0.501073837280273,cat,truck,120,0895_ps_s06_120_truck_10_n03417042_3376.png
subject-06,1,896,0.583764791488647,truck,truck,60,0896_ps_s06_60_truck_10_n03796401_30128.png
subject-06,1,897,0.473883152008057,oven,boat,150,0897_ps_s06_150_boat_10_n03662601_16515.png
subject-06,1,898,1.03206706047058,dog,dog,30,0898_ps_s06_30_dog_10_n02106662_2173.png
subject-06,1,899,0.514173030853271,cat,cat,0,0899_ps_s06_0_cat_10_n02125311_54015.png
subject-06,1,900,0.727030038833618,car,car,0,0900_ps_s06_0_car_10_n02814533_27597.png
subject-06,1,901,1.29334092140198,keyboard,bottle,90,0901_ps_s06_90_bottle_10_n04591713_319.png
subject-06,1,902,0.500020980834961,clock,clock,30,0902_ps_s06_30_clock_10_n04548280_983.png
subject-06,1,903,1.07222104072571,clock,clock,60,0903_ps_s06_60_clock_10_n03196217_1021.png
subject-06,1,904,0.716488122940063,cat,bicycle,180,0904_ps_s06_180_bicycle_10_n03792782_12971.png
subject-06,1,905,0.583016872406006,chair,chair,30,0905_ps_s06_30_chair_10_n03376595_14970.png
subject-06,1,906,1.05706000328064,chair,oven,30,0906_ps_s06_30_oven_10_n04111531_15943.png
subject-06,1,907,1.19172811508179,cat,elephant,120,0907_ps_s06_120_elephant_10_n02504458_1512.png
subject-06,1,908,0.538245916366577,car,car,30,0908_ps_s06_30_car_10_n02814533_4118.png
subject-06,1,909,0.634597063064575,bear,bear,60,0909_ps_s06_60_bear_10_n02132136_4671.png
subject-06,1,910,0.608734130859375,oven,oven,0,0910_ps_s06_0_oven_10_n04111531_10640.png
subject-06,1,911,0.767005920410156,boat,dog,180,0911_ps_s06_180_dog_10_n02111500_6045.png
subject-06,1,912,1.13117384910583,dog,bottle,60,0912_ps_s06_60_bottle_10_n04560804_29880.png
subject-06,1,913,1.23745489120483,cat,chair,180,0913_ps_s06_180_chair_10_n04429376_31962.png
subject-06,1,914,0.774037837982178,bottle,bottle,0,0914_ps_s06_0_bottle_10_n04591713_197.png
subject-06,1,915,1.02468204498291,oven,knife,90,0915_ps_s06_90_knife_10_n03041632_35764.png
subject-06,1,916,0.631266117095947,boat,chair,180,0916_ps_s06_180_chair_10_n03376595_14563.png
subject-06,1,917,0.711660146713257,cat,airplane,90,0917_ps_s06_90_airplane_10_n02690373_4119.png
subject-06,1,918,1.27787804603577,bird,bird,30,0918_ps_s06_30_bird_10_n01819313_5464.png
subject-06,1,919,0.944284200668335,dog,dog,30,0919_ps_s06_30_dog_10_n02097047_2400.png
subject-06,1,920,0.60492992401123,oven,knife,90,0920_ps_s06_90_knife_10_n03041632_15174.png
subject-06,1,921,0.725270986557007,dog,dog,30,0921_ps_s06_30_dog_10_n02113624_1237.png
subject-06,1,922,0.637894868850708,cat,cat,120,0922_ps_s06_120_cat_10_n02125311_15274.png
subject-06,1,923,0.720156192779541,boat,airplane,150,0923_ps_s06_150_airplane_10_n02690373_945.png
subject-06,1,924,0.45658802986145,boat,bicycle,180,0924_ps_s06_180_bicycle_10_n03792782_20190.png
subject-06,1,925,0.599064111709595,oven,oven,30,0925_ps_s06_30_oven_10_n04111531_8193.png
subject-06,1,926,0.673810958862305,oven,bird,180,0926_ps_s06_180_bird_10_n01817953_8245.png
subject-06,1,927,0.851292848587036,boat,chair,60,0927_ps_s06_60_chair_10_n02791124_11346.png
subject-06,1,928,0.647320032119751,oven,cat,180,0928_ps_s06_180_cat_10_n02123597_13128.png
subject-06,1,929,0.491329908370972,boat,airplane,150,0929_ps_s06_150_airplane_10_n02690373_466.png
subject-06,1,930,0.587981939315796,oven,knife,120,0930_ps_s06_120_knife_10_n03041632_1884.png
subject-06,1,931,0.762427091598511,cat,truck,120,0931_ps_s06_120_truck_10_n04467665_40513.png
subject-06,1,932,0.712745904922485,keyboard,keyboard,60,0932_ps_s06_60_keyboard_10_n03085013_13982.png
subject-06,1,933,0.557214021682739,bottle,bottle,0,0933_ps_s06_0_bottle_10_n04591713_906.png
subject-06,1,934,0.653987169265747,oven,car,180,0934_ps_s06_180_car_10_n03100240_2707.png
subject-06,1,935,0.497915983200073,boat,boat,30,0935_ps_s06_30_boat_10_n04612504_17263.png
subject-06,1,936,0.745344161987305,dog,dog,60,0936_ps_s06_60_dog_10_n02087394_9270.png
subject-06,1,937,0.651729106903076,elephant,elephant,0,0937_ps_s06_0_elephant_10_n02504013_10154.png
subject-06,1,938,0.917672157287598,car,dog,180,0938_ps_s06_180_dog_10_n02100877_11428.png
subject-06,1,939,0.660055875778198,boat,clock,150,0939_ps_s06_150_clock_10_n02708093_1344.png
subject-06,1,940,0.420279026031494,boat,bird,90,0940_ps_s06_90_bird_10_n02013706_10008.png
subject-06,1,941,0.922545194625854,truck,truck,0,0941_ps_s06_0_truck_10_n04467665_68764.png
subject-06,1,942,0.820226907730103,oven,oven,30,0942_ps_s06_30_oven_10_n04111531_12450.png
subject-06,1,943,0.733150005340576,cat,bicycle,120,0943_ps_s06_120_bicycle_10_n03792782_1954.png
subject-06,1,944,0.615602016448975,cat,cat,150,0944_ps_s06_150_cat_10_n02123045_6773.png
subject-06,1,945,0.530640840530396,oven,bicycle,180,0945_ps_s06_180_bicycle_10_n03792782_8271.png
subject-06,1,946,1.32489085197449,chair,knife,0,0946_ps_s06_0_knife_10_n03041632_32377.png
subject-06,1,947,0.760958909988403,boat,car,120,0947_ps_s06_120_car_10_n03100240_3267.png
subject-06,1,948,0.543470144271851,cat,cat,30,0948_ps_s06_30_cat_10_n02124075_9894.png
subject-06,1,949,0.688066959381104,boat,chair,150,0949_ps_s06_150_chair_10_n03376595_10035.png
subject-06,1,950,1.08443999290466,oven,oven,0,0950_ps_s06_0_oven_10_n04111531_4562.png
subject-06,1,951,0.798844814300537,cat,boat,180,0951_ps_s06_180_boat_10_n04612504_18939.png
subject-06,1,952,1.05739212036133,bear,knife,180,0952_ps_s06_180_knife_10_n03041632_96345.png
subject-06,1,953,1.29204416275024,dog,dog,120,0953_ps_s06_120_dog_10_n02113978_9340.png
subject-06,1,954,1.00586104393005,oven,dog,150,0954_ps_s06_150_dog_10_n02094433_3284.png
subject-06,1,955,1.31842398643494,cat,bear,150,0955_ps_s06_150_bear_10_n02134418_18035.png
subject-06,1,956,0.820827007293701,bicycle,bicycle,30,0956_ps_s06_30_bicycle_10_n02835271_17357.png
subject-06,1,957,0.879219055175781,bottle,bottle,60,0957_ps_s06_60_bottle_10_n04579145_2507.png
subject-06,1,958,0.953790903091431,boat,bottle,150,0958_ps_s06_150_bottle_10_n03983396_2150.png
subject-06,1,959,1.03638410568237,elephant,dog,120,0959_ps_s06_120_dog_10_n02106166_1796.png
subject-06,1,960,1.13268613815308,bicycle,oven,120,0960_ps_s06_120_oven_10_n04111531_22120.png
subject-06,1,961,0.618014097213745,elephant,elephant,60,0961_ps_s06_60_elephant_10_n02504013_1785.png
subject-06,1,962,0.530565023422241,keyboard,bottle,120,0962_ps_s06_120_bottle_10_n04591713_939.png
subject-06,1,963,1.15194892883301,keyboard,bear,180,0963_ps_s06_180_bear_10_n02134084_24140.png
subject-06,1,964,0.758394956588745,bicycle,bicycle,0,0964_ps_s06_0_bicycle_10_n03792782_15616.png
subject-06,1,965,0.930967092514038,oven,bottle,90,0965_ps_s06_90_bottle_10_n04557648_9279.png
subject-06,1,966,0.529074907302856,chair,chair,60,0966_ps_s06_60_chair_10_n03376595_8024.png
subject-06,1,967,0.602893114089966,bicycle,bicycle,60,0967_ps_s06_60_bicycle_10_n03792782_30246.png
subject-06,1,968,0.423594951629639,boat,boat,30,0968_ps_s06_30_boat_10_n03344393_8022.png
subject-06,1,969,0.652076959609985,dog,bear,30,0969_ps_s06_30_bear_10_n02134418_971.png
subject-06,1,970,0.366648197174072,boat,boat,0,0970_ps_s06_0_boat_10_n03662601_32391.png
subject-06,1,971,0.525116920471191,cat,boat,150,0971_ps_s06_150_boat_10_n02951358_2801.png
subject-06,1,972,1.36759305000305,bicycle,clock,120,0972_ps_s06_120_clock_10_n04548280_2606.png
subject-06,1,973,0.857835054397583,knife,knife,30,0973_ps_s06_30_knife_10_n03041632_16206.png
subject-06,1,974,0.578006029129028,bicycle,bicycle,60,0974_ps_s06_60_bicycle_10_n02835271_10814.png
subject-06,1,975,1.16076016426086,knife,knife,0,0975_ps_s06_0_knife_10_n03041632_3781.png
subject-06,1,976,0.651159048080444,chair,chair,180,0976_ps_s06_180_chair_10_n04429376_36830.png
subject-06,1,977,0.680042028427124,bottle,bottle,0,0977_ps_s06_0_bottle_10_n04591713_36.png
subject-06,1,978,0.65416693687439,car,car,30,0978_ps_s06_30_car_10_n04285008_2816.png
subject-06,1,979,0.934867858886719,boat,chair,150,0979_ps_s06_150_chair_10_n04429376_9763.png
subject-06,1,980,0.955232858657837,airplane,airplane,60,0980_ps_s06_60_airplane_10_n02690373_9309.png
subject-06,1,981,1.50016498565674,bicycle,bicycle,60,0981_ps_s06_60_bicycle_10_n02835271_1141.png
subject-06,1,982,0.606070041656494,car,car,0,0982_ps_s06_0_car_10_n03100240_388.png
subject-06,1,983,0.924690008163452,boat,bird,120,0983_ps_s06_120_bird_10_n01582220_4738.png
subject-06,1,984,0.546548128128052,bicycle,bicycle,0,0984_ps_s06_0_bicycle_10_n02835271_13303.png
subject-06,1,985,0.628971099853516,bird,bird,30,0985_ps_s06_30_bird_10_n01592084_7608.png
subject-06,1,986,1.32344484329224,clock,clock,60,0986_ps_s06_60_clock_10_n04548280_8170.png
subject-06,1,987,0.537761926651001,keyboard,keyboard,90,0987_ps_s06_90_keyboard_10_n04505470_5047.png
subject-06,1,988,0.750452041625977,car,car,120,0988_ps_s06_120_car_10_n02814533_95790.png
subject-06,1,989,0.870578050613403,truck,truck,60,0989_ps_s06_60_truck_10_n04467665_22083.png
subject-06,1,990,0.876889944076538,boat,airplane,150,0990_ps_s06_150_airplane_10_n02690373_4410.png
subject-06,1,991,0.88961386680603,elephant,cat,90,0991_ps_s06_90_cat_10_n02123045_6219.png
subject-06,1,992,0.963859081268311,keyboard,keyboard,150,0992_ps_s06_150_keyboard_10_n04505470_4354.png
subject-06,1,993,0.797744989395142,oven,bear,120,0993_ps_s06_120_bear_10_n02134084_20788.png
subject-06,1,994,1.0313549041748,knife,knife,30,0994_ps_s06_30_knife_10_n03041632_37618.png
subject-06,1,995,0.553567171096802,chair,chair,30,0995_ps_s06_30_chair_10_n04099969_3564.png
subject-06,1,996,0.804140090942383,keyboard,keyboard,30,0996_ps_s06_30_keyboard_10_n03085013_23877.png
subject-06,1,997,0.640577793121338,car,truck,30,0997_ps_s06_30_truck_10_n03417042_6959.png
subject-06,1,998,0.714696884155273,truck,truck,60,0998_ps_s06_60_truck_10_n03417042_21495.png
subject-06,1,999,0.886805772781372,keyboard,bottle,150,0999_ps_s06_150_bottle_10_n04579145_4182.png
subject-06,1,1000,1.36769604682922,dog,dog,0,1000_ps_s06_0_dog_10_n02090622_3605.png
subject-06,1,1001,0.928103923797607,truck,truck,30,1001_ps_s06_30_truck_10_n03796401_211.png
subject-06,1,1002,0.532060146331787,knife,knife,0,1002_ps_s06_0_knife_10_n03041632_32350.png
subject-06,1,1003,0.922425985336304,cat,cat,180,1003_ps_s06_180_cat_10_n02124075_11552.png
subject-06,1,1004,1.15673303604126,knife,keyboard,150,1004_ps_s06_150_keyboard_10_n04505470_1384.png
subject-06,1,1005,0.531430006027222,cat,airplane,180,1005_ps_s06_180_airplane_10_n02690373_7279.png
subject-06,1,1006,0.834659099578857,knife,knife,0,1006_ps_s06_0_knife_10_n03041632_22330.png
subject-06,1,1007,0.947227001190186,bicycle,bicycle,90,1007_ps_s06_90_bicycle_10_n03792782_7101.png
subject-06,1,1008,0.789675951004028,oven,bird,120,1008_ps_s06_120_bird_10_n01534433_15722.png
subject-06,1,1009,0.804155826568604,knife,knife,60,1009_ps_s06_60_knife_10_n03041632_100645.png
subject-06,1,1010,0.875808000564575,cat,airplane,150,1010_ps_s06_150_airplane_10_n02690373_8539.png
subject-06,1,1011,1.14215993881226,bird,bear,30,1011_ps_s06_30_bear_10_n02134418_225.png
subject-06,1,1012,0.862722873687744,bear,cat,90,1012_ps_s06_90_cat_10_n02123159_5106.png
subject-06,1,1013,0.799235820770264,clock,clock,0,1013_ps_s06_0_clock_10_n04548280_4542.png
subject-06,1,1014,0.935765027999878,bear,dog,90,1014_ps_s06_90_dog_10_n02106662_2978.png
subject-06,1,1015,0.755690097808838,cat,dog,180,1015_ps_s06_180_dog_10_n02113624_8920.png
subject-06,1,1016,0.551448106765747,cat,cat,0,1016_ps_s06_0_cat_10_n02123045_7782.png
subject-06,1,1017,0.680367946624756,dog,dog,90,1017_ps_s06_90_dog_10_n02093647_5271.png
subject-06,1,1018,0.630866050720215,car,car,90,1018_ps_s06_90_car_10_n02814533_42002.png
subject-06,1,1019,0.599227905273438,oven,oven,60,1019_ps_s06_60_oven_10_n04111531_12885.png
subject-06,1,1020,0.833674907684326,chair,chair,30,1020_ps_s06_30_chair_10_n04429376_25432.png
subject-06,1,1021,0.894660949707031,car,car,60,1021_ps_s06_60_car_10_n04285008_6024.png
subject-06,1,1022,0.890740156173706,cat,bear,150,1022_ps_s06_150_bear_10_n02132136_3432.png
subject-06,1,1023,NaN,na,truck,60,1023_ps_s06_60_truck_10_n03417042_11944.png
subject-06,1,1024,0.549998998641968,boat,boat,0,1024_ps_s06_0_boat_10_n04273569_25071.png
subject-06,1,1025,1.20634698867798,bird,clock,120,1025_ps_s06_120_clock_10_n02708093_1282.png
subject-06,1,1026,0.603991985321045,cat,chair,180,1026_ps_s06_180_chair_10_n04429376_74.png
subject-06,1,1027,0.846338033676147,bottle,bottle,60,1027_ps_s06_60_bottle_10_n03983396_2671.png
subject-06,1,1028,0.590901851654053,cat,truck,150,1028_ps_s06_150_truck_10_n03417042_11439.png
subject-06,1,1029,0.665428876876831,car,car,30,1029_ps_s06_30_car_10_n04285008_831.png
subject-06,1,1030,1.01594209671021,keyboard,chair,90,1030_ps_s06_90_chair_10_n03376595_360.png
subject-06,1,1031,1.10647988319397,oven,bicycle,120,1031_ps_s06_120_bicycle_10_n03792782_63173.png
subject-06,1,1032,0.964716911315918,keyboard,cat,120,1032_ps_s06_120_cat_10_n02123159_7719.png
subject-06,1,1033,0.879240989685059,bear,elephant,120,1033_ps_s06_120_elephant_10_n02504458_776.png
subject-06,1,1034,1.35977101325989,keyboard,elephant,180,1034_ps_s06_180_elephant_10_n02504458_900.png
subject-06,1,1035,0.879305839538574,cat,bottle,180,1035_ps_s06_180_bottle_10_n04591713_7316.png
subject-06,1,1036,0.577435970306396,cat,bear,120,1036_ps_s06_120_bear_10_n02132136_5777.png
subject-06,1,1037,0.735749959945679,truck,truck,90,1037_ps_s06_90_truck_10_n03796401_2934.png
subject-06,1,1038,1.06214499473572,car,oven,150,1038_ps_s06_150_oven_10_n04111531_6622.png
subject-06,1,1039,0.576741933822632,keyboard,oven,180,1039_ps_s06_180_oven_10_n04111531_643.png
subject-06,1,1040,0.858577966690063,elephant,elephant,0,1040_ps_s06_0_elephant_10_n02504458_12000.png
subject-06,1,1041,0.722378969192505,chair,chair,0,1041_ps_s06_0_chair_10_n02791124_4956.png
subject-06,1,1042,0.842931985855103,truck,truck,0,1042_ps_s06_0_truck_10_n04467665_2557.png
subject-06,1,1043,0.847118139266968,cat,cat,30,1043_ps_s06_30_cat_10_n02125311_2570.png
subject-06,1,1044,0.493673086166382,cat,cat,60,1044_ps_s06_60_cat_10_n02123159_6487.png
subject-06,1,1045,0.390203952789307,cat,cat,30,1045_ps_s06_30_cat_10_n02123045_1546.png
subject-06,1,1046,0.617981195449829,airplane,airplane,30,1046_ps_s06_30_airplane_10_n02690373_1815.png
subject-06,1,1047,0.508002042770386,cat,boat,180,1047_ps_s06_180_boat_10_n03344393_6328.png
subject-06,1,1048,0.842106103897095,knife,knife,30,1048_ps_s06_30_knife_10_n03041632_81630.png
subject-06,1,1049,0.578498125076294,car,car,30,1049_ps_s06_30_car_10_n02814533_10956.png
subject-06,1,1050,0.733587980270386,cat,bicycle,150,1050_ps_s06_150_bicycle_10_n03792782_15561.png
subject-06,1,1051,0.954040765762329,knife,knife,90,1051_ps_s06_90_knife_10_n03041632_131.png
subject-06,1,1052,0.858235120773315,chair,chair,0,1052_ps_s06_0_chair_10_n04099969_7962.png
subject-06,1,1053,0.818547010421753,keyboard,keyboard,90,1053_ps_s06_90_keyboard_10_n04505470_1076.png
subject-06,1,1054,0.67680811882019,cat,cat,180,1054_ps_s06_180_cat_10_n02123597_11624.png
subject-06,1,1055,0.551339864730835,cat,oven,120,1055_ps_s06_120_oven_10_n04111531_2987.png
subject-06,1,1056,0.671662092208862,cat,elephant,150,1056_ps_s06_150_elephant_10_n02504458_1712.png
subject-06,1,1057,0.678364038467407,boat,elephant,120,1057_ps_s06_120_elephant_10_n02504013_5945.png
subject-06,1,1058,1.14284992218018,airplane,airplane,90,1058_ps_s06_90_airplane_10_n02690373_5082.png
subject-06,1,1059,1.24147200584412,bird,bird,30,1059_ps_s06_30_bird_10_n02056570_4630.png
subject-06,1,1060,0.693765163421631,cat,car,120,1060_ps_s06_120_car_10_n02814533_60889.png
subject-06,1,1061,0.530348062515259,boat,boat,60,1061_ps_s06_60_boat_10_n04612504_15256.png
subject-06,1,1062,0.926331996917725,keyboard,knife,150,1062_ps_s06_150_knife_10_n03041632_18532.png
subject-06,1,1063,1.12861394882202,knife,bicycle,90,1063_ps_s06_90_bicycle_10_n02835271_8020.png
subject-06,1,1064,0.583333969116211,cat,cat,0,1064_ps_s06_0_cat_10_n02123159_7485.png
subject-06,1,1065,1.0555579662323,truck,truck,30,1065_ps_s06_30_truck_10_n04467665_58456.png
subject-06,1,1066,1.00804209709167,knife,oven,30,1066_ps_s06_30_oven_10_n04111531_7452.png
subject-06,1,1067,0.841352939605713,oven,bird,150,1067_ps_s06_150_bird_10_n02028035_4441.png
subject-06,1,1068,0.577638149261475,cat,truck,150,1068_ps_s06_150_truck_10_n03417042_12235.png
subject-06,1,1069,0.559739112854004,boat,bird,120,1069_ps_s06_120_bird_10_n01843065_7317.png
subject-06,1,1070,1.01035499572754,airplane,airplane,150,1070_ps_s06_150_airplane_10_n02690373_8417.png
subject-06,1,1071,0.584856986999512,oven,bottle,180,1071_ps_s06_180_bottle_10_n03983396_12232.png
