subj,session,trial,rt,object_response,category,condition,imagename
subject-04,1,1,NaN,na,keyboard,120,0001_ps_s04_120_keyboard_10_n03085013_2432.png
subject-04,1,2,0.636729001998901,cat,boat,180,0002_ps_s04_180_boat_10_n03662601_10189.png
subject-04,1,3,0.828679084777832,bottle,chair,30,0003_ps_s04_30_chair_10_n04429376_9482.png
subject-04,1,4,0.742889881134033,bear,dog,60,0004_ps_s04_60_dog_10_n02113799_2326.png
subject-04,1,5,0.711607933044434,oven,bird,180,0005_ps_s04_180_bird_10_n01601694_15240.png
subject-04,1,6,1.00942802429199,bear,bear,30,0006_ps_s04_30_bear_10_n02133161_7562.png
subject-04,1,7,0.631865978240967,car,car,30,0007_ps_s04_30_car_10_n02814533_92011.png
subject-04,1,8,0.900023937225342,oven,chair,90,0008_ps_s04_90_chair_10_n04429376_20837.png
subject-04,1,9,0.779938936233521,knife,knife,30,0009_ps_s04_30_knife_10_n03041632_14817.png
subject-04,1,10,0.640048980712891,oven,truck,150,0010_ps_s04_150_truck_10_n03796401_13445.png
subject-04,1,11,0.700144052505493,oven,dog,180,0011_ps_s04_180_dog_10_n02106550_11747.png
subject-04,1,12,0.706644058227539,cat,oven,90,0012_ps_s04_90_oven_10_n04111531_4574.png
subject-04,1,13,0.742778062820435,dog,dog,30,0013_ps_s04_30_dog_10_n02106166_1032.png
subject-04,1,14,0.743298053741455,bear,bird,120,0014_ps_s04_120_bird_10_n01855032_434.png
subject-04,1,15,1.303551197052,chair,dog,30,0015_ps_s04_30_dog_10_n02111129_4178.png
subject-04,1,16,0.710035085678101,clock,clock,90,0016_ps_s04_90_clock_10_n04548280_6776.png
subject-04,1,17,0.732560157775879,airplane,airplane,60,0017_ps_s04_60_airplane_10_n02690373_9828.png
subject-04,1,18,0.640906095504761,bottle,bottle,30,0018_ps_s04_30_bottle_10_n03983396_6555.png
subject-04,1,19,0.676899909973145,boat,clock,150,0019_ps_s04_150_clock_10_n04548280_6919.png
subject-04,1,20,0.615561962127686,bird,bird,0,0020_ps_s04_0_bird_10_n01558993_12347.png
subject-04,1,21,0.58896803855896,keyboard,keyboard,60,0021_ps_s04_60_keyboard_10_n03085013_4780.png
subject-04,1,22,0.97957706451416,bird,bird,30,0022_ps_s04_30_bird_10_n01614925_2168.png
subject-04,1,23,0.695786952972412,car,car,150,0023_ps_s04_150_car_10_n04285008_13022.png
subject-04,1,24,0.626492023468018,car,car,30,0024_ps_s04_30_car_10_n03100240_4664.png
subject-04,1,25,0.816882848739624,dog,boat,180,0025_ps_s04_180_boat_10_n02951358_3651.png
subject-04,1,26,1.1692419052124,cat,dog,60,0026_ps_s04_60_dog_10_n02104365_9858.png
subject-04,1,27,0.937378168106079,car,car,90,0027_ps_s04_90_car_10_n04285008_823.png
subject-04,1,28,0.651801109313965,oven,truck,180,0028_ps_s04_180_truck_10_n03417042_6811.png
subject-04,1,29,0.64408802986145,bicycle,oven,60,0029_ps_s04_60_oven_10_n04111531_10724.png
subject-04,1,30,0.672538995742798,knife,knife,30,0030_ps_s04_30_knife_10_n03041632_4037.png
subject-04,1,31,1.50027418136597,truck,boat,0,0031_ps_s04_0_boat_10_n04612504_2024.png
subject-04,1,32,1.08558106422424,airplane,bear,180,0032_ps_s04_180_bear_10_n02134418_10221.png
subject-04,1,33,0.608183860778809,boat,boat,30,0033_ps_s04_30_boat_10_n04273569_14096.png
subject-04,1,34,0.668061017990112,oven,bicycle,120,0034_ps_s04_120_bicycle_10_n02835271_19955.png
subject-04,1,35,0.568334102630615,bird,bird,0,0035_ps_s04_0_bird_10_n02017213_3202.png
subject-04,1,36,0.582802057266235,cat,chair,150,0036_ps_s04_150_chair_10_n04099969_5584.png
subject-04,1,37,0.619161128997803,keyboard,bicycle,150,0037_ps_s04_150_bicycle_10_n03792782_15427.png
subject-04,1,38,0.679643869400024,cat,cat,90,0038_ps_s04_90_cat_10_n02123159_4612.png
subject-04,1,39,0.786026954650879,boat,elephant,150,0039_ps_s04_150_elephant_10_n02504458_3906.png
subject-04,1,40,1.01175618171692,clock,keyboard,150,0040_ps_s04_150_keyboard_10_n03085013_2640.png
subject-04,1,41,0.810397863388062,bear,chair,120,0041_ps_s04_120_chair_10_n03376595_11839.png
subject-04,1,42,0.55390191078186,bottle,elephant,150,0042_ps_s04_150_elephant_10_n02504458_6736.png
subject-04,1,43,0.752015829086304,cat,bird,60,0043_ps_s04_60_bird_10_n01819313_4783.png
subject-04,1,44,NaN,na,bottle,90,0044_ps_s04_90_bottle_10_n03983396_877.png
subject-04,1,45,NaN,na,keyboard,150,0045_ps_s04_150_keyboard_10_n04505470_4584.png
subject-04,1,46,0.373362064361572,boat,keyboard,30,0046_ps_s04_30_keyboard_10_n04505470_1994.png
subject-04,1,47,0.625735998153687,bicycle,bicycle,90,0047_ps_s04_90_bicycle_10_n03792782_68417.png
subject-04,1,48,0.570199966430664,bicycle,knife,180,0048_ps_s04_180_knife_10_n03041632_16172.png
subject-04,1,49,0.63848090171814,car,car,0,0049_ps_s04_0_car_10_n02814533_58072.png
subject-04,1,50,0.552863836288452,clock,bicycle,180,0050_ps_s04_180_bicycle_10_n02835271_24791.png
subject-04,1,51,0.729187965393066,bird,bird,30,0051_ps_s04_30_bird_10_n01824575_811.png
subject-04,1,52,0.619317054748535,bottle,bird,180,0052_ps_s04_180_bird_10_n01796340_21975.png
subject-04,1,53,0.650048017501831,airplane,truck,180,0053_ps_s04_180_truck_10_n03796401_19845.png
subject-04,1,54,0.642584085464478,bicycle,bear,180,0054_ps_s04_180_bear_10_n02134418_4917.png
subject-04,1,55,0.678705930709839,truck,chair,180,0055_ps_s04_180_chair_10_n02791124_7904.png
subject-04,1,56,0.839047908782959,bicycle,bicycle,90,0056_ps_s04_90_bicycle_10_n03792782_7165.png
subject-04,1,57,0.57723593711853,clock,clock,60,0057_ps_s04_60_clock_10_n03196217_10518.png
subject-04,1,58,0.99780797958374,keyboard,bottle,120,0058_ps_s04_120_bottle_10_n02823428_5067.png
subject-04,1,59,0.660309076309204,airplane,airplane,0,0059_ps_s04_0_airplane_10_n02690373_4578.png
subject-04,1,60,0.650645971298218,oven,chair,150,0060_ps_s04_150_chair_10_n04429376_36830.png
subject-04,1,61,0.619078874588013,boat,dog,150,0061_ps_s04_150_dog_10_n02106382_9145.png
subject-04,1,62,0.700993061065674,cat,elephant,180,0062_ps_s04_180_elephant_10_n02504013_6303.png
subject-04,1,63,0.809476852416992,bear,keyboard,60,0063_ps_s04_60_keyboard_10_n03085013_24124.png
subject-04,1,64,0.90758204460144,bottle,chair,60,0064_ps_s04_60_chair_10_n04429376_16081.png
subject-04,1,65,0.768229961395264,chair,car,180,0065_ps_s04_180_car_10_n02814533_3121.png
subject-04,1,66,0.742016077041626,bicycle,bicycle,60,0066_ps_s04_60_bicycle_10_n02835271_13644.png
subject-04,1,67,1.35635304450989,cat,cat,30,0067_ps_s04_30_cat_10_n02123394_3606.png
subject-04,1,68,1.17533111572266,bird,bicycle,60,0068_ps_s04_60_bicycle_10_n02835271_13505.png
subject-04,1,69,0.811160087585449,cat,dog,120,0069_ps_s04_120_dog_10_n02113712_18052.png
subject-04,1,70,0.665179967880249,bicycle,knife,90,0070_ps_s04_90_knife_10_n03041632_92063.png
subject-04,1,71,0.587589025497437,bear,bear,0,0071_ps_s04_0_bear_10_n02134084_11483.png
subject-04,1,72,0.737709999084473,elephant,elephant,60,0072_ps_s04_60_elephant_10_n02504458_1644.png
subject-04,1,73,0.638432025909424,keyboard,bottle,120,0073_ps_s04_120_bottle_10_n03937543_2489.png
subject-04,1,74,0.682358980178833,keyboard,keyboard,150,0074_ps_s04_150_keyboard_10_n03085013_12079.png
subject-04,1,75,0.618522882461548,airplane,knife,120,0075_ps_s04_120_knife_10_n03041632_24950.png
subject-04,1,76,0.632811069488525,bottle,bottle,90,0076_ps_s04_90_bottle_10_n02823428_10417.png
subject-04,1,77,0.993167161941528,airplane,airplane,60,0077_ps_s04_60_airplane_10_n02690373_6468.png
subject-04,1,78,0.86948299407959,keyboard,keyboard,30,0078_ps_s04_30_keyboard_10_n04505470_2570.png
subject-04,1,79,0.959994077682495,cat,boat,60,0079_ps_s04_60_boat_10_n02951358_13507.png
subject-04,1,80,0.844417810440063,car,car,90,0080_ps_s04_90_car_10_n04285008_5418.png
subject-04,1,81,0.704165935516357,truck,cat,180,0081_ps_s04_180_cat_10_n02123159_1452.png
subject-04,1,82,0.78672194480896,bear,bird,120,0082_ps_s04_120_bird_10_n01829413_5171.png
subject-04,1,83,0.779154062271118,clock,clock,120,0083_ps_s04_120_clock_10_n04548280_4626.png
subject-04,1,84,0.601258039474487,airplane,airplane,30,0084_ps_s04_30_airplane_10_n02690373_15708.png
subject-04,1,85,0.645187139511108,oven,chair,180,0085_ps_s04_180_chair_10_n04429376_23375.png
subject-04,1,86,0.805535078048706,oven,bottle,120,0086_ps_s04_120_bottle_10_n04591713_1390.png
subject-04,1,87,0.641874074935913,bottle,bottle,30,0087_ps_s04_30_bottle_10_n03937543_3244.png
subject-04,1,88,0.785933971405029,dog,cat,0,0088_ps_s04_0_cat_10_n02123394_546.png
subject-04,1,89,0.654459953308105,bear,bear,0,0089_ps_s04_0_bear_10_n02133161_4723.png
subject-04,1,90,0.676632881164551,cat,cat,0,0090_ps_s04_0_cat_10_n02123045_4841.png
subject-04,1,91,0.674968004226685,bicycle,bicycle,90,0091_ps_s04_90_bicycle_10_n02835271_12818.png
subject-04,1,92,0.726285934448242,truck,truck,30,0092_ps_s04_30_truck_10_n03417042_27966.png
subject-04,1,93,0.67063307762146,oven,knife,0,0093_ps_s04_0_knife_10_n03041632_28710.png
subject-04,1,94,0.685293912887573,car,car,120,0094_ps_s04_120_car_10_n02814533_11155.png
subject-04,1,95,0.637776851654053,bicycle,bird,90,0095_ps_s04_90_bird_10_n01614925_8262.png
subject-04,1,96,0.614301919937134,bottle,keyboard,30,0096_ps_s04_30_keyboard_10_n04505470_4748.png
subject-04,1,97,0.98248815536499,oven,clock,180,0097_ps_s04_180_clock_10_n02708093_6352.png
subject-04,1,98,0.658638954162598,cat,truck,120,0098_ps_s04_120_truck_10_n04467665_78325.png
subject-04,1,99,1.01721596717834,bird,bird,90,0099_ps_s04_90_bird_10_n01601694_6123.png
subject-04,1,100,0.817496061325073,knife,knife,0,0100_ps_s04_0_knife_10_n03041632_992.png
subject-04,1,101,0.723936080932617,boat,boat,60,0101_ps_s04_60_boat_10_n02951358_34697.png
subject-04,1,102,0.630616903305054,oven,bottle,150,0102_ps_s04_150_bottle_10_n03983396_3692.png
subject-04,1,103,0.866588115692139,bird,bird,30,0103_ps_s04_30_bird_10_n02009912_4071.png
subject-04,1,104,0.810571908950806,knife,knife,90,0104_ps_s04_90_knife_10_n03041632_46422.png
subject-04,1,105,1.27914714813232,cat,dog,30,0105_ps_s04_30_dog_10_n02109047_24815.png
subject-04,1,106,1.43168306350708,dog,elephant,180,0106_ps_s04_180_elephant_10_n02504458_3891.png
subject-04,1,107,0.79967999458313,cat,cat,60,0107_ps_s04_60_cat_10_n02124075_11816.png
subject-04,1,108,0.943493127822876,truck,truck,30,0108_ps_s04_30_truck_10_n04467665_67165.png
subject-04,1,109,0.712064981460571,boat,boat,0,0109_ps_s04_0_boat_10_n03344393_4447.png
subject-04,1,110,0.579715013504028,keyboard,keyboard,0,0110_ps_s04_0_keyboard_10_n03085013_21115.png
subject-04,1,111,0.808385848999023,elephant,elephant,60,0111_ps_s04_60_elephant_10_n02504458_8477.png
subject-04,1,112,0.654749870300293,keyboard,keyboard,180,0112_ps_s04_180_keyboard_10_n04505470_6887.png
subject-04,1,113,0.499142169952393,oven,boat,120,0113_ps_s04_120_boat_10_n03344393_6217.png
subject-04,1,114,0.605704069137573,airplane,bottle,180,0114_ps_s04_180_bottle_10_n04560804_726.png
subject-04,1,115,0.574095010757446,clock,oven,120,0115_ps_s04_120_oven_10_n04111531_8917.png
subject-04,1,116,0.980437994003296,clock,clock,30,0116_ps_s04_30_clock_10_n02708093_7122.png
subject-04,1,117,NaN,na,keyboard,150,0117_ps_s04_150_keyboard_10_n03085013_21272.png
subject-04,1,118,0.454501867294312,boat,knife,60,0118_ps_s04_60_knife_10_n03041632_47743.png
subject-04,1,119,0.703896999359131,knife,boat,150,0119_ps_s04_150_boat_10_n03662601_3280.png
subject-04,1,120,0.544579029083252,clock,oven,30,0120_ps_s04_30_oven_10_n04111531_5582.png
subject-04,1,121,0.491219997406006,oven,dog,120,0121_ps_s04_120_dog_10_n02110806_14423.png
subject-04,1,122,0.505596876144409,bear,cat,0,0122_ps_s04_0_cat_10_n02125311_10811.png
subject-04,1,123,0.365876913070679,boat,bottle,120,0123_ps_s04_120_bottle_10_n04579145_5879.png
subject-04,1,124,0.63264799118042,truck,truck,60,0124_ps_s04_60_truck_10_n03417042_5136.png
subject-04,1,125,0.670944929122925,bottle,car,150,0125_ps_s04_150_car_10_n02814533_85312.png
subject-04,1,126,0.899526834487915,knife,knife,60,0126_ps_s04_60_knife_10_n03041632_13130.png
subject-04,1,127,0.859934091567993,airplane,oven,0,0127_ps_s04_0_oven_10_n04111531_15489.png
subject-04,1,128,0.582158088684082,bicycle,boat,180,0128_ps_s04_180_boat_10_n03662601_5137.png
subject-04,1,129,0.626533985137939,bicycle,bicycle,30,0129_ps_s04_30_bicycle_10_n02835271_3313.png
subject-04,1,130,0.657073974609375,elephant,elephant,90,0130_ps_s04_90_elephant_10_n02504013_3264.png
subject-04,1,131,1.0689959526062,bear,cat,30,0131_ps_s04_30_cat_10_n02125311_8376.png
subject-04,1,132,0.61565113067627,cat,chair,150,0132_ps_s04_150_chair_10_n04429376_20628.png
subject-04,1,133,0.690122842788696,clock,bear,30,0133_ps_s04_30_bear_10_n02133161_13273.png
subject-04,1,134,0.657942056655884,airplane,airplane,120,0134_ps_s04_120_airplane_10_n02690373_9712.png
subject-04,1,135,0.58014988899231,keyboard,bottle,180,0135_ps_s04_180_bottle_10_n04579145_2322.png
subject-04,1,136,0.408322095870972,oven,cat,180,0136_ps_s04_180_cat_10_n02123394_2695.png
subject-04,1,137,0.514778137207031,cat,cat,150,0137_ps_s04_150_cat_10_n02125311_47265.png
subject-04,1,138,0.726924180984497,elephant,dog,60,0138_ps_s04_60_dog_10_n02105162_163.png
subject-04,1,139,0.841133117675781,elephant,elephant,0,0139_ps_s04_0_elephant_10_n02504458_3576.png
subject-04,1,140,0.89274787902832,elephant,elephant,150,0140_ps_s04_150_elephant_10_n02504458_3599.png
subject-04,1,141,0.699388027191162,airplane,oven,180,0141_ps_s04_180_oven_10_n04111531_2462.png
subject-04,1,142,0.759499073028564,bear,elephant,120,0142_ps_s04_120_elephant_10_n02504458_481.png
subject-04,1,143,0.911695957183838,truck,truck,60,0143_ps_s04_60_truck_10_n03796401_2982.png
subject-04,1,144,0.610568046569824,oven,keyboard,120,0144_ps_s04_120_keyboard_10_n03085013_30464.png
subject-04,1,145,0.662815093994141,boat,boat,90,0145_ps_s04_90_boat_10_n03662601_9874.png
subject-04,1,146,0.88493800163269,car,bicycle,150,0146_ps_s04_150_bicycle_10_n02835271_2594.png
subject-04,1,147,0.891503095626831,bicycle,bottle,90,0147_ps_s04_90_bottle_10_n02823428_4865.png
subject-04,1,148,1.22814798355103,bear,chair,30,0148_ps_s04_30_chair_10_n04429376_27939.png
subject-04,1,149,0.812320947647095,keyboard,keyboard,0,0149_ps_s04_0_keyboard_10_n03085013_24156.png
subject-04,1,150,0.734879016876221,boat,boat,60,0150_ps_s04_60_boat_10_n03662601_5995.png
subject-04,1,151,0.816906929016113,oven,knife,150,0151_ps_s04_150_knife_10_n03041632_9580.png
subject-04,1,152,0.799412965774536,boat,oven,90,0152_ps_s04_90_oven_10_n04111531_5533.png
subject-04,1,153,0.745974063873291,truck,truck,90,0153_ps_s04_90_truck_10_n03796401_4475.png
subject-04,1,154,0.903568029403687,bird,bird,0,0154_ps_s04_0_bird_10_n01797886_11257.png
subject-04,1,155,0.717980861663818,boat,elephant,120,0155_ps_s04_120_elephant_10_n02504458_1567.png
subject-04,1,156,0.600354909896851,bicycle,chair,150,0156_ps_s04_150_chair_10_n03376595_2465.png
subject-04,1,157,0.652859926223755,elephant,elephant,0,0157_ps_s04_0_elephant_10_n02504458_2037.png
subject-04,1,158,0.73713493347168,airplane,dog,120,0158_ps_s04_120_dog_10_n02112350_10085.png
subject-04,1,159,0.835076093673706,bottle,bottle,90,0159_ps_s04_90_bottle_10_n04557648_1136.png
subject-04,1,160,0.501375198364258,boat,boat,30,0160_ps_s04_30_boat_10_n03662601_35233.png
subject-04,1,161,0.856235027313232,truck,truck,60,0161_ps_s04_60_truck_10_n04467665_20518.png
subject-04,1,162,1.04676818847656,truck,clock,180,0162_ps_s04_180_clock_10_n02708093_1515.png
subject-04,1,163,0.677203893661499,bottle,bottle,120,0163_ps_s04_120_bottle_10_n03983396_4743.png
subject-04,1,164,0.607533931732178,keyboard,keyboard,30,0164_ps_s04_30_keyboard_10_n04505470_5121.png
subject-04,1,165,0.573791027069092,keyboard,keyboard,90,0165_ps_s04_90_keyboard_10_n03085013_18672.png
subject-04,1,166,1.08039498329163,keyboard,boat,150,0166_ps_s04_150_boat_10_n04612504_17260.png
subject-04,1,167,1.10265588760376,dog,bear,60,0167_ps_s04_60_bear_10_n02134084_7904.png
subject-04,1,168,0.630758047103882,keyboard,airplane,120,0168_ps_s04_120_airplane_10_n02690373_8815.png
subject-04,1,169,0.453207969665527,cat,cat,60,0169_ps_s04_60_cat_10_n02123159_4754.png
subject-04,1,170,0.559752941131592,truck,truck,90,0170_ps_s04_90_truck_10_n03417042_14574.png
subject-04,1,171,0.610445022583008,elephant,elephant,30,0171_ps_s04_30_elephant_10_n02504013_8391.png
subject-04,1,172,0.854820966720581,cat,cat,0,0172_ps_s04_0_cat_10_n02124075_5325.png
subject-04,1,173,0.593235969543457,dog,dog,30,0173_ps_s04_30_dog_10_n02085936_7465.png
subject-04,1,174,0.675362110137939,bird,bird,60,0174_ps_s04_60_bird_10_n01855672_2511.png
subject-04,1,175,0.673236131668091,bicycle,boat,30,0175_ps_s04_30_boat_10_n02951358_31517.png
subject-04,1,176,0.471737861633301,boat,bear,180,0176_ps_s04_180_bear_10_n02134084_4247.png
subject-04,1,177,0.632240056991577,car,car,60,0177_ps_s04_60_car_10_n03100240_17108.png
subject-04,1,178,1.02044486999512,bird,bird,60,0178_ps_s04_60_bird_10_n01833805_13186.png
subject-04,1,179,1.00506401062012,chair,chair,60,0179_ps_s04_60_chair_10_n03376595_522.png
subject-04,1,180,0.749251842498779,keyboard,knife,180,0180_ps_s04_180_knife_10_n03041632_41077.png
subject-04,1,181,0.54777717590332,bottle,bottle,30,0181_ps_s04_30_bottle_10_n03983396_4682.png
subject-04,1,182,0.608174800872803,bottle,bottle,30,0182_ps_s04_30_bottle_10_n03983396_3188.png
subject-04,1,183,0.584689855575562,oven,oven,120,0183_ps_s04_120_oven_10_n04111531_15735.png
subject-04,1,184,0.935389041900635,truck,truck,30,0184_ps_s04_30_truck_10_n04467665_11115.png
subject-04,1,185,0.735595226287842,oven,oven,30,0185_ps_s04_30_oven_10_n04111531_6204.png
subject-04,1,186,0.610285043716431,cat,oven,120,0186_ps_s04_120_oven_10_n04111531_584.png
subject-04,1,187,0.570785999298096,boat,clock,180,0187_ps_s04_180_clock_10_n02708093_596.png
subject-04,1,188,0.479083061218262,clock,clock,90,0188_ps_s04_90_clock_10_n04548280_8519.png
subject-04,1,189,0.707473993301392,clock,oven,150,0189_ps_s04_150_oven_10_n04111531_19240.png
subject-04,1,190,0.805857181549072,keyboard,chair,0,0190_ps_s04_0_chair_10_n02791124_2536.png
subject-04,1,191,0.879903078079224,chair,bird,90,0191_ps_s04_90_bird_10_n01560419_1832.png
subject-04,1,192,0.870468139648438,airplane,cat,180,0192_ps_s04_180_cat_10_n02123394_2492.png
subject-04,1,193,1.13083696365356,car,car,0,0193_ps_s04_0_car_10_n03100240_7570.png
subject-04,1,194,0.807324171066284,truck,truck,60,0194_ps_s04_60_truck_10_n04467665_31802.png
subject-04,1,195,1.00571703910828,bottle,oven,60,0195_ps_s04_60_oven_10_n04111531_6120.png
subject-04,1,196,0.912639141082764,bear,dog,90,0196_ps_s04_90_dog_10_n02105855_174.png
subject-04,1,197,0.640816926956177,cat,cat,90,0197_ps_s04_90_cat_10_n02123045_6434.png
subject-04,1,198,0.693203210830688,cat,dog,180,0198_ps_s04_180_dog_10_n02085936_17059.png
subject-04,1,199,0.869472980499268,dog,dog,30,0199_ps_s04_30_dog_10_n02104029_7507.png
subject-04,1,200,0.827660083770752,clock,clock,120,0200_ps_s04_120_clock_10_n04548280_20518.png
subject-04,1,201,0.617904901504517,oven,airplane,150,0201_ps_s04_150_airplane_10_n02690373_17731.png
subject-04,1,202,0.870238065719604,dog,dog,60,0202_ps_s04_60_dog_10_n02097209_7241.png
subject-04,1,203,0.722766160964966,cat,dog,90,0203_ps_s04_90_dog_10_n02106550_11232.png
subject-04,1,204,0.690590143203735,bicycle,bicycle,90,0204_ps_s04_90_bicycle_10_n03792782_4251.png
subject-04,1,205,0.658953189849854,clock,clock,0,0205_ps_s04_0_clock_10_n02708093_1532.png
subject-04,1,206,0.53351092338562,oven,car,150,0206_ps_s04_150_car_10_n04285008_1359.png
subject-04,1,207,0.599617958068848,boat,clock,30,0207_ps_s04_30_clock_10_n03196217_4864.png
subject-04,1,208,0.499788999557495,cat,knife,120,0208_ps_s04_120_knife_10_n03041632_9157.png
subject-04,1,209,0.582053899765015,clock,clock,120,0209_ps_s04_120_clock_10_n02708093_1380.png
subject-04,1,210,0.564167976379395,oven,elephant,150,0210_ps_s04_150_elephant_10_n02504013_6223.png
subject-04,1,211,0.676792144775391,cat,knife,30,0211_ps_s04_30_knife_10_n03041632_29427.png
subject-04,1,212,0.6443932056427,elephant,elephant,30,0212_ps_s04_30_elephant_10_n02504458_5.png
subject-04,1,213,0.689342975616455,bird,bird,30,0213_ps_s04_30_bird_10_n02002556_25225.png
subject-04,1,214,0.801693916320801,oven,car,180,0214_ps_s04_180_car_10_n02814533_1165.png
subject-04,1,215,0.985846042633057,boat,knife,120,0215_ps_s04_120_knife_10_n03041632_32337.png
subject-04,1,216,0.782273054122925,keyboard,airplane,180,0216_ps_s04_180_airplane_10_n02690373_4946.png
subject-04,1,217,0.79654598236084,airplane,airplane,90,0217_ps_s04_90_airplane_10_n02690373_6492.png
subject-04,1,218,0.695014953613281,chair,keyboard,120,0218_ps_s04_120_keyboard_10_n03085013_24105.png
subject-04,1,219,0.914999008178711,bottle,bottle,30,0219_ps_s04_30_bottle_10_n04579145_393.png
subject-04,1,220,0.829123020172119,bear,elephant,180,0220_ps_s04_180_elephant_10_n02504013_2033.png
subject-04,1,221,0.635443925857544,airplane,airplane,120,0221_ps_s04_120_airplane_10_n02690373_10938.png
subject-04,1,222,0.895865917205811,elephant,bicycle,120,0222_ps_s04_120_bicycle_10_n03792782_7180.png
subject-04,1,223,0.670017957687378,car,bird,90,0223_ps_s04_90_bird_10_n01616318_13420.png
subject-04,1,224,0.560528993606567,bicycle,keyboard,150,0224_ps_s04_150_keyboard_10_n04505470_6487.png
subject-04,1,225,0.558489084243774,bicycle,bicycle,0,0225_ps_s04_0_bicycle_10_n02835271_6094.png
subject-04,1,226,1.27129101753235,chair,keyboard,0,0226_ps_s04_0_keyboard_10_n03085013_24442.png
subject-04,1,227,0.939864158630371,chair,chair,30,0227_ps_s04_30_chair_10_n04099969_15406.png
subject-04,1,228,0.867673873901367,car,bicycle,180,0228_ps_s04_180_bicycle_10_n02835271_5956.png
subject-04,1,229,0.827646017074585,bear,keyboard,180,0229_ps_s04_180_keyboard_10_n04505470_4603.png
subject-04,1,230,0.871957063674927,keyboard,keyboard,30,0230_ps_s04_30_keyboard_10_n03085013_20925.png
subject-04,1,231,0.808573007583618,airplane,airplane,60,0231_ps_s04_60_airplane_10_n02690373_4754.png
subject-04,1,232,0.676950931549072,car,car,30,0232_ps_s04_30_car_10_n02814533_81090.png
subject-04,1,233,0.69710898399353,bear,car,150,0233_ps_s04_150_car_10_n03100240_9000.png
subject-04,1,234,0.755561113357544,boat,boat,90,0234_ps_s04_90_boat_10_n03344393_748.png
subject-04,1,235,0.831957101821899,truck,truck,0,0235_ps_s04_0_truck_10_n03417042_7403.png
subject-04,1,236,0.830193042755127,elephant,elephant,90,0236_ps_s04_90_elephant_10_n02504458_7456.png
subject-04,1,237,0.73644495010376,keyboard,clock,150,0237_ps_s04_150_clock_10_n04548280_7662.png
subject-04,1,238,1.13256907463074,dog,dog,30,0238_ps_s04_30_dog_10_n02109525_4568.png
subject-04,1,239,0.968683958053589,bear,keyboard,120,0239_ps_s04_120_keyboard_10_n03085013_23718.png
subject-04,1,240,0.667304039001465,airplane,airplane,90,0240_ps_s04_90_airplane_10_n02690373_17130.png
subject-04,1,241,0.636028051376343,oven,cat,150,0241_ps_s04_150_cat_10_n02125311_1433.png
subject-04,1,242,0.696659803390503,bird,bottle,180,0242_ps_s04_180_bottle_10_n03983396_9614.png
subject-04,1,243,0.833127021789551,clock,clock,90,0243_ps_s04_90_clock_10_n02708093_2843.png
subject-04,1,244,0.844916820526123,bicycle,boat,180,0244_ps_s04_180_boat_10_n03662601_29472.png
subject-04,1,245,0.743161916732788,boat,boat,0,0245_ps_s04_0_boat_10_n04612504_2212.png
subject-04,1,246,0.827644109725952,airplane,oven,150,0246_ps_s04_150_oven_10_n04111531_12843.png
subject-04,1,247,0.932115077972412,elephant,elephant,30,0247_ps_s04_30_elephant_10_n02504013_6572.png
subject-04,1,248,0.862832069396973,airplane,airplane,0,0248_ps_s04_0_airplane_10_n02690373_4029.png
subject-04,1,249,0.999006032943726,dog,knife,60,0249_ps_s04_60_knife_10_n03041632_3504.png
subject-04,1,250,0.919384956359863,clock,clock,60,0250_ps_s04_60_clock_10_n03196217_585.png
subject-04,1,251,0.647610902786255,boat,boat,0,0251_ps_s04_0_boat_10_n02951358_6617.png
subject-04,1,252,0.621896982192993,bottle,bottle,30,0252_ps_s04_30_bottle_10_n02823428_2278.png
subject-04,1,253,1.06353521347046,bird,bird,120,0253_ps_s04_120_bird_10_n01614925_46100.png
subject-04,1,254,0.726058006286621,bird,bird,120,0254_ps_s04_120_bird_10_n02002724_3915.png
subject-04,1,255,0.670563936233521,cat,bear,120,0255_ps_s04_120_bear_10_n02132136_594.png
subject-04,1,256,1.03441596031189,chair,chair,0,0256_ps_s04_0_chair_10_n04099969_15760.png
subject-04,1,257,0.841137170791626,airplane,keyboard,60,0257_ps_s04_60_keyboard_10_n03085013_4136.png
subject-04,1,258,0.739479064941406,bottle,bottle,120,0258_ps_s04_120_bottle_10_n02823428_4214.png
subject-04,1,259,0.813340902328491,oven,oven,30,0259_ps_s04_30_oven_10_n04111531_23830.png
subject-04,1,260,0.827893018722534,bear,chair,120,0260_ps_s04_120_chair_10_n02791124_6643.png
subject-04,1,261,0.847968816757202,knife,knife,30,0261_ps_s04_30_knife_10_n03041632_10777.png
subject-04,1,262,0.951991081237793,cat,cat,30,0262_ps_s04_30_cat_10_n02123159_84.png
subject-04,1,263,1.14236092567444,truck,truck,60,0263_ps_s04_60_truck_10_n03796401_3651.png
subject-04,1,264,1.38667607307434,boat,bird,150,0264_ps_s04_150_bird_10_n01829413_2030.png
subject-04,1,265,1.03894114494324,bird,bird,0,0265_ps_s04_0_bird_10_n01537544_2594.png
subject-04,1,266,0.975682973861694,dog,bird,150,0266_ps_s04_150_bird_10_n02013706_5948.png
subject-04,1,267,0.649725914001465,bicycle,bicycle,0,0267_ps_s04_0_bicycle_10_n02835271_20004.png
subject-04,1,268,0.815402984619141,bottle,bottle,0,0268_ps_s04_0_bottle_10_n04560804_19462.png
subject-04,1,269,0.637545824050903,keyboard,cat,150,0269_ps_s04_150_cat_10_n02123597_7262.png
subject-04,1,270,0.636162996292114,bicycle,bicycle,90,0270_ps_s04_90_bicycle_10_n02835271_8324.png
subject-04,1,271,0.778624057769775,car,bottle,90,0271_ps_s04_90_bottle_10_n04560804_5951.png
subject-04,1,272,0.876410007476807,airplane,airplane,30,0272_ps_s04_30_airplane_10_n02690373_9376.png
subject-04,1,273,0.867005825042725,keyboard,knife,150,0273_ps_s04_150_knife_10_n03041632_13424.png
subject-04,1,274,0.840583801269531,clock,clock,0,0274_ps_s04_0_clock_10_n03196217_6358.png
subject-04,1,275,0.969357013702393,bear,bear,90,0275_ps_s04_90_bear_10_n02132136_18743.png
subject-04,1,276,1.06491899490356,car,car,60,0276_ps_s04_60_car_10_n02814533_36898.png
subject-04,1,277,1.12556195259094,airplane,airplane,30,0277_ps_s04_30_airplane_10_n02690373_5149.png
subject-04,1,278,1.20756888389587,cat,cat,30,0278_ps_s04_30_cat_10_n02123045_3066.png
subject-04,1,279,0.859998226165771,chair,chair,30,0279_ps_s04_30_chair_10_n02791124_5173.png
subject-04,1,280,0.612040996551514,chair,chair,0,0280_ps_s04_0_chair_10_n02791124_3871.png
subject-04,1,281,0.594048023223877,airplane,airplane,30,0281_ps_s04_30_airplane_10_n02690373_13206.png
subject-04,1,282,0.614767074584961,boat,boat,30,0282_ps_s04_30_boat_10_n04273569_12441.png
subject-04,1,283,0.596962213516235,bicycle,knife,150,0283_ps_s04_150_knife_10_n03041632_4494.png
subject-04,1,284,1.43890690803528,oven,chair,180,0284_ps_s04_180_chair_10_n02791124_4519.png
subject-04,1,285,0.899317979812622,clock,airplane,150,0285_ps_s04_150_airplane_10_n02690373_971.png
subject-04,1,286,1.2273690700531,airplane,clock,150,0286_ps_s04_150_clock_10_n02708093_8073.png
subject-04,1,287,1.18801498413086,cat,knife,0,0287_ps_s04_0_knife_10_n03041632_42526.png
subject-04,1,288,1.20031404495239,oven,clock,0,0288_ps_s04_0_clock_10_n03196217_1454.png
subject-04,1,289,0.91428804397583,clock,clock,90,0289_ps_s04_90_clock_10_n04548280_3330.png
subject-04,1,290,0.988943099975586,bottle,dog,0,0290_ps_s04_0_dog_10_n02093991_3213.png
subject-04,1,291,1.20927309989929,car,bottle,90,0291_ps_s04_90_bottle_10_n04591713_6617.png
subject-04,1,292,0.861865997314453,airplane,airplane,90,0292_ps_s04_90_airplane_10_n02690373_1891.png
subject-04,1,293,0.813806056976318,airplane,keyboard,120,0293_ps_s04_120_keyboard_10_n03085013_21807.png
subject-04,1,294,1.00406885147095,oven,bear,60,0294_ps_s04_60_bear_10_n02134418_5780.png
subject-04,1,295,1.1242527961731,bottle,bottle,0,0295_ps_s04_0_bottle_10_n04560804_1846.png
subject-04,1,296,1.03907299041748,bear,elephant,180,0296_ps_s04_180_elephant_10_n02504013_16126.png
subject-04,1,297,0.775616884231567,bicycle,airplane,150,0297_ps_s04_150_airplane_10_n02690373_9533.png
subject-04,1,298,1.02766299247742,bottle,bottle,60,0298_ps_s04_60_bottle_10_n04591713_2978.png
subject-04,1,299,0.788048982620239,bicycle,bicycle,30,0299_ps_s04_30_bicycle_10_n02835271_3127.png
subject-04,1,300,1.13059592247009,bear,car,180,0300_ps_s04_180_car_10_n03100240_8854.png
subject-04,1,301,0.812762022018433,airplane,airplane,0,0301_ps_s04_0_airplane_10_n02690373_7465.png
subject-04,1,302,0.797154903411865,car,boat,150,0302_ps_s04_150_boat_10_n03344393_10245.png
subject-04,1,303,0.795295000076294,truck,truck,120,0303_ps_s04_120_truck_10_n03796401_22395.png
subject-04,1,304,0.761360168457031,bottle,airplane,180,0304_ps_s04_180_airplane_10_n02690373_1279.png
subject-04,1,305,0.859894990921021,chair,clock,120,0305_ps_s04_120_clock_10_n04548280_116.png
subject-04,1,306,1.28038501739502,boat,knife,150,0306_ps_s04_150_knife_10_n03041632_33075.png
subject-04,1,307,1.27090787887573,keyboard,boat,90,0307_ps_s04_90_boat_10_n03662601_22726.png
subject-04,1,308,1.35346388816833,truck,bear,90,0308_ps_s04_90_bear_10_n02134418_5124.png
subject-04,1,309,1.23605918884277,airplane,car,150,0309_ps_s04_150_car_10_n04285008_5029.png
subject-04,1,310,0.958544015884399,oven,oven,0,0310_ps_s04_0_oven_10_n04111531_3689.png
subject-04,1,311,0.818789958953857,boat,boat,0,0311_ps_s04_0_boat_10_n02951358_2212.png
subject-04,1,312,0.94522500038147,bird,bird,60,0312_ps_s04_60_bird_10_n02002556_20980.png
subject-04,1,313,0.951191186904907,bottle,truck,150,0313_ps_s04_150_truck_10_n04467665_64375.png
subject-04,1,314,0.871651887893677,car,car,90,0314_ps_s04_90_car_10_n04285008_13087.png
subject-04,1,315,0.77716588973999,boat,bottle,150,0315_ps_s04_150_bottle_10_n03937543_7501.png
subject-04,1,316,1.28125190734863,dog,dog,0,0316_ps_s04_0_dog_10_n02090622_6143.png
subject-04,1,317,1.1956992149353,boat,boat,30,0317_ps_s04_30_boat_10_n03662601_8263.png
subject-04,1,318,0.902369976043701,clock,clock,60,0318_ps_s04_60_clock_10_n04548280_254.png
subject-04,1,319,0.903098106384277,bicycle,bird,60,0319_ps_s04_60_bird_10_n02033041_413.png
subject-04,1,320,1.12319111824036,oven,keyboard,0,0320_ps_s04_0_keyboard_10_n03085013_8865.png
subject-04,1,321,0.890891075134277,oven,car,150,0321_ps_s04_150_car_10_n04285008_10706.png
subject-04,1,322,0.527350902557373,bicycle,bicycle,120,0322_ps_s04_120_bicycle_10_n02835271_4130.png
subject-04,1,323,1.12385821342468,keyboard,bird,0,0323_ps_s04_0_bird_10_n02018795_4460.png
subject-04,1,324,0.578679800033569,car,car,60,0324_ps_s04_60_car_10_n03100240_1443.png
subject-04,1,325,0.821083068847656,boat,boat,60,0325_ps_s04_60_boat_10_n04612504_2471.png
subject-04,1,326,1.24139380455017,truck,truck,0,0326_ps_s04_0_truck_10_n04467665_70995.png
subject-04,1,327,0.718032836914062,oven,keyboard,90,0327_ps_s04_90_keyboard_10_n03085013_26556.png
subject-04,1,328,1.03027892112732,truck,truck,60,0328_ps_s04_60_truck_10_n04467665_7144.png
subject-04,1,329,0.812327861785889,bicycle,elephant,150,0329_ps_s04_150_elephant_10_n02504013_4373.png
subject-04,1,330,1.00237107276917,chair,chair,60,0330_ps_s04_60_chair_10_n03376595_3166.png
subject-04,1,331,0.824992179870605,airplane,car,150,0331_ps_s04_150_car_10_n02814533_41431.png
subject-04,1,332,0.699331998825073,truck,bear,150,0332_ps_s04_150_bear_10_n02134418_606.png
subject-04,1,333,0.605802059173584,bear,bird,180,0333_ps_s04_180_bird_10_n01833805_1104.png
subject-04,1,334,0.679773092269897,bicycle,bear,150,0334_ps_s04_150_bear_10_n02133161_9142.png
subject-04,1,335,0.586172819137573,clock,truck,150,0335_ps_s04_150_truck_10_n03417042_1225.png
subject-04,1,336,0.722870826721191,oven,chair,30,0336_ps_s04_30_chair_10_n04429376_40894.png
subject-04,1,337,0.98147177696228,dog,dog,0,0337_ps_s04_0_dog_10_n02111129_5354.png
subject-04,1,338,0.741885900497437,elephant,elephant,30,0338_ps_s04_30_elephant_10_n02504013_565.png
subject-04,1,339,0.984100103378296,elephant,bear,30,0339_ps_s04_30_bear_10_n02132136_3378.png
subject-04,1,340,1.16636204719543,car,truck,30,0340_ps_s04_30_truck_10_n04467665_3843.png
subject-04,1,341,1.03444194793701,truck,knife,90,0341_ps_s04_90_knife_10_n03041632_105080.png
subject-04,1,342,0.777230024337769,cat,knife,180,0342_ps_s04_180_knife_10_n03041632_24998.png
subject-04,1,343,0.767269134521484,chair,oven,180,0343_ps_s04_180_oven_10_n04111531_1909.png
subject-04,1,344,1.4016900062561,bear,bear,0,0344_ps_s04_0_bear_10_n02134418_109.png
subject-04,1,345,1.01594209671021,elephant,airplane,180,0345_ps_s04_180_airplane_10_n02690373_3065.png
subject-04,1,346,1.06810402870178,knife,knife,120,0346_ps_s04_120_knife_10_n03041632_49513.png
subject-04,1,347,0.755173921585083,car,car,60,0347_ps_s04_60_car_10_n02814533_31964.png
subject-04,1,348,0.753540992736816,bottle,keyboard,120,0348_ps_s04_120_keyboard_10_n04505470_4828.png
subject-04,1,349,0.752233028411865,cat,boat,150,0349_ps_s04_150_boat_10_n04273569_18503.png
subject-04,1,350,0.888586044311523,car,car,120,0350_ps_s04_120_car_10_n04285008_13.png
subject-04,1,351,0.846664190292358,bear,bear,90,0351_ps_s04_90_bear_10_n02133161_15481.png
subject-04,1,352,1.38108897209167,oven,bottle,0,0352_ps_s04_0_bottle_10_n04560804_15519.png
subject-04,1,353,NaN,na,elephant,0,0353_ps_s04_0_elephant_10_n02504458_5137.png
subject-04,1,354,1.09380698204041,clock,clock,30,0354_ps_s04_30_clock_10_n04548280_7871.png
subject-04,1,355,0.976541042327881,bear,oven,60,0355_ps_s04_60_oven_10_n04111531_2715.png
subject-04,1,356,1.12898898124695,bottle,dog,90,0356_ps_s04_90_dog_10_n02097047_1454.png
subject-04,1,357,NaN,na,keyboard,0,0357_ps_s04_0_keyboard_10_n03085013_21008.png
subject-04,1,358,NaN,na,oven,30,0358_ps_s04_30_oven_10_n04111531_4795.png
subject-04,1,359,1.40373086929321,elephant,elephant,0,0359_ps_s04_0_elephant_10_n02504013_6001.png
subject-04,1,360,1.32602000236511,bear,airplane,120,0360_ps_s04_120_airplane_10_n02690373_5217.png
subject-04,1,361,1.01369285583496,bicycle,oven,180,0361_ps_s04_180_oven_10_n04111531_6590.png
subject-04,1,362,1.03589606285095,truck,truck,30,0362_ps_s04_30_truck_10_n04467665_11851.png
subject-04,1,363,1.23224186897278,dog,bear,60,0363_ps_s04_60_bear_10_n02134084_20677.png
subject-04,1,364,0.81464695930481,bear,bird,60,0364_ps_s04_60_bird_10_n01818515_9005.png
subject-04,1,365,0.750712156295776,clock,clock,60,0365_ps_s04_60_clock_10_n04548280_8649.png
subject-04,1,366,0.602748155593872,oven,truck,120,0366_ps_s04_120_truck_10_n03417042_5235.png
subject-04,1,367,0.605463981628418,keyboard,truck,150,0367_ps_s04_150_truck_10_n03417042_9946.png
subject-04,1,368,0.77229905128479,clock,bird,120,0368_ps_s04_120_bird_10_n01833805_10010.png
subject-04,1,369,0.900052070617676,car,bicycle,180,0369_ps_s04_180_bicycle_10_n03792782_18769.png
subject-04,1,370,0.982378005981445,bicycle,cat,120,0370_ps_s04_120_cat_10_n02123394_4164.png
subject-04,1,371,0.873133897781372,bird,bicycle,150,0371_ps_s04_150_bicycle_10_n02835271_1826.png
subject-04,1,372,0.747030973434448,elephant,elephant,120,0372_ps_s04_120_elephant_10_n02504458_6302.png
subject-04,1,373,0.659552812576294,airplane,oven,90,0373_ps_s04_90_oven_10_n04111531_6400.png
subject-04,1,374,0.67956805229187,bicycle,keyboard,150,0374_ps_s04_150_keyboard_10_n04505470_5111.png
subject-04,1,375,0.694010972976685,clock,car,180,0375_ps_s04_180_car_10_n03100240_7843.png
subject-04,1,376,0.644373893737793,oven,bird,180,0376_ps_s04_180_bird_10_n01614925_7456.png
subject-04,1,377,0.964832067489624,airplane,bird,120,0377_ps_s04_120_bird_10_n02028035_2798.png
subject-04,1,378,0.625535011291504,boat,elephant,150,0378_ps_s04_150_elephant_10_n02504013_1909.png
subject-04,1,379,0.967532873153687,car,dog,60,0379_ps_s04_60_dog_10_n02109525_40779.png
subject-04,1,380,0.958026170730591,bear,clock,150,0380_ps_s04_150_clock_10_n04548280_24041.png
subject-04,1,381,0.771931171417236,keyboard,keyboard,30,0381_ps_s04_30_keyboard_10_n04505470_4357.png
subject-04,1,382,0.792454957962036,airplane,airplane,90,0382_ps_s04_90_airplane_10_n02690373_18506.png
subject-04,1,383,0.944707870483398,bicycle,bicycle,0,0383_ps_s04_0_bicycle_10_n02835271_21339.png
subject-04,1,384,0.919091939926147,boat,airplane,150,0384_ps_s04_150_airplane_10_n02690373_12813.png
subject-04,1,385,0.985522031784058,clock,clock,60,0385_ps_s04_60_clock_10_n04548280_5286.png
subject-04,1,386,0.93816089630127,bear,bear,60,0386_ps_s04_60_bear_10_n02134084_6313.png
subject-04,1,387,1.30060410499573,boat,truck,120,0387_ps_s04_120_truck_10_n03417042_17624.png
subject-04,1,388,1.45916104316711,keyboard,keyboard,90,0388_ps_s04_90_keyboard_10_n04505470_4753.png
subject-04,1,389,1.12738800048828,oven,dog,150,0389_ps_s04_150_dog_10_n02099267_15549.png
subject-04,1,390,0.809293985366821,airplane,airplane,90,0390_ps_s04_90_airplane_10_n02690373_8631.png
subject-04,1,391,0.943756103515625,boat,knife,0,0391_ps_s04_0_knife_10_n03041632_13656.png
subject-04,1,392,0.674382925033569,car,clock,180,0392_ps_s04_180_clock_10_n04548280_2826.png
subject-04,1,393,NaN,na,clock,120,0393_ps_s04_120_clock_10_n04548280_8412.png
subject-04,1,394,1.14476799964905,clock,clock,120,0394_ps_s04_120_clock_10_n03196217_11199.png
subject-04,1,395,0.881102085113525,bicycle,bird,120,0395_ps_s04_120_bird_10_n01796340_13033.png
subject-04,1,396,0.741422891616821,clock,clock,60,0396_ps_s04_60_clock_10_n04548280_8273.png
subject-04,1,397,0.721746921539307,knife,knife,0,0397_ps_s04_0_knife_10_n03041632_10109.png
subject-04,1,398,0.8521568775177,cat,dog,0,0398_ps_s04_0_dog_10_n02095314_4078.png
subject-04,1,399,0.756927013397217,oven,oven,120,0399_ps_s04_120_oven_10_n04111531_3902.png
subject-04,1,400,0.647254943847656,boat,clock,180,0400_ps_s04_180_clock_10_n03196217_2919.png
subject-04,1,401,0.807615041732788,clock,chair,120,0401_ps_s04_120_chair_10_n02791124_13469.png
subject-04,1,402,1.08727192878723,elephant,elephant,30,0402_ps_s04_30_elephant_10_n02504458_9813.png
subject-04,1,403,0.907992839813232,boat,bear,120,0403_ps_s04_120_bear_10_n02134084_23594.png
subject-04,1,404,0.79807710647583,boat,boat,60,0404_ps_s04_60_boat_10_n02951358_4345.png
subject-04,1,405,1.07243394851685,clock,chair,150,0405_ps_s04_150_chair_10_n03376595_2729.png
subject-04,1,406,1.12245512008667,cat,bird,0,0406_ps_s04_0_bird_10_n02011460_8462.png
subject-04,1,407,1.12626504898071,airplane,truck,0,0407_ps_s04_0_truck_10_n03796401_15240.png
subject-04,1,408,0.794494152069092,boat,bear,0,0408_ps_s04_0_bear_10_n02133161_21472.png
subject-04,1,409,0.830574989318848,clock,bicycle,180,0409_ps_s04_180_bicycle_10_n03792782_360.png
subject-04,1,410,0.64284086227417,boat,cat,90,0410_ps_s04_90_cat_10_n02123597_11723.png
subject-04,1,411,0.779131889343262,bottle,boat,30,0411_ps_s04_30_boat_10_n03662601_20295.png
subject-04,1,412,0.929435014724731,oven,truck,180,0412_ps_s04_180_truck_10_n03796401_15046.png
subject-04,1,413,1.40955018997192,elephant,elephant,30,0413_ps_s04_30_elephant_10_n02504013_7821.png
subject-04,1,414,1.38576483726501,bear,knife,120,0414_ps_s04_120_knife_10_n03041632_27879.png
subject-04,1,415,1.27417802810669,boat,boat,180,0415_ps_s04_180_boat_10_n03662601_81.png
subject-04,1,416,1.36434817314148,elephant,elephant,60,0416_ps_s04_60_elephant_10_n02504458_4775.png
subject-04,1,417,1.28474998474121,clock,clock,30,0417_ps_s04_30_clock_10_n02708093_228.png
subject-04,1,418,1.22112679481506,oven,bicycle,180,0418_ps_s04_180_bicycle_10_n02835271_358.png
subject-04,1,419,1.15738701820374,boat,cat,90,0419_ps_s04_90_cat_10_n02123159_4519.png
subject-04,1,420,1.26952695846558,clock,clock,60,0420_ps_s04_60_clock_10_n04548280_21263.png
subject-04,1,421,1.48191905021667,elephant,chair,0,0421_ps_s04_0_chair_10_n04099969_20421.png
subject-04,1,422,1.5002760887146,oven,keyboard,90,0422_ps_s04_90_keyboard_10_n04505470_10419.png
subject-04,1,423,1.32435584068298,bicycle,elephant,120,0423_ps_s04_120_elephant_10_n02504458_7740.png
subject-04,1,424,NaN,na,bird,150,0424_ps_s04_150_bird_10_n01797886_9474.png
subject-04,1,425,1.5000638961792,boat,bear,120,0425_ps_s04_120_bear_10_n02132136_29636.png
subject-04,1,426,1.10689282417297,boat,airplane,0,0426_ps_s04_0_airplane_10_n02690373_3818.png
subject-04,1,427,1.19301199913025,oven,car,0,0427_ps_s04_0_car_10_n03100240_2701.png
subject-04,1,428,NaN,na,car,120,0428_ps_s04_120_car_10_n02814533_40531.png
subject-04,1,429,0.773838043212891,boat,car,180,0429_ps_s04_180_car_10_n03100240_14948.png
subject-04,1,430,0.640111923217773,car,car,90,0430_ps_s04_90_car_10_n04285008_793.png
subject-04,1,431,0.600924015045166,airplane,keyboard,180,0431_ps_s04_180_keyboard_10_n04505470_810.png
subject-04,1,432,0.650553941726685,boat,boat,0,0432_ps_s04_0_boat_10_n03344393_2059.png
subject-04,1,433,0.716546058654785,clock,bicycle,180,0433_ps_s04_180_bicycle_10_n02835271_2317.png
subject-04,1,434,0.590321063995361,cat,truck,180,0434_ps_s04_180_truck_10_n03417042_22866.png
subject-04,1,435,0.69485878944397,boat,airplane,30,0435_ps_s04_30_airplane_10_n02690373_4617.png
subject-04,1,436,0.668720960617065,boat,boat,0,0436_ps_s04_0_boat_10_n03344393_732.png
subject-04,1,437,0.634738922119141,oven,bottle,150,0437_ps_s04_150_bottle_10_n04560804_15060.png
subject-04,1,438,1.07698702812195,car,car,0,0438_ps_s04_0_car_10_n02814533_59264.png
subject-04,1,439,0.558604001998901,boat,truck,30,0439_ps_s04_30_truck_10_n03417042_3171.png
subject-04,1,440,0.600929975509644,cat,cat,30,0440_ps_s04_30_cat_10_n02124075_20957.png
subject-04,1,441,0.599246025085449,truck,truck,30,0441_ps_s04_30_truck_10_n03417042_9057.png
subject-04,1,442,0.649667978286743,boat,chair,60,0442_ps_s04_60_chair_10_n02791124_3669.png
subject-04,1,443,0.670032024383545,bicycle,bird,180,0443_ps_s04_180_bird_10_n02056570_1691.png
subject-04,1,444,0.614273071289062,clock,bottle,120,0444_ps_s04_120_bottle_10_n03983396_4564.png
subject-04,1,445,0.802766084671021,bear,bear,0,0445_ps_s04_0_bear_10_n02134418_1605.png
subject-04,1,446,0.801452875137329,truck,truck,30,0446_ps_s04_30_truck_10_n03417042_13729.png
subject-04,1,447,0.95176100730896,car,truck,120,0447_ps_s04_120_truck_10_n03796401_3431.png
subject-04,1,448,0.89650821685791,truck,truck,0,0448_ps_s04_0_truck_10_n03417042_4188.png
subject-04,1,449,0.70060920715332,bicycle,oven,120,0449_ps_s04_120_oven_10_n04111531_3977.png
subject-04,1,450,0.674915075302124,bear,elephant,120,0450_ps_s04_120_elephant_10_n02504013_13097.png
subject-04,1,451,0.679360866546631,keyboard,keyboard,30,0451_ps_s04_30_keyboard_10_n04505470_1712.png
subject-04,1,452,0.555891036987305,oven,chair,180,0452_ps_s04_180_chair_10_n02791124_5825.png
subject-04,1,453,1.24438500404358,clock,bottle,90,0453_ps_s04_90_bottle_10_n04560804_14102.png
subject-04,1,454,1.20294785499573,oven,clock,90,0454_ps_s04_90_clock_10_n03196217_12701.png
subject-04,1,455,1.17742991447449,cat,bicycle,150,0455_ps_s04_150_bicycle_10_n02835271_14891.png
subject-04,1,456,0.833761930465698,bicycle,bicycle,0,0456_ps_s04_0_bicycle_10_n02835271_2104.png
subject-04,1,457,0.724324941635132,clock,clock,90,0457_ps_s04_90_clock_10_n02708093_3006.png
subject-04,1,458,0.782912015914917,keyboard,bird,120,0458_ps_s04_120_bird_10_n02002724_141.png
subject-04,1,459,0.779407024383545,car,car,30,0459_ps_s04_30_car_10_n04285008_2653.png
subject-04,1,460,0.601855039596558,boat,oven,150,0460_ps_s04_150_oven_10_n04111531_12903.png
subject-04,1,461,0.636240005493164,bear,bicycle,150,0461_ps_s04_150_bicycle_10_n02835271_12477.png
subject-04,1,462,0.764899969100952,boat,boat,150,0462_ps_s04_150_boat_10_n04612504_28737.png
subject-04,1,463,NaN,na,truck,30,0463_ps_s04_30_truck_10_n04467665_15994.png
subject-04,1,464,1.21177196502686,oven,chair,120,0464_ps_s04_120_chair_10_n03376595_8196.png
subject-04,1,465,1.40971207618713,elephant,airplane,60,0465_ps_s04_60_airplane_10_n02690373_4213.png
subject-04,1,466,1.37650084495544,bird,boat,60,0466_ps_s04_60_boat_10_n03662601_10228.png
subject-04,1,467,1.38870120048523,bear,bear,120,0467_ps_s04_120_bear_10_n02134418_2742.png
subject-04,1,468,1.4391930103302,airplane,bottle,90,0468_ps_s04_90_bottle_10_n02823428_8696.png
subject-04,1,469,1.22933602333069,car,knife,150,0469_ps_s04_150_knife_10_n03041632_3063.png
subject-04,1,470,1.50036716461182,chair,knife,180,0470_ps_s04_180_knife_10_n03041632_13465.png
subject-04,1,471,1.50012397766113,bicycle,car,0,0471_ps_s04_0_car_10_n04285008_6899.png
subject-04,1,472,NaN,na,bicycle,60,0472_ps_s04_60_bicycle_10_n03792782_6720.png
subject-04,1,473,NaN,na,elephant,90,0473_ps_s04_90_elephant_10_n02504458_12217.png
subject-04,1,474,0.600000143051147,oven,truck,180,0474_ps_s04_180_truck_10_n03796401_23550.png
subject-04,1,475,0.543950080871582,chair,chair,0,0475_ps_s04_0_chair_10_n04099969_6769.png
subject-04,1,476,0.660249948501587,bicycle,bicycle,90,0476_ps_s04_90_bicycle_10_n03792782_12844.png
subject-04,1,477,0.672382116317749,knife,knife,120,0477_ps_s04_120_knife_10_n03041632_86251.png
subject-04,1,478,0.593079805374146,car,car,30,0478_ps_s04_30_car_10_n04285008_2816.png
subject-04,1,479,0.689381122589111,airplane,bicycle,150,0479_ps_s04_150_bicycle_10_n02835271_16017.png
subject-04,1,480,0.634052991867065,truck,truck,0,0480_ps_s04_0_truck_10_n03417042_10769.png
subject-04,1,481,0.619951963424683,boat,boat,60,0481_ps_s04_60_boat_10_n04612504_3003.png
subject-04,1,482,0.932552099227905,bear,bear,60,0482_ps_s04_60_bear_10_n02134418_4685.png
subject-04,1,483,0.746852159500122,airplane,airplane,60,0483_ps_s04_60_airplane_10_n02690373_3539.png
subject-04,1,484,0.705363035202026,truck,oven,0,0484_ps_s04_0_oven_10_n04111531_21911.png
subject-04,1,485,0.7497239112854,bottle,oven,90,0485_ps_s04_90_oven_10_n04111531_9822.png
subject-04,1,486,0.623878955841064,knife,knife,0,0486_ps_s04_0_knife_10_n03041632_10802.png
subject-04,1,487,0.980036973953247,airplane,boat,60,0487_ps_s04_60_boat_10_n04612504_15732.png
subject-04,1,488,0.63250994682312,car,oven,120,0488_ps_s04_120_oven_10_n04111531_4959.png
subject-04,1,489,0.622781991958618,cat,cat,30,0489_ps_s04_30_cat_10_n02123045_13593.png
subject-04,1,490,0.589030981063843,bear,dog,120,0490_ps_s04_120_dog_10_n02109047_26128.png
subject-04,1,491,0.701552152633667,clock,clock,90,0491_ps_s04_90_clock_10_n03196217_10139.png
subject-04,1,492,0.637932062149048,truck,truck,0,0492_ps_s04_0_truck_10_n03417042_15482.png
subject-04,1,493,NaN,na,cat,180,0493_ps_s04_180_cat_10_n02123597_4760.png
subject-04,1,494,0.762890100479126,car,car,0,0494_ps_s04_0_car_10_n02814533_19312.png
subject-04,1,495,0.678888082504272,airplane,bottle,150,0495_ps_s04_150_bottle_10_n03983396_15006.png
subject-04,1,496,0.537362098693848,keyboard,keyboard,60,0496_ps_s04_60_keyboard_10_n03085013_24455.png
subject-04,1,497,0.649822950363159,boat,bottle,180,0497_ps_s04_180_bottle_10_n03937543_1375.png
subject-04,1,498,0.74016809463501,chair,boat,90,0498_ps_s04_90_boat_10_n03344393_1147.png
subject-04,1,499,0.668247938156128,chair,chair,120,0499_ps_s04_120_chair_10_n03376595_2345.png
subject-04,1,500,0.673026084899902,elephant,elephant,60,0500_ps_s04_60_elephant_10_n02504458_6199.png
subject-04,1,501,0.755254983901978,oven,knife,180,0501_ps_s04_180_knife_10_n03041632_54603.png
subject-04,1,502,0.635715961456299,bear,oven,180,0502_ps_s04_180_oven_10_n04111531_12408.png
subject-04,1,503,1.01818799972534,elephant,elephant,60,0503_ps_s04_60_elephant_10_n02504013_3719.png
subject-04,1,504,0.716413974761963,bicycle,airplane,150,0504_ps_s04_150_airplane_10_n02690373_8515.png
subject-04,1,505,1.40296316146851,bird,bird,60,0505_ps_s04_60_bird_10_n01833805_25698.png
subject-04,1,506,0.717245101928711,car,bear,150,0506_ps_s04_150_bear_10_n02134418_972.png
subject-04,1,507,0.577724933624268,bear,bird,180,0507_ps_s04_180_bird_10_n01558993_42607.png
subject-04,1,508,0.880069017410278,boat,boat,30,0508_ps_s04_30_boat_10_n03662601_36741.png
subject-04,1,509,0.994817018508911,car,car,0,0509_ps_s04_0_car_10_n04285008_11291.png
subject-04,1,510,0.874680995941162,airplane,car,180,0510_ps_s04_180_car_10_n04285008_3911.png
subject-04,1,511,1.01137900352478,airplane,airplane,0,0511_ps_s04_0_airplane_10_n02690373_2091.png
subject-04,1,512,1.20775389671326,bicycle,bicycle,90,0512_ps_s04_90_bicycle_10_n03792782_5318.png
subject-04,1,513,0.989733934402466,clock,bicycle,180,0513_ps_s04_180_bicycle_10_n02835271_7148.png
subject-04,1,514,0.841915130615234,bear,bicycle,90,0514_ps_s04_90_bicycle_10_n03792782_1639.png
subject-04,1,515,1.05844378471375,bird,bird,0,0515_ps_s04_0_bird_10_n01622779_21474.png
subject-04,1,516,0.824818849563599,bird,bird,0,0516_ps_s04_0_bird_10_n01530575_10047.png
subject-04,1,517,0.883273839950562,knife,knife,90,0517_ps_s04_90_knife_10_n03041632_25022.png
subject-04,1,518,1.15715789794922,elephant,elephant,30,0518_ps_s04_30_elephant_10_n02504013_2549.png
subject-04,1,519,0.747967004776001,airplane,airplane,60,0519_ps_s04_60_airplane_10_n02690373_4440.png
subject-04,1,520,0.667979001998901,boat,cat,120,0520_ps_s04_120_cat_10_n02123159_514.png
subject-04,1,521,1.06997990608215,bicycle,bicycle,30,0521_ps_s04_30_bicycle_10_n03792782_71904.png
subject-04,1,522,1.19837498664856,bicycle,clock,0,0522_ps_s04_0_clock_10_n03196217_4840.png
subject-04,1,523,0.758408784866333,airplane,airplane,90,0523_ps_s04_90_airplane_10_n02690373_6773.png
subject-04,1,524,0.616414070129395,boat,clock,180,0524_ps_s04_180_clock_10_n03196217_13062.png
subject-04,1,525,0.774871110916138,car,truck,90,0525_ps_s04_90_truck_10_n03796401_4057.png
subject-04,1,526,1.24931693077087,bird,knife,30,0526_ps_s04_30_knife_10_n03041632_4305.png
subject-04,1,527,0.877776145935059,bear,chair,150,0527_ps_s04_150_chair_10_n03376595_14729.png
subject-04,1,528,0.852123975753784,oven,oven,0,0528_ps_s04_0_oven_10_n04111531_4155.png
subject-04,1,529,0.872197866439819,bear,bear,0,0529_ps_s04_0_bear_10_n02134084_22862.png
subject-04,1,530,0.892389059066772,airplane,dog,150,0530_ps_s04_150_dog_10_n02109525_12883.png
subject-04,1,531,1.189208984375,oven,cat,60,0531_ps_s04_60_cat_10_n02123159_1872.png
subject-04,1,532,0.709792137145996,bird,bird,30,0532_ps_s04_30_bird_10_n01843383_897.png
subject-04,1,533,0.867963075637817,cat,clock,0,0533_ps_s04_0_clock_10_n03196217_8680.png
subject-04,1,534,0.720645904541016,oven,chair,90,0534_ps_s04_90_chair_10_n02791124_2846.png
subject-04,1,535,0.568691968917847,clock,bear,180,0535_ps_s04_180_bear_10_n02132136_19136.png
subject-04,1,536,0.649048089981079,boat,boat,30,0536_ps_s04_30_boat_10_n02951358_406.png
subject-04,1,537,1.26928186416626,car,truck,90,0537_ps_s04_90_truck_10_n03796401_882.png
subject-04,1,538,1.0357780456543,airplane,airplane,0,0538_ps_s04_0_airplane_10_n02690373_5797.png
subject-04,1,539,1.03982996940613,chair,bear,120,0539_ps_s04_120_bear_10_n02133161_10744.png
subject-04,1,540,0.837565898895264,bear,bear,30,0540_ps_s04_30_bear_10_n02133161_11835.png
subject-04,1,541,1.15572500228882,oven,chair,30,0541_ps_s04_30_chair_10_n04429376_54570.png
subject-04,1,542,1.02188897132874,car,car,60,0542_ps_s04_60_car_10_n03100240_4071.png
subject-04,1,543,0.966272115707397,truck,chair,180,0543_ps_s04_180_chair_10_n03376595_6552.png
subject-04,1,544,NaN,na,bottle,180,0544_ps_s04_180_bottle_10_n03983396_2703.png
subject-04,1,545,NaN,na,car,60,0545_ps_s04_60_car_10_n03100240_11693.png
subject-04,1,546,0.797361850738525,clock,clock,90,0546_ps_s04_90_clock_10_n04548280_2299.png
subject-04,1,547,0.58779501914978,airplane,airplane,90,0547_ps_s04_90_airplane_10_n02690373_9001.png
subject-04,1,548,0.6544508934021,airplane,airplane,0,0548_ps_s04_0_airplane_10_n02690373_4681.png
subject-04,1,549,0.582934856414795,airplane,cat,150,0549_ps_s04_150_cat_10_n02125311_76870.png
subject-04,1,550,0.808183908462524,bicycle,bird,90,0550_ps_s04_90_bird_10_n01797886_11571.png
subject-04,1,551,0.828662157058716,chair,cat,180,0551_ps_s04_180_cat_10_n02123597_8523.png
subject-04,1,552,1.01944208145142,oven,bicycle,0,0552_ps_s04_0_bicycle_10_n03792782_20720.png
subject-04,1,553,NaN,na,dog,180,0553_ps_s04_180_dog_10_n02088238_8278.png
subject-04,1,554,0.630697011947632,clock,bird,30,0554_ps_s04_30_bird_10_n02011460_20535.png
subject-04,1,555,0.810635089874268,oven,knife,0,0555_ps_s04_0_knife_10_n03041632_20433.png
subject-04,1,556,0.563165187835693,car,bear,120,0556_ps_s04_120_bear_10_n02133161_2380.png
subject-04,1,557,0.651211977005005,bird,bird,30,0557_ps_s04_30_bird_10_n01824575_934.png
subject-04,1,558,0.987549066543579,bottle,car,120,0558_ps_s04_120_car_10_n04285008_3160.png
subject-04,1,559,0.792102813720703,chair,bird,60,0559_ps_s04_60_bird_10_n01532829_1083.png
subject-04,1,560,0.636590003967285,car,chair,120,0560_ps_s04_120_chair_10_n04099969_6395.png
subject-04,1,561,0.494910955429077,bottle,bicycle,120,0561_ps_s04_120_bicycle_10_n02835271_9842.png
subject-04,1,562,0.653263092041016,cat,cat,0,0562_ps_s04_0_cat_10_n02124075_9318.png
subject-04,1,563,0.857954025268555,keyboard,elephant,180,0563_ps_s04_180_elephant_10_n02504013_9144.png
subject-04,1,564,NaN,na,elephant,90,0564_ps_s04_90_elephant_10_n02504013_3224.png
subject-04,1,565,0.982460021972656,clock,keyboard,60,0565_ps_s04_60_keyboard_10_n03085013_5172.png
subject-04,1,566,1.16506910324097,bottle,oven,30,0566_ps_s04_30_oven_10_n04111531_81.png
subject-04,1,567,1.47726702690125,oven,clock,0,0567_ps_s04_0_clock_10_n02708093_4878.png
subject-04,1,568,NaN,na,oven,150,0568_ps_s04_150_oven_10_n04111531_8750.png
subject-04,1,569,1.38594889640808,clock,airplane,90,0569_ps_s04_90_airplane_10_n02690373_6676.png
subject-04,1,570,0.838433980941772,bear,bear,180,0570_ps_s04_180_bear_10_n02133161_12878.png
subject-04,1,571,0.72856616973877,oven,oven,30,0571_ps_s04_30_oven_10_n04111531_10622.png
subject-04,1,572,NaN,na,truck,90,0572_ps_s04_90_truck_10_n03417042_23815.png
subject-04,1,573,NaN,na,oven,90,0573_ps_s04_90_oven_10_n04111531_2752.png
subject-04,1,574,1.18238687515259,car,keyboard,120,0574_ps_s04_120_keyboard_10_n03085013_23190.png
subject-04,1,575,0.818389177322388,airplane,boat,120,0575_ps_s04_120_boat_10_n02951358_29442.png
subject-04,1,576,0.546658039093018,oven,knife,90,0576_ps_s04_90_knife_10_n03041632_10999.png
subject-04,1,577,0.659224987030029,bicycle,bird,60,0577_ps_s04_60_bird_10_n01829413_3815.png
subject-04,1,578,0.725534915924072,chair,chair,60,0578_ps_s04_60_chair_10_n04099969_24378.png
subject-04,1,579,0.56169319152832,bear,chair,180,0579_ps_s04_180_chair_10_n04099969_44784.png
subject-04,1,580,NaN,na,bird,150,0580_ps_s04_150_bird_10_n01530575_1534.png
subject-04,1,581,NaN,na,keyboard,180,0581_ps_s04_180_keyboard_10_n04505470_4843.png
subject-04,1,582,0.743956089019775,oven,chair,60,0582_ps_s04_60_chair_10_n04429376_29424.png
subject-04,1,583,0.542608976364136,bear,elephant,30,0583_ps_s04_30_elephant_10_n02504013_13223.png
subject-04,1,584,0.898943185806274,oven,elephant,180,0584_ps_s04_180_elephant_10_n02504458_1223.png
subject-04,1,585,0.54332709312439,oven,keyboard,150,0585_ps_s04_150_keyboard_10_n03085013_20303.png
subject-04,1,586,0.417769193649292,bird,bear,180,0586_ps_s04_180_bear_10_n02133161_7032.png
subject-04,1,587,0.554181098937988,boat,bottle,0,0587_ps_s04_0_bottle_10_n03983396_70.png
subject-04,1,588,0.895976066589355,bear,bear,0,0588_ps_s04_0_bear_10_n02134084_2958.png
subject-04,1,589,1.02449512481689,keyboard,car,150,0589_ps_s04_150_car_10_n03100240_15009.png
subject-04,1,590,NaN,na,car,90,0590_ps_s04_90_car_10_n04285008_8872.png
subject-04,1,591,1.24108099937439,airplane,boat,150,0591_ps_s04_150_boat_10_n04273569_28227.png
subject-04,1,592,1.21551990509033,boat,bicycle,60,0592_ps_s04_60_bicycle_10_n03792782_5758.png
subject-04,1,593,1.41994500160217,bicycle,bird,120,0593_ps_s04_120_bird_10_n01531178_3364.png
subject-04,1,594,NaN,na,knife,0,0594_ps_s04_0_knife_10_n03041632_4443.png
subject-04,1,595,1.32063007354736,oven,airplane,120,0595_ps_s04_120_airplane_10_n02690373_4845.png
subject-04,1,596,1.06480097770691,cat,bird,180,0596_ps_s04_180_bird_10_n02018207_22020.png
subject-04,1,597,NaN,na,chair,30,0597_ps_s04_30_chair_10_n02791124_3011.png
subject-04,1,598,1.10519099235535,clock,bottle,60,0598_ps_s04_60_bottle_10_n02823428_8217.png
subject-04,1,599,0.947858095169067,boat,bear,60,0599_ps_s04_60_bear_10_n02134084_6669.png
subject-04,1,600,NaN,na,knife,120,0600_ps_s04_120_knife_10_n03041632_18236.png
subject-04,1,601,NaN,na,truck,150,0601_ps_s04_150_truck_10_n03417042_5905.png
subject-04,1,602,0.408198118209839,boat,dog,30,0602_ps_s04_30_dog_10_n02106550_3532.png
subject-04,1,603,0.620677947998047,boat,elephant,180,0603_ps_s04_180_elephant_10_n02504013_10708.png
subject-04,1,604,0.641096830368042,clock,keyboard,180,0604_ps_s04_180_keyboard_10_n03085013_20416.png
subject-04,1,605,0.623319149017334,oven,oven,30,0605_ps_s04_30_oven_10_n04111531_6958.png
subject-04,1,606,0.641302108764648,chair,dog,60,0606_ps_s04_60_dog_10_n02099712_1937.png
subject-04,1,607,0.631994009017944,dog,chair,180,0607_ps_s04_180_chair_10_n04099969_26499.png
subject-04,1,608,0.895955085754395,bicycle,keyboard,0,0608_ps_s04_0_keyboard_10_n03085013_6610.png
subject-04,1,609,NaN,na,bird,90,0609_ps_s04_90_bird_10_n01798484_13890.png
subject-04,1,610,1.02707505226135,bear,truck,90,0610_ps_s04_90_truck_10_n04467665_18665.png
subject-04,1,611,0.579499959945679,cat,cat,0,0611_ps_s04_0_cat_10_n02123597_203.png
subject-04,1,612,0.530074834823608,keyboard,keyboard,0,0612_ps_s04_0_keyboard_10_n04505470_4854.png
subject-04,1,613,0.571861028671265,clock,truck,120,0613_ps_s04_120_truck_10_n03796401_10878.png
subject-04,1,614,0.8385009765625,bear,bear,0,0614_ps_s04_0_bear_10_n02133161_10649.png
subject-04,1,615,0.566825151443481,bicycle,bird,150,0615_ps_s04_150_bird_10_n02002724_5495.png
subject-04,1,616,0.979314804077148,car,truck,180,0616_ps_s04_180_truck_10_n04467665_1408.png
subject-04,1,617,0.607679128646851,airplane,truck,150,0617_ps_s04_150_truck_10_n03796401_14028.png
subject-04,1,618,0.679617881774902,clock,clock,120,0618_ps_s04_120_clock_10_n03196217_998.png
subject-04,1,619,0.608064889907837,bird,clock,180,0619_ps_s04_180_clock_10_n02708093_3459.png
subject-04,1,620,0.552634000778198,oven,elephant,120,0620_ps_s04_120_elephant_10_n02504458_8050.png
subject-04,1,621,0.519134044647217,keyboard,oven,90,0621_ps_s04_90_oven_10_n04111531_2331.png
subject-04,1,622,1.28365206718445,elephant,dog,120,0622_ps_s04_120_dog_10_n02090379_10512.png
subject-04,1,623,0.749388933181763,bear,bird,90,0623_ps_s04_90_bird_10_n01558993_13507.png
subject-04,1,624,1.09137010574341,cat,boat,90,0624_ps_s04_90_boat_10_n04612504_30617.png
subject-04,1,625,0.935647964477539,bicycle,dog,30,0625_ps_s04_30_dog_10_n02110185_7654.png
subject-04,1,626,0.818551063537598,car,knife,60,0626_ps_s04_60_knife_10_n03041632_5916.png
subject-04,1,627,1.50007104873657,bird,bird,0,0627_ps_s04_0_bird_10_n01614925_33234.png
subject-04,1,628,0.964910984039307,chair,bird,150,0628_ps_s04_150_bird_10_n01530575_9101.png
subject-04,1,629,1.16120505332947,bicycle,chair,90,0629_ps_s04_90_chair_10_n02791124_15583.png
subject-04,1,630,0.596993923187256,bicycle,bicycle,30,0630_ps_s04_30_bicycle_10_n02835271_7438.png
subject-04,1,631,0.771415948867798,airplane,truck,90,0631_ps_s04_90_truck_10_n04467665_6268.png
subject-04,1,632,0.537479162216187,oven,boat,120,0632_ps_s04_120_boat_10_n03662601_7626.png
subject-04,1,633,1.03182005882263,truck,truck,0,0633_ps_s04_0_truck_10_n03417042_1332.png
subject-04,1,634,0.805738925933838,truck,oven,30,0634_ps_s04_30_oven_10_n04111531_21068.png
subject-04,1,635,0.734755039215088,car,truck,180,0635_ps_s04_180_truck_10_n03417042_3633.png
subject-04,1,636,0.586896181106567,cat,oven,150,0636_ps_s04_150_oven_10_n04111531_11749.png
subject-04,1,637,0.759649991989136,bear,bear,30,0637_ps_s04_30_bear_10_n02134084_3898.png
subject-04,1,638,0.758015155792236,bicycle,bird,30,0638_ps_s04_30_bird_10_n01843383_7165.png
subject-04,1,639,1.10043978691101,bottle,cat,60,0639_ps_s04_60_cat_10_n02123159_1102.png
subject-04,1,640,1.22090196609497,chair,truck,90,0640_ps_s04_90_truck_10_n03796401_6142.png
subject-04,1,641,0.699538946151733,clock,bottle,150,0641_ps_s04_150_bottle_10_n04591713_4344.png
subject-04,1,642,0.704023838043213,bear,bear,30,0642_ps_s04_30_bear_10_n02133161_1693.png
subject-04,1,643,0.684355020523071,bird,dog,150,0643_ps_s04_150_dog_10_n02096294_2289.png
subject-04,1,644,0.628398180007935,truck,truck,60,0644_ps_s04_60_truck_10_n03796401_2025.png
subject-04,1,645,0.670644044876099,car,elephant,120,0645_ps_s04_120_elephant_10_n02504013_3540.png
subject-04,1,646,0.560603857040405,oven,airplane,150,0646_ps_s04_150_airplane_10_n02690373_2070.png
subject-04,1,647,0.732794046401978,bottle,bottle,60,0647_ps_s04_60_bottle_10_n04557648_4148.png
subject-04,1,648,1.23742008209229,bottle,bottle,60,0648_ps_s04_60_bottle_10_n04591713_3332.png
subject-04,1,649,0.689506053924561,chair,chair,30,0649_ps_s04_30_chair_10_n02791124_2491.png
subject-04,1,650,0.724159955978394,bottle,bottle,30,0650_ps_s04_30_bottle_10_n04579145_3414.png
subject-04,1,651,0.63883900642395,bear,bear,0,0651_ps_s04_0_bear_10_n02134418_3230.png
subject-04,1,652,0.71877908706665,knife,knife,90,0652_ps_s04_90_knife_10_n03041632_1556.png
subject-04,1,653,0.731117963790894,chair,chair,30,0653_ps_s04_30_chair_10_n04099969_38476.png
subject-04,1,654,0.613611936569214,keyboard,bear,150,0654_ps_s04_150_bear_10_n02132136_4662.png
subject-04,1,655,0.964401006698608,dog,dog,0,0655_ps_s04_0_dog_10_n02099267_5621.png
subject-04,1,656,0.653761863708496,bottle,cat,150,0656_ps_s04_150_cat_10_n02123045_1934.png
subject-04,1,657,0.604305982589722,bear,truck,120,0657_ps_s04_120_truck_10_n04467665_50806.png
subject-04,1,658,0.502158880233765,bicycle,elephant,90,0658_ps_s04_90_elephant_10_n02504458_800.png
subject-04,1,659,0.718755960464478,oven,bottle,150,0659_ps_s04_150_bottle_10_n03983396_10418.png
subject-04,1,660,0.587316036224365,cat,oven,120,0660_ps_s04_120_oven_10_n04111531_12589.png
subject-04,1,661,0.561280965805054,boat,keyboard,150,0661_ps_s04_150_keyboard_10_n03085013_24794.png
subject-04,1,662,0.743788957595825,chair,oven,90,0662_ps_s04_90_oven_10_n04111531_6756.png
subject-04,1,663,0.75655198097229,cat,cat,0,0663_ps_s04_0_cat_10_n02124075_5273.png
subject-04,1,664,0.507073163986206,oven,dog,150,0664_ps_s04_150_dog_10_n02107574_5096.png
subject-04,1,665,0.473451852798462,cat,cat,0,0665_ps_s04_0_cat_10_n02124075_14965.png
subject-04,1,666,0.685777187347412,cat,cat,120,0666_ps_s04_120_cat_10_n02123597_5725.png
subject-04,1,667,0.459641933441162,cat,cat,0,0667_ps_s04_0_cat_10_n02123159_6106.png
subject-04,1,668,0.634698152542114,bird,oven,180,0668_ps_s04_180_oven_10_n04111531_2447.png
subject-04,1,669,0.746488094329834,bottle,bottle,120,0669_ps_s04_120_bottle_10_n04560804_8701.png
subject-04,1,670,0.588675022125244,knife,knife,30,0670_ps_s04_30_knife_10_n03041632_53874.png
subject-04,1,671,0.731023073196411,oven,bottle,120,0671_ps_s04_120_bottle_10_n04557648_4732.png
subject-04,1,672,0.529366016387939,cat,cat,30,0672_ps_s04_30_cat_10_n02124075_8701.png
subject-04,1,673,0.571676969528198,cat,cat,30,0673_ps_s04_30_cat_10_n02123597_9165.png
subject-04,1,674,0.60039210319519,bear,bear,90,0674_ps_s04_90_bear_10_n02133161_706.png
subject-04,1,675,0.674887895584106,bear,bear,90,0675_ps_s04_90_bear_10_n02133161_1159.png
subject-04,1,676,0.847229957580566,car,airplane,180,0676_ps_s04_180_airplane_10_n02690373_10518.png
subject-04,1,677,0.61569619178772,boat,airplane,150,0677_ps_s04_150_airplane_10_n02690373_8233.png
subject-04,1,678,0.70406699180603,chair,oven,60,0678_ps_s04_60_oven_10_n04111531_7134.png
subject-04,1,679,0.74067211151123,chair,elephant,0,0679_ps_s04_0_elephant_10_n02504013_6048.png
subject-04,1,680,0.652431011199951,elephant,elephant,0,0680_ps_s04_0_elephant_10_n02504458_395.png
subject-04,1,681,0.486622095108032,oven,airplane,120,0681_ps_s04_120_airplane_10_n02690373_6549.png
subject-04,1,682,0.682777166366577,boat,chair,0,0682_ps_s04_0_chair_10_n03376595_3130.png
subject-04,1,683,0.573184967041016,car,car,0,0683_ps_s04_0_car_10_n02814533_43509.png
subject-04,1,684,0.707592010498047,cat,cat,60,0684_ps_s04_60_cat_10_n02123597_2209.png
subject-04,1,685,0.643544912338257,clock,clock,60,0685_ps_s04_60_clock_10_n04548280_4995.png
subject-04,1,686,0.726124048233032,elephant,elephant,60,0686_ps_s04_60_elephant_10_n02504458_7994.png
subject-04,1,687,0.654479026794434,bear,car,120,0687_ps_s04_120_car_10_n02814533_41329.png
subject-04,1,688,0.718808174133301,cat,cat,90,0688_ps_s04_90_cat_10_n02123159_2865.png
subject-04,1,689,0.638768911361694,car,car,90,0689_ps_s04_90_car_10_n03100240_2043.png
subject-04,1,690,0.683129072189331,clock,bicycle,150,0690_ps_s04_150_bicycle_10_n03792782_16819.png
subject-04,1,691,1.13992309570312,dog,bird,30,0691_ps_s04_30_bird_10_n01797886_17595.png
subject-04,1,692,0.745983123779297,elephant,elephant,0,0692_ps_s04_0_elephant_10_n02504013_8572.png
subject-04,1,693,0.788338899612427,cat,cat,60,0693_ps_s04_60_cat_10_n02125311_2033.png
subject-04,1,694,0.641028165817261,bear,bear,30,0694_ps_s04_30_bear_10_n02134418_3383.png
subject-04,1,695,0.721435070037842,elephant,elephant,90,0695_ps_s04_90_elephant_10_n02504458_11785.png
subject-04,1,696,0.85016393661499,bear,cat,60,0696_ps_s04_60_cat_10_n02123045_3854.png
subject-04,1,697,1.03848791122437,cat,bear,90,0697_ps_s04_90_bear_10_n02132136_8504.png
subject-04,1,698,0.949973821640015,bear,bird,90,0698_ps_s04_90_bird_10_n01829413_6691.png
subject-04,1,699,0.848489999771118,bird,car,150,0699_ps_s04_150_car_10_n03100240_11427.png
subject-04,1,700,0.782322883605957,car,car,90,0700_ps_s04_90_car_10_n02814533_486.png
subject-04,1,701,0.664641857147217,clock,cat,180,0701_ps_s04_180_cat_10_n02123045_15815.png
subject-04,1,702,0.907315969467163,bear,chair,120,0702_ps_s04_120_chair_10_n04099969_20260.png
subject-04,1,703,0.65151309967041,airplane,airplane,90,0703_ps_s04_90_airplane_10_n02690373_7401.png
subject-04,1,704,0.617796182632446,boat,knife,180,0704_ps_s04_180_knife_10_n03041632_23678.png
subject-04,1,705,0.668138027191162,elephant,elephant,0,0705_ps_s04_0_elephant_10_n02504458_242.png
subject-04,1,706,0.72629189491272,oven,dog,150,0706_ps_s04_150_dog_10_n02096585_3793.png
subject-04,1,707,0.846674919128418,car,car,120,0707_ps_s04_120_car_10_n02814533_19376.png
subject-04,1,708,0.789198160171509,truck,truck,120,0708_ps_s04_120_truck_10_n03796401_1149.png
subject-04,1,709,0.587960004806519,cat,knife,180,0709_ps_s04_180_knife_10_n03041632_5727.png
subject-04,1,710,0.68367600440979,knife,knife,0,0710_ps_s04_0_knife_10_n03041632_29684.png
subject-04,1,711,0.788155794143677,bottle,keyboard,60,0711_ps_s04_60_keyboard_10_n04505470_4669.png
subject-04,1,712,0.470653057098389,bear,chair,150,0712_ps_s04_150_chair_10_n03376595_2809.png
subject-04,1,713,0.493380069732666,clock,clock,90,0713_ps_s04_90_clock_10_n02708093_564.png
subject-04,1,714,0.413351058959961,boat,keyboard,180,0714_ps_s04_180_keyboard_10_n04505470_4520.png
subject-04,1,715,0.609827041625977,bicycle,bicycle,90,0715_ps_s04_90_bicycle_10_n03792782_6546.png
subject-04,1,716,0.692487001419067,truck,truck,60,0716_ps_s04_60_truck_10_n04467665_14142.png
subject-04,1,717,0.710839986801147,boat,boat,0,0717_ps_s04_0_boat_10_n03344393_5837.png
subject-04,1,718,0.633350849151611,airplane,oven,180,0718_ps_s04_180_oven_10_n04111531_4826.png
subject-04,1,719,0.608071088790894,clock,bear,180,0719_ps_s04_180_bear_10_n02134418_5464.png
subject-04,1,720,0.696503162384033,car,car,90,0720_ps_s04_90_car_10_n02814533_982.png
subject-04,1,721,0.562976121902466,cat,boat,120,0721_ps_s04_120_boat_10_n02951358_16166.png
subject-04,1,722,1.29747200012207,keyboard,keyboard,30,0722_ps_s04_30_keyboard_10_n04505470_5122.png
subject-04,1,723,0.98771595954895,oven,dog,180,0723_ps_s04_180_dog_10_n02106382_15397.png
subject-04,1,724,0.631615877151489,bicycle,bicycle,120,0724_ps_s04_120_bicycle_10_n03792782_29509.png
subject-04,1,725,1.45834398269653,clock,clock,0,0725_ps_s04_0_clock_10_n03196217_10947.png
subject-04,1,726,0.632582902908325,keyboard,keyboard,90,0726_ps_s04_90_keyboard_10_n04505470_8204.png
subject-04,1,727,0.677250146865845,clock,clock,30,0727_ps_s04_30_clock_10_n03196217_4834.png
subject-04,1,728,0.581364870071411,airplane,airplane,0,0728_ps_s04_0_airplane_10_n02690373_734.png
subject-04,1,729,0.847491979598999,chair,chair,90,0729_ps_s04_90_chair_10_n02791124_560.png
subject-04,1,730,0.697618007659912,keyboard,keyboard,0,0730_ps_s04_0_keyboard_10_n03085013_3656.png
subject-04,1,731,0.747880935668945,boat,bird,150,0731_ps_s04_150_bird_10_n01860187_137.png
subject-04,1,732,0.730317831039429,knife,knife,120,0732_ps_s04_120_knife_10_n03041632_55083.png
subject-04,1,733,0.796324014663696,chair,chair,60,0733_ps_s04_60_chair_10_n04099969_1786.png
subject-04,1,734,0.670515060424805,car,car,60,0734_ps_s04_60_car_10_n03100240_1526.png
subject-04,1,735,0.691431045532227,truck,bear,150,0735_ps_s04_150_bear_10_n02134084_5228.png
subject-04,1,736,0.619441032409668,oven,chair,90,0736_ps_s04_90_chair_10_n02791124_3941.png
subject-04,1,737,0.578068017959595,keyboard,clock,150,0737_ps_s04_150_clock_10_n04548280_1222.png
subject-04,1,738,0.614464998245239,clock,clock,60,0738_ps_s04_60_clock_10_n03196217_2507.png
subject-04,1,739,0.597306966781616,oven,elephant,150,0739_ps_s04_150_elephant_10_n02504013_4436.png
subject-04,1,740,0.523414850234985,keyboard,keyboard,90,0740_ps_s04_90_keyboard_10_n04505470_7161.png
subject-04,1,741,0.551892995834351,chair,chair,60,0741_ps_s04_60_chair_10_n02791124_5252.png
subject-04,1,742,0.56651496887207,bicycle,boat,120,0742_ps_s04_120_boat_10_n03662601_10413.png
subject-04,1,743,0.684885025024414,bird,bicycle,150,0743_ps_s04_150_bicycle_10_n02835271_8925.png
subject-04,1,744,0.595922946929932,bicycle,bicycle,0,0744_ps_s04_0_bicycle_10_n02835271_18173.png
subject-04,1,745,0.548408985137939,chair,chair,90,0745_ps_s04_90_chair_10_n04099969_3909.png
subject-04,1,746,0.913196086883545,bear,bear,120,0746_ps_s04_120_bear_10_n02134418_5271.png
subject-04,1,747,0.765238046646118,bear,bear,30,0747_ps_s04_30_bear_10_n02133161_15954.png
subject-04,1,748,0.999505043029785,dog,bottle,60,0748_ps_s04_60_bottle_10_n04557648_3615.png
subject-04,1,749,0.652092933654785,car,car,30,0749_ps_s04_30_car_10_n04285008_13212.png
subject-04,1,750,0.648387908935547,elephant,elephant,90,0750_ps_s04_90_elephant_10_n02504013_1846.png
subject-04,1,751,0.946881055831909,bear,truck,180,0751_ps_s04_180_truck_10_n03796401_6631.png
subject-04,1,752,0.759521961212158,cat,dog,180,0752_ps_s04_180_dog_10_n02100236_3895.png
subject-04,1,753,0.725920915603638,bird,bird,0,0753_ps_s04_0_bird_10_n02017213_6662.png
subject-04,1,754,0.670383214950562,boat,dog,150,0754_ps_s04_150_dog_10_n02089867_5600.png
subject-04,1,755,0.6787269115448,oven,cat,120,0755_ps_s04_120_cat_10_n02123394_738.png
subject-04,1,756,0.944601058959961,bicycle,bird,120,0756_ps_s04_120_bird_10_n02051845_10074.png
subject-04,1,757,0.702969789505005,oven,bear,150,0757_ps_s04_150_bear_10_n02134418_1063.png
subject-04,1,758,0.471487045288086,keyboard,keyboard,60,0758_ps_s04_60_keyboard_10_n04505470_524.png
subject-04,1,759,0.613416194915771,clock,clock,120,0759_ps_s04_120_clock_10_n04548280_8971.png
subject-04,1,760,0.604213953018188,car,truck,60,0760_ps_s04_60_truck_10_n03796401_20384.png
subject-04,1,761,0.876325845718384,boat,truck,0,0761_ps_s04_0_truck_10_n04467665_21839.png
subject-04,1,762,0.875396013259888,bird,bird,90,0762_ps_s04_90_bird_10_n01843065_6577.png
subject-04,1,763,1.16339302062988,chair,dog,180,0763_ps_s04_180_dog_10_n02096585_1311.png
subject-04,1,764,0.769507884979248,cat,dog,120,0764_ps_s04_120_dog_10_n02101006_5650.png
subject-04,1,765,0.865931034088135,dog,dog,0,0765_ps_s04_0_dog_10_n02111277_11123.png
subject-04,1,766,0.87213397026062,bottle,bird,150,0766_ps_s04_150_bird_10_n01855672_5038.png
subject-04,1,767,0.806893825531006,bear,boat,120,0767_ps_s04_120_boat_10_n02951358_33701.png
subject-04,1,768,0.697535991668701,truck,truck,30,0768_ps_s04_30_truck_10_n03417042_7408.png
subject-04,1,769,0.801993846893311,dog,dog,0,0769_ps_s04_0_dog_10_n02099601_2401.png
subject-04,1,770,1.09221291542053,bicycle,bicycle,30,0770_ps_s04_30_bicycle_10_n03792782_67167.png
subject-04,1,771,0.972538948059082,cat,cat,90,0771_ps_s04_90_cat_10_n02123597_7150.png
subject-04,1,772,0.986800909042358,oven,boat,150,0772_ps_s04_150_boat_10_n02951358_3773.png
subject-04,1,773,1.04287099838257,chair,dog,30,0773_ps_s04_30_dog_10_n02088238_14231.png
subject-04,1,774,0.725149154663086,car,car,60,0774_ps_s04_60_car_10_n03100240_2683.png
subject-04,1,775,0.948912858963013,bicycle,truck,150,0775_ps_s04_150_truck_10_n04467665_31059.png
subject-04,1,776,1.00771903991699,keyboard,keyboard,180,0776_ps_s04_180_keyboard_10_n03085013_6927.png
subject-04,1,777,0.568028926849365,bottle,knife,120,0777_ps_s04_120_knife_10_n03041632_36215.png
subject-04,1,778,0.670113086700439,bicycle,bicycle,60,0778_ps_s04_60_bicycle_10_n02835271_1932.png
subject-04,1,779,1.29823803901672,bear,bear,90,0779_ps_s04_90_bear_10_n02134418_448.png
subject-04,1,780,0.972620010375977,car,bottle,150,0780_ps_s04_150_bottle_10_n03937543_9394.png
subject-04,1,781,1.10708999633789,bottle,bicycle,60,0781_ps_s04_60_bicycle_10_n03792782_10298.png
subject-04,1,782,1.13552808761597,airplane,airplane,0,0782_ps_s04_0_airplane_10_n02690373_3032.png
subject-04,1,783,1.50024795532227,keyboard,chair,60,0783_ps_s04_60_chair_10_n02791124_690.png
subject-04,1,784,1.10668992996216,bear,boat,120,0784_ps_s04_120_boat_10_n04612504_3170.png
subject-04,1,785,1.22099995613098,chair,chair,90,0785_ps_s04_90_chair_10_n04429376_2301.png
subject-04,1,786,0.865566968917847,car,keyboard,180,0786_ps_s04_180_keyboard_10_n03085013_21948.png
subject-04,1,787,0.878009080886841,bird,knife,30,0787_ps_s04_30_knife_10_n03041632_31037.png
subject-04,1,788,0.890245914459229,airplane,airplane,60,0788_ps_s04_60_airplane_10_n02690373_1426.png
subject-04,1,789,1.09475088119507,bottle,bottle,0,0789_ps_s04_0_bottle_10_n04560804_6385.png
subject-04,1,790,1.09897112846375,keyboard,chair,0,0790_ps_s04_0_chair_10_n02791124_5238.png
subject-04,1,791,1.17378211021423,keyboard,keyboard,90,0791_ps_s04_90_keyboard_10_n04505470_177.png
subject-04,1,792,1.03214502334595,oven,knife,60,0792_ps_s04_60_knife_10_n03041632_2438.png
subject-04,1,793,0.922454833984375,cat,airplane,120,0793_ps_s04_120_airplane_10_n02690373_5176.png
subject-04,1,794,0.91929292678833,bear,knife,60,0794_ps_s04_60_knife_10_n03041632_19571.png
subject-04,1,795,0.701664924621582,bicycle,bicycle,60,0795_ps_s04_60_bicycle_10_n03792782_8847.png
subject-04,1,796,0.692255020141602,bicycle,bicycle,0,0796_ps_s04_0_bicycle_10_n03792782_8550.png
subject-04,1,797,0.742542028427124,airplane,airplane,120,0797_ps_s04_120_airplane_10_n02690373_6342.png
subject-04,1,798,0.893172979354858,airplane,cat,150,0798_ps_s04_150_cat_10_n02125311_620.png
subject-04,1,799,1.01353001594543,boat,elephant,120,0799_ps_s04_120_elephant_10_n02504013_10887.png
subject-04,1,800,1.11005902290344,cat,dog,90,0800_ps_s04_90_dog_10_n02112018_691.png
subject-04,1,801,1.32420706748962,boat,truck,0,0801_ps_s04_0_truck_10_n03417042_5877.png
subject-04,1,802,0.930906057357788,bicycle,cat,60,0802_ps_s04_60_cat_10_n02123394_185.png
subject-04,1,803,0.68879508972168,bear,bear,60,0803_ps_s04_60_bear_10_n02134418_4826.png
subject-04,1,804,0.603440046310425,bear,cat,150,0804_ps_s04_150_cat_10_n02123597_7485.png
subject-04,1,805,0.56983208656311,cat,bird,180,0805_ps_s04_180_bird_10_n02006656_8656.png
subject-04,1,806,0.812489032745361,airplane,bicycle,120,0806_ps_s04_120_bicycle_10_n02835271_890.png
subject-04,1,807,0.456472873687744,oven,cat,120,0807_ps_s04_120_cat_10_n02123394_916.png
subject-04,1,808,0.528588056564331,boat,dog,180,0808_ps_s04_180_dog_10_n02106550_2311.png
subject-04,1,809,0.434972047805786,boat,bottle,150,0809_ps_s04_150_bottle_10_n04560804_23356.png
subject-04,1,810,0.739476919174194,clock,cat,120,0810_ps_s04_120_cat_10_n02124075_13678.png
subject-04,1,811,0.681792020797729,oven,oven,60,0811_ps_s04_60_oven_10_n04111531_15667.png
subject-04,1,812,0.694595098495483,cat,airplane,150,0812_ps_s04_150_airplane_10_n02690373_845.png
subject-04,1,813,0.576700925827026,chair,chair,60,0813_ps_s04_60_chair_10_n03376595_7516.png
subject-04,1,814,0.705182790756226,bottle,bear,150,0814_ps_s04_150_bear_10_n02133161_9013.png
subject-04,1,815,0.763339996337891,cat,bear,60,0815_ps_s04_60_bear_10_n02133161_1133.png
subject-04,1,816,0.567790031433105,bicycle,bicycle,120,0816_ps_s04_120_bicycle_10_n03792782_2525.png
subject-04,1,817,0.663892030715942,clock,chair,150,0817_ps_s04_150_chair_10_n03376595_13578.png
subject-04,1,818,0.692162036895752,boat,bear,150,0818_ps_s04_150_bear_10_n02132136_1738.png
subject-04,1,819,0.726361036300659,oven,dog,150,0819_ps_s04_150_dog_10_n02088364_254.png
subject-04,1,820,0.716459035873413,cat,cat,180,0820_ps_s04_180_cat_10_n02125311_5711.png
subject-04,1,821,0.843172073364258,chair,dog,180,0821_ps_s04_180_dog_10_n02110806_12501.png
subject-04,1,822,1.14731407165527,bird,oven,120,0822_ps_s04_120_oven_10_n04111531_14329.png
subject-04,1,823,1.04538321495056,bear,truck,120,0823_ps_s04_120_truck_10_n03417042_28743.png
subject-04,1,824,0.819538116455078,dog,dog,90,0824_ps_s04_90_dog_10_n02093428_11201.png
subject-04,1,825,0.799556970596313,bear,dog,90,0825_ps_s04_90_dog_10_n02102318_7008.png
subject-04,1,826,0.9326491355896,oven,oven,0,0826_ps_s04_0_oven_10_n04111531_2201.png
subject-04,1,827,0.936967134475708,clock,airplane,150,0827_ps_s04_150_airplane_10_n02690373_3272.png
subject-04,1,828,0.911643028259277,bicycle,bicycle,0,0828_ps_s04_0_bicycle_10_n03792782_42586.png
subject-04,1,829,0.924168109893799,oven,dog,120,0829_ps_s04_120_dog_10_n02113023_287.png
subject-04,1,830,0.692443132400513,clock,clock,0,0830_ps_s04_0_clock_10_n02708093_391.png
subject-04,1,831,0.997076034545898,cat,boat,120,0831_ps_s04_120_boat_10_n02951358_26334.png
subject-04,1,832,0.785397052764893,boat,knife,30,0832_ps_s04_30_knife_10_n03041632_2390.png
subject-04,1,833,1.05984711647034,dog,dog,120,0833_ps_s04_120_dog_10_n02113624_7798.png
subject-04,1,834,0.850023031234741,boat,boat,60,0834_ps_s04_60_boat_10_n03344393_8655.png
subject-04,1,835,0.654294013977051,keyboard,keyboard,120,0835_ps_s04_120_keyboard_10_n03085013_24336.png
subject-04,1,836,0.582919836044312,oven,oven,0,0836_ps_s04_0_oven_10_n04111531_11265.png
subject-04,1,837,0.673412084579468,cat,car,150,0837_ps_s04_150_car_10_n04285008_7546.png
subject-04,1,838,0.935654163360596,bicycle,bicycle,120,0838_ps_s04_120_bicycle_10_n03792782_11945.png
subject-04,1,839,0.678461074829102,boat,clock,150,0839_ps_s04_150_clock_10_n03196217_3922.png
subject-04,1,840,0.714608907699585,cat,cat,90,0840_ps_s04_90_cat_10_n02125311_22713.png
subject-04,1,841,0.589308023452759,oven,bird,180,0841_ps_s04_180_bird_10_n01797886_12682.png
subject-04,1,842,0.809330940246582,car,dog,90,0842_ps_s04_90_dog_10_n02107574_3348.png
subject-04,1,843,0.659616947174072,bear,bird,180,0843_ps_s04_180_bird_10_n01560419_6817.png
subject-04,1,844,0.70366907119751,bottle,cat,120,0844_ps_s04_120_cat_10_n02125311_32035.png
subject-04,1,845,0.500138998031616,bicycle,bicycle,30,0845_ps_s04_30_bicycle_10_n03792782_3067.png
subject-04,1,846,0.628732919692993,clock,truck,180,0846_ps_s04_180_truck_10_n03417042_4106.png
subject-04,1,847,0.778979063034058,chair,chair,0,0847_ps_s04_0_chair_10_n04429376_8095.png
subject-04,1,848,0.721022129058838,oven,oven,60,0848_ps_s04_60_oven_10_n04111531_5093.png
subject-04,1,849,0.573325872421265,oven,airplane,180,0849_ps_s04_180_airplane_10_n02690373_20074.png
subject-04,1,850,1.03778195381165,chair,clock,30,0850_ps_s04_30_clock_10_n03196217_8072.png
subject-04,1,851,0.80614185333252,bear,oven,150,0851_ps_s04_150_oven_10_n04111531_4227.png
subject-04,1,852,0.547811031341553,boat,boat,150,0852_ps_s04_150_boat_10_n04273569_8985.png
subject-04,1,853,0.635906934738159,bottle,bottle,60,0853_ps_s04_60_bottle_10_n03983396_14939.png
subject-04,1,854,1.00239300727844,airplane,airplane,30,0854_ps_s04_30_airplane_10_n02690373_18479.png
subject-04,1,855,1.05248403549194,elephant,oven,90,0855_ps_s04_90_oven_10_n04111531_12308.png
subject-04,1,856,0.702431917190552,bear,chair,180,0856_ps_s04_180_chair_10_n02791124_6437.png
subject-04,1,857,0.830612897872925,car,boat,120,0857_ps_s04_120_boat_10_n04273569_14418.png
subject-04,1,858,0.681034088134766,bottle,bottle,60,0858_ps_s04_60_bottle_10_n03983396_5062.png
subject-04,1,859,0.891250848770142,bottle,bottle,0,0859_ps_s04_0_bottle_10_n04579145_4252.png
subject-04,1,860,0.943171977996826,bicycle,bicycle,120,0860_ps_s04_120_bicycle_10_n03792782_8062.png
subject-04,1,861,1.03983497619629,keyboard,bear,180,0861_ps_s04_180_bear_10_n02132136_18695.png
subject-04,1,862,0.836345911026001,car,elephant,120,0862_ps_s04_120_elephant_10_n02504013_2163.png
subject-04,1,863,0.726579189300537,chair,chair,0,0863_ps_s04_0_chair_10_n03376595_3268.png
subject-04,1,864,0.969431161880493,car,car,120,0864_ps_s04_120_car_10_n03100240_209.png
subject-04,1,865,0.843549966812134,bear,bear,90,0865_ps_s04_90_bear_10_n02132136_276.png
subject-04,1,866,0.818127870559692,elephant,knife,150,0866_ps_s04_150_knife_10_n03041632_8528.png
subject-04,1,867,1.49867582321167,oven,chair,90,0867_ps_s04_90_chair_10_n04429376_9525.png
subject-04,1,868,1.05714392662048,boat,oven,180,0868_ps_s04_180_oven_10_n04111531_15257.png
subject-04,1,869,0.801833152770996,bicycle,bicycle,30,0869_ps_s04_30_bicycle_10_n03792782_3613.png
subject-04,1,870,0.867882966995239,airplane,airplane,30,0870_ps_s04_30_airplane_10_n02690373_5238.png
subject-04,1,871,0.855883836746216,elephant,chair,120,0871_ps_s04_120_chair_10_n04429376_6422.png
subject-04,1,872,1.01436114311218,boat,boat,90,0872_ps_s04_90_boat_10_n03662601_8516.png
subject-04,1,873,0.972938060760498,cat,boat,150,0873_ps_s04_150_boat_10_n02951358_4736.png
subject-04,1,874,0.871454000473022,cat,dog,60,0874_ps_s04_60_dog_10_n02105162_5846.png
subject-04,1,875,0.943778991699219,cat,chair,120,0875_ps_s04_120_chair_10_n04099969_2235.png
subject-04,1,876,1.18029999732971,bear,bear,120,0876_ps_s04_120_bear_10_n02134084_3046.png
subject-04,1,877,1.20638799667358,oven,clock,150,0877_ps_s04_150_clock_10_n04548280_5295.png
subject-04,1,878,0.880721092224121,keyboard,truck,150,0878_ps_s04_150_truck_10_n04467665_72661.png
subject-04,1,879,0.895203113555908,clock,knife,180,0879_ps_s04_180_knife_10_n03041632_82197.png
subject-04,1,880,0.70744800567627,car,bottle,180,0880_ps_s04_180_bottle_10_n02823428_12201.png
subject-04,1,881,0.963871002197266,bear,knife,150,0881_ps_s04_150_knife_10_n03041632_17820.png
subject-04,1,882,1.03842902183533,clock,clock,120,0882_ps_s04_120_clock_10_n03196217_3194.png
subject-04,1,883,0.975045204162598,bicycle,cat,120,0883_ps_s04_120_cat_10_n02123394_32.png
subject-04,1,884,0.948911905288696,oven,bear,180,0884_ps_s04_180_bear_10_n02134418_3975.png
subject-04,1,885,0.837437868118286,bottle,oven,150,0885_ps_s04_150_oven_10_n04111531_9498.png
subject-04,1,886,1.01114583015442,chair,bottle,30,0886_ps_s04_30_bottle_10_n03937543_10092.png
subject-04,1,887,0.983331918716431,bicycle,knife,90,0887_ps_s04_90_knife_10_n03041632_27963.png
subject-04,1,888,0.803575038909912,boat,cat,150,0888_ps_s04_150_cat_10_n02123159_7959.png
subject-04,1,889,0.777901172637939,dog,elephant,90,0889_ps_s04_90_elephant_10_n02504013_6150.png
subject-04,1,890,0.813928842544556,knife,knife,60,0890_ps_s04_60_knife_10_n03041632_37513.png
subject-04,1,891,0.802220106124878,oven,oven,0,0891_ps_s04_0_oven_10_n04111531_20429.png
subject-04,1,892,0.69055700302124,keyboard,keyboard,60,0892_ps_s04_60_keyboard_10_n03085013_12323.png
subject-04,1,893,1.37892484664917,cat,bear,60,0893_ps_s04_60_bear_10_n02132136_8516.png
subject-04,1,894,0.869036912918091,dog,dog,0,0894_ps_s04_0_dog_10_n02102177_7737.png
subject-04,1,895,0.751140117645264,cat,oven,60,0895_ps_s04_60_oven_10_n04111531_3611.png
subject-04,1,896,0.723409175872803,bear,clock,180,0896_ps_s04_180_clock_10_n03196217_6672.png
subject-04,1,897,0.8436119556427,car,clock,180,0897_ps_s04_180_clock_10_n04548280_7813.png
subject-04,1,898,1.05569696426392,airplane,car,30,0898_ps_s04_30_car_10_n04285008_3552.png
subject-04,1,899,0.798124074935913,car,car,90,0899_ps_s04_90_car_10_n02814533_5155.png
subject-04,1,900,0.918206930160522,cat,boat,180,0900_ps_s04_180_boat_10_n03344393_7243.png
subject-04,1,901,1.3521740436554,bear,oven,0,0901_ps_s04_0_oven_10_n04111531_19075.png
subject-04,1,902,0.996370792388916,dog,dog,90,0902_ps_s04_90_dog_10_n02096585_1278.png
subject-04,1,903,0.746551036834717,cat,bear,30,0903_ps_s04_30_bear_10_n02134084_11252.png
subject-04,1,904,0.996646165847778,dog,dog,120,0904_ps_s04_120_dog_10_n02113799_6367.png
subject-04,1,905,0.863243103027344,cat,clock,150,0905_ps_s04_150_clock_10_n04548280_5412.png
subject-04,1,906,0.675845146179199,keyboard,keyboard,180,0906_ps_s04_180_keyboard_10_n03085013_4387.png
subject-04,1,907,0.842186212539673,dog,cat,90,0907_ps_s04_90_cat_10_n02123159_3539.png
subject-04,1,908,0.892760992050171,car,car,30,0908_ps_s04_30_car_10_n04285008_4134.png
subject-04,1,909,NaN,na,cat,180,0909_ps_s04_180_cat_10_n02123394_5568.png
subject-04,1,910,0.625679016113281,boat,oven,60,0910_ps_s04_60_oven_10_n04111531_19157.png
subject-04,1,911,0.762295007705688,bottle,bottle,120,0911_ps_s04_120_bottle_10_n03937543_5508.png
subject-04,1,912,0.981020927429199,car,car,120,0912_ps_s04_120_car_10_n02814533_5230.png
subject-04,1,913,0.632818222045898,cat,cat,0,0913_ps_s04_0_cat_10_n02123159_3795.png
subject-04,1,914,0.690982818603516,bottle,bottle,0,0914_ps_s04_0_bottle_10_n02823428_6907.png
subject-04,1,915,0.817551136016846,airplane,airplane,30,0915_ps_s04_30_airplane_10_n02690373_1611.png
subject-04,1,916,0.645542860031128,boat,boat,60,0916_ps_s04_60_boat_10_n03344393_4543.png
subject-04,1,917,0.941817998886108,elephant,elephant,60,0917_ps_s04_60_elephant_10_n02504013_4977.png
subject-04,1,918,1.16221380233765,boat,clock,60,0918_ps_s04_60_clock_10_n03196217_6477.png
subject-04,1,919,0.990442037582397,bicycle,knife,90,0919_ps_s04_90_knife_10_n03041632_24181.png
subject-04,1,920,0.878273963928223,elephant,elephant,90,0920_ps_s04_90_elephant_10_n02504458_2585.png
subject-04,1,921,0.896480798721313,elephant,airplane,60,0921_ps_s04_60_airplane_10_n02690373_7142.png
subject-04,1,922,0.886613845825195,keyboard,keyboard,60,0922_ps_s04_60_keyboard_10_n03085013_33447.png
subject-04,1,923,1.16664791107178,airplane,elephant,180,0923_ps_s04_180_elephant_10_n02504458_974.png
subject-04,1,924,NaN,na,bird,150,0924_ps_s04_150_bird_10_n01796340_5203.png
subject-04,1,925,1.38335180282593,boat,car,180,0925_ps_s04_180_car_10_n03100240_6656.png
subject-04,1,926,0.735857963562012,bicycle,bicycle,30,0926_ps_s04_30_bicycle_10_n02835271_7621.png
subject-04,1,927,0.515652894973755,boat,bicycle,150,0927_ps_s04_150_bicycle_10_n02835271_15717.png
subject-04,1,928,0.757519006729126,oven,oven,150,0928_ps_s04_150_oven_10_n04111531_2042.png
subject-04,1,929,1.29994916915894,bicycle,bicycle,30,0929_ps_s04_30_bicycle_10_n03792782_10243.png
subject-04,1,930,1.28228187561035,boat,bear,150,0930_ps_s04_150_bear_10_n02132136_1574.png
subject-04,1,931,1.30875420570374,boat,airplane,180,0931_ps_s04_180_airplane_10_n02690373_1933.png
subject-04,1,932,1.09889602661133,clock,elephant,150,0932_ps_s04_150_elephant_10_n02504013_1833.png
subject-04,1,933,NaN,na,cat,180,0933_ps_s04_180_cat_10_n02123045_6696.png
subject-04,1,934,0.561423063278198,boat,boat,90,0934_ps_s04_90_boat_10_n03662601_1561.png
subject-04,1,935,0.928053855895996,car,clock,30,0935_ps_s04_30_clock_10_n04548280_7087.png
subject-04,1,936,0.902513980865479,cat,dog,180,0936_ps_s04_180_dog_10_n02086079_17661.png
subject-04,1,937,0.890321969985962,bicycle,knife,120,0937_ps_s04_120_knife_10_n03041632_91967.png
subject-04,1,938,NaN,na,chair,30,0938_ps_s04_30_chair_10_n04099969_5746.png
subject-04,1,939,0.985446929931641,oven,oven,150,0939_ps_s04_150_oven_10_n04111531_13822.png
subject-04,1,940,0.589956998825073,bear,oven,90,0940_ps_s04_90_oven_10_n04111531_9490.png
subject-04,1,941,0.701953887939453,keyboard,car,120,0941_ps_s04_120_car_10_n03100240_9908.png
subject-04,1,942,0.774438142776489,car,chair,180,0942_ps_s04_180_chair_10_n02791124_16215.png
subject-04,1,943,0.610926151275635,chair,cat,150,0943_ps_s04_150_cat_10_n02123597_19872.png
subject-04,1,944,0.622339010238647,bicycle,truck,180,0944_ps_s04_180_truck_10_n04467665_7928.png
subject-04,1,945,0.686363220214844,clock,clock,0,0945_ps_s04_0_clock_10_n02708093_1701.png
subject-04,1,946,1.23690605163574,clock,cat,30,0946_ps_s04_30_cat_10_n02125311_5013.png
subject-04,1,947,1.34873008728027,oven,oven,60,0947_ps_s04_60_oven_10_n04111531_172.png
subject-04,1,948,1.12326097488403,bear,dog,90,0948_ps_s04_90_dog_10_n02097658_6553.png
subject-04,1,949,0.943481206893921,keyboard,chair,150,0949_ps_s04_150_chair_10_n04429376_10628.png
subject-04,1,950,0.788190841674805,bottle,bottle,90,0950_ps_s04_90_bottle_10_n04579145_3425.png
subject-04,1,951,0.797996044158936,bottle,keyboard,90,0951_ps_s04_90_keyboard_10_n03085013_23790.png
subject-04,1,952,0.734832048416138,bear,bottle,180,0952_ps_s04_180_bottle_10_n04560804_14395.png
subject-04,1,953,0.668657064437866,bottle,bottle,30,0953_ps_s04_30_bottle_10_n03937543_3935.png
subject-04,1,954,0.819058895111084,clock,chair,150,0954_ps_s04_150_chair_10_n04099969_13458.png
subject-04,1,955,1.06924390792847,chair,bottle,60,0955_ps_s04_60_bottle_10_n03937543_1840.png
subject-04,1,956,0.851403951644897,boat,bird,150,0956_ps_s04_150_bird_10_n02025239_547.png
subject-04,1,957,1.10972118377686,chair,clock,150,0957_ps_s04_150_clock_10_n03196217_2239.png
subject-04,1,958,0.683794021606445,bear,bear,180,0958_ps_s04_180_bear_10_n02133161_11034.png
subject-04,1,959,1.01803016662598,airplane,cat,60,0959_ps_s04_60_cat_10_n02123159_8076.png
subject-04,1,960,NaN,na,elephant,60,0960_ps_s04_60_elephant_10_n02504458_6107.png
subject-04,1,961,0.546154022216797,boat,truck,60,0961_ps_s04_60_truck_10_n04467665_23758.png
subject-04,1,962,1.41054105758667,truck,truck,90,0962_ps_s04_90_truck_10_n04467665_52003.png
subject-04,1,963,0.786684989929199,bottle,chair,90,0963_ps_s04_90_chair_10_n02791124_1437.png
subject-04,1,964,0.539474964141846,oven,oven,30,0964_ps_s04_30_oven_10_n04111531_2922.png
subject-04,1,965,0.443669080734253,oven,oven,0,0965_ps_s04_0_oven_10_n04111531_3202.png
subject-04,1,966,0.632081985473633,cat,cat,180,0966_ps_s04_180_cat_10_n02123597_10761.png
subject-04,1,967,1.03639602661133,bird,bird,60,0967_ps_s04_60_bird_10_n01622779_1011.png
subject-04,1,968,0.626365900039673,car,car,120,0968_ps_s04_120_car_10_n02814533_40291.png
subject-04,1,969,0.698429107666016,airplane,knife,150,0969_ps_s04_150_knife_10_n03041632_45775.png
subject-04,1,970,0.496757984161377,bicycle,bicycle,0,0970_ps_s04_0_bicycle_10_n03792782_24085.png
subject-04,1,971,0.714639902114868,airplane,airplane,90,0971_ps_s04_90_airplane_10_n02690373_1171.png
subject-04,1,972,0.596909999847412,oven,oven,0,0972_ps_s04_0_oven_10_n04111531_13906.png
subject-04,1,973,0.852915048599243,dog,bear,0,0973_ps_s04_0_bear_10_n02134084_12389.png
subject-04,1,974,0.597341060638428,bear,cat,120,0974_ps_s04_120_cat_10_n02124075_1957.png
subject-04,1,975,1.01567792892456,airplane,airplane,0,0975_ps_s04_0_airplane_10_n02690373_4298.png
subject-04,1,976,1.50034189224243,elephant,elephant,90,0976_ps_s04_90_elephant_10_n02504458_4582.png
subject-04,1,977,0.53374195098877,cat,elephant,150,0977_ps_s04_150_elephant_10_n02504013_6467.png
subject-04,1,978,0.652148962020874,airplane,airplane,30,0978_ps_s04_30_airplane_10_n02690373_17307.png
subject-04,1,979,0.558654069900513,airplane,airplane,30,0979_ps_s04_30_airplane_10_n02690373_5496.png
subject-04,1,980,0.731262922286987,keyboard,keyboard,0,0980_ps_s04_0_keyboard_10_n04505470_4791.png
subject-04,1,981,0.575477838516235,airplane,airplane,60,0981_ps_s04_60_airplane_10_n02690373_9642.png
subject-04,1,982,0.59588885307312,keyboard,elephant,180,0982_ps_s04_180_elephant_10_n02504458_1848.png
subject-04,1,983,0.530492067337036,boat,airplane,180,0983_ps_s04_180_airplane_10_n02690373_3216.png
subject-04,1,984,0.571923971176147,bicycle,bicycle,90,0984_ps_s04_90_bicycle_10_n03792782_12453.png
subject-04,1,985,0.500219106674194,oven,keyboard,120,0985_ps_s04_120_keyboard_10_n03085013_22870.png
subject-04,1,986,1.28075504302979,bear,clock,150,0986_ps_s04_150_clock_10_n02708093_3577.png
subject-04,1,987,0.503535032272339,boat,boat,0,0987_ps_s04_0_boat_10_n04612504_18954.png
subject-04,1,988,0.575736999511719,cat,dog,150,0988_ps_s04_150_dog_10_n02086240_6026.png
subject-04,1,989,0.588264942169189,car,truck,120,0989_ps_s04_120_truck_10_n03417042_1051.png
subject-04,1,990,0.516822099685669,bottle,bottle,30,0990_ps_s04_30_bottle_10_n03937543_2987.png
subject-04,1,991,1.15909218788147,bird,boat,90,0991_ps_s04_90_boat_10_n04273569_12426.png
subject-04,1,992,1.00141906738281,clock,clock,120,0992_ps_s04_120_clock_10_n04548280_4323.png
subject-04,1,993,0.737735033035278,car,car,180,0993_ps_s04_180_car_10_n03100240_6649.png
subject-04,1,994,0.658061027526855,bird,bird,90,0994_ps_s04_90_bird_10_n01558993_9062.png
subject-04,1,995,0.573840856552124,bear,cat,150,0995_ps_s04_150_cat_10_n02123045_16166.png
subject-04,1,996,0.57862401008606,clock,airplane,180,0996_ps_s04_180_airplane_10_n02690373_8746.png
subject-04,1,997,0.675005912780762,cat,cat,90,0997_ps_s04_90_cat_10_n02125311_19340.png
subject-04,1,998,0.557325124740601,boat,boat,180,0998_ps_s04_180_boat_10_n04612504_40266.png
subject-04,1,999,0.77745509147644,chair,knife,60,0999_ps_s04_60_knife_10_n03041632_13108.png
subject-04,1,1000,0.536429882049561,boat,boat,90,1000_ps_s04_90_boat_10_n03662601_11820.png
subject-04,1,1001,0.605231046676636,cat,bear,120,1001_ps_s04_120_bear_10_n02132136_783.png
subject-04,1,1002,0.547415018081665,oven,dog,120,1002_ps_s04_120_dog_10_n02094433_1868.png
subject-04,1,1003,0.526762962341309,bear,keyboard,150,1003_ps_s04_150_keyboard_10_n04505470_4566.png
subject-04,1,1004,0.693195104598999,knife,knife,60,1004_ps_s04_60_knife_10_n03041632_105081.png
subject-04,1,1005,0.529739141464233,keyboard,keyboard,120,1005_ps_s04_120_keyboard_10_n04505470_3309.png
subject-04,1,1006,0.617804050445557,oven,oven,30,1006_ps_s04_30_oven_10_n04111531_3580.png
subject-04,1,1007,0.600300073623657,clock,clock,90,1007_ps_s04_90_clock_10_n02708093_3399.png
subject-04,1,1008,0.612991094589233,elephant,keyboard,180,1008_ps_s04_180_keyboard_10_n04505470_1978.png
subject-04,1,1009,0.939082145690918,knife,knife,30,1009_ps_s04_30_knife_10_n03041632_30079.png
subject-04,1,1010,0.827121019363403,bicycle,bear,150,1010_ps_s04_150_bear_10_n02133161_24490.png
subject-04,1,1011,0.671956062316895,bear,bear,90,1011_ps_s04_90_bear_10_n02133161_5477.png
subject-04,1,1012,0.898124933242798,car,knife,180,1012_ps_s04_180_knife_10_n03041632_25479.png
subject-04,1,1013,0.86431884765625,dog,dog,60,1013_ps_s04_60_dog_10_n02111500_1997.png
subject-04,1,1014,0.630243062973022,cat,cat,120,1014_ps_s04_120_cat_10_n02123394_6114.png
subject-04,1,1015,0.580729961395264,keyboard,keyboard,60,1015_ps_s04_60_keyboard_10_n03085013_8325.png
subject-04,1,1016,0.525278091430664,airplane,chair,180,1016_ps_s04_180_chair_10_n02791124_9831.png
subject-04,1,1017,0.513684988021851,oven,dog,180,1017_ps_s04_180_dog_10_n02093647_6459.png
subject-04,1,1018,0.60999584197998,bear,bicycle,180,1018_ps_s04_180_bicycle_10_n03792782_6852.png
subject-04,1,1019,0.892860174179077,car,car,0,1019_ps_s04_0_car_10_n04285008_7826.png
subject-04,1,1020,0.68927001953125,bicycle,truck,150,1020_ps_s04_150_truck_10_n04467665_58815.png
subject-04,1,1021,0.770911931991577,bicycle,bicycle,30,1021_ps_s04_30_bicycle_10_n03792782_7441.png
subject-04,1,1022,0.651344060897827,bicycle,airplane,180,1022_ps_s04_180_airplane_10_n02690373_18412.png
subject-04,1,1023,0.747594833374023,chair,chair,0,1023_ps_s04_0_chair_10_n04099969_16670.png
subject-04,1,1024,0.897907018661499,bottle,oven,90,1024_ps_s04_90_oven_10_n04111531_18979.png
subject-04,1,1025,0.78826117515564,elephant,elephant,60,1025_ps_s04_60_elephant_10_n02504013_2974.png
subject-04,1,1026,0.922875881195068,bicycle,bicycle,0,1026_ps_s04_0_bicycle_10_n02835271_1147.png
subject-04,1,1027,0.642623901367188,boat,boat,180,1027_ps_s04_180_boat_10_n02951358_31055.png
subject-04,1,1028,1.03895783424377,truck,truck,0,1028_ps_s04_0_truck_10_n03417042_6838.png
subject-04,1,1029,1.06539988517761,elephant,elephant,30,1029_ps_s04_30_elephant_10_n02504013_2976.png
subject-04,1,1030,0.778156995773315,airplane,keyboard,150,1030_ps_s04_150_keyboard_10_n04505470_4776.png
subject-04,1,1031,1.10674118995667,bicycle,bicycle,60,1031_ps_s04_60_bicycle_10_n03792782_48920.png
subject-04,1,1032,1.11058402061462,airplane,boat,180,1032_ps_s04_180_boat_10_n02951358_1791.png
subject-04,1,1033,1.37506890296936,cat,clock,30,1033_ps_s04_30_clock_10_n02708093_2361.png
subject-04,1,1034,0.751893997192383,boat,knife,150,1034_ps_s04_150_knife_10_n03041632_20697.png
subject-04,1,1035,0.768719911575317,bear,boat,180,1035_ps_s04_180_boat_10_n04273569_4901.png
subject-04,1,1036,1.48441100120544,elephant,elephant,30,1036_ps_s04_30_elephant_10_n02504458_423.png
subject-04,1,1037,1.18246603012085,chair,bottle,150,1037_ps_s04_150_bottle_10_n04591713_937.png
subject-04,1,1038,0.665006160736084,clock,clock,30,1038_ps_s04_30_clock_10_n03196217_2488.png
subject-04,1,1039,0.814921140670776,bicycle,chair,120,1039_ps_s04_120_chair_10_n03376595_12433.png
subject-04,1,1040,1.0578441619873,dog,cat,60,1040_ps_s04_60_cat_10_n02123597_1673.png
subject-04,1,1041,1.12405920028687,keyboard,bottle,60,1041_ps_s04_60_bottle_10_n04591713_2501.png
subject-04,1,1042,0.768420934677124,dog,dog,30,1042_ps_s04_30_dog_10_n02098105_1127.png
subject-04,1,1043,0.643041133880615,airplane,airplane,60,1043_ps_s04_60_airplane_10_n02690373_2203.png
subject-04,1,1044,0.869144916534424,keyboard,bottle,90,1044_ps_s04_90_bottle_10_n04591713_3429.png
subject-04,1,1045,0.713621139526367,keyboard,keyboard,90,1045_ps_s04_90_keyboard_10_n03085013_7285.png
subject-04,1,1046,1.10648107528687,elephant,elephant,0,1046_ps_s04_0_elephant_10_n02504458_4280.png
subject-04,1,1047,0.843024015426636,bear,bicycle,150,1047_ps_s04_150_bicycle_10_n03792782_7269.png
subject-04,1,1048,0.801360130310059,cat,cat,90,1048_ps_s04_90_cat_10_n02123394_2854.png
subject-04,1,1049,0.897293090820312,bird,bird,30,1049_ps_s04_30_bird_10_n02002556_5694.png
subject-04,1,1050,0.839935064315796,car,boat,150,1050_ps_s04_150_boat_10_n02951358_33495.png
subject-04,1,1051,0.844379901885986,oven,elephant,150,1051_ps_s04_150_elephant_10_n02504458_794.png
subject-04,1,1052,0.951090097427368,bottle,bottle,0,1052_ps_s04_0_bottle_10_n04591713_7634.png
subject-04,1,1053,0.839405059814453,clock,clock,0,1053_ps_s04_0_clock_10_n04548280_9218.png
subject-04,1,1054,0.714058876037598,dog,dog,0,1054_ps_s04_0_dog_10_n02086240_9415.png
subject-04,1,1055,0.917749166488647,cat,knife,90,1055_ps_s04_90_knife_10_n03041632_23546.png
subject-04,1,1056,0.944138050079346,boat,boat,90,1056_ps_s04_90_boat_10_n03344393_1247.png
subject-04,1,1057,0.893866777420044,keyboard,bicycle,180,1057_ps_s04_180_bicycle_10_n03792782_18763.png
subject-04,1,1058,0.744023084640503,bicycle,bicycle,60,1058_ps_s04_60_bicycle_10_n02835271_6826.png
subject-04,1,1059,1.04834699630737,clock,boat,120,1059_ps_s04_120_boat_10_n04273569_6052.png
subject-04,1,1060,0.809015035629272,oven,car,180,1060_ps_s04_180_car_10_n02814533_9951.png
subject-04,1,1061,0.742944955825806,elephant,elephant,0,1061_ps_s04_0_elephant_10_n02504458_5412.png
subject-04,1,1062,1.0232629776001,bear,oven,150,1062_ps_s04_150_oven_10_n04111531_5304.png
subject-04,1,1063,0.821519136428833,airplane,knife,60,1063_ps_s04_60_knife_10_n03041632_17285.png
subject-04,1,1064,0.758091926574707,car,airplane,180,1064_ps_s04_180_airplane_10_n02690373_3589.png
subject-04,1,1065,1.030268907547,truck,car,30,1065_ps_s04_30_car_10_n04285008_5360.png
subject-04,1,1066,0.880331993103027,airplane,airplane,120,1066_ps_s04_120_airplane_10_n02690373_8783.png
subject-04,1,1067,0.876669883728027,chair,dog,150,1067_ps_s04_150_dog_10_n02109525_12763.png
subject-04,1,1068,0.905224084854126,car,car,90,1068_ps_s04_90_car_10_n03100240_6045.png
subject-04,1,1069,0.909130096435547,car,car,30,1069_ps_s04_30_car_10_n02814533_60400.png
subject-04,1,1070,1.29754996299744,car,car,60,1070_ps_s04_60_car_10_n02814533_51205.png
subject-04,1,1071,1.04756188392639,oven,knife,180,1071_ps_s04_180_knife_10_n03041632_27575.png
