subj,session,trial,rt,object_response,category,condition,imagename
subject-02,1,1,0.699066162109375,bird,bird,180,0001_ps_s02_180_bird_10_n02051845_12326.png
subject-02,1,2,0.727135896682739,dog,knife,150,0002_ps_s02_150_knife_10_n03041632_92637.png
subject-02,1,3,0.511051893234253,cat,dog,60,0003_ps_s02_60_dog_10_n02096051_1569.png
subject-02,1,4,0.84208607673645,car,airplane,90,0004_ps_s02_90_airplane_10_n02690373_7698.png
subject-02,1,5,0.817728042602539,car,car,120,0005_ps_s02_120_car_10_n04285008_10825.png
subject-02,1,6,0.541079998016357,keyboard,keyboard,60,0006_ps_s02_60_keyboard_10_n04505470_4725.png
subject-02,1,7,0.696952819824219,bicycle,bear,150,0007_ps_s02_150_bear_10_n02134084_15189.png
subject-02,1,8,0.744954109191895,dog,dog,30,0008_ps_s02_30_dog_10_n02087394_2035.png
subject-02,1,9,0.575037002563477,oven,oven,30,0009_ps_s02_30_oven_10_n04111531_10358.png
subject-02,1,10,0.713486909866333,airplane,dog,180,0010_ps_s02_180_dog_10_n02099601_9973.png
subject-02,1,11,0.612313032150269,keyboard,keyboard,60,0011_ps_s02_60_keyboard_10_n04505470_4521.png
subject-02,1,12,0.596894979476929,bird,bird,30,0012_ps_s02_30_bird_10_n01560419_16754.png
subject-02,1,13,0.972669124603271,cat,bear,150,0013_ps_s02_150_bear_10_n02133161_19341.png
subject-02,1,14,0.641587018966675,bear,bear,30,0014_ps_s02_30_bear_10_n02132136_9840.png
subject-02,1,15,0.817821979522705,airplane,airplane,90,0015_ps_s02_90_airplane_10_n02690373_4434.png
subject-02,1,16,0.672051191329956,elephant,dog,180,0016_ps_s02_180_dog_10_n02107312_3944.png
subject-02,1,17,0.816872835159302,bottle,clock,180,0017_ps_s02_180_clock_10_n04548280_3605.png
subject-02,1,18,0.625313997268677,airplane,airplane,60,0018_ps_s02_60_airplane_10_n02690373_17262.png
subject-02,1,19,0.685079097747803,chair,bird,180,0019_ps_s02_180_bird_10_n01829413_389.png
subject-02,1,20,0.684362173080444,bicycle,bicycle,120,0020_ps_s02_120_bicycle_10_n02835271_4440.png
subject-02,1,21,0.730688095092773,keyboard,keyboard,150,0021_ps_s02_150_keyboard_10_n03085013_15530.png
subject-02,1,22,0.491544008255005,airplane,airplane,60,0022_ps_s02_60_airplane_10_n02690373_3110.png
subject-02,1,23,0.85967493057251,knife,knife,30,0023_ps_s02_30_knife_10_n03041632_18859.png
subject-02,1,24,0.873286008834839,bird,knife,180,0024_ps_s02_180_knife_10_n03041632_29355.png
subject-02,1,25,0.63579797744751,car,truck,180,0025_ps_s02_180_truck_10_n03417042_8654.png
subject-02,1,26,0.556353092193604,car,car,90,0026_ps_s02_90_car_10_n03100240_2408.png
subject-02,1,27,0.64812707901001,bird,bird,90,0027_ps_s02_90_bird_10_n02018795_12923.png
subject-02,1,28,0.801142930984497,clock,oven,90,0028_ps_s02_90_oven_10_n04111531_5906.png
subject-02,1,29,0.663785934448242,chair,chair,0,0029_ps_s02_0_chair_10_n02791124_13073.png
subject-02,1,30,0.616441965103149,knife,knife,30,0030_ps_s02_30_knife_10_n03041632_45569.png
subject-02,1,31,0.770682096481323,bear,cat,180,0031_ps_s02_180_cat_10_n02123045_6937.png
subject-02,1,32,0.80119800567627,elephant,bird,150,0032_ps_s02_150_bird_10_n01855672_13287.png
subject-02,1,33,1.02382302284241,truck,bird,180,0033_ps_s02_180_bird_10_n01855672_9594.png
subject-02,1,34,0.822628021240234,bird,bottle,120,0034_ps_s02_120_bottle_10_n02823428_832.png
subject-02,1,35,0.698158025741577,truck,truck,30,0035_ps_s02_30_truck_10_n03796401_1326.png
subject-02,1,36,0.720323085784912,knife,knife,0,0036_ps_s02_0_knife_10_n03041632_20770.png
subject-02,1,37,0.658663988113403,airplane,chair,180,0037_ps_s02_180_chair_10_n03376595_204.png
subject-02,1,38,0.535846948623657,bear,bear,0,0038_ps_s02_0_bear_10_n02134084_18729.png
subject-02,1,39,0.595696926116943,bear,bear,30,0039_ps_s02_30_bear_10_n02132136_7796.png
subject-02,1,40,0.626128911972046,knife,knife,30,0040_ps_s02_30_knife_10_n03041632_32054.png
subject-02,1,41,0.797520160675049,bear,bear,120,0041_ps_s02_120_bear_10_n02132136_2255.png
subject-02,1,42,0.581781148910522,cat,truck,150,0042_ps_s02_150_truck_10_n03417042_9511.png
subject-02,1,43,0.819108009338379,chair,chair,30,0043_ps_s02_30_chair_10_n02791124_6823.png
subject-02,1,44,0.773336887359619,knife,knife,120,0044_ps_s02_120_knife_10_n03041632_16206.png
subject-02,1,45,0.649652004241943,boat,bicycle,60,0045_ps_s02_60_bicycle_10_n03792782_14670.png
subject-02,1,46,0.479948997497559,airplane,cat,150,0046_ps_s02_150_cat_10_n02123597_6550.png
subject-02,1,47,0.727396965026855,bicycle,bicycle,120,0047_ps_s02_120_bicycle_10_n03792782_62398.png
subject-02,1,48,0.617305994033813,bear,elephant,60,0048_ps_s02_60_elephant_10_n02504458_2953.png
subject-02,1,49,0.601971864700317,bottle,bottle,60,0049_ps_s02_60_bottle_10_n04591713_5533.png
subject-02,1,50,0.594856023788452,airplane,boat,60,0050_ps_s02_60_boat_10_n04273569_3810.png
subject-02,1,51,0.463052034378052,boat,boat,90,0051_ps_s02_90_boat_10_n03662601_25430.png
subject-02,1,52,0.701763153076172,bicycle,bicycle,90,0052_ps_s02_90_bicycle_10_n02835271_10362.png
subject-02,1,53,0.486056804656982,keyboard,keyboard,30,0053_ps_s02_30_keyboard_10_n04505470_432.png
subject-02,1,54,0.592577934265137,clock,clock,60,0054_ps_s02_60_clock_10_n04548280_12615.png
subject-02,1,55,0.678094148635864,oven,truck,90,0055_ps_s02_90_truck_10_n03796401_28452.png
subject-02,1,56,0.678763866424561,truck,truck,30,0056_ps_s02_30_truck_10_n03417042_8076.png
subject-02,1,57,0.455065965652466,bicycle,bicycle,90,0057_ps_s02_90_bicycle_10_n02835271_4962.png
subject-02,1,58,0.838125944137573,elephant,cat,120,0058_ps_s02_120_cat_10_n02124075_4651.png
subject-02,1,59,0.776742935180664,bear,bird,180,0059_ps_s02_180_bird_10_n01829413_9223.png
subject-02,1,60,0.939634084701538,dog,clock,150,0060_ps_s02_150_clock_10_n02708093_92.png
subject-02,1,61,0.770356893539429,bottle,bear,150,0061_ps_s02_150_bear_10_n02134418_149.png
subject-02,1,62,0.92278790473938,bear,bear,180,0062_ps_s02_180_bear_10_n02134418_1635.png
subject-02,1,63,0.446854114532471,clock,clock,30,0063_ps_s02_30_clock_10_n03196217_653.png
subject-02,1,64,0.707505941390991,cat,oven,150,0064_ps_s02_150_oven_10_n04111531_21068.png
subject-02,1,65,0.629923105239868,elephant,elephant,0,0065_ps_s02_0_elephant_10_n02504458_12074.png
subject-02,1,66,0.666197776794434,clock,clock,120,0066_ps_s02_120_clock_10_n03196217_8282.png
subject-02,1,67,0.829586029052734,car,car,60,0067_ps_s02_60_car_10_n02814533_25129.png
subject-02,1,68,0.759505987167358,elephant,airplane,150,0068_ps_s02_150_airplane_10_n02690373_12966.png
subject-02,1,69,0.635541915893555,bird,chair,120,0069_ps_s02_120_chair_10_n02791124_6643.png
subject-02,1,70,0.782876014709473,dog,elephant,150,0070_ps_s02_150_elephant_10_n02504458_8219.png
subject-02,1,71,0.560096979141235,bird,bird,60,0071_ps_s02_60_bird_10_n02025239_7145.png
subject-02,1,72,0.581731796264648,elephant,elephant,30,0072_ps_s02_30_elephant_10_n02504013_2476.png
subject-02,1,73,0.558577060699463,elephant,elephant,0,0073_ps_s02_0_elephant_10_n02504013_6426.png
subject-02,1,74,0.62748908996582,elephant,elephant,60,0074_ps_s02_60_elephant_10_n02504458_6851.png
subject-02,1,75,1.01133394241333,oven,bottle,120,0075_ps_s02_120_bottle_10_n02823428_3533.png
subject-02,1,76,0.634448051452637,airplane,airplane,120,0076_ps_s02_120_airplane_10_n02690373_10704.png
subject-02,1,77,0.78654408454895,keyboard,cat,180,0077_ps_s02_180_cat_10_n02124075_14212.png
subject-02,1,78,0.517158031463623,bear,bear,60,0078_ps_s02_60_bear_10_n02132136_10029.png
subject-02,1,79,0.693946123123169,bird,bird,0,0079_ps_s02_0_bird_10_n01534433_12772.png
subject-02,1,80,0.510109901428223,oven,oven,0,0080_ps_s02_0_oven_10_n04111531_11868.png
subject-02,1,81,0.638620853424072,knife,knife,0,0081_ps_s02_0_knife_10_n03041632_21472.png
subject-02,1,82,0.494102954864502,bird,bird,60,0082_ps_s02_60_bird_10_n01820546_1478.png
subject-02,1,83,0.854434967041016,elephant,elephant,120,0083_ps_s02_120_elephant_10_n02504013_2148.png
subject-02,1,84,1.04684591293335,truck,clock,150,0084_ps_s02_150_clock_10_n04548280_1411.png
subject-02,1,85,0.607269048690796,airplane,airplane,120,0085_ps_s02_120_airplane_10_n02690373_6753.png
subject-02,1,86,0.96747899055481,dog,bird,120,0086_ps_s02_120_bird_10_n01622779_220.png
subject-02,1,87,0.659703016281128,knife,knife,90,0087_ps_s02_90_knife_10_n03041632_11700.png
subject-02,1,88,0.904700994491577,bottle,bottle,120,0088_ps_s02_120_bottle_10_n02823428_6046.png
subject-02,1,89,0.511996030807495,oven,oven,150,0089_ps_s02_150_oven_10_n04111531_1815.png
subject-02,1,90,0.910628795623779,elephant,elephant,150,0090_ps_s02_150_elephant_10_n02504013_5960.png
subject-02,1,91,0.711850166320801,oven,knife,180,0091_ps_s02_180_knife_10_n03041632_99875.png
subject-02,1,92,0.926470994949341,chair,bottle,120,0092_ps_s02_120_bottle_10_n03983396_12143.png
subject-02,1,93,0.685743093490601,clock,bicycle,150,0093_ps_s02_150_bicycle_10_n02835271_14670.png
subject-02,1,94,1.10855317115784,cat,clock,180,0094_ps_s02_180_clock_10_n03196217_10634.png
subject-02,1,95,0.592781066894531,clock,clock,0,0095_ps_s02_0_clock_10_n03196217_6358.png
subject-02,1,96,0.5470290184021,airplane,airplane,0,0096_ps_s02_0_airplane_10_n02690373_1442.png
subject-02,1,97,0.583483934402466,airplane,airplane,30,0097_ps_s02_30_airplane_10_n02690373_3334.png
subject-02,1,98,0.554252862930298,bird,bird,60,0098_ps_s02_60_bird_10_n01833805_10605.png
subject-02,1,99,0.692836999893188,bear,elephant,90,0099_ps_s02_90_elephant_10_n02504013_2257.png
subject-02,1,100,0.4319748878479,cat,oven,150,0100_ps_s02_150_oven_10_n04111531_891.png
subject-02,1,101,0.55481481552124,oven,oven,90,0101_ps_s02_90_oven_10_n04111531_14178.png
subject-02,1,102,0.945106029510498,bear,bear,120,0102_ps_s02_120_bear_10_n02132136_713.png
subject-02,1,103,0.591565132141113,bicycle,clock,150,0103_ps_s02_150_clock_10_n03196217_7026.png
subject-02,1,104,0.467681884765625,airplane,truck,150,0104_ps_s02_150_truck_10_n04467665_23112.png
subject-02,1,105,0.690274000167847,keyboard,keyboard,30,0105_ps_s02_30_keyboard_10_n03085013_22438.png
subject-02,1,106,1.04207420349121,bottle,bottle,60,0106_ps_s02_60_bottle_10_n03983396_9667.png
subject-02,1,107,0.588414907455444,bottle,bottle,120,0107_ps_s02_120_bottle_10_n04591713_1742.png
subject-02,1,108,0.570353031158447,boat,boat,30,0108_ps_s02_30_boat_10_n04612504_9674.png
subject-02,1,109,0.442571878433228,bear,bear,120,0109_ps_s02_120_bear_10_n02133161_1092.png
subject-02,1,110,0.66511082649231,dog,dog,0,0110_ps_s02_0_dog_10_n02113624_246.png
subject-02,1,111,0.649652004241943,car,oven,120,0111_ps_s02_120_oven_10_n04111531_7283.png
subject-02,1,112,0.466287136077881,oven,oven,60,0112_ps_s02_60_oven_10_n04111531_7625.png
subject-02,1,113,0.848684072494507,car,car,120,0113_ps_s02_120_car_10_n03100240_5121.png
subject-02,1,114,0.611678838729858,truck,boat,180,0114_ps_s02_180_boat_10_n03662601_12308.png
subject-02,1,115,0.788094043731689,oven,boat,90,0115_ps_s02_90_boat_10_n03344393_7105.png
subject-02,1,116,NaN,na,boat,150,0116_ps_s02_150_boat_10_n02951358_4748.png
subject-02,1,117,0.549673795700073,bicycle,bicycle,30,0117_ps_s02_30_bicycle_10_n03792782_7709.png
subject-02,1,118,0.626174926757812,bear,dog,120,0118_ps_s02_120_dog_10_n02097130_364.png
subject-02,1,119,0.534317016601562,oven,oven,60,0119_ps_s02_60_oven_10_n04111531_11230.png
subject-02,1,120,0.480817079544067,clock,clock,90,0120_ps_s02_90_clock_10_n04548280_8585.png
subject-02,1,121,0.412348985671997,cat,dog,180,0121_ps_s02_180_dog_10_n02108422_6009.png
subject-02,1,122,1.01843500137329,knife,chair,90,0122_ps_s02_90_chair_10_n02791124_15675.png
subject-02,1,123,0.707551002502441,bicycle,bicycle,0,0123_ps_s02_0_bicycle_10_n02835271_9314.png
subject-02,1,124,0.56010103225708,truck,truck,90,0124_ps_s02_90_truck_10_n03796401_27184.png
subject-02,1,125,0.628998041152954,bottle,bottle,30,0125_ps_s02_30_bottle_10_n04557648_24342.png
subject-02,1,126,0.713967084884644,chair,chair,90,0126_ps_s02_90_chair_10_n04429376_1954.png
subject-02,1,127,0.552194118499756,car,airplane,180,0127_ps_s02_180_airplane_10_n02690373_7355.png
subject-02,1,128,0.422996044158936,clock,clock,90,0128_ps_s02_90_clock_10_n02708093_6252.png
subject-02,1,129,0.461380958557129,knife,knife,30,0129_ps_s02_30_knife_10_n03041632_25022.png
subject-02,1,130,0.552365779876709,cat,cat,60,0130_ps_s02_60_cat_10_n02125311_53045.png
subject-02,1,131,0.698603868484497,dog,dog,30,0131_ps_s02_30_dog_10_n02106550_893.png
subject-02,1,132,0.56738805770874,chair,chair,60,0132_ps_s02_60_chair_10_n02791124_11395.png
subject-02,1,133,0.72650408744812,bear,keyboard,120,0133_ps_s02_120_keyboard_10_n03085013_24056.png
subject-02,1,134,0.773821830749512,oven,clock,120,0134_ps_s02_120_clock_10_n02708093_7957.png
subject-02,1,135,0.804022073745728,car,knife,180,0135_ps_s02_180_knife_10_n03041632_9759.png
subject-02,1,136,0.580339193344116,bird,truck,150,0136_ps_s02_150_truck_10_n04467665_1584.png
subject-02,1,137,0.678957939147949,truck,chair,120,0137_ps_s02_120_chair_10_n03376595_9030.png
subject-02,1,138,0.595854043960571,bird,bird,90,0138_ps_s02_90_bird_10_n01819313_443.png
subject-02,1,139,0.655821084976196,elephant,elephant,30,0139_ps_s02_30_elephant_10_n02504458_2719.png
subject-02,1,140,0.948494911193848,cat,bicycle,120,0140_ps_s02_120_bicycle_10_n02835271_1345.png
subject-02,1,141,0.678744077682495,chair,knife,90,0141_ps_s02_90_knife_10_n03041632_3516.png
subject-02,1,142,NaN,na,bear,120,0142_ps_s02_120_bear_10_n02134084_5987.png
subject-02,1,143,0.970107078552246,cat,cat,60,0143_ps_s02_60_cat_10_n02123159_1355.png
subject-02,1,144,0.776524066925049,chair,keyboard,90,0144_ps_s02_90_keyboard_10_n03085013_19512.png
subject-02,1,145,0.522902965545654,boat,boat,30,0145_ps_s02_30_boat_10_n03662601_7414.png
subject-02,1,146,0.499170780181885,oven,knife,120,0146_ps_s02_120_knife_10_n03041632_29886.png
subject-02,1,147,1.07541084289551,car,car,90,0147_ps_s02_90_car_10_n03100240_14317.png
subject-02,1,148,1.17370915412903,airplane,knife,150,0148_ps_s02_150_knife_10_n03041632_4494.png
subject-02,1,149,0.729575872421265,bear,bird,150,0149_ps_s02_150_bird_10_n01558993_6575.png
subject-02,1,150,0.859510898590088,elephant,keyboard,150,0150_ps_s02_150_keyboard_10_n03085013_20523.png
subject-02,1,151,0.684804916381836,knife,knife,60,0151_ps_s02_60_knife_10_n03041632_38433.png
subject-02,1,152,0.677680015563965,knife,knife,30,0152_ps_s02_30_knife_10_n03041632_19620.png
subject-02,1,153,1.22217702865601,bear,airplane,120,0153_ps_s02_120_airplane_10_n02690373_7735.png
subject-02,1,154,0.568601846694946,bottle,bottle,0,0154_ps_s02_0_bottle_10_n04557648_14715.png
subject-02,1,155,0.645740032196045,oven,oven,30,0155_ps_s02_30_oven_10_n04111531_9314.png
subject-02,1,156,0.730081796646118,oven,cat,180,0156_ps_s02_180_cat_10_n02125311_18007.png
subject-02,1,157,0.409412860870361,oven,oven,0,0157_ps_s02_0_oven_10_n04111531_15683.png
subject-02,1,158,0.723809957504272,bicycle,truck,180,0158_ps_s02_180_truck_10_n03417042_8581.png
subject-02,1,159,0.654592990875244,cat,bird,60,0159_ps_s02_60_bird_10_n01820546_6199.png
subject-02,1,160,0.593187093734741,bird,bear,150,0160_ps_s02_150_bear_10_n02133161_16133.png
subject-02,1,161,0.467737197875977,chair,chair,90,0161_ps_s02_90_chair_10_n04099969_3430.png
subject-02,1,162,0.568478107452393,chair,chair,0,0162_ps_s02_0_chair_10_n02791124_6564.png
subject-02,1,163,0.575470924377441,car,bottle,150,0163_ps_s02_150_bottle_10_n04579145_5879.png
subject-02,1,164,0.459673166275024,boat,boat,30,0164_ps_s02_30_boat_10_n02951358_1678.png
subject-02,1,165,1.06602215766907,bear,truck,180,0165_ps_s02_180_truck_10_n03417042_12145.png
subject-02,1,166,0.959501028060913,elephant,knife,120,0166_ps_s02_120_knife_10_n03041632_18959.png
subject-02,1,167,1.11891007423401,airplane,boat,0,0167_ps_s02_0_boat_10_n03662601_3850.png
subject-02,1,168,0.950301885604858,boat,elephant,150,0168_ps_s02_150_elephant_10_n02504458_3092.png
subject-02,1,169,0.556373834609985,keyboard,keyboard,30,0169_ps_s02_30_keyboard_10_n04505470_2616.png
subject-02,1,170,0.856698989868164,oven,airplane,120,0170_ps_s02_120_airplane_10_n02690373_7530.png
subject-02,1,171,1.08790397644043,dog,clock,150,0171_ps_s02_150_clock_10_n02708093_1124.png
subject-02,1,172,0.902445077896118,bear,knife,180,0172_ps_s02_180_knife_10_n03041632_2973.png
subject-02,1,173,0.564836025238037,cat,dog,120,0173_ps_s02_120_dog_10_n02107683_5107.png
subject-02,1,174,0.676520824432373,car,boat,60,0174_ps_s02_60_boat_10_n03662601_15566.png
subject-02,1,175,0.653185129165649,truck,truck,0,0175_ps_s02_0_truck_10_n04467665_43935.png
subject-02,1,176,0.400635004043579,boat,chair,180,0176_ps_s02_180_chair_10_n04099969_3723.png
subject-02,1,177,0.576743125915527,clock,clock,0,0177_ps_s02_0_clock_10_n04548280_183.png
subject-02,1,178,0.585489988327026,boat,knife,150,0178_ps_s02_150_knife_10_n03041632_13424.png
subject-02,1,179,0.437870025634766,cat,cat,0,0179_ps_s02_0_cat_10_n02123394_4147.png
subject-02,1,180,0.454485893249512,chair,chair,90,0180_ps_s02_90_chair_10_n02791124_2463.png
subject-02,1,181,0.415546894073486,cat,cat,0,0181_ps_s02_0_cat_10_n02123394_8544.png
subject-02,1,182,0.778432130813599,elephant,bird,180,0182_ps_s02_180_bird_10_n01531178_20793.png
subject-02,1,183,0.660876989364624,truck,truck,30,0183_ps_s02_30_truck_10_n04467665_8255.png
subject-02,1,184,0.662094116210938,truck,truck,0,0184_ps_s02_0_truck_10_n04467665_58762.png
subject-02,1,185,1.01624608039856,car,bicycle,150,0185_ps_s02_150_bicycle_10_n02835271_2915.png
subject-02,1,186,0.56946587562561,bottle,bottle,90,0186_ps_s02_90_bottle_10_n04591713_5046.png
subject-02,1,187,0.61615514755249,dog,dog,0,0187_ps_s02_0_dog_10_n02113624_4001.png
subject-02,1,188,0.470031976699829,bird,car,180,0188_ps_s02_180_car_10_n02814533_85692.png
subject-02,1,189,0.584604978561401,chair,chair,120,0189_ps_s02_120_chair_10_n02791124_1.png
subject-02,1,190,0.482640027999878,bottle,bottle,0,0190_ps_s02_0_bottle_10_n02823428_5804.png
subject-02,1,191,0.637576103210449,dog,dog,30,0191_ps_s02_30_dog_10_n02091134_734.png
subject-02,1,192,0.552279949188232,car,car,60,0192_ps_s02_60_car_10_n03100240_3528.png
subject-02,1,193,0.628352165222168,knife,knife,30,0193_ps_s02_30_knife_10_n03041632_3101.png
subject-02,1,194,0.750542163848877,oven,elephant,90,0194_ps_s02_90_elephant_10_n02504013_252.png
subject-02,1,195,0.481205940246582,bear,elephant,0,0195_ps_s02_0_elephant_10_n02504458_7570.png
subject-02,1,196,0.651926040649414,bird,dog,150,0196_ps_s02_150_dog_10_n02087394_5387.png
subject-02,1,197,0.574345111846924,car,airplane,150,0197_ps_s02_150_airplane_10_n02690373_6798.png
subject-02,1,198,0.397264957427979,boat,cat,150,0198_ps_s02_150_cat_10_n02125311_3438.png
subject-02,1,199,0.782299995422363,elephant,bicycle,150,0199_ps_s02_150_bicycle_10_n03792782_5097.png
subject-02,1,200,0.643038988113403,chair,chair,60,0200_ps_s02_60_chair_10_n04429376_15860.png
subject-02,1,201,1.0110559463501,oven,keyboard,90,0201_ps_s02_90_keyboard_10_n03085013_24154.png
subject-02,1,202,0.640888929367065,bird,bird,0,0202_ps_s02_0_bird_10_n02011460_398.png
subject-02,1,203,0.472019195556641,clock,clock,120,0203_ps_s02_120_clock_10_n04548280_1997.png
subject-02,1,204,0.878304004669189,keyboard,truck,180,0204_ps_s02_180_truck_10_n04467665_58341.png
subject-02,1,205,1.06264710426331,airplane,keyboard,180,0205_ps_s02_180_keyboard_10_n03085013_24044.png
subject-02,1,206,0.877026796340942,truck,truck,90,0206_ps_s02_90_truck_10_n03417042_28747.png
subject-02,1,207,0.526371955871582,keyboard,knife,150,0207_ps_s02_150_knife_10_n03041632_36280.png
subject-02,1,208,0.702849149703979,bottle,bottle,0,0208_ps_s02_0_bottle_10_n03983396_984.png
subject-02,1,209,0.57074499130249,airplane,airplane,30,0209_ps_s02_30_airplane_10_n02690373_3473.png
subject-02,1,210,0.561830997467041,chair,chair,90,0210_ps_s02_90_chair_10_n04099969_6710.png
subject-02,1,211,0.62479305267334,chair,chair,60,0211_ps_s02_60_chair_10_n03376595_17810.png
subject-02,1,212,0.770936965942383,bicycle,elephant,180,0212_ps_s02_180_elephant_10_n02504458_7483.png
subject-02,1,213,0.61578106880188,oven,oven,30,0213_ps_s02_30_oven_10_n04111531_3181.png
subject-02,1,214,0.578134059906006,bottle,bicycle,150,0214_ps_s02_150_bicycle_10_n02835271_5821.png
subject-02,1,215,0.744354009628296,bicycle,bicycle,90,0215_ps_s02_90_bicycle_10_n02835271_9670.png
subject-02,1,216,0.628840923309326,dog,dog,60,0216_ps_s02_60_dog_10_n02085936_1281.png
subject-02,1,217,0.646051168441772,cat,cat,30,0217_ps_s02_30_cat_10_n02123045_10293.png
subject-02,1,218,0.822230100631714,bear,cat,180,0218_ps_s02_180_cat_10_n02123394_490.png
subject-02,1,219,0.836838960647583,car,car,90,0219_ps_s02_90_car_10_n04285008_3828.png
subject-02,1,220,0.77545690536499,keyboard,keyboard,60,0220_ps_s02_60_keyboard_10_n04505470_6426.png
subject-02,1,221,0.506018877029419,keyboard,keyboard,0,0221_ps_s02_0_keyboard_10_n04505470_4368.png
subject-02,1,222,0.420330047607422,chair,chair,30,0222_ps_s02_30_chair_10_n04429376_49840.png
subject-02,1,223,0.489365816116333,boat,boat,60,0223_ps_s02_60_boat_10_n03662601_34506.png
subject-02,1,224,0.560095071792603,airplane,airplane,60,0224_ps_s02_60_airplane_10_n02690373_17603.png
subject-02,1,225,0.512984991073608,bird,bird,90,0225_ps_s02_90_bird_10_n02018207_3553.png
subject-02,1,226,0.558873891830444,chair,chair,90,0226_ps_s02_90_chair_10_n02791124_1614.png
subject-02,1,227,0.46621298789978,bicycle,bicycle,90,0227_ps_s02_90_bicycle_10_n03792782_9709.png
subject-02,1,228,0.612458944320679,bear,bear,30,0228_ps_s02_30_bear_10_n02134418_1615.png
subject-02,1,229,0.672892093658447,car,car,60,0229_ps_s02_60_car_10_n02814533_58708.png
subject-02,1,230,0.641561031341553,bicycle,bicycle,60,0230_ps_s02_60_bicycle_10_n02835271_9062.png
subject-02,1,231,0.53415584564209,cat,cat,60,0231_ps_s02_60_cat_10_n02123394_2364.png
subject-02,1,232,0.602193832397461,dog,dog,30,0232_ps_s02_30_dog_10_n02108422_4529.png
subject-02,1,233,0.726879835128784,bear,oven,150,0233_ps_s02_150_oven_10_n04111531_22084.png
subject-02,1,234,0.473121881484985,cat,cat,30,0234_ps_s02_30_cat_10_n02123394_5669.png
subject-02,1,235,NaN,na,truck,60,0235_ps_s02_60_truck_10_n03417042_19812.png
subject-02,1,236,0.596386909484863,car,car,0,0236_ps_s02_0_car_10_n02814533_11030.png
subject-02,1,237,0.810551166534424,elephant,elephant,90,0237_ps_s02_90_elephant_10_n02504458_11700.png
subject-02,1,238,0.732944011688232,oven,truck,120,0238_ps_s02_120_truck_10_n03417042_6803.png
subject-02,1,239,0.73131799697876,bird,bird,30,0239_ps_s02_30_bird_10_n01532829_784.png
subject-02,1,240,0.629342794418335,oven,chair,120,0240_ps_s02_120_chair_10_n03376595_2382.png
subject-02,1,241,0.554264068603516,airplane,airplane,0,0241_ps_s02_0_airplane_10_n02690373_9680.png
subject-02,1,242,0.677088022232056,chair,chair,30,0242_ps_s02_30_chair_10_n04099969_48891.png
subject-02,1,243,0.859615802764893,cat,dog,120,0243_ps_s02_120_dog_10_n02106030_15031.png
subject-02,1,244,0.568001985549927,bicycle,bicycle,30,0244_ps_s02_30_bicycle_10_n03792782_14021.png
subject-02,1,245,0.844869136810303,car,bird,150,0245_ps_s02_150_bird_10_n02025239_5246.png
subject-02,1,246,0.591136932373047,bear,bottle,180,0246_ps_s02_180_bottle_10_n04557648_8485.png
subject-02,1,247,0.643635988235474,truck,truck,90,0247_ps_s02_90_truck_10_n04467665_10036.png
subject-02,1,248,0.758188962936401,dog,airplane,150,0248_ps_s02_150_airplane_10_n02690373_2867.png
subject-02,1,249,0.60127592086792,bird,dog,150,0249_ps_s02_150_dog_10_n02097658_915.png
subject-02,1,250,0.741038084030151,bottle,bottle,30,0250_ps_s02_30_bottle_10_n04557648_3389.png
subject-02,1,251,0.816847085952759,elephant,bottle,150,0251_ps_s02_150_bottle_10_n04557648_10580.png
subject-02,1,252,0.623049020767212,keyboard,bottle,150,0252_ps_s02_150_bottle_10_n04560804_10.png
subject-02,1,253,0.440352916717529,oven,oven,0,0253_ps_s02_0_oven_10_n04111531_22797.png
subject-02,1,254,0.516870021820068,chair,knife,180,0254_ps_s02_180_knife_10_n03041632_21723.png
subject-02,1,255,0.828943967819214,bear,bear,30,0255_ps_s02_30_bear_10_n02134084_32584.png
subject-02,1,256,0.574772834777832,clock,boat,180,0256_ps_s02_180_boat_10_n02951358_5094.png
subject-02,1,257,0.535341024398804,bicycle,dog,180,0257_ps_s02_180_dog_10_n02101006_12351.png
subject-02,1,258,0.498021841049194,oven,oven,90,0258_ps_s02_90_oven_10_n04111531_9762.png
subject-02,1,259,0.458372831344604,boat,cat,120,0259_ps_s02_120_cat_10_n02123394_2516.png
subject-02,1,260,0.66464900970459,bird,cat,120,0260_ps_s02_120_cat_10_n02123597_259.png
subject-02,1,261,0.749750852584839,car,boat,150,0261_ps_s02_150_boat_10_n03344393_428.png
subject-02,1,262,0.550179004669189,bear,bear,0,0262_ps_s02_0_bear_10_n02132136_13912.png
subject-02,1,263,0.618450164794922,boat,boat,0,0263_ps_s02_0_boat_10_n03344393_4884.png
subject-02,1,264,0.541093826293945,bird,bird,30,0264_ps_s02_30_bird_10_n01537544_8843.png
subject-02,1,265,0.71812105178833,airplane,airplane,180,0265_ps_s02_180_airplane_10_n02690373_20326.png
subject-02,1,266,0.578377962112427,cat,cat,30,0266_ps_s02_30_cat_10_n02124075_8431.png
subject-02,1,267,0.833038091659546,bicycle,bicycle,90,0267_ps_s02_90_bicycle_10_n02835271_974.png
subject-02,1,268,0.597824811935425,car,car,120,0268_ps_s02_120_car_10_n03100240_8984.png
subject-02,1,269,0.58265209197998,oven,oven,60,0269_ps_s02_60_oven_10_n04111531_344.png
subject-02,1,270,0.51824688911438,bear,bear,120,0270_ps_s02_120_bear_10_n02134084_13588.png
subject-02,1,271,0.664691209793091,cat,keyboard,90,0271_ps_s02_90_keyboard_10_n03085013_22002.png
subject-02,1,272,0.863677024841309,knife,bear,150,0272_ps_s02_150_bear_10_n02133161_1916.png
subject-02,1,273,0.640242099761963,elephant,elephant,30,0273_ps_s02_30_elephant_10_n02504013_19659.png
subject-02,1,274,0.457008123397827,clock,clock,30,0274_ps_s02_30_clock_10_n04548280_2313.png
subject-02,1,275,0.485569000244141,cat,bicycle,150,0275_ps_s02_150_bicycle_10_n02835271_3215.png
subject-02,1,276,1.14613485336304,elephant,elephant,120,0276_ps_s02_120_elephant_10_n02504013_4136.png
subject-02,1,277,1.30099201202393,truck,clock,90,0277_ps_s02_90_clock_10_n03196217_7637.png
subject-02,1,278,0.514910936355591,airplane,airplane,30,0278_ps_s02_30_airplane_10_n02690373_9991.png
subject-02,1,279,0.846050977706909,boat,airplane,150,0279_ps_s02_150_airplane_10_n02690373_1819.png
subject-02,1,280,0.454530000686646,boat,cat,150,0280_ps_s02_150_cat_10_n02125311_18335.png
subject-02,1,281,0.561101913452148,bicycle,bicycle,30,0281_ps_s02_30_bicycle_10_n02835271_12123.png
subject-02,1,282,0.645802974700928,knife,boat,180,0282_ps_s02_180_boat_10_n04273569_17684.png
subject-02,1,283,0.460328102111816,keyboard,bottle,180,0283_ps_s02_180_bottle_10_n04591713_107.png
subject-02,1,284,0.661266088485718,cat,cat,90,0284_ps_s02_90_cat_10_n02124075_18178.png
subject-02,1,285,0.814326047897339,car,car,180,0285_ps_s02_180_car_10_n04285008_3005.png
subject-02,1,286,0.623272895812988,bottle,bottle,90,0286_ps_s02_90_bottle_10_n04591713_3878.png
subject-02,1,287,0.845280170440674,elephant,bicycle,180,0287_ps_s02_180_bicycle_10_n03792782_43204.png
subject-02,1,288,0.391884088516235,oven,oven,150,0288_ps_s02_150_oven_10_n04111531_4421.png
subject-02,1,289,0.674607992172241,dog,elephant,120,0289_ps_s02_120_elephant_10_n02504458_2957.png
subject-02,1,290,0.629120111465454,oven,oven,0,0290_ps_s02_0_oven_10_n04111531_1992.png
subject-02,1,291,0.76826000213623,keyboard,truck,180,0291_ps_s02_180_truck_10_n03417042_19479.png
subject-02,1,292,0.620681047439575,clock,dog,120,0292_ps_s02_120_dog_10_n02107142_59190.png
subject-02,1,293,0.396538019180298,bird,bird,90,0293_ps_s02_90_bird_10_n02002556_3810.png
subject-02,1,294,0.459280014038086,bird,bird,60,0294_ps_s02_60_bird_10_n01582220_6649.png
subject-02,1,295,0.866572856903076,clock,truck,90,0295_ps_s02_90_truck_10_n04467665_7464.png
subject-02,1,296,0.54236102104187,bicycle,bicycle,120,0296_ps_s02_120_bicycle_10_n02835271_22206.png
subject-02,1,297,0.673910140991211,oven,clock,60,0297_ps_s02_60_clock_10_n03196217_1746.png
subject-02,1,298,0.604421854019165,airplane,airplane,30,0298_ps_s02_30_airplane_10_n02690373_848.png
subject-02,1,299,0.827438831329346,bear,elephant,120,0299_ps_s02_120_elephant_10_n02504013_7248.png
subject-02,1,300,0.74415111541748,truck,truck,150,0300_ps_s02_150_truck_10_n03417042_10150.png
subject-02,1,301,0.651473999023438,car,airplane,180,0301_ps_s02_180_airplane_10_n02690373_5254.png
subject-02,1,302,0.995491027832031,bear,airplane,120,0302_ps_s02_120_airplane_10_n02690373_1206.png
subject-02,1,303,0.604398012161255,truck,truck,60,0303_ps_s02_60_truck_10_n04467665_45983.png
subject-02,1,304,0.803042888641357,elephant,elephant,90,0304_ps_s02_90_elephant_10_n02504458_2190.png
subject-02,1,305,0.749481916427612,bear,bird,120,0305_ps_s02_120_bird_10_n01558993_5404.png
subject-02,1,306,0.688825130462646,chair,boat,60,0306_ps_s02_60_boat_10_n03344393_3473.png
subject-02,1,307,0.556749105453491,clock,boat,180,0307_ps_s02_180_boat_10_n03344393_11590.png
subject-02,1,308,0.596226930618286,bicycle,cat,150,0308_ps_s02_150_cat_10_n02124075_2080.png
subject-02,1,309,0.580255031585693,oven,oven,60,0309_ps_s02_60_oven_10_n04111531_9210.png
subject-02,1,310,0.641364097595215,bird,bird,90,0310_ps_s02_90_bird_10_n02033041_7756.png
subject-02,1,311,0.717663049697876,knife,knife,90,0311_ps_s02_90_knife_10_n03041632_13203.png
subject-02,1,312,0.439877986907959,cat,cat,60,0312_ps_s02_60_cat_10_n02124075_583.png
subject-02,1,313,0.532377004623413,oven,chair,90,0313_ps_s02_90_chair_10_n02791124_3861.png
subject-02,1,314,1.03968787193298,car,bicycle,180,0314_ps_s02_180_bicycle_10_n02835271_12473.png
subject-02,1,315,0.501128196716309,keyboard,keyboard,0,0315_ps_s02_0_keyboard_10_n04505470_550.png
subject-02,1,316,0.623594045639038,bear,clock,150,0316_ps_s02_150_clock_10_n04548280_23221.png
subject-02,1,317,0.723007917404175,elephant,cat,90,0317_ps_s02_90_cat_10_n02124075_13792.png
subject-02,1,318,0.57743501663208,clock,keyboard,180,0318_ps_s02_180_keyboard_10_n03085013_3804.png
subject-02,1,319,0.483177185058594,truck,truck,60,0319_ps_s02_60_truck_10_n03417042_23784.png
subject-02,1,320,0.985785007476807,dog,bird,150,0320_ps_s02_150_bird_10_n01592084_741.png
subject-02,1,321,0.753522872924805,bicycle,bicycle,30,0321_ps_s02_30_bicycle_10_n02835271_1299.png
subject-02,1,322,0.722158908843994,keyboard,bottle,150,0322_ps_s02_150_bottle_10_n04557648_1268.png
subject-02,1,323,0.738619804382324,truck,car,60,0323_ps_s02_60_car_10_n03100240_9425.png
subject-02,1,324,0.623550891876221,car,car,60,0324_ps_s02_60_car_10_n04285008_826.png
subject-02,1,325,0.596914052963257,truck,truck,90,0325_ps_s02_90_truck_10_n03417042_4752.png
subject-02,1,326,1.14149403572083,knife,elephant,90,0326_ps_s02_90_elephant_10_n02504458_1464.png
subject-02,1,327,0.910006999969482,elephant,elephant,90,0327_ps_s02_90_elephant_10_n02504013_19753.png
subject-02,1,328,0.778499126434326,chair,chair,0,0328_ps_s02_0_chair_10_n04099969_1622.png
subject-02,1,329,1.18789505958557,bottle,dog,30,0329_ps_s02_30_dog_10_n02110806_1336.png
subject-02,1,330,0.517748117446899,keyboard,keyboard,150,0330_ps_s02_150_keyboard_10_n03085013_6517.png
subject-02,1,331,0.556550025939941,bottle,bottle,60,0331_ps_s02_60_bottle_10_n04579145_2910.png
subject-02,1,332,0.408763885498047,boat,boat,0,0332_ps_s02_0_boat_10_n03662601_3913.png
subject-02,1,333,0.569552183151245,bear,bear,0,0333_ps_s02_0_bear_10_n02134418_817.png
subject-02,1,334,0.854465961456299,car,car,30,0334_ps_s02_30_car_10_n03100240_859.png
subject-02,1,335,0.61567497253418,bicycle,bicycle,0,0335_ps_s02_0_bicycle_10_n03792782_50673.png
subject-02,1,336,0.799594879150391,truck,keyboard,180,0336_ps_s02_180_keyboard_10_n04505470_292.png
subject-02,1,337,0.508121013641357,bird,bird,30,0337_ps_s02_30_bird_10_n01622779_6521.png
subject-02,1,338,0.545400142669678,cat,bottle,180,0338_ps_s02_180_bottle_10_n04557648_3530.png
subject-02,1,339,0.708024024963379,dog,elephant,120,0339_ps_s02_120_elephant_10_n02504458_12439.png
subject-02,1,340,0.798764944076538,knife,dog,120,0340_ps_s02_120_dog_10_n02106030_10079.png
subject-02,1,341,0.560894966125488,elephant,elephant,0,0341_ps_s02_0_elephant_10_n02504458_1502.png
subject-02,1,342,0.914443969726562,bottle,bottle,60,0342_ps_s02_60_bottle_10_n03983396_2287.png
subject-02,1,343,0.506702899932861,chair,cat,180,0343_ps_s02_180_cat_10_n02125311_47759.png
subject-02,1,344,0.621717929840088,cat,bear,180,0344_ps_s02_180_bear_10_n02134084_3470.png
subject-02,1,345,0.551479816436768,bear,bear,60,0345_ps_s02_60_bear_10_n02132136_8619.png
subject-02,1,346,0.644329071044922,keyboard,clock,120,0346_ps_s02_120_clock_10_n03196217_6094.png
subject-02,1,347,0.427979946136475,boat,boat,0,0347_ps_s02_0_boat_10_n03344393_3958.png
subject-02,1,348,0.742938995361328,clock,keyboard,180,0348_ps_s02_180_keyboard_10_n03085013_18621.png
subject-02,1,349,0.54931378364563,oven,oven,120,0349_ps_s02_120_oven_10_n04111531_8988.png
subject-02,1,350,0.977267980575562,clock,airplane,180,0350_ps_s02_180_airplane_10_n02690373_2026.png
subject-02,1,351,0.593706130981445,truck,boat,120,0351_ps_s02_120_boat_10_n03344393_8878.png
subject-02,1,352,0.793017148971558,bottle,chair,180,0352_ps_s02_180_chair_10_n03376595_2891.png
subject-02,1,353,0.785237073898315,truck,truck,60,0353_ps_s02_60_truck_10_n03417042_27022.png
subject-02,1,354,0.791603803634644,chair,bird,150,0354_ps_s02_150_bird_10_n02011460_8224.png
subject-02,1,355,0.700483083724976,elephant,boat,180,0355_ps_s02_180_boat_10_n02951358_3869.png
subject-02,1,356,0.682796955108643,boat,knife,150,0356_ps_s02_150_knife_10_n03041632_28443.png
subject-02,1,357,0.42960786819458,boat,boat,30,0357_ps_s02_30_boat_10_n02951358_2333.png
subject-02,1,358,0.697921991348267,airplane,airplane,60,0358_ps_s02_60_airplane_10_n02690373_10309.png
subject-02,1,359,0.782597064971924,bear,bear,0,0359_ps_s02_0_bear_10_n02134084_11993.png
subject-02,1,360,1.00474190711975,clock,clock,90,0360_ps_s02_90_clock_10_n03196217_5797.png
subject-02,1,361,0.535694122314453,clock,clock,30,0361_ps_s02_30_clock_10_n04548280_117.png
subject-02,1,362,0.735687971115112,bird,bird,0,0362_ps_s02_0_bird_10_n01616318_14191.png
subject-02,1,363,0.580102920532227,keyboard,keyboard,60,0363_ps_s02_60_keyboard_10_n04505470_961.png
subject-02,1,364,0.866132974624634,bird,cat,30,0364_ps_s02_30_cat_10_n02125311_59430.png
subject-02,1,365,1.05853319168091,bottle,oven,30,0365_ps_s02_30_oven_10_n04111531_6412.png
subject-02,1,366,0.496830940246582,cat,truck,120,0366_ps_s02_120_truck_10_n03417042_15045.png
subject-02,1,367,0.52477502822876,chair,chair,30,0367_ps_s02_30_chair_10_n04429376_18227.png
subject-02,1,368,0.884420156478882,elephant,elephant,60,0368_ps_s02_60_elephant_10_n02504013_816.png
subject-02,1,369,0.507370948791504,elephant,elephant,60,0369_ps_s02_60_elephant_10_n02504013_4957.png
subject-02,1,370,0.761682033538818,bottle,bottle,90,0370_ps_s02_90_bottle_10_n04557648_1104.png
subject-02,1,371,0.49213981628418,bear,bear,150,0371_ps_s02_150_bear_10_n02134418_5472.png
subject-02,1,372,0.728531122207642,bicycle,bicycle,150,0372_ps_s02_150_bicycle_10_n03792782_20234.png
subject-02,1,373,0.645223140716553,airplane,airplane,0,0373_ps_s02_0_airplane_10_n02690373_5496.png
subject-02,1,374,0.684258937835693,dog,dog,90,0374_ps_s02_90_dog_10_n02100877_13846.png
subject-02,1,375,0.628436088562012,car,car,30,0375_ps_s02_30_car_10_n03100240_12141.png
subject-02,1,376,0.451583862304688,airplane,airplane,30,0376_ps_s02_30_airplane_10_n02690373_6739.png
subject-02,1,377,0.611541986465454,airplane,airplane,60,0377_ps_s02_60_airplane_10_n02690373_1075.png
subject-02,1,378,0.750633955001831,truck,dog,150,0378_ps_s02_150_dog_10_n02099849_4612.png
subject-02,1,379,0.594877004623413,dog,dog,60,0379_ps_s02_60_dog_10_n02109961_35063.png
subject-02,1,380,0.494988918304443,car,oven,120,0380_ps_s02_120_oven_10_n04111531_7338.png
subject-02,1,381,0.678186178207397,keyboard,car,30,0381_ps_s02_30_car_10_n03100240_9982.png
subject-02,1,382,0.578875064849854,airplane,boat,120,0382_ps_s02_120_boat_10_n03344393_6147.png
subject-02,1,383,0.647591114044189,oven,knife,120,0383_ps_s02_120_knife_10_n03041632_18995.png
subject-02,1,384,0.70281195640564,truck,bottle,180,0384_ps_s02_180_bottle_10_n03937543_5992.png
subject-02,1,385,0.941102027893066,knife,oven,90,0385_ps_s02_90_oven_10_n04111531_5246.png
subject-02,1,386,NaN,na,oven,180,0386_ps_s02_180_oven_10_n04111531_18645.png
subject-02,1,387,0.499958992004395,car,car,30,0387_ps_s02_30_car_10_n04285008_15747.png
subject-02,1,388,0.638345003128052,knife,knife,180,0388_ps_s02_180_knife_10_n03041632_24228.png
subject-02,1,389,0.484766960144043,car,car,60,0389_ps_s02_60_car_10_n02814533_10493.png
subject-02,1,390,0.630305051803589,cat,bird,120,0390_ps_s02_120_bird_10_n02006656_9652.png
subject-02,1,391,0.614264011383057,oven,oven,0,0391_ps_s02_0_oven_10_n04111531_4549.png
subject-02,1,392,0.528869152069092,dog,dog,60,0392_ps_s02_60_dog_10_n02093647_2427.png
subject-02,1,393,0.712718963623047,elephant,bottle,0,0393_ps_s02_0_bottle_10_n04557648_2635.png
subject-02,1,394,0.795620918273926,car,bottle,150,0394_ps_s02_150_bottle_10_n03937543_4642.png
subject-02,1,395,0.971651077270508,dog,cat,0,0395_ps_s02_0_cat_10_n02123394_583.png
subject-02,1,396,0.654518127441406,bear,keyboard,150,0396_ps_s02_150_keyboard_10_n03085013_15484.png
subject-02,1,397,0.552701950073242,bear,bear,90,0397_ps_s02_90_bear_10_n02133161_1703.png
subject-02,1,398,0.484375953674316,clock,knife,150,0398_ps_s02_150_knife_10_n03041632_94155.png
subject-02,1,399,0.607050180435181,bottle,bottle,90,0399_ps_s02_90_bottle_10_n04560804_4.png
subject-02,1,400,0.921638965606689,keyboard,car,120,0400_ps_s02_120_car_10_n04285008_10561.png
subject-02,1,401,0.484982013702393,oven,keyboard,90,0401_ps_s02_90_keyboard_10_n03085013_22605.png
subject-02,1,402,0.445255041122437,chair,elephant,150,0402_ps_s02_150_elephant_10_n02504013_7081.png
subject-02,1,403,0.522073984146118,chair,oven,180,0403_ps_s02_180_oven_10_n04111531_9334.png
subject-02,1,404,0.336261987686157,boat,airplane,150,0404_ps_s02_150_airplane_10_n02690373_20242.png
subject-02,1,405,0.81237006187439,elephant,chair,150,0405_ps_s02_150_chair_10_n04429376_8881.png
subject-02,1,406,0.626666069030762,knife,knife,60,0406_ps_s02_60_knife_10_n03041632_33739.png
subject-02,1,407,1.40374398231506,clock,airplane,180,0407_ps_s02_180_airplane_10_n02690373_9926.png
subject-02,1,408,0.587805032730103,chair,bicycle,120,0408_ps_s02_120_bicycle_10_n03792782_31116.png
subject-02,1,409,0.92442798614502,car,bottle,180,0409_ps_s02_180_bottle_10_n03983396_2960.png
subject-02,1,410,0.978937864303589,bird,car,150,0410_ps_s02_150_car_10_n04285008_10223.png
subject-02,1,411,1.08609509468079,bicycle,bicycle,0,0411_ps_s02_0_bicycle_10_n02835271_15301.png
subject-02,1,412,0.785858154296875,keyboard,truck,120,0412_ps_s02_120_truck_10_n04467665_1174.png
subject-02,1,413,0.531036138534546,oven,knife,90,0413_ps_s02_90_knife_10_n03041632_102828.png
subject-02,1,414,0.661346912384033,bear,dog,150,0414_ps_s02_150_dog_10_n02099429_4235.png
subject-02,1,415,0.507749080657959,cat,cat,60,0415_ps_s02_60_cat_10_n02124075_8910.png
subject-02,1,416,0.560064792633057,bicycle,bicycle,0,0416_ps_s02_0_bicycle_10_n02835271_3961.png
subject-02,1,417,0.644395112991333,bear,bottle,90,0417_ps_s02_90_bottle_10_n04557648_2571.png
subject-02,1,418,0.512797117233276,airplane,elephant,180,0418_ps_s02_180_elephant_10_n02504013_7314.png
subject-02,1,419,0.743901014328003,truck,bird,180,0419_ps_s02_180_bird_10_n01817953_5781.png
subject-02,1,420,0.612588167190552,cat,cat,120,0420_ps_s02_120_cat_10_n02123159_3149.png
subject-02,1,421,0.805465936660767,chair,oven,30,0421_ps_s02_30_oven_10_n04111531_7034.png
subject-02,1,422,0.504027843475342,clock,clock,0,0422_ps_s02_0_clock_10_n02708093_107.png
subject-02,1,423,0.504611015319824,chair,chair,60,0423_ps_s02_60_chair_10_n04099969_3297.png
subject-02,1,424,0.494954109191895,cat,cat,0,0424_ps_s02_0_cat_10_n02123159_13542.png
subject-02,1,425,0.457327127456665,bicycle,bicycle,0,0425_ps_s02_0_bicycle_10_n02835271_8511.png
subject-02,1,426,0.709885835647583,airplane,airplane,150,0426_ps_s02_150_airplane_10_n02690373_5909.png
subject-02,1,427,0.478487014770508,boat,keyboard,180,0427_ps_s02_180_keyboard_10_n03085013_4136.png
subject-02,1,428,0.593492031097412,keyboard,keyboard,30,0428_ps_s02_30_keyboard_10_n04505470_943.png
subject-02,1,429,0.699197053909302,chair,chair,30,0429_ps_s02_30_chair_10_n02791124_1682.png
subject-02,1,430,0.830518007278442,truck,keyboard,180,0430_ps_s02_180_keyboard_10_n03085013_18821.png
subject-02,1,431,0.5933837890625,airplane,boat,60,0431_ps_s02_60_boat_10_n04273569_1728.png
subject-02,1,432,0.815364122390747,clock,clock,120,0432_ps_s02_120_clock_10_n04548280_1132.png
subject-02,1,433,0.660544872283936,boat,bottle,180,0433_ps_s02_180_bottle_10_n02823428_8167.png
subject-02,1,434,0.660629987716675,boat,boat,0,0434_ps_s02_0_boat_10_n04273569_17787.png
subject-02,1,435,0.636925935745239,airplane,car,180,0435_ps_s02_180_car_10_n04285008_13267.png
subject-02,1,436,0.681348085403442,airplane,airplane,90,0436_ps_s02_90_airplane_10_n02690373_1983.png
subject-02,1,437,0.75803804397583,bird,bottle,150,0437_ps_s02_150_bottle_10_n04579145_1461.png
subject-02,1,438,0.64246392250061,dog,car,180,0438_ps_s02_180_car_10_n03100240_5924.png
subject-02,1,439,0.533359050750732,cat,cat,30,0439_ps_s02_30_cat_10_n02123159_7089.png
subject-02,1,440,0.763307094573975,car,oven,180,0440_ps_s02_180_oven_10_n04111531_6080.png
subject-02,1,441,0.672768831253052,boat,boat,90,0441_ps_s02_90_boat_10_n02951358_34307.png
subject-02,1,442,0.671283006668091,car,truck,60,0442_ps_s02_60_truck_10_n04467665_22494.png
subject-02,1,443,0.856430053710938,knife,knife,60,0443_ps_s02_60_knife_10_n03041632_21590.png
subject-02,1,444,0.771450996398926,truck,boat,150,0444_ps_s02_150_boat_10_n03344393_2916.png
subject-02,1,445,0.793256998062134,dog,dog,0,0445_ps_s02_0_dog_10_n02097298_9593.png
subject-02,1,446,0.74617600440979,bottle,knife,0,0446_ps_s02_0_knife_10_n03041632_91967.png
subject-02,1,447,0.592459917068481,elephant,airplane,120,0447_ps_s02_120_airplane_10_n02690373_4507.png
subject-02,1,448,0.761618852615356,keyboard,keyboard,150,0448_ps_s02_150_keyboard_10_n04505470_2093.png
subject-02,1,449,0.914315938949585,bear,bear,30,0449_ps_s02_30_bear_10_n02134418_188.png
subject-02,1,450,0.639659881591797,cat,bird,90,0450_ps_s02_90_bird_10_n01614925_686.png
subject-02,1,451,0.52119517326355,keyboard,keyboard,60,0451_ps_s02_60_keyboard_10_n03085013_24416.png
subject-02,1,452,0.514492988586426,dog,boat,150,0452_ps_s02_150_boat_10_n02951358_14366.png
subject-02,1,453,0.583125114440918,bottle,bottle,30,0453_ps_s02_30_bottle_10_n02823428_9999.png
subject-02,1,454,0.557204008102417,oven,airplane,120,0454_ps_s02_120_airplane_10_n02690373_20033.png
subject-02,1,455,0.863367080688477,car,boat,180,0455_ps_s02_180_boat_10_n03662601_8667.png
subject-02,1,456,0.763942003250122,elephant,bird,150,0456_ps_s02_150_bird_10_n01530575_10217.png
subject-02,1,457,0.524394989013672,bicycle,dog,150,0457_ps_s02_150_dog_10_n02110958_11417.png
subject-02,1,458,0.784619092941284,dog,dog,120,0458_ps_s02_120_dog_10_n02111129_6372.png
subject-02,1,459,0.51505708694458,car,car,30,0459_ps_s02_30_car_10_n04285008_903.png
subject-02,1,460,0.637670993804932,truck,keyboard,150,0460_ps_s02_150_keyboard_10_n03085013_21097.png
subject-02,1,461,0.760213851928711,airplane,dog,180,0461_ps_s02_180_dog_10_n02099267_3431.png
subject-02,1,462,0.398765802383423,clock,clock,90,0462_ps_s02_90_clock_10_n03196217_4325.png
subject-02,1,463,0.70576810836792,elephant,airplane,180,0463_ps_s02_180_airplane_10_n02690373_6362.png
subject-02,1,464,0.817726850509644,oven,oven,90,0464_ps_s02_90_oven_10_n04111531_615.png
subject-02,1,465,0.631331920623779,boat,dog,120,0465_ps_s02_120_dog_10_n02105505_5536.png
subject-02,1,466,0.540724039077759,truck,truck,90,0466_ps_s02_90_truck_10_n03796401_6402.png
subject-02,1,467,0.723204135894775,bird,bird,60,0467_ps_s02_60_bird_10_n01560419_374.png
subject-02,1,468,0.46980094909668,bear,bear,120,0468_ps_s02_120_bear_10_n02132136_66.png
subject-02,1,469,0.660323143005371,dog,dog,90,0469_ps_s02_90_dog_10_n02108551_7113.png
subject-02,1,470,0.566996812820435,clock,clock,60,0470_ps_s02_60_clock_10_n04548280_5406.png
subject-02,1,471,0.621281147003174,chair,chair,0,0471_ps_s02_0_chair_10_n03376595_9523.png
subject-02,1,472,0.627705097198486,bird,bird,0,0472_ps_s02_0_bird_10_n01833805_3619.png
subject-02,1,473,0.718703985214233,bottle,keyboard,150,0473_ps_s02_150_keyboard_10_n04505470_272.png
subject-02,1,474,0.656414985656738,knife,knife,0,0474_ps_s02_0_knife_10_n03041632_737.png
subject-02,1,475,0.800827026367188,elephant,elephant,120,0475_ps_s02_120_elephant_10_n02504458_12705.png
subject-02,1,476,0.468426942825317,bird,cat,90,0476_ps_s02_90_cat_10_n02125311_16635.png
subject-02,1,477,0.529574871063232,cat,cat,90,0477_ps_s02_90_cat_10_n02123394_8299.png
subject-02,1,478,0.630825996398926,keyboard,keyboard,90,0478_ps_s02_90_keyboard_10_n03085013_20710.png
subject-02,1,479,0.523259878158569,boat,boat,30,0479_ps_s02_30_boat_10_n03662601_2649.png
subject-02,1,480,0.622465133666992,bottle,bottle,30,0480_ps_s02_30_bottle_10_n04560804_8363.png
subject-02,1,481,0.605468988418579,bear,bear,30,0481_ps_s02_30_bear_10_n02134418_5643.png
subject-02,1,482,0.49860405921936,chair,oven,0,0482_ps_s02_0_oven_10_n04111531_7134.png
subject-02,1,483,0.618770837783813,car,car,150,0483_ps_s02_150_car_10_n04285008_14972.png
subject-02,1,484,0.511459827423096,bear,bear,60,0484_ps_s02_60_bear_10_n02132136_5289.png
subject-02,1,485,0.447893142700195,cat,cat,30,0485_ps_s02_30_cat_10_n02123394_4449.png
subject-02,1,486,0.786216020584106,elephant,bear,150,0486_ps_s02_150_bear_10_n02132136_8077.png
subject-02,1,487,0.768703937530518,airplane,airplane,0,0487_ps_s02_0_airplane_10_n02690373_102.png
subject-02,1,488,0.723680019378662,knife,bottle,90,0488_ps_s02_90_bottle_10_n04557648_4898.png
subject-02,1,489,0.689598083496094,airplane,airplane,60,0489_ps_s02_60_airplane_10_n02690373_2584.png
subject-02,1,490,0.544577121734619,car,car,30,0490_ps_s02_30_car_10_n04285008_13865.png
subject-02,1,491,0.751199960708618,bicycle,bicycle,30,0491_ps_s02_30_bicycle_10_n02835271_7663.png
subject-02,1,492,0.865875005722046,bottle,oven,60,0492_ps_s02_60_oven_10_n04111531_2795.png
subject-02,1,493,0.479635000228882,chair,chair,30,0493_ps_s02_30_chair_10_n02791124_2954.png
subject-02,1,494,0.556210994720459,dog,dog,0,0494_ps_s02_0_dog_10_n02109047_10687.png
subject-02,1,495,0.646553993225098,airplane,airplane,0,0495_ps_s02_0_airplane_10_n02690373_191.png
subject-02,1,496,0.544910907745361,car,clock,60,0496_ps_s02_60_clock_10_n04548280_8322.png
subject-02,1,497,0.721152067184448,truck,dog,150,0497_ps_s02_150_dog_10_n02107574_187.png
subject-02,1,498,0.414078950881958,clock,knife,180,0498_ps_s02_180_knife_10_n03041632_38610.png
subject-02,1,499,0.487726926803589,bottle,bottle,30,0499_ps_s02_30_bottle_10_n04579145_256.png
subject-02,1,500,1.15638494491577,dog,cat,90,0500_ps_s02_90_cat_10_n02123597_11915.png
subject-02,1,501,0.557683944702148,cat,dog,30,0501_ps_s02_30_dog_10_n02110627_13749.png
subject-02,1,502,0.396013975143433,clock,clock,30,0502_ps_s02_30_clock_10_n04548280_993.png
subject-02,1,503,0.770251035690308,bird,boat,150,0503_ps_s02_150_boat_10_n02951358_22332.png
subject-02,1,504,1.26848006248474,clock,knife,60,0504_ps_s02_60_knife_10_n03041632_4787.png
subject-02,1,505,0.861277103424072,bear,bear,90,0505_ps_s02_90_bear_10_n02134418_11554.png
subject-02,1,506,0.597414016723633,cat,cat,30,0506_ps_s02_30_cat_10_n02123045_12558.png
subject-02,1,507,0.503707885742188,car,oven,180,0507_ps_s02_180_oven_10_n04111531_6181.png
subject-02,1,508,0.520745992660522,airplane,airplane,0,0508_ps_s02_0_airplane_10_n02690373_5870.png
subject-02,1,509,0.602097034454346,oven,oven,0,0509_ps_s02_0_oven_10_n04111531_4988.png
subject-02,1,510,0.609541893005371,chair,car,150,0510_ps_s02_150_car_10_n02814533_44587.png
subject-02,1,511,0.517793893814087,elephant,elephant,0,0511_ps_s02_0_elephant_10_n02504013_1719.png
subject-02,1,512,0.676024913787842,boat,truck,180,0512_ps_s02_180_truck_10_n03417042_15482.png
subject-02,1,513,0.760369062423706,truck,bear,150,0513_ps_s02_150_bear_10_n02133161_9669.png
subject-02,1,514,0.666975021362305,bottle,oven,120,0514_ps_s02_120_oven_10_n04111531_10664.png
subject-02,1,515,0.573173046112061,knife,bottle,150,0515_ps_s02_150_bottle_10_n03983396_7512.png
subject-02,1,516,0.804676055908203,bird,bird,30,0516_ps_s02_30_bird_10_n01532829_2442.png
subject-02,1,517,0.573003053665161,bear,elephant,180,0517_ps_s02_180_elephant_10_n02504013_8638.png
subject-02,1,518,0.457952976226807,bottle,bottle,60,0518_ps_s02_60_bottle_10_n04560804_30126.png
subject-02,1,519,0.848140001296997,oven,knife,90,0519_ps_s02_90_knife_10_n03041632_26053.png
subject-02,1,520,0.623792886734009,elephant,elephant,30,0520_ps_s02_30_elephant_10_n02504458_3731.png
subject-02,1,521,0.430145978927612,oven,oven,30,0521_ps_s02_30_oven_10_n04111531_7449.png
subject-02,1,522,1.14345812797546,truck,truck,0,0522_ps_s02_0_truck_10_n03796401_3900.png
subject-02,1,523,1.00600409507751,bicycle,bear,180,0523_ps_s02_180_bear_10_n02134418_9205.png
subject-02,1,524,1.11222195625305,car,boat,150,0524_ps_s02_150_boat_10_n03344393_4264.png
subject-02,1,525,0.559221029281616,keyboard,cat,150,0525_ps_s02_150_cat_10_n02123045_4482.png
subject-02,1,526,0.774041891098022,truck,truck,30,0526_ps_s02_30_truck_10_n04467665_11487.png
subject-02,1,527,1.14000296592712,airplane,cat,120,0527_ps_s02_120_cat_10_n02124075_1575.png
subject-02,1,528,0.700632095336914,cat,bottle,180,0528_ps_s02_180_bottle_10_n03937543_4220.png
subject-02,1,529,0.868553161621094,bottle,bottle,120,0529_ps_s02_120_bottle_10_n02823428_5874.png
subject-02,1,530,0.683175086975098,knife,chair,150,0530_ps_s02_150_chair_10_n03376595_2004.png
subject-02,1,531,0.459321022033691,airplane,airplane,30,0531_ps_s02_30_airplane_10_n02690373_16620.png
subject-02,1,532,0.520321846008301,bottle,bottle,60,0532_ps_s02_60_bottle_10_n03983396_4996.png
subject-02,1,533,0.788613080978394,oven,oven,90,0533_ps_s02_90_oven_10_n04111531_101.png
subject-02,1,534,0.586868047714233,car,car,0,0534_ps_s02_0_car_10_n02814533_40178.png
subject-02,1,535,0.63112998008728,keyboard,bird,150,0535_ps_s02_150_bird_10_n01855672_14768.png
subject-02,1,536,0.562494993209839,bear,bear,60,0536_ps_s02_60_bear_10_n02133161_7032.png
subject-02,1,537,0.844584941864014,airplane,knife,120,0537_ps_s02_120_knife_10_n03041632_44238.png
subject-02,1,538,0.797209024429321,dog,dog,30,0538_ps_s02_30_dog_10_n02102480_12073.png
subject-02,1,539,0.57354998588562,chair,chair,180,0539_ps_s02_180_chair_10_n03376595_7073.png
subject-02,1,540,0.495820999145508,keyboard,keyboard,60,0540_ps_s02_60_keyboard_10_n03085013_24439.png
subject-02,1,541,0.740293025970459,car,bicycle,120,0541_ps_s02_120_bicycle_10_n03792782_8057.png
subject-02,1,542,0.685196876525879,bird,bird,30,0542_ps_s02_30_bird_10_n02006656_11006.png
subject-02,1,543,0.574642896652222,bicycle,truck,180,0543_ps_s02_180_truck_10_n04467665_53901.png
subject-02,1,544,1.01133394241333,bird,clock,60,0544_ps_s02_60_clock_10_n04548280_5405.png
subject-02,1,545,0.749238014221191,car,car,90,0545_ps_s02_90_car_10_n04285008_12919.png
subject-02,1,546,0.487982988357544,dog,dog,90,0546_ps_s02_90_dog_10_n02101006_6155.png
subject-02,1,547,0.762186050415039,bird,bird,60,0547_ps_s02_60_bird_10_n02009229_1905.png
subject-02,1,548,0.500226974487305,keyboard,car,150,0548_ps_s02_150_car_10_n03100240_3244.png
subject-02,1,549,0.737313032150269,elephant,chair,150,0549_ps_s02_150_chair_10_n04099969_39918.png
subject-02,1,550,0.590363025665283,knife,knife,120,0550_ps_s02_120_knife_10_n03041632_44019.png
subject-02,1,551,0.558156967163086,bear,bear,30,0551_ps_s02_30_bear_10_n02132136_239.png
subject-02,1,552,0.517773151397705,truck,boat,150,0552_ps_s02_150_boat_10_n03662601_12886.png
subject-02,1,553,0.546787023544312,chair,bird,180,0553_ps_s02_180_bird_10_n02006656_10849.png
subject-02,1,554,0.652029037475586,bear,bear,120,0554_ps_s02_120_bear_10_n02132136_3412.png
subject-02,1,555,0.588625907897949,airplane,airplane,60,0555_ps_s02_60_airplane_10_n02690373_9720.png
subject-02,1,556,0.565428018569946,bird,bird,120,0556_ps_s02_120_bird_10_n02018207_7398.png
subject-02,1,557,0.603256940841675,bicycle,bicycle,120,0557_ps_s02_120_bicycle_10_n03792782_1400.png
subject-02,1,558,0.569919109344482,elephant,elephant,30,0558_ps_s02_30_elephant_10_n02504458_3851.png
subject-02,1,559,0.637984037399292,chair,chair,0,0559_ps_s02_0_chair_10_n02791124_5136.png
subject-02,1,560,0.706664085388184,bottle,keyboard,90,0560_ps_s02_90_keyboard_10_n03085013_5738.png
subject-02,1,561,0.575217008590698,keyboard,elephant,180,0561_ps_s02_180_elephant_10_n02504013_1647.png
subject-02,1,562,0.489878177642822,oven,chair,150,0562_ps_s02_150_chair_10_n02791124_3781.png
subject-02,1,563,0.527078151702881,keyboard,keyboard,0,0563_ps_s02_0_keyboard_10_n03085013_4914.png
subject-02,1,564,0.581454038619995,cat,cat,90,0564_ps_s02_90_cat_10_n02123045_945.png
subject-02,1,565,0.56936502456665,boat,boat,30,0565_ps_s02_30_boat_10_n04612504_14714.png
subject-02,1,566,0.583258867263794,bird,bird,0,0566_ps_s02_0_bird_10_n01795545_13117.png
subject-02,1,567,0.659642934799194,keyboard,keyboard,30,0567_ps_s02_30_keyboard_10_n04505470_5726.png
subject-02,1,568,0.721595048904419,boat,cat,120,0568_ps_s02_120_cat_10_n02123394_3700.png
subject-02,1,569,0.843800067901611,knife,knife,60,0569_ps_s02_60_knife_10_n03041632_424.png
subject-02,1,570,0.666562080383301,bottle,bottle,30,0570_ps_s02_30_bottle_10_n04560804_2454.png
subject-02,1,571,0.540106058120728,truck,truck,30,0571_ps_s02_30_truck_10_n03417042_3422.png
subject-02,1,572,0.770695924758911,bear,bear,120,0572_ps_s02_120_bear_10_n02134084_2134.png
subject-02,1,573,0.652500152587891,clock,clock,60,0573_ps_s02_60_clock_10_n04548280_3708.png
subject-02,1,574,0.636192798614502,boat,boat,60,0574_ps_s02_60_boat_10_n02951358_6065.png
subject-02,1,575,0.443624019622803,clock,clock,60,0575_ps_s02_60_clock_10_n04548280_8494.png
subject-02,1,576,0.419508934020996,clock,clock,120,0576_ps_s02_120_clock_10_n04548280_5556.png
subject-02,1,577,0.618150949478149,car,boat,150,0577_ps_s02_150_boat_10_n04612504_34765.png
subject-02,1,578,0.954180002212524,car,clock,30,0578_ps_s02_30_clock_10_n03196217_8221.png
subject-02,1,579,0.899133920669556,bird,bottle,90,0579_ps_s02_90_bottle_10_n04591713_3662.png
subject-02,1,580,0.605987071990967,dog,dog,0,0580_ps_s02_0_dog_10_n02093428_3869.png
subject-02,1,581,0.622563123703003,clock,clock,120,0581_ps_s02_120_clock_10_n03196217_8614.png
subject-02,1,582,0.596963167190552,elephant,cat,150,0582_ps_s02_150_cat_10_n02123597_6491.png
subject-02,1,583,0.911233901977539,bird,bird,30,0583_ps_s02_30_bird_10_n01601694_15462.png
subject-02,1,584,0.817876100540161,bear,truck,120,0584_ps_s02_120_truck_10_n03417042_27982.png
subject-02,1,585,0.815968990325928,elephant,elephant,60,0585_ps_s02_60_elephant_10_n02504013_2653.png
subject-02,1,586,0.868160963058472,bicycle,bicycle,0,0586_ps_s02_0_bicycle_10_n03792782_51860.png
subject-02,1,587,0.423655033111572,boat,truck,90,0587_ps_s02_90_truck_10_n03417042_3940.png
subject-02,1,588,0.646108865737915,cat,airplane,180,0588_ps_s02_180_airplane_10_n02690373_12976.png
subject-02,1,589,0.621124029159546,bird,bird,90,0589_ps_s02_90_bird_10_n01601694_5359.png
subject-02,1,590,0.551300048828125,bird,bird,0,0590_ps_s02_0_bird_10_n02002724_2053.png
subject-02,1,591,0.649467945098877,dog,dog,60,0591_ps_s02_60_dog_10_n02098286_6246.png
subject-02,1,592,0.9478440284729,bird,bird,0,0592_ps_s02_0_bird_10_n01818515_8582.png
subject-02,1,593,0.784461975097656,car,clock,150,0593_ps_s02_150_clock_10_n03196217_6809.png
subject-02,1,594,0.485456943511963,boat,boat,30,0594_ps_s02_30_boat_10_n03662601_22434.png
subject-02,1,595,0.951919078826904,elephant,chair,180,0595_ps_s02_180_chair_10_n04099969_24309.png
subject-02,1,596,0.92821192741394,airplane,dog,150,0596_ps_s02_150_dog_10_n02096437_6855.png
subject-02,1,597,0.626851081848145,bicycle,bottle,150,0597_ps_s02_150_bottle_10_n04560804_2984.png
subject-02,1,598,0.474174976348877,keyboard,keyboard,30,0598_ps_s02_30_keyboard_10_n04505470_4033.png
subject-02,1,599,0.656049013137817,airplane,airplane,0,0599_ps_s02_0_airplane_10_n02690373_18506.png
subject-02,1,600,0.678311824798584,bird,bottle,120,0600_ps_s02_120_bottle_10_n04560804_828.png
subject-02,1,601,0.555345058441162,bottle,bottle,0,0601_ps_s02_0_bottle_10_n04560804_11775.png
subject-02,1,602,0.545686960220337,oven,oven,60,0602_ps_s02_60_oven_10_n04111531_10640.png
subject-02,1,603,0.422443866729736,boat,boat,60,0603_ps_s02_60_boat_10_n02951358_853.png
subject-02,1,604,0.813462972640991,truck,knife,150,0604_ps_s02_150_knife_10_n03041632_37274.png
subject-02,1,605,0.475779056549072,keyboard,keyboard,180,0605_ps_s02_180_keyboard_10_n03085013_20597.png
subject-02,1,606,0.697028875350952,dog,dog,60,0606_ps_s02_60_dog_10_n02086079_19238.png
subject-02,1,607,0.619669914245605,cat,car,180,0607_ps_s02_180_car_10_n04285008_8255.png
subject-02,1,608,0.720202922821045,bear,chair,150,0608_ps_s02_150_chair_10_n03376595_2333.png
subject-02,1,609,0.532845973968506,elephant,elephant,180,0609_ps_s02_180_elephant_10_n02504013_308.png
subject-02,1,610,1.0008339881897,bird,bear,90,0610_ps_s02_90_bear_10_n02132136_7842.png
subject-02,1,611,0.516117095947266,car,boat,120,0611_ps_s02_120_boat_10_n03344393_5946.png
subject-02,1,612,0.621500015258789,airplane,airplane,90,0612_ps_s02_90_airplane_10_n02690373_9471.png
subject-02,1,613,0.482951879501343,keyboard,keyboard,90,0613_ps_s02_90_keyboard_10_n03085013_20884.png
subject-02,1,614,0.513590097427368,boat,oven,180,0614_ps_s02_180_oven_10_n04111531_10419.png
subject-02,1,615,0.928526878356934,oven,oven,60,0615_ps_s02_60_oven_10_n04111531_8852.png
subject-02,1,616,0.680558919906616,dog,bear,60,0616_ps_s02_60_bear_10_n02132136_7318.png
subject-02,1,617,0.525038003921509,clock,clock,0,0617_ps_s02_0_clock_10_n04548280_1036.png
subject-02,1,618,0.607706069946289,chair,dog,30,0618_ps_s02_30_dog_10_n02109047_6292.png
subject-02,1,619,0.667746067047119,boat,truck,30,0619_ps_s02_30_truck_10_n03417042_3657.png
subject-02,1,620,0.674501895904541,bicycle,dog,180,0620_ps_s02_180_dog_10_n02099601_9643.png
subject-02,1,621,0.65867805480957,oven,cat,120,0621_ps_s02_120_cat_10_n02123394_7077.png
subject-02,1,622,0.443915843963623,oven,oven,60,0622_ps_s02_60_oven_10_n04111531_716.png
subject-02,1,623,0.750655889511108,oven,car,150,0623_ps_s02_150_car_10_n03100240_3505.png
subject-02,1,624,0.807810068130493,airplane,truck,180,0624_ps_s02_180_truck_10_n04467665_61362.png
subject-02,1,625,0.751568078994751,bird,bicycle,150,0625_ps_s02_150_bicycle_10_n03792782_15219.png
subject-02,1,626,0.473289012908936,boat,boat,0,0626_ps_s02_0_boat_10_n03662601_19700.png
subject-02,1,627,0.671296119689941,truck,dog,180,0627_ps_s02_180_dog_10_n02110185_13358.png
subject-02,1,628,0.577512979507446,bicycle,bicycle,30,0628_ps_s02_30_bicycle_10_n03792782_6798.png
subject-02,1,629,0.684428930282593,bird,bird,90,0629_ps_s02_90_bird_10_n01582220_2478.png
subject-02,1,630,0.458659887313843,cat,cat,90,0630_ps_s02_90_cat_10_n02124075_5365.png
subject-02,1,631,1.00253486633301,bear,bear,60,0631_ps_s02_60_bear_10_n02133161_11944.png
subject-02,1,632,1.11737704277039,cat,bear,90,0632_ps_s02_90_bear_10_n02133161_1296.png
subject-02,1,633,0.577954053878784,keyboard,keyboard,120,0633_ps_s02_120_keyboard_10_n04505470_518.png
subject-02,1,634,0.524333953857422,cat,keyboard,30,0634_ps_s02_30_keyboard_10_n03085013_23769.png
subject-02,1,635,0.828844785690308,car,car,0,0635_ps_s02_0_car_10_n02814533_89801.png
subject-02,1,636,0.820784091949463,dog,dog,90,0636_ps_s02_90_dog_10_n02100583_7364.png
subject-02,1,637,0.657602071762085,bird,cat,180,0637_ps_s02_180_cat_10_n02123159_6115.png
subject-02,1,638,0.909890174865723,chair,car,150,0638_ps_s02_150_car_10_n03100240_21833.png
subject-02,1,639,0.508437871932983,cat,cat,60,0639_ps_s02_60_cat_10_n02124075_21297.png
subject-02,1,640,0.830711841583252,airplane,keyboard,120,0640_ps_s02_120_keyboard_10_n04505470_2921.png
subject-02,1,641,0.895125865936279,airplane,airplane,150,0641_ps_s02_150_airplane_10_n02690373_3589.png
subject-02,1,642,0.685907125473022,boat,boat,90,0642_ps_s02_90_boat_10_n03344393_4616.png
subject-02,1,643,0.730340003967285,elephant,boat,180,0643_ps_s02_180_boat_10_n03662601_10289.png
subject-02,1,644,0.65308403968811,oven,elephant,180,0644_ps_s02_180_elephant_10_n02504458_3535.png
subject-02,1,645,0.708068132400513,boat,truck,0,0645_ps_s02_0_truck_10_n04467665_48649.png
subject-02,1,646,0.720199108123779,bird,bear,90,0646_ps_s02_90_bear_10_n02134418_1882.png
subject-02,1,647,0.597119092941284,bicycle,bicycle,60,0647_ps_s02_60_bicycle_10_n02835271_7476.png
subject-02,1,648,0.527302026748657,car,clock,120,0648_ps_s02_120_clock_10_n04548280_549.png
subject-02,1,649,0.833735942840576,knife,clock,180,0649_ps_s02_180_clock_10_n02708093_3763.png
subject-02,1,650,0.85400390625,cat,bird,150,0650_ps_s02_150_bird_10_n01829413_1892.png
subject-02,1,651,0.572786808013916,dog,clock,180,0651_ps_s02_180_clock_10_n02708093_6619.png
subject-02,1,652,0.595423936843872,bottle,airplane,150,0652_ps_s02_150_airplane_10_n02690373_21922.png
subject-02,1,653,0.471235036849976,clock,clock,30,0653_ps_s02_30_clock_10_n04548280_3299.png
subject-02,1,654,0.662781000137329,bird,bird,60,0654_ps_s02_60_bird_10_n02028035_7338.png
subject-02,1,655,0.684809923171997,bottle,dog,180,0655_ps_s02_180_dog_10_n02090721_7222.png
subject-02,1,656,0.469995975494385,cat,cat,0,0656_ps_s02_0_cat_10_n02123045_10251.png
subject-02,1,657,0.644224166870117,bicycle,bicycle,60,0657_ps_s02_60_bicycle_10_n03792782_7479.png
subject-02,1,658,0.513185024261475,cat,cat,90,0658_ps_s02_90_cat_10_n02123159_5652.png
subject-02,1,659,0.681772947311401,elephant,elephant,30,0659_ps_s02_30_elephant_10_n02504013_1502.png
subject-02,1,660,0.509917020797729,car,bicycle,180,0660_ps_s02_180_bicycle_10_n03792782_5180.png
subject-02,1,661,0.499591827392578,car,truck,120,0661_ps_s02_120_truck_10_n03796401_10519.png
subject-02,1,662,0.613971948623657,dog,dog,30,0662_ps_s02_30_dog_10_n02108000_3457.png
subject-02,1,663,0.653429985046387,bicycle,bicycle,90,0663_ps_s02_90_bicycle_10_n03792782_5696.png
subject-02,1,664,0.649098873138428,elephant,elephant,90,0664_ps_s02_90_elephant_10_n02504013_20780.png
subject-02,1,665,0.750054836273193,keyboard,boat,120,0665_ps_s02_120_boat_10_n04273569_1600.png
subject-02,1,666,1.10280585289001,bear,bicycle,150,0666_ps_s02_150_bicycle_10_n02835271_14361.png
subject-02,1,667,0.800827980041504,airplane,clock,150,0667_ps_s02_150_clock_10_n03196217_5463.png
subject-02,1,668,0.829504013061523,bottle,boat,120,0668_ps_s02_120_boat_10_n03662601_13244.png
subject-02,1,669,0.737696886062622,truck,truck,0,0669_ps_s02_0_truck_10_n03417042_3146.png
subject-02,1,670,0.729321956634521,knife,knife,60,0670_ps_s02_60_knife_10_n03041632_8321.png
subject-02,1,671,0.627851009368896,boat,boat,60,0671_ps_s02_60_boat_10_n02951358_15413.png
subject-02,1,672,0.580113887786865,truck,truck,0,0672_ps_s02_0_truck_10_n03796401_9181.png
subject-02,1,673,0.602749109268188,bird,bird,30,0673_ps_s02_30_bird_10_n01855672_898.png
subject-02,1,674,0.408921957015991,car,bicycle,180,0674_ps_s02_180_bicycle_10_n02835271_439.png
subject-02,1,675,0.348331928253174,boat,dog,150,0675_ps_s02_150_dog_10_n02099849_114.png
subject-02,1,676,0.714745044708252,knife,knife,30,0676_ps_s02_30_knife_10_n03041632_3326.png
subject-02,1,677,0.422973871231079,bear,truck,120,0677_ps_s02_120_truck_10_n03417042_9668.png
subject-02,1,678,1.18636393547058,keyboard,keyboard,30,0678_ps_s02_30_keyboard_10_n03085013_1797.png
subject-02,1,679,0.632299900054932,oven,elephant,180,0679_ps_s02_180_elephant_10_n02504013_5397.png
subject-02,1,680,0.576771974563599,bear,bear,30,0680_ps_s02_30_bear_10_n02132136_11183.png
subject-02,1,681,0.73699688911438,cat,elephant,150,0681_ps_s02_150_elephant_10_n02504458_6694.png
subject-02,1,682,0.68930983543396,cat,dog,60,0682_ps_s02_60_dog_10_n02097130_7771.png
subject-02,1,683,0.542116165161133,airplane,bicycle,150,0683_ps_s02_150_bicycle_10_n03792782_1979.png
subject-02,1,684,0.489484071731567,car,car,30,0684_ps_s02_30_car_10_n04285008_5212.png
subject-02,1,685,0.541277170181274,truck,truck,0,0685_ps_s02_0_truck_10_n03796401_25445.png
subject-02,1,686,0.669634819030762,airplane,airplane,90,0686_ps_s02_90_airplane_10_n02690373_1434.png
subject-02,1,687,0.860201835632324,keyboard,bicycle,180,0687_ps_s02_180_bicycle_10_n03792782_10325.png
subject-02,1,688,0.488029956817627,clock,clock,0,0688_ps_s02_0_clock_10_n03196217_6672.png
subject-02,1,689,0.518436908721924,oven,bottle,60,0689_ps_s02_60_bottle_10_n04560804_15398.png
subject-02,1,690,0.670938968658447,chair,chair,0,0690_ps_s02_0_chair_10_n04099969_2574.png
subject-02,1,691,0.615514039993286,car,car,90,0691_ps_s02_90_car_10_n03100240_770.png
subject-02,1,692,0.729549169540405,truck,truck,60,0692_ps_s02_60_truck_10_n03417042_5691.png
subject-02,1,693,0.544080018997192,bicycle,bicycle,120,0693_ps_s02_120_bicycle_10_n03792782_15808.png
subject-02,1,694,0.680450916290283,bear,bird,180,0694_ps_s02_180_bird_10_n01843065_1157.png
subject-02,1,695,0.955112934112549,keyboard,keyboard,0,0695_ps_s02_0_keyboard_10_n04505470_4628.png
subject-02,1,696,0.837310075759888,airplane,airplane,0,0696_ps_s02_0_airplane_10_n02690373_4465.png
subject-02,1,697,0.492859125137329,cat,cat,90,0697_ps_s02_90_cat_10_n02123394_2648.png
subject-02,1,698,0.829391002655029,dog,dog,60,0698_ps_s02_60_dog_10_n02106166_22531.png
subject-02,1,699,1.30379009246826,airplane,clock,90,0699_ps_s02_90_clock_10_n02708093_2670.png
subject-02,1,700,0.642429828643799,elephant,elephant,0,0700_ps_s02_0_elephant_10_n02504458_7812.png
subject-02,1,701,0.54810094833374,bottle,bottle,0,0701_ps_s02_0_bottle_10_n03937543_4740.png
subject-02,1,702,0.855123996734619,elephant,elephant,30,0702_ps_s02_30_elephant_10_n02504013_13385.png
subject-02,1,703,0.715641975402832,knife,knife,60,0703_ps_s02_60_knife_10_n03041632_1884.png
subject-02,1,704,0.538145065307617,bottle,bottle,0,0704_ps_s02_0_bottle_10_n04579145_6509.png
subject-02,1,705,0.787881851196289,knife,knife,90,0705_ps_s02_90_knife_10_n03041632_50034.png
subject-02,1,706,0.563992023468018,bird,bird,60,0706_ps_s02_60_bird_10_n01601694_20287.png
subject-02,1,707,0.860022068023682,bear,knife,180,0707_ps_s02_180_knife_10_n03041632_24376.png
subject-02,1,708,0.573693037033081,cat,cat,60,0708_ps_s02_60_cat_10_n02123045_9314.png
subject-02,1,709,0.902788162231445,oven,dog,150,0709_ps_s02_150_dog_10_n02112350_9097.png
subject-02,1,710,0.633312940597534,airplane,airplane,60,0710_ps_s02_60_airplane_10_n02690373_5016.png
subject-02,1,711,0.718624830245972,car,car,120,0711_ps_s02_120_car_10_n02814533_92110.png
subject-02,1,712,0.833523035049438,bird,boat,90,0712_ps_s02_90_boat_10_n02951358_14612.png
subject-02,1,713,0.515349149703979,oven,oven,60,0713_ps_s02_60_oven_10_n04111531_24096.png
subject-02,1,714,0.781622886657715,bear,bear,0,0714_ps_s02_0_bear_10_n02133161_22259.png
subject-02,1,715,0.581792831420898,oven,oven,90,0715_ps_s02_90_oven_10_n04111531_6211.png
subject-02,1,716,0.931029081344604,truck,bottle,180,0716_ps_s02_180_bottle_10_n04579145_173.png
subject-02,1,717,0.728976964950562,dog,boat,180,0717_ps_s02_180_boat_10_n02951358_14544.png
subject-02,1,718,0.682129859924316,bicycle,bicycle,0,0718_ps_s02_0_bicycle_10_n02835271_2900.png
subject-02,1,719,0.580216884613037,clock,bottle,60,0719_ps_s02_60_bottle_10_n04557648_207.png
subject-02,1,720,0.932518005371094,airplane,truck,60,0720_ps_s02_60_truck_10_n04467665_79576.png
subject-02,1,721,0.791543960571289,elephant,car,150,0721_ps_s02_150_car_10_n02814533_39517.png
subject-02,1,722,0.944133996963501,bird,cat,120,0722_ps_s02_120_cat_10_n02123159_4084.png
subject-02,1,723,0.567291975021362,bottle,oven,180,0723_ps_s02_180_oven_10_n04111531_13625.png
subject-02,1,724,0.852424144744873,keyboard,car,120,0724_ps_s02_120_car_10_n03100240_14799.png
subject-02,1,725,0.913062810897827,cat,cat,150,0725_ps_s02_150_cat_10_n02124075_3461.png
subject-02,1,726,0.665879011154175,elephant,elephant,0,0726_ps_s02_0_elephant_10_n02504013_1854.png
subject-02,1,727,0.634234189987183,bicycle,bicycle,0,0727_ps_s02_0_bicycle_10_n02835271_5473.png
subject-02,1,728,1.41741609573364,boat,clock,120,0728_ps_s02_120_clock_10_n03196217_3986.png
subject-02,1,729,0.616199970245361,chair,clock,180,0729_ps_s02_180_clock_10_n04548280_2363.png
subject-02,1,730,0.638107061386108,bird,bird,0,0730_ps_s02_0_bird_10_n02006656_5392.png
subject-02,1,731,0.853115081787109,cat,clock,150,0731_ps_s02_150_clock_10_n02708093_6673.png
subject-02,1,732,1.01128911972046,elephant,keyboard,120,0732_ps_s02_120_keyboard_10_n03085013_21066.png
subject-02,1,733,0.884850978851318,knife,dog,180,0733_ps_s02_180_dog_10_n02102480_10156.png
subject-02,1,734,0.998902797698975,car,truck,90,0734_ps_s02_90_truck_10_n03417042_16038.png
subject-02,1,735,0.513463020324707,cat,cat,0,0735_ps_s02_0_cat_10_n02123597_8246.png
subject-02,1,736,0.558444976806641,dog,dog,0,0736_ps_s02_0_dog_10_n02091635_8693.png
subject-02,1,737,0.748488187789917,dog,bicycle,90,0737_ps_s02_90_bicycle_10_n03792782_3928.png
subject-02,1,738,0.541772842407227,keyboard,keyboard,0,0738_ps_s02_0_keyboard_10_n04505470_4625.png
subject-02,1,739,1.04037594795227,bear,keyboard,180,0739_ps_s02_180_keyboard_10_n03085013_6927.png
subject-02,1,740,0.938431024551392,cat,boat,120,0740_ps_s02_120_boat_10_n02951358_12797.png
subject-02,1,741,0.596323013305664,bottle,knife,90,0741_ps_s02_90_knife_10_n03041632_36789.png
subject-02,1,742,1.11936593055725,oven,clock,180,0742_ps_s02_180_clock_10_n03196217_4233.png
subject-02,1,743,0.763895034790039,chair,airplane,120,0743_ps_s02_120_airplane_10_n02690373_4350.png
subject-02,1,744,0.464511871337891,clock,clock,0,0744_ps_s02_0_clock_10_n04548280_1878.png
subject-02,1,745,0.571784973144531,clock,clock,30,0745_ps_s02_30_clock_10_n04548280_5012.png
subject-02,1,746,0.599935054779053,oven,oven,90,0746_ps_s02_90_oven_10_n04111531_9380.png
subject-02,1,747,0.768166065216064,keyboard,airplane,120,0747_ps_s02_120_airplane_10_n02690373_4188.png
subject-02,1,748,0.996444940567017,elephant,airplane,180,0748_ps_s02_180_airplane_10_n02690373_1074.png
subject-02,1,749,0.672857999801636,boat,clock,60,0749_ps_s02_60_clock_10_n03196217_11035.png
subject-02,1,750,0.725145101547241,knife,chair,120,0750_ps_s02_120_chair_10_n02791124_15566.png
subject-02,1,751,0.799603939056396,keyboard,boat,180,0751_ps_s02_180_boat_10_n02951358_1718.png
subject-02,1,752,0.606780052185059,boat,boat,30,0752_ps_s02_30_boat_10_n03662601_11287.png
subject-02,1,753,0.374647855758667,boat,boat,30,0753_ps_s02_30_boat_10_n04273569_2916.png
subject-02,1,754,0.681809902191162,bottle,bottle,0,0754_ps_s02_0_bottle_10_n04579145_3415.png
subject-02,1,755,0.626899003982544,bird,bird,30,0755_ps_s02_30_bird_10_n01601694_5734.png
subject-02,1,756,0.679050922393799,bear,car,150,0756_ps_s02_150_car_10_n02814533_341.png
subject-02,1,757,1.0535089969635,bottle,chair,120,0757_ps_s02_120_chair_10_n04429376_432.png
subject-02,1,758,0.767489910125732,knife,chair,180,0758_ps_s02_180_chair_10_n03376595_360.png
subject-02,1,759,0.644174098968506,bird,keyboard,120,0759_ps_s02_120_keyboard_10_n04505470_1787.png
subject-02,1,760,0.788978099822998,knife,knife,90,0760_ps_s02_90_knife_10_n03041632_30958.png
subject-02,1,761,0.595317125320435,cat,car,180,0761_ps_s02_180_car_10_n04285008_1619.png
subject-02,1,762,0.616112947463989,dog,dog,150,0762_ps_s02_150_dog_10_n02112350_76.png
subject-02,1,763,0.5090651512146,chair,chair,90,0763_ps_s02_90_chair_10_n02791124_16861.png
subject-02,1,764,0.734244108200073,oven,chair,90,0764_ps_s02_90_chair_10_n04429376_3452.png
subject-02,1,765,0.548482179641724,knife,knife,0,0765_ps_s02_0_knife_10_n03041632_5640.png
subject-02,1,766,0.809299945831299,chair,chair,120,0766_ps_s02_120_chair_10_n02791124_12832.png
subject-02,1,767,1.50015807151794,elephant,bear,120,0767_ps_s02_120_bear_10_n02134084_2936.png
subject-02,1,768,1.26602911949158,dog,bear,90,0768_ps_s02_90_bear_10_n02134084_5827.png
subject-02,1,769,0.559886932373047,bicycle,bicycle,60,0769_ps_s02_60_bicycle_10_n03792782_37236.png
subject-02,1,770,0.58742880821228,bicycle,bicycle,0,0770_ps_s02_0_bicycle_10_n03792782_1955.png
subject-02,1,771,0.656274080276489,elephant,elephant,60,0771_ps_s02_60_elephant_10_n02504013_382.png
subject-02,1,772,1.40908479690552,car,boat,120,0772_ps_s02_120_boat_10_n03662601_2171.png
subject-02,1,773,0.509596824645996,truck,truck,60,0773_ps_s02_60_truck_10_n04467665_48875.png
subject-02,1,774,0.713762998580933,car,car,120,0774_ps_s02_120_car_10_n02814533_63202.png
subject-02,1,775,1.27280592918396,bird,elephant,30,0775_ps_s02_30_elephant_10_n02504013_11223.png
subject-02,1,776,0.680724859237671,elephant,elephant,0,0776_ps_s02_0_elephant_10_n02504013_6757.png
subject-02,1,777,0.647172212600708,bear,truck,180,0777_ps_s02_180_truck_10_n03417042_14567.png
subject-02,1,778,0.440621137619019,cat,clock,150,0778_ps_s02_150_clock_10_n03196217_1187.png
subject-02,1,779,0.71504807472229,knife,bird,120,0779_ps_s02_120_bird_10_n01558993_4327.png
subject-02,1,780,0.515578985214233,oven,car,150,0780_ps_s02_150_car_10_n02814533_50194.png
subject-02,1,781,0.698474884033203,keyboard,keyboard,90,0781_ps_s02_90_keyboard_10_n04505470_10705.png
subject-02,1,782,0.488211154937744,cat,dog,120,0782_ps_s02_120_dog_10_n02105855_15846.png
subject-02,1,783,0.949487924575806,bird,bottle,180,0783_ps_s02_180_bottle_10_n03983396_2511.png
subject-02,1,784,0.896851062774658,bicycle,knife,60,0784_ps_s02_60_knife_10_n03041632_22734.png
subject-02,1,785,0.803447961807251,clock,clock,90,0785_ps_s02_90_clock_10_n04548280_3827.png
subject-02,1,786,0.847727060317993,keyboard,clock,90,0786_ps_s02_90_clock_10_n03196217_359.png
subject-02,1,787,0.884700059890747,bear,airplane,90,0787_ps_s02_90_airplane_10_n02690373_10514.png
subject-02,1,788,0.782619953155518,knife,knife,120,0788_ps_s02_120_knife_10_n03041632_44738.png
subject-02,1,789,0.643172025680542,airplane,elephant,180,0789_ps_s02_180_elephant_10_n02504013_7001.png
subject-02,1,790,0.864266157150269,car,boat,90,0790_ps_s02_90_boat_10_n03344393_816.png
subject-02,1,791,0.608186006546021,clock,clock,0,0791_ps_s02_0_clock_10_n02708093_5.png
subject-02,1,792,0.460990190505981,keyboard,keyboard,120,0792_ps_s02_120_keyboard_10_n03085013_16636.png
subject-02,1,793,0.605484008789062,oven,bottle,120,0793_ps_s02_120_bottle_10_n03983396_278.png
subject-02,1,794,0.766434907913208,dog,dog,90,0794_ps_s02_90_dog_10_n02088238_3141.png
subject-02,1,795,0.949049949645996,bottle,knife,0,0795_ps_s02_0_knife_10_n03041632_2319.png
subject-02,1,796,0.525239944458008,car,car,0,0796_ps_s02_0_car_10_n02814533_38517.png
subject-02,1,797,0.52399206161499,bird,bird,0,0797_ps_s02_0_bird_10_n01817953_234.png
subject-02,1,798,0.668416976928711,chair,chair,0,0798_ps_s02_0_chair_10_n02791124_3916.png
subject-02,1,799,1.14237308502197,oven,oven,90,0799_ps_s02_90_oven_10_n04111531_13542.png
subject-02,1,800,0.694789171218872,airplane,airplane,120,0800_ps_s02_120_airplane_10_n02690373_6313.png
subject-02,1,801,0.568145036697388,bicycle,bicycle,60,0801_ps_s02_60_bicycle_10_n02835271_23936.png
subject-02,1,802,0.387553930282593,car,car,30,0802_ps_s02_30_car_10_n03100240_23831.png
subject-02,1,803,0.735116958618164,truck,truck,30,0803_ps_s02_30_truck_10_n04467665_55848.png
subject-02,1,804,0.654453039169312,cat,elephant,90,0804_ps_s02_90_elephant_10_n02504458_7777.png
subject-02,1,805,0.975146055221558,car,boat,120,0805_ps_s02_120_boat_10_n03662601_4071.png
subject-02,1,806,0.835608005523682,keyboard,chair,150,0806_ps_s02_150_chair_10_n02791124_7207.png
subject-02,1,807,0.63385009765625,keyboard,keyboard,0,0807_ps_s02_0_keyboard_10_n04505470_5050.png
subject-02,1,808,0.825023889541626,elephant,elephant,120,0808_ps_s02_120_elephant_10_n02504458_1848.png
subject-02,1,809,0.71778678894043,keyboard,elephant,150,0809_ps_s02_150_elephant_10_n02504458_6449.png
subject-02,1,810,0.494282007217407,cat,cat,60,0810_ps_s02_60_cat_10_n02123394_4721.png
subject-02,1,811,0.736825942993164,bicycle,bicycle,0,0811_ps_s02_0_bicycle_10_n02835271_14016.png
subject-02,1,812,1.05977201461792,airplane,airplane,150,0812_ps_s02_150_airplane_10_n02690373_5015.png
subject-02,1,813,0.880069971084595,boat,cat,60,0813_ps_s02_60_cat_10_n02123597_12732.png
subject-02,1,814,0.450647115707397,car,car,0,0814_ps_s02_0_car_10_n02814533_54312.png
subject-02,1,815,0.528474092483521,chair,truck,120,0815_ps_s02_120_truck_10_n04467665_33256.png
subject-02,1,816,0.841247081756592,oven,car,180,0816_ps_s02_180_car_10_n03100240_4982.png
subject-02,1,817,0.672352075576782,airplane,airplane,90,0817_ps_s02_90_airplane_10_n02690373_8521.png
subject-02,1,818,0.745512962341309,clock,clock,0,0818_ps_s02_0_clock_10_n04548280_3133.png
subject-02,1,819,0.812570095062256,bird,elephant,150,0819_ps_s02_150_elephant_10_n02504458_4465.png
subject-02,1,820,0.696313858032227,boat,dog,90,0820_ps_s02_90_dog_10_n02094258_6428.png
subject-02,1,821,0.901157140731812,bottle,bottle,90,0821_ps_s02_90_bottle_10_n03937543_10101.png
subject-02,1,822,0.507269144058228,chair,chair,30,0822_ps_s02_30_chair_10_n04429376_29463.png
subject-02,1,823,0.590214014053345,truck,truck,0,0823_ps_s02_0_truck_10_n03796401_23014.png
subject-02,1,824,0.864563941955566,elephant,bicycle,180,0824_ps_s02_180_bicycle_10_n03792782_20065.png
subject-02,1,825,0.871143102645874,knife,bird,120,0825_ps_s02_120_bird_10_n02013706_3645.png
subject-02,1,826,0.893934011459351,knife,knife,0,0826_ps_s02_0_knife_10_n03041632_45264.png
subject-02,1,827,0.5468430519104,bottle,bottle,0,0827_ps_s02_0_bottle_10_n02823428_5346.png
subject-02,1,828,0.913336038589478,chair,chair,60,0828_ps_s02_60_chair_10_n03376595_181.png
subject-02,1,829,0.589142084121704,cat,dog,90,0829_ps_s02_90_dog_10_n02093428_1046.png
subject-02,1,830,0.810159921646118,dog,truck,150,0830_ps_s02_150_truck_10_n04467665_23715.png
subject-02,1,831,0.525278091430664,bottle,bottle,90,0831_ps_s02_90_bottle_10_n03937543_2537.png
subject-02,1,832,0.693010091781616,chair,chair,30,0832_ps_s02_30_chair_10_n04099969_19411.png
subject-02,1,833,0.545428037643433,chair,chair,90,0833_ps_s02_90_chair_10_n04099969_10261.png
subject-02,1,834,0.70410418510437,car,car,90,0834_ps_s02_90_car_10_n04285008_11295.png
subject-02,1,835,0.610633850097656,bottle,keyboard,60,0835_ps_s02_60_keyboard_10_n03085013_24408.png
subject-02,1,836,0.731076002120972,boat,boat,150,0836_ps_s02_150_boat_10_n03344393_10295.png
subject-02,1,837,0.898979902267456,bird,elephant,150,0837_ps_s02_150_elephant_10_n02504458_3843.png
subject-02,1,838,0.957739114761353,bottle,elephant,150,0838_ps_s02_150_elephant_10_n02504458_10336.png
subject-02,1,839,0.518601179122925,truck,truck,30,0839_ps_s02_30_truck_10_n04467665_67315.png
subject-02,1,840,0.524860143661499,cat,cat,120,0840_ps_s02_120_cat_10_n02125311_21290.png
subject-02,1,841,0.807431936264038,elephant,bear,180,0841_ps_s02_180_bear_10_n02133161_15090.png
subject-02,1,842,0.521764039993286,airplane,airplane,30,0842_ps_s02_30_airplane_10_n02690373_1615.png
subject-02,1,843,0.598611116409302,bird,bird,0,0843_ps_s02_0_bird_10_n01622779_4363.png
subject-02,1,844,0.549114942550659,bear,oven,120,0844_ps_s02_120_oven_10_n04111531_16463.png
subject-02,1,845,0.539314985275269,car,car,0,0845_ps_s02_0_car_10_n04285008_12927.png
subject-02,1,846,0.732874155044556,cat,bear,120,0846_ps_s02_120_bear_10_n02133161_4830.png
subject-02,1,847,0.728914022445679,elephant,keyboard,180,0847_ps_s02_180_keyboard_10_n03085013_21851.png
subject-02,1,848,0.543571949005127,bear,bear,0,0848_ps_s02_0_bear_10_n02134418_2488.png
subject-02,1,849,0.756433010101318,dog,chair,150,0849_ps_s02_150_chair_10_n02791124_9831.png
subject-02,1,850,0.603054046630859,elephant,elephant,60,0850_ps_s02_60_elephant_10_n02504458_631.png
subject-02,1,851,0.563822984695435,bear,bear,0,0851_ps_s02_0_bear_10_n02133161_1930.png
subject-02,1,852,0.683857917785645,bicycle,clock,180,0852_ps_s02_180_clock_10_n02708093_6592.png
subject-02,1,853,0.528247833251953,car,car,60,0853_ps_s02_60_car_10_n03100240_16440.png
subject-02,1,854,0.402775764465332,airplane,airplane,150,0854_ps_s02_150_airplane_10_n02690373_19733.png
subject-02,1,855,0.608951091766357,airplane,car,180,0855_ps_s02_180_car_10_n02814533_11246.png
subject-02,1,856,0.675709962844849,knife,knife,0,0856_ps_s02_0_knife_10_n03041632_76163.png
subject-02,1,857,0.858455896377563,boat,elephant,180,0857_ps_s02_180_elephant_10_n02504458_7871.png
subject-02,1,858,0.926773071289062,clock,clock,60,0858_ps_s02_60_clock_10_n02708093_3641.png
subject-02,1,859,0.670702934265137,bottle,bottle,60,0859_ps_s02_60_bottle_10_n03937543_9376.png
subject-02,1,860,0.473737955093384,keyboard,keyboard,30,0860_ps_s02_30_keyboard_10_n03085013_25066.png
subject-02,1,861,0.696755886077881,cat,bird,120,0861_ps_s02_120_bird_10_n02051845_8045.png
subject-02,1,862,0.564968109130859,keyboard,keyboard,0,0862_ps_s02_0_keyboard_10_n03085013_22293.png
subject-02,1,863,1.05375099182129,car,elephant,120,0863_ps_s02_120_elephant_10_n02504013_6984.png
subject-02,1,864,0.752211809158325,dog,car,180,0864_ps_s02_180_car_10_n02814533_83397.png
subject-02,1,865,0.582769870758057,elephant,elephant,90,0865_ps_s02_90_elephant_10_n02504458_4405.png
subject-02,1,866,0.451043128967285,chair,chair,0,0866_ps_s02_0_chair_10_n04099969_5010.png
subject-02,1,867,0.846942901611328,bear,truck,150,0867_ps_s02_150_truck_10_n03796401_1777.png
subject-02,1,868,0.500197172164917,airplane,airplane,90,0868_ps_s02_90_airplane_10_n02690373_10051.png
subject-02,1,869,0.590162992477417,oven,knife,90,0869_ps_s02_90_knife_10_n03041632_4708.png
subject-02,1,870,1.0195529460907,keyboard,knife,60,0870_ps_s02_60_knife_10_n03041632_55953.png
subject-02,1,871,1.17988204956055,bear,car,90,0871_ps_s02_90_car_10_n04285008_11323.png
subject-02,1,872,0.861792087554932,cat,elephant,30,0872_ps_s02_30_elephant_10_n02504013_7797.png
subject-02,1,873,0.922734022140503,elephant,bird,120,0873_ps_s02_120_bird_10_n01530575_6386.png
subject-02,1,874,0.804603099822998,elephant,elephant,90,0874_ps_s02_90_elephant_10_n02504013_5495.png
subject-02,1,875,0.773945093154907,boat,boat,0,0875_ps_s02_0_boat_10_n02951358_8318.png
subject-02,1,876,0.702975988388062,car,car,90,0876_ps_s02_90_car_10_n02814533_37548.png
subject-02,1,877,0.624730825424194,dog,bear,180,0877_ps_s02_180_bear_10_n02134084_6687.png
subject-02,1,878,0.577245950698853,car,bottle,120,0878_ps_s02_120_bottle_10_n03983396_2738.png
subject-02,1,879,0.451387166976929,truck,bear,150,0879_ps_s02_150_bear_10_n02134084_2013.png
subject-02,1,880,0.688205003738403,airplane,truck,150,0880_ps_s02_150_truck_10_n03417042_7977.png
subject-02,1,881,0.66537618637085,car,car,180,0881_ps_s02_180_car_10_n02814533_40955.png
subject-02,1,882,0.955477952957153,bear,dog,90,0882_ps_s02_90_dog_10_n02113799_1455.png
subject-02,1,883,0.577928066253662,car,car,90,0883_ps_s02_90_car_10_n04285008_5078.png
subject-02,1,884,0.382301092147827,boat,boat,120,0884_ps_s02_120_boat_10_n04612504_1749.png
subject-02,1,885,0.642580986022949,clock,chair,60,0885_ps_s02_60_chair_10_n04429376_17013.png
subject-02,1,886,0.616641998291016,oven,oven,180,0886_ps_s02_180_oven_10_n04111531_2943.png
subject-02,1,887,0.523887157440186,bear,bear,30,0887_ps_s02_30_bear_10_n02134084_20458.png
subject-02,1,888,0.652157068252563,dog,oven,150,0888_ps_s02_150_oven_10_n04111531_1305.png
subject-02,1,889,0.658715963363647,bear,bear,60,0889_ps_s02_60_bear_10_n02134418_4996.png
subject-02,1,890,0.432855129241943,oven,oven,0,0890_ps_s02_0_oven_10_n04111531_6049.png
subject-02,1,891,0.715748071670532,keyboard,knife,120,0891_ps_s02_120_knife_10_n03041632_28135.png
subject-02,1,892,0.692150831222534,clock,oven,120,0892_ps_s02_120_oven_10_n04111531_15718.png
subject-02,1,893,0.566112041473389,truck,car,150,0893_ps_s02_150_car_10_n02814533_19373.png
subject-02,1,894,0.456877946853638,keyboard,boat,90,0894_ps_s02_90_boat_10_n03662601_8787.png
subject-02,1,895,0.487691879272461,keyboard,keyboard,0,0895_ps_s02_0_keyboard_10_n03085013_18398.png
subject-02,1,896,0.783660888671875,oven,clock,150,0896_ps_s02_150_clock_10_n03196217_5433.png
subject-02,1,897,0.473606109619141,bicycle,bicycle,60,0897_ps_s02_60_bicycle_10_n02835271_19309.png
subject-02,1,898,0.618555068969727,cat,bird,90,0898_ps_s02_90_bird_10_n01514859_21190.png
subject-02,1,899,0.525231838226318,bear,cat,180,0899_ps_s02_180_cat_10_n02123597_1374.png
subject-02,1,900,0.616239070892334,truck,truck,30,0900_ps_s02_30_truck_10_n03796401_20861.png
subject-02,1,901,0.582533121109009,airplane,airplane,30,0901_ps_s02_30_airplane_10_n02690373_5374.png
subject-02,1,902,0.856864929199219,bear,bird,150,0902_ps_s02_150_bird_10_n02017213_1844.png
subject-02,1,903,0.695993900299072,chair,chair,120,0903_ps_s02_120_chair_10_n03376595_6683.png
subject-02,1,904,0.493951082229614,keyboard,oven,150,0904_ps_s02_150_oven_10_n04111531_22316.png
subject-02,1,905,0.874361991882324,chair,chair,0,0905_ps_s02_0_chair_10_n03376595_6938.png
subject-02,1,906,0.643102884292603,car,chair,180,0906_ps_s02_180_chair_10_n02791124_5238.png
subject-02,1,907,0.619596004486084,bicycle,bicycle,60,0907_ps_s02_60_bicycle_10_n03792782_13552.png
subject-02,1,908,0.662150859832764,knife,knife,30,0908_ps_s02_30_knife_10_n03041632_52929.png
subject-02,1,909,0.569256067276001,bear,elephant,120,0909_ps_s02_120_elephant_10_n02504458_5320.png
subject-02,1,910,0.654673099517822,dog,truck,150,0910_ps_s02_150_truck_10_n03417042_17979.png
subject-02,1,911,0.512915134429932,elephant,chair,150,0911_ps_s02_150_chair_10_n04099969_4049.png
subject-02,1,912,0.640623807907104,knife,elephant,120,0912_ps_s02_120_elephant_10_n02504013_2234.png
subject-02,1,913,0.936733961105347,bird,bicycle,120,0913_ps_s02_120_bicycle_10_n02835271_19955.png
subject-02,1,914,0.56706690788269,car,bear,180,0914_ps_s02_180_bear_10_n02134084_22051.png
subject-02,1,915,0.995569944381714,knife,chair,150,0915_ps_s02_150_chair_10_n03376595_10035.png
subject-02,1,916,0.563806056976318,truck,truck,90,0916_ps_s02_90_truck_10_n03417042_3857.png
subject-02,1,917,0.630733013153076,airplane,airplane,60,0917_ps_s02_60_airplane_10_n02690373_629.png
subject-02,1,918,1.01307702064514,bird,cat,150,0918_ps_s02_150_cat_10_n02124075_10240.png
subject-02,1,919,0.565545082092285,oven,oven,30,0919_ps_s02_30_oven_10_n04111531_11709.png
subject-02,1,920,1.23204207420349,bicycle,bird,120,0920_ps_s02_120_bird_10_n01818515_529.png
subject-02,1,921,1.33094716072083,keyboard,oven,120,0921_ps_s02_120_oven_10_n04111531_15052.png
subject-02,1,922,0.867594003677368,truck,bear,180,0922_ps_s02_180_bear_10_n02134418_4057.png
subject-02,1,923,0.627568960189819,bottle,bear,180,0923_ps_s02_180_bear_10_n02132136_2279.png
subject-02,1,924,0.402127027511597,keyboard,keyboard,60,0924_ps_s02_60_keyboard_10_n04505470_4354.png
subject-02,1,925,0.654433012008667,bear,bear,0,0925_ps_s02_0_bear_10_n02133161_5681.png
subject-02,1,926,0.561858892440796,chair,chair,120,0926_ps_s02_120_chair_10_n04099969_13458.png
subject-02,1,927,0.513931035995483,oven,oven,0,0927_ps_s02_0_oven_10_n04111531_12468.png
subject-02,1,928,0.987962007522583,airplane,bottle,150,0928_ps_s02_150_bottle_10_n03937543_3376.png
subject-02,1,929,0.679379940032959,keyboard,truck,180,0929_ps_s02_180_truck_10_n04467665_68463.png
subject-02,1,930,0.39303994178772,cat,bear,180,0930_ps_s02_180_bear_10_n02134084_41588.png
subject-02,1,931,0.567723035812378,bottle,bottle,30,0931_ps_s02_30_bottle_10_n03937543_2757.png
subject-02,1,932,0.504898071289062,bicycle,bicycle,90,0932_ps_s02_90_bicycle_10_n03792782_15757.png
subject-02,1,933,0.803349018096924,dog,bottle,150,0933_ps_s02_150_bottle_10_n04591713_1755.png
subject-02,1,934,0.663567066192627,car,bicycle,150,0934_ps_s02_150_bicycle_10_n03792782_33086.png
subject-02,1,935,0.621877908706665,truck,truck,30,0935_ps_s02_30_truck_10_n03417042_22152.png
subject-02,1,936,0.566370010375977,bear,boat,150,0936_ps_s02_150_boat_10_n02951358_3171.png
subject-02,1,937,0.886838912963867,truck,truck,60,0937_ps_s02_60_truck_10_n04467665_62976.png
subject-02,1,938,0.832188844680786,elephant,bear,150,0938_ps_s02_150_bear_10_n02133161_547.png
subject-02,1,939,0.445666074752808,clock,clock,0,0939_ps_s02_0_clock_10_n02708093_2394.png
subject-02,1,940,0.682278871536255,clock,clock,0,0940_ps_s02_0_clock_10_n03196217_5934.png
subject-02,1,941,0.526705026626587,dog,dog,30,0941_ps_s02_30_dog_10_n02097658_10654.png
subject-02,1,942,0.717077016830444,knife,knife,150,0942_ps_s02_150_knife_10_n03041632_7119.png
subject-02,1,943,0.623837947845459,bicycle,bicycle,60,0943_ps_s02_60_bicycle_10_n02835271_44710.png
subject-02,1,944,0.652390003204346,car,truck,120,0944_ps_s02_120_truck_10_n03796401_5118.png
subject-02,1,945,0.618299961090088,knife,knife,90,0945_ps_s02_90_knife_10_n03041632_54732.png
subject-02,1,946,0.703101873397827,dog,cat,30,0946_ps_s02_30_cat_10_n02123597_1439.png
subject-02,1,947,0.485709190368652,chair,chair,60,0947_ps_s02_60_chair_10_n04099969_8531.png
subject-02,1,948,0.806567192077637,car,bicycle,180,0948_ps_s02_180_bicycle_10_n02835271_150.png
subject-02,1,949,0.575033903121948,airplane,airplane,0,0949_ps_s02_0_airplane_10_n02690373_18295.png
subject-02,1,950,0.598558902740479,boat,boat,60,0950_ps_s02_60_boat_10_n02951358_3556.png
subject-02,1,951,0.665209054946899,keyboard,keyboard,30,0951_ps_s02_30_keyboard_10_n03085013_16871.png
subject-02,1,952,0.533268928527832,bear,cat,180,0952_ps_s02_180_cat_10_n02123159_1038.png
subject-02,1,953,0.845938205718994,truck,dog,90,0953_ps_s02_90_dog_10_n02105641_13839.png
subject-02,1,954,0.590044975280762,bicycle,truck,150,0954_ps_s02_150_truck_10_n03417042_7728.png
subject-02,1,955,0.70972204208374,elephant,keyboard,150,0955_ps_s02_150_keyboard_10_n04505470_2654.png
subject-02,1,956,0.478035926818848,oven,oven,30,0956_ps_s02_30_oven_10_n04111531_5346.png
subject-02,1,957,0.791172027587891,bird,knife,150,0957_ps_s02_150_knife_10_n03041632_42156.png
subject-02,1,958,0.804992914199829,cat,oven,150,0958_ps_s02_150_oven_10_n04111531_1612.png
subject-02,1,959,1.19359016418457,chair,truck,150,0959_ps_s02_150_truck_10_n04467665_14024.png
subject-02,1,960,0.839865207672119,knife,oven,150,0960_ps_s02_150_oven_10_n04111531_3270.png
subject-02,1,961,0.649677991867065,oven,oven,60,0961_ps_s02_60_oven_10_n04111531_5015.png
subject-02,1,962,0.508322954177856,elephant,elephant,30,0962_ps_s02_30_elephant_10_n02504013_411.png
subject-02,1,963,0.577105045318604,keyboard,keyboard,120,0963_ps_s02_120_keyboard_10_n04505470_26.png
subject-02,1,964,0.775287866592407,knife,keyboard,120,0964_ps_s02_120_keyboard_10_n03085013_6815.png
subject-02,1,965,0.51990008354187,car,car,0,0965_ps_s02_0_car_10_n04285008_16321.png
subject-02,1,966,0.394761085510254,car,dog,0,0966_ps_s02_0_dog_10_n02089078_10512.png
subject-02,1,967,0.508455991744995,dog,dog,0,0967_ps_s02_0_dog_10_n02093256_1009.png
subject-02,1,968,0.529304981231689,cat,bottle,90,0968_ps_s02_90_bottle_10_n03937543_7757.png
subject-02,1,969,0.585991859436035,bicycle,bicycle,60,0969_ps_s02_60_bicycle_10_n03792782_24888.png
subject-02,1,970,NaN,na,bicycle,90,0970_ps_s02_90_bicycle_10_n03792782_6731.png
subject-02,1,971,0.543141841888428,elephant,elephant,60,0971_ps_s02_60_elephant_10_n02504458_7914.png
subject-02,1,972,0.47365403175354,cat,cat,60,0972_ps_s02_60_cat_10_n02123045_11561.png
subject-02,1,973,0.517329931259155,bottle,bottle,60,0973_ps_s02_60_bottle_10_n03937543_2426.png
subject-02,1,974,0.39149808883667,chair,airplane,180,0974_ps_s02_180_airplane_10_n02690373_9137.png
subject-02,1,975,0.828352928161621,bird,cat,180,0975_ps_s02_180_cat_10_n02123394_1318.png
subject-02,1,976,0.68877911567688,bear,bear,60,0976_ps_s02_60_bear_10_n02133161_2228.png
subject-02,1,977,0.538974046707153,elephant,elephant,0,0977_ps_s02_0_elephant_10_n02504458_11130.png
subject-02,1,978,0.583171129226685,chair,chair,60,0978_ps_s02_60_chair_10_n04099969_24969.png
subject-02,1,979,0.957279920578003,bear,bear,90,0979_ps_s02_90_bear_10_n02132136_8665.png
subject-02,1,980,0.571974992752075,dog,bird,150,0980_ps_s02_150_bird_10_n01817953_9580.png
subject-02,1,981,0.524739027023315,airplane,chair,120,0981_ps_s02_120_chair_10_n04099969_5976.png
subject-02,1,982,0.439189910888672,airplane,airplane,0,0982_ps_s02_0_airplane_10_n02690373_2091.png
subject-02,1,983,0.47567892074585,bear,bear,60,0983_ps_s02_60_bear_10_n02134418_2343.png
subject-02,1,984,0.627506017684937,bottle,bottle,0,0984_ps_s02_0_bottle_10_n03983396_5351.png
subject-02,1,985,0.632054090499878,keyboard,oven,150,0985_ps_s02_150_oven_10_n04111531_17004.png
subject-02,1,986,0.646648168563843,chair,chair,0,0986_ps_s02_0_chair_10_n04429376_26032.png
subject-02,1,987,0.753254175186157,airplane,airplane,90,0987_ps_s02_90_airplane_10_n02690373_10374.png
subject-02,1,988,0.619353055953979,car,car,30,0988_ps_s02_30_car_10_n02814533_17871.png
subject-02,1,989,0.772451877593994,dog,dog,0,0989_ps_s02_0_dog_10_n02090721_888.png
subject-02,1,990,0.524702787399292,elephant,elephant,60,0990_ps_s02_60_elephant_10_n02504013_7395.png
subject-02,1,991,0.831599950790405,bear,clock,180,0991_ps_s02_180_clock_10_n02708093_5311.png
subject-02,1,992,0.760242938995361,knife,knife,0,0992_ps_s02_0_knife_10_n03041632_54603.png
subject-02,1,993,0.742208003997803,keyboard,oven,120,0993_ps_s02_120_oven_10_n04111531_1599.png
subject-02,1,994,0.519551992416382,truck,truck,0,0994_ps_s02_0_truck_10_n03417042_9941.png
subject-02,1,995,0.581038951873779,bicycle,bicycle,90,0995_ps_s02_90_bicycle_10_n02835271_4341.png
subject-02,1,996,0.433276891708374,keyboard,keyboard,0,0996_ps_s02_0_keyboard_10_n04505470_2569.png
subject-02,1,997,0.607971906661987,clock,clock,30,0997_ps_s02_30_clock_10_n02708093_2006.png
subject-02,1,998,0.911872148513794,clock,bird,60,0998_ps_s02_60_bird_10_n01532829_2658.png
subject-02,1,999,0.710074901580811,bird,chair,180,0999_ps_s02_180_chair_10_n02791124_371.png
subject-02,1,1000,0.794960021972656,knife,knife,30,1000_ps_s02_30_knife_10_n03041632_4305.png
subject-02,1,1001,0.50114893913269,car,car,30,1001_ps_s02_30_car_10_n02814533_1392.png
subject-02,1,1002,0.508212089538574,truck,cat,150,1002_ps_s02_150_cat_10_n02123597_2031.png
subject-02,1,1003,0.791084051132202,oven,oven,0,1003_ps_s02_0_oven_10_n04111531_9963.png
subject-02,1,1004,0.598917961120605,bear,bear,30,1004_ps_s02_30_bear_10_n02134084_15157.png
subject-02,1,1005,0.580493927001953,bird,bird,30,1005_ps_s02_30_bird_10_n01795545_5828.png
subject-02,1,1006,0.602995872497559,oven,boat,90,1006_ps_s02_90_boat_10_n03344393_9307.png
subject-02,1,1007,0.752842903137207,bottle,knife,180,1007_ps_s02_180_knife_10_n03041632_27879.png
subject-02,1,1008,0.767598867416382,car,clock,180,1008_ps_s02_180_clock_10_n02708093_1684.png
subject-02,1,1009,0.444972991943359,clock,clock,90,1009_ps_s02_90_clock_10_n02708093_6352.png
subject-02,1,1010,0.781018972396851,cat,knife,120,1010_ps_s02_120_knife_10_n03041632_16826.png
subject-02,1,1011,0.634284973144531,cat,cat,30,1011_ps_s02_30_cat_10_n02124075_8860.png
subject-02,1,1012,0.608310222625732,knife,knife,30,1012_ps_s02_30_knife_10_n03041632_19571.png
subject-02,1,1013,0.439288854598999,clock,clock,180,1013_ps_s02_180_clock_10_n02708093_6597.png
subject-02,1,1014,0.560153007507324,bird,airplane,180,1014_ps_s02_180_airplane_10_n02690373_4298.png
subject-02,1,1015,0.733286142349243,cat,cat,90,1015_ps_s02_90_cat_10_n02124075_15399.png
subject-02,1,1016,0.426650047302246,cat,cat,0,1016_ps_s02_0_cat_10_n02123394_6795.png
subject-02,1,1017,0.609295845031738,cat,dog,90,1017_ps_s02_90_dog_10_n02101556_1745.png
subject-02,1,1018,0.715480804443359,dog,bird,120,1018_ps_s02_120_bird_10_n02033041_2616.png
subject-02,1,1019,0.598525047302246,car,car,0,1019_ps_s02_0_car_10_n04285008_13722.png
subject-02,1,1020,0.528532028198242,boat,boat,60,1020_ps_s02_60_boat_10_n03662601_8626.png
subject-02,1,1021,0.586637020111084,knife,knife,0,1021_ps_s02_0_knife_10_n03041632_94995.png
subject-02,1,1022,0.602205991744995,airplane,airplane,60,1022_ps_s02_60_airplane_10_n02690373_8740.png
subject-02,1,1023,0.775851011276245,chair,bottle,180,1023_ps_s02_180_bottle_10_n04591713_4675.png
subject-02,1,1024,0.698931932449341,bear,bear,60,1024_ps_s02_60_bear_10_n02133161_4429.png
subject-02,1,1025,0.497668981552124,bottle,bottle,30,1025_ps_s02_30_bottle_10_n04560804_13773.png
subject-02,1,1026,0.563884019851685,cat,cat,0,1026_ps_s02_0_cat_10_n02123045_13038.png
subject-02,1,1027,0.486546039581299,cat,cat,0,1027_ps_s02_0_cat_10_n02123159_6741.png
subject-02,1,1028,0.876689910888672,keyboard,oven,120,1028_ps_s02_120_oven_10_n04111531_19000.png
subject-02,1,1029,1.15189099311829,bear,dog,120,1029_ps_s02_120_dog_10_n02093647_3933.png
subject-02,1,1030,0.682567119598389,keyboard,keyboard,60,1030_ps_s02_60_keyboard_10_n04505470_1179.png
subject-02,1,1031,0.82499098777771,bird,bear,180,1031_ps_s02_180_bear_10_n02134084_9857.png
subject-02,1,1032,0.339364051818848,clock,clock,60,1032_ps_s02_60_clock_10_n04548280_9801.png
subject-02,1,1033,0.408354043960571,elephant,car,120,1033_ps_s02_120_car_10_n02814533_9297.png
subject-02,1,1034,0.484957933425903,keyboard,keyboard,90,1034_ps_s02_90_keyboard_10_n03085013_24460.png
subject-02,1,1035,0.797722101211548,chair,dog,60,1035_ps_s02_60_dog_10_n02093859_3306.png
subject-02,1,1036,0.412362098693848,clock,clock,30,1036_ps_s02_30_clock_10_n02708093_275.png
subject-02,1,1037,0.611664056777954,car,car,0,1037_ps_s02_0_car_10_n02814533_39485.png
subject-02,1,1038,0.533812999725342,truck,truck,60,1038_ps_s02_60_truck_10_n03796401_9156.png
subject-02,1,1039,0.486622095108032,bear,bear,0,1039_ps_s02_0_bear_10_n02133161_25789.png
subject-02,1,1040,0.584577083587646,bicycle,cat,180,1040_ps_s02_180_cat_10_n02123045_9395.png
subject-02,1,1041,0.680988788604736,car,car,60,1041_ps_s02_60_car_10_n02814533_51154.png
subject-02,1,1042,0.84171986579895,truck,clock,120,1042_ps_s02_120_clock_10_n03196217_5300.png
subject-02,1,1043,0.893825054168701,keyboard,oven,180,1043_ps_s02_180_oven_10_n04111531_4467.png
subject-02,1,1044,0.781996011734009,oven,oven,30,1044_ps_s02_30_oven_10_n04111531_14269.png
subject-02,1,1045,0.480661869049072,keyboard,keyboard,120,1045_ps_s02_120_keyboard_10_n03085013_7520.png
subject-02,1,1046,0.532711029052734,bicycle,bicycle,30,1046_ps_s02_30_bicycle_10_n03792782_4682.png
subject-02,1,1047,0.939449071884155,bird,bear,90,1047_ps_s02_90_bear_10_n02134418_1871.png
subject-02,1,1048,0.71328592300415,boat,elephant,150,1048_ps_s02_150_elephant_10_n02504013_3109.png
subject-02,1,1049,1.28835201263428,bear,keyboard,180,1049_ps_s02_180_keyboard_10_n03085013_26164.png
subject-02,1,1050,0.878631830215454,dog,chair,150,1050_ps_s02_150_chair_10_n04099969_10974.png
subject-02,1,1051,0.663219213485718,airplane,airplane,30,1051_ps_s02_30_airplane_10_n02690373_7375.png
subject-02,1,1052,0.837353944778442,boat,dog,180,1052_ps_s02_180_dog_10_n02097209_2405.png
subject-02,1,1053,0.58234715461731,keyboard,keyboard,90,1053_ps_s02_90_keyboard_10_n03085013_15785.png
subject-02,1,1054,0.608966112136841,bear,bear,0,1054_ps_s02_0_bear_10_n02133161_6217.png
subject-02,1,1055,0.758997201919556,elephant,truck,120,1055_ps_s02_120_truck_10_n03796401_7371.png
subject-02,1,1056,0.443444967269897,chair,chair,30,1056_ps_s02_30_chair_10_n03376595_524.png
subject-02,1,1057,0.517522096633911,dog,dog,0,1057_ps_s02_0_dog_10_n02099712_3359.png
subject-02,1,1058,0.738948106765747,truck,car,120,1058_ps_s02_120_car_10_n02814533_74921.png
subject-02,1,1059,0.430832147598267,car,car,60,1059_ps_s02_60_car_10_n02814533_26793.png
subject-02,1,1060,0.605500936508179,car,car,60,1060_ps_s02_60_car_10_n03100240_10791.png
subject-02,1,1061,0.54485297203064,car,car,90,1061_ps_s02_90_car_10_n04285008_2792.png
subject-02,1,1062,0.674031972885132,elephant,elephant,0,1062_ps_s02_0_elephant_10_n02504458_1496.png
subject-02,1,1063,0.551693916320801,boat,knife,150,1063_ps_s02_150_knife_10_n03041632_84240.png
subject-02,1,1064,0.555290937423706,bicycle,bicycle,30,1064_ps_s02_30_bicycle_10_n02835271_12006.png
