subj,session,trial,rt,object_response,category,condition,imagename
subject-01,1,1,1.01805782318115,oven,oven,60,0001_ps_s01_60_oven_10_n04111531_15912.png
subject-01,1,2,0.942036867141724,bottle,bottle,90,0002_ps_s01_90_bottle_10_n02823428_1602.png
subject-01,1,3,0.628267765045166,elephant,elephant,0,0003_ps_s01_0_elephant_10_n02504013_5217.png
subject-01,1,4,0.674089908599854,bicycle,bicycle,0,0004_ps_s01_0_bicycle_10_n02835271_4963.png
subject-01,1,5,0.760967969894409,boat,boat,60,0005_ps_s01_60_boat_10_n02951358_12080.png
subject-01,1,6,0.893320083618164,truck,truck,0,0006_ps_s01_0_truck_10_n04467665_18234.png
subject-01,1,7,0.869477987289429,elephant,elephant,120,0007_ps_s01_120_elephant_10_n02504013_1784.png
subject-01,1,8,0.926226139068604,dog,dog,0,0008_ps_s01_0_dog_10_n02105641_6503.png
subject-01,1,9,0.833662986755371,elephant,elephant,0,0009_ps_s01_0_elephant_10_n02504013_1953.png
subject-01,1,10,0.849931001663208,car,knife,150,0010_ps_s01_150_knife_10_n03041632_7064.png
subject-01,1,11,0.604959964752197,chair,chair,90,0011_ps_s01_90_chair_10_n03376595_4155.png
subject-01,1,12,0.699237108230591,cat,cat,60,0012_ps_s01_60_cat_10_n02123159_3201.png
subject-01,1,13,0.761512041091919,keyboard,keyboard,180,0013_ps_s01_180_keyboard_10_n03085013_15576.png
subject-01,1,14,0.724576234817505,elephant,elephant,60,0014_ps_s01_60_elephant_10_n02504013_7314.png
subject-01,1,15,0.570421934127808,boat,boat,30,0015_ps_s01_30_boat_10_n04273569_16064.png
subject-01,1,16,0.62736988067627,bear,oven,180,0016_ps_s01_180_oven_10_n04111531_8330.png
subject-01,1,17,0.843767881393433,keyboard,keyboard,30,0017_ps_s01_30_keyboard_10_n03085013_2842.png
subject-01,1,18,1.45059108734131,bird,car,0,0018_ps_s01_0_car_10_n03100240_2108.png
subject-01,1,19,1.1992449760437,car,clock,120,0019_ps_s01_120_clock_10_n03196217_5745.png
subject-01,1,20,NaN,na,oven,90,0020_ps_s01_90_oven_10_n04111531_30110.png
subject-01,1,21,0.923651933670044,airplane,bottle,150,0021_ps_s01_150_bottle_10_n03937543_71.png
subject-01,1,22,0.809432029724121,truck,truck,30,0022_ps_s01_30_truck_10_n04467665_7329.png
subject-01,1,23,1.50007295608521,dog,dog,0,0023_ps_s01_0_dog_10_n02107574_1277.png
subject-01,1,24,0.66425895690918,airplane,airplane,60,0024_ps_s01_60_airplane_10_n02690373_10232.png
subject-01,1,25,1.08882689476013,bottle,oven,180,0025_ps_s01_180_oven_10_n04111531_6474.png
subject-01,1,26,1.0216212272644,car,airplane,150,0026_ps_s01_150_airplane_10_n02690373_19353.png
subject-01,1,27,1.00531101226807,boat,cat,180,0027_ps_s01_180_cat_10_n02123045_13220.png
subject-01,1,28,0.892168045043945,car,car,0,0028_ps_s01_0_car_10_n03100240_22290.png
subject-01,1,29,1.00776791572571,elephant,dog,120,0029_ps_s01_120_dog_10_n02092002_9876.png
subject-01,1,30,0.662123918533325,boat,airplane,180,0030_ps_s01_180_airplane_10_n02690373_4375.png
subject-01,1,31,0.848917007446289,knife,knife,120,0031_ps_s01_120_knife_10_n03041632_51581.png
subject-01,1,32,1.4871621131897,clock,clock,30,0032_ps_s01_30_clock_10_n02708093_899.png
subject-01,1,33,0.549744844436646,cat,cat,90,0033_ps_s01_90_cat_10_n02124075_15001.png
subject-01,1,34,0.874166011810303,bicycle,bicycle,120,0034_ps_s01_120_bicycle_10_n02835271_4138.png
subject-01,1,35,0.930727005004883,bear,bear,90,0035_ps_s01_90_bear_10_n02134418_836.png
subject-01,1,36,0.753342151641846,bicycle,bicycle,120,0036_ps_s01_120_bicycle_10_n02835271_10822.png
subject-01,1,37,0.708861827850342,car,chair,150,0037_ps_s01_150_chair_10_n03376595_1302.png
subject-01,1,38,0.755136966705322,clock,bottle,150,0038_ps_s01_150_bottle_10_n04591713_5851.png
subject-01,1,39,0.601421117782593,airplane,airplane,120,0039_ps_s01_120_airplane_10_n02690373_3709.png
subject-01,1,40,0.663890838623047,oven,oven,30,0040_ps_s01_30_oven_10_n04111531_22834.png
subject-01,1,41,1.1202130317688,bottle,knife,150,0041_ps_s01_150_knife_10_n03041632_16606.png
subject-01,1,42,0.745834112167358,car,car,90,0042_ps_s01_90_car_10_n02814533_35102.png
subject-01,1,43,0.746527910232544,airplane,keyboard,150,0043_ps_s01_150_keyboard_10_n04505470_2709.png
subject-01,1,44,0.832257032394409,airplane,airplane,90,0044_ps_s01_90_airplane_10_n02690373_19133.png
subject-01,1,45,0.778746128082275,boat,boat,120,0045_ps_s01_120_boat_10_n04612504_15155.png
subject-01,1,46,0.649344205856323,chair,chair,0,0046_ps_s01_0_chair_10_n03376595_262.png
subject-01,1,47,0.982045888900757,bottle,bottle,90,0047_ps_s01_90_bottle_10_n04579145_3149.png
subject-01,1,48,1.05191588401794,airplane,boat,150,0048_ps_s01_150_boat_10_n02951358_16728.png
subject-01,1,49,1.4149808883667,keyboard,keyboard,90,0049_ps_s01_90_keyboard_10_n03085013_1797.png
subject-01,1,50,0.902116060256958,elephant,elephant,30,0050_ps_s01_30_elephant_10_n02504013_4386.png
subject-01,1,51,0.756324052810669,cat,cat,0,0051_ps_s01_0_cat_10_n02125311_19769.png
subject-01,1,52,0.635326147079468,chair,chair,30,0052_ps_s01_30_chair_10_n04429376_21089.png
subject-01,1,53,0.606136083602905,airplane,airplane,0,0053_ps_s01_0_airplane_10_n02690373_3899.png
subject-01,1,54,0.876138925552368,car,truck,120,0054_ps_s01_120_truck_10_n03796401_28190.png
subject-01,1,55,1.50028395652771,airplane,keyboard,0,0055_ps_s01_0_keyboard_10_n03085013_2166.png
subject-01,1,56,0.762614011764526,keyboard,keyboard,60,0056_ps_s01_60_keyboard_10_n04505470_2597.png
subject-01,1,57,1.03940582275391,bottle,oven,120,0057_ps_s01_120_oven_10_n04111531_986.png
subject-01,1,58,0.679292917251587,bicycle,bicycle,60,0058_ps_s01_60_bicycle_10_n02835271_1075.png
subject-01,1,59,0.563525199890137,bottle,bottle,30,0059_ps_s01_30_bottle_10_n03983396_4564.png
subject-01,1,60,0.90407395362854,truck,keyboard,120,0060_ps_s01_120_keyboard_10_n04505470_4535.png
subject-01,1,61,0.788466930389404,bear,car,150,0061_ps_s01_150_car_10_n04285008_7511.png
subject-01,1,62,0.699490070343018,clock,clock,30,0062_ps_s01_30_clock_10_n02708093_51.png
subject-01,1,63,1.00821399688721,keyboard,clock,150,0063_ps_s01_150_clock_10_n04548280_4524.png
subject-01,1,64,0.849098920822144,bicycle,truck,180,0064_ps_s01_180_truck_10_n04467665_39477.png
subject-01,1,65,0.733371019363403,car,knife,150,0065_ps_s01_150_knife_10_n03041632_2319.png
subject-01,1,66,0.688062191009521,knife,knife,90,0066_ps_s01_90_knife_10_n03041632_3171.png
subject-01,1,67,0.574357986450195,boat,boat,60,0067_ps_s01_60_boat_10_n02951358_13017.png
subject-01,1,68,0.774456977844238,oven,clock,90,0068_ps_s01_90_clock_10_n04548280_548.png
subject-01,1,69,0.552910804748535,keyboard,car,180,0069_ps_s01_180_car_10_n04285008_15213.png
subject-01,1,70,0.707717895507812,airplane,airplane,60,0070_ps_s01_60_airplane_10_n02690373_10399.png
subject-01,1,71,1.00185894966125,knife,knife,90,0071_ps_s01_90_knife_10_n03041632_24100.png
subject-01,1,72,0.834987878799438,keyboard,dog,90,0072_ps_s01_90_dog_10_n02095314_5408.png
subject-01,1,73,0.751194000244141,chair,chair,30,0073_ps_s01_30_chair_10_n03376595_15124.png
subject-01,1,74,0.759361028671265,chair,chair,120,0074_ps_s01_120_chair_10_n04099969_13901.png
subject-01,1,75,0.781209230422974,keyboard,bear,120,0075_ps_s01_120_bear_10_n02134084_825.png
subject-01,1,76,0.627205848693848,clock,clock,0,0076_ps_s01_0_clock_10_n02708093_1513.png
subject-01,1,77,0.976073026657104,car,car,0,0077_ps_s01_0_car_10_n03100240_9610.png
subject-01,1,78,0.723155975341797,bottle,bottle,0,0078_ps_s01_0_bottle_10_n04560804_26318.png
subject-01,1,79,0.647124052047729,oven,oven,90,0079_ps_s01_90_oven_10_n04111531_5965.png
subject-01,1,80,0.687587022781372,keyboard,dog,150,0080_ps_s01_150_dog_10_n02110806_2269.png
subject-01,1,81,0.750102043151855,cat,cat,30,0081_ps_s01_30_cat_10_n02123394_4633.png
subject-01,1,82,0.92111611366272,elephant,elephant,90,0082_ps_s01_90_elephant_10_n02504458_3629.png
subject-01,1,83,0.971488952636719,car,car,0,0083_ps_s01_0_car_10_n03100240_18069.png
subject-01,1,84,1.13352489471436,airplane,oven,150,0084_ps_s01_150_oven_10_n04111531_7923.png
subject-01,1,85,0.680094003677368,car,car,30,0085_ps_s01_30_car_10_n03100240_12777.png
subject-01,1,86,1.02794718742371,chair,chair,60,0086_ps_s01_60_chair_10_n02791124_13469.png
subject-01,1,87,0.566087961196899,bicycle,bicycle,30,0087_ps_s01_30_bicycle_10_n02835271_22143.png
subject-01,1,88,0.883150100708008,bird,bear,120,0088_ps_s01_120_bear_10_n02133161_2304.png
subject-01,1,89,0.683819055557251,oven,elephant,150,0089_ps_s01_150_elephant_10_n02504458_6499.png
subject-01,1,90,0.794011116027832,keyboard,dog,180,0090_ps_s01_180_dog_10_n02105162_9615.png
subject-01,1,91,0.83263897895813,car,car,0,0091_ps_s01_0_car_10_n03100240_627.png
subject-01,1,92,1.02717208862305,elephant,chair,60,0092_ps_s01_60_chair_10_n04099969_16266.png
subject-01,1,93,0.889513969421387,knife,knife,30,0093_ps_s01_30_knife_10_n03041632_3717.png
subject-01,1,94,0.69835901260376,chair,chair,90,0094_ps_s01_90_chair_10_n02791124_15407.png
subject-01,1,95,0.58473801612854,boat,boat,60,0095_ps_s01_60_boat_10_n02951358_1911.png
subject-01,1,96,1.30670094490051,keyboard,truck,180,0096_ps_s01_180_truck_10_n04467665_35490.png
subject-01,1,97,0.793283939361572,elephant,elephant,90,0097_ps_s01_90_elephant_10_n02504013_2233.png
subject-01,1,98,0.68826699256897,boat,boat,60,0098_ps_s01_60_boat_10_n04273569_1457.png
subject-01,1,99,0.84351110458374,bird,bird,30,0099_ps_s01_30_bird_10_n01843065_2664.png
subject-01,1,100,1.05914497375488,dog,dog,60,0100_ps_s01_60_dog_10_n02086240_7247.png
subject-01,1,101,0.921488046646118,airplane,airplane,90,0101_ps_s01_90_airplane_10_n02690373_1436.png
subject-01,1,102,0.630582094192505,boat,boat,0,0102_ps_s01_0_boat_10_n02951358_12713.png
subject-01,1,103,0.780734062194824,bicycle,bicycle,0,0103_ps_s01_0_bicycle_10_n02835271_8417.png
subject-01,1,104,0.921473979949951,keyboard,airplane,150,0104_ps_s01_150_airplane_10_n02690373_13021.png
subject-01,1,105,0.692334890365601,car,bear,150,0105_ps_s01_150_bear_10_n02134418_10318.png
subject-01,1,106,0.707985877990723,oven,clock,150,0106_ps_s01_150_clock_10_n04548280_8535.png
subject-01,1,107,0.930874824523926,cat,knife,120,0107_ps_s01_120_knife_10_n03041632_13612.png
subject-01,1,108,0.778820037841797,cat,cat,90,0108_ps_s01_90_cat_10_n02123597_13823.png
subject-01,1,109,0.603621959686279,bicycle,bicycle,90,0109_ps_s01_90_bicycle_10_n03792782_5494.png
subject-01,1,110,0.833683967590332,airplane,oven,150,0110_ps_s01_150_oven_10_n04111531_5737.png
subject-01,1,111,0.920418977737427,boat,car,180,0111_ps_s01_180_car_10_n03100240_4619.png
subject-01,1,112,1.10433506965637,keyboard,boat,180,0112_ps_s01_180_boat_10_n03344393_2969.png
subject-01,1,113,1.50017905235291,bottle,truck,120,0113_ps_s01_120_truck_10_n03796401_9198.png
subject-01,1,114,0.566908121109009,clock,clock,0,0114_ps_s01_0_clock_10_n04548280_487.png
subject-01,1,115,0.861690998077393,knife,knife,30,0115_ps_s01_30_knife_10_n03041632_11327.png
subject-01,1,116,0.962121963500977,car,airplane,120,0116_ps_s01_120_airplane_10_n02690373_2648.png
subject-01,1,117,0.778508186340332,clock,clock,150,0117_ps_s01_150_clock_10_n03196217_1153.png
subject-01,1,118,0.687419891357422,truck,truck,90,0118_ps_s01_90_truck_10_n03417042_3238.png
subject-01,1,119,1.16547799110413,keyboard,elephant,180,0119_ps_s01_180_elephant_10_n02504013_698.png
subject-01,1,120,0.590042114257812,oven,oven,0,0120_ps_s01_0_oven_10_n04111531_10077.png
subject-01,1,121,1.18196201324463,knife,knife,60,0121_ps_s01_60_knife_10_n03041632_105581.png
subject-01,1,122,0.753192901611328,bird,cat,150,0122_ps_s01_150_cat_10_n02124075_14020.png
subject-01,1,123,1.21047878265381,bird,bear,30,0123_ps_s01_30_bear_10_n02134084_13394.png
subject-01,1,124,0.756661891937256,cat,bottle,90,0124_ps_s01_90_bottle_10_n03937543_4512.png
subject-01,1,125,0.673346996307373,clock,clock,60,0125_ps_s01_60_clock_10_n03196217_599.png
subject-01,1,126,1.01933097839355,truck,truck,90,0126_ps_s01_90_truck_10_n04467665_29260.png
subject-01,1,127,1.13612198829651,airplane,airplane,60,0127_ps_s01_60_airplane_10_n02690373_10203.png
subject-01,1,128,0.952744007110596,keyboard,keyboard,30,0128_ps_s01_30_keyboard_10_n03085013_19471.png
subject-01,1,129,1.2694079875946,cat,elephant,120,0129_ps_s01_120_elephant_10_n02504013_5945.png
subject-01,1,130,0.679790019989014,bird,bird,150,0130_ps_s01_150_bird_10_n01833805_30804.png
subject-01,1,131,0.76416015625,dog,dog,0,0131_ps_s01_0_dog_10_n02101388_1383.png
subject-01,1,132,0.84263801574707,truck,truck,60,0132_ps_s01_60_truck_10_n03417042_13289.png
subject-01,1,133,0.951014995574951,keyboard,bear,150,0133_ps_s01_150_bear_10_n02133161_2340.png
subject-01,1,134,0.812120914459229,bird,bird,0,0134_ps_s01_0_bird_10_n01622779_6183.png
subject-01,1,135,0.850516080856323,bird,bird,0,0135_ps_s01_0_bird_10_n02013706_3221.png
subject-01,1,136,0.728822946548462,keyboard,keyboard,0,0136_ps_s01_0_keyboard_10_n03085013_21967.png
subject-01,1,137,0.790918111801147,clock,clock,120,0137_ps_s01_120_clock_10_n04548280_354.png
subject-01,1,138,0.584127902984619,boat,boat,60,0138_ps_s01_60_boat_10_n03344393_3499.png
subject-01,1,139,0.824473142623901,bird,bird,0,0139_ps_s01_0_bird_10_n02027492_15639.png
subject-01,1,140,0.848984003067017,boat,oven,120,0140_ps_s01_120_oven_10_n04111531_4322.png
subject-01,1,141,0.712035894393921,boat,truck,60,0141_ps_s01_60_truck_10_n04467665_67115.png
subject-01,1,142,0.843863964080811,keyboard,keyboard,60,0142_ps_s01_60_keyboard_10_n03085013_17795.png
subject-01,1,143,1.46043014526367,bottle,knife,30,0143_ps_s01_30_knife_10_n03041632_10140.png
subject-01,1,144,0.761291980743408,oven,oven,120,0144_ps_s01_120_oven_10_n04111531_3286.png
subject-01,1,145,0.51410984992981,oven,oven,60,0145_ps_s01_60_oven_10_n04111531_7345.png
subject-01,1,146,0.64464807510376,clock,clock,0,0146_ps_s01_0_clock_10_n02708093_1360.png
subject-01,1,147,0.993674993515015,dog,bear,30,0147_ps_s01_30_bear_10_n02134084_10766.png
subject-01,1,148,1.08823704719543,airplane,bottle,120,0148_ps_s01_120_bottle_10_n02823428_14453.png
subject-01,1,149,0.888205051422119,car,keyboard,150,0149_ps_s01_150_keyboard_10_n03085013_20570.png
subject-01,1,150,0.713166952133179,truck,truck,90,0150_ps_s01_90_truck_10_n03417042_10243.png
subject-01,1,151,0.891263008117676,bicycle,bird,180,0151_ps_s01_180_bird_10_n01818515_11687.png
subject-01,1,152,0.954621076583862,car,car,90,0152_ps_s01_90_car_10_n04285008_3096.png
subject-01,1,153,0.66241192817688,bear,boat,180,0153_ps_s01_180_boat_10_n03344393_5566.png
subject-01,1,154,1.04885792732239,bear,dog,60,0154_ps_s01_60_dog_10_n02104365_1262.png
subject-01,1,155,1.01934289932251,cat,dog,120,0155_ps_s01_120_dog_10_n02111500_3041.png
subject-01,1,156,0.528038024902344,boat,boat,30,0156_ps_s01_30_boat_10_n03344393_5296.png
subject-01,1,157,0.774610996246338,keyboard,bird,150,0157_ps_s01_150_bird_10_n02002724_5457.png
subject-01,1,158,0.653788805007935,boat,boat,120,0158_ps_s01_120_boat_10_n04273569_10840.png
subject-01,1,159,0.924571990966797,airplane,bottle,120,0159_ps_s01_120_bottle_10_n03983396_3294.png
subject-01,1,160,0.734569072723389,dog,dog,0,0160_ps_s01_0_dog_10_n02107908_1423.png
subject-01,1,161,0.822463989257812,bird,bird,90,0161_ps_s01_90_bird_10_n02006656_7456.png
subject-01,1,162,0.624737024307251,oven,bicycle,120,0162_ps_s01_120_bicycle_10_n02835271_9237.png
subject-01,1,163,0.663936138153076,car,bear,180,0163_ps_s01_180_bear_10_n02133161_832.png
subject-01,1,164,1.50002694129944,airplane,oven,150,0164_ps_s01_150_oven_10_n04111531_7965.png
subject-01,1,165,1.06586599349976,cat,cat,30,0165_ps_s01_30_cat_10_n02123045_7255.png
subject-01,1,166,0.581691026687622,boat,boat,60,0166_ps_s01_60_boat_10_n03662601_9590.png
subject-01,1,167,0.721261024475098,cat,cat,90,0167_ps_s01_90_cat_10_n02123597_3821.png
subject-01,1,168,0.877285957336426,bear,dog,150,0168_ps_s01_150_dog_10_n02110063_5687.png
subject-01,1,169,0.869771003723145,bicycle,knife,180,0169_ps_s01_180_knife_10_n03041632_36814.png
subject-01,1,170,0.77866792678833,oven,oven,120,0170_ps_s01_120_oven_10_n04111531_1220.png
subject-01,1,171,0.527079105377197,clock,clock,90,0171_ps_s01_90_clock_10_n02708093_6850.png
subject-01,1,172,0.713876962661743,bird,bear,30,0172_ps_s01_30_bear_10_n02133161_545.png
subject-01,1,173,0.692363977432251,keyboard,chair,120,0173_ps_s01_120_chair_10_n03376595_8302.png
subject-01,1,174,0.746005058288574,bird,bird,60,0174_ps_s01_60_bird_10_n02018207_12233.png
subject-01,1,175,0.772402048110962,car,dog,60,0175_ps_s01_60_dog_10_n02097658_759.png
subject-01,1,176,1.42612886428833,bottle,knife,60,0176_ps_s01_60_knife_10_n03041632_15299.png
subject-01,1,177,0.991001844406128,dog,dog,90,0177_ps_s01_90_dog_10_n02101388_11601.png
subject-01,1,178,0.607638120651245,bird,bird,60,0178_ps_s01_60_bird_10_n01592084_5833.png
subject-01,1,179,1.16124200820923,chair,oven,30,0179_ps_s01_30_oven_10_n04111531_2831.png
subject-01,1,180,0.701770067214966,clock,clock,0,0180_ps_s01_0_clock_10_n03196217_5493.png
subject-01,1,181,0.802746057510376,bear,keyboard,180,0181_ps_s01_180_keyboard_10_n03085013_23254.png
subject-01,1,182,0.626753091812134,bicycle,bicycle,0,0182_ps_s01_0_bicycle_10_n02835271_7794.png
subject-01,1,183,0.842639923095703,bottle,bottle,30,0183_ps_s01_30_bottle_10_n04557648_900.png
subject-01,1,184,1.06735014915466,keyboard,elephant,150,0184_ps_s01_150_elephant_10_n02504013_6659.png
subject-01,1,185,0.791248083114624,airplane,bear,150,0185_ps_s01_150_bear_10_n02133161_14317.png
subject-01,1,186,0.729862928390503,keyboard,keyboard,30,0186_ps_s01_30_keyboard_10_n04505470_5171.png
subject-01,1,187,1.50028610229492,chair,elephant,30,0187_ps_s01_30_elephant_10_n02504458_7033.png
subject-01,1,188,0.971413135528564,dog,dog,60,0188_ps_s01_60_dog_10_n02107683_2484.png
subject-01,1,189,0.833233833312988,truck,truck,30,0189_ps_s01_30_truck_10_n03417042_10401.png
subject-01,1,190,0.866254091262817,keyboard,keyboard,120,0190_ps_s01_120_keyboard_10_n04505470_4385.png
subject-01,1,191,1.02100992202759,elephant,airplane,180,0191_ps_s01_180_airplane_10_n02690373_9959.png
subject-01,1,192,1.17769193649292,bear,truck,120,0192_ps_s01_120_truck_10_n03796401_7518.png
subject-01,1,193,0.8785240650177,boat,boat,90,0193_ps_s01_90_boat_10_n04273569_32786.png
subject-01,1,194,0.880924940109253,airplane,airplane,30,0194_ps_s01_30_airplane_10_n02690373_11799.png
subject-01,1,195,0.71315598487854,bird,bird,90,0195_ps_s01_90_bird_10_n01530575_35115.png
subject-01,1,196,1.50031995773315,bear,dog,90,0196_ps_s01_90_dog_10_n02100877_2341.png
subject-01,1,197,0.546559810638428,clock,clock,90,0197_ps_s01_90_clock_10_n04548280_6022.png
subject-01,1,198,0.562731981277466,bear,bear,0,0198_ps_s01_0_bear_10_n02134084_5314.png
subject-01,1,199,0.633319139480591,clock,clock,120,0199_ps_s01_120_clock_10_n02708093_111.png
subject-01,1,200,0.70447301864624,airplane,truck,150,0200_ps_s01_150_truck_10_n03417042_5503.png
subject-01,1,201,0.774792194366455,bird,bird,30,0201_ps_s01_30_bird_10_n02007558_4009.png
subject-01,1,202,1.06090998649597,keyboard,keyboard,30,0202_ps_s01_30_keyboard_10_n03085013_6166.png
subject-01,1,203,0.786107063293457,oven,elephant,150,0203_ps_s01_150_elephant_10_n02504458_7827.png
subject-01,1,204,0.893854856491089,bird,bird,60,0204_ps_s01_60_bird_10_n02037110_4572.png
subject-01,1,205,0.948980093002319,bird,bottle,90,0205_ps_s01_90_bottle_10_n02823428_14196.png
subject-01,1,206,0.881162166595459,bottle,bottle,60,0206_ps_s01_60_bottle_10_n03983396_10027.png
subject-01,1,207,1.05174899101257,keyboard,keyboard,150,0207_ps_s01_150_keyboard_10_n03085013_17884.png
subject-01,1,208,0.591450929641724,boat,boat,90,0208_ps_s01_90_boat_10_n04273569_27343.png
subject-01,1,209,0.638957023620605,clock,clock,30,0209_ps_s01_30_clock_10_n04548280_4390.png
subject-01,1,210,0.700556039810181,car,car,30,0210_ps_s01_30_car_10_n04285008_5959.png
subject-01,1,211,1.04943203926086,bird,clock,30,0211_ps_s01_30_clock_10_n03196217_6348.png
subject-01,1,212,1.05725288391113,bear,bear,30,0212_ps_s01_30_bear_10_n02134418_5664.png
subject-01,1,213,1.24133896827698,boat,keyboard,150,0213_ps_s01_150_keyboard_10_n03085013_4999.png
subject-01,1,214,1.05790519714355,cat,dog,0,0214_ps_s01_0_dog_10_n02111129_5463.png
subject-01,1,215,1.09788084030151,airplane,truck,150,0215_ps_s01_150_truck_10_n03417042_18705.png
subject-01,1,216,1.09122896194458,car,airplane,150,0216_ps_s01_150_airplane_10_n02690373_16250.png
subject-01,1,217,0.994548082351685,elephant,bicycle,120,0217_ps_s01_120_bicycle_10_n02835271_19213.png
subject-01,1,218,0.802249908447266,truck,truck,90,0218_ps_s01_90_truck_10_n03417042_1978.png
subject-01,1,219,0.902491092681885,knife,clock,180,0219_ps_s01_180_clock_10_n03196217_4492.png
subject-01,1,220,0.910666942596436,bird,bird,60,0220_ps_s01_60_bird_10_n02056570_8536.png
subject-01,1,221,0.820884943008423,keyboard,keyboard,90,0221_ps_s01_90_keyboard_10_n03085013_5726.png
subject-01,1,222,0.87518310546875,cat,cat,120,0222_ps_s01_120_cat_10_n02123159_1108.png
subject-01,1,223,0.859774827957153,keyboard,keyboard,90,0223_ps_s01_90_keyboard_10_n04505470_5063.png
subject-01,1,224,0.730435132980347,bicycle,bicycle,60,0224_ps_s01_60_bicycle_10_n03792782_1477.png
subject-01,1,225,0.708118915557861,clock,clock,30,0225_ps_s01_30_clock_10_n03196217_8034.png
subject-01,1,226,1.08447194099426,airplane,bottle,120,0226_ps_s01_120_bottle_10_n03937543_24.png
subject-01,1,227,0.833095073699951,clock,clock,60,0227_ps_s01_60_clock_10_n04548280_1304.png
subject-01,1,228,0.733138799667358,bottle,bottle,0,0228_ps_s01_0_bottle_10_n04579145_5621.png
subject-01,1,229,0.587543964385986,car,oven,180,0229_ps_s01_180_oven_10_n04111531_6695.png
subject-01,1,230,1.01194000244141,knife,knife,0,0230_ps_s01_0_knife_10_n03041632_9157.png
subject-01,1,231,0.773994207382202,knife,knife,30,0231_ps_s01_30_knife_10_n03041632_20770.png
subject-01,1,232,0.769236087799072,cat,cat,90,0232_ps_s01_90_cat_10_n02123045_12691.png
subject-01,1,233,0.739702224731445,keyboard,keyboard,0,0233_ps_s01_0_keyboard_10_n04505470_3306.png
subject-01,1,234,0.755676031112671,cat,dog,120,0234_ps_s01_120_dog_10_n02100583_13688.png
subject-01,1,235,1.056077003479,airplane,oven,60,0235_ps_s01_60_oven_10_n04111531_6590.png
subject-01,1,236,1.45052909851074,elephant,elephant,60,0236_ps_s01_60_elephant_10_n02504013_299.png
subject-01,1,237,1.3674578666687,car,car,150,0237_ps_s01_150_car_10_n04285008_13076.png
subject-01,1,238,1.19161796569824,bird,boat,180,0238_ps_s01_180_boat_10_n03344393_7114.png
subject-01,1,239,1.21660685539246,keyboard,truck,0,0239_ps_s01_0_truck_10_n03417042_28794.png
subject-01,1,240,0.81685996055603,car,car,30,0240_ps_s01_30_car_10_n04285008_3688.png
subject-01,1,241,1.09464001655579,boat,bicycle,150,0241_ps_s01_150_bicycle_10_n03792782_378.png
subject-01,1,242,0.825012922286987,truck,dog,150,0242_ps_s01_150_dog_10_n02110063_3399.png
subject-01,1,243,0.944330930709839,knife,knife,30,0243_ps_s01_30_knife_10_n03041632_3063.png
subject-01,1,244,0.857895851135254,keyboard,bicycle,180,0244_ps_s01_180_bicycle_10_n02835271_7350.png
subject-01,1,245,0.890769004821777,bird,dog,150,0245_ps_s01_150_dog_10_n02108915_7875.png
subject-01,1,246,0.714958906173706,boat,boat,0,0246_ps_s01_0_boat_10_n04612504_15237.png
subject-01,1,247,0.893780946731567,airplane,airplane,120,0247_ps_s01_120_airplane_10_n02690373_13206.png
subject-01,1,248,0.826127052307129,bottle,dog,180,0248_ps_s01_180_dog_10_n02091032_6523.png
subject-01,1,249,0.965451002120972,car,car,90,0249_ps_s01_90_car_10_n04285008_203.png
subject-01,1,250,0.751636981964111,cat,cat,30,0250_ps_s01_30_cat_10_n02123597_4442.png
subject-01,1,251,1.09195899963379,bear,bear,60,0251_ps_s01_60_bear_10_n02134084_9253.png
subject-01,1,252,1.0460798740387,airplane,airplane,0,0252_ps_s01_0_airplane_10_n02690373_4119.png
subject-01,1,253,0.832670927047729,truck,truck,0,0253_ps_s01_0_truck_10_n04467665_13231.png
subject-01,1,254,0.711138963699341,car,bicycle,150,0254_ps_s01_150_bicycle_10_n03792782_6731.png
subject-01,1,255,0.711319923400879,bicycle,bicycle,0,0255_ps_s01_0_bicycle_10_n02835271_7256.png
subject-01,1,256,0.627932071685791,keyboard,bicycle,180,0256_ps_s01_180_bicycle_10_n03792782_50673.png
subject-01,1,257,0.806025981903076,car,keyboard,150,0257_ps_s01_150_keyboard_10_n03085013_3148.png
subject-01,1,258,0.876258134841919,chair,oven,150,0258_ps_s01_150_oven_10_n04111531_13486.png
subject-01,1,259,0.755101919174194,car,car,90,0259_ps_s01_90_car_10_n03100240_4674.png
subject-01,1,260,0.69378399848938,keyboard,elephant,150,0260_ps_s01_150_elephant_10_n02504458_4348.png
subject-01,1,261,0.726155996322632,oven,oven,30,0261_ps_s01_30_oven_10_n04111531_21822.png
subject-01,1,262,0.64311695098877,airplane,bottle,180,0262_ps_s01_180_bottle_10_n03983396_4775.png
subject-01,1,263,0.815218925476074,dog,dog,60,0263_ps_s01_60_dog_10_n02106550_6424.png
subject-01,1,264,0.745709180831909,bird,bird,120,0264_ps_s01_120_bird_10_n01855672_3952.png
subject-01,1,265,0.654121160507202,oven,oven,180,0265_ps_s01_180_oven_10_n04111531_14611.png
subject-01,1,266,1.06494379043579,oven,oven,0,0266_ps_s01_0_oven_10_n04111531_22886.png
subject-01,1,267,0.95730185508728,car,chair,60,0267_ps_s01_60_chair_10_n02791124_13057.png
subject-01,1,268,0.759455919265747,keyboard,chair,180,0268_ps_s01_180_chair_10_n02791124_1258.png
subject-01,1,269,0.668392181396484,car,car,120,0269_ps_s01_120_car_10_n03100240_23906.png
subject-01,1,270,0.862613916397095,bird,bird,60,0270_ps_s01_60_bird_10_n01817953_6333.png
subject-01,1,271,1.00937104225159,bear,chair,120,0271_ps_s01_120_chair_10_n03376595_10569.png
subject-01,1,272,0.702933073043823,airplane,airplane,90,0272_ps_s01_90_airplane_10_n02690373_19118.png
subject-01,1,273,0.949459075927734,chair,knife,120,0273_ps_s01_120_knife_10_n03041632_24541.png
subject-01,1,274,0.852586984634399,truck,knife,180,0274_ps_s01_180_knife_10_n03041632_2973.png
subject-01,1,275,0.990530014038086,truck,truck,30,0275_ps_s01_30_truck_10_n03796401_22643.png
subject-01,1,276,0.809550046920776,car,chair,150,0276_ps_s01_150_chair_10_n02791124_5685.png
subject-01,1,277,0.67100715637207,keyboard,oven,150,0277_ps_s01_150_oven_10_n04111531_4900.png
subject-01,1,278,0.787763833999634,bird,bird,0,0278_ps_s01_0_bird_10_n01817953_2257.png
subject-01,1,279,0.888185977935791,clock,knife,60,0279_ps_s01_60_knife_10_n03041632_1671.png
subject-01,1,280,0.688496112823486,car,car,60,0280_ps_s01_60_car_10_n03100240_13602.png
subject-01,1,281,0.82089900970459,bird,bird,30,0281_ps_s01_30_bird_10_n01817953_11996.png
subject-01,1,282,0.724047899246216,elephant,chair,150,0282_ps_s01_150_chair_10_n03376595_10700.png
subject-01,1,283,0.74039101600647,bear,knife,120,0283_ps_s01_120_knife_10_n03041632_36280.png
subject-01,1,284,0.710581064224243,truck,oven,150,0284_ps_s01_150_oven_10_n04111531_22084.png
subject-01,1,285,0.564682960510254,clock,clock,120,0285_ps_s01_120_clock_10_n02708093_4061.png
subject-01,1,286,0.688704013824463,bird,bird,30,0286_ps_s01_30_bird_10_n01798484_5355.png
subject-01,1,287,0.584012031555176,car,oven,180,0287_ps_s01_180_oven_10_n04111531_6958.png
subject-01,1,288,1.06826901435852,clock,bird,150,0288_ps_s01_150_bird_10_n02018207_69.png
subject-01,1,289,0.546646118164062,cat,cat,60,0289_ps_s01_60_cat_10_n02124075_13587.png
subject-01,1,290,0.824942111968994,keyboard,car,150,0290_ps_s01_150_car_10_n03100240_4594.png
subject-01,1,291,0.765819072723389,knife,bottle,60,0291_ps_s01_60_bottle_10_n02823428_889.png
subject-01,1,292,0.61955714225769,bicycle,bicycle,180,0292_ps_s01_180_bicycle_10_n03792782_8080.png
subject-01,1,293,0.696120977401733,elephant,elephant,90,0293_ps_s01_90_elephant_10_n02504013_8856.png
subject-01,1,294,0.959172964096069,bottle,truck,150,0294_ps_s01_150_truck_10_n03417042_1279.png
subject-01,1,295,0.615484952926636,chair,keyboard,150,0295_ps_s01_150_keyboard_10_n03085013_22821.png
subject-01,1,296,0.708198070526123,dog,bottle,150,0296_ps_s01_150_bottle_10_n03937543_964.png
subject-01,1,297,0.747742891311646,truck,chair,150,0297_ps_s01_150_chair_10_n04099969_26462.png
subject-01,1,298,0.680827140808105,bird,bird,0,0298_ps_s01_0_bird_10_n01537544_1943.png
subject-01,1,299,0.596989154815674,cat,chair,180,0299_ps_s01_180_chair_10_n03376595_208.png
subject-01,1,300,0.514012813568115,oven,oven,120,0300_ps_s01_120_oven_10_n04111531_1004.png
subject-01,1,301,0.754331111907959,truck,truck,60,0301_ps_s01_60_truck_10_n04467665_50648.png
subject-01,1,302,0.633079051971436,car,car,120,0302_ps_s01_120_car_10_n04285008_3268.png
subject-01,1,303,0.800626993179321,dog,dog,0,0303_ps_s01_0_dog_10_n02097047_705.png
subject-01,1,304,0.84682297706604,bear,bear,90,0304_ps_s01_90_bear_10_n02134084_4442.png
subject-01,1,305,0.995532035827637,elephant,dog,120,0305_ps_s01_120_dog_10_n02086646_8144.png
subject-01,1,306,0.864880800247192,cat,bear,180,0306_ps_s01_180_bear_10_n02134084_23061.png
subject-01,1,307,1.16608381271362,car,airplane,150,0307_ps_s01_150_airplane_10_n02690373_3407.png
subject-01,1,308,0.752064943313599,airplane,keyboard,150,0308_ps_s01_150_keyboard_10_n03085013_15162.png
subject-01,1,309,0.790547132492065,bottle,clock,150,0309_ps_s01_150_clock_10_n04548280_8398.png
subject-01,1,310,0.676797866821289,keyboard,keyboard,90,0310_ps_s01_90_keyboard_10_n03085013_25443.png
subject-01,1,311,0.601586103439331,chair,chair,90,0311_ps_s01_90_chair_10_n04099969_36004.png
subject-01,1,312,0.626249074935913,bottle,bottle,30,0312_ps_s01_30_bottle_10_n04579145_3769.png
subject-01,1,313,0.704612016677856,car,bicycle,150,0313_ps_s01_150_bicycle_10_n02835271_783.png
subject-01,1,314,0.790952920913696,clock,clock,60,0314_ps_s01_60_clock_10_n02708093_7973.png
subject-01,1,315,0.624215126037598,keyboard,airplane,180,0315_ps_s01_180_airplane_10_n02690373_6144.png
subject-01,1,316,0.994052886962891,bear,bicycle,150,0316_ps_s01_150_bicycle_10_n03792782_5133.png
subject-01,1,317,0.672922134399414,truck,oven,0,0317_ps_s01_0_oven_10_n04111531_17576.png
subject-01,1,318,0.497710943222046,oven,bear,180,0318_ps_s01_180_bear_10_n02134084_10289.png
subject-01,1,319,0.659981966018677,clock,truck,180,0319_ps_s01_180_truck_10_n04467665_670.png
subject-01,1,320,1.16851186752319,dog,cat,30,0320_ps_s01_30_cat_10_n02123045_9813.png
subject-01,1,321,1.50007605552673,clock,clock,90,0321_ps_s01_90_clock_10_n03196217_127.png
subject-01,1,322,0.891940116882324,elephant,elephant,120,0322_ps_s01_120_elephant_10_n02504458_9213.png
subject-01,1,323,0.83208703994751,car,bottle,180,0323_ps_s01_180_bottle_10_n04579145_3302.png
subject-01,1,324,1.0865159034729,keyboard,keyboard,0,0324_ps_s01_0_keyboard_10_n04505470_9514.png
subject-01,1,325,0.811172008514404,truck,truck,90,0325_ps_s01_90_truck_10_n03796401_6772.png
subject-01,1,326,0.997400045394897,bicycle,bicycle,30,0326_ps_s01_30_bicycle_10_n03792782_4277.png
subject-01,1,327,0.721964836120605,cat,elephant,180,0327_ps_s01_180_elephant_10_n02504013_6984.png
subject-01,1,328,0.608393907546997,oven,oven,0,0328_ps_s01_0_oven_10_n04111531_3202.png
subject-01,1,329,0.654782772064209,airplane,airplane,0,0329_ps_s01_0_airplane_10_n02690373_1325.png
subject-01,1,330,0.949033975601196,bicycle,bicycle,60,0330_ps_s01_60_bicycle_10_n02835271_25519.png
subject-01,1,331,0.881153106689453,airplane,dog,180,0331_ps_s01_180_dog_10_n02108000_5623.png
subject-01,1,332,1.05736088752747,bottle,bottle,60,0332_ps_s01_60_bottle_10_n04557648_10582.png
subject-01,1,333,0.881971120834351,elephant,bird,120,0333_ps_s01_120_bird_10_n01798484_12863.png
subject-01,1,334,0.744157075881958,car,bottle,150,0334_ps_s01_150_bottle_10_n03937543_4783.png
subject-01,1,335,0.946984052658081,chair,chair,60,0335_ps_s01_60_chair_10_n02791124_6237.png
subject-01,1,336,1.44714903831482,elephant,bottle,180,0336_ps_s01_180_bottle_10_n03983396_5532.png
subject-01,1,337,0.612679958343506,bear,cat,150,0337_ps_s01_150_cat_10_n02123159_615.png
subject-01,1,338,0.912574052810669,dog,dog,90,0338_ps_s01_90_dog_10_n02091244_2626.png
subject-01,1,339,1.06677198410034,knife,knife,120,0339_ps_s01_120_knife_10_n03041632_16826.png
subject-01,1,340,1.04532694816589,truck,knife,90,0340_ps_s01_90_knife_10_n03041632_12242.png
subject-01,1,341,0.853404998779297,car,clock,180,0341_ps_s01_180_clock_10_n04548280_5527.png
subject-01,1,342,0.853805065155029,keyboard,bear,150,0342_ps_s01_150_bear_10_n02134084_3860.png
subject-01,1,343,0.948312997817993,bird,bird,60,0343_ps_s01_60_bird_10_n02011460_3509.png
subject-01,1,344,0.689059019088745,oven,oven,0,0344_ps_s01_0_oven_10_n04111531_2342.png
subject-01,1,345,0.968023061752319,airplane,bear,60,0345_ps_s01_60_bear_10_n02134418_2185.png
subject-01,1,346,0.692348003387451,boat,boat,150,0346_ps_s01_150_boat_10_n03344393_4944.png
subject-01,1,347,0.947226047515869,clock,clock,30,0347_ps_s01_30_clock_10_n02708093_1125.png
subject-01,1,348,1.03295803070068,dog,clock,180,0348_ps_s01_180_clock_10_n02708093_1352.png
subject-01,1,349,0.750081062316895,bottle,bottle,60,0349_ps_s01_60_bottle_10_n04579145_4385.png
subject-01,1,350,0.598506927490234,bottle,bottle,30,0350_ps_s01_30_bottle_10_n04560804_5769.png
subject-01,1,351,1.05261301994324,bottle,bottle,30,0351_ps_s01_30_bottle_10_n04560804_8454.png
subject-01,1,352,0.839442014694214,car,bear,180,0352_ps_s01_180_bear_10_n02133161_897.png
subject-01,1,353,0.848016977310181,keyboard,keyboard,120,0353_ps_s01_120_keyboard_10_n04505470_2909.png
subject-01,1,354,1.03484988212585,truck,boat,150,0354_ps_s01_150_boat_10_n02951358_11586.png
subject-01,1,355,1.03422594070435,chair,chair,0,0355_ps_s01_0_chair_10_n03376595_3062.png
subject-01,1,356,0.875402927398682,airplane,cat,150,0356_ps_s01_150_cat_10_n02123159_3524.png
subject-01,1,357,0.923402070999146,oven,car,120,0357_ps_s01_120_car_10_n04285008_13247.png
subject-01,1,358,0.856105089187622,elephant,elephant,30,0358_ps_s01_30_elephant_10_n02504458_4696.png
subject-01,1,359,0.702293157577515,cat,cat,30,0359_ps_s01_30_cat_10_n02123045_11826.png
subject-01,1,360,0.818371057510376,keyboard,bottle,60,0360_ps_s01_60_bottle_10_n03983396_2205.png
subject-01,1,361,0.989196062088013,truck,truck,30,0361_ps_s01_30_truck_10_n04467665_6523.png
subject-01,1,362,0.837918996810913,car,oven,180,0362_ps_s01_180_oven_10_n04111531_9026.png
subject-01,1,363,0.638818979263306,cat,bear,120,0363_ps_s01_120_bear_10_n02134418_14451.png
subject-01,1,364,1.21665096282959,airplane,bear,150,0364_ps_s01_150_bear_10_n02134418_1642.png
subject-01,1,365,0.987422943115234,bear,bear,90,0365_ps_s01_90_bear_10_n02132136_8358.png
subject-01,1,366,0.889311075210571,bear,bear,120,0366_ps_s01_120_bear_10_n02134084_4028.png
subject-01,1,367,1.12024402618408,clock,airplane,90,0367_ps_s01_90_airplane_10_n02690373_1854.png
subject-01,1,368,0.590463876724243,boat,oven,180,0368_ps_s01_180_oven_10_n04111531_6756.png
subject-01,1,369,1.30678009986877,elephant,elephant,60,0369_ps_s01_60_elephant_10_n02504013_10389.png
subject-01,1,370,0.7779541015625,truck,truck,60,0370_ps_s01_60_truck_10_n03417042_13055.png
subject-01,1,371,1.04771399497986,dog,dog,30,0371_ps_s01_30_dog_10_n02108915_1165.png
subject-01,1,372,1.03423500061035,oven,oven,60,0372_ps_s01_60_oven_10_n04111531_21980.png
subject-01,1,373,0.896543979644775,airplane,chair,180,0373_ps_s01_180_chair_10_n04099969_9960.png
subject-01,1,374,0.696168899536133,elephant,elephant,30,0374_ps_s01_30_elephant_10_n02504013_8308.png
subject-01,1,375,0.866856098175049,car,bear,150,0375_ps_s01_150_bear_10_n02134084_20261.png
subject-01,1,376,0.707873106002808,oven,bicycle,150,0376_ps_s01_150_bicycle_10_n02835271_10770.png
subject-01,1,377,0.66191291809082,clock,clock,60,0377_ps_s01_60_clock_10_n04548280_11597.png
subject-01,1,378,0.680418014526367,bicycle,bicycle,90,0378_ps_s01_90_bicycle_10_n03792782_17503.png
subject-01,1,379,1.39468884468079,truck,car,0,0379_ps_s01_0_car_10_n02814533_76388.png
subject-01,1,380,0.712797880172729,bird,clock,150,0380_ps_s01_150_clock_10_n04548280_3299.png
subject-01,1,381,0.683032035827637,airplane,truck,180,0381_ps_s01_180_truck_10_n03417042_6809.png
subject-01,1,382,0.999849081039429,elephant,bicycle,90,0382_ps_s01_90_bicycle_10_n03792782_12561.png
subject-01,1,383,1.09195494651794,boat,car,180,0383_ps_s01_180_car_10_n03100240_18276.png
subject-01,1,384,1.30011892318726,dog,dog,120,0384_ps_s01_120_dog_10_n02099849_2217.png
subject-01,1,385,0.871361017227173,chair,bottle,150,0385_ps_s01_150_bottle_10_n04557648_8320.png
subject-01,1,386,0.910802841186523,airplane,bird,0,0386_ps_s01_0_bird_10_n02006656_7153.png
subject-01,1,387,0.820146083831787,knife,boat,150,0387_ps_s01_150_boat_10_n04273569_1145.png
subject-01,1,388,1.45263695716858,boat,boat,90,0388_ps_s01_90_boat_10_n03662601_9069.png
subject-01,1,389,0.731298923492432,airplane,airplane,0,0389_ps_s01_0_airplane_10_n02690373_1952.png
subject-01,1,390,0.777911901473999,bird,airplane,150,0390_ps_s01_150_airplane_10_n02690373_4070.png
subject-01,1,391,0.88059401512146,elephant,elephant,0,0391_ps_s01_0_elephant_10_n02504013_1698.png
subject-01,1,392,0.726802110671997,airplane,airplane,120,0392_ps_s01_120_airplane_10_n02690373_4495.png
subject-01,1,393,0.680458068847656,bear,truck,150,0393_ps_s01_150_truck_10_n03417042_10476.png
subject-01,1,394,0.921382188796997,truck,dog,180,0394_ps_s01_180_dog_10_n02093991_2725.png
subject-01,1,395,0.73832106590271,keyboard,keyboard,60,0395_ps_s01_60_keyboard_10_n04505470_5880.png
subject-01,1,396,0.786282062530518,airplane,airplane,90,0396_ps_s01_90_airplane_10_n02690373_17937.png
subject-01,1,397,0.845870018005371,clock,truck,90,0397_ps_s01_90_truck_10_n03796401_7104.png
subject-01,1,398,1.01053905487061,oven,chair,180,0398_ps_s01_180_chair_10_n02791124_2611.png
subject-01,1,399,1.1189181804657,elephant,bear,90,0399_ps_s01_90_bear_10_n02133161_4043.png
subject-01,1,400,0.935391902923584,elephant,elephant,60,0400_ps_s01_60_elephant_10_n02504458_8141.png
subject-01,1,401,0.935772895812988,cat,cat,0,0401_ps_s01_0_cat_10_n02123394_6517.png
subject-01,1,402,0.930066823959351,chair,chair,120,0402_ps_s01_120_chair_10_n03376595_4362.png
subject-01,1,403,0.862936973571777,truck,truck,60,0403_ps_s01_60_truck_10_n03796401_1681.png
subject-01,1,404,0.900612115859985,bicycle,bicycle,60,0404_ps_s01_60_bicycle_10_n03792782_24591.png
subject-01,1,405,0.909358978271484,truck,truck,120,0405_ps_s01_120_truck_10_n03796401_4370.png
subject-01,1,406,1.09627890586853,chair,chair,90,0406_ps_s01_90_chair_10_n02791124_538.png
subject-01,1,407,1.0584409236908,dog,bear,90,0407_ps_s01_90_bear_10_n02133161_8856.png
subject-01,1,408,0.907585859298706,cat,chair,120,0408_ps_s01_120_chair_10_n04429376_16869.png
subject-01,1,409,0.708181858062744,car,car,90,0409_ps_s01_90_car_10_n04285008_17056.png
subject-01,1,410,1.2783420085907,chair,clock,120,0410_ps_s01_120_clock_10_n02708093_1539.png
subject-01,1,411,1.1486029624939,airplane,dog,180,0411_ps_s01_180_dog_10_n02099429_4843.png
subject-01,1,412,1.08909296989441,bear,bicycle,180,0412_ps_s01_180_bicycle_10_n03792782_3334.png
subject-01,1,413,0.752100944519043,chair,knife,0,0413_ps_s01_0_knife_10_n03041632_33424.png
subject-01,1,414,0.676724910736084,keyboard,car,180,0414_ps_s01_180_car_10_n04285008_9080.png
subject-01,1,415,0.62557315826416,bicycle,bicycle,0,0415_ps_s01_0_bicycle_10_n02835271_9866.png
subject-01,1,416,0.657948017120361,chair,chair,0,0416_ps_s01_0_chair_10_n02791124_16885.png
subject-01,1,417,0.850414991378784,boat,boat,90,0417_ps_s01_90_boat_10_n04273569_4772.png
subject-01,1,418,0.807254076004028,chair,oven,30,0418_ps_s01_30_oven_10_n04111531_6903.png
subject-01,1,419,1.01571893692017,bird,bear,120,0419_ps_s01_120_bear_10_n02132136_3616.png
subject-01,1,420,0.655960083007812,keyboard,bottle,180,0420_ps_s01_180_bottle_10_n04591713_644.png
subject-01,1,421,0.52735710144043,cat,cat,0,0421_ps_s01_0_cat_10_n02123045_10887.png
subject-01,1,422,0.860331058502197,truck,truck,90,0422_ps_s01_90_truck_10_n03417042_5228.png
subject-01,1,423,0.938830852508545,bear,clock,120,0423_ps_s01_120_clock_10_n02708093_480.png
subject-01,1,424,0.69480299949646,cat,cat,90,0424_ps_s01_90_cat_10_n02125311_36138.png
subject-01,1,425,1.50027298927307,cat,knife,150,0425_ps_s01_150_knife_10_n03041632_37618.png
subject-01,1,426,0.666630983352661,dog,dog,90,0426_ps_s01_90_dog_10_n02100583_24297.png
subject-01,1,427,0.791432857513428,cat,dog,150,0427_ps_s01_150_dog_10_n02096585_271.png
subject-01,1,428,0.815346956253052,knife,knife,0,0428_ps_s01_0_knife_10_n03041632_29961.png
subject-01,1,429,0.902682065963745,car,car,60,0429_ps_s01_60_car_10_n03100240_17349.png
subject-01,1,430,0.864511966705322,keyboard,bottle,150,0430_ps_s01_150_bottle_10_n03937543_793.png
subject-01,1,431,0.913481950759888,airplane,airplane,60,0431_ps_s01_60_airplane_10_n02690373_1706.png
subject-01,1,432,1.07609796524048,oven,bicycle,120,0432_ps_s01_120_bicycle_10_n03792782_20475.png
subject-01,1,433,0.684097051620483,clock,boat,150,0433_ps_s01_150_boat_10_n04273569_62.png
subject-01,1,434,0.794913053512573,chair,knife,120,0434_ps_s01_120_knife_10_n03041632_26340.png
subject-01,1,435,0.740548133850098,bicycle,bicycle,60,0435_ps_s01_60_bicycle_10_n02835271_21185.png
subject-01,1,436,0.978512048721313,car,oven,180,0436_ps_s01_180_oven_10_n04111531_10336.png
subject-01,1,437,0.987323045730591,boat,keyboard,180,0437_ps_s01_180_keyboard_10_n04505470_4579.png
subject-01,1,438,0.743271112442017,airplane,airplane,30,0438_ps_s01_30_airplane_10_n02690373_13324.png
subject-01,1,439,0.805747032165527,keyboard,airplane,150,0439_ps_s01_150_airplane_10_n02690373_1751.png
subject-01,1,440,0.868810176849365,airplane,cat,120,0440_ps_s01_120_cat_10_n02123045_12046.png
subject-01,1,441,1.23876404762268,bear,bottle,150,0441_ps_s01_150_bottle_10_n04560804_26326.png
subject-01,1,442,1.11710786819458,bird,clock,150,0442_ps_s01_150_clock_10_n04548280_8314.png
subject-01,1,443,0.633476972579956,cat,cat,0,0443_ps_s01_0_cat_10_n02123045_13354.png
subject-01,1,444,0.849525213241577,elephant,dog,150,0444_ps_s01_150_dog_10_n02089973_2756.png
subject-01,1,445,0.658308029174805,oven,oven,60,0445_ps_s01_60_oven_10_n04111531_9939.png
subject-01,1,446,1.05890607833862,truck,airplane,180,0446_ps_s01_180_airplane_10_n02690373_8382.png
subject-01,1,447,0.685654878616333,bear,bottle,180,0447_ps_s01_180_bottle_10_n04560804_3959.png
subject-01,1,448,1.12404203414917,elephant,elephant,0,0448_ps_s01_0_elephant_10_n02504013_3087.png
subject-01,1,449,1.16489386558533,chair,chair,60,0449_ps_s01_60_chair_10_n04429376_6141.png
subject-01,1,450,0.748563051223755,bird,clock,180,0450_ps_s01_180_clock_10_n02708093_960.png
subject-01,1,451,0.588382959365845,boat,bird,150,0451_ps_s01_150_bird_10_n02002556_2917.png
subject-01,1,452,0.659060955047607,clock,clock,180,0452_ps_s01_180_clock_10_n02708093_2721.png
subject-01,1,453,0.682713985443115,truck,truck,120,0453_ps_s01_120_truck_10_n04467665_51397.png
subject-01,1,454,0.915789842605591,dog,dog,30,0454_ps_s01_30_dog_10_n02101388_5116.png
subject-01,1,455,1.19321894645691,car,bear,180,0455_ps_s01_180_bear_10_n02132136_110.png
subject-01,1,456,0.794295072555542,oven,bird,180,0456_ps_s01_180_bird_10_n02018207_14738.png
subject-01,1,457,0.824893951416016,keyboard,keyboard,30,0457_ps_s01_30_keyboard_10_n04505470_5111.png
subject-01,1,458,1.03317999839783,elephant,elephant,0,0458_ps_s01_0_elephant_10_n02504013_20805.png
subject-01,1,459,0.903196811676025,keyboard,keyboard,120,0459_ps_s01_120_keyboard_10_n04505470_4724.png
subject-01,1,460,0.990140914916992,bird,bird,0,0460_ps_s01_0_bird_10_n02011460_5925.png
subject-01,1,461,0.88437294960022,car,knife,180,0461_ps_s01_180_knife_10_n03041632_24277.png
subject-01,1,462,0.960527896881104,truck,bicycle,120,0462_ps_s01_120_bicycle_10_n02835271_13644.png
subject-01,1,463,0.800904035568237,clock,clock,60,0463_ps_s01_60_clock_10_n04548280_5866.png
subject-01,1,464,0.779591083526611,bird,bird,30,0464_ps_s01_30_bird_10_n01824575_6272.png
subject-01,1,465,0.987850904464722,boat,boat,120,0465_ps_s01_120_boat_10_n03344393_11315.png
subject-01,1,466,0.680290937423706,elephant,elephant,30,0466_ps_s01_30_elephant_10_n02504458_9835.png
subject-01,1,467,0.903176069259644,bear,bear,0,0467_ps_s01_0_bear_10_n02134084_42197.png
subject-01,1,468,1.06572508811951,oven,bottle,30,0468_ps_s01_30_bottle_10_n03937543_3133.png
subject-01,1,469,1.24972486495972,keyboard,oven,90,0469_ps_s01_90_oven_10_n04111531_7430.png
subject-01,1,470,0.728739023208618,car,bear,180,0470_ps_s01_180_bear_10_n02132136_5146.png
subject-01,1,471,0.769232034683228,clock,boat,180,0471_ps_s01_180_boat_10_n04273569_568.png
subject-01,1,472,0.531657934188843,cat,cat,60,0472_ps_s01_60_cat_10_n02125311_54015.png
subject-01,1,473,1.44021916389465,car,car,60,0473_ps_s01_60_car_10_n04285008_10755.png
subject-01,1,474,0.810318946838379,elephant,elephant,120,0474_ps_s01_120_elephant_10_n02504013_25336.png
subject-01,1,475,0.74271297454834,bottle,bottle,0,0475_ps_s01_0_bottle_10_n03983396_15006.png
subject-01,1,476,0.906095027923584,boat,keyboard,180,0476_ps_s01_180_keyboard_10_n03085013_4553.png
subject-01,1,477,0.875910997390747,bear,bear,0,0477_ps_s01_0_bear_10_n02132136_3109.png
subject-01,1,478,0.584317922592163,boat,boat,60,0478_ps_s01_60_boat_10_n04612504_14699.png
subject-01,1,479,0.916331052780151,clock,clock,0,0479_ps_s01_0_clock_10_n04548280_2170.png
subject-01,1,480,0.618608951568604,clock,clock,60,0480_ps_s01_60_clock_10_n04548280_5734.png
subject-01,1,481,1.4613139629364,bird,cat,0,0481_ps_s01_0_cat_10_n02123394_523.png
subject-01,1,482,0.94011402130127,airplane,boat,120,0482_ps_s01_120_boat_10_n04273569_20587.png
subject-01,1,483,0.594316959381104,boat,boat,30,0483_ps_s01_30_boat_10_n03344393_8374.png
subject-01,1,484,0.626424074172974,elephant,elephant,90,0484_ps_s01_90_elephant_10_n02504013_15805.png
subject-01,1,485,0.734411954879761,truck,truck,0,0485_ps_s01_0_truck_10_n03417042_16038.png
subject-01,1,486,0.638078927993774,oven,chair,180,0486_ps_s01_180_chair_10_n04099969_6691.png
subject-01,1,487,0.662703037261963,elephant,elephant,0,0487_ps_s01_0_elephant_10_n02504013_7035.png
subject-01,1,488,0.633110046386719,elephant,elephant,0,0488_ps_s01_0_elephant_10_n02504458_4316.png
subject-01,1,489,0.833232164382935,car,bottle,180,0489_ps_s01_180_bottle_10_n04579145_1856.png
subject-01,1,490,0.760272026062012,bear,bear,90,0490_ps_s01_90_bear_10_n02132136_5778.png
subject-01,1,491,0.758013010025024,airplane,bottle,180,0491_ps_s01_180_bottle_10_n04557648_3637.png
subject-01,1,492,1.06041884422302,truck,truck,0,0492_ps_s01_0_truck_10_n03796401_4017.png
subject-01,1,493,0.761270999908447,bicycle,bicycle,30,0493_ps_s01_30_bicycle_10_n02835271_12188.png
subject-01,1,494,0.793493032455444,bear,bear,0,0494_ps_s01_0_bear_10_n02132136_6967.png
subject-01,1,495,0.779495000839233,airplane,airplane,90,0495_ps_s01_90_airplane_10_n02690373_1696.png
subject-01,1,496,0.687930107116699,keyboard,elephant,150,0496_ps_s01_150_elephant_10_n02504458_5470.png
subject-01,1,497,0.780196905136108,car,bottle,120,0497_ps_s01_120_bottle_10_n03937543_10666.png
subject-01,1,498,0.644937038421631,chair,chair,30,0498_ps_s01_30_chair_10_n03376595_12364.png
subject-01,1,499,0.661201953887939,bicycle,bicycle,120,0499_ps_s01_120_bicycle_10_n02835271_12346.png
subject-01,1,500,0.946052074432373,bear,bear,30,0500_ps_s01_30_bear_10_n02133161_1560.png
subject-01,1,501,0.815418004989624,oven,car,150,0501_ps_s01_150_car_10_n03100240_16145.png
subject-01,1,502,0.710038900375366,car,bird,150,0502_ps_s01_150_bird_10_n01582220_1150.png
subject-01,1,503,0.718204975128174,car,car,150,0503_ps_s01_150_car_10_n04285008_8813.png
subject-01,1,504,0.696610927581787,airplane,airplane,90,0504_ps_s01_90_airplane_10_n02690373_21731.png
subject-01,1,505,0.567305088043213,oven,cat,150,0505_ps_s01_150_cat_10_n02125311_11409.png
subject-01,1,506,0.683279991149902,keyboard,bird,180,0506_ps_s01_180_bird_10_n01796340_5016.png
subject-01,1,507,1.09982800483704,bear,bird,120,0507_ps_s01_120_bird_10_n01796340_12914.png
subject-01,1,508,1.12967920303345,airplane,keyboard,120,0508_ps_s01_120_keyboard_10_n03085013_7752.png
subject-01,1,509,0.694366931915283,elephant,elephant,60,0509_ps_s01_60_elephant_10_n02504013_4229.png
subject-01,1,510,0.573400974273682,clock,chair,60,0510_ps_s01_60_chair_10_n03376595_3910.png
subject-01,1,511,0.812204122543335,elephant,chair,180,0511_ps_s01_180_chair_10_n02791124_3994.png
subject-01,1,512,0.585092782974243,clock,clock,30,0512_ps_s01_30_clock_10_n03196217_2536.png
subject-01,1,513,0.76947808265686,dog,dog,90,0513_ps_s01_90_dog_10_n02108551_14704.png
subject-01,1,514,0.940026044845581,cat,knife,120,0514_ps_s01_120_knife_10_n03041632_102828.png
subject-01,1,515,0.810458898544312,bicycle,car,150,0515_ps_s01_150_car_10_n04285008_810.png
subject-01,1,516,0.581427097320557,bicycle,bicycle,60,0516_ps_s01_60_bicycle_10_n02835271_20714.png
subject-01,1,517,0.713499069213867,knife,knife,0,0517_ps_s01_0_knife_10_n03041632_24561.png
subject-01,1,518,0.770122051239014,car,car,90,0518_ps_s01_90_car_10_n03100240_6010.png
subject-01,1,519,0.692264080047607,boat,boat,120,0519_ps_s01_120_boat_10_n03662601_7885.png
subject-01,1,520,0.748723983764648,airplane,oven,180,0520_ps_s01_180_oven_10_n04111531_15367.png
subject-01,1,521,0.670634031295776,boat,boat,60,0521_ps_s01_60_boat_10_n04273569_15906.png
subject-01,1,522,0.865363121032715,chair,chair,30,0522_ps_s01_30_chair_10_n04099969_52474.png
subject-01,1,523,0.666021108627319,keyboard,keyboard,30,0523_ps_s01_30_keyboard_10_n04505470_6963.png
subject-01,1,524,0.93641185760498,bear,bear,60,0524_ps_s01_60_bear_10_n02134418_5971.png
subject-01,1,525,0.700308084487915,bear,bear,60,0525_ps_s01_60_bear_10_n02134418_5537.png
subject-01,1,526,0.987336874008179,car,car,60,0526_ps_s01_60_car_10_n02814533_38071.png
subject-01,1,527,0.963869094848633,elephant,elephant,60,0527_ps_s01_60_elephant_10_n02504458_6715.png
subject-01,1,528,0.949932098388672,elephant,bottle,120,0528_ps_s01_120_bottle_10_n04560804_15162.png
subject-01,1,529,1.2746798992157,bear,airplane,150,0529_ps_s01_150_airplane_10_n02690373_3589.png
subject-01,1,530,1.29950404167175,airplane,truck,150,0530_ps_s01_150_truck_10_n03417042_6480.png
subject-01,1,531,0.83127498626709,keyboard,keyboard,60,0531_ps_s01_60_keyboard_10_n04505470_46.png
subject-01,1,532,0.672029972076416,keyboard,keyboard,30,0532_ps_s01_30_keyboard_10_n03085013_7520.png
subject-01,1,533,NaN,na,bird,120,0533_ps_s01_120_bird_10_n02007558_7614.png
subject-01,1,534,0.851057052612305,car,elephant,90,0534_ps_s01_90_elephant_10_n02504013_3640.png
subject-01,1,535,1.04594397544861,car,car,60,0535_ps_s01_60_car_10_n03100240_8107.png
subject-01,1,536,0.778194904327393,clock,clock,90,0536_ps_s01_90_clock_10_n02708093_204.png
subject-01,1,537,1.07906579971313,truck,bear,150,0537_ps_s01_150_bear_10_n02134084_17572.png
subject-01,1,538,0.919939041137695,dog,dog,30,0538_ps_s01_30_dog_10_n02093647_1022.png
subject-01,1,539,0.714632987976074,clock,clock,90,0539_ps_s01_90_clock_10_n03196217_5827.png
subject-01,1,540,0.701791048049927,dog,dog,30,0540_ps_s01_30_dog_10_n02109525_72594.png
subject-01,1,541,0.634263038635254,bicycle,bicycle,0,0541_ps_s01_0_bicycle_10_n03792782_54196.png
subject-01,1,542,0.834115982055664,bear,bear,60,0542_ps_s01_60_bear_10_n02134084_21921.png
subject-01,1,543,1.32154703140259,dog,dog,60,0543_ps_s01_60_dog_10_n02090721_1105.png
subject-01,1,544,0.913330078125,clock,keyboard,60,0544_ps_s01_60_keyboard_10_n03085013_30073.png
subject-01,1,545,1.09919285774231,airplane,boat,180,0545_ps_s01_180_boat_10_n03662601_15915.png
subject-01,1,546,0.939218997955322,dog,bear,30,0546_ps_s01_30_bear_10_n02132136_9367.png
subject-01,1,547,0.7779860496521,bicycle,bicycle,30,0547_ps_s01_30_bicycle_10_n02835271_5886.png
subject-01,1,548,0.680104970932007,bottle,bottle,60,0548_ps_s01_60_bottle_10_n02823428_4108.png
subject-01,1,549,0.883088111877441,keyboard,keyboard,150,0549_ps_s01_150_keyboard_10_n04505470_2113.png
subject-01,1,550,0.915633916854858,dog,dog,90,0550_ps_s01_90_dog_10_n02085782_4522.png
subject-01,1,551,1.08674907684326,car,car,90,0551_ps_s01_90_car_10_n03100240_24001.png
subject-01,1,552,0.724232912063599,clock,clock,0,0552_ps_s01_0_clock_10_n04548280_4426.png
subject-01,1,553,0.764688014984131,oven,oven,30,0553_ps_s01_30_oven_10_n04111531_16198.png
subject-01,1,554,1.03513193130493,clock,knife,60,0554_ps_s01_60_knife_10_n03041632_20662.png
subject-01,1,555,0.959609985351562,keyboard,cat,180,0555_ps_s01_180_cat_10_n02124075_14363.png
subject-01,1,556,0.729690790176392,oven,oven,90,0556_ps_s01_90_oven_10_n04111531_4944.png
subject-01,1,557,1.50011587142944,clock,knife,90,0557_ps_s01_90_knife_10_n03041632_25498.png
subject-01,1,558,1.19984483718872,bear,bear,60,0558_ps_s01_60_bear_10_n02133161_6152.png
subject-01,1,559,NaN,na,elephant,60,0559_ps_s01_60_elephant_10_n02504458_3614.png
subject-01,1,560,0.823977947235107,car,car,180,0560_ps_s01_180_car_10_n02814533_39517.png
subject-01,1,561,1.21090197563171,knife,knife,90,0561_ps_s01_90_knife_10_n03041632_89391.png
subject-01,1,562,0.749797105789185,keyboard,keyboard,90,0562_ps_s01_90_keyboard_10_n03085013_20247.png
subject-01,1,563,0.706373929977417,truck,truck,60,0563_ps_s01_60_truck_10_n03796401_8037.png
subject-01,1,564,0.652261972427368,oven,knife,90,0564_ps_s01_90_knife_10_n03041632_32896.png
subject-01,1,565,0.784503936767578,chair,chair,30,0565_ps_s01_30_chair_10_n04099969_15882.png
subject-01,1,566,0.863144159317017,car,chair,120,0566_ps_s01_120_chair_10_n02791124_4319.png
subject-01,1,567,1.19337201118469,airplane,cat,150,0567_ps_s01_150_cat_10_n02125311_5570.png
subject-01,1,568,1.09519791603088,oven,oven,30,0568_ps_s01_30_oven_10_n04111531_2770.png
subject-01,1,569,1.08205199241638,keyboard,bird,180,0569_ps_s01_180_bird_10_n02011460_7629.png
subject-01,1,570,1.00404191017151,bicycle,bicycle,120,0570_ps_s01_120_bicycle_10_n02835271_9669.png
subject-01,1,571,1.07450914382935,car,knife,180,0571_ps_s01_180_knife_10_n03041632_9406.png
subject-01,1,572,1.0610511302948,bottle,bottle,90,0572_ps_s01_90_bottle_10_n04557648_11847.png
subject-01,1,573,0.755508184432983,bear,bird,150,0573_ps_s01_150_bird_10_n01855032_1306.png
subject-01,1,574,1.13426995277405,bottle,bottle,0,0574_ps_s01_0_bottle_10_n02823428_2481.png
subject-01,1,575,1.13518404960632,bottle,bottle,30,0575_ps_s01_30_bottle_10_n04557648_7693.png
subject-01,1,576,1.20577096939087,car,knife,120,0576_ps_s01_120_knife_10_n03041632_14546.png
subject-01,1,577,0.899800062179565,knife,knife,30,0577_ps_s01_30_knife_10_n03041632_32208.png
subject-01,1,578,0.995008945465088,car,car,120,0578_ps_s01_120_car_10_n04285008_3884.png
subject-01,1,579,NaN,na,airplane,120,0579_ps_s01_120_airplane_10_n02690373_8446.png
subject-01,1,580,0.757576942443848,airplane,airplane,60,0580_ps_s01_60_airplane_10_n02690373_4728.png
subject-01,1,581,0.90622615814209,bear,airplane,180,0581_ps_s01_180_airplane_10_n02690373_1316.png
subject-01,1,582,0.836523056030273,chair,chair,0,0582_ps_s01_0_chair_10_n02791124_1693.png
subject-01,1,583,1.03079700469971,car,boat,180,0583_ps_s01_180_boat_10_n04612504_4302.png
subject-01,1,584,1.00952196121216,bicycle,cat,180,0584_ps_s01_180_cat_10_n02125311_11440.png
subject-01,1,585,1.39394497871399,elephant,elephant,120,0585_ps_s01_120_elephant_10_n02504013_1908.png
subject-01,1,586,0.680301904678345,airplane,airplane,60,0586_ps_s01_60_airplane_10_n02690373_9376.png
subject-01,1,587,1.10480904579163,bear,elephant,30,0587_ps_s01_30_elephant_10_n02504013_7010.png
subject-01,1,588,0.496595859527588,boat,boat,30,0588_ps_s01_30_boat_10_n04612504_8407.png
subject-01,1,589,0.699456930160522,knife,knife,30,0589_ps_s01_30_knife_10_n03041632_56217.png
subject-01,1,590,0.81627893447876,car,clock,150,0590_ps_s01_150_clock_10_n04548280_21545.png
subject-01,1,591,0.677912950515747,knife,knife,60,0591_ps_s01_60_knife_10_n03041632_4714.png
subject-01,1,592,0.940838098526001,elephant,elephant,0,0592_ps_s01_0_elephant_10_n02504013_5996.png
subject-01,1,593,0.735270023345947,clock,clock,60,0593_ps_s01_60_clock_10_n03196217_7414.png
subject-01,1,594,0.920377969741821,dog,truck,180,0594_ps_s01_180_truck_10_n04467665_23054.png
subject-01,1,595,0.944056987762451,bottle,knife,150,0595_ps_s01_150_knife_10_n03041632_5427.png
subject-01,1,596,0.846698999404907,car,airplane,150,0596_ps_s01_150_airplane_10_n02690373_8252.png
subject-01,1,597,0.886730909347534,bottle,keyboard,180,0597_ps_s01_180_keyboard_10_n04505470_5062.png
subject-01,1,598,0.663764953613281,oven,oven,120,0598_ps_s01_120_oven_10_n04111531_9344.png
subject-01,1,599,0.704056978225708,bird,bird,60,0599_ps_s01_60_bird_10_n01843383_10059.png
subject-01,1,600,1.26108598709106,boat,cat,180,0600_ps_s01_180_cat_10_n02123394_7859.png
subject-01,1,601,0.785197019577026,airplane,airplane,90,0601_ps_s01_90_airplane_10_n02690373_3065.png
subject-01,1,602,0.948537111282349,keyboard,keyboard,120,0602_ps_s01_120_keyboard_10_n03085013_23267.png
subject-01,1,603,0.705224990844727,oven,oven,90,0603_ps_s01_90_oven_10_n04111531_6346.png
subject-01,1,604,0.98176097869873,car,clock,180,0604_ps_s01_180_clock_10_n03196217_6257.png
subject-01,1,605,0.791935920715332,chair,chair,30,0605_ps_s01_30_chair_10_n03376595_10332.png
subject-01,1,606,0.700453996658325,chair,chair,60,0606_ps_s01_60_chair_10_n02791124_5898.png
subject-01,1,607,0.749346971511841,dog,dog,30,0607_ps_s01_30_dog_10_n02086646_7362.png
subject-01,1,608,0.636366128921509,clock,clock,60,0608_ps_s01_60_clock_10_n04548280_4178.png
subject-01,1,609,0.776655197143555,elephant,bear,150,0609_ps_s01_150_bear_10_n02133161_4820.png
subject-01,1,610,0.731185913085938,boat,boat,120,0610_ps_s01_120_boat_10_n04612504_15256.png
subject-01,1,611,0.878231048583984,dog,dog,60,0611_ps_s01_60_dog_10_n02099429_3814.png
subject-01,1,612,0.542157173156738,clock,clock,30,0612_ps_s01_30_clock_10_n03196217_4537.png
subject-01,1,613,0.81851601600647,car,car,120,0613_ps_s01_120_car_10_n03100240_14794.png
subject-01,1,614,0.71235990524292,bicycle,bicycle,0,0614_ps_s01_0_bicycle_10_n03792782_23912.png
subject-01,1,615,0.945897817611694,bear,bear,30,0615_ps_s01_30_bear_10_n02133161_7032.png
subject-01,1,616,1.08343911170959,truck,car,120,0616_ps_s01_120_car_10_n02814533_19373.png
subject-01,1,617,0.653018951416016,knife,knife,90,0617_ps_s01_90_knife_10_n03041632_52371.png
subject-01,1,618,0.930065870285034,oven,oven,30,0618_ps_s01_30_oven_10_n04111531_21855.png
subject-01,1,619,1.03270792961121,boat,boat,30,0619_ps_s01_30_boat_10_n02951358_16837.png
subject-01,1,620,0.727016925811768,keyboard,truck,180,0620_ps_s01_180_truck_10_n04467665_25129.png
subject-01,1,621,1.01919984817505,chair,chair,120,0621_ps_s01_120_chair_10_n02791124_2773.png
subject-01,1,622,0.575905084609985,airplane,airplane,0,0622_ps_s01_0_airplane_10_n02690373_5729.png
subject-01,1,623,0.854984998703003,bird,car,150,0623_ps_s01_150_car_10_n02814533_85659.png
subject-01,1,624,0.755640029907227,cat,cat,30,0624_ps_s01_30_cat_10_n02125311_46527.png
subject-01,1,625,0.604026079177856,car,dog,180,0625_ps_s01_180_dog_10_n02099601_6318.png
subject-01,1,626,0.482684850692749,boat,boat,0,0626_ps_s01_0_boat_10_n04273569_4330.png
subject-01,1,627,0.666313171386719,keyboard,elephant,180,0627_ps_s01_180_elephant_10_n02504013_17589.png
subject-01,1,628,0.660499095916748,car,car,30,0628_ps_s01_30_car_10_n02814533_40344.png
subject-01,1,629,0.768680095672607,bicycle,truck,150,0629_ps_s01_150_truck_10_n03417042_17911.png
subject-01,1,630,0.531437873840332,bear,keyboard,150,0630_ps_s01_150_keyboard_10_n04505470_1076.png
subject-01,1,631,0.664090156555176,car,car,30,0631_ps_s01_30_car_10_n04285008_13.png
subject-01,1,632,0.50447416305542,boat,boat,30,0632_ps_s01_30_boat_10_n03662601_4881.png
subject-01,1,633,0.537667989730835,bicycle,bicycle,30,0633_ps_s01_30_bicycle_10_n03792782_8374.png
subject-01,1,634,0.69940710067749,clock,truck,150,0634_ps_s01_150_truck_10_n04467665_68754.png
subject-01,1,635,0.746121883392334,car,car,0,0635_ps_s01_0_car_10_n04285008_1867.png
subject-01,1,636,0.848294019699097,cat,bird,90,0636_ps_s01_90_bird_10_n01820546_7575.png
subject-01,1,637,0.597033977508545,bicycle,bicycle,90,0637_ps_s01_90_bicycle_10_n02835271_22739.png
subject-01,1,638,1.35704207420349,elephant,elephant,0,0638_ps_s01_0_elephant_10_n02504458_7200.png
subject-01,1,639,0.550543069839478,cat,cat,30,0639_ps_s01_30_cat_10_n02125311_15293.png
subject-01,1,640,0.775377988815308,keyboard,keyboard,90,0640_ps_s01_90_keyboard_10_n03085013_24192.png
subject-01,1,641,0.726961851119995,car,car,60,0641_ps_s01_60_car_10_n02814533_46401.png
subject-01,1,642,1.06769704818726,bottle,bottle,120,0642_ps_s01_120_bottle_10_n04557648_1136.png
subject-01,1,643,0.630146026611328,cat,cat,0,0643_ps_s01_0_cat_10_n02123045_12297.png
subject-01,1,644,0.594341993331909,truck,truck,30,0644_ps_s01_30_truck_10_n03417042_14861.png
subject-01,1,645,0.972883939743042,elephant,cat,120,0645_ps_s01_120_cat_10_n02123597_5217.png
subject-01,1,646,1.33173990249634,cat,bear,180,0646_ps_s01_180_bear_10_n02133161_2316.png
subject-01,1,647,0.764060020446777,keyboard,keyboard,90,0647_ps_s01_90_keyboard_10_n03085013_4914.png
subject-01,1,648,0.850075960159302,airplane,cat,150,0648_ps_s01_150_cat_10_n02124075_2080.png
subject-01,1,649,1.2873809337616,bear,bird,60,0649_ps_s01_60_bird_10_n01622779_13896.png
subject-01,1,650,0.796112060546875,car,truck,150,0650_ps_s01_150_truck_10_n03796401_7261.png
subject-01,1,651,0.913259983062744,car,car,120,0651_ps_s01_120_car_10_n02814533_60400.png
subject-01,1,652,0.528274059295654,cat,cat,60,0652_ps_s01_60_cat_10_n02123597_14647.png
subject-01,1,653,0.791850090026855,dog,dog,30,0653_ps_s01_30_dog_10_n02090622_1485.png
subject-01,1,654,0.839723110198975,knife,truck,180,0654_ps_s01_180_truck_10_n04467665_23758.png
subject-01,1,655,0.663731098175049,oven,oven,60,0655_ps_s01_60_oven_10_n04111531_1662.png
subject-01,1,656,0.52512001991272,oven,oven,90,0656_ps_s01_90_oven_10_n04111531_2803.png
subject-01,1,657,0.717966079711914,airplane,bird,180,0657_ps_s01_180_bird_10_n01833805_8179.png
subject-01,1,658,0.55838418006897,clock,airplane,180,0658_ps_s01_180_airplane_10_n02690373_7536.png
subject-01,1,659,0.750255107879639,car,car,120,0659_ps_s01_120_car_10_n02814533_13533.png
subject-01,1,660,0.607600927352905,chair,chair,0,0660_ps_s01_0_chair_10_n03376595_16306.png
subject-01,1,661,0.847831010818481,knife,knife,0,0661_ps_s01_0_knife_10_n03041632_22051.png
subject-01,1,662,0.948107957839966,oven,chair,90,0662_ps_s01_90_chair_10_n02791124_1941.png
subject-01,1,663,0.789520978927612,boat,boat,120,0663_ps_s01_120_boat_10_n04612504_2024.png
subject-01,1,664,0.897752046585083,bird,bird,30,0664_ps_s01_30_bird_10_n01843383_13894.png
subject-01,1,665,0.846582889556885,chair,chair,30,0665_ps_s01_30_chair_10_n04099969_26310.png
subject-01,1,666,0.855120897293091,chair,chair,30,0666_ps_s01_30_chair_10_n02791124_4192.png
subject-01,1,667,0.800876140594482,clock,clock,120,0667_ps_s01_120_clock_10_n02708093_118.png
subject-01,1,668,0.774148941040039,knife,oven,60,0668_ps_s01_60_oven_10_n04111531_13542.png
subject-01,1,669,0.790977001190186,knife,knife,30,0669_ps_s01_30_knife_10_n03041632_36277.png
subject-01,1,670,0.95380711555481,cat,oven,90,0670_ps_s01_90_oven_10_n04111531_8852.png
subject-01,1,671,0.623826026916504,oven,oven,90,0671_ps_s01_90_oven_10_n04111531_4879.png
subject-01,1,672,0.464180946350098,boat,boat,0,0672_ps_s01_0_boat_10_n03344393_3032.png
subject-01,1,673,0.534842967987061,cat,cat,90,0673_ps_s01_90_cat_10_n02123045_8722.png
subject-01,1,674,0.836867094039917,truck,truck,30,0674_ps_s01_30_truck_10_n03417042_6685.png
subject-01,1,675,0.815889120101929,elephant,elephant,150,0675_ps_s01_150_elephant_10_n02504013_6776.png
subject-01,1,676,0.602256059646606,cat,cat,90,0676_ps_s01_90_cat_10_n02124075_81.png
subject-01,1,677,0.686808824539185,bear,elephant,90,0677_ps_s01_90_elephant_10_n02504013_3567.png
subject-01,1,678,0.964810848236084,bottle,bottle,0,0678_ps_s01_0_bottle_10_n03937543_3253.png
subject-01,1,679,1.00571298599243,airplane,boat,180,0679_ps_s01_180_boat_10_n04273569_12888.png
subject-01,1,680,1.29862713813782,bird,bear,180,0680_ps_s01_180_bear_10_n02132136_20883.png
subject-01,1,681,1.1012659072876,boat,airplane,150,0681_ps_s01_150_airplane_10_n02690373_4452.png
subject-01,1,682,0.763476848602295,clock,clock,90,0682_ps_s01_90_clock_10_n02708093_181.png
subject-01,1,683,0.788403987884521,airplane,airplane,120,0683_ps_s01_120_airplane_10_n02690373_10395.png
subject-01,1,684,1.10498595237732,knife,oven,0,0684_ps_s01_0_oven_10_n04111531_1488.png
subject-01,1,685,0.991554021835327,bird,bird,120,0685_ps_s01_120_bird_10_n01798484_2289.png
subject-01,1,686,0.970245838165283,oven,clock,150,0686_ps_s01_150_clock_10_n03196217_4019.png
subject-01,1,687,0.573242902755737,boat,boat,30,0687_ps_s01_30_boat_10_n02951358_10151.png
subject-01,1,688,0.651257038116455,oven,oven,0,0688_ps_s01_0_oven_10_n04111531_21404.png
subject-01,1,689,0.981919050216675,truck,truck,60,0689_ps_s01_60_truck_10_n04467665_30461.png
subject-01,1,690,0.806405067443848,clock,boat,150,0690_ps_s01_150_boat_10_n02951358_30995.png
subject-01,1,691,1.1932520866394,car,bear,150,0691_ps_s01_150_bear_10_n02132136_7067.png
subject-01,1,692,0.880076169967651,bicycle,bicycle,90,0692_ps_s01_90_bicycle_10_n02835271_26731.png
subject-01,1,693,0.779925107955933,airplane,knife,180,0693_ps_s01_180_knife_10_n03041632_44230.png
subject-01,1,694,0.772504091262817,car,bicycle,150,0694_ps_s01_150_bicycle_10_n02835271_4396.png
subject-01,1,695,0.658662080764771,boat,boat,0,0695_ps_s01_0_boat_10_n02951358_15218.png
subject-01,1,696,0.725759983062744,keyboard,keyboard,0,0696_ps_s01_0_keyboard_10_n03085013_2189.png
subject-01,1,697,0.790231943130493,oven,oven,60,0697_ps_s01_60_oven_10_n04111531_3886.png
subject-01,1,698,0.820724010467529,bicycle,bicycle,0,0698_ps_s01_0_bicycle_10_n03792782_11824.png
subject-01,1,699,0.961043119430542,keyboard,keyboard,30,0699_ps_s01_30_keyboard_10_n03085013_3632.png
subject-01,1,700,0.993628025054932,car,elephant,180,0700_ps_s01_180_elephant_10_n02504458_4564.png
subject-01,1,701,1.17778992652893,car,car,30,0701_ps_s01_30_car_10_n03100240_6216.png
subject-01,1,702,0.948544025421143,bicycle,bicycle,60,0702_ps_s01_60_bicycle_10_n03792782_31010.png
subject-01,1,703,1.02675199508667,bear,bear,60,0703_ps_s01_60_bear_10_n02132136_686.png
subject-01,1,704,0.797823905944824,keyboard,keyboard,90,0704_ps_s01_90_keyboard_10_n04505470_986.png
subject-01,1,705,0.892508983612061,car,airplane,180,0705_ps_s01_180_airplane_10_n02690373_4691.png
subject-01,1,706,1.01642894744873,bear,bear,60,0706_ps_s01_60_bear_10_n02133161_4294.png
subject-01,1,707,0.649351835250854,bear,bear,30,0707_ps_s01_30_bear_10_n02132136_21267.png
subject-01,1,708,0.728333950042725,airplane,elephant,180,0708_ps_s01_180_elephant_10_n02504458_4207.png
subject-01,1,709,0.936213970184326,truck,oven,150,0709_ps_s01_150_oven_10_n04111531_5643.png
subject-01,1,710,0.744892120361328,bird,bird,30,0710_ps_s01_30_bird_10_n02056570_4808.png
subject-01,1,711,0.614942073822021,car,car,90,0711_ps_s01_90_car_10_n02814533_8499.png
subject-01,1,712,0.67202091217041,airplane,cat,180,0712_ps_s01_180_cat_10_n02123045_8690.png
subject-01,1,713,0.848404884338379,bear,elephant,60,0713_ps_s01_60_elephant_10_n02504013_8905.png
subject-01,1,714,0.938350915908813,bird,truck,180,0714_ps_s01_180_truck_10_n03417042_1149.png
subject-01,1,715,1.13287901878357,knife,knife,30,0715_ps_s01_30_knife_10_n03041632_25603.png
subject-01,1,716,0.533794164657593,cat,cat,60,0716_ps_s01_60_cat_10_n02125311_17002.png
subject-01,1,717,NaN,na,car,150,0717_ps_s01_150_car_10_n02814533_87140.png
subject-01,1,718,1.01956987380981,boat,truck,120,0718_ps_s01_120_truck_10_n04467665_69970.png
subject-01,1,719,0.914550065994263,elephant,elephant,120,0719_ps_s01_120_elephant_10_n02504013_22557.png
subject-01,1,720,0.792689085006714,car,airplane,150,0720_ps_s01_150_airplane_10_n02690373_9432.png
subject-01,1,721,0.709118127822876,elephant,elephant,90,0721_ps_s01_90_elephant_10_n02504013_3081.png
subject-01,1,722,0.80969500541687,bear,bear,120,0722_ps_s01_120_bear_10_n02134084_7441.png
subject-01,1,723,1.00472903251648,bird,car,180,0723_ps_s01_180_car_10_n02814533_40459.png
subject-01,1,724,0.620398044586182,airplane,airplane,30,0724_ps_s01_30_airplane_10_n02690373_9012.png
subject-01,1,725,0.928976058959961,boat,oven,150,0725_ps_s01_150_oven_10_n04111531_15735.png
subject-01,1,726,1.10726881027222,bear,chair,180,0726_ps_s01_180_chair_10_n04099969_19484.png
subject-01,1,727,0.948275089263916,cat,cat,150,0727_ps_s01_150_cat_10_n02125311_20241.png
subject-01,1,728,0.810950040817261,bear,bear,0,0728_ps_s01_0_bear_10_n02133161_5292.png
subject-01,1,729,0.859505891799927,bottle,bottle,0,0729_ps_s01_0_bottle_10_n02823428_685.png
subject-01,1,730,1.05990386009216,clock,chair,120,0730_ps_s01_120_chair_10_n04099969_7545.png
subject-01,1,731,0.862953186035156,chair,chair,30,0731_ps_s01_30_chair_10_n02791124_1292.png
subject-01,1,732,0.724839925765991,airplane,airplane,120,0732_ps_s01_120_airplane_10_n02690373_13610.png
subject-01,1,733,0.864988803863525,truck,boat,150,0733_ps_s01_150_boat_10_n03662601_18953.png
subject-01,1,734,0.540004014968872,clock,clock,120,0734_ps_s01_120_clock_10_n04548280_13247.png
subject-01,1,735,1.46203303337097,knife,knife,60,0735_ps_s01_60_knife_10_n03041632_36806.png
subject-01,1,736,0.810789108276367,bear,bear,90,0736_ps_s01_90_bear_10_n02132136_9055.png
subject-01,1,737,0.826936006546021,oven,truck,0,0737_ps_s01_0_truck_10_n03417042_3389.png
subject-01,1,738,0.735406875610352,bicycle,bicycle,30,0738_ps_s01_30_bicycle_10_n02835271_9860.png
subject-01,1,739,0.87561297416687,car,cat,180,0739_ps_s01_180_cat_10_n02123394_2350.png
subject-01,1,740,0.624597787857056,bird,bird,0,0740_ps_s01_0_bird_10_n02056570_9835.png
subject-01,1,741,1.13873815536499,keyboard,truck,150,0741_ps_s01_150_truck_10_n03417042_6250.png
subject-01,1,742,0.811923980712891,bottle,bottle,150,0742_ps_s01_150_bottle_10_n02823428_8543.png
subject-01,1,743,0.673553943634033,keyboard,keyboard,0,0743_ps_s01_0_keyboard_10_n04505470_1342.png
subject-01,1,744,1.04421997070312,boat,car,120,0744_ps_s01_120_car_10_n03100240_17523.png
subject-01,1,745,0.867824077606201,airplane,bottle,150,0745_ps_s01_150_bottle_10_n02823428_3711.png
subject-01,1,746,1.30647993087769,bird,chair,180,0746_ps_s01_180_chair_10_n03376595_2809.png
subject-01,1,747,0.925063133239746,boat,car,150,0747_ps_s01_150_car_10_n04285008_12696.png
subject-01,1,748,0.825125932693481,oven,bird,150,0748_ps_s01_150_bird_10_n01828970_22.png
subject-01,1,749,0.757595062255859,chair,chair,0,0749_ps_s01_0_chair_10_n02791124_1049.png
subject-01,1,750,0.820654153823853,truck,dog,180,0750_ps_s01_180_dog_10_n02106166_134.png
subject-01,1,751,1.40397310256958,truck,truck,120,0751_ps_s01_120_truck_10_n03796401_25021.png
subject-01,1,752,0.676506996154785,cat,cat,0,0752_ps_s01_0_cat_10_n02124075_14800.png
subject-01,1,753,0.676990985870361,truck,truck,30,0753_ps_s01_30_truck_10_n04467665_20622.png
subject-01,1,754,0.763936996459961,airplane,airplane,30,0754_ps_s01_30_airplane_10_n02690373_190.png
subject-01,1,755,0.888532161712646,bear,bear,0,0755_ps_s01_0_bear_10_n02133161_355.png
subject-01,1,756,1.06727814674377,oven,oven,120,0756_ps_s01_120_oven_10_n04111531_5888.png
subject-01,1,757,1.11443209648132,truck,truck,120,0757_ps_s01_120_truck_10_n03796401_2007.png
subject-01,1,758,0.900925874710083,airplane,airplane,90,0758_ps_s01_90_airplane_10_n02690373_5422.png
subject-01,1,759,0.595251083374023,boat,boat,90,0759_ps_s01_90_boat_10_n04273569_13972.png
subject-01,1,760,0.720317840576172,oven,oven,60,0760_ps_s01_60_oven_10_n04111531_22263.png
subject-01,1,761,0.72081995010376,airplane,airplane,30,0761_ps_s01_30_airplane_10_n02690373_10207.png
subject-01,1,762,0.782950878143311,elephant,elephant,30,0762_ps_s01_30_elephant_10_n02504458_6602.png
subject-01,1,763,0.748377084732056,bird,bird,30,0763_ps_s01_30_bird_10_n01860187_5008.png
subject-01,1,764,0.848397016525269,keyboard,dog,180,0764_ps_s01_180_dog_10_n02091244_11713.png
subject-01,1,765,0.740103960037231,car,clock,120,0765_ps_s01_120_clock_10_n04548280_5295.png
subject-01,1,766,0.910640001296997,bicycle,bird,120,0766_ps_s01_120_bird_10_n02009229_5172.png
subject-01,1,767,0.661486864089966,bottle,chair,150,0767_ps_s01_150_chair_10_n04429376_16002.png
subject-01,1,768,0.702193021774292,chair,bicycle,150,0768_ps_s01_150_bicycle_10_n03792782_4544.png
subject-01,1,769,0.780560970306396,knife,knife,0,0769_ps_s01_0_knife_10_n03041632_42526.png
subject-01,1,770,1.50038290023804,dog,knife,120,0770_ps_s01_120_knife_10_n03041632_28129.png
subject-01,1,771,0.942862987518311,car,bottle,180,0771_ps_s01_180_bottle_10_n03983396_3408.png
subject-01,1,772,0.713629961013794,chair,chair,0,0772_ps_s01_0_chair_10_n02791124_2928.png
subject-01,1,773,0.899532079696655,car,car,60,0773_ps_s01_60_car_10_n03100240_17421.png
subject-01,1,774,0.776639938354492,keyboard,bear,180,0774_ps_s01_180_bear_10_n02134084_1503.png
subject-01,1,775,0.556864023208618,airplane,airplane,60,0775_ps_s01_60_airplane_10_n02690373_6314.png
subject-01,1,776,0.779430866241455,airplane,airplane,0,0776_ps_s01_0_airplane_10_n02690373_20011.png
subject-01,1,777,1.11961793899536,keyboard,keyboard,90,0777_ps_s01_90_keyboard_10_n04505470_4454.png
subject-01,1,778,0.756842136383057,truck,truck,90,0778_ps_s01_90_truck_10_n03417042_12711.png
subject-01,1,779,1.21153402328491,knife,knife,0,0779_ps_s01_0_knife_10_n03041632_13225.png
subject-01,1,780,0.905894994735718,car,bicycle,150,0780_ps_s01_150_bicycle_10_n02835271_4887.png
subject-01,1,781,1.3139488697052,airplane,clock,180,0781_ps_s01_180_clock_10_n04548280_9217.png
subject-01,1,782,1.18506598472595,bird,bird,0,0782_ps_s01_0_bird_10_n01616318_1831.png
subject-01,1,783,0.725844860076904,bird,bird,30,0783_ps_s01_30_bird_10_n01532829_2492.png
subject-01,1,784,1.15053486824036,clock,elephant,180,0784_ps_s01_180_elephant_10_n02504013_3029.png
subject-01,1,785,0.858744859695435,bicycle,bicycle,60,0785_ps_s01_60_bicycle_10_n02835271_4730.png
subject-01,1,786,0.575042963027954,boat,boat,0,0786_ps_s01_0_boat_10_n04612504_18442.png
subject-01,1,787,1.39142107963562,keyboard,keyboard,150,0787_ps_s01_150_keyboard_10_n03085013_20730.png
subject-01,1,788,0.583772897720337,clock,clock,90,0788_ps_s01_90_clock_10_n04548280_764.png
subject-01,1,789,1.0083019733429,bird,bear,90,0789_ps_s01_90_bear_10_n02133161_160.png
subject-01,1,790,0.878277063369751,dog,dog,120,0790_ps_s01_120_dog_10_n02104029_7335.png
subject-01,1,791,0.72675609588623,car,car,30,0791_ps_s01_30_car_10_n03100240_1294.png
subject-01,1,792,0.972846031188965,airplane,knife,150,0792_ps_s01_150_knife_10_n03041632_4808.png
subject-01,1,793,1.00655007362366,car,bicycle,150,0793_ps_s01_150_bicycle_10_n03792782_27445.png
subject-01,1,794,1.32275485992432,boat,car,150,0794_ps_s01_150_car_10_n02814533_39485.png
subject-01,1,795,0.592710971832275,keyboard,keyboard,60,0795_ps_s01_60_keyboard_10_n03085013_6424.png
subject-01,1,796,1.5,bottle,boat,30,0796_ps_s01_30_boat_10_n02951358_12664.png
subject-01,1,797,0.741627216339111,elephant,elephant,30,0797_ps_s01_30_elephant_10_n02504458_10332.png
subject-01,1,798,0.934003829956055,elephant,elephant,60,0798_ps_s01_60_elephant_10_n02504458_2103.png
subject-01,1,799,0.682687044143677,cat,cat,120,0799_ps_s01_120_cat_10_n02123045_8336.png
subject-01,1,800,0.758845090866089,bicycle,bicycle,60,0800_ps_s01_60_bicycle_10_n02835271_24639.png
subject-01,1,801,0.757505178451538,car,cat,150,0801_ps_s01_150_cat_10_n02123159_799.png
subject-01,1,802,0.681755065917969,clock,clock,0,0802_ps_s01_0_clock_10_n02708093_340.png
subject-01,1,803,0.576617002487183,boat,boat,60,0803_ps_s01_60_boat_10_n04273569_4978.png
subject-01,1,804,0.985172986984253,airplane,elephant,180,0804_ps_s01_180_elephant_10_n02504013_5021.png
subject-01,1,805,NaN,na,knife,150,0805_ps_s01_150_knife_10_n03041632_27879.png
subject-01,1,806,0.947309017181396,bottle,bottle,0,0806_ps_s01_0_bottle_10_n03983396_23471.png
subject-01,1,807,1.2023651599884,cat,chair,30,0807_ps_s01_30_chair_10_n04099969_8401.png
subject-01,1,808,0.658850193023682,chair,chair,0,0808_ps_s01_0_chair_10_n04429376_49351.png
subject-01,1,809,0.866162061691284,knife,oven,90,0809_ps_s01_90_oven_10_n04111531_9304.png
subject-01,1,810,1.25095009803772,bear,bottle,120,0810_ps_s01_120_bottle_10_n02823428_3111.png
subject-01,1,811,0.990891933441162,knife,knife,0,0811_ps_s01_0_knife_10_n03041632_9635.png
subject-01,1,812,1.23713779449463,elephant,clock,180,0812_ps_s01_180_clock_10_n04548280_4560.png
subject-01,1,813,0.756921052932739,cat,chair,90,0813_ps_s01_90_chair_10_n02791124_6550.png
subject-01,1,814,0.856637954711914,airplane,clock,150,0814_ps_s01_150_clock_10_n04548280_23221.png
subject-01,1,815,0.657253980636597,bicycle,bicycle,30,0815_ps_s01_30_bicycle_10_n03792782_42927.png
subject-01,1,816,0.551408052444458,cat,cat,30,0816_ps_s01_30_cat_10_n02123045_13172.png
subject-01,1,817,1.09770393371582,bear,chair,180,0817_ps_s01_180_chair_10_n02791124_5109.png
subject-01,1,818,0.805670976638794,car,cat,180,0818_ps_s01_180_cat_10_n02124075_8470.png
subject-01,1,819,0.821701049804688,clock,clock,30,0819_ps_s01_30_clock_10_n03196217_5267.png
subject-01,1,820,0.992167949676514,bear,chair,150,0820_ps_s01_150_chair_10_n04099969_16178.png
subject-01,1,821,0.901465892791748,bear,bear,90,0821_ps_s01_90_bear_10_n02134084_5733.png
subject-01,1,822,1.02574014663696,airplane,knife,180,0822_ps_s01_180_knife_10_n03041632_20697.png
subject-01,1,823,0.974535942077637,elephant,elephant,0,0823_ps_s01_0_elephant_10_n02504458_62.png
subject-01,1,824,0.613105058670044,clock,clock,120,0824_ps_s01_120_clock_10_n04548280_3968.png
subject-01,1,825,0.678287982940674,cat,bear,60,0825_ps_s01_60_bear_10_n02134418_5807.png
subject-01,1,826,1.03279399871826,airplane,airplane,30,0826_ps_s01_30_airplane_10_n02690373_3639.png
subject-01,1,827,0.441118001937866,cat,cat,30,0827_ps_s01_30_cat_10_n02124075_11776.png
subject-01,1,828,0.719643115997314,truck,truck,0,0828_ps_s01_0_truck_10_n03417042_3482.png
subject-01,1,829,1.20610404014587,boat,chair,180,0829_ps_s01_180_chair_10_n03376595_8377.png
subject-01,1,830,0.690031051635742,airplane,airplane,0,0830_ps_s01_0_airplane_10_n02690373_4144.png
subject-01,1,831,0.768269062042236,cat,cat,60,0831_ps_s01_60_cat_10_n02123045_7483.png
subject-01,1,832,1.13036489486694,dog,bird,180,0832_ps_s01_180_bird_10_n02013706_3032.png
subject-01,1,833,0.755378007888794,chair,dog,150,0833_ps_s01_150_dog_10_n02108000_6454.png
subject-01,1,834,0.941494941711426,dog,dog,30,0834_ps_s01_30_dog_10_n02110958_1335.png
subject-01,1,835,0.887721061706543,bottle,bird,180,0835_ps_s01_180_bird_10_n01824575_3556.png
subject-01,1,836,0.803565979003906,elephant,elephant,120,0836_ps_s01_120_elephant_10_n02504458_3511.png
subject-01,1,837,1.16601705551147,car,car,0,0837_ps_s01_0_car_10_n03100240_4343.png
subject-01,1,838,0.890618085861206,keyboard,keyboard,30,0838_ps_s01_30_keyboard_10_n04505470_494.png
subject-01,1,839,1.37509989738464,bird,boat,150,0839_ps_s01_150_boat_10_n04273569_1576.png
subject-01,1,840,0.853722810745239,bottle,bottle,60,0840_ps_s01_60_bottle_10_n04557648_4133.png
subject-01,1,841,1.46966409683228,knife,bird,120,0841_ps_s01_120_bird_10_n02002556_2350.png
subject-01,1,842,0.740714073181152,car,car,120,0842_ps_s01_120_car_10_n02814533_2923.png
subject-01,1,843,1.50021696090698,dog,oven,90,0843_ps_s01_90_oven_10_n04111531_274.png
subject-01,1,844,0.734816074371338,chair,chair,60,0844_ps_s01_60_chair_10_n04429376_10449.png
subject-01,1,845,0.891793012619019,truck,truck,0,0845_ps_s01_0_truck_10_n03417042_19650.png
subject-01,1,846,1.33880090713501,chair,bicycle,90,0846_ps_s01_90_bicycle_10_n02835271_2581.png
subject-01,1,847,0.708595037460327,truck,truck,30,0847_ps_s01_30_truck_10_n04467665_23914.png
subject-01,1,848,0.633105993270874,oven,oven,30,0848_ps_s01_30_oven_10_n04111531_21733.png
subject-01,1,849,1.50024008750916,oven,oven,0,0849_ps_s01_0_oven_10_n04111531_6428.png
subject-01,1,850,0.552690029144287,cat,cat,0,0850_ps_s01_0_cat_10_n02123159_6206.png
subject-01,1,851,0.669131994247437,truck,truck,30,0851_ps_s01_30_truck_10_n03796401_11628.png
subject-01,1,852,0.945616006851196,bicycle,bear,120,0852_ps_s01_120_bear_10_n02133161_2270.png
subject-01,1,853,0.585999011993408,clock,clock,90,0853_ps_s01_90_clock_10_n04548280_6743.png
subject-01,1,854,0.864773988723755,boat,boat,60,0854_ps_s01_60_boat_10_n03344393_1944.png
subject-01,1,855,0.895301103591919,airplane,knife,180,0855_ps_s01_180_knife_10_n03041632_18859.png
subject-01,1,856,0.703487873077393,car,clock,180,0856_ps_s01_180_clock_10_n02708093_2482.png
subject-01,1,857,0.982547998428345,bear,bottle,150,0857_ps_s01_150_bottle_10_n04560804_14605.png
subject-01,1,858,0.836181879043579,airplane,airplane,90,0858_ps_s01_90_airplane_10_n02690373_3147.png
subject-01,1,859,1.0934910774231,dog,dog,0,0859_ps_s01_0_dog_10_n02090379_3514.png
subject-01,1,860,1.13857293128967,dog,dog,90,0860_ps_s01_90_dog_10_n02112018_10082.png
subject-01,1,861,0.801386833190918,bottle,bottle,0,0861_ps_s01_0_bottle_10_n04560804_2165.png
subject-01,1,862,0.963836908340454,airplane,airplane,60,0862_ps_s01_60_airplane_10_n02690373_7748.png
subject-01,1,863,0.672930955886841,bird,bird,90,0863_ps_s01_90_bird_10_n01601694_2723.png
subject-01,1,864,0.943150997161865,airplane,car,180,0864_ps_s01_180_car_10_n02814533_66666.png
subject-01,1,865,0.776118040084839,oven,oven,30,0865_ps_s01_30_oven_10_n04111531_11225.png
subject-01,1,866,0.938108921051025,truck,truck,30,0866_ps_s01_30_truck_10_n04467665_48875.png
subject-01,1,867,0.925277948379517,bicycle,bear,150,0867_ps_s01_150_bear_10_n02132136_10577.png
subject-01,1,868,0.949292898178101,bottle,bottle,60,0868_ps_s01_60_bottle_10_n04560804_13420.png
subject-01,1,869,1.29593896865845,truck,chair,0,0869_ps_s01_0_chair_10_n02791124_16127.png
subject-01,1,870,1.17414093017578,airplane,truck,150,0870_ps_s01_150_truck_10_n04467665_48953.png
subject-01,1,871,0.74468207359314,cat,keyboard,180,0871_ps_s01_180_keyboard_10_n03085013_4298.png
subject-01,1,872,0.869317770004272,dog,dog,60,0872_ps_s01_60_dog_10_n02111129_8015.png
subject-01,1,873,1.06938481330872,bear,bear,120,0873_ps_s01_120_bear_10_n02134418_2561.png
subject-01,1,874,1.16495203971863,car,car,30,0874_ps_s01_30_car_10_n03100240_16775.png
subject-01,1,875,0.643301963806152,bottle,bottle,120,0875_ps_s01_120_bottle_10_n03983396_8143.png
subject-01,1,876,0.721340894699097,airplane,airplane,180,0876_ps_s01_180_airplane_10_n02690373_1592.png
subject-01,1,877,1.00832796096802,dog,dog,90,0877_ps_s01_90_dog_10_n02110063_16680.png
subject-01,1,878,1.09249305725098,cat,chair,120,0878_ps_s01_120_chair_10_n02791124_5823.png
subject-01,1,879,0.871640920639038,bicycle,bicycle,120,0879_ps_s01_120_bicycle_10_n03792782_11272.png
subject-01,1,880,1.22550916671753,bear,cat,120,0880_ps_s01_120_cat_10_n02125311_9615.png
subject-01,1,881,1.39627385139465,knife,dog,180,0881_ps_s01_180_dog_10_n02110063_869.png
subject-01,1,882,0.811945915222168,car,dog,120,0882_ps_s01_120_dog_10_n02111277_21922.png
subject-01,1,883,0.836668014526367,bicycle,bicycle,120,0883_ps_s01_120_bicycle_10_n03792782_4600.png
subject-01,1,884,0.59968900680542,boat,boat,30,0884_ps_s01_30_boat_10_n04273569_15583.png
subject-01,1,885,0.677568912506104,bear,bear,0,0885_ps_s01_0_bear_10_n02134418_2254.png
subject-01,1,886,0.788800954818726,keyboard,keyboard,90,0886_ps_s01_90_keyboard_10_n03085013_20357.png
subject-01,1,887,0.642580986022949,keyboard,keyboard,60,0887_ps_s01_60_keyboard_10_n03085013_21490.png
subject-01,1,888,0.588802814483643,bottle,bottle,90,0888_ps_s01_90_bottle_10_n03983396_12757.png
subject-01,1,889,1.33525395393372,bicycle,bicycle,0,0889_ps_s01_0_bicycle_10_n02835271_22549.png
subject-01,1,890,0.784038782119751,car,bottle,180,0890_ps_s01_180_bottle_10_n04579145_6049.png
subject-01,1,891,0.745662927627563,bicycle,bicycle,60,0891_ps_s01_60_bicycle_10_n03792782_17673.png
subject-01,1,892,0.686768054962158,airplane,airplane,30,0892_ps_s01_30_airplane_10_n02690373_1928.png
subject-01,1,893,1.23323202133179,boat,car,180,0893_ps_s01_180_car_10_n03100240_6750.png
subject-01,1,894,0.595818042755127,oven,oven,30,0894_ps_s01_30_oven_10_n04111531_3902.png
subject-01,1,895,0.874343156814575,knife,knife,90,0895_ps_s01_90_knife_10_n03041632_21472.png
subject-01,1,896,0.798923969268799,knife,knife,60,0896_ps_s01_60_knife_10_n03041632_105081.png
subject-01,1,897,1.30735993385315,keyboard,keyboard,120,0897_ps_s01_120_keyboard_10_n04505470_1516.png
subject-01,1,898,0.932399034500122,truck,bear,180,0898_ps_s01_180_bear_10_n02134418_25040.png
subject-01,1,899,0.75644588470459,boat,boat,90,0899_ps_s01_90_boat_10_n04273569_18037.png
subject-01,1,900,0.780813932418823,keyboard,keyboard,0,0900_ps_s01_0_keyboard_10_n03085013_25476.png
subject-01,1,901,0.619740962982178,boat,boat,0,0901_ps_s01_0_boat_10_n03662601_23248.png
subject-01,1,902,1.11162304878235,knife,knife,120,0902_ps_s01_120_knife_10_n03041632_48151.png
subject-01,1,903,0.730880975723267,bicycle,bicycle,30,0903_ps_s01_30_bicycle_10_n02835271_2505.png
subject-01,1,904,1.33131718635559,car,airplane,180,0904_ps_s01_180_airplane_10_n02690373_8765.png
subject-01,1,905,1.10722398757935,bottle,bottle,90,0905_ps_s01_90_bottle_10_n04579145_4594.png
subject-01,1,906,1.50031089782715,cat,cat,120,0906_ps_s01_120_cat_10_n02123597_7297.png
subject-01,1,907,0.642385005950928,airplane,airplane,60,0907_ps_s01_60_airplane_10_n02690373_13078.png
subject-01,1,908,0.918651819229126,boat,boat,0,0908_ps_s01_0_boat_10_n04273569_2449.png
subject-01,1,909,1.21340417861938,airplane,bicycle,180,0909_ps_s01_180_bicycle_10_n03792782_34197.png
subject-01,1,910,0.981168031692505,bird,bird,150,0910_ps_s01_150_bird_10_n01798484_55.png
subject-01,1,911,0.730075120925903,knife,knife,60,0911_ps_s01_60_knife_10_n03041632_24060.png
subject-01,1,912,0.678122997283936,chair,chair,60,0912_ps_s01_60_chair_10_n04099969_246.png
subject-01,1,913,0.947141170501709,bear,bird,120,0913_ps_s01_120_bird_10_n01616318_4652.png
subject-01,1,914,0.933004140853882,car,bicycle,150,0914_ps_s01_150_bicycle_10_n02835271_3529.png
subject-01,1,915,0.70344614982605,bicycle,bicycle,90,0915_ps_s01_90_bicycle_10_n02835271_13180.png
subject-01,1,916,0.772056102752686,truck,truck,60,0916_ps_s01_60_truck_10_n04467665_37833.png
subject-01,1,917,0.812658071517944,elephant,dog,150,0917_ps_s01_150_dog_10_n02088094_13992.png
subject-01,1,918,0.981729984283447,bottle,cat,180,0918_ps_s01_180_cat_10_n02123045_5422.png
subject-01,1,919,1.12044596672058,bottle,oven,150,0919_ps_s01_150_oven_10_n04111531_15296.png
subject-01,1,920,0.836445808410645,dog,cat,120,0920_ps_s01_120_cat_10_n02123159_3289.png
subject-01,1,921,0.753151893615723,bear,bear,90,0921_ps_s01_90_bear_10_n02134418_270.png
subject-01,1,922,0.87756609916687,airplane,dog,150,0922_ps_s01_150_dog_10_n02109525_40708.png
subject-01,1,923,0.602434873580933,oven,oven,0,0923_ps_s01_0_oven_10_n04111531_13797.png
subject-01,1,924,0.802798986434937,car,car,90,0924_ps_s01_90_car_10_n02814533_52627.png
subject-01,1,925,0.73567795753479,bear,bear,30,0925_ps_s01_30_bear_10_n02133161_959.png
subject-01,1,926,NaN,na,bicycle,180,0926_ps_s01_180_bicycle_10_n02835271_9314.png
subject-01,1,927,0.683897018432617,keyboard,keyboard,0,0927_ps_s01_0_keyboard_10_n04505470_1117.png
subject-01,1,928,0.871226072311401,dog,dog,30,0928_ps_s01_30_dog_10_n02109961_14202.png
subject-01,1,929,0.664036989212036,bottle,bottle,0,0929_ps_s01_0_bottle_10_n03937543_4850.png
subject-01,1,930,0.741377830505371,dog,dog,60,0930_ps_s01_60_dog_10_n02088094_1145.png
subject-01,1,931,0.58759593963623,boat,boat,90,0931_ps_s01_90_boat_10_n02951358_14341.png
subject-01,1,932,0.766231060028076,airplane,airplane,0,0932_ps_s01_0_airplane_10_n02690373_4294.png
subject-01,1,933,0.682224988937378,oven,keyboard,120,0933_ps_s01_120_keyboard_10_n04505470_8386.png
subject-01,1,934,0.744997024536133,bottle,bottle,30,0934_ps_s01_30_bottle_10_n03983396_3377.png
subject-01,1,935,0.91582989692688,bear,dog,90,0935_ps_s01_90_dog_10_n02107908_3447.png
subject-01,1,936,1.49999403953552,truck,chair,150,0936_ps_s01_150_chair_10_n02791124_7987.png
subject-01,1,937,1.04685497283936,truck,truck,90,0937_ps_s01_90_truck_10_n03796401_27268.png
subject-01,1,938,0.602938175201416,cat,cat,60,0938_ps_s01_60_cat_10_n02123045_568.png
subject-01,1,939,1.08730101585388,bird,bird,90,0939_ps_s01_90_bird_10_n02056570_10881.png
subject-01,1,940,0.620362997055054,bird,bird,90,0940_ps_s01_90_bird_10_n02027492_211.png
subject-01,1,941,0.660283803939819,keyboard,keyboard,60,0941_ps_s01_60_keyboard_10_n03085013_15836.png
subject-01,1,942,0.614613056182861,keyboard,keyboard,120,0942_ps_s01_120_keyboard_10_n03085013_18763.png
subject-01,1,943,0.923219919204712,bottle,bicycle,180,0943_ps_s01_180_bicycle_10_n02835271_4789.png
subject-01,1,944,0.95541787147522,airplane,airplane,120,0944_ps_s01_120_airplane_10_n02690373_18383.png
subject-01,1,945,1.49395108222961,airplane,bottle,180,0945_ps_s01_180_bottle_10_n03937543_4259.png
subject-01,1,946,0.94874906539917,bird,bird,90,0946_ps_s01_90_bird_10_n02002724_12183.png
subject-01,1,947,0.643950939178467,bear,bear,0,0947_ps_s01_0_bear_10_n02134084_16632.png
subject-01,1,948,0.998035907745361,bicycle,bicycle,30,0948_ps_s01_30_bicycle_10_n02835271_807.png
subject-01,1,949,0.851989984512329,knife,oven,150,0949_ps_s01_150_oven_10_n04111531_458.png
subject-01,1,950,0.838951826095581,truck,bird,150,0950_ps_s01_150_bird_10_n02007558_7783.png
subject-01,1,951,0.884902954101562,truck,truck,60,0951_ps_s01_60_truck_10_n03417042_18374.png
subject-01,1,952,1.04692101478577,bottle,bottle,120,0952_ps_s01_120_bottle_10_n04591713_2345.png
subject-01,1,953,0.655663013458252,boat,boat,90,0953_ps_s01_90_boat_10_n04273569_7733.png
subject-01,1,954,0.834609985351562,keyboard,elephant,180,0954_ps_s01_180_elephant_10_n02504458_1929.png
subject-01,1,955,0.559117078781128,boat,boat,90,0955_ps_s01_90_boat_10_n02951358_30773.png
subject-01,1,956,1.18357610702515,knife,keyboard,180,0956_ps_s01_180_keyboard_10_n03085013_23014.png
subject-01,1,957,1.00007820129395,bottle,elephant,180,0957_ps_s01_180_elephant_10_n02504458_4395.png
subject-01,1,958,0.754477024078369,boat,boat,0,0958_ps_s01_0_boat_10_n04273569_15322.png
subject-01,1,959,NaN,na,oven,120,0959_ps_s01_120_oven_10_n04111531_924.png
subject-01,1,960,1.37124681472778,bottle,bottle,120,0960_ps_s01_120_bottle_10_n03937543_5343.png
subject-01,1,961,0.724286794662476,airplane,airplane,120,0961_ps_s01_120_airplane_10_n02690373_2092.png
subject-01,1,962,0.848366022109985,bear,bear,0,0962_ps_s01_0_bear_10_n02134418_2324.png
subject-01,1,963,0.719489097595215,bicycle,bicycle,30,0963_ps_s01_30_bicycle_10_n02835271_11842.png
subject-01,1,964,0.957917928695679,boat,knife,60,0964_ps_s01_60_knife_10_n03041632_87380.png
subject-01,1,965,0.920145034790039,bird,bird,120,0965_ps_s01_120_bird_10_n01614925_17980.png
subject-01,1,966,0.706090927124023,cat,cat,0,0966_ps_s01_0_cat_10_n02123597_13755.png
subject-01,1,967,0.922644853591919,airplane,elephant,150,0967_ps_s01_150_elephant_10_n02504013_7305.png
subject-01,1,968,0.901193857192993,knife,knife,90,0968_ps_s01_90_knife_10_n03041632_21859.png
subject-01,1,969,1.40141797065735,knife,knife,90,0969_ps_s01_90_knife_10_n03041632_84086.png
subject-01,1,970,0.81704306602478,bicycle,bicycle,90,0970_ps_s01_90_bicycle_10_n02835271_19853.png
subject-01,1,971,0.679850101470947,car,car,30,0971_ps_s01_30_car_10_n02814533_40773.png
subject-01,1,972,0.682919979095459,elephant,elephant,90,0972_ps_s01_90_elephant_10_n02504458_3153.png
subject-01,1,973,0.82894492149353,bear,bottle,90,0973_ps_s01_90_bottle_10_n04591713_2014.png
subject-01,1,974,0.867081165313721,clock,clock,90,0974_ps_s01_90_clock_10_n02708093_6696.png
subject-01,1,975,0.954059839248657,truck,truck,120,0975_ps_s01_120_truck_10_n03417042_20962.png
subject-01,1,976,0.748029947280884,car,dog,150,0976_ps_s01_150_dog_10_n02097209_821.png
subject-01,1,977,0.694705963134766,bottle,cat,180,0977_ps_s01_180_cat_10_n02123597_3944.png
subject-01,1,978,1.24024987220764,airplane,keyboard,180,0978_ps_s01_180_keyboard_10_n03085013_1808.png
subject-01,1,979,0.797950983047485,keyboard,keyboard,0,0979_ps_s01_0_keyboard_10_n04505470_4974.png
subject-01,1,980,0.643424034118652,boat,boat,120,0980_ps_s01_120_boat_10_n03662601_4541.png
subject-01,1,981,0.982084989547729,bottle,bird,180,0981_ps_s01_180_bird_10_n02028035_14461.png
subject-01,1,982,0.584203004837036,boat,boat,0,0982_ps_s01_0_boat_10_n03662601_37095.png
subject-01,1,983,0.69296407699585,keyboard,keyboard,60,0983_ps_s01_60_keyboard_10_n03085013_19565.png
subject-01,1,984,1.50009703636169,airplane,airplane,30,0984_ps_s01_30_airplane_10_n02690373_19107.png
subject-01,1,985,0.717514038085938,bird,bird,60,0985_ps_s01_60_bird_10_n02002724_3345.png
subject-01,1,986,1.17212510108948,knife,car,180,0986_ps_s01_180_car_10_n04285008_11770.png
subject-01,1,987,0.781072854995728,bear,dog,120,0987_ps_s01_120_dog_10_n02099849_4250.png
subject-01,1,988,0.958641052246094,clock,clock,150,0988_ps_s01_150_clock_10_n04548280_3301.png
subject-01,1,989,0.867501020431519,bird,knife,180,0989_ps_s01_180_knife_10_n03041632_5820.png
subject-01,1,990,1.10794591903687,car,knife,150,0990_ps_s01_150_knife_10_n03041632_19614.png
subject-01,1,991,1.22478914260864,boat,boat,150,0991_ps_s01_150_boat_10_n03344393_5265.png
subject-01,1,992,0.817199945449829,boat,boat,120,0992_ps_s01_120_boat_10_n03662601_7271.png
subject-01,1,993,0.72531795501709,knife,knife,0,0993_ps_s01_0_knife_10_n03041632_927.png
subject-01,1,994,0.812683820724487,car,car,60,0994_ps_s01_60_car_10_n03100240_7753.png
subject-01,1,995,1.11243104934692,car,car,0,0995_ps_s01_0_car_10_n02814533_95144.png
subject-01,1,996,0.829196929931641,chair,chair,90,0996_ps_s01_90_chair_10_n04429376_41755.png
subject-01,1,997,1.03156185150146,cat,cat,90,0997_ps_s01_90_cat_10_n02125311_36331.png
subject-01,1,998,0.701934099197388,keyboard,keyboard,60,0998_ps_s01_60_keyboard_10_n04505470_4479.png
subject-01,1,999,0.872403860092163,bird,bird,120,0999_ps_s01_120_bird_10_n02018207_6296.png
subject-01,1,1000,1.12750601768494,keyboard,bear,120,1000_ps_s01_120_bear_10_n02133161_1629.png
subject-01,1,1001,0.97357702255249,truck,truck,0,1001_ps_s01_0_truck_10_n03796401_3411.png
subject-01,1,1002,0.643588066101074,bicycle,bicycle,90,1002_ps_s01_90_bicycle_10_n03792782_55532.png
subject-01,1,1003,0.859764099121094,oven,elephant,150,1003_ps_s01_150_elephant_10_n02504458_952.png
subject-01,1,1004,0.891837120056152,elephant,chair,150,1004_ps_s01_150_chair_10_n04099969_3768.png
subject-01,1,1005,0.692478179931641,oven,truck,60,1005_ps_s01_60_truck_10_n03417042_173.png
subject-01,1,1006,0.962945938110352,knife,knife,0,1006_ps_s01_0_knife_10_n03041632_62810.png
subject-01,1,1007,0.847387075424194,bottle,bottle,30,1007_ps_s01_30_bottle_10_n04591713_5558.png
subject-01,1,1008,0.77945613861084,cat,cat,60,1008_ps_s01_60_cat_10_n02123159_6873.png
subject-01,1,1009,0.566314935684204,cat,cat,120,1009_ps_s01_120_cat_10_n02123045_567.png
subject-01,1,1010,0.582274913787842,cat,cat,60,1010_ps_s01_60_cat_10_n02124075_12059.png
subject-01,1,1011,0.583447933197021,cat,cat,30,1011_ps_s01_30_cat_10_n02123159_677.png
subject-01,1,1012,0.693299055099487,bear,bear,120,1012_ps_s01_120_bear_10_n02133161_361.png
subject-01,1,1013,0.656203985214233,cat,cat,90,1013_ps_s01_90_cat_10_n02123394_6311.png
subject-01,1,1014,1.02689003944397,bird,bird,30,1014_ps_s01_30_bird_10_n01796340_2973.png
subject-01,1,1015,1.01812601089478,cat,cat,150,1015_ps_s01_150_cat_10_n02123394_270.png
subject-01,1,1016,0.835004091262817,knife,knife,60,1016_ps_s01_60_knife_10_n03041632_8321.png
subject-01,1,1017,1.25169706344604,bird,cat,180,1017_ps_s01_180_cat_10_n02123394_6362.png
subject-01,1,1018,0.929813861846924,dog,bicycle,180,1018_ps_s01_180_bicycle_10_n02835271_1653.png
subject-01,1,1019,0.762712001800537,dog,dog,30,1019_ps_s01_30_dog_10_n02097047_4189.png
subject-01,1,1020,0.662799119949341,cat,cat,60,1020_ps_s01_60_cat_10_n02123394_6487.png
subject-01,1,1021,0.765300989151001,bicycle,chair,90,1021_ps_s01_90_chair_10_n04099969_18380.png
subject-01,1,1022,1.0966329574585,car,chair,150,1022_ps_s01_150_chair_10_n04429376_6242.png
subject-01,1,1023,1.05320405960083,oven,bicycle,180,1023_ps_s01_180_bicycle_10_n02835271_7296.png
subject-01,1,1024,0.638250112533569,cat,cat,90,1024_ps_s01_90_cat_10_n02123394_702.png
subject-01,1,1025,1.17068409919739,oven,chair,90,1025_ps_s01_90_chair_10_n03376595_14563.png
subject-01,1,1026,1.02453684806824,keyboard,chair,90,1026_ps_s01_90_chair_10_n03376595_8490.png
subject-01,1,1027,1.34190201759338,airplane,airplane,180,1027_ps_s01_180_airplane_10_n02690373_2874.png
subject-01,1,1028,0.8524329662323,elephant,elephant,90,1028_ps_s01_90_elephant_10_n02504458_7857.png
subject-01,1,1029,0.852719068527222,car,car,0,1029_ps_s01_0_car_10_n03100240_9982.png
subject-01,1,1030,0.89358115196228,bear,bear,60,1030_ps_s01_60_bear_10_n02134084_15118.png
subject-01,1,1031,0.915866851806641,bear,bear,30,1031_ps_s01_30_bear_10_n02133161_6861.png
subject-01,1,1032,0.902830123901367,bird,knife,180,1032_ps_s01_180_knife_10_n03041632_44212.png
subject-01,1,1033,0.604939937591553,boat,knife,150,1033_ps_s01_150_knife_10_n03041632_14132.png
subject-01,1,1034,0.70581316947937,clock,clock,0,1034_ps_s01_0_clock_10_n04548280_5699.png
subject-01,1,1035,1.03014516830444,boat,boat,150,1035_ps_s01_150_boat_10_n03344393_6854.png
subject-01,1,1036,1.34423208236694,bottle,oven,120,1036_ps_s01_120_oven_10_n04111531_2385.png
subject-01,1,1037,0.869046926498413,elephant,elephant,60,1037_ps_s01_60_elephant_10_n02504458_9516.png
subject-01,1,1038,1.08501291275024,chair,clock,30,1038_ps_s01_30_clock_10_n04548280_1109.png
subject-01,1,1039,1.44751405715942,keyboard,keyboard,0,1039_ps_s01_0_keyboard_10_n03085013_23192.png
subject-01,1,1040,0.764899969100952,elephant,elephant,90,1040_ps_s01_90_elephant_10_n02504458_2662.png
subject-01,1,1041,0.666941165924072,clock,clock,60,1041_ps_s01_60_clock_10_n04548280_4709.png
subject-01,1,1042,0.759440898895264,car,boat,180,1042_ps_s01_180_boat_10_n02951358_2999.png
subject-01,1,1043,0.584070920944214,clock,clock,0,1043_ps_s01_0_clock_10_n03196217_3605.png
subject-01,1,1044,1.01691699028015,bottle,keyboard,180,1044_ps_s01_180_keyboard_10_n03085013_24392.png
subject-01,1,1045,0.709499835968018,bicycle,bicycle,0,1045_ps_s01_0_bicycle_10_n02835271_759.png
subject-01,1,1046,0.750105857849121,elephant,elephant,30,1046_ps_s01_30_elephant_10_n02504458_8644.png
subject-01,1,1047,0.558748960494995,airplane,airplane,30,1047_ps_s01_30_airplane_10_n02690373_2882.png
subject-01,1,1048,0.660959005355835,chair,chair,60,1048_ps_s01_60_chair_10_n04099969_16382.png
subject-01,1,1049,0.891414880752563,chair,chair,120,1049_ps_s01_120_chair_10_n04099969_9005.png
subject-01,1,1050,0.545477867126465,cat,cat,0,1050_ps_s01_0_cat_10_n02123597_2232.png
subject-01,1,1051,0.793946981430054,car,car,60,1051_ps_s01_60_car_10_n04285008_11990.png
subject-01,1,1052,0.831753015518188,bottle,bottle,90,1052_ps_s01_90_bottle_10_n03983396_3185.png
subject-01,1,1053,0.986934185028076,bottle,knife,150,1053_ps_s01_150_knife_10_n03041632_19275.png
subject-01,1,1054,0.68099308013916,airplane,airplane,0,1054_ps_s01_0_airplane_10_n02690373_7355.png
subject-01,1,1055,0.643862962722778,oven,oven,120,1055_ps_s01_120_oven_10_n04111531_2922.png
subject-01,1,1056,0.628196001052856,keyboard,keyboard,30,1056_ps_s01_30_keyboard_10_n03085013_25066.png
subject-01,1,1057,0.844482898712158,elephant,elephant,120,1057_ps_s01_120_elephant_10_n02504013_2340.png
subject-01,1,1058,1.04710388183594,dog,bird,150,1058_ps_s01_150_bird_10_n01795545_17324.png
subject-01,1,1059,0.654782056808472,cat,cat,120,1059_ps_s01_120_cat_10_n02124075_2402.png
subject-01,1,1060,0.632980108261108,keyboard,keyboard,120,1060_ps_s01_120_keyboard_10_n04505470_1157.png
subject-01,1,1061,0.725510120391846,airplane,airplane,30,1061_ps_s01_30_airplane_10_n02690373_1950.png
subject-01,1,1062,0.611443996429443,bottle,bottle,60,1062_ps_s01_60_bottle_10_n02823428_880.png
subject-01,1,1063,0.757583141326904,truck,truck,120,1063_ps_s01_120_truck_10_n03796401_8254.png
subject-01,1,1064,0.712165117263794,oven,bottle,90,1064_ps_s01_90_bottle_10_n02823428_4386.png
subject-01,1,1065,0.628741025924683,bottle,bottle,30,1065_ps_s01_30_bottle_10_n03983396_11519.png
