subj,session,trial,rt,object_response,category,condition,imagename
subject-03,1,1,1.25909686088562,cat,bird,180,0001_ps_s03_180_bird_10_n02051845_12326.png
subject-03,1,2,1.42739701271057,elephant,knife,150,0002_ps_s03_150_knife_10_n03041632_92637.png
subject-03,1,3,1.50039410591125,dog,dog,60,0003_ps_s03_60_dog_10_n02096051_1569.png
subject-03,1,4,1.14733505249023,airplane,airplane,90,0004_ps_s03_90_airplane_10_n02690373_7698.png
subject-03,1,5,0.785943984985352,car,car,120,0005_ps_s03_120_car_10_n04285008_10825.png
subject-03,1,6,0.837966918945312,keyboard,keyboard,60,0006_ps_s03_60_keyboard_10_n04505470_4725.png
subject-03,1,7,1.02044701576233,oven,bear,150,0007_ps_s03_150_bear_10_n02134084_15189.png
subject-03,1,8,1.12878608703613,bird,dog,30,0008_ps_s03_30_dog_10_n02087394_2035.png
subject-03,1,9,0.910964012145996,cat,oven,30,0009_ps_s03_30_oven_10_n04111531_11709.png
subject-03,1,10,0.96547794342041,cat,dog,180,0010_ps_s03_180_dog_10_n02099601_9973.png
subject-03,1,11,1.09382009506226,keyboard,keyboard,60,0011_ps_s03_60_keyboard_10_n04505470_4521.png
subject-03,1,12,1.34041619300842,bird,bird,30,0012_ps_s03_30_bird_10_n01560419_16754.png
subject-03,1,13,1.15191292762756,bear,bear,150,0013_ps_s03_150_bear_10_n02133161_19341.png
subject-03,1,14,1.5000581741333,bear,bear,30,0014_ps_s03_30_bear_10_n02132136_9840.png
subject-03,1,15,1.01205492019653,airplane,airplane,90,0015_ps_s03_90_airplane_10_n02690373_18234.png
subject-03,1,16,1.08067798614502,cat,dog,180,0016_ps_s03_180_dog_10_n02107312_3944.png
subject-03,1,17,1.19961786270142,oven,clock,180,0017_ps_s03_180_clock_10_n04548280_3605.png
subject-03,1,18,NaN,na,airplane,60,0018_ps_s03_60_airplane_10_n02690373_1075.png
subject-03,1,19,1.3908531665802,bird,bird,180,0019_ps_s03_180_bird_10_n01829413_389.png
subject-03,1,20,1.04268884658813,cat,bicycle,120,0020_ps_s03_120_bicycle_10_n02835271_4440.png
subject-03,1,21,1.17288708686829,airplane,keyboard,150,0021_ps_s03_150_keyboard_10_n03085013_15530.png
subject-03,1,22,1.44731998443604,airplane,airplane,60,0022_ps_s03_60_airplane_10_n02690373_3110.png
subject-03,1,23,1.28567695617676,chair,knife,30,0023_ps_s03_30_knife_10_n03041632_32208.png
subject-03,1,24,1.50031614303589,bird,knife,180,0024_ps_s03_180_knife_10_n03041632_22988.png
subject-03,1,25,1.49999713897705,oven,truck,180,0025_ps_s03_180_truck_10_n04467665_61362.png
subject-03,1,26,1.33467197418213,car,car,90,0026_ps_s03_90_car_10_n03100240_2408.png
subject-03,1,27,1.50028300285339,bird,bird,90,0027_ps_s03_90_bird_10_n02018207_3553.png
subject-03,1,28,1.28746795654297,bird,oven,90,0028_ps_s03_90_oven_10_n04111531_5906.png
subject-03,1,29,1.01562595367432,chair,chair,0,0029_ps_s03_0_chair_10_n03376595_6938.png
subject-03,1,30,1.50016403198242,dog,knife,30,0030_ps_s03_30_knife_10_n03041632_18859.png
subject-03,1,31,1.46030688285828,bicycle,cat,180,0031_ps_s03_180_cat_10_n02123045_6937.png
subject-03,1,32,1.26694083213806,bird,bird,150,0032_ps_s03_150_bird_10_n01855672_13287.png
subject-03,1,33,1.35072112083435,bear,bird,180,0033_ps_s03_180_bird_10_n01855672_9594.png
subject-03,1,34,0.881044864654541,cat,bottle,120,0034_ps_s03_120_bottle_10_n02823428_832.png
subject-03,1,35,1.37975406646729,bear,truck,30,0035_ps_s03_30_truck_10_n03417042_28747.png
subject-03,1,36,1.2240879535675,knife,knife,0,0036_ps_s03_0_knife_10_n03041632_21472.png
subject-03,1,37,1.50017714500427,bird,chair,180,0037_ps_s03_180_chair_10_n03376595_7073.png
subject-03,1,38,1.43650197982788,bear,bear,0,0038_ps_s03_0_bear_10_n02134084_18729.png
subject-03,1,39,1.34271001815796,bear,bear,30,0039_ps_s03_30_bear_10_n02132136_7796.png
subject-03,1,40,NaN,na,knife,30,0040_ps_s03_30_knife_10_n03041632_3326.png
subject-03,1,41,0.957159042358398,bear,bear,120,0041_ps_s03_120_bear_10_n02132136_2255.png
subject-03,1,42,1.21771597862244,bird,truck,150,0042_ps_s03_150_truck_10_n03417042_9511.png
subject-03,1,43,1.08582091331482,chair,chair,30,0043_ps_s03_30_chair_10_n02791124_6823.png
subject-03,1,44,NaN,na,knife,120,0044_ps_s03_120_knife_10_n03041632_18959.png
subject-03,1,45,0.922612905502319,bird,bicycle,60,0045_ps_s03_60_bicycle_10_n03792782_13552.png
subject-03,1,46,1.29700088500977,bear,cat,150,0046_ps_s03_150_cat_10_n02123597_6550.png
subject-03,1,47,1.50001192092896,bird,bicycle,120,0047_ps_s03_120_bicycle_10_n03792782_62398.png
subject-03,1,48,NaN,na,elephant,60,0048_ps_s03_60_elephant_10_n02504458_2953.png
subject-03,1,49,1.22351694107056,bottle,bottle,60,0049_ps_s03_60_bottle_10_n04591713_5533.png
subject-03,1,50,1.2596709728241,boat,boat,60,0050_ps_s03_60_boat_10_n04273569_3810.png
subject-03,1,51,1.23522400856018,car,boat,90,0051_ps_s03_90_boat_10_n03662601_25430.png
subject-03,1,52,1.27200698852539,cat,bicycle,90,0052_ps_s03_90_bicycle_10_n02835271_10362.png
subject-03,1,53,1.1237850189209,keyboard,keyboard,30,0053_ps_s03_30_keyboard_10_n04505470_432.png
subject-03,1,54,1.33837294578552,bottle,clock,60,0054_ps_s03_60_clock_10_n04548280_12615.png
subject-03,1,55,1.1384859085083,truck,truck,90,0055_ps_s03_90_truck_10_n03417042_3857.png
subject-03,1,56,1.42914581298828,truck,truck,30,0056_ps_s03_30_truck_10_n03796401_20861.png
subject-03,1,57,1.1057300567627,bicycle,bicycle,90,0057_ps_s03_90_bicycle_10_n02835271_4962.png
subject-03,1,58,1.40418100357056,bird,cat,120,0058_ps_s03_120_cat_10_n02124075_4651.png
subject-03,1,59,1.4104208946228,bear,bird,180,0059_ps_s03_180_bird_10_n01829413_9223.png
subject-03,1,60,1.1030158996582,cat,clock,150,0060_ps_s03_150_clock_10_n02708093_92.png
subject-03,1,61,NaN,na,bear,150,0061_ps_s03_150_bear_10_n02134418_149.png
subject-03,1,62,1.18614602088928,bird,bear,180,0062_ps_s03_180_bear_10_n02134418_4057.png
subject-03,1,63,1.43033480644226,oven,clock,30,0063_ps_s03_30_clock_10_n03196217_8221.png
subject-03,1,64,1.49074006080627,bird,oven,150,0064_ps_s03_150_oven_10_n04111531_21068.png
subject-03,1,65,1.12119793891907,elephant,elephant,0,0065_ps_s03_0_elephant_10_n02504458_12074.png
subject-03,1,66,1.03645706176758,bottle,clock,120,0066_ps_s03_120_clock_10_n02708093_7957.png
subject-03,1,67,1.20446705818176,car,car,60,0067_ps_s03_60_car_10_n03100240_19570.png
subject-03,1,68,1.15670704841614,bird,airplane,150,0068_ps_s03_150_airplane_10_n02690373_1489.png
subject-03,1,69,0.987210035324097,cat,chair,120,0069_ps_s03_120_chair_10_n02791124_6643.png
subject-03,1,70,1.40164613723755,dog,elephant,150,0070_ps_s03_150_elephant_10_n02504458_8219.png
subject-03,1,71,1.50009799003601,bird,bird,60,0071_ps_s03_60_bird_10_n02025239_7145.png
subject-03,1,72,0.816593885421753,elephant,elephant,30,0072_ps_s03_30_elephant_10_n02504458_3851.png
subject-03,1,73,1.30701184272766,elephant,elephant,0,0073_ps_s03_0_elephant_10_n02504013_6426.png
subject-03,1,74,NaN,na,elephant,60,0074_ps_s03_60_elephant_10_n02504458_6851.png
subject-03,1,75,1.145094871521,bottle,bottle,120,0075_ps_s03_120_bottle_10_n02823428_3533.png
subject-03,1,76,1.06704711914062,airplane,airplane,120,0076_ps_s03_120_airplane_10_n02690373_10704.png
subject-03,1,77,1.24154496192932,boat,cat,180,0077_ps_s03_180_cat_10_n02124075_14212.png
subject-03,1,78,1.50005483627319,cat,bear,60,0078_ps_s03_60_bear_10_n02133161_11944.png
subject-03,1,79,0.910218000411987,bird,bird,0,0079_ps_s03_0_bird_10_n01534433_12772.png
subject-03,1,80,1.30661416053772,oven,oven,0,0080_ps_s03_0_oven_10_n04111531_11868.png
subject-03,1,81,1.1687970161438,knife,knife,0,0081_ps_s03_0_knife_10_n03041632_76163.png
subject-03,1,82,NaN,na,bird,60,0082_ps_s03_60_bird_10_n01820546_1478.png
subject-03,1,83,1.50002503395081,bear,elephant,120,0083_ps_s03_120_elephant_10_n02504458_5320.png
subject-03,1,84,1.46096992492676,knife,clock,150,0084_ps_s03_150_clock_10_n03196217_7026.png
subject-03,1,85,1.50030708312988,bird,airplane,120,0085_ps_s03_120_airplane_10_n02690373_6753.png
subject-03,1,86,1.01350998878479,cat,bird,120,0086_ps_s03_120_bird_10_n01622779_220.png
subject-03,1,87,1.47393894195557,oven,knife,90,0087_ps_s03_90_knife_10_n03041632_54732.png
subject-03,1,88,1.27259802818298,cat,bottle,120,0088_ps_s03_120_bottle_10_n02823428_6046.png
subject-03,1,89,1.50040102005005,bird,oven,150,0089_ps_s03_150_oven_10_n04111531_22316.png
subject-03,1,90,NaN,na,elephant,150,0090_ps_s03_150_elephant_10_n02504013_5960.png
subject-03,1,91,1.44307994842529,chair,knife,180,0091_ps_s03_180_knife_10_n03041632_2973.png
subject-03,1,92,1.14062595367432,bottle,bottle,120,0092_ps_s03_120_bottle_10_n03983396_12143.png
subject-03,1,93,NaN,na,bicycle,150,0093_ps_s03_150_bicycle_10_n02835271_14670.png
subject-03,1,94,1.50035095214844,oven,clock,180,0094_ps_s03_180_clock_10_n03196217_10634.png
subject-03,1,95,0.920712947845459,clock,clock,0,0095_ps_s03_0_clock_10_n03196217_6358.png
subject-03,1,96,0.989329099655151,airplane,airplane,0,0096_ps_s03_0_airplane_10_n02690373_1442.png
subject-03,1,97,1.41789102554321,airplane,airplane,30,0097_ps_s03_30_airplane_10_n02690373_3473.png
subject-03,1,98,1.50027298927307,bird,bird,60,0098_ps_s03_60_bird_10_n01833805_10605.png
subject-03,1,99,1.20663404464722,cat,elephant,90,0099_ps_s03_90_elephant_10_n02504013_2257.png
subject-03,1,100,1.495934009552,oven,oven,150,0100_ps_s03_150_oven_10_n04111531_14876.png
subject-03,1,101,1.44029211997986,bird,oven,90,0101_ps_s03_90_oven_10_n04111531_9380.png
subject-03,1,102,1.49249911308289,elephant,bear,120,0102_ps_s03_120_bear_10_n02132136_713.png
subject-03,1,103,1.03121495246887,bear,clock,150,0103_ps_s03_150_clock_10_n03196217_6809.png
subject-03,1,104,0.86322808265686,cat,truck,150,0104_ps_s03_150_truck_10_n04467665_23112.png
subject-03,1,105,1.30142498016357,keyboard,keyboard,30,0105_ps_s03_30_keyboard_10_n03085013_22438.png
subject-03,1,106,1.02985501289368,oven,bottle,60,0106_ps_s03_60_bottle_10_n03983396_9667.png
subject-03,1,107,NaN,na,bottle,120,0107_ps_s03_120_bottle_10_n04591713_1742.png
subject-03,1,108,1.0128128528595,boat,boat,30,0108_ps_s03_30_boat_10_n03662601_11287.png
subject-03,1,109,0.889418840408325,cat,bear,120,0109_ps_s03_120_bear_10_n02133161_1092.png
subject-03,1,110,1.12595105171204,dog,dog,0,0110_ps_s03_0_dog_10_n02113624_246.png
subject-03,1,111,1.01022601127625,oven,oven,120,0111_ps_s03_120_oven_10_n04111531_7283.png
subject-03,1,112,1.29299902915955,keyboard,oven,60,0112_ps_s03_60_oven_10_n04111531_11230.png
subject-03,1,113,1.03739404678345,boat,car,120,0113_ps_s03_120_car_10_n03100240_5121.png
subject-03,1,114,1.50033521652222,oven,boat,180,0114_ps_s03_180_boat_10_n03662601_12308.png
subject-03,1,115,NaN,na,boat,90,0115_ps_s03_90_boat_10_n03344393_7105.png
subject-03,1,116,1.27000594139099,clock,boat,150,0116_ps_s03_150_boat_10_n02951358_4748.png
subject-03,1,117,1.50026702880859,bicycle,bicycle,30,0117_ps_s03_30_bicycle_10_n03792782_7709.png
subject-03,1,118,1.45807504653931,dog,dog,120,0118_ps_s03_120_dog_10_n02097130_364.png
subject-03,1,119,1.25627493858337,bird,oven,60,0119_ps_s03_60_oven_10_n04111531_20823.png
subject-03,1,120,0.656720161437988,clock,clock,90,0120_ps_s03_90_clock_10_n04548280_8585.png
subject-03,1,121,1.12340402603149,bird,dog,180,0121_ps_s03_180_dog_10_n02108422_6009.png
subject-03,1,122,1.16731309890747,chair,chair,90,0122_ps_s03_90_chair_10_n04099969_40812.png
subject-03,1,123,0.813921928405762,bicycle,bicycle,0,0123_ps_s03_0_bicycle_10_n02835271_14016.png
subject-03,1,124,1.43967390060425,truck,truck,90,0124_ps_s03_90_truck_10_n03417042_4752.png
subject-03,1,125,1.09433794021606,bottle,bottle,30,0125_ps_s03_30_bottle_10_n04557648_24342.png
subject-03,1,126,1.42768311500549,clock,chair,90,0126_ps_s03_90_chair_10_n04429376_3452.png
subject-03,1,127,1.0799400806427,boat,airplane,180,0127_ps_s03_180_airplane_10_n02690373_12756.png
subject-03,1,128,0.704303026199341,clock,clock,90,0128_ps_s03_90_clock_10_n02708093_6252.png
subject-03,1,129,1.14085102081299,knife,knife,30,0129_ps_s03_30_knife_10_n03041632_32054.png
subject-03,1,130,1.23935604095459,dog,cat,60,0130_ps_s03_60_cat_10_n02125311_53045.png
subject-03,1,131,1.28334808349609,dog,dog,30,0131_ps_s03_30_dog_10_n02106550_893.png
subject-03,1,132,NaN,na,chair,60,0132_ps_s03_60_chair_10_n02791124_11395.png
subject-03,1,133,0.98838996887207,keyboard,keyboard,120,0133_ps_s03_120_keyboard_10_n04505470_518.png
subject-03,1,134,1.10253095626831,chair,clock,120,0134_ps_s03_120_clock_10_n04548280_1132.png
subject-03,1,135,1.44843602180481,airplane,knife,180,0135_ps_s03_180_knife_10_n03041632_27879.png
subject-03,1,136,1.40046501159668,cat,truck,150,0136_ps_s03_150_truck_10_n04467665_1584.png
subject-03,1,137,0.907125949859619,oven,chair,120,0137_ps_s03_120_chair_10_n03376595_9030.png
subject-03,1,138,1.50009822845459,cat,bird,90,0138_ps_s03_90_bird_10_n01614925_686.png
subject-03,1,139,NaN,na,elephant,30,0139_ps_s03_30_elephant_10_n02504013_19659.png
subject-03,1,140,1.46445989608765,bird,bicycle,120,0140_ps_s03_120_bicycle_10_n03792782_8057.png
subject-03,1,141,1.50029587745667,knife,knife,90,0141_ps_s03_90_knife_10_n03041632_50034.png
subject-03,1,142,1.34758114814758,boat,bear,120,0142_ps_s03_120_bear_10_n02134084_5987.png
subject-03,1,143,1.50028014183044,bird,cat,60,0143_ps_s03_60_cat_10_n02123159_1355.png
subject-03,1,144,1.25220608711243,oven,keyboard,90,0144_ps_s03_90_keyboard_10_n03085013_15785.png
subject-03,1,145,1.08870100975037,boat,boat,30,0145_ps_s03_30_boat_10_n03662601_2649.png
subject-03,1,146,1.42486190795898,bird,knife,120,0146_ps_s03_120_knife_10_n03041632_16206.png
subject-03,1,147,1.3934268951416,keyboard,car,90,0147_ps_s03_90_car_10_n03100240_14317.png
subject-03,1,148,1.44332909584045,cat,knife,150,0148_ps_s03_150_knife_10_n03041632_37274.png
subject-03,1,149,NaN,na,bird,150,0149_ps_s03_150_bird_10_n01558993_6575.png
subject-03,1,150,1.48499584197998,keyboard,keyboard,150,0150_ps_s03_150_keyboard_10_n03085013_20523.png
subject-03,1,151,1.32920789718628,chair,knife,60,0151_ps_s03_60_knife_10_n03041632_21590.png
subject-03,1,152,1.02962398529053,knife,knife,30,0152_ps_s03_30_knife_10_n03041632_19620.png
subject-03,1,153,1.07015585899353,boat,airplane,120,0153_ps_s03_120_airplane_10_n02690373_7530.png
subject-03,1,154,1.17677903175354,bottle,bottle,0,0154_ps_s03_0_bottle_10_n04557648_14715.png
subject-03,1,155,1.29700207710266,elephant,oven,30,0155_ps_s03_30_oven_10_n04111531_9314.png
subject-03,1,156,1.44947600364685,dog,cat,180,0156_ps_s03_180_cat_10_n02125311_18007.png
subject-03,1,157,1.25558686256409,oven,oven,0,0157_ps_s03_0_oven_10_n04111531_15683.png
subject-03,1,158,1.50042080879211,bird,truck,180,0158_ps_s03_180_truck_10_n03417042_8581.png
subject-03,1,159,1.50017690658569,cat,bird,60,0159_ps_s03_60_bird_10_n01820546_6199.png
subject-03,1,160,1.4125599861145,elephant,bear,150,0160_ps_s03_150_bear_10_n02133161_16133.png
subject-03,1,161,1.09415912628174,bird,chair,90,0161_ps_s03_90_chair_10_n04099969_3430.png
subject-03,1,162,1.14472198486328,oven,chair,0,0162_ps_s03_0_chair_10_n02791124_5136.png
subject-03,1,163,1.04442405700684,oven,bottle,150,0163_ps_s03_150_bottle_10_n04579145_5879.png
subject-03,1,164,0.635042905807495,boat,boat,30,0164_ps_s03_30_boat_10_n03662601_22434.png
subject-03,1,165,1.07151412963867,oven,truck,180,0165_ps_s03_180_truck_10_n03417042_12145.png
subject-03,1,166,1.47802209854126,cat,knife,120,0166_ps_s03_120_knife_10_n03041632_16826.png
subject-03,1,167,1.05459213256836,airplane,boat,0,0167_ps_s03_0_boat_10_n03662601_3850.png
subject-03,1,168,1.17487692832947,bird,elephant,150,0168_ps_s03_150_elephant_10_n02504458_3092.png
subject-03,1,169,1.16536903381348,keyboard,keyboard,30,0169_ps_s03_30_keyboard_10_n04505470_2616.png
subject-03,1,170,1.24174809455872,cat,airplane,120,0170_ps_s03_120_airplane_10_n02690373_9401.png
subject-03,1,171,1.34831595420837,elephant,clock,150,0171_ps_s03_150_clock_10_n02708093_1124.png
subject-03,1,172,1.16053199768066,bear,knife,180,0172_ps_s03_180_knife_10_n03041632_21723.png
subject-03,1,173,1.29684281349182,bird,dog,120,0173_ps_s03_120_dog_10_n02107683_5107.png
subject-03,1,174,1.19419121742249,cat,boat,60,0174_ps_s03_60_boat_10_n03662601_15566.png
subject-03,1,175,1.22259998321533,truck,truck,0,0175_ps_s03_0_truck_10_n04467665_43935.png
subject-03,1,176,1.45440292358398,bottle,chair,180,0176_ps_s03_180_chair_10_n02791124_5238.png
subject-03,1,177,1.23078489303589,clock,clock,0,0177_ps_s03_0_clock_10_n04548280_183.png
subject-03,1,178,1.48076796531677,bird,knife,150,0178_ps_s03_150_knife_10_n03041632_28443.png
subject-03,1,179,1.02538299560547,cat,cat,0,0179_ps_s03_0_cat_10_n02123394_4147.png
subject-03,1,180,1.20955610275269,chair,chair,90,0180_ps_s03_90_chair_10_n02791124_1614.png
subject-03,1,181,1.16181397438049,cat,cat,0,0181_ps_s03_0_cat_10_n02123394_8544.png
subject-03,1,182,1.50027894973755,knife,bird,180,0182_ps_s03_180_bird_10_n01531178_20793.png
subject-03,1,183,1.50046300888062,dog,truck,30,0183_ps_s03_30_truck_10_n03417042_3657.png
subject-03,1,184,1.45436310768127,truck,truck,0,0184_ps_s03_0_truck_10_n04467665_58762.png
subject-03,1,185,1.09030199050903,cat,bicycle,150,0185_ps_s03_150_bicycle_10_n02835271_2915.png
subject-03,1,186,1.41885495185852,bottle,bottle,90,0186_ps_s03_90_bottle_10_n04591713_5046.png
subject-03,1,187,NaN,na,dog,0,0187_ps_s03_0_dog_10_n02113624_4001.png
subject-03,1,188,0.918198108673096,boat,car,180,0188_ps_s03_180_car_10_n02814533_85692.png
subject-03,1,189,0.832475900650024,cat,chair,120,0189_ps_s03_120_chair_10_n02791124_1.png
subject-03,1,190,0.891010999679565,bottle,bottle,0,0190_ps_s03_0_bottle_10_n02823428_5804.png
subject-03,1,191,1.27318596839905,dog,dog,30,0191_ps_s03_30_dog_10_n02091134_734.png
subject-03,1,192,1.24997806549072,car,car,60,0192_ps_s03_60_car_10_n03100240_16440.png
subject-03,1,193,NaN,na,knife,30,0193_ps_s03_30_knife_10_n03041632_32350.png
subject-03,1,194,1.46230721473694,bottle,elephant,90,0194_ps_s03_90_elephant_10_n02504013_252.png
subject-03,1,195,NaN,na,elephant,0,0195_ps_s03_0_elephant_10_n02504458_7570.png
subject-03,1,196,1.21280598640442,bear,dog,150,0196_ps_s03_150_dog_10_n02087394_5387.png
subject-03,1,197,NaN,na,airplane,150,0197_ps_s03_150_airplane_10_n02690373_5015.png
subject-03,1,198,1.50014710426331,knife,cat,150,0198_ps_s03_150_cat_10_n02125311_3438.png
subject-03,1,199,1.27571320533752,bird,bicycle,150,0199_ps_s03_150_bicycle_10_n03792782_5097.png
subject-03,1,200,1.50021004676819,cat,chair,60,0200_ps_s03_60_chair_10_n04429376_15860.png
subject-03,1,201,1.34265804290771,keyboard,keyboard,90,0201_ps_s03_90_keyboard_10_n03085013_20884.png
subject-03,1,202,1.50002503395081,cat,bird,0,0202_ps_s03_0_bird_10_n02011460_398.png
subject-03,1,203,1.5002019405365,bird,clock,120,0203_ps_s03_120_clock_10_n03196217_3986.png
subject-03,1,204,1.03500318527222,oven,truck,180,0204_ps_s03_180_truck_10_n04467665_58341.png
subject-03,1,205,NaN,na,keyboard,180,0205_ps_s03_180_keyboard_10_n03085013_24044.png
subject-03,1,206,1.43181300163269,truck,truck,90,0206_ps_s03_90_truck_10_n04467665_10036.png
subject-03,1,207,NaN,na,knife,150,0207_ps_s03_150_knife_10_n03041632_7119.png
subject-03,1,208,1.42631006240845,bottle,bottle,0,0208_ps_s03_0_bottle_10_n03983396_984.png
subject-03,1,209,1.31085515022278,airplane,airplane,30,0209_ps_s03_30_airplane_10_n02690373_10131.png
subject-03,1,210,NaN,na,chair,90,0210_ps_s03_90_chair_10_n04099969_6710.png
subject-03,1,211,NaN,na,chair,60,0211_ps_s03_60_chair_10_n03376595_17810.png
subject-03,1,212,1.35059595108032,bird,elephant,180,0212_ps_s03_180_elephant_10_n02504458_7483.png
subject-03,1,213,1.46465611457825,oven,oven,30,0213_ps_s03_30_oven_10_n04111531_3181.png
subject-03,1,214,0.795405864715576,cat,bicycle,150,0214_ps_s03_150_bicycle_10_n02835271_5821.png
subject-03,1,215,1.04524707794189,car,bicycle,90,0215_ps_s03_90_bicycle_10_n02835271_9670.png
subject-03,1,216,1.26016402244568,dog,dog,60,0216_ps_s03_60_dog_10_n02085936_1281.png
subject-03,1,217,1.00415682792664,cat,cat,30,0217_ps_s03_30_cat_10_n02123045_10293.png
subject-03,1,218,1.36250495910645,boat,cat,180,0218_ps_s03_180_cat_10_n02123394_490.png
subject-03,1,219,1.16057801246643,car,car,90,0219_ps_s03_90_car_10_n04285008_3828.png
subject-03,1,220,0.913289070129395,keyboard,keyboard,60,0220_ps_s03_60_keyboard_10_n04505470_6426.png
subject-03,1,221,1.3473539352417,oven,keyboard,0,0221_ps_s03_0_keyboard_10_n04505470_4628.png
subject-03,1,222,1.4316840171814,keyboard,chair,30,0222_ps_s03_30_chair_10_n04429376_49840.png
subject-03,1,223,0.884166955947876,boat,boat,60,0223_ps_s03_60_boat_10_n03662601_34506.png
subject-03,1,224,1.13420391082764,airplane,airplane,60,0224_ps_s03_60_airplane_10_n02690373_9720.png
subject-03,1,225,1.13228607177734,boat,bird,90,0225_ps_s03_90_bird_10_n02033041_7756.png
subject-03,1,226,NaN,na,chair,90,0226_ps_s03_90_chair_10_n02791124_16861.png
subject-03,1,227,1.20523118972778,car,bicycle,90,0227_ps_s03_90_bicycle_10_n02835271_974.png
subject-03,1,228,1.50002908706665,bird,bear,30,0228_ps_s03_30_bear_10_n02134418_1615.png
subject-03,1,229,1.31092000007629,car,car,60,0229_ps_s03_60_car_10_n02814533_25129.png
subject-03,1,230,0.985641002655029,oven,bicycle,60,0230_ps_s03_60_bicycle_10_n02835271_7476.png
subject-03,1,231,0.959548950195312,cat,cat,60,0231_ps_s03_60_cat_10_n02123394_2364.png
subject-03,1,232,1.46619510650635,dog,dog,30,0232_ps_s03_30_dog_10_n02108422_4529.png
subject-03,1,233,1.40242910385132,bird,oven,150,0233_ps_s03_150_oven_10_n04111531_1815.png
subject-03,1,234,1.50021815299988,cat,cat,30,0234_ps_s03_30_cat_10_n02123394_5669.png
subject-03,1,235,NaN,na,truck,60,0235_ps_s03_60_truck_10_n03417042_19812.png
subject-03,1,236,1.30349397659302,car,car,0,0236_ps_s03_0_car_10_n02814533_11030.png
subject-03,1,237,NaN,na,elephant,90,0237_ps_s03_90_elephant_10_n02504458_11700.png
subject-03,1,238,1.19205689430237,oven,truck,120,0238_ps_s03_120_truck_10_n04467665_1174.png
subject-03,1,239,1.30452513694763,bird,bird,30,0239_ps_s03_30_bird_10_n01532829_784.png
subject-03,1,240,NaN,na,chair,120,0240_ps_s03_120_chair_10_n03376595_642.png
subject-03,1,241,1.00107502937317,airplane,airplane,0,0241_ps_s03_0_airplane_10_n02690373_9680.png
subject-03,1,242,1.50020813941956,cat,chair,30,0242_ps_s03_30_chair_10_n04099969_48891.png
subject-03,1,243,1.37416410446167,clock,dog,120,0243_ps_s03_120_dog_10_n02106030_15031.png
subject-03,1,244,1.30144882202148,bicycle,bicycle,30,0244_ps_s03_30_bicycle_10_n03792782_14021.png
subject-03,1,245,1.25422692298889,cat,bird,150,0245_ps_s03_150_bird_10_n02025239_5246.png
subject-03,1,246,NaN,na,bottle,180,0246_ps_s03_180_bottle_10_n04557648_8485.png
subject-03,1,247,1.15733814239502,truck,truck,90,0247_ps_s03_90_truck_10_n03417042_3940.png
subject-03,1,248,1.50006008148193,bird,airplane,150,0248_ps_s03_150_airplane_10_n02690373_1819.png
subject-03,1,249,1.33773708343506,cat,dog,150,0249_ps_s03_150_dog_10_n02099849_4612.png
subject-03,1,250,NaN,na,bottle,30,0250_ps_s03_30_bottle_10_n04557648_3389.png
subject-03,1,251,0.987528085708618,bird,bottle,150,0251_ps_s03_150_bottle_10_n04557648_10580.png
subject-03,1,252,1.03785800933838,bottle,bottle,150,0252_ps_s03_150_bottle_10_n04560804_10.png
subject-03,1,253,1.01428008079529,oven,oven,0,0253_ps_s03_0_oven_10_n04111531_6049.png
subject-03,1,254,1.25097894668579,cat,knife,180,0254_ps_s03_180_knife_10_n03041632_8666.png
subject-03,1,255,0.917339086532593,dog,bear,30,0255_ps_s03_30_bear_10_n02134084_32584.png
subject-03,1,256,1.23171901702881,bird,boat,180,0256_ps_s03_180_boat_10_n02951358_5094.png
subject-03,1,257,0.95228910446167,cat,dog,180,0257_ps_s03_180_dog_10_n02101006_12351.png
subject-03,1,258,1.33003783226013,oven,oven,90,0258_ps_s03_90_oven_10_n04111531_615.png
subject-03,1,259,NaN,na,cat,120,0259_ps_s03_120_cat_10_n02123394_2516.png
subject-03,1,260,1.432776927948,clock,cat,120,0260_ps_s03_120_cat_10_n02123597_259.png
subject-03,1,261,1.18511581420898,oven,boat,150,0261_ps_s03_150_boat_10_n03344393_428.png
subject-03,1,262,1.31339383125305,cat,bear,0,0262_ps_s03_0_bear_10_n02132136_13912.png
subject-03,1,263,NaN,na,boat,0,0263_ps_s03_0_boat_10_n03344393_4884.png
subject-03,1,264,1.34552693367004,dog,bird,30,0264_ps_s03_30_bird_10_n01537544_8843.png
subject-03,1,265,1.32730579376221,airplane,airplane,180,0265_ps_s03_180_airplane_10_n02690373_5254.png
subject-03,1,266,0.617312908172607,cat,cat,30,0266_ps_s03_30_cat_10_n02124075_8431.png
subject-03,1,267,1.1539101600647,bird,bicycle,90,0267_ps_s03_90_bicycle_10_n02835271_12930.png
subject-03,1,268,1.44166398048401,bottle,car,120,0268_ps_s03_120_car_10_n03100240_8984.png
subject-03,1,269,NaN,na,oven,60,0269_ps_s03_60_oven_10_n04111531_344.png
subject-03,1,270,1.32234287261963,bird,bear,120,0270_ps_s03_120_bear_10_n02134084_13588.png
subject-03,1,271,1.05289506912231,oven,keyboard,90,0271_ps_s03_90_keyboard_10_n03085013_19512.png
subject-03,1,272,0.943307161331177,cat,bear,150,0272_ps_s03_150_bear_10_n02133161_1916.png
subject-03,1,273,1.26400399208069,elephant,elephant,30,0273_ps_s03_30_elephant_10_n02504013_2476.png
subject-03,1,274,1.28430604934692,clock,clock,30,0274_ps_s03_30_clock_10_n04548280_2313.png
subject-03,1,275,1.39667010307312,oven,bicycle,150,0275_ps_s03_150_bicycle_10_n02835271_3215.png
subject-03,1,276,1.49999785423279,bird,elephant,120,0276_ps_s03_120_elephant_10_n02504013_6544.png
subject-03,1,277,1.1932361125946,oven,clock,90,0277_ps_s03_90_clock_10_n03196217_7637.png
subject-03,1,278,NaN,na,airplane,30,0278_ps_s03_30_airplane_10_n02690373_6739.png
subject-03,1,279,1.45729207992554,oven,airplane,150,0279_ps_s03_150_airplane_10_n02690373_20242.png
subject-03,1,280,1.40819692611694,bottle,cat,150,0280_ps_s03_150_cat_10_n02125311_18335.png
subject-03,1,281,0.989326953887939,bicycle,bicycle,30,0281_ps_s03_30_bicycle_10_n02835271_12123.png
subject-03,1,282,NaN,na,boat,180,0282_ps_s03_180_boat_10_n04273569_17684.png
subject-03,1,283,NaN,na,bottle,180,0283_ps_s03_180_bottle_10_n04591713_107.png
subject-03,1,284,1.27359700202942,cat,cat,90,0284_ps_s03_90_cat_10_n02124075_15399.png
subject-03,1,285,1.22407698631287,bottle,car,180,0285_ps_s03_180_car_10_n02814533_40955.png
subject-03,1,286,0.913520097732544,bottle,bottle,90,0286_ps_s03_90_bottle_10_n04591713_3878.png
subject-03,1,287,1.18851804733276,oven,bicycle,180,0287_ps_s03_180_bicycle_10_n03792782_43204.png
subject-03,1,288,1.34643697738647,cat,oven,150,0288_ps_s03_150_oven_10_n04111531_8398.png
subject-03,1,289,1.50008893013,dog,elephant,120,0289_ps_s03_120_elephant_10_n02504013_2148.png
subject-03,1,290,1.35744309425354,cat,oven,0,0290_ps_s03_0_oven_10_n04111531_22797.png
subject-03,1,291,1.37763500213623,boat,truck,180,0291_ps_s03_180_truck_10_n03417042_19479.png
subject-03,1,292,1.2081470489502,bird,dog,120,0292_ps_s03_120_dog_10_n02107142_59190.png
subject-03,1,293,1.30452013015747,oven,bird,90,0293_ps_s03_90_bird_10_n02002556_3810.png
subject-03,1,294,1.18720197677612,bird,bird,60,0294_ps_s03_60_bird_10_n01582220_6649.png
subject-03,1,295,1.43925809860229,cat,truck,90,0295_ps_s03_90_truck_10_n03417042_16038.png
subject-03,1,296,NaN,na,bicycle,120,0296_ps_s03_120_bicycle_10_n02835271_22206.png
subject-03,1,297,0.681548118591309,clock,clock,60,0297_ps_s03_60_clock_10_n02708093_1430.png
subject-03,1,298,0.861824989318848,airplane,airplane,30,0298_ps_s03_30_airplane_10_n02690373_3334.png
subject-03,1,299,0.990370035171509,bottle,elephant,120,0299_ps_s03_120_elephant_10_n02504013_7248.png
subject-03,1,300,1.41881990432739,airplane,truck,150,0300_ps_s03_150_truck_10_n03417042_10150.png
subject-03,1,301,NaN,na,airplane,180,0301_ps_s03_180_airplane_10_n02690373_4298.png
subject-03,1,302,1.3379271030426,oven,airplane,120,0302_ps_s03_120_airplane_10_n02690373_20033.png
subject-03,1,303,1.41995811462402,airplane,truck,60,0303_ps_s03_60_truck_10_n04467665_45983.png
subject-03,1,304,1.50019192695618,cat,elephant,90,0304_ps_s03_90_elephant_10_n02504458_2190.png
subject-03,1,305,1.5000741481781,bottle,bird,120,0305_ps_s03_120_bird_10_n01558993_5404.png
subject-03,1,306,1.50024485588074,airplane,boat,60,0306_ps_s03_60_boat_10_n03344393_3473.png
subject-03,1,307,1.30037689208984,cat,boat,180,0307_ps_s03_180_boat_10_n03344393_11590.png
subject-03,1,308,1.083163022995,cat,cat,150,0308_ps_s03_150_cat_10_n02124075_2080.png
subject-03,1,309,1.32754302024841,cat,oven,60,0309_ps_s03_60_oven_10_n04111531_9210.png
subject-03,1,310,NaN,na,bird,90,0310_ps_s03_90_bird_10_n01582220_2478.png
subject-03,1,311,1.31660079956055,knife,knife,90,0311_ps_s03_90_knife_10_n03041632_11700.png
subject-03,1,312,1.20509004592896,dog,cat,60,0312_ps_s03_60_cat_10_n02124075_583.png
subject-03,1,313,1.31136298179626,cat,chair,90,0313_ps_s03_90_chair_10_n02791124_3861.png
subject-03,1,314,1.36423301696777,bird,bicycle,180,0314_ps_s03_180_bicycle_10_n03792782_5416.png
subject-03,1,315,1.16062116622925,keyboard,keyboard,0,0315_ps_s03_0_keyboard_10_n04505470_4625.png
subject-03,1,316,1.35403394699097,dog,clock,150,0316_ps_s03_150_clock_10_n04548280_1411.png
subject-03,1,317,1.37431406974792,bird,cat,90,0317_ps_s03_90_cat_10_n02124075_13792.png
subject-03,1,318,0.848534822463989,cat,keyboard,180,0318_ps_s03_180_keyboard_10_n03085013_3804.png
subject-03,1,319,1.25254797935486,truck,truck,60,0319_ps_s03_60_truck_10_n03417042_23784.png
subject-03,1,320,1.50018000602722,bird,bird,150,0320_ps_s03_150_bird_10_n01592084_741.png
subject-03,1,321,1.34506487846375,bicycle,bicycle,30,0321_ps_s03_30_bicycle_10_n02835271_1299.png
subject-03,1,322,0.989349126815796,oven,bottle,150,0322_ps_s03_150_bottle_10_n04579145_1338.png
subject-03,1,323,1.34010720252991,truck,car,60,0323_ps_s03_60_car_10_n03100240_9425.png
subject-03,1,324,0.954496145248413,car,car,60,0324_ps_s03_60_car_10_n03100240_3528.png
subject-03,1,325,NaN,na,truck,90,0325_ps_s03_90_truck_10_n04467665_7464.png
subject-03,1,326,1.14881300926208,cat,elephant,90,0326_ps_s03_90_elephant_10_n02504458_1464.png
subject-03,1,327,1.50002217292786,bear,elephant,90,0327_ps_s03_90_elephant_10_n02504013_19753.png
subject-03,1,328,1.50017213821411,truck,chair,0,0328_ps_s03_0_chair_10_n02791124_3916.png
subject-03,1,329,1.5,truck,dog,30,0329_ps_s03_30_dog_10_n02110806_1336.png
subject-03,1,330,1.24542999267578,oven,keyboard,150,0330_ps_s03_150_keyboard_10_n03085013_6517.png
subject-03,1,331,1.50023198127747,bottle,bottle,60,0331_ps_s03_60_bottle_10_n04579145_2910.png
subject-03,1,332,1.06659698486328,boat,boat,0,0332_ps_s03_0_boat_10_n03662601_3913.png
subject-03,1,333,NaN,na,bear,0,0333_ps_s03_0_bear_10_n02134418_817.png
subject-03,1,334,1.09906220436096,car,car,30,0334_ps_s03_30_car_10_n03100240_859.png
subject-03,1,335,1.24312710762024,bicycle,bicycle,0,0335_ps_s03_0_bicycle_10_n03792782_50673.png
subject-03,1,336,0.779376983642578,cat,keyboard,180,0336_ps_s03_180_keyboard_10_n04505470_292.png
subject-03,1,337,NaN,na,bird,30,0337_ps_s03_30_bird_10_n01622779_6521.png
subject-03,1,338,1.48347902297974,cat,bottle,180,0338_ps_s03_180_bottle_10_n04557648_3530.png
subject-03,1,339,1.29792904853821,bird,elephant,120,0339_ps_s03_120_elephant_10_n02504458_4869.png
subject-03,1,340,NaN,na,dog,120,0340_ps_s03_120_dog_10_n02106030_10079.png
subject-03,1,341,1.45186686515808,elephant,elephant,0,0341_ps_s03_0_elephant_10_n02504458_1502.png
subject-03,1,342,1.08234405517578,knife,bottle,60,0342_ps_s03_60_bottle_10_n03983396_2287.png
subject-03,1,343,1.19457507133484,dog,cat,180,0343_ps_s03_180_cat_10_n02125311_47759.png
subject-03,1,344,1.07702898979187,cat,bear,180,0344_ps_s03_180_bear_10_n02134084_3470.png
subject-03,1,345,1.0220148563385,bird,bear,60,0345_ps_s03_60_bear_10_n02133161_2228.png
subject-03,1,346,1.05823707580566,oven,clock,120,0346_ps_s03_120_clock_10_n03196217_1908.png
subject-03,1,347,1.22463202476501,boat,boat,0,0347_ps_s03_0_boat_10_n03344393_3958.png
subject-03,1,348,1.21539211273193,bird,keyboard,180,0348_ps_s03_180_keyboard_10_n03085013_18621.png
subject-03,1,349,1.41393995285034,cat,oven,120,0349_ps_s03_120_oven_10_n04111531_8988.png
subject-03,1,350,0.972375869750977,oven,airplane,180,0350_ps_s03_180_airplane_10_n02690373_1074.png
subject-03,1,351,1.04876899719238,bottle,boat,120,0351_ps_s03_120_boat_10_n03344393_8878.png
subject-03,1,352,1.22071480751038,oven,chair,180,0352_ps_s03_180_chair_10_n03376595_204.png
subject-03,1,353,1.23476099967957,truck,truck,60,0353_ps_s03_60_truck_10_n03417042_27022.png
subject-03,1,354,1.20098304748535,bird,bird,150,0354_ps_s03_150_bird_10_n02011460_8224.png
subject-03,1,355,0.875963926315308,cat,boat,180,0355_ps_s03_180_boat_10_n02951358_3869.png
subject-03,1,356,1.50045204162598,bird,knife,150,0356_ps_s03_150_knife_10_n03041632_36280.png
subject-03,1,357,1.13234305381775,boat,boat,30,0357_ps_s03_30_boat_10_n04612504_14714.png
subject-03,1,358,1.27667307853699,airplane,airplane,60,0358_ps_s03_60_airplane_10_n02690373_8740.png
subject-03,1,359,NaN,na,bear,0,0359_ps_s03_0_bear_10_n02134084_11993.png
subject-03,1,360,NaN,na,clock,90,0360_ps_s03_90_clock_10_n03196217_5797.png
subject-03,1,361,0.724456071853638,clock,clock,30,0361_ps_s03_30_clock_10_n04548280_117.png
subject-03,1,362,NaN,na,bird,0,0362_ps_s03_0_bird_10_n01616318_14191.png
subject-03,1,363,0.942914962768555,keyboard,keyboard,60,0363_ps_s03_60_keyboard_10_n04505470_961.png
subject-03,1,364,1.5001540184021,bird,cat,30,0364_ps_s03_30_cat_10_n02125311_59430.png
subject-03,1,365,1.46737408638,boat,oven,30,0365_ps_s03_30_oven_10_n04111531_1549.png
subject-03,1,366,1.50006818771362,cat,truck,120,0366_ps_s03_120_truck_10_n03417042_9668.png
subject-03,1,367,NaN,na,chair,30,0367_ps_s03_30_chair_10_n04429376_18227.png
subject-03,1,368,NaN,na,elephant,60,0368_ps_s03_60_elephant_10_n02504013_816.png
subject-03,1,369,1.50016498565674,chair,elephant,60,0369_ps_s03_60_elephant_10_n02504013_4957.png
subject-03,1,370,1.39287996292114,bottle,bottle,90,0370_ps_s03_90_bottle_10_n04557648_1104.png
subject-03,1,371,1.32676386833191,bird,bear,150,0371_ps_s03_150_bear_10_n02134418_5472.png
subject-03,1,372,1.10955286026001,dog,bicycle,150,0372_ps_s03_150_bicycle_10_n03792782_20234.png
subject-03,1,373,1.0776469707489,airplane,airplane,0,0373_ps_s03_0_airplane_10_n02690373_5496.png
subject-03,1,374,0.944262981414795,bird,dog,90,0374_ps_s03_90_dog_10_n02100877_13846.png
subject-03,1,375,1.06451606750488,car,car,30,0375_ps_s03_30_car_10_n03100240_12141.png
subject-03,1,376,1.49824595451355,airplane,airplane,30,0376_ps_s03_30_airplane_10_n02690373_16620.png
subject-03,1,377,0.950534105300903,airplane,airplane,60,0377_ps_s03_60_airplane_10_n02690373_7944.png
subject-03,1,378,0.956540107727051,bird,dog,150,0378_ps_s03_150_dog_10_n02111500_7593.png
subject-03,1,379,0.806756019592285,cat,dog,60,0379_ps_s03_60_dog_10_n02109961_35063.png
subject-03,1,380,0.943289041519165,bottle,oven,120,0380_ps_s03_120_oven_10_n04111531_7338.png
subject-03,1,381,NaN,na,car,30,0381_ps_s03_30_car_10_n03100240_9982.png
subject-03,1,382,1.3375461101532,oven,boat,120,0382_ps_s03_120_boat_10_n03344393_6147.png
subject-03,1,383,1.15762686729431,bird,knife,120,0383_ps_s03_120_knife_10_n03041632_28135.png
subject-03,1,384,1.43651008605957,bird,bottle,180,0384_ps_s03_180_bottle_10_n03937543_5992.png
subject-03,1,385,NaN,na,oven,90,0385_ps_s03_90_oven_10_n04111531_9762.png
subject-03,1,386,0.847133874893188,oven,oven,180,0386_ps_s03_180_oven_10_n04111531_2943.png
subject-03,1,387,0.907265901565552,car,car,30,0387_ps_s03_30_car_10_n04285008_15747.png
subject-03,1,388,1.07306599617004,oven,knife,180,0388_ps_s03_180_knife_10_n03041632_29355.png
subject-03,1,389,NaN,na,car,60,0389_ps_s03_60_car_10_n02814533_10493.png
subject-03,1,390,1.47408199310303,bird,bird,120,0390_ps_s03_120_bird_10_n02006656_9652.png
subject-03,1,391,1.46483397483826,cat,oven,0,0391_ps_s03_0_oven_10_n04111531_14766.png
subject-03,1,392,NaN,na,dog,60,0392_ps_s03_60_dog_10_n02093647_2427.png
subject-03,1,393,NaN,na,bottle,0,0393_ps_s03_0_bottle_10_n04557648_2635.png
subject-03,1,394,NaN,na,bottle,150,0394_ps_s03_150_bottle_10_n03937543_4642.png
subject-03,1,395,NaN,na,cat,0,0395_ps_s03_0_cat_10_n02123394_583.png
subject-03,1,396,1.23709607124329,bottle,keyboard,150,0396_ps_s03_150_keyboard_10_n03085013_15484.png
subject-03,1,397,NaN,na,bear,90,0397_ps_s03_90_bear_10_n02132136_8665.png
subject-03,1,398,1.26405215263367,bear,knife,150,0398_ps_s03_150_knife_10_n03041632_94155.png
subject-03,1,399,1.39249491691589,cat,bottle,90,0399_ps_s03_90_bottle_10_n04560804_4.png
subject-03,1,400,1.50036597251892,boat,car,120,0400_ps_s03_120_car_10_n04285008_10561.png
subject-03,1,401,NaN,na,keyboard,90,0401_ps_s03_90_keyboard_10_n03085013_22002.png
subject-03,1,402,1.16133213043213,oven,elephant,150,0402_ps_s03_150_elephant_10_n02504013_7081.png
subject-03,1,403,1.19807600975037,boat,oven,180,0403_ps_s03_180_oven_10_n04111531_14178.png
subject-03,1,404,1.50002694129944,bird,airplane,150,0404_ps_s03_150_airplane_10_n02690373_12966.png
subject-03,1,405,NaN,na,chair,150,0405_ps_s03_150_chair_10_n04429376_8881.png
subject-03,1,406,1.2993631362915,knife,knife,60,0406_ps_s03_60_knife_10_n03041632_33739.png
subject-03,1,407,1.50018215179443,bird,airplane,180,0407_ps_s03_180_airplane_10_n02690373_9926.png
subject-03,1,408,0.764403104782104,oven,bicycle,120,0408_ps_s03_120_bicycle_10_n02835271_506.png
subject-03,1,409,0.822707891464233,cat,bottle,180,0409_ps_s03_180_bottle_10_n03983396_2960.png
subject-03,1,410,NaN,na,car,150,0410_ps_s03_150_car_10_n02814533_341.png
subject-03,1,411,1.36359214782715,boat,bicycle,0,0411_ps_s03_0_bicycle_10_n02835271_15301.png
subject-03,1,412,NaN,na,truck,120,0412_ps_s03_120_truck_10_n03417042_27982.png
subject-03,1,413,0.966694831848145,oven,knife,90,0413_ps_s03_90_knife_10_n03041632_102828.png
subject-03,1,414,1.38719892501831,bear,dog,150,0414_ps_s03_150_dog_10_n02099429_4235.png
subject-03,1,415,1.14834690093994,bird,cat,60,0415_ps_s03_60_cat_10_n02124075_8910.png
subject-03,1,416,0.846377849578857,boat,bicycle,0,0416_ps_s03_0_bicycle_10_n02835271_3961.png
subject-03,1,417,1.35056495666504,bird,bottle,90,0417_ps_s03_90_bottle_10_n04557648_2571.png
subject-03,1,418,0.941333055496216,cat,elephant,180,0418_ps_s03_180_elephant_10_n02504013_7314.png
subject-03,1,419,1.07799601554871,bird,bird,180,0419_ps_s03_180_bird_10_n01817953_5781.png
subject-03,1,420,1.48816394805908,bird,cat,120,0420_ps_s03_120_cat_10_n02123159_3149.png
subject-03,1,421,NaN,na,oven,30,0421_ps_s03_30_oven_10_n04111531_7034.png
subject-03,1,422,0.793071031570435,clock,clock,0,0422_ps_s03_0_clock_10_n02708093_107.png
subject-03,1,423,1.28143000602722,cat,chair,60,0423_ps_s03_60_chair_10_n04099969_3297.png
subject-03,1,424,1.48023104667664,cat,cat,0,0424_ps_s03_0_cat_10_n02123159_13542.png
subject-03,1,425,1.38454103469849,bicycle,bicycle,0,0425_ps_s03_0_bicycle_10_n02835271_8511.png
subject-03,1,426,1.45940279960632,bottle,airplane,150,0426_ps_s03_150_airplane_10_n02690373_6536.png
subject-03,1,427,NaN,na,keyboard,180,0427_ps_s03_180_keyboard_10_n03085013_4136.png
subject-03,1,428,0.99396800994873,keyboard,keyboard,30,0428_ps_s03_30_keyboard_10_n04505470_943.png
subject-03,1,429,1.09263682365417,bottle,chair,30,0429_ps_s03_30_chair_10_n02791124_1682.png
subject-03,1,430,0.997118949890137,bottle,keyboard,180,0430_ps_s03_180_keyboard_10_n03085013_18821.png
subject-03,1,431,1.18769502639771,bird,boat,60,0431_ps_s03_60_boat_10_n04273569_1728.png
subject-03,1,432,1.09201407432556,bottle,clock,120,0432_ps_s03_120_clock_10_n04548280_5087.png
subject-03,1,433,0.974411964416504,cat,bottle,180,0433_ps_s03_180_bottle_10_n02823428_8167.png
subject-03,1,434,1.49435091018677,boat,boat,0,0434_ps_s03_0_boat_10_n04273569_17787.png
subject-03,1,435,1.36869311332703,oven,car,180,0435_ps_s03_180_car_10_n04285008_3005.png
subject-03,1,436,1.10454702377319,airplane,airplane,90,0436_ps_s03_90_airplane_10_n02690373_1983.png
subject-03,1,437,NaN,na,bottle,150,0437_ps_s03_150_bottle_10_n04579145_1461.png
subject-03,1,438,NaN,na,car,180,0438_ps_s03_180_car_10_n03100240_5924.png
subject-03,1,439,1.02014398574829,cat,cat,30,0439_ps_s03_30_cat_10_n02123159_7089.png
subject-03,1,440,1.26270413398743,bird,oven,180,0440_ps_s03_180_oven_10_n04111531_10419.png
subject-03,1,441,NaN,na,boat,90,0441_ps_s03_90_boat_10_n02951358_34307.png
subject-03,1,442,1.18954300880432,bird,truck,60,0442_ps_s03_60_truck_10_n04467665_22494.png
subject-03,1,443,NaN,na,knife,60,0443_ps_s03_60_knife_10_n03041632_1884.png
subject-03,1,444,1.31787490844727,bird,boat,150,0444_ps_s03_150_boat_10_n03344393_2916.png
subject-03,1,445,0.983916044235229,cat,dog,0,0445_ps_s03_0_dog_10_n02097298_9593.png
subject-03,1,446,1.13637518882751,knife,knife,0,0446_ps_s03_0_knife_10_n03041632_42156.png
subject-03,1,447,0.964337825775146,boat,airplane,120,0447_ps_s03_120_airplane_10_n02690373_4507.png
subject-03,1,448,NaN,na,keyboard,150,0448_ps_s03_150_keyboard_10_n04505470_2093.png
subject-03,1,449,NaN,na,bear,30,0449_ps_s03_30_bear_10_n02134418_188.png
subject-03,1,450,1.50030112266541,chair,bird,90,0450_ps_s03_90_bird_10_n01796340_7532.png
subject-03,1,451,NaN,na,keyboard,60,0451_ps_s03_60_keyboard_10_n03085013_24416.png
subject-03,1,452,1.500324010849,bird,boat,150,0452_ps_s03_150_boat_10_n02951358_14366.png
subject-03,1,453,1.01553082466125,bottle,bottle,30,0453_ps_s03_30_bottle_10_n02823428_9999.png
subject-03,1,454,1.50026392936707,dog,airplane,120,0454_ps_s03_120_airplane_10_n02690373_6313.png
subject-03,1,455,1.50016808509827,bird,boat,180,0455_ps_s03_180_boat_10_n03662601_8667.png
subject-03,1,456,1.24446702003479,cat,bird,150,0456_ps_s03_150_bird_10_n01530575_10217.png
subject-03,1,457,1.27317404747009,bird,dog,150,0457_ps_s03_150_dog_10_n02097658_915.png
subject-03,1,458,1.50005197525024,elephant,dog,120,0458_ps_s03_120_dog_10_n02111129_6372.png
subject-03,1,459,1.38887596130371,car,car,30,0459_ps_s03_30_car_10_n04285008_903.png
subject-03,1,460,1.44734811782837,bottle,keyboard,150,0460_ps_s03_150_keyboard_10_n03085013_21097.png
subject-03,1,461,0.891523122787476,cat,dog,180,0461_ps_s03_180_dog_10_n02099267_3431.png
subject-03,1,462,1.41016411781311,bottle,clock,90,0462_ps_s03_90_clock_10_n03196217_4325.png
subject-03,1,463,1.12424898147583,boat,airplane,180,0463_ps_s03_180_airplane_10_n02690373_2026.png
subject-03,1,464,1.14480781555176,bird,oven,90,0464_ps_s03_90_oven_10_n04111531_101.png
subject-03,1,465,1.08916306495667,bottle,dog,120,0465_ps_s03_120_dog_10_n02105505_5536.png
subject-03,1,466,1.18545198440552,keyboard,truck,90,0466_ps_s03_90_truck_10_n03417042_5180.png
subject-03,1,467,1.27588987350464,chair,bird,60,0467_ps_s03_60_bird_10_n01560419_374.png
subject-03,1,468,1.50001192092896,boat,bear,120,0468_ps_s03_120_bear_10_n02132136_66.png
subject-03,1,469,1.36287808418274,bird,dog,90,0469_ps_s03_90_dog_10_n02108551_7113.png
subject-03,1,470,1.23744106292725,clock,clock,60,0470_ps_s03_60_clock_10_n04548280_5406.png
subject-03,1,471,1.33399295806885,cat,chair,0,0471_ps_s03_0_chair_10_n04099969_2574.png
subject-03,1,472,1.18648481369019,bird,bird,0,0472_ps_s03_0_bird_10_n01833805_3619.png
subject-03,1,473,0.986479997634888,keyboard,keyboard,150,0473_ps_s03_150_keyboard_10_n04505470_272.png
subject-03,1,474,1.16103911399841,bird,knife,0,0474_ps_s03_0_knife_10_n03041632_2319.png
subject-03,1,475,NaN,na,elephant,120,0475_ps_s03_120_elephant_10_n02504458_12705.png
subject-03,1,476,NaN,na,cat,90,0476_ps_s03_90_cat_10_n02123394_2648.png
subject-03,1,477,1.09007787704468,cat,cat,90,0477_ps_s03_90_cat_10_n02123045_945.png
subject-03,1,478,1.31040406227112,keyboard,keyboard,90,0478_ps_s03_90_keyboard_10_n04505470_10550.png
subject-03,1,479,1.06082582473755,boat,boat,30,0479_ps_s03_30_boat_10_n04273569_2916.png
subject-03,1,480,1.12718296051025,bottle,bottle,30,0480_ps_s03_30_bottle_10_n04560804_8363.png
subject-03,1,481,1.32526397705078,bear,bear,30,0481_ps_s03_30_bear_10_n02134418_5643.png
subject-03,1,482,1.00509190559387,oven,oven,0,0482_ps_s03_0_oven_10_n04111531_7134.png
subject-03,1,483,0.703458786010742,oven,car,150,0483_ps_s03_150_car_10_n03100240_3244.png
subject-03,1,484,0.840126991271973,bear,bear,60,0484_ps_s03_60_bear_10_n02133161_4429.png
subject-03,1,485,1.22037506103516,bird,cat,30,0485_ps_s03_30_cat_10_n02123394_4449.png
subject-03,1,486,0.668782949447632,cat,bear,150,0486_ps_s03_150_bear_10_n02132136_8077.png
subject-03,1,487,0.627296924591064,airplane,airplane,0,0487_ps_s03_0_airplane_10_n02690373_102.png
subject-03,1,488,1.24776101112366,bicycle,bottle,90,0488_ps_s03_90_bottle_10_n04557648_4898.png
subject-03,1,489,1.33544206619263,airplane,airplane,60,0489_ps_s03_60_airplane_10_n02690373_17262.png
subject-03,1,490,0.771991968154907,car,car,30,0490_ps_s03_30_car_10_n04285008_13865.png
subject-03,1,491,0.946001052856445,bicycle,bicycle,30,0491_ps_s03_30_bicycle_10_n02835271_7663.png
subject-03,1,492,1.21016502380371,boat,oven,60,0492_ps_s03_60_oven_10_n04111531_2795.png
subject-03,1,493,0.65637993812561,oven,chair,30,0493_ps_s03_30_chair_10_n02791124_2954.png
subject-03,1,494,1.32104802131653,dog,dog,0,0494_ps_s03_0_dog_10_n02109047_10687.png
subject-03,1,495,0.687229156494141,airplane,airplane,0,0495_ps_s03_0_airplane_10_n02690373_191.png
subject-03,1,496,0.739850997924805,clock,clock,60,0496_ps_s03_60_clock_10_n02708093_3641.png
subject-03,1,497,1.09043312072754,bird,dog,150,0497_ps_s03_150_dog_10_n02107574_187.png
subject-03,1,498,0.980723142623901,oven,knife,180,0498_ps_s03_180_knife_10_n03041632_51617.png
subject-03,1,499,1.05356693267822,bottle,bottle,30,0499_ps_s03_30_bottle_10_n04579145_256.png
subject-03,1,500,1.2737889289856,dog,cat,90,0500_ps_s03_90_cat_10_n02123597_11915.png
subject-03,1,501,0.917968034744263,cat,dog,30,0501_ps_s03_30_dog_10_n02110627_13749.png
subject-03,1,502,0.605825901031494,clock,clock,30,0502_ps_s03_30_clock_10_n04548280_993.png
subject-03,1,503,1.05646109580994,bird,boat,150,0503_ps_s03_150_boat_10_n02951358_22332.png
subject-03,1,504,1.00085306167603,oven,knife,60,0504_ps_s03_60_knife_10_n03041632_5302.png
subject-03,1,505,1.12156510353088,cat,bear,90,0505_ps_s03_90_bear_10_n02133161_1703.png
subject-03,1,506,0.905363082885742,cat,cat,30,0506_ps_s03_30_cat_10_n02123045_12558.png
subject-03,1,507,1.22295594215393,oven,oven,180,0507_ps_s03_180_oven_10_n04111531_6080.png
subject-03,1,508,0.937498092651367,airplane,airplane,0,0508_ps_s03_0_airplane_10_n02690373_5870.png
subject-03,1,509,1.13399600982666,cat,oven,0,0509_ps_s03_0_oven_10_n04111531_4988.png
subject-03,1,510,1.02432203292847,oven,car,150,0510_ps_s03_150_car_10_n02814533_16431.png
subject-03,1,511,1.02082896232605,elephant,elephant,0,0511_ps_s03_0_elephant_10_n02504013_1719.png
subject-03,1,512,0.849528074264526,oven,truck,180,0512_ps_s03_180_truck_10_n03417042_15482.png
subject-03,1,513,1.03189396858215,cat,bear,150,0513_ps_s03_150_bear_10_n02133161_9669.png
subject-03,1,514,1.40473484992981,bird,oven,120,0514_ps_s03_120_oven_10_n04111531_10664.png
subject-03,1,515,NaN,na,bottle,150,0515_ps_s03_150_bottle_10_n03983396_7512.png
subject-03,1,516,1.47542500495911,cat,bird,30,0516_ps_s03_30_bird_10_n01532829_2442.png
subject-03,1,517,1.48203778266907,oven,elephant,180,0517_ps_s03_180_elephant_10_n02504013_8638.png
subject-03,1,518,0.986285924911499,bottle,bottle,60,0518_ps_s03_60_bottle_10_n04560804_30126.png
subject-03,1,519,0.91515588760376,bottle,knife,90,0519_ps_s03_90_knife_10_n03041632_26053.png
subject-03,1,520,1.08154606819153,elephant,elephant,30,0520_ps_s03_30_elephant_10_n02504013_1502.png
subject-03,1,521,1.50001096725464,bottle,oven,30,0521_ps_s03_30_oven_10_n04111531_6412.png
subject-03,1,522,1.02242493629456,truck,truck,0,0522_ps_s03_0_truck_10_n03796401_3900.png
subject-03,1,523,0.964911937713623,boat,bear,180,0523_ps_s03_180_bear_10_n02132136_2279.png
subject-03,1,524,1.30689597129822,oven,boat,150,0524_ps_s03_150_boat_10_n03344393_4264.png
subject-03,1,525,0.929283142089844,cat,cat,150,0525_ps_s03_150_cat_10_n02123045_4482.png
subject-03,1,526,1.29711222648621,truck,truck,30,0526_ps_s03_30_truck_10_n04467665_8255.png
subject-03,1,527,1.05536890029907,oven,cat,120,0527_ps_s03_120_cat_10_n02124075_1575.png
subject-03,1,528,1.32173490524292,bird,bottle,180,0528_ps_s03_180_bottle_10_n03937543_4220.png
subject-03,1,529,0.788110971450806,oven,bottle,120,0529_ps_s03_120_bottle_10_n02823428_5874.png
subject-03,1,530,1.00045490264893,cat,chair,150,0530_ps_s03_150_chair_10_n03376595_2004.png
subject-03,1,531,1.03699898719788,keyboard,airplane,30,0531_ps_s03_30_airplane_10_n02690373_13617.png
subject-03,1,532,1.07194900512695,bottle,bottle,60,0532_ps_s03_60_bottle_10_n03983396_4996.png
subject-03,1,533,NaN,na,oven,90,0533_ps_s03_90_oven_10_n04111531_13542.png
subject-03,1,534,1.18852210044861,car,car,0,0534_ps_s03_0_car_10_n02814533_40178.png
subject-03,1,535,1.38698410987854,cat,bird,150,0535_ps_s03_150_bird_10_n01855672_14768.png
subject-03,1,536,1.39136815071106,bear,bear,60,0536_ps_s03_60_bear_10_n02134084_7095.png
subject-03,1,537,1.26603412628174,bottle,knife,120,0537_ps_s03_120_knife_10_n03041632_26989.png
subject-03,1,538,1.50026106834412,dog,dog,30,0538_ps_s03_30_dog_10_n02102480_12073.png
subject-03,1,539,NaN,na,chair,180,0539_ps_s03_180_chair_10_n03376595_360.png
subject-03,1,540,0.996646881103516,keyboard,keyboard,60,0540_ps_s03_60_keyboard_10_n03085013_24439.png
subject-03,1,541,1.11705708503723,bird,bicycle,120,0541_ps_s03_120_bicycle_10_n03792782_8172.png
subject-03,1,542,1.24388599395752,bird,bird,30,0542_ps_s03_30_bird_10_n02006656_11006.png
subject-03,1,543,1.2559289932251,airplane,truck,180,0543_ps_s03_180_truck_10_n04467665_53901.png
subject-03,1,544,1.1703929901123,cat,clock,60,0544_ps_s03_60_clock_10_n04548280_5405.png
subject-03,1,545,0.937083005905151,bird,car,90,0545_ps_s03_90_car_10_n04285008_12919.png
subject-03,1,546,1.46333909034729,dog,dog,90,0546_ps_s03_90_dog_10_n02101006_6155.png
subject-03,1,547,0.832030057907104,bird,bird,60,0547_ps_s03_60_bird_10_n02009229_1905.png
subject-03,1,548,1.05819082260132,oven,car,150,0548_ps_s03_150_car_10_n03100240_21833.png
subject-03,1,549,1.41648888587952,bird,chair,150,0549_ps_s03_150_chair_10_n04099969_39918.png
subject-03,1,550,NaN,na,knife,120,0550_ps_s03_120_knife_10_n03041632_289.png
subject-03,1,551,1.27280402183533,bear,bear,30,0551_ps_s03_30_bear_10_n02132136_239.png
subject-03,1,552,1.10720610618591,bird,boat,150,0552_ps_s03_150_boat_10_n03662601_12886.png
subject-03,1,553,1.13543009757996,oven,bird,180,0553_ps_s03_180_bird_10_n02006656_10849.png
subject-03,1,554,1.0022349357605,bird,bear,120,0554_ps_s03_120_bear_10_n02132136_3412.png
subject-03,1,555,0.947411060333252,airplane,airplane,60,0555_ps_s03_60_airplane_10_n02690373_2584.png
subject-03,1,556,1.02944207191467,bird,bird,120,0556_ps_s03_120_bird_10_n02018207_7398.png
subject-03,1,557,0.895808935165405,cat,bicycle,120,0557_ps_s03_120_bicycle_10_n03792782_31116.png
subject-03,1,558,1.42246890068054,bear,elephant,30,0558_ps_s03_30_elephant_10_n02504458_3731.png
subject-03,1,559,1.05070781707764,chair,chair,0,0559_ps_s03_0_chair_10_n04099969_1622.png
subject-03,1,560,NaN,na,keyboard,90,0560_ps_s03_90_keyboard_10_n03085013_18797.png
subject-03,1,561,1.47578406333923,cat,elephant,180,0561_ps_s03_180_elephant_10_n02504013_1647.png
subject-03,1,562,1.5003650188446,bird,chair,150,0562_ps_s03_150_chair_10_n02791124_3781.png
subject-03,1,563,0.940657138824463,keyboard,keyboard,0,0563_ps_s03_0_keyboard_10_n03085013_4914.png
subject-03,1,564,1.38307094573975,cat,cat,90,0564_ps_s03_90_cat_10_n02125311_16635.png
subject-03,1,565,1.50014495849609,bird,boat,30,0565_ps_s03_30_boat_10_n02951358_14966.png
subject-03,1,566,NaN,na,bird,0,0566_ps_s03_0_bird_10_n01795545_13117.png
subject-03,1,567,1.13604402542114,keyboard,keyboard,30,0567_ps_s03_30_keyboard_10_n04505470_5726.png
subject-03,1,568,1.04255104064941,bird,cat,120,0568_ps_s03_120_cat_10_n02123394_3700.png
subject-03,1,569,1.28016400337219,chair,knife,60,0569_ps_s03_60_knife_10_n03041632_33424.png
subject-03,1,570,1.13023900985718,bottle,bottle,30,0570_ps_s03_30_bottle_10_n04560804_2454.png
subject-03,1,571,NaN,na,truck,30,0571_ps_s03_30_truck_10_n04467665_55848.png
subject-03,1,572,1.10096287727356,bird,bear,120,0572_ps_s03_120_bear_10_n02134084_2134.png
subject-03,1,573,1.28316211700439,clock,clock,60,0573_ps_s03_60_clock_10_n03196217_11035.png
subject-03,1,574,0.965236902236938,boat,boat,60,0574_ps_s03_60_boat_10_n03662601_8626.png
subject-03,1,575,0.793649911880493,clock,clock,60,0575_ps_s03_60_clock_10_n03196217_5907.png
subject-03,1,576,1.25199103355408,oven,clock,120,0576_ps_s03_120_clock_10_n03196217_6094.png
subject-03,1,577,1.34862995147705,bird,boat,150,0577_ps_s03_150_boat_10_n04612504_34765.png
subject-03,1,578,1.03912591934204,clock,clock,30,0578_ps_s03_30_clock_10_n04548280_8322.png
subject-03,1,579,1.14373397827148,cat,bottle,90,0579_ps_s03_90_bottle_10_n04591713_3662.png
subject-03,1,580,1.50035405158997,dog,dog,0,0580_ps_s03_0_dog_10_n02093428_3869.png
subject-03,1,581,NaN,na,clock,120,0581_ps_s03_120_clock_10_n04548280_549.png
subject-03,1,582,NaN,na,cat,150,0582_ps_s03_150_cat_10_n02123597_6491.png
subject-03,1,583,1.50010108947754,bird,bird,30,0583_ps_s03_30_bird_10_n01601694_15462.png
subject-03,1,584,1.16741609573364,cat,truck,120,0584_ps_s03_120_truck_10_n03796401_7371.png
subject-03,1,585,1.2038631439209,elephant,elephant,60,0585_ps_s03_60_elephant_10_n02504013_2653.png
subject-03,1,586,1.39244294166565,bicycle,bicycle,0,0586_ps_s03_0_bicycle_10_n03792782_51860.png
subject-03,1,587,1.23703193664551,truck,truck,90,0587_ps_s03_90_truck_10_n03796401_27184.png
subject-03,1,588,1.17917585372925,boat,airplane,180,0588_ps_s03_180_airplane_10_n02690373_9137.png
subject-03,1,589,NaN,na,bird,90,0589_ps_s03_90_bird_10_n01601694_5359.png
subject-03,1,590,1.40282106399536,bird,bird,0,0590_ps_s03_0_bird_10_n02002724_2053.png
subject-03,1,591,1.03894400596619,cat,dog,60,0591_ps_s03_60_dog_10_n02098286_6246.png
subject-03,1,592,1.01318907737732,chair,bird,0,0592_ps_s03_0_bird_10_n01818515_8582.png
subject-03,1,593,0.859442949295044,bottle,clock,150,0593_ps_s03_150_clock_10_n04548280_17907.png
subject-03,1,594,0.795459985733032,boat,boat,30,0594_ps_s03_30_boat_10_n02951358_2333.png
subject-03,1,595,1.38425397872925,cat,chair,180,0595_ps_s03_180_chair_10_n04099969_3723.png
subject-03,1,596,1.50019407272339,oven,dog,150,0596_ps_s03_150_dog_10_n02110958_11417.png
subject-03,1,597,1.24920392036438,cat,bottle,150,0597_ps_s03_150_bottle_10_n04560804_2984.png
subject-03,1,598,0.899610996246338,keyboard,keyboard,30,0598_ps_s03_30_keyboard_10_n04505470_4033.png
subject-03,1,599,0.927918910980225,airplane,airplane,0,0599_ps_s03_0_airplane_10_n02690373_18506.png
subject-03,1,600,1.31609201431274,bottle,bottle,120,0600_ps_s03_120_bottle_10_n04560804_828.png
subject-03,1,601,0.968714952468872,keyboard,bottle,0,0601_ps_s03_0_bottle_10_n04560804_11775.png
subject-03,1,602,NaN,na,oven,60,0602_ps_s03_60_oven_10_n04111531_7625.png
subject-03,1,603,1.50000214576721,airplane,boat,60,0603_ps_s03_60_boat_10_n04612504_3904.png
subject-03,1,604,0.883471012115479,cat,knife,150,0604_ps_s03_150_knife_10_n03041632_8528.png
subject-03,1,605,0.841858863830566,oven,keyboard,180,0605_ps_s03_180_keyboard_10_n03085013_20597.png
subject-03,1,606,1.48426604270935,dog,dog,60,0606_ps_s03_60_dog_10_n02086079_19238.png
subject-03,1,607,1.50028586387634,oven,car,180,0607_ps_s03_180_car_10_n04285008_8255.png
subject-03,1,608,1.02522587776184,oven,chair,150,0608_ps_s03_150_chair_10_n03376595_2333.png
subject-03,1,609,NaN,na,elephant,180,0609_ps_s03_180_elephant_10_n02504013_308.png
subject-03,1,610,1.36371302604675,bear,bear,90,0610_ps_s03_90_bear_10_n02134418_4554.png
subject-03,1,611,1.31592011451721,boat,boat,120,0611_ps_s03_120_boat_10_n03344393_5946.png
subject-03,1,612,1.50006198883057,cat,airplane,90,0612_ps_s03_90_airplane_10_n02690373_9471.png
subject-03,1,613,NaN,na,keyboard,90,0613_ps_s03_90_keyboard_10_n04505470_4983.png
subject-03,1,614,1.01642799377441,cat,oven,180,0614_ps_s03_180_oven_10_n04111531_13644.png
subject-03,1,615,1.17396712303162,bear,oven,60,0615_ps_s03_60_oven_10_n04111531_8852.png
subject-03,1,616,1.06462788581848,bear,bear,60,0616_ps_s03_60_bear_10_n02132136_8619.png
subject-03,1,617,0.839030027389526,clock,clock,0,0617_ps_s03_0_clock_10_n04548280_1036.png
subject-03,1,618,1.0738890171051,cat,dog,30,0618_ps_s03_30_dog_10_n02109047_6292.png
subject-03,1,619,0.978202104568481,chair,truck,30,0619_ps_s03_30_truck_10_n03417042_3422.png
subject-03,1,620,1.22819113731384,cat,dog,180,0620_ps_s03_180_dog_10_n02099601_9643.png
subject-03,1,621,1.17230200767517,bird,cat,120,0621_ps_s03_120_cat_10_n02123394_7077.png
subject-03,1,622,0.954735994338989,oven,oven,60,0622_ps_s03_60_oven_10_n04111531_716.png
subject-03,1,623,1.03467416763306,cat,car,150,0623_ps_s03_150_car_10_n02814533_83874.png
subject-03,1,624,1.20151686668396,bird,truck,180,0624_ps_s03_180_truck_10_n03796401_16425.png
subject-03,1,625,0.859536170959473,cat,bicycle,150,0625_ps_s03_150_bicycle_10_n03792782_15219.png
subject-03,1,626,0.895721912384033,boat,boat,0,0626_ps_s03_0_boat_10_n03662601_19700.png
subject-03,1,627,1.49843811988831,bear,dog,180,0627_ps_s03_180_dog_10_n02110185_13358.png
subject-03,1,628,0.828361988067627,bicycle,bicycle,30,0628_ps_s03_30_bicycle_10_n03792782_6798.png
subject-03,1,629,1.30888891220093,cat,bird,90,0629_ps_s03_90_bird_10_n01514859_21190.png
subject-03,1,630,1.50043296813965,bird,cat,90,0630_ps_s03_90_cat_10_n02123394_8299.png
subject-03,1,631,1.30364513397217,bear,bear,60,0631_ps_s03_60_bear_10_n02133161_7032.png
subject-03,1,632,1.4462890625,bear,bear,90,0632_ps_s03_90_bear_10_n02134084_5827.png
subject-03,1,633,1.26241898536682,oven,keyboard,120,0633_ps_s03_120_keyboard_10_n04505470_1787.png
subject-03,1,634,1.50037407875061,dog,keyboard,30,0634_ps_s03_30_keyboard_10_n03085013_23769.png
subject-03,1,635,1.2410900592804,car,car,0,0635_ps_s03_0_car_10_n02814533_89801.png
subject-03,1,636,1.50011610984802,bird,dog,90,0636_ps_s03_90_dog_10_n02100583_7364.png
subject-03,1,637,1.13517999649048,cat,cat,180,0637_ps_s03_180_cat_10_n02123159_6115.png
subject-03,1,638,1.3077449798584,bird,car,150,0638_ps_s03_150_car_10_n04285008_10223.png
subject-03,1,639,1.22817301750183,bear,cat,60,0639_ps_s03_60_cat_10_n02124075_21297.png
subject-03,1,640,0.718836069107056,oven,keyboard,120,0640_ps_s03_120_keyboard_10_n03085013_16636.png
subject-03,1,641,0.932621002197266,oven,airplane,150,0641_ps_s03_150_airplane_10_n02690373_21922.png
subject-03,1,642,1.19084811210632,boat,boat,90,0642_ps_s03_90_boat_10_n03344393_4616.png
subject-03,1,643,0.481159210205078,oven,boat,180,0643_ps_s03_180_boat_10_n03662601_10289.png
subject-03,1,644,0.809699058532715,oven,elephant,180,0644_ps_s03_180_elephant_10_n02504458_3535.png
subject-03,1,645,1.22816205024719,airplane,truck,0,0645_ps_s03_0_truck_10_n04467665_48649.png
subject-03,1,646,1.27892398834229,bird,bear,90,0646_ps_s03_90_bear_10_n02133161_1296.png
subject-03,1,647,0.855185031890869,bicycle,bicycle,60,0647_ps_s03_60_bicycle_10_n02835271_44710.png
subject-03,1,648,0.997514009475708,oven,clock,120,0648_ps_s03_120_clock_10_n03196217_8282.png
subject-03,1,649,0.794063091278076,cat,clock,180,0649_ps_s03_180_clock_10_n02708093_3763.png
subject-03,1,650,0.990247011184692,bird,bird,150,0650_ps_s03_150_bird_10_n01829413_1892.png
subject-03,1,651,1.0948269367218,bottle,clock,180,0651_ps_s03_180_clock_10_n02708093_6619.png
subject-03,1,652,1.10116410255432,oven,airplane,150,0652_ps_s03_150_airplane_10_n02690373_6798.png
subject-03,1,653,0.913455963134766,clock,clock,30,0653_ps_s03_30_clock_10_n04548280_3299.png
subject-03,1,654,1.02597212791443,bird,bird,60,0654_ps_s03_60_bird_10_n02028035_7338.png
subject-03,1,655,0.952080011367798,oven,dog,180,0655_ps_s03_180_dog_10_n02090721_7222.png
subject-03,1,656,0.980000972747803,cat,cat,0,0656_ps_s03_0_cat_10_n02123045_10251.png
subject-03,1,657,0.878417015075684,bicycle,bicycle,60,0657_ps_s03_60_bicycle_10_n02835271_3804.png
subject-03,1,658,0.995927810668945,cat,cat,90,0658_ps_s03_90_cat_10_n02123159_5652.png
subject-03,1,659,1.07047820091248,bird,elephant,30,0659_ps_s03_30_elephant_10_n02504013_13385.png
subject-03,1,660,0.951305150985718,cat,bicycle,180,0660_ps_s03_180_bicycle_10_n03792782_5180.png
subject-03,1,661,0.909185171127319,boat,truck,120,0661_ps_s03_120_truck_10_n03796401_10519.png
subject-03,1,662,1.04528093338013,dog,dog,30,0662_ps_s03_30_dog_10_n02108000_3457.png
subject-03,1,663,1.02566504478455,cat,bicycle,90,0663_ps_s03_90_bicycle_10_n03792782_5696.png
subject-03,1,664,1.43804717063904,elephant,elephant,90,0664_ps_s03_90_elephant_10_n02504013_20780.png
subject-03,1,665,0.941987991333008,oven,boat,120,0665_ps_s03_120_boat_10_n04273569_1600.png
subject-03,1,666,1.46035313606262,bird,bicycle,150,0666_ps_s03_150_bicycle_10_n02835271_14361.png
subject-03,1,667,1.50033807754517,oven,clock,150,0667_ps_s03_150_clock_10_n03196217_5463.png
subject-03,1,668,NaN,na,boat,120,0668_ps_s03_120_boat_10_n03662601_13244.png
subject-03,1,669,1.46657395362854,truck,truck,0,0669_ps_s03_0_truck_10_n03417042_3146.png
subject-03,1,670,1.31714987754822,chair,knife,60,0670_ps_s03_60_knife_10_n03041632_8321.png
subject-03,1,671,NaN,na,boat,60,0671_ps_s03_60_boat_10_n02951358_15413.png
subject-03,1,672,1.43419694900513,truck,truck,0,0672_ps_s03_0_truck_10_n03796401_9181.png
subject-03,1,673,1.37068700790405,car,bird,30,0673_ps_s03_30_bird_10_n01855672_898.png
subject-03,1,674,0.707343101501465,cat,bicycle,180,0674_ps_s03_180_bicycle_10_n02835271_439.png
subject-03,1,675,0.935927867889404,bird,dog,150,0675_ps_s03_150_dog_10_n02099849_114.png
subject-03,1,676,0.801623821258545,cat,knife,30,0676_ps_s03_30_knife_10_n03041632_4305.png
subject-03,1,677,1.08421206474304,bird,truck,120,0677_ps_s03_120_truck_10_n04467665_33256.png
subject-03,1,678,1.12231206893921,keyboard,keyboard,30,0678_ps_s03_30_keyboard_10_n03085013_8572.png
subject-03,1,679,1.12668299674988,cat,elephant,180,0679_ps_s03_180_elephant_10_n02504013_5397.png
subject-03,1,680,NaN,na,bear,30,0680_ps_s03_30_bear_10_n02132136_11183.png
subject-03,1,681,0.691428899765015,cat,elephant,150,0681_ps_s03_150_elephant_10_n02504458_6694.png
subject-03,1,682,1.24748110771179,oven,dog,60,0682_ps_s03_60_dog_10_n02097130_7771.png
subject-03,1,683,1.06979608535767,oven,bicycle,150,0683_ps_s03_150_bicycle_10_n03792782_1979.png
subject-03,1,684,0.728492975234985,car,car,30,0684_ps_s03_30_car_10_n04285008_5212.png
subject-03,1,685,1.17022013664246,truck,truck,0,0685_ps_s03_0_truck_10_n03796401_25445.png
subject-03,1,686,0.860661029815674,bird,airplane,90,0686_ps_s03_90_airplane_10_n02690373_10374.png
subject-03,1,687,0.978991031646729,oven,bicycle,180,0687_ps_s03_180_bicycle_10_n03792782_10325.png
subject-03,1,688,0.739502906799316,clock,clock,0,0688_ps_s03_0_clock_10_n02708093_7537.png
subject-03,1,689,1.25811195373535,bird,bottle,60,0689_ps_s03_60_bottle_10_n04560804_15398.png
subject-03,1,690,1.50003504753113,cat,chair,0,0690_ps_s03_0_chair_10_n04429376_9212.png
subject-03,1,691,1.0930380821228,oven,car,90,0691_ps_s03_90_car_10_n03100240_770.png
subject-03,1,692,1.50014400482178,truck,truck,60,0692_ps_s03_60_truck_10_n03417042_5691.png
subject-03,1,693,1.36406683921814,bird,bicycle,120,0693_ps_s03_120_bicycle_10_n03792782_15808.png
subject-03,1,694,1.09993195533752,bird,bird,180,0694_ps_s03_180_bird_10_n01843065_1157.png
subject-03,1,695,1.32656908035278,clock,keyboard,0,0695_ps_s03_0_keyboard_10_n04505470_2569.png
subject-03,1,696,1.00896406173706,airplane,airplane,0,0696_ps_s03_0_airplane_10_n02690373_4465.png
subject-03,1,697,1.30523800849915,cat,cat,90,0697_ps_s03_90_cat_10_n02124075_11489.png
subject-03,1,698,1.31804203987122,dog,dog,60,0698_ps_s03_60_dog_10_n02106166_22531.png
subject-03,1,699,1.5003080368042,cat,clock,90,0699_ps_s03_90_clock_10_n02708093_2670.png
subject-03,1,700,NaN,na,elephant,0,0700_ps_s03_0_elephant_10_n02504458_7812.png
subject-03,1,701,NaN,na,bottle,0,0701_ps_s03_0_bottle_10_n03937543_4740.png
subject-03,1,702,1.34569883346558,cat,elephant,30,0702_ps_s03_30_elephant_10_n02504013_11223.png
subject-03,1,703,1.3959858417511,bird,knife,60,0703_ps_s03_60_knife_10_n03041632_424.png
subject-03,1,704,1.11849808692932,bottle,bottle,0,0704_ps_s03_0_bottle_10_n04579145_6509.png
subject-03,1,705,0.93855094909668,bird,knife,90,0705_ps_s03_90_knife_10_n03041632_10136.png
subject-03,1,706,1.02142310142517,bird,bird,60,0706_ps_s03_60_bird_10_n01601694_20287.png
subject-03,1,707,0.733920812606812,cat,knife,180,0707_ps_s03_180_knife_10_n03041632_18236.png
subject-03,1,708,1.11409306526184,cat,cat,60,0708_ps_s03_60_cat_10_n02123045_9314.png
subject-03,1,709,1.26387000083923,bird,dog,150,0709_ps_s03_150_dog_10_n02112350_9097.png
subject-03,1,710,0.808597087860107,airplane,airplane,60,0710_ps_s03_60_airplane_10_n02690373_17603.png
subject-03,1,711,0.937227010726929,bird,car,120,0711_ps_s03_120_car_10_n02814533_92110.png
subject-03,1,712,1.01007390022278,cat,boat,90,0712_ps_s03_90_boat_10_n02951358_14612.png
subject-03,1,713,1.07621693611145,bird,oven,60,0713_ps_s03_60_oven_10_n04111531_24096.png
subject-03,1,714,1.33413600921631,bear,bear,0,0714_ps_s03_0_bear_10_n02133161_22259.png
subject-03,1,715,1.23258805274963,bird,oven,90,0715_ps_s03_90_oven_10_n04111531_14055.png
subject-03,1,716,1.26704716682434,bird,bottle,180,0716_ps_s03_180_bottle_10_n04579145_173.png
subject-03,1,717,0.887347221374512,cat,boat,180,0717_ps_s03_180_boat_10_n02951358_14544.png
subject-03,1,718,1.35478806495667,chair,bicycle,0,0718_ps_s03_0_bicycle_10_n02835271_8266.png
subject-03,1,719,1.24522304534912,clock,bottle,60,0719_ps_s03_60_bottle_10_n04557648_207.png
subject-03,1,720,1.3956151008606,truck,truck,60,0720_ps_s03_60_truck_10_n04467665_79576.png
subject-03,1,721,1.1783390045166,cat,car,150,0721_ps_s03_150_car_10_n02814533_19373.png
subject-03,1,722,1.45253396034241,bird,cat,120,0722_ps_s03_120_cat_10_n02123159_4084.png
subject-03,1,723,1.50036096572876,bottle,oven,180,0723_ps_s03_180_oven_10_n04111531_9334.png
subject-03,1,724,1.15288901329041,bird,car,120,0724_ps_s03_120_car_10_n03100240_14799.png
subject-03,1,725,1.18977904319763,cat,cat,150,0725_ps_s03_150_cat_10_n02124075_3461.png
subject-03,1,726,1.26970601081848,chair,elephant,0,0726_ps_s03_0_elephant_10_n02504013_1854.png
subject-03,1,727,NaN,na,bicycle,0,0727_ps_s03_0_bicycle_10_n02835271_9314.png
subject-03,1,728,0.834873914718628,bottle,clock,120,0728_ps_s03_120_clock_10_n03196217_8614.png
subject-03,1,729,1.21071410179138,dog,clock,180,0729_ps_s03_180_clock_10_n04548280_2363.png
subject-03,1,730,1.38287615776062,bird,bird,0,0730_ps_s03_0_bird_10_n02006656_5392.png
subject-03,1,731,1.17319297790527,cat,clock,150,0731_ps_s03_150_clock_10_n02708093_6673.png
subject-03,1,732,1.3476619720459,airplane,keyboard,120,0732_ps_s03_120_keyboard_10_n03085013_21066.png
subject-03,1,733,0.968333005905151,cat,dog,180,0733_ps_s03_180_dog_10_n02102480_10156.png
subject-03,1,734,1.50032997131348,bottle,truck,90,0734_ps_s03_90_truck_10_n03796401_28452.png
subject-03,1,735,1.50032997131348,airplane,cat,0,0735_ps_s03_0_cat_10_n02123597_8246.png
subject-03,1,736,1.50002288818359,bird,dog,0,0736_ps_s03_0_dog_10_n02091635_8693.png
subject-03,1,737,1.38526606559753,cat,bicycle,90,0737_ps_s03_90_bicycle_10_n03792782_3928.png
subject-03,1,738,1.42998886108398,truck,keyboard,0,0738_ps_s03_0_keyboard_10_n04505470_4368.png
subject-03,1,739,1.00432896614075,airplane,keyboard,180,0739_ps_s03_180_keyboard_10_n03085013_6927.png
subject-03,1,740,1.50011801719666,car,boat,120,0740_ps_s03_120_boat_10_n02951358_12797.png
subject-03,1,741,0.915640115737915,cat,knife,90,0741_ps_s03_90_knife_10_n03041632_3516.png
subject-03,1,742,1.50015902519226,bird,clock,180,0742_ps_s03_180_clock_10_n03196217_4233.png
subject-03,1,743,0.732416868209839,oven,airplane,120,0743_ps_s03_120_airplane_10_n02690373_4188.png
subject-03,1,744,1.26691007614136,clock,clock,0,0744_ps_s03_0_clock_10_n03196217_6672.png
subject-03,1,745,0.827392101287842,clock,clock,30,0745_ps_s03_30_clock_10_n03196217_653.png
subject-03,1,746,1.43209290504456,oven,oven,90,0746_ps_s03_90_oven_10_n04111531_23830.png
subject-03,1,747,NaN,na,airplane,120,0747_ps_s03_120_airplane_10_n02690373_2131.png
subject-03,1,748,1.3486180305481,keyboard,airplane,180,0748_ps_s03_180_airplane_10_n02690373_7355.png
subject-03,1,749,1.0005259513855,truck,clock,60,0749_ps_s03_60_clock_10_n03196217_194.png
subject-03,1,750,0.767207860946655,bird,chair,120,0750_ps_s03_120_chair_10_n02791124_15566.png
subject-03,1,751,1.20992493629456,dog,boat,180,0751_ps_s03_180_boat_10_n02951358_1718.png
subject-03,1,752,1.10027885437012,car,boat,30,0752_ps_s03_30_boat_10_n03662601_10716.png
subject-03,1,753,0.89070200920105,cat,boat,30,0753_ps_s03_30_boat_10_n02951358_1678.png
subject-03,1,754,1.50003290176392,cat,bottle,0,0754_ps_s03_0_bottle_10_n04579145_3415.png
subject-03,1,755,1.03151988983154,bird,bird,30,0755_ps_s03_30_bird_10_n01601694_5734.png
subject-03,1,756,0.813844919204712,cat,car,150,0756_ps_s03_150_car_10_n02814533_44587.png
subject-03,1,757,1.22388386726379,bird,chair,120,0757_ps_s03_120_chair_10_n04429376_432.png
subject-03,1,758,NaN,na,chair,180,0758_ps_s03_180_chair_10_n03376595_2924.png
subject-03,1,759,1.22656512260437,cat,keyboard,120,0759_ps_s03_120_keyboard_10_n04505470_2921.png
subject-03,1,760,0.608963966369629,oven,knife,90,0760_ps_s03_90_knife_10_n03041632_4708.png
subject-03,1,761,0.991269826889038,oven,car,180,0761_ps_s03_180_car_10_n04285008_1619.png
subject-03,1,762,0.895189046859741,cat,dog,150,0762_ps_s03_150_dog_10_n02112350_76.png
subject-03,1,763,1.36708402633667,bottle,chair,90,0763_ps_s03_90_chair_10_n02791124_15675.png
subject-03,1,764,1.01136302947998,oven,chair,90,0764_ps_s03_90_chair_10_n02791124_2463.png
subject-03,1,765,1.44544291496277,knife,knife,0,0765_ps_s03_0_knife_10_n03041632_94995.png
subject-03,1,766,1.01192808151245,bird,chair,120,0766_ps_s03_120_chair_10_n03376595_2382.png
subject-03,1,767,1.31641387939453,cat,bear,120,0767_ps_s03_120_bear_10_n02134084_2936.png
subject-03,1,768,NaN,na,bear,90,0768_ps_s03_90_bear_10_n02134418_1871.png
subject-03,1,769,1.05118417739868,bird,bicycle,60,0769_ps_s03_60_bicycle_10_n03792782_14670.png
subject-03,1,770,0.901127099990845,bicycle,bicycle,0,0770_ps_s03_0_bicycle_10_n02835271_5473.png
subject-03,1,771,1.21987199783325,elephant,elephant,60,0771_ps_s03_60_elephant_10_n02504013_382.png
subject-03,1,772,1.03144288063049,oven,boat,120,0772_ps_s03_120_boat_10_n03662601_2171.png
subject-03,1,773,0.992029905319214,truck,truck,60,0773_ps_s03_60_truck_10_n04467665_48875.png
subject-03,1,774,1.04116201400757,bird,car,120,0774_ps_s03_120_car_10_n02814533_63202.png
subject-03,1,775,1.08373212814331,elephant,elephant,30,0775_ps_s03_30_elephant_10_n02504013_20042.png
subject-03,1,776,1.23382902145386,chair,elephant,0,0776_ps_s03_0_elephant_10_n02504013_6757.png
subject-03,1,777,NaN,na,truck,180,0777_ps_s03_180_truck_10_n03417042_14567.png
subject-03,1,778,1.336580991745,car,clock,150,0778_ps_s03_150_clock_10_n03196217_1187.png
subject-03,1,779,1.50009179115295,bird,bird,120,0779_ps_s03_120_bird_10_n01558993_4327.png
subject-03,1,780,NaN,na,car,150,0780_ps_s03_150_car_10_n02814533_50194.png
subject-03,1,781,1.43255400657654,keyboard,keyboard,90,0781_ps_s03_90_keyboard_10_n03085013_22597.png
subject-03,1,782,NaN,na,dog,120,0782_ps_s03_120_dog_10_n02105855_15846.png
subject-03,1,783,0.927541017532349,oven,bottle,180,0783_ps_s03_180_bottle_10_n03983396_2511.png
subject-03,1,784,1.13171887397766,clock,knife,60,0784_ps_s03_60_knife_10_n03041632_4787.png
subject-03,1,785,1.50026917457581,clock,clock,90,0785_ps_s03_90_clock_10_n04548280_3827.png
subject-03,1,786,1.34828996658325,bird,clock,90,0786_ps_s03_90_clock_10_n03196217_359.png
subject-03,1,787,NaN,na,airplane,90,0787_ps_s03_90_airplane_10_n02690373_10514.png
subject-03,1,788,1.11551094055176,knife,knife,120,0788_ps_s03_120_knife_10_n03041632_44738.png
subject-03,1,789,NaN,na,elephant,180,0789_ps_s03_180_elephant_10_n02504013_7001.png
subject-03,1,790,1.30009794235229,oven,boat,90,0790_ps_s03_90_boat_10_n03344393_816.png
subject-03,1,791,0.792412042617798,clock,clock,0,0791_ps_s03_0_clock_10_n02708093_5.png
subject-03,1,792,0.911057949066162,bottle,keyboard,120,0792_ps_s03_120_keyboard_10_n04505470_2019.png
subject-03,1,793,1.24763798713684,cat,bottle,120,0793_ps_s03_120_bottle_10_n03983396_278.png
subject-03,1,794,1.15184116363525,cat,dog,90,0794_ps_s03_90_dog_10_n02088238_3141.png
subject-03,1,795,1.07796692848206,knife,knife,0,0795_ps_s03_0_knife_10_n03041632_45264.png
subject-03,1,796,0.968438863754272,car,car,0,0796_ps_s03_0_car_10_n02814533_38517.png
subject-03,1,797,1.04906797409058,bird,bird,0,0797_ps_s03_0_bird_10_n01817953_234.png
subject-03,1,798,0.917296886444092,chair,chair,0,0798_ps_s03_0_chair_10_n02791124_13073.png
subject-03,1,799,0.807916879653931,cat,oven,90,0799_ps_s03_90_oven_10_n04111531_6629.png
subject-03,1,800,0.920429944992065,airplane,airplane,120,0800_ps_s03_120_airplane_10_n02690373_7735.png
subject-03,1,801,0.808433055877686,bicycle,bicycle,60,0801_ps_s03_60_bicycle_10_n03792782_37236.png
subject-03,1,802,0.842866182327271,car,car,30,0802_ps_s03_30_car_10_n03100240_23831.png
subject-03,1,803,1.0014328956604,truck,truck,30,0803_ps_s03_30_truck_10_n03417042_8076.png
subject-03,1,804,1.08930206298828,cat,elephant,90,0804_ps_s03_90_elephant_10_n02504458_7777.png
subject-03,1,805,0.987499952316284,bird,boat,120,0805_ps_s03_120_boat_10_n03662601_4071.png
subject-03,1,806,0.694655895233154,oven,chair,150,0806_ps_s03_150_chair_10_n02791124_7207.png
subject-03,1,807,1.08263802528381,keyboard,keyboard,0,0807_ps_s03_0_keyboard_10_n04505470_5050.png
subject-03,1,808,0.879240989685059,oven,elephant,120,0808_ps_s03_120_elephant_10_n02504458_1848.png
subject-03,1,809,1.33750200271606,bird,elephant,150,0809_ps_s03_150_elephant_10_n02504458_6449.png
subject-03,1,810,1.40963292121887,cat,cat,60,0810_ps_s03_60_cat_10_n02123394_4721.png
subject-03,1,811,1.03218698501587,oven,bicycle,0,0811_ps_s03_0_bicycle_10_n02835271_2900.png
subject-03,1,812,NaN,na,airplane,150,0812_ps_s03_150_airplane_10_n02690373_5909.png
subject-03,1,813,0.841207027435303,oven,cat,60,0813_ps_s03_60_cat_10_n02123597_12732.png
subject-03,1,814,1.04535388946533,car,car,0,0814_ps_s03_0_car_10_n02814533_54312.png
subject-03,1,815,0.889499187469482,bird,truck,120,0815_ps_s03_120_truck_10_n03417042_6803.png
subject-03,1,816,1.20803093910217,bird,car,180,0816_ps_s03_180_car_10_n03100240_4982.png
subject-03,1,817,1.1707010269165,airplane,airplane,90,0817_ps_s03_90_airplane_10_n02690373_5628.png
subject-03,1,818,0.890782117843628,oven,clock,0,0818_ps_s03_0_clock_10_n04548280_3133.png
subject-03,1,819,0.794867038726807,cat,elephant,150,0819_ps_s03_150_elephant_10_n02504458_4465.png
subject-03,1,820,1.00766491889954,bird,dog,90,0820_ps_s03_90_dog_10_n02094258_6428.png
subject-03,1,821,1.02786493301392,bottle,bottle,90,0821_ps_s03_90_bottle_10_n03937543_10101.png
subject-03,1,822,0.869840145111084,cat,chair,30,0822_ps_s03_30_chair_10_n04429376_29463.png
subject-03,1,823,1.07408213615417,truck,truck,0,0823_ps_s03_0_truck_10_n03796401_23014.png
subject-03,1,824,0.956616878509521,bird,bicycle,180,0824_ps_s03_180_bicycle_10_n03792782_20065.png
subject-03,1,825,0.745054006576538,cat,bird,120,0825_ps_s03_120_bird_10_n02013706_3645.png
subject-03,1,826,0.851528882980347,knife,knife,0,0826_ps_s03_0_knife_10_n03041632_20770.png
subject-03,1,827,0.993889093399048,bottle,bottle,0,0827_ps_s03_0_bottle_10_n02823428_5346.png
subject-03,1,828,1.01444792747498,cat,chair,60,0828_ps_s03_60_chair_10_n03376595_181.png
subject-03,1,829,1.38678503036499,bird,dog,90,0829_ps_s03_90_dog_10_n02093428_1046.png
subject-03,1,830,1.49162292480469,bottle,truck,150,0830_ps_s03_150_truck_10_n04467665_23715.png
subject-03,1,831,0.95006799697876,bottle,bottle,90,0831_ps_s03_90_bottle_10_n03937543_2537.png
subject-03,1,832,1.24625706672668,chair,chair,30,0832_ps_s03_30_chair_10_n04099969_19411.png
subject-03,1,833,1.00473403930664,bottle,chair,90,0833_ps_s03_90_chair_10_n04099969_10261.png
subject-03,1,834,1.11718487739563,car,car,90,0834_ps_s03_90_car_10_n04285008_11295.png
subject-03,1,835,1.02150893211365,keyboard,keyboard,60,0835_ps_s03_60_keyboard_10_n03085013_24408.png
subject-03,1,836,1.03432202339172,bottle,boat,150,0836_ps_s03_150_boat_10_n03344393_10295.png
subject-03,1,837,0.80250096321106,oven,elephant,150,0837_ps_s03_150_elephant_10_n02504458_3843.png
subject-03,1,838,0.899052858352661,bird,elephant,150,0838_ps_s03_150_elephant_10_n02504458_10336.png
subject-03,1,839,1.07969307899475,truck,truck,30,0839_ps_s03_30_truck_10_n03796401_1326.png
subject-03,1,840,0.800450086593628,cat,cat,120,0840_ps_s03_120_cat_10_n02125311_21290.png
subject-03,1,841,1.40472102165222,bicycle,bear,180,0841_ps_s03_180_bear_10_n02133161_15090.png
subject-03,1,842,1.50014209747314,boat,airplane,30,0842_ps_s03_30_airplane_10_n02690373_5374.png
subject-03,1,843,1.50026392936707,bird,bird,0,0843_ps_s03_0_bird_10_n01622779_4363.png
subject-03,1,844,NaN,na,oven,120,0844_ps_s03_120_oven_10_n04111531_16463.png
subject-03,1,845,0.900243997573853,car,car,0,0845_ps_s03_0_car_10_n04285008_12927.png
subject-03,1,846,0.818233013153076,oven,bear,120,0846_ps_s03_120_bear_10_n02133161_4830.png
subject-03,1,847,1.08498287200928,oven,keyboard,180,0847_ps_s03_180_keyboard_10_n03085013_21851.png
subject-03,1,848,1.15935897827148,bird,bear,0,0848_ps_s03_0_bear_10_n02134418_2488.png
subject-03,1,849,1.17981815338135,bottle,chair,150,0849_ps_s03_150_chair_10_n02791124_9831.png
subject-03,1,850,1.06816506385803,elephant,elephant,60,0850_ps_s03_60_elephant_10_n02504458_631.png
subject-03,1,851,1.50006318092346,elephant,bear,0,0851_ps_s03_0_bear_10_n02133161_1930.png
subject-03,1,852,1.20644807815552,oven,clock,180,0852_ps_s03_180_clock_10_n02708093_6592.png
subject-03,1,853,0.842902183532715,car,car,60,0853_ps_s03_60_car_10_n03100240_16907.png
subject-03,1,854,1.05513787269592,cat,airplane,150,0854_ps_s03_150_airplane_10_n02690373_4763.png
subject-03,1,855,0.938081979751587,bird,car,180,0855_ps_s03_180_car_10_n03100240_5724.png
subject-03,1,856,1.14991092681885,oven,knife,0,0856_ps_s03_0_knife_10_n03041632_43436.png
subject-03,1,857,0.691816806793213,cat,elephant,180,0857_ps_s03_180_elephant_10_n02504458_7871.png
subject-03,1,858,1.0043740272522,clock,clock,60,0858_ps_s03_60_clock_10_n04548280_8494.png
subject-03,1,859,1.18465399742126,bottle,bottle,60,0859_ps_s03_60_bottle_10_n03937543_9376.png
subject-03,1,860,NaN,na,keyboard,30,0860_ps_s03_30_keyboard_10_n03085013_25066.png
subject-03,1,861,0.88656210899353,oven,bird,120,0861_ps_s03_120_bird_10_n02051845_8045.png
subject-03,1,862,0.945209980010986,oven,keyboard,0,0862_ps_s03_0_keyboard_10_n03085013_22293.png
subject-03,1,863,0.789932012557983,cat,elephant,120,0863_ps_s03_120_elephant_10_n02504013_6984.png
subject-03,1,864,1.10040998458862,oven,car,180,0864_ps_s03_180_car_10_n02814533_83397.png
subject-03,1,865,1.41265988349915,bird,elephant,90,0865_ps_s03_90_elephant_10_n02504458_4405.png
subject-03,1,866,1.16318488121033,chair,chair,0,0866_ps_s03_0_chair_10_n02791124_6564.png
subject-03,1,867,0.961894035339355,bird,truck,150,0867_ps_s03_150_truck_10_n03796401_1777.png
subject-03,1,868,1.01077890396118,airplane,airplane,90,0868_ps_s03_90_airplane_10_n02690373_8521.png
subject-03,1,869,1.15332913398743,knife,knife,90,0869_ps_s03_90_knife_10_n03041632_13203.png
subject-03,1,870,1.50006818771362,knife,knife,60,0870_ps_s03_60_knife_10_n03041632_55953.png
subject-03,1,871,NaN,na,car,90,0871_ps_s03_90_car_10_n04285008_11323.png
subject-03,1,872,1.50037312507629,boat,elephant,30,0872_ps_s03_30_elephant_10_n02504013_7797.png
subject-03,1,873,0.731338024139404,oven,bird,120,0873_ps_s03_120_bird_10_n01530575_6386.png
subject-03,1,874,1.33347487449646,elephant,elephant,90,0874_ps_s03_90_elephant_10_n02504013_5495.png
subject-03,1,875,1.10806608200073,bird,boat,0,0875_ps_s03_0_boat_10_n02951358_8318.png
subject-03,1,876,0.922351121902466,car,car,90,0876_ps_s03_90_car_10_n02814533_37548.png
subject-03,1,877,0.956959962844849,bird,bear,180,0877_ps_s03_180_bear_10_n02134418_1635.png
subject-03,1,878,1.2832190990448,cat,bottle,120,0878_ps_s03_120_bottle_10_n03983396_2738.png
subject-03,1,879,1.18169713020325,oven,bear,150,0879_ps_s03_150_bear_10_n02134084_2013.png
subject-03,1,880,1.4078049659729,bird,truck,150,0880_ps_s03_150_truck_10_n03417042_7977.png
subject-03,1,881,1.18236994743347,oven,car,180,0881_ps_s03_180_car_10_n02814533_11246.png
subject-03,1,882,NaN,na,dog,90,0882_ps_s03_90_dog_10_n02113799_1455.png
subject-03,1,883,NaN,na,car,90,0883_ps_s03_90_car_10_n04285008_5078.png
subject-03,1,884,NaN,na,boat,120,0884_ps_s03_120_boat_10_n04612504_1749.png
subject-03,1,885,NaN,na,chair,60,0885_ps_s03_60_chair_10_n04429376_17013.png
subject-03,1,886,1.50004601478577,bird,oven,180,0886_ps_s03_180_oven_10_n04111531_4467.png
subject-03,1,887,1.26809811592102,bear,bear,30,0887_ps_s03_30_bear_10_n02134084_20458.png
subject-03,1,888,1.46484804153442,cat,oven,150,0888_ps_s03_150_oven_10_n04111531_3270.png
subject-03,1,889,1.50011205673218,bear,bear,60,0889_ps_s03_60_bear_10_n02134418_4996.png
subject-03,1,890,0.983617067337036,car,oven,0,0890_ps_s03_0_oven_10_n04111531_9344.png
subject-03,1,891,1.37979292869568,bird,knife,120,0891_ps_s03_120_knife_10_n03041632_44019.png
subject-03,1,892,NaN,na,oven,120,0892_ps_s03_120_oven_10_n04111531_15718.png
subject-03,1,893,NaN,na,car,150,0893_ps_s03_150_car_10_n04285008_14972.png
subject-03,1,894,1.13325119018555,boat,boat,90,0894_ps_s03_90_boat_10_n03662601_8787.png
subject-03,1,895,0.983436822891235,keyboard,keyboard,0,0895_ps_s03_0_keyboard_10_n03085013_18398.png
subject-03,1,896,1.50021505355835,keyboard,clock,150,0896_ps_s03_150_clock_10_n03196217_5433.png
subject-03,1,897,1.23787117004395,keyboard,bicycle,60,0897_ps_s03_60_bicycle_10_n02835271_19309.png
subject-03,1,898,1.43440294265747,dog,bird,90,0898_ps_s03_90_bird_10_n02009229_8734.png
subject-03,1,899,1.10256385803223,oven,cat,180,0899_ps_s03_180_cat_10_n02123597_1374.png
subject-03,1,900,1.01290702819824,truck,truck,30,0900_ps_s03_30_truck_10_n04467665_67315.png
subject-03,1,901,1.24135112762451,airplane,airplane,30,0901_ps_s03_30_airplane_10_n02690373_7375.png
subject-03,1,902,1.13754105567932,bird,bird,150,0902_ps_s03_150_bird_10_n02017213_1844.png
subject-03,1,903,0.933544874191284,oven,chair,120,0903_ps_s03_120_chair_10_n03376595_6683.png
subject-03,1,904,1.39203000068665,cat,oven,150,0904_ps_s03_150_oven_10_n04111531_891.png
subject-03,1,905,1.48843622207642,bear,chair,0,0905_ps_s03_0_chair_10_n03376595_9523.png
subject-03,1,906,0.924922943115234,cat,chair,180,0906_ps_s03_180_chair_10_n03376595_188.png
subject-03,1,907,1.04246091842651,bicycle,bicycle,60,0907_ps_s03_60_bicycle_10_n03792782_7479.png
subject-03,1,908,NaN,na,knife,30,0908_ps_s03_30_knife_10_n03041632_3101.png
subject-03,1,909,1.46717190742493,cat,elephant,120,0909_ps_s03_120_elephant_10_n02504013_4136.png
subject-03,1,910,1.46355986595154,oven,truck,150,0910_ps_s03_150_truck_10_n03417042_17979.png
subject-03,1,911,NaN,na,chair,150,0911_ps_s03_150_chair_10_n04099969_4049.png
subject-03,1,912,1.50019788742065,boat,elephant,120,0912_ps_s03_120_elephant_10_n02504013_2234.png
subject-03,1,913,1.15222501754761,oven,bicycle,120,0913_ps_s03_120_bicycle_10_n03792782_1400.png
subject-03,1,914,0.980316877365112,bottle,bear,180,0914_ps_s03_180_bear_10_n02134084_6687.png
subject-03,1,915,1.17656087875366,bird,chair,150,0915_ps_s03_150_chair_10_n03376595_10035.png
subject-03,1,916,1.05043601989746,oven,truck,90,0916_ps_s03_90_truck_10_n03796401_6402.png
subject-03,1,917,0.96274995803833,airplane,airplane,60,0917_ps_s03_60_airplane_10_n02690373_10309.png
subject-03,1,918,1.02954411506653,bird,cat,150,0918_ps_s03_150_cat_10_n02124075_10240.png
subject-03,1,919,1.23391699790955,oven,oven,30,0919_ps_s03_30_oven_10_n04111531_7449.png
subject-03,1,920,NaN,na,bird,120,0920_ps_s03_120_bird_10_n01818515_529.png
subject-03,1,921,1.0942211151123,bird,oven,120,0921_ps_s03_120_oven_10_n04111531_15052.png
subject-03,1,922,0.946741104125977,cat,bear,180,0922_ps_s03_180_bear_10_n02134418_8159.png
subject-03,1,923,0.813295841217041,oven,bear,180,0923_ps_s03_180_bear_10_n02134084_22051.png
subject-03,1,924,0.703735113143921,keyboard,keyboard,60,0924_ps_s03_60_keyboard_10_n04505470_4354.png
subject-03,1,925,0.807883977890015,bird,bear,0,0925_ps_s03_0_bear_10_n02133161_5681.png
subject-03,1,926,0.996349096298218,chair,chair,120,0926_ps_s03_120_chair_10_n04099969_13458.png
subject-03,1,927,0.716660976409912,oven,oven,0,0927_ps_s03_0_oven_10_n04111531_12468.png
subject-03,1,928,1.11335015296936,keyboard,bottle,150,0928_ps_s03_150_bottle_10_n03937543_3376.png
subject-03,1,929,1.15567803382874,keyboard,truck,180,0929_ps_s03_180_truck_10_n04467665_68463.png
subject-03,1,930,0.908260107040405,bird,bear,180,0930_ps_s03_180_bear_10_n02134418_9205.png
subject-03,1,931,1.11042284965515,bottle,bottle,30,0931_ps_s03_30_bottle_10_n03937543_2757.png
subject-03,1,932,1.48501300811768,oven,bicycle,90,0932_ps_s03_90_bicycle_10_n03792782_15757.png
subject-03,1,933,NaN,na,bottle,150,0933_ps_s03_150_bottle_10_n04591713_1755.png
subject-03,1,934,0.893960952758789,bottle,bicycle,150,0934_ps_s03_150_bicycle_10_n03792782_33086.png
subject-03,1,935,1.21391296386719,truck,truck,30,0935_ps_s03_30_truck_10_n03417042_22152.png
subject-03,1,936,0.996807098388672,bird,boat,150,0936_ps_s03_150_boat_10_n02951358_3171.png
subject-03,1,937,1.16925096511841,bird,truck,60,0937_ps_s03_60_truck_10_n04467665_62976.png
subject-03,1,938,0.9059739112854,cat,bear,150,0938_ps_s03_150_bear_10_n02133161_547.png
subject-03,1,939,0.840378999710083,clock,clock,0,0939_ps_s03_0_clock_10_n02708093_2394.png
subject-03,1,940,NaN,na,clock,0,0940_ps_s03_0_clock_10_n03196217_5934.png
subject-03,1,941,NaN,na,dog,30,0941_ps_s03_30_dog_10_n02097658_10654.png
subject-03,1,942,0.809758901596069,oven,knife,150,0942_ps_s03_150_knife_10_n03041632_4318.png
subject-03,1,943,0.936421155929565,bicycle,bicycle,60,0943_ps_s03_60_bicycle_10_n02835271_23936.png
subject-03,1,944,1.42440676689148,truck,truck,120,0944_ps_s03_120_truck_10_n03417042_16249.png
subject-03,1,945,NaN,na,knife,90,0945_ps_s03_90_knife_10_n03041632_26314.png
subject-03,1,946,NaN,na,cat,30,0946_ps_s03_30_cat_10_n02123597_1439.png
subject-03,1,947,0.953635931015015,chair,chair,60,0947_ps_s03_60_chair_10_n04099969_8531.png
subject-03,1,948,1.44240498542786,bird,bicycle,180,0948_ps_s03_180_bicycle_10_n02835271_12473.png
subject-03,1,949,NaN,na,airplane,0,0949_ps_s03_0_airplane_10_n02690373_18295.png
subject-03,1,950,0.817273139953613,oven,boat,60,0950_ps_s03_60_boat_10_n02951358_853.png
subject-03,1,951,0.683493852615356,keyboard,keyboard,30,0951_ps_s03_30_keyboard_10_n03085013_16871.png
subject-03,1,952,0.862694025039673,bird,cat,180,0952_ps_s03_180_cat_10_n02123159_1038.png
subject-03,1,953,0.958950042724609,bird,dog,90,0953_ps_s03_90_dog_10_n02105641_13839.png
subject-03,1,954,0.741415977478027,cat,truck,150,0954_ps_s03_150_truck_10_n03417042_7728.png
subject-03,1,955,1.06798410415649,clock,keyboard,150,0955_ps_s03_150_keyboard_10_n04505470_2654.png
subject-03,1,956,1.41613483428955,bird,oven,30,0956_ps_s03_30_oven_10_n04111531_5346.png
subject-03,1,957,NaN,na,knife,150,0957_ps_s03_150_knife_10_n03041632_84240.png
subject-03,1,958,1.11049008369446,bird,oven,150,0958_ps_s03_150_oven_10_n04111531_22084.png
subject-03,1,959,1.50037312507629,bear,truck,150,0959_ps_s03_150_truck_10_n04467665_14024.png
subject-03,1,960,1.0031750202179,bottle,oven,150,0960_ps_s03_150_oven_10_n04111531_1612.png
subject-03,1,961,0.760390996932983,oven,oven,60,0961_ps_s03_60_oven_10_n04111531_10640.png
subject-03,1,962,1.0351710319519,elephant,elephant,30,0962_ps_s03_30_elephant_10_n02504013_411.png
subject-03,1,963,1.04540300369263,keyboard,keyboard,120,0963_ps_s03_120_keyboard_10_n04505470_26.png
subject-03,1,964,1.08172082901001,knife,keyboard,120,0964_ps_s03_120_keyboard_10_n03085013_6815.png
subject-03,1,965,0.894335031509399,car,car,0,0965_ps_s03_0_car_10_n04285008_16321.png
subject-03,1,966,0.952937841415405,car,dog,0,0966_ps_s03_0_dog_10_n02089078_10512.png
subject-03,1,967,1.50044298171997,dog,dog,0,0967_ps_s03_0_dog_10_n02093256_1009.png
subject-03,1,968,1.14510202407837,dog,bottle,90,0968_ps_s03_90_bottle_10_n03937543_7757.png
subject-03,1,969,1.03219294548035,bicycle,bicycle,60,0969_ps_s03_60_bicycle_10_n03792782_24888.png
subject-03,1,970,1.29641890525818,bird,bicycle,90,0970_ps_s03_90_bicycle_10_n03792782_6731.png
subject-03,1,971,1.06270098686218,elephant,elephant,60,0971_ps_s03_60_elephant_10_n02504458_7914.png
subject-03,1,972,1.13676691055298,bird,cat,60,0972_ps_s03_60_cat_10_n02123045_11561.png
subject-03,1,973,0.978956937789917,bottle,bottle,60,0973_ps_s03_60_bottle_10_n03937543_2426.png
subject-03,1,974,1.33708500862122,boat,airplane,180,0974_ps_s03_180_airplane_10_n02690373_20326.png
subject-03,1,975,0.971367120742798,oven,cat,180,0975_ps_s03_180_cat_10_n02123394_1318.png
subject-03,1,976,1.45940899848938,bear,bear,60,0976_ps_s03_60_bear_10_n02134418_2343.png
subject-03,1,977,1.21708393096924,elephant,elephant,0,0977_ps_s03_0_elephant_10_n02504458_11130.png
subject-03,1,978,1.46729397773743,chair,chair,60,0978_ps_s03_60_chair_10_n04099969_24969.png
subject-03,1,979,1.30157494544983,bottle,bear,90,0979_ps_s03_90_bear_10_n02134084_18083.png
subject-03,1,980,1.13568902015686,bird,bird,150,0980_ps_s03_150_bird_10_n01817953_9580.png
subject-03,1,981,1.11032605171204,cat,chair,120,0981_ps_s03_120_chair_10_n04099969_5976.png
subject-03,1,982,0.930830001831055,airplane,airplane,0,0982_ps_s03_0_airplane_10_n02690373_2091.png
subject-03,1,983,1.44911599159241,truck,bear,60,0983_ps_s03_60_bear_10_n02132136_5289.png
subject-03,1,984,0.809462070465088,bottle,bottle,0,0984_ps_s03_0_bottle_10_n03983396_5351.png
subject-03,1,985,0.975672960281372,bird,oven,150,0985_ps_s03_150_oven_10_n04111531_17004.png
subject-03,1,986,1.15595602989197,chair,chair,0,0986_ps_s03_0_chair_10_n04099969_5010.png
subject-03,1,987,1.19852495193481,airplane,airplane,90,0987_ps_s03_90_airplane_10_n02690373_10051.png
subject-03,1,988,1.11915707588196,car,car,30,0988_ps_s03_30_car_10_n02814533_17871.png
subject-03,1,989,1.13137102127075,cat,dog,0,0989_ps_s03_0_dog_10_n02090721_888.png
subject-03,1,990,1.50001811981201,elephant,elephant,60,0990_ps_s03_60_elephant_10_n02504013_7395.png
subject-03,1,991,1.0553560256958,bird,clock,180,0991_ps_s03_180_clock_10_n02708093_5311.png
subject-03,1,992,1.27330803871155,knife,knife,0,0992_ps_s03_0_knife_10_n03041632_5640.png
subject-03,1,993,NaN,na,oven,120,0993_ps_s03_120_oven_10_n04111531_1599.png
subject-03,1,994,1.5001208782196,car,truck,0,0994_ps_s03_0_truck_10_n03417042_9941.png
subject-03,1,995,1.32900786399841,elephant,bicycle,90,0995_ps_s03_90_bicycle_10_n02835271_4341.png
subject-03,1,996,1.08960700035095,keyboard,keyboard,0,0996_ps_s03_0_keyboard_10_n03085013_2139.png
subject-03,1,997,1.1482629776001,boat,clock,30,0997_ps_s03_30_clock_10_n02708093_2006.png
subject-03,1,998,0.844276189804077,cat,bird,60,0998_ps_s03_60_bird_10_n01532829_2658.png
subject-03,1,999,1.27029800415039,bird,chair,180,0999_ps_s03_180_chair_10_n02791124_371.png
subject-03,1,1000,1.10728907585144,dog,knife,30,1000_ps_s03_30_knife_10_n03041632_52929.png
subject-03,1,1001,1.09572505950928,car,car,30,1001_ps_s03_30_car_10_n02814533_1392.png
subject-03,1,1002,0.900305032730103,cat,cat,150,1002_ps_s03_150_cat_10_n02123597_2031.png
subject-03,1,1003,0.882828950881958,oven,oven,0,1003_ps_s03_0_oven_10_n04111531_9963.png
subject-03,1,1004,1.07907199859619,cat,bear,30,1004_ps_s03_30_bear_10_n02134084_15157.png
subject-03,1,1005,1.49754500389099,bird,bird,30,1005_ps_s03_30_bird_10_n01795545_5828.png
subject-03,1,1006,1.10933303833008,cat,boat,90,1006_ps_s03_90_boat_10_n03344393_9307.png
subject-03,1,1007,1.15098786354065,oven,knife,180,1007_ps_s03_180_knife_10_n03041632_24228.png
subject-03,1,1008,NaN,na,clock,180,1008_ps_s03_180_clock_10_n02708093_1684.png
subject-03,1,1009,0.989518165588379,clock,clock,90,1009_ps_s03_90_clock_10_n02708093_6352.png
subject-03,1,1010,1.50036883354187,boat,knife,120,1010_ps_s03_120_knife_10_n03041632_44238.png
subject-03,1,1011,1.25992584228516,cat,cat,30,1011_ps_s03_30_cat_10_n02124075_8860.png
subject-03,1,1012,1.0964879989624,knife,knife,30,1012_ps_s03_30_knife_10_n03041632_45569.png
subject-03,1,1013,0.885174989700317,bird,clock,180,1013_ps_s03_180_clock_10_n02708093_6597.png
subject-03,1,1014,1.15150094032288,oven,airplane,180,1014_ps_s03_180_airplane_10_n02690373_6362.png
subject-03,1,1015,0.825968027114868,cat,cat,90,1015_ps_s03_90_cat_10_n02124075_5365.png
subject-03,1,1016,1.26643395423889,dog,cat,0,1016_ps_s03_0_cat_10_n02123394_6795.png
subject-03,1,1017,1.47890281677246,bird,dog,90,1017_ps_s03_90_dog_10_n02101556_1745.png
subject-03,1,1018,0.834583044052124,oven,bird,120,1018_ps_s03_120_bird_10_n02033041_2616.png
subject-03,1,1019,0.945378065109253,car,car,0,1019_ps_s03_0_car_10_n04285008_13722.png
subject-03,1,1020,1.00350713729858,airplane,boat,60,1020_ps_s03_60_boat_10_n02951358_3556.png
subject-03,1,1021,NaN,na,knife,0,1021_ps_s03_0_knife_10_n03041632_13465.png
subject-03,1,1022,0.866302013397217,airplane,airplane,60,1022_ps_s03_60_airplane_10_n02690373_6114.png
subject-03,1,1023,1.04879283905029,bird,bottle,180,1023_ps_s03_180_bottle_10_n04591713_4675.png
subject-03,1,1024,1.25255990028381,bear,bear,60,1024_ps_s03_60_bear_10_n02132136_10029.png
subject-03,1,1025,0.865237951278687,bottle,bottle,30,1025_ps_s03_30_bottle_10_n04560804_13773.png
subject-03,1,1026,0.815425157546997,bird,cat,0,1026_ps_s03_0_cat_10_n02123045_13038.png
subject-03,1,1027,1.29539108276367,cat,cat,0,1027_ps_s03_0_cat_10_n02123159_6741.png
subject-03,1,1028,0.629317045211792,oven,oven,120,1028_ps_s03_120_oven_10_n04111531_19000.png
subject-03,1,1029,1.38557982444763,cat,dog,120,1029_ps_s03_120_dog_10_n02093647_3933.png
subject-03,1,1030,0.722123861312866,oven,keyboard,60,1030_ps_s03_60_keyboard_10_n04505470_1179.png
subject-03,1,1031,NaN,na,bear,180,1031_ps_s03_180_bear_10_n02134084_9857.png
subject-03,1,1032,0.746763944625854,clock,clock,60,1032_ps_s03_60_clock_10_n04548280_9801.png
subject-03,1,1033,1.13511896133423,bird,car,120,1033_ps_s03_120_car_10_n02814533_9297.png
subject-03,1,1034,0.739423990249634,oven,keyboard,90,1034_ps_s03_90_keyboard_10_n03085013_22605.png
subject-03,1,1035,1.18182611465454,bird,dog,60,1035_ps_s03_60_dog_10_n02093859_3306.png
subject-03,1,1036,0.718107938766479,clock,clock,30,1036_ps_s03_30_clock_10_n04548280_5012.png
subject-03,1,1037,1.08480906486511,car,car,0,1037_ps_s03_0_car_10_n02814533_39485.png
subject-03,1,1038,1.50000286102295,knife,truck,60,1038_ps_s03_60_truck_10_n03796401_9156.png
subject-03,1,1039,1.42357897758484,bear,bear,0,1039_ps_s03_0_bear_10_n02133161_25789.png
subject-03,1,1040,1.5002748966217,bird,cat,180,1040_ps_s03_180_cat_10_n02123045_9395.png
subject-03,1,1041,1.48648309707642,car,car,60,1041_ps_s03_60_car_10_n02814533_51154.png
subject-03,1,1042,0.982959985733032,clock,clock,120,1042_ps_s03_120_clock_10_n04548280_5556.png
subject-03,1,1043,1.00311398506165,oven,oven,180,1043_ps_s03_180_oven_10_n04111531_6181.png
subject-03,1,1044,0.977592945098877,oven,oven,30,1044_ps_s03_30_oven_10_n04111531_2331.png
subject-03,1,1045,1.50030589103699,keyboard,keyboard,120,1045_ps_s03_120_keyboard_10_n03085013_24056.png
subject-03,1,1046,1.47065591812134,bicycle,bicycle,30,1046_ps_s03_30_bicycle_10_n03792782_4682.png
subject-03,1,1047,1.06978487968445,cat,bear,90,1047_ps_s03_90_bear_10_n02134418_11554.png
subject-03,1,1048,1.05237698554993,bird,elephant,150,1048_ps_s03_150_elephant_10_n02504013_3109.png
subject-03,1,1049,0.542412042617798,oven,keyboard,180,1049_ps_s03_180_keyboard_10_n03085013_26164.png
subject-03,1,1050,0.747192144393921,bird,chair,150,1050_ps_s03_150_chair_10_n04099969_10974.png
subject-03,1,1051,0.973091840744019,airplane,airplane,30,1051_ps_s03_30_airplane_10_n02690373_848.png
subject-03,1,1052,1.13752603530884,bird,dog,180,1052_ps_s03_180_dog_10_n02097209_2405.png
subject-03,1,1053,0.806122064590454,oven,keyboard,90,1053_ps_s03_90_keyboard_10_n03085013_20710.png
subject-03,1,1054,1.05659198760986,elephant,bear,0,1054_ps_s03_0_bear_10_n02133161_6217.png
subject-03,1,1055,1.20480585098267,car,truck,120,1055_ps_s03_120_truck_10_n03796401_5118.png
subject-03,1,1056,1.10876083374023,chair,chair,30,1056_ps_s03_30_chair_10_n03376595_524.png
subject-03,1,1057,1.23711514472961,dog,dog,0,1057_ps_s03_0_dog_10_n02099712_3359.png
subject-03,1,1058,0.941485166549683,bird,car,120,1058_ps_s03_120_car_10_n02814533_74921.png
subject-03,1,1059,1.38372206687927,car,car,60,1059_ps_s03_60_car_10_n02814533_26793.png
subject-03,1,1060,1.25805902481079,boat,car,60,1060_ps_s03_60_car_10_n04285008_826.png
subject-03,1,1061,1.14688801765442,car,car,90,1061_ps_s03_90_car_10_n04285008_2792.png
subject-03,1,1062,1.27544093132019,dog,elephant,0,1062_ps_s03_0_elephant_10_n02504458_1496.png
subject-03,1,1063,1.38544416427612,oven,knife,150,1063_ps_s03_150_knife_10_n03041632_13424.png
subject-03,1,1064,0.918640851974487,bicycle,bicycle,30,1064_ps_s03_30_bicycle_10_n02835271_12006.png
subject-03,1,1065,1.36890196800232,oven,keyboard,150,1065_ps_s03_150_keyboard_10_n04505470_5065.png
subject-03,1,1066,1.23523688316345,oven,boat,120,1066_ps_s03_120_boat_10_n03662601_2103.png
subject-03,1,1067,1.50032591819763,cat,bird,180,1067_ps_s03_180_bird_10_n01819313_5642.png
subject-03,1,1068,NaN,na,bicycle,180,1068_ps_s03_180_bicycle_10_n03792782_9635.png
subject-03,1,1069,1.44848203659058,car,keyboard,0,1069_ps_s03_0_keyboard_10_n04505470_5036.png
subject-03,1,1070,1.37702798843384,bottle,bottle,30,1070_ps_s03_30_bottle_10_n02823428_819.png
subject-03,1,1071,0.919109106063843,chair,chair,30,1071_ps_s03_30_chair_10_n03376595_652.png
subject-03,1,1072,1.36143898963928,dog,oven,30,1072_ps_s03_30_oven_10_n04111531_2715.png
subject-03,1,1073,1.0277271270752,car,car,0,1073_ps_s03_0_car_10_n02814533_2560.png
subject-03,1,1074,0.855923891067505,bicycle,bicycle,30,1074_ps_s03_30_bicycle_10_n03792782_44779.png
subject-03,1,1075,0.990185976028442,oven,knife,180,1075_ps_s03_180_knife_10_n03041632_38610.png
subject-03,1,1076,0.856860876083374,cat,dog,120,1076_ps_s03_120_dog_10_n02085936_9673.png
subject-03,1,1077,1.31444811820984,airplane,airplane,90,1077_ps_s03_90_airplane_10_n02690373_3698.png
subject-03,1,1078,1.08871698379517,boat,boat,0,1078_ps_s03_0_boat_10_n03662601_21711.png
subject-03,1,1079,1.3071141242981,car,truck,0,1079_ps_s03_0_truck_10_n03417042_1981.png
subject-03,1,1080,0.843899011611938,cat,oven,180,1080_ps_s03_180_oven_10_n04111531_13625.png
subject-03,1,1081,1.44813799858093,oven,keyboard,150,1081_ps_s03_150_keyboard_10_n04505470_1581.png
subject-03,1,1082,1.07683181762695,boat,boat,90,1082_ps_s03_90_boat_10_n04273569_14020.png
subject-03,1,1083,0.935051918029785,chair,chair,60,1083_ps_s03_60_chair_10_n04099969_24224.png
subject-03,1,1084,1.31591606140137,bicycle,bicycle,30,1084_ps_s03_30_bicycle_10_n02835271_20637.png
subject-03,1,1085,0.936048984527588,keyboard,keyboard,60,1085_ps_s03_60_keyboard_10_n03085013_2362.png
subject-03,1,1086,1.01858377456665,car,car,120,1086_ps_s03_120_car_10_n04285008_7332.png
subject-03,1,1087,0.836018800735474,cat,chair,180,1087_ps_s03_180_chair_10_n03376595_16747.png
subject-03,1,1088,1.29419994354248,elephant,elephant,60,1088_ps_s03_60_elephant_10_n02504013_498.png
subject-03,1,1089,NaN,na,bear,90,1089_ps_s03_90_bear_10_n02132136_9430.png
subject-03,1,1090,1.11124396324158,boat,bicycle,120,1090_ps_s03_120_bicycle_10_n02835271_19955.png
subject-03,1,1091,1.34531712532043,elephant,bird,90,1091_ps_s03_90_bird_10_n01819313_443.png
subject-03,1,1092,1.04136085510254,bird,bicycle,180,1092_ps_s03_180_bicycle_10_n02835271_4246.png
subject-03,1,1093,0.99189305305481,oven,cat,150,1093_ps_s03_150_cat_10_n02123597_6854.png
subject-03,1,1094,1.25023484230042,bird,cat,30,1094_ps_s03_30_cat_10_n02123597_78.png
subject-03,1,1095,0.908926010131836,cat,oven,120,1095_ps_s03_120_oven_10_n04111531_2650.png
subject-03,1,1096,0.821742057800293,clock,clock,30,1096_ps_s03_30_clock_10_n04548280_5118.png
subject-03,1,1097,0.809811115264893,cat,oven,90,1097_ps_s03_90_oven_10_n04111531_3345.png
subject-03,1,1098,NaN,na,bird,180,1098_ps_s03_180_bird_10_n01592084_3282.png
