subj,session,trial,rt,object_response,category,condition,imagename
densenet121-train-60-epochs,1,1,NaN,bird,airplane,0,0001_s5n_dnn_0_airplane_00_airplane1-bicycle2.png
densenet121-train-60-epochs,1,2,NaN,chair,airplane,0,0002_s5n_dnn_0_airplane_00_airplane1-chair2.png
densenet121-train-60-epochs,1,3,NaN,clock,airplane,0,0003_s5n_dnn_0_airplane_00_airplane1-clock1.png
densenet121-train-60-epochs,1,4,NaN,chair,airplane,0,0004_s5n_dnn_0_airplane_00_airplane1-elephant1.png
densenet121-train-60-epochs,1,5,NaN,airplane,airplane,0,0005_s5n_dnn_0_airplane_00_airplane10-airplane1.png
densenet121-train-60-epochs,1,6,NaN,chair,airplane,0,0006_s5n_dnn_0_airplane_00_airplane10-bear3.png
densenet121-train-60-epochs,1,7,NaN,airplane,airplane,0,0007_s5n_dnn_0_airplane_00_airplane10-boat3.png
densenet121-train-60-epochs,1,8,NaN,boat,airplane,0,0008_s5n_dnn_0_airplane_00_airplane10-car3.png
densenet121-train-60-epochs,1,9,NaN,chair,airplane,0,0009_s5n_dnn_0_airplane_00_airplane10-cat2.png
densenet121-train-60-epochs,1,10,NaN,dog,airplane,0,0010_s5n_dnn_0_airplane_00_airplane10-dog3.png
densenet121-train-60-epochs,1,11,NaN,chair,airplane,0,0011_s5n_dnn_0_airplane_00_airplane10-elephant1.png
densenet121-train-60-epochs,1,12,NaN,clock,airplane,0,0012_s5n_dnn_0_airplane_00_airplane10-knife3.png
densenet121-train-60-epochs,1,13,NaN,car,airplane,0,0013_s5n_dnn_0_airplane_00_airplane10-oven2.png
densenet121-train-60-epochs,1,14,NaN,truck,airplane,0,0014_s5n_dnn_0_airplane_00_airplane10-truck1.png
densenet121-train-60-epochs,1,15,NaN,elephant,airplane,0,0015_s5n_dnn_0_airplane_00_airplane2-bear1.png
densenet121-train-60-epochs,1,16,NaN,bottle,airplane,0,0016_s5n_dnn_0_airplane_00_airplane2-bicycle1.png
densenet121-train-60-epochs,1,17,NaN,dog,airplane,0,0017_s5n_dnn_0_airplane_00_airplane2-bird3.png
densenet121-train-60-epochs,1,18,NaN,truck,airplane,0,0018_s5n_dnn_0_airplane_00_airplane2-bottle1.png
densenet121-train-60-epochs,1,19,NaN,bird,airplane,0,0019_s5n_dnn_0_airplane_00_airplane2-cat1.png
densenet121-train-60-epochs,1,20,NaN,dog,airplane,0,0020_s5n_dnn_0_airplane_00_airplane2-dog1.png
densenet121-train-60-epochs,1,21,NaN,airplane,airplane,0,0021_s5n_dnn_0_airplane_00_airplane3-airplane2.png
densenet121-train-60-epochs,1,22,NaN,bottle,airplane,0,0022_s5n_dnn_0_airplane_00_airplane3-car1.png
densenet121-train-60-epochs,1,23,NaN,dog,airplane,0,0023_s5n_dnn_0_airplane_00_airplane3-cat1.png
densenet121-train-60-epochs,1,24,NaN,boat,airplane,0,0024_s5n_dnn_0_airplane_00_airplane3-chair3.png
densenet121-train-60-epochs,1,25,NaN,bird,airplane,0,0025_s5n_dnn_0_airplane_00_airplane3-clock1.png
densenet121-train-60-epochs,1,26,NaN,chair,airplane,0,0026_s5n_dnn_0_airplane_00_airplane3-dog1.png
densenet121-train-60-epochs,1,27,NaN,chair,airplane,0,0027_s5n_dnn_0_airplane_00_airplane3-elephant1.png
densenet121-train-60-epochs,1,28,NaN,truck,airplane,0,0028_s5n_dnn_0_airplane_00_airplane3-keyboard2.png
densenet121-train-60-epochs,1,29,NaN,keyboard,airplane,0,0029_s5n_dnn_0_airplane_00_airplane3-oven1.png
densenet121-train-60-epochs,1,30,NaN,bird,airplane,0,0030_s5n_dnn_0_airplane_00_airplane4-airplane1.png
densenet121-train-60-epochs,1,31,NaN,bird,airplane,0,0031_s5n_dnn_0_airplane_00_airplane4-bear3.png
densenet121-train-60-epochs,1,32,NaN,bird,airplane,0,0032_s5n_dnn_0_airplane_00_airplane4-bicycle2.png
densenet121-train-60-epochs,1,33,NaN,airplane,airplane,0,0033_s5n_dnn_0_airplane_00_airplane4-bird3.png
densenet121-train-60-epochs,1,34,NaN,boat,airplane,0,0034_s5n_dnn_0_airplane_00_airplane4-boat3.png
densenet121-train-60-epochs,1,35,NaN,keyboard,airplane,0,0035_s5n_dnn_0_airplane_00_airplane4-bottle1.png
densenet121-train-60-epochs,1,36,NaN,bird,airplane,0,0036_s5n_dnn_0_airplane_00_airplane4-car1.png
densenet121-train-60-epochs,1,37,NaN,chair,airplane,0,0037_s5n_dnn_0_airplane_00_airplane4-cat3.png
densenet121-train-60-epochs,1,38,NaN,chair,airplane,0,0038_s5n_dnn_0_airplane_00_airplane4-dog2.png
densenet121-train-60-epochs,1,39,NaN,chair,airplane,0,0039_s5n_dnn_0_airplane_00_airplane4-elephant1.png
densenet121-train-60-epochs,1,40,NaN,chair,airplane,0,0040_s5n_dnn_0_airplane_00_airplane4-keyboard3.png
densenet121-train-60-epochs,1,41,NaN,truck,airplane,0,0041_s5n_dnn_0_airplane_00_airplane4-knife1.png
densenet121-train-60-epochs,1,42,NaN,truck,airplane,0,0042_s5n_dnn_0_airplane_00_airplane4-truck2.png
densenet121-train-60-epochs,1,43,NaN,bird,airplane,0,0043_s5n_dnn_0_airplane_00_airplane5-bear2.png
densenet121-train-60-epochs,1,44,NaN,bird,airplane,0,0044_s5n_dnn_0_airplane_00_airplane5-bicycle1.png
densenet121-train-60-epochs,1,45,NaN,bird,airplane,0,0045_s5n_dnn_0_airplane_00_airplane5-bird2.png
densenet121-train-60-epochs,1,46,NaN,boat,airplane,0,0046_s5n_dnn_0_airplane_00_airplane5-boat3.png
densenet121-train-60-epochs,1,47,NaN,bottle,airplane,0,0047_s5n_dnn_0_airplane_00_airplane5-bottle3.png
densenet121-train-60-epochs,1,48,NaN,chair,airplane,0,0048_s5n_dnn_0_airplane_00_airplane5-chair3.png
densenet121-train-60-epochs,1,49,NaN,dog,airplane,0,0049_s5n_dnn_0_airplane_00_airplane5-dog3.png
densenet121-train-60-epochs,1,50,NaN,keyboard,airplane,0,0050_s5n_dnn_0_airplane_00_airplane5-knife1.png
densenet121-train-60-epochs,1,51,NaN,bottle,airplane,0,0051_s5n_dnn_0_airplane_00_airplane5-oven3.png
densenet121-train-60-epochs,1,52,NaN,bird,airplane,0,0052_s5n_dnn_0_airplane_00_airplane6-bear3.png
densenet121-train-60-epochs,1,53,NaN,bottle,airplane,0,0053_s5n_dnn_0_airplane_00_airplane6-bottle2.png
densenet121-train-60-epochs,1,54,NaN,airplane,airplane,0,0054_s5n_dnn_0_airplane_00_airplane6-chair3.png
densenet121-train-60-epochs,1,55,NaN,airplane,airplane,0,0055_s5n_dnn_0_airplane_00_airplane6-keyboard3.png
densenet121-train-60-epochs,1,56,NaN,chair,airplane,0,0056_s5n_dnn_0_airplane_00_airplane6-knife1.png
densenet121-train-60-epochs,1,57,NaN,airplane,airplane,0,0057_s5n_dnn_0_airplane_00_airplane7-airplane3.png
densenet121-train-60-epochs,1,58,NaN,bird,airplane,0,0058_s5n_dnn_0_airplane_00_airplane7-bird3.png
densenet121-train-60-epochs,1,59,NaN,boat,airplane,0,0059_s5n_dnn_0_airplane_00_airplane7-boat2.png
densenet121-train-60-epochs,1,60,NaN,bottle,airplane,0,0060_s5n_dnn_0_airplane_00_airplane7-bottle3.png
densenet121-train-60-epochs,1,61,NaN,airplane,airplane,0,0061_s5n_dnn_0_airplane_00_airplane7-car1.png
densenet121-train-60-epochs,1,62,NaN,chair,airplane,0,0062_s5n_dnn_0_airplane_00_airplane7-cat3.png
densenet121-train-60-epochs,1,63,NaN,knife,airplane,0,0063_s5n_dnn_0_airplane_00_airplane7-clock3.png
densenet121-train-60-epochs,1,64,NaN,truck,airplane,0,0064_s5n_dnn_0_airplane_00_airplane7-keyboard1.png
densenet121-train-60-epochs,1,65,NaN,truck,airplane,0,0065_s5n_dnn_0_airplane_00_airplane7-truck1.png
densenet121-train-60-epochs,1,66,NaN,bird,airplane,0,0066_s5n_dnn_0_airplane_00_airplane8-bicycle3.png
densenet121-train-60-epochs,1,67,NaN,bottle,airplane,0,0067_s5n_dnn_0_airplane_00_airplane8-bird1.png
densenet121-train-60-epochs,1,68,NaN,knife,airplane,0,0068_s5n_dnn_0_airplane_00_airplane8-chair1.png
densenet121-train-60-epochs,1,69,NaN,truck,airplane,0,0069_s5n_dnn_0_airplane_00_airplane8-clock2.png
densenet121-train-60-epochs,1,70,NaN,knife,airplane,0,0070_s5n_dnn_0_airplane_00_airplane8-elephant3.png
densenet121-train-60-epochs,1,71,NaN,oven,airplane,0,0071_s5n_dnn_0_airplane_00_airplane8-oven2.png
densenet121-train-60-epochs,1,72,NaN,boat,airplane,0,0072_s5n_dnn_0_airplane_00_airplane8-truck3.png
densenet121-train-60-epochs,1,73,NaN,airplane,airplane,0,0073_s5n_dnn_0_airplane_00_airplane9-airplane2.png
densenet121-train-60-epochs,1,74,NaN,airplane,airplane,0,0074_s5n_dnn_0_airplane_00_airplane9-boat1.png
densenet121-train-60-epochs,1,75,NaN,truck,airplane,0,0075_s5n_dnn_0_airplane_00_airplane9-car2.png
densenet121-train-60-epochs,1,76,NaN,oven,airplane,0,0076_s5n_dnn_0_airplane_00_airplane9-clock1.png
densenet121-train-60-epochs,1,77,NaN,clock,airplane,0,0077_s5n_dnn_0_airplane_00_airplane9-keyboard2.png
densenet121-train-60-epochs,1,78,NaN,clock,airplane,0,0078_s5n_dnn_0_airplane_00_airplane9-knife3.png
densenet121-train-60-epochs,1,79,NaN,clock,airplane,0,0079_s5n_dnn_0_airplane_00_airplane9-oven2.png
densenet121-train-60-epochs,1,80,NaN,bottle,airplane,0,0080_s5n_dnn_0_airplane_00_airplane9-truck1.png
densenet121-train-60-epochs,1,81,NaN,bear,bear,0,0081_s5n_dnn_0_bear_00_bear1-airplane3.png
densenet121-train-60-epochs,1,82,NaN,elephant,bear,0,0082_s5n_dnn_0_bear_00_bear1-bear3.png
densenet121-train-60-epochs,1,83,NaN,dog,bear,0,0083_s5n_dnn_0_bear_00_bear1-bicycle3.png
densenet121-train-60-epochs,1,84,NaN,bear,bear,0,0084_s5n_dnn_0_bear_00_bear1-bird2.png
densenet121-train-60-epochs,1,85,NaN,dog,bear,0,0085_s5n_dnn_0_bear_00_bear1-chair2.png
densenet121-train-60-epochs,1,86,NaN,bear,bear,0,0086_s5n_dnn_0_bear_00_bear1-clock2.png
densenet121-train-60-epochs,1,87,NaN,bear,bear,0,0087_s5n_dnn_0_bear_00_bear1-elephant1.png
densenet121-train-60-epochs,1,88,NaN,bear,bear,0,0088_s5n_dnn_0_bear_00_bear10-bear2.png
densenet121-train-60-epochs,1,89,NaN,bird,bear,0,0089_s5n_dnn_0_bear_00_bear10-bottle1.png
densenet121-train-60-epochs,1,90,NaN,bottle,bear,0,0090_s5n_dnn_0_bear_00_bear10-car2.png
densenet121-train-60-epochs,1,91,NaN,cat,bear,0,0091_s5n_dnn_0_bear_00_bear10-cat2.png
densenet121-train-60-epochs,1,92,NaN,chair,bear,0,0092_s5n_dnn_0_bear_00_bear10-chair2.png
densenet121-train-60-epochs,1,93,NaN,oven,bear,0,0093_s5n_dnn_0_bear_00_bear10-clock1.png
densenet121-train-60-epochs,1,94,NaN,bird,bear,0,0094_s5n_dnn_0_bear_00_bear10-elephant1.png
densenet121-train-60-epochs,1,95,NaN,clock,bear,0,0095_s5n_dnn_0_bear_00_bear10-keyboard3.png
densenet121-train-60-epochs,1,96,NaN,bear,bear,0,0096_s5n_dnn_0_bear_00_bear10-knife2.png
densenet121-train-60-epochs,1,97,NaN,bird,bear,0,0097_s5n_dnn_0_bear_00_bear10-oven1.png
densenet121-train-60-epochs,1,98,NaN,truck,bear,0,0098_s5n_dnn_0_bear_00_bear10-truck1.png
densenet121-train-60-epochs,1,99,NaN,dog,bear,0,0099_s5n_dnn_0_bear_00_bear2-airplane1.png
densenet121-train-60-epochs,1,100,NaN,bear,bear,0,0100_s5n_dnn_0_bear_00_bear2-bird3.png
densenet121-train-60-epochs,1,101,NaN,cat,bear,0,0101_s5n_dnn_0_bear_00_bear2-car2.png
densenet121-train-60-epochs,1,102,NaN,bear,bear,0,0102_s5n_dnn_0_bear_00_bear2-cat2.png
densenet121-train-60-epochs,1,103,NaN,dog,bear,0,0103_s5n_dnn_0_bear_00_bear2-dog1.png
densenet121-train-60-epochs,1,104,NaN,elephant,bear,0,0104_s5n_dnn_0_bear_00_bear2-elephant1.png
densenet121-train-60-epochs,1,105,NaN,bottle,bear,0,0105_s5n_dnn_0_bear_00_bear2-keyboard2.png
densenet121-train-60-epochs,1,106,NaN,elephant,bear,0,0106_s5n_dnn_0_bear_00_bear2-knife2.png
densenet121-train-60-epochs,1,107,NaN,elephant,bear,0,0107_s5n_dnn_0_bear_00_bear2-oven1.png
densenet121-train-60-epochs,1,108,NaN,elephant,bear,0,0108_s5n_dnn_0_bear_00_bear3-airplane1.png
densenet121-train-60-epochs,1,109,NaN,cat,bear,0,0109_s5n_dnn_0_bear_00_bear3-bicycle2.png
densenet121-train-60-epochs,1,110,NaN,dog,bear,0,0110_s5n_dnn_0_bear_00_bear3-bird3.png
densenet121-train-60-epochs,1,111,NaN,cat,bear,0,0111_s5n_dnn_0_bear_00_bear3-car2.png
densenet121-train-60-epochs,1,112,NaN,dog,bear,0,0112_s5n_dnn_0_bear_00_bear3-cat1.png
densenet121-train-60-epochs,1,113,NaN,chair,bear,0,0113_s5n_dnn_0_bear_00_bear3-chair2.png
densenet121-train-60-epochs,1,114,NaN,dog,bear,0,0114_s5n_dnn_0_bear_00_bear3-dog3.png
densenet121-train-60-epochs,1,115,NaN,elephant,bear,0,0115_s5n_dnn_0_bear_00_bear3-keyboard2.png
densenet121-train-60-epochs,1,116,NaN,chair,bear,0,0116_s5n_dnn_0_bear_00_bear3-truck3.png
densenet121-train-60-epochs,1,117,NaN,cat,bear,0,0117_s5n_dnn_0_bear_00_bear4-boat2.png
densenet121-train-60-epochs,1,118,NaN,boat,bear,0,0118_s5n_dnn_0_bear_00_bear4-car3.png
densenet121-train-60-epochs,1,119,NaN,dog,bear,0,0119_s5n_dnn_0_bear_00_bear4-cat3.png
densenet121-train-60-epochs,1,120,NaN,bear,bear,0,0120_s5n_dnn_0_bear_00_bear4-clock3.png
densenet121-train-60-epochs,1,121,NaN,cat,bear,0,0121_s5n_dnn_0_bear_00_bear4-elephant2.png
densenet121-train-60-epochs,1,122,NaN,dog,bear,0,0122_s5n_dnn_0_bear_00_bear4-keyboard3.png
densenet121-train-60-epochs,1,123,NaN,dog,bear,0,0123_s5n_dnn_0_bear_00_bear4-knife1.png
densenet121-train-60-epochs,1,124,NaN,elephant,bear,0,0124_s5n_dnn_0_bear_00_bear4-oven2.png
densenet121-train-60-epochs,1,125,NaN,clock,bear,0,0125_s5n_dnn_0_bear_00_bear4-truck3.png
densenet121-train-60-epochs,1,126,NaN,bear,bear,0,0126_s5n_dnn_0_bear_00_bear5-airplane3.png
densenet121-train-60-epochs,1,127,NaN,dog,bear,0,0127_s5n_dnn_0_bear_00_bear5-bicycle3.png
densenet121-train-60-epochs,1,128,NaN,elephant,bear,0,0128_s5n_dnn_0_bear_00_bear5-bird1.png
densenet121-train-60-epochs,1,129,NaN,cat,bear,0,0129_s5n_dnn_0_bear_00_bear5-boat2.png
densenet121-train-60-epochs,1,130,NaN,dog,bear,0,0130_s5n_dnn_0_bear_00_bear5-bottle1.png
densenet121-train-60-epochs,1,131,NaN,boat,bear,0,0131_s5n_dnn_0_bear_00_bear5-chair1.png
densenet121-train-60-epochs,1,132,NaN,elephant,bear,0,0132_s5n_dnn_0_bear_00_bear5-oven3.png
densenet121-train-60-epochs,1,133,NaN,bird,bear,0,0133_s5n_dnn_0_bear_00_bear6-bear1.png
densenet121-train-60-epochs,1,134,NaN,cat,bear,0,0134_s5n_dnn_0_bear_00_bear6-bird2.png
densenet121-train-60-epochs,1,135,NaN,boat,bear,0,0135_s5n_dnn_0_bear_00_bear6-boat3.png
densenet121-train-60-epochs,1,136,NaN,cat,bear,0,0136_s5n_dnn_0_bear_00_bear6-bottle3.png
densenet121-train-60-epochs,1,137,NaN,bottle,bear,0,0137_s5n_dnn_0_bear_00_bear6-car2.png
densenet121-train-60-epochs,1,138,NaN,cat,bear,0,0138_s5n_dnn_0_bear_00_bear6-cat3.png
densenet121-train-60-epochs,1,139,NaN,boat,bear,0,0139_s5n_dnn_0_bear_00_bear6-chair1.png
densenet121-train-60-epochs,1,140,NaN,clock,bear,0,0140_s5n_dnn_0_bear_00_bear6-clock1.png
densenet121-train-60-epochs,1,141,NaN,bear,bear,0,0141_s5n_dnn_0_bear_00_bear7-bear2.png
densenet121-train-60-epochs,1,142,NaN,bear,bear,0,0142_s5n_dnn_0_bear_00_bear7-bicycle2.png
densenet121-train-60-epochs,1,143,NaN,dog,bear,0,0143_s5n_dnn_0_bear_00_bear7-clock1.png
densenet121-train-60-epochs,1,144,NaN,bear,bear,0,0144_s5n_dnn_0_bear_00_bear7-dog3.png
densenet121-train-60-epochs,1,145,NaN,dog,bear,0,0145_s5n_dnn_0_bear_00_bear7-oven3.png
densenet121-train-60-epochs,1,146,NaN,dog,bear,0,0146_s5n_dnn_0_bear_00_bear7-truck1.png
densenet121-train-60-epochs,1,147,NaN,dog,bear,0,0147_s5n_dnn_0_bear_00_bear8-airplane1.png
densenet121-train-60-epochs,1,148,NaN,bear,bear,0,0148_s5n_dnn_0_bear_00_bear8-bear1.png
densenet121-train-60-epochs,1,149,NaN,bear,bear,0,0149_s5n_dnn_0_bear_00_bear8-bicycle3.png
densenet121-train-60-epochs,1,150,NaN,cat,bear,0,0150_s5n_dnn_0_bear_00_bear8-boat2.png
densenet121-train-60-epochs,1,151,NaN,bird,bear,0,0151_s5n_dnn_0_bear_00_bear8-bottle1.png
densenet121-train-60-epochs,1,152,NaN,dog,bear,0,0152_s5n_dnn_0_bear_00_bear8-dog1.png
densenet121-train-60-epochs,1,153,NaN,bear,bear,0,0153_s5n_dnn_0_bear_00_bear8-elephant2.png
densenet121-train-60-epochs,1,154,NaN,bear,bear,0,0154_s5n_dnn_0_bear_00_bear8-knife3.png
densenet121-train-60-epochs,1,155,NaN,clock,bear,0,0155_s5n_dnn_0_bear_00_bear8-truck3.png
densenet121-train-60-epochs,1,156,NaN,dog,bear,0,0156_s5n_dnn_0_bear_00_bear9-boat2.png
densenet121-train-60-epochs,1,157,NaN,dog,bear,0,0157_s5n_dnn_0_bear_00_bear9-bottle2.png
densenet121-train-60-epochs,1,158,NaN,bear,bear,0,0158_s5n_dnn_0_bear_00_bear9-dog1.png
densenet121-train-60-epochs,1,159,NaN,elephant,bear,0,0159_s5n_dnn_0_bear_00_bear9-keyboard3.png
densenet121-train-60-epochs,1,160,NaN,bear,bear,0,0160_s5n_dnn_0_bear_00_bear9-knife2.png
densenet121-train-60-epochs,1,161,NaN,bicycle,bicycle,0,0161_s5n_dnn_0_bicycle_00_bicycle1-airplane2.png
densenet121-train-60-epochs,1,162,NaN,elephant,bicycle,0,0162_s5n_dnn_0_bicycle_00_bicycle1-bear1.png
densenet121-train-60-epochs,1,163,NaN,bicycle,bicycle,0,0163_s5n_dnn_0_bicycle_00_bicycle1-bicycle3.png
densenet121-train-60-epochs,1,164,NaN,chair,bicycle,0,0164_s5n_dnn_0_bicycle_00_bicycle1-bird1.png
densenet121-train-60-epochs,1,165,NaN,bicycle,bicycle,0,0165_s5n_dnn_0_bicycle_00_bicycle1-boat3.png
densenet121-train-60-epochs,1,166,NaN,bicycle,bicycle,0,0166_s5n_dnn_0_bicycle_00_bicycle1-bottle3.png
densenet121-train-60-epochs,1,167,NaN,clock,bicycle,0,0167_s5n_dnn_0_bicycle_00_bicycle1-chair1.png
densenet121-train-60-epochs,1,168,NaN,bicycle,bicycle,0,0168_s5n_dnn_0_bicycle_00_bicycle1-clock3.png
densenet121-train-60-epochs,1,169,NaN,dog,bicycle,0,0169_s5n_dnn_0_bicycle_00_bicycle1-dog3.png
densenet121-train-60-epochs,1,170,NaN,bicycle,bicycle,0,0170_s5n_dnn_0_bicycle_00_bicycle1-elephant2.png
densenet121-train-60-epochs,1,171,NaN,bicycle,bicycle,0,0171_s5n_dnn_0_bicycle_00_bicycle1-knife3.png
densenet121-train-60-epochs,1,172,NaN,bicycle,bicycle,0,0172_s5n_dnn_0_bicycle_00_bicycle1-oven1.png
densenet121-train-60-epochs,1,173,NaN,bicycle,bicycle,0,0173_s5n_dnn_0_bicycle_00_bicycle1-truck1.png
densenet121-train-60-epochs,1,174,NaN,bicycle,bicycle,0,0174_s5n_dnn_0_bicycle_00_bicycle10-airplane2.png
densenet121-train-60-epochs,1,175,NaN,bicycle,bicycle,0,0175_s5n_dnn_0_bicycle_00_bicycle10-boat3.png
densenet121-train-60-epochs,1,176,NaN,clock,bicycle,0,0176_s5n_dnn_0_bicycle_00_bicycle10-clock2.png
densenet121-train-60-epochs,1,177,NaN,dog,bicycle,0,0177_s5n_dnn_0_bicycle_00_bicycle10-dog3.png
densenet121-train-60-epochs,1,178,NaN,bicycle,bicycle,0,0178_s5n_dnn_0_bicycle_00_bicycle10-elephant2.png
densenet121-train-60-epochs,1,179,NaN,bicycle,bicycle,0,0179_s5n_dnn_0_bicycle_00_bicycle2-bicycle1.png
densenet121-train-60-epochs,1,180,NaN,clock,bicycle,0,0180_s5n_dnn_0_bicycle_00_bicycle2-bird3.png
densenet121-train-60-epochs,1,181,NaN,bicycle,bicycle,0,0181_s5n_dnn_0_bicycle_00_bicycle2-bottle1.png
densenet121-train-60-epochs,1,182,NaN,bicycle,bicycle,0,0182_s5n_dnn_0_bicycle_00_bicycle2-car2.png
densenet121-train-60-epochs,1,183,NaN,dog,bicycle,0,0183_s5n_dnn_0_bicycle_00_bicycle2-dog1.png
densenet121-train-60-epochs,1,184,NaN,bottle,bicycle,0,0184_s5n_dnn_0_bicycle_00_bicycle2-keyboard2.png
densenet121-train-60-epochs,1,185,NaN,clock,bicycle,0,0185_s5n_dnn_0_bicycle_00_bicycle2-knife2.png
densenet121-train-60-epochs,1,186,NaN,bird,bicycle,0,0186_s5n_dnn_0_bicycle_00_bicycle3-bird1.png
densenet121-train-60-epochs,1,187,NaN,clock,bicycle,0,0187_s5n_dnn_0_bicycle_00_bicycle3-elephant2.png
densenet121-train-60-epochs,1,188,NaN,bicycle,bicycle,0,0188_s5n_dnn_0_bicycle_00_bicycle3-keyboard1.png
densenet121-train-60-epochs,1,189,NaN,bicycle,bicycle,0,0189_s5n_dnn_0_bicycle_00_bicycle3-oven3.png
densenet121-train-60-epochs,1,190,NaN,bicycle,bicycle,0,0190_s5n_dnn_0_bicycle_00_bicycle3-truck3.png
densenet121-train-60-epochs,1,191,NaN,bicycle,bicycle,0,0191_s5n_dnn_0_bicycle_00_bicycle4-airplane1.png
densenet121-train-60-epochs,1,192,NaN,bicycle,bicycle,0,0192_s5n_dnn_0_bicycle_00_bicycle4-bicycle3.png
densenet121-train-60-epochs,1,193,NaN,bicycle,bicycle,0,0193_s5n_dnn_0_bicycle_00_bicycle4-boat1.png
densenet121-train-60-epochs,1,194,NaN,bicycle,bicycle,0,0194_s5n_dnn_0_bicycle_00_bicycle4-bottle1.png
densenet121-train-60-epochs,1,195,NaN,bicycle,bicycle,0,0195_s5n_dnn_0_bicycle_00_bicycle4-car2.png
densenet121-train-60-epochs,1,196,NaN,bird,bicycle,0,0196_s5n_dnn_0_bicycle_00_bicycle4-cat1.png
densenet121-train-60-epochs,1,197,NaN,bicycle,bicycle,0,0197_s5n_dnn_0_bicycle_00_bicycle4-chair2.png
densenet121-train-60-epochs,1,198,NaN,bicycle,bicycle,0,0198_s5n_dnn_0_bicycle_00_bicycle4-clock3.png
densenet121-train-60-epochs,1,199,NaN,bicycle,bicycle,0,0199_s5n_dnn_0_bicycle_00_bicycle4-keyboard3.png
densenet121-train-60-epochs,1,200,NaN,bicycle,bicycle,0,0200_s5n_dnn_0_bicycle_00_bicycle4-knife3.png
densenet121-train-60-epochs,1,201,NaN,bicycle,bicycle,0,0201_s5n_dnn_0_bicycle_00_bicycle4-oven3.png
densenet121-train-60-epochs,1,202,NaN,chair,bicycle,0,0202_s5n_dnn_0_bicycle_00_bicycle4-truck3.png
densenet121-train-60-epochs,1,203,NaN,bird,bicycle,0,0203_s5n_dnn_0_bicycle_00_bicycle5-bear1.png
densenet121-train-60-epochs,1,204,NaN,bicycle,bicycle,0,0204_s5n_dnn_0_bicycle_00_bicycle5-bottle3.png
densenet121-train-60-epochs,1,205,NaN,bicycle,bicycle,0,0205_s5n_dnn_0_bicycle_00_bicycle5-car3.png
densenet121-train-60-epochs,1,206,NaN,dog,bicycle,0,0206_s5n_dnn_0_bicycle_00_bicycle5-cat1.png
densenet121-train-60-epochs,1,207,NaN,clock,bicycle,0,0207_s5n_dnn_0_bicycle_00_bicycle5-chair2.png
densenet121-train-60-epochs,1,208,NaN,clock,bicycle,0,0208_s5n_dnn_0_bicycle_00_bicycle5-dog2.png
densenet121-train-60-epochs,1,209,NaN,bicycle,bicycle,0,0209_s5n_dnn_0_bicycle_00_bicycle5-elephant1.png
densenet121-train-60-epochs,1,210,NaN,clock,bicycle,0,0210_s5n_dnn_0_bicycle_00_bicycle5-keyboard3.png
densenet121-train-60-epochs,1,211,NaN,bicycle,bicycle,0,0211_s5n_dnn_0_bicycle_00_bicycle5-oven3.png
densenet121-train-60-epochs,1,212,NaN,airplane,bicycle,0,0212_s5n_dnn_0_bicycle_00_bicycle6-airplane2.png
densenet121-train-60-epochs,1,213,NaN,bird,bicycle,0,0213_s5n_dnn_0_bicycle_00_bicycle6-bicycle3.png
densenet121-train-60-epochs,1,214,NaN,bicycle,bicycle,0,0214_s5n_dnn_0_bicycle_00_bicycle6-boat2.png
densenet121-train-60-epochs,1,215,NaN,bottle,bicycle,0,0215_s5n_dnn_0_bicycle_00_bicycle6-car2.png
densenet121-train-60-epochs,1,216,NaN,dog,bicycle,0,0216_s5n_dnn_0_bicycle_00_bicycle6-cat1.png
densenet121-train-60-epochs,1,217,NaN,chair,bicycle,0,0217_s5n_dnn_0_bicycle_00_bicycle6-dog2.png
densenet121-train-60-epochs,1,218,NaN,bicycle,bicycle,0,0218_s5n_dnn_0_bicycle_00_bicycle7-bear2.png
densenet121-train-60-epochs,1,219,NaN,bicycle,bicycle,0,0219_s5n_dnn_0_bicycle_00_bicycle7-bicycle2.png
densenet121-train-60-epochs,1,220,NaN,bird,bicycle,0,0220_s5n_dnn_0_bicycle_00_bicycle7-cat1.png
densenet121-train-60-epochs,1,221,NaN,bicycle,bicycle,0,0221_s5n_dnn_0_bicycle_00_bicycle7-clock3.png
densenet121-train-60-epochs,1,222,NaN,bicycle,bicycle,0,0222_s5n_dnn_0_bicycle_00_bicycle7-elephant2.png
densenet121-train-60-epochs,1,223,NaN,bicycle,bicycle,0,0223_s5n_dnn_0_bicycle_00_bicycle7-knife2.png
densenet121-train-60-epochs,1,224,NaN,bicycle,bicycle,0,0224_s5n_dnn_0_bicycle_00_bicycle7-oven1.png
densenet121-train-60-epochs,1,225,NaN,bottle,bicycle,0,0225_s5n_dnn_0_bicycle_00_bicycle7-truck3.png
densenet121-train-60-epochs,1,226,NaN,bicycle,bicycle,0,0226_s5n_dnn_0_bicycle_00_bicycle8-bear2.png
densenet121-train-60-epochs,1,227,NaN,bicycle,bicycle,0,0227_s5n_dnn_0_bicycle_00_bicycle8-bird2.png
densenet121-train-60-epochs,1,228,NaN,bicycle,bicycle,0,0228_s5n_dnn_0_bicycle_00_bicycle8-boat1.png
densenet121-train-60-epochs,1,229,NaN,bicycle,bicycle,0,0229_s5n_dnn_0_bicycle_00_bicycle8-chair2.png
densenet121-train-60-epochs,1,230,NaN,bicycle,bicycle,0,0230_s5n_dnn_0_bicycle_00_bicycle8-clock3.png
densenet121-train-60-epochs,1,231,NaN,bicycle,bicycle,0,0231_s5n_dnn_0_bicycle_00_bicycle8-truck1.png
densenet121-train-60-epochs,1,232,NaN,bicycle,bicycle,0,0232_s5n_dnn_0_bicycle_00_bicycle9-airplane2.png
densenet121-train-60-epochs,1,233,NaN,bird,bicycle,0,0233_s5n_dnn_0_bicycle_00_bicycle9-bear1.png
densenet121-train-60-epochs,1,234,NaN,clock,bicycle,0,0234_s5n_dnn_0_bicycle_00_bicycle9-bird3.png
densenet121-train-60-epochs,1,235,NaN,bicycle,bicycle,0,0235_s5n_dnn_0_bicycle_00_bicycle9-bottle1.png
densenet121-train-60-epochs,1,236,NaN,bicycle,bicycle,0,0236_s5n_dnn_0_bicycle_00_bicycle9-car1.png
densenet121-train-60-epochs,1,237,NaN,clock,bicycle,0,0237_s5n_dnn_0_bicycle_00_bicycle9-cat3.png
densenet121-train-60-epochs,1,238,NaN,clock,bicycle,0,0238_s5n_dnn_0_bicycle_00_bicycle9-chair1.png
densenet121-train-60-epochs,1,239,NaN,clock,bicycle,0,0239_s5n_dnn_0_bicycle_00_bicycle9-keyboard3.png
densenet121-train-60-epochs,1,240,NaN,bicycle,bicycle,0,0240_s5n_dnn_0_bicycle_00_bicycle9-knife3.png
densenet121-train-60-epochs,1,241,NaN,bird,bird,0,0241_s5n_dnn_0_bird_00_bird1-airplane2.png
densenet121-train-60-epochs,1,242,NaN,bird,bird,0,0242_s5n_dnn_0_bird_00_bird1-bear1.png
densenet121-train-60-epochs,1,243,NaN,bird,bird,0,0243_s5n_dnn_0_bird_00_bird1-bicycle2.png
densenet121-train-60-epochs,1,244,NaN,bird,bird,0,0244_s5n_dnn_0_bird_00_bird1-boat1.png
densenet121-train-60-epochs,1,245,NaN,bird,bird,0,0245_s5n_dnn_0_bird_00_bird1-chair2.png
densenet121-train-60-epochs,1,246,NaN,bird,bird,0,0246_s5n_dnn_0_bird_00_bird1-clock3.png
densenet121-train-60-epochs,1,247,NaN,cat,bird,0,0247_s5n_dnn_0_bird_00_bird1-elephant2.png
densenet121-train-60-epochs,1,248,NaN,cat,bird,0,0248_s5n_dnn_0_bird_00_bird1-keyboard3.png
densenet121-train-60-epochs,1,249,NaN,bird,bird,0,0249_s5n_dnn_0_bird_00_bird1-knife3.png
densenet121-train-60-epochs,1,250,NaN,bird,bird,0,0250_s5n_dnn_0_bird_00_bird1-oven1.png
densenet121-train-60-epochs,1,251,NaN,bird,bird,0,0251_s5n_dnn_0_bird_00_bird1-truck1.png
densenet121-train-60-epochs,1,252,NaN,elephant,bird,0,0252_s5n_dnn_0_bird_00_bird10-bear2.png
densenet121-train-60-epochs,1,253,NaN,bird,bird,0,0253_s5n_dnn_0_bird_00_bird10-bicycle1.png
densenet121-train-60-epochs,1,254,NaN,elephant,bird,0,0254_s5n_dnn_0_bird_00_bird10-bird2.png
densenet121-train-60-epochs,1,255,NaN,cat,bird,0,0255_s5n_dnn_0_bird_00_bird10-cat1.png
densenet121-train-60-epochs,1,256,NaN,chair,bird,0,0256_s5n_dnn_0_bird_00_bird10-chair1.png
densenet121-train-60-epochs,1,257,NaN,bicycle,bird,0,0257_s5n_dnn_0_bird_00_bird10-clock1.png
densenet121-train-60-epochs,1,258,NaN,cat,bird,0,0258_s5n_dnn_0_bird_00_bird10-elephant2.png
densenet121-train-60-epochs,1,259,NaN,bird,bird,0,0259_s5n_dnn_0_bird_00_bird2-airplane3.png
densenet121-train-60-epochs,1,260,NaN,bird,bird,0,0260_s5n_dnn_0_bird_00_bird2-bird2.png
densenet121-train-60-epochs,1,261,NaN,bird,bird,0,0261_s5n_dnn_0_bird_00_bird2-car3.png
densenet121-train-60-epochs,1,262,NaN,bird,bird,0,0262_s5n_dnn_0_bird_00_bird2-clock3.png
densenet121-train-60-epochs,1,263,NaN,bird,bird,0,0263_s5n_dnn_0_bird_00_bird2-dog2.png
densenet121-train-60-epochs,1,264,NaN,bird,bird,0,0264_s5n_dnn_0_bird_00_bird2-knife1.png
densenet121-train-60-epochs,1,265,NaN,bird,bird,0,0265_s5n_dnn_0_bird_00_bird3-bear3.png
densenet121-train-60-epochs,1,266,NaN,cat,bird,0,0266_s5n_dnn_0_bird_00_bird3-bird2.png
densenet121-train-60-epochs,1,267,NaN,boat,bird,0,0267_s5n_dnn_0_bird_00_bird3-boat3.png
densenet121-train-60-epochs,1,268,NaN,bird,bird,0,0268_s5n_dnn_0_bird_00_bird3-bottle2.png
densenet121-train-60-epochs,1,269,NaN,bird,bird,0,0269_s5n_dnn_0_bird_00_bird3-cat1.png
densenet121-train-60-epochs,1,270,NaN,dog,bird,0,0270_s5n_dnn_0_bird_00_bird3-dog1.png
densenet121-train-60-epochs,1,271,NaN,bird,bird,0,0271_s5n_dnn_0_bird_00_bird3-knife3.png
densenet121-train-60-epochs,1,272,NaN,bird,bird,0,0272_s5n_dnn_0_bird_00_bird3-oven1.png
densenet121-train-60-epochs,1,273,NaN,bird,bird,0,0273_s5n_dnn_0_bird_00_bird3-truck3.png
densenet121-train-60-epochs,1,274,NaN,bird,bird,0,0274_s5n_dnn_0_bird_00_bird4-airplane1.png
densenet121-train-60-epochs,1,275,NaN,bird,bird,0,0275_s5n_dnn_0_bird_00_bird4-bicycle2.png
densenet121-train-60-epochs,1,276,NaN,bird,bird,0,0276_s5n_dnn_0_bird_00_bird4-cat3.png
densenet121-train-60-epochs,1,277,NaN,chair,bird,0,0277_s5n_dnn_0_bird_00_bird4-clock1.png
densenet121-train-60-epochs,1,278,NaN,dog,bird,0,0278_s5n_dnn_0_bird_00_bird4-dog3.png
densenet121-train-60-epochs,1,279,NaN,bird,bird,0,0279_s5n_dnn_0_bird_00_bird5-airplane3.png
densenet121-train-60-epochs,1,280,NaN,bird,bird,0,0280_s5n_dnn_0_bird_00_bird5-bear3.png
densenet121-train-60-epochs,1,281,NaN,bird,bird,0,0281_s5n_dnn_0_bird_00_bird5-bicycle1.png
densenet121-train-60-epochs,1,282,NaN,bird,bird,0,0282_s5n_dnn_0_bird_00_bird5-bird1.png
densenet121-train-60-epochs,1,283,NaN,bird,bird,0,0283_s5n_dnn_0_bird_00_bird5-car2.png
densenet121-train-60-epochs,1,284,NaN,bird,bird,0,0284_s5n_dnn_0_bird_00_bird5-cat2.png
densenet121-train-60-epochs,1,285,NaN,bird,bird,0,0285_s5n_dnn_0_bird_00_bird5-chair1.png
densenet121-train-60-epochs,1,286,NaN,bird,bird,0,0286_s5n_dnn_0_bird_00_bird5-dog2.png
densenet121-train-60-epochs,1,287,NaN,clock,bird,0,0287_s5n_dnn_0_bird_00_bird5-keyboard2.png
densenet121-train-60-epochs,1,288,NaN,truck,bird,0,0288_s5n_dnn_0_bird_00_bird5-oven3.png
densenet121-train-60-epochs,1,289,NaN,truck,bird,0,0289_s5n_dnn_0_bird_00_bird5-truck2.png
densenet121-train-60-epochs,1,290,NaN,airplane,bird,0,0290_s5n_dnn_0_bird_00_bird6-airplane2.png
densenet121-train-60-epochs,1,291,NaN,bird,bird,0,0291_s5n_dnn_0_bird_00_bird6-boat2.png
densenet121-train-60-epochs,1,292,NaN,bird,bird,0,0292_s5n_dnn_0_bird_00_bird6-bottle3.png
densenet121-train-60-epochs,1,293,NaN,bird,bird,0,0293_s5n_dnn_0_bird_00_bird6-car3.png
densenet121-train-60-epochs,1,294,NaN,cat,bird,0,0294_s5n_dnn_0_bird_00_bird6-elephant2.png
densenet121-train-60-epochs,1,295,NaN,airplane,bird,0,0295_s5n_dnn_0_bird_00_bird6-oven1.png
densenet121-train-60-epochs,1,296,NaN,truck,bird,0,0296_s5n_dnn_0_bird_00_bird6-truck2.png
densenet121-train-60-epochs,1,297,NaN,bird,bird,0,0297_s5n_dnn_0_bird_00_bird7-bird2.png
densenet121-train-60-epochs,1,298,NaN,bird,bird,0,0298_s5n_dnn_0_bird_00_bird7-boat1.png
densenet121-train-60-epochs,1,299,NaN,bird,bird,0,0299_s5n_dnn_0_bird_00_bird7-bottle1.png
densenet121-train-60-epochs,1,300,NaN,bird,bird,0,0300_s5n_dnn_0_bird_00_bird7-car2.png
densenet121-train-60-epochs,1,301,NaN,chair,bird,0,0301_s5n_dnn_0_bird_00_bird7-cat3.png
densenet121-train-60-epochs,1,302,NaN,dog,bird,0,0302_s5n_dnn_0_bird_00_bird7-keyboard3.png
densenet121-train-60-epochs,1,303,NaN,bird,bird,0,0303_s5n_dnn_0_bird_00_bird7-knife2.png
densenet121-train-60-epochs,1,304,NaN,bird,bird,0,0304_s5n_dnn_0_bird_00_bird7-oven3.png
densenet121-train-60-epochs,1,305,NaN,bird,bird,0,0305_s5n_dnn_0_bird_00_bird7-truck2.png
densenet121-train-60-epochs,1,306,NaN,bird,bird,0,0306_s5n_dnn_0_bird_00_bird8-boat3.png
densenet121-train-60-epochs,1,307,NaN,bird,bird,0,0307_s5n_dnn_0_bird_00_bird8-bottle1.png
densenet121-train-60-epochs,1,308,NaN,bird,bird,0,0308_s5n_dnn_0_bird_00_bird8-car2.png
densenet121-train-60-epochs,1,309,NaN,chair,bird,0,0309_s5n_dnn_0_bird_00_bird8-chair1.png
densenet121-train-60-epochs,1,310,NaN,bird,bird,0,0310_s5n_dnn_0_bird_00_bird8-clock1.png
densenet121-train-60-epochs,1,311,NaN,bird,bird,0,0311_s5n_dnn_0_bird_00_bird8-elephant1.png
densenet121-train-60-epochs,1,312,NaN,clock,bird,0,0312_s5n_dnn_0_bird_00_bird8-keyboard2.png
densenet121-train-60-epochs,1,313,NaN,bird,bird,0,0313_s5n_dnn_0_bird_00_bird8-knife2.png
densenet121-train-60-epochs,1,314,NaN,bird,bird,0,0314_s5n_dnn_0_bird_00_bird9-bear3.png
densenet121-train-60-epochs,1,315,NaN,bird,bird,0,0315_s5n_dnn_0_bird_00_bird9-bicycle3.png
densenet121-train-60-epochs,1,316,NaN,bird,bird,0,0316_s5n_dnn_0_bird_00_bird9-bottle3.png
densenet121-train-60-epochs,1,317,NaN,bird,bird,0,0317_s5n_dnn_0_bird_00_bird9-chair1.png
densenet121-train-60-epochs,1,318,NaN,bird,bird,0,0318_s5n_dnn_0_bird_00_bird9-dog2.png
densenet121-train-60-epochs,1,319,NaN,bird,bird,0,0319_s5n_dnn_0_bird_00_bird9-elephant2.png
densenet121-train-60-epochs,1,320,NaN,bird,bird,0,0320_s5n_dnn_0_bird_00_bird9-keyboard1.png
densenet121-train-60-epochs,1,321,NaN,elephant,boat,0,0321_s5n_dnn_0_boat_00_boat1-bear1.png
densenet121-train-60-epochs,1,322,NaN,clock,boat,0,0322_s5n_dnn_0_boat_00_boat1-bicycle2.png
densenet121-train-60-epochs,1,323,NaN,knife,boat,0,0323_s5n_dnn_0_boat_00_boat1-bird3.png
densenet121-train-60-epochs,1,324,NaN,oven,boat,0,0324_s5n_dnn_0_boat_00_boat1-car2.png
densenet121-train-60-epochs,1,325,NaN,airplane,boat,0,0325_s5n_dnn_0_boat_00_boat1-chair3.png
densenet121-train-60-epochs,1,326,NaN,airplane,boat,0,0326_s5n_dnn_0_boat_00_boat1-elephant3.png
densenet121-train-60-epochs,1,327,NaN,boat,boat,0,0327_s5n_dnn_0_boat_00_boat1-keyboard3.png
densenet121-train-60-epochs,1,328,NaN,clock,boat,0,0328_s5n_dnn_0_boat_00_boat1-oven1.png
densenet121-train-60-epochs,1,329,NaN,bottle,boat,0,0329_s5n_dnn_0_boat_00_boat1-truck3.png
densenet121-train-60-epochs,1,330,NaN,bottle,boat,0,0330_s5n_dnn_0_boat_00_boat10-bear3.png
densenet121-train-60-epochs,1,331,NaN,boat,boat,0,0331_s5n_dnn_0_boat_00_boat10-boat3.png
densenet121-train-60-epochs,1,332,NaN,cat,boat,0,0332_s5n_dnn_0_boat_00_boat10-cat1.png
densenet121-train-60-epochs,1,333,NaN,clock,boat,0,0333_s5n_dnn_0_boat_00_boat10-oven1.png
densenet121-train-60-epochs,1,334,NaN,boat,boat,0,0334_s5n_dnn_0_boat_00_boat10-truck1.png
densenet121-train-60-epochs,1,335,NaN,clock,boat,0,0335_s5n_dnn_0_boat_00_boat2-airplane1.png
densenet121-train-60-epochs,1,336,NaN,bird,boat,0,0336_s5n_dnn_0_boat_00_boat2-bear3.png
densenet121-train-60-epochs,1,337,NaN,bird,boat,0,0337_s5n_dnn_0_boat_00_boat2-bird1.png
densenet121-train-60-epochs,1,338,NaN,bird,boat,0,0338_s5n_dnn_0_boat_00_boat2-bottle2.png
densenet121-train-60-epochs,1,339,NaN,clock,boat,0,0339_s5n_dnn_0_boat_00_boat2-keyboard1.png
densenet121-train-60-epochs,1,340,NaN,clock,boat,0,0340_s5n_dnn_0_boat_00_boat2-oven3.png
densenet121-train-60-epochs,1,341,NaN,boat,boat,0,0341_s5n_dnn_0_boat_00_boat3-airplane2.png
densenet121-train-60-epochs,1,342,NaN,oven,boat,0,0342_s5n_dnn_0_boat_00_boat3-bicycle2.png
densenet121-train-60-epochs,1,343,NaN,boat,boat,0,0343_s5n_dnn_0_boat_00_boat3-car3.png
densenet121-train-60-epochs,1,344,NaN,bottle,boat,0,0344_s5n_dnn_0_boat_00_boat3-cat3.png
densenet121-train-60-epochs,1,345,NaN,boat,boat,0,0345_s5n_dnn_0_boat_00_boat3-chair3.png
densenet121-train-60-epochs,1,346,NaN,truck,boat,0,0346_s5n_dnn_0_boat_00_boat3-clock3.png
densenet121-train-60-epochs,1,347,NaN,dog,boat,0,0347_s5n_dnn_0_boat_00_boat3-dog3.png
densenet121-train-60-epochs,1,348,NaN,dog,boat,0,0348_s5n_dnn_0_boat_00_boat3-keyboard2.png
densenet121-train-60-epochs,1,349,NaN,bird,boat,0,0349_s5n_dnn_0_boat_00_boat4-bicycle3.png
densenet121-train-60-epochs,1,350,NaN,bird,boat,0,0350_s5n_dnn_0_boat_00_boat4-bird1.png
densenet121-train-60-epochs,1,351,NaN,boat,boat,0,0351_s5n_dnn_0_boat_00_boat4-boat3.png
densenet121-train-60-epochs,1,352,NaN,bird,boat,0,0352_s5n_dnn_0_boat_00_boat4-bottle2.png
densenet121-train-60-epochs,1,353,NaN,oven,boat,0,0353_s5n_dnn_0_boat_00_boat4-car3.png
densenet121-train-60-epochs,1,354,NaN,oven,boat,0,0354_s5n_dnn_0_boat_00_boat4-chair2.png
densenet121-train-60-epochs,1,355,NaN,dog,boat,0,0355_s5n_dnn_0_boat_00_boat4-dog2.png
densenet121-train-60-epochs,1,356,NaN,oven,boat,0,0356_s5n_dnn_0_boat_00_boat4-elephant2.png
densenet121-train-60-epochs,1,357,NaN,truck,boat,0,0357_s5n_dnn_0_boat_00_boat4-knife2.png
densenet121-train-60-epochs,1,358,NaN,boat,boat,0,0358_s5n_dnn_0_boat_00_boat5-airplane1.png
densenet121-train-60-epochs,1,359,NaN,boat,boat,0,0359_s5n_dnn_0_boat_00_boat5-bicycle3.png
densenet121-train-60-epochs,1,360,NaN,truck,boat,0,0360_s5n_dnn_0_boat_00_boat5-boat3.png
densenet121-train-60-epochs,1,361,NaN,boat,boat,0,0361_s5n_dnn_0_boat_00_boat5-car3.png
densenet121-train-60-epochs,1,362,NaN,knife,boat,0,0362_s5n_dnn_0_boat_00_boat5-clock3.png
densenet121-train-60-epochs,1,363,NaN,truck,boat,0,0363_s5n_dnn_0_boat_00_boat5-knife2.png
densenet121-train-60-epochs,1,364,NaN,boat,boat,0,0364_s5n_dnn_0_boat_00_boat6-airplane2.png
densenet121-train-60-epochs,1,365,NaN,elephant,boat,0,0365_s5n_dnn_0_boat_00_boat6-bear1.png
densenet121-train-60-epochs,1,366,NaN,bottle,boat,0,0366_s5n_dnn_0_boat_00_boat6-bicycle2.png
densenet121-train-60-epochs,1,367,NaN,bird,boat,0,0367_s5n_dnn_0_boat_00_boat6-bottle2.png
densenet121-train-60-epochs,1,368,NaN,boat,boat,0,0368_s5n_dnn_0_boat_00_boat6-car1.png
densenet121-train-60-epochs,1,369,NaN,bird,boat,0,0369_s5n_dnn_0_boat_00_boat6-cat1.png
densenet121-train-60-epochs,1,370,NaN,bird,boat,0,0370_s5n_dnn_0_boat_00_boat6-clock2.png
densenet121-train-60-epochs,1,371,NaN,bird,boat,0,0371_s5n_dnn_0_boat_00_boat6-dog1.png
densenet121-train-60-epochs,1,372,NaN,bird,boat,0,0372_s5n_dnn_0_boat_00_boat6-elephant2.png
densenet121-train-60-epochs,1,373,NaN,truck,boat,0,0373_s5n_dnn_0_boat_00_boat6-knife2.png
densenet121-train-60-epochs,1,374,NaN,boat,boat,0,0374_s5n_dnn_0_boat_00_boat6-truck3.png
densenet121-train-60-epochs,1,375,NaN,boat,boat,0,0375_s5n_dnn_0_boat_00_boat7-boat2.png
densenet121-train-60-epochs,1,376,NaN,bird,boat,0,0376_s5n_dnn_0_boat_00_boat7-bottle1.png
densenet121-train-60-epochs,1,377,NaN,chair,boat,0,0377_s5n_dnn_0_boat_00_boat7-cat3.png
densenet121-train-60-epochs,1,378,NaN,boat,boat,0,0378_s5n_dnn_0_boat_00_boat7-chair1.png
densenet121-train-60-epochs,1,379,NaN,clock,boat,0,0379_s5n_dnn_0_boat_00_boat7-clock3.png
densenet121-train-60-epochs,1,380,NaN,clock,boat,0,0380_s5n_dnn_0_boat_00_boat7-elephant3.png
densenet121-train-60-epochs,1,381,NaN,bottle,boat,0,0381_s5n_dnn_0_boat_00_boat7-keyboard3.png
densenet121-train-60-epochs,1,382,NaN,clock,boat,0,0382_s5n_dnn_0_boat_00_boat7-oven3.png
densenet121-train-60-epochs,1,383,NaN,boat,boat,0,0383_s5n_dnn_0_boat_00_boat7-truck2.png
densenet121-train-60-epochs,1,384,NaN,knife,boat,0,0384_s5n_dnn_0_boat_00_boat8-bird2.png
densenet121-train-60-epochs,1,385,NaN,bird,boat,0,0385_s5n_dnn_0_boat_00_boat8-bottle1.png
densenet121-train-60-epochs,1,386,NaN,dog,boat,0,0386_s5n_dnn_0_boat_00_boat8-dog3.png
densenet121-train-60-epochs,1,387,NaN,bird,boat,0,0387_s5n_dnn_0_boat_00_boat8-elephant1.png
densenet121-train-60-epochs,1,388,NaN,dog,boat,0,0388_s5n_dnn_0_boat_00_boat8-knife1.png
densenet121-train-60-epochs,1,389,NaN,airplane,boat,0,0389_s5n_dnn_0_boat_00_boat8-oven1.png
densenet121-train-60-epochs,1,390,NaN,boat,boat,0,0390_s5n_dnn_0_boat_00_boat8-truck2.png
densenet121-train-60-epochs,1,391,NaN,boat,boat,0,0391_s5n_dnn_0_boat_00_boat9-airplane2.png
densenet121-train-60-epochs,1,392,NaN,bird,boat,0,0392_s5n_dnn_0_boat_00_boat9-bear3.png
densenet121-train-60-epochs,1,393,NaN,bottle,boat,0,0393_s5n_dnn_0_boat_00_boat9-bird1.png
densenet121-train-60-epochs,1,394,NaN,boat,boat,0,0394_s5n_dnn_0_boat_00_boat9-boat3.png
densenet121-train-60-epochs,1,395,NaN,bird,boat,0,0395_s5n_dnn_0_boat_00_boat9-cat3.png
densenet121-train-60-epochs,1,396,NaN,boat,boat,0,0396_s5n_dnn_0_boat_00_boat9-chair2.png
densenet121-train-60-epochs,1,397,NaN,boat,boat,0,0397_s5n_dnn_0_boat_00_boat9-clock1.png
densenet121-train-60-epochs,1,398,NaN,dog,boat,0,0398_s5n_dnn_0_boat_00_boat9-dog2.png
densenet121-train-60-epochs,1,399,NaN,dog,boat,0,0399_s5n_dnn_0_boat_00_boat9-keyboard2.png
densenet121-train-60-epochs,1,400,NaN,boat,boat,0,0400_s5n_dnn_0_boat_00_boat9-knife2.png
densenet121-train-60-epochs,1,401,NaN,bird,bottle,0,0401_s5n_dnn_0_bottle_00_bottle1-bear1.png
densenet121-train-60-epochs,1,402,NaN,bird,bottle,0,0402_s5n_dnn_0_bottle_00_bottle1-bird3.png
densenet121-train-60-epochs,1,403,NaN,bottle,bottle,0,0403_s5n_dnn_0_bottle_00_bottle1-car1.png
densenet121-train-60-epochs,1,404,NaN,bottle,bottle,0,0404_s5n_dnn_0_bottle_00_bottle1-cat3.png
densenet121-train-60-epochs,1,405,NaN,chair,bottle,0,0405_s5n_dnn_0_bottle_00_bottle1-chair2.png
densenet121-train-60-epochs,1,406,NaN,bottle,bottle,0,0406_s5n_dnn_0_bottle_00_bottle1-clock1.png
densenet121-train-60-epochs,1,407,NaN,bottle,bottle,0,0407_s5n_dnn_0_bottle_00_bottle1-dog2.png
densenet121-train-60-epochs,1,408,NaN,bottle,bottle,0,0408_s5n_dnn_0_bottle_00_bottle1-keyboard3.png
densenet121-train-60-epochs,1,409,NaN,elephant,bottle,0,0409_s5n_dnn_0_bottle_00_bottle10-bear2.png
densenet121-train-60-epochs,1,410,NaN,bottle,bottle,0,0410_s5n_dnn_0_bottle_00_bottle10-boat3.png
densenet121-train-60-epochs,1,411,NaN,bottle,bottle,0,0411_s5n_dnn_0_bottle_00_bottle10-car1.png
densenet121-train-60-epochs,1,412,NaN,bottle,bottle,0,0412_s5n_dnn_0_bottle_00_bottle10-clock2.png
densenet121-train-60-epochs,1,413,NaN,bottle,bottle,0,0413_s5n_dnn_0_bottle_00_bottle10-dog1.png
densenet121-train-60-epochs,1,414,NaN,bottle,bottle,0,0414_s5n_dnn_0_bottle_00_bottle10-truck3.png
densenet121-train-60-epochs,1,415,NaN,bottle,bottle,0,0415_s5n_dnn_0_bottle_00_bottle2-bottle3.png
densenet121-train-60-epochs,1,416,NaN,bottle,bottle,0,0416_s5n_dnn_0_bottle_00_bottle2-car2.png
densenet121-train-60-epochs,1,417,NaN,bottle,bottle,0,0417_s5n_dnn_0_bottle_00_bottle2-chair3.png
densenet121-train-60-epochs,1,418,NaN,bottle,bottle,0,0418_s5n_dnn_0_bottle_00_bottle2-clock1.png
densenet121-train-60-epochs,1,419,NaN,bottle,bottle,0,0419_s5n_dnn_0_bottle_00_bottle2-elephant1.png
densenet121-train-60-epochs,1,420,NaN,bottle,bottle,0,0420_s5n_dnn_0_bottle_00_bottle2-knife3.png
densenet121-train-60-epochs,1,421,NaN,bottle,bottle,0,0421_s5n_dnn_0_bottle_00_bottle3-airplane2.png
densenet121-train-60-epochs,1,422,NaN,elephant,bottle,0,0422_s5n_dnn_0_bottle_00_bottle3-bear2.png
densenet121-train-60-epochs,1,423,NaN,bottle,bottle,0,0423_s5n_dnn_0_bottle_00_bottle3-bicycle3.png
densenet121-train-60-epochs,1,424,NaN,bottle,bottle,0,0424_s5n_dnn_0_bottle_00_bottle3-bird1.png
densenet121-train-60-epochs,1,425,NaN,bottle,bottle,0,0425_s5n_dnn_0_bottle_00_bottle3-boat3.png
densenet121-train-60-epochs,1,426,NaN,bottle,bottle,0,0426_s5n_dnn_0_bottle_00_bottle3-bottle3.png
densenet121-train-60-epochs,1,427,NaN,bottle,bottle,0,0427_s5n_dnn_0_bottle_00_bottle3-cat3.png
densenet121-train-60-epochs,1,428,NaN,oven,bottle,0,0428_s5n_dnn_0_bottle_00_bottle3-chair3.png
densenet121-train-60-epochs,1,429,NaN,bottle,bottle,0,0429_s5n_dnn_0_bottle_00_bottle3-knife3.png
densenet121-train-60-epochs,1,430,NaN,bottle,bottle,0,0430_s5n_dnn_0_bottle_00_bottle4-airplane1.png
densenet121-train-60-epochs,1,431,NaN,bottle,bottle,0,0431_s5n_dnn_0_bottle_00_bottle4-bicycle1.png
densenet121-train-60-epochs,1,432,NaN,bottle,bottle,0,0432_s5n_dnn_0_bottle_00_bottle4-car3.png
densenet121-train-60-epochs,1,433,NaN,bottle,bottle,0,0433_s5n_dnn_0_bottle_00_bottle4-dog2.png
densenet121-train-60-epochs,1,434,NaN,bottle,bottle,0,0434_s5n_dnn_0_bottle_00_bottle4-oven2.png
densenet121-train-60-epochs,1,435,NaN,bottle,bottle,0,0435_s5n_dnn_0_bottle_00_bottle4-truck1.png
densenet121-train-60-epochs,1,436,NaN,bottle,bottle,0,0436_s5n_dnn_0_bottle_00_bottle5-airplane1.png
densenet121-train-60-epochs,1,437,NaN,bottle,bottle,0,0437_s5n_dnn_0_bottle_00_bottle5-bird3.png
densenet121-train-60-epochs,1,438,NaN,bottle,bottle,0,0438_s5n_dnn_0_bottle_00_bottle5-boat1.png
densenet121-train-60-epochs,1,439,NaN,bird,bottle,0,0439_s5n_dnn_0_bottle_00_bottle5-cat1.png
densenet121-train-60-epochs,1,440,NaN,clock,bottle,0,0440_s5n_dnn_0_bottle_00_bottle5-chair1.png
densenet121-train-60-epochs,1,441,NaN,bottle,bottle,0,0441_s5n_dnn_0_bottle_00_bottle5-clock3.png
densenet121-train-60-epochs,1,442,NaN,bottle,bottle,0,0442_s5n_dnn_0_bottle_00_bottle5-elephant1.png
densenet121-train-60-epochs,1,443,NaN,bottle,bottle,0,0443_s5n_dnn_0_bottle_00_bottle5-keyboard2.png
densenet121-train-60-epochs,1,444,NaN,oven,bottle,0,0444_s5n_dnn_0_bottle_00_bottle5-knife1.png
densenet121-train-60-epochs,1,445,NaN,clock,bottle,0,0445_s5n_dnn_0_bottle_00_bottle5-oven2.png
densenet121-train-60-epochs,1,446,NaN,bottle,bottle,0,0446_s5n_dnn_0_bottle_00_bottle5-truck1.png
densenet121-train-60-epochs,1,447,NaN,bottle,bottle,0,0447_s5n_dnn_0_bottle_00_bottle6-airplane1.png
densenet121-train-60-epochs,1,448,NaN,elephant,bottle,0,0448_s5n_dnn_0_bottle_00_bottle6-bear2.png
densenet121-train-60-epochs,1,449,NaN,bottle,bottle,0,0449_s5n_dnn_0_bottle_00_bottle6-bicycle3.png
densenet121-train-60-epochs,1,450,NaN,bottle,bottle,0,0450_s5n_dnn_0_bottle_00_bottle6-bird1.png
densenet121-train-60-epochs,1,451,NaN,bottle,bottle,0,0451_s5n_dnn_0_bottle_00_bottle6-boat3.png
densenet121-train-60-epochs,1,452,NaN,bottle,bottle,0,0452_s5n_dnn_0_bottle_00_bottle6-bottle3.png
densenet121-train-60-epochs,1,453,NaN,chair,bottle,0,0453_s5n_dnn_0_bottle_00_bottle6-chair2.png
densenet121-train-60-epochs,1,454,NaN,dog,bottle,0,0454_s5n_dnn_0_bottle_00_bottle6-dog3.png
densenet121-train-60-epochs,1,455,NaN,chair,bottle,0,0455_s5n_dnn_0_bottle_00_bottle6-knife3.png
densenet121-train-60-epochs,1,456,NaN,bottle,bottle,0,0456_s5n_dnn_0_bottle_00_bottle6-oven3.png
densenet121-train-60-epochs,1,457,NaN,truck,bottle,0,0457_s5n_dnn_0_bottle_00_bottle7-airplane3.png
densenet121-train-60-epochs,1,458,NaN,elephant,bottle,0,0458_s5n_dnn_0_bottle_00_bottle7-bear1.png
densenet121-train-60-epochs,1,459,NaN,chair,bottle,0,0459_s5n_dnn_0_bottle_00_bottle7-boat3.png
densenet121-train-60-epochs,1,460,NaN,bird,bottle,0,0460_s5n_dnn_0_bottle_00_bottle7-cat2.png
densenet121-train-60-epochs,1,461,NaN,clock,bottle,0,0461_s5n_dnn_0_bottle_00_bottle7-clock1.png
densenet121-train-60-epochs,1,462,NaN,chair,bottle,0,0462_s5n_dnn_0_bottle_00_bottle7-elephant2.png
densenet121-train-60-epochs,1,463,NaN,clock,bottle,0,0463_s5n_dnn_0_bottle_00_bottle7-keyboard2.png
densenet121-train-60-epochs,1,464,NaN,truck,bottle,0,0464_s5n_dnn_0_bottle_00_bottle7-oven2.png
densenet121-train-60-epochs,1,465,NaN,bottle,bottle,0,0465_s5n_dnn_0_bottle_00_bottle7-truck2.png
densenet121-train-60-epochs,1,466,NaN,bottle,bottle,0,0466_s5n_dnn_0_bottle_00_bottle8-bicycle1.png
densenet121-train-60-epochs,1,467,NaN,bottle,bottle,0,0467_s5n_dnn_0_bottle_00_bottle8-bird1.png
densenet121-train-60-epochs,1,468,NaN,bottle,bottle,0,0468_s5n_dnn_0_bottle_00_bottle8-bottle3.png
densenet121-train-60-epochs,1,469,NaN,bottle,bottle,0,0469_s5n_dnn_0_bottle_00_bottle8-dog2.png
densenet121-train-60-epochs,1,470,NaN,bottle,bottle,0,0470_s5n_dnn_0_bottle_00_bottle8-elephant3.png
densenet121-train-60-epochs,1,471,NaN,bottle,bottle,0,0471_s5n_dnn_0_bottle_00_bottle8-keyboard3.png
densenet121-train-60-epochs,1,472,NaN,bottle,bottle,0,0472_s5n_dnn_0_bottle_00_bottle8-knife1.png
densenet121-train-60-epochs,1,473,NaN,bottle,bottle,0,0473_s5n_dnn_0_bottle_00_bottle9-bicycle1.png
densenet121-train-60-epochs,1,474,NaN,bird,bottle,0,0474_s5n_dnn_0_bottle_00_bottle9-bottle1.png
densenet121-train-60-epochs,1,475,NaN,bottle,bottle,0,0475_s5n_dnn_0_bottle_00_bottle9-car3.png
densenet121-train-60-epochs,1,476,NaN,chair,bottle,0,0476_s5n_dnn_0_bottle_00_bottle9-cat2.png
densenet121-train-60-epochs,1,477,NaN,chair,bottle,0,0477_s5n_dnn_0_bottle_00_bottle9-elephant2.png
densenet121-train-60-epochs,1,478,NaN,chair,bottle,0,0478_s5n_dnn_0_bottle_00_bottle9-keyboard1.png
densenet121-train-60-epochs,1,479,NaN,bottle,bottle,0,0479_s5n_dnn_0_bottle_00_bottle9-oven2.png
densenet121-train-60-epochs,1,480,NaN,bottle,bottle,0,0480_s5n_dnn_0_bottle_00_bottle9-truck1.png
densenet121-train-60-epochs,1,481,NaN,truck,car,0,0481_s5n_dnn_0_car_00_car1-airplane1.png
densenet121-train-60-epochs,1,482,NaN,car,car,0,0482_s5n_dnn_0_car_00_car1-car2.png
densenet121-train-60-epochs,1,483,NaN,car,car,0,0483_s5n_dnn_0_car_00_car1-chair3.png
densenet121-train-60-epochs,1,484,NaN,car,car,0,0484_s5n_dnn_0_car_00_car1-clock2.png
densenet121-train-60-epochs,1,485,NaN,car,car,0,0485_s5n_dnn_0_car_00_car1-dog2.png
densenet121-train-60-epochs,1,486,NaN,bottle,car,0,0486_s5n_dnn_0_car_00_car1-keyboard2.png
densenet121-train-60-epochs,1,487,NaN,car,car,0,0487_s5n_dnn_0_car_00_car1-oven3.png
densenet121-train-60-epochs,1,488,NaN,car,car,0,0488_s5n_dnn_0_car_00_car10-bicycle2.png
densenet121-train-60-epochs,1,489,NaN,truck,car,0,0489_s5n_dnn_0_car_00_car10-bottle3.png
densenet121-train-60-epochs,1,490,NaN,car,car,0,0490_s5n_dnn_0_car_00_car10-car1.png
densenet121-train-60-epochs,1,491,NaN,truck,car,0,0491_s5n_dnn_0_car_00_car10-chair1.png
densenet121-train-60-epochs,1,492,NaN,car,car,0,0492_s5n_dnn_0_car_00_car10-dog1.png
densenet121-train-60-epochs,1,493,NaN,car,car,0,0493_s5n_dnn_0_car_00_car10-elephant2.png
densenet121-train-60-epochs,1,494,NaN,clock,car,0,0494_s5n_dnn_0_car_00_car10-keyboard2.png
densenet121-train-60-epochs,1,495,NaN,car,car,0,0495_s5n_dnn_0_car_00_car2-bird3.png
densenet121-train-60-epochs,1,496,NaN,car,car,0,0496_s5n_dnn_0_car_00_car2-car3.png
densenet121-train-60-epochs,1,497,NaN,bottle,car,0,0497_s5n_dnn_0_car_00_car2-cat3.png
densenet121-train-60-epochs,1,498,NaN,car,car,0,0498_s5n_dnn_0_car_00_car2-chair1.png
densenet121-train-60-epochs,1,499,NaN,car,car,0,0499_s5n_dnn_0_car_00_car2-knife3.png
densenet121-train-60-epochs,1,500,NaN,car,car,0,0500_s5n_dnn_0_car_00_car3-airplane3.png
densenet121-train-60-epochs,1,501,NaN,car,car,0,0501_s5n_dnn_0_car_00_car3-bird2.png
densenet121-train-60-epochs,1,502,NaN,car,car,0,0502_s5n_dnn_0_car_00_car3-boat1.png
densenet121-train-60-epochs,1,503,NaN,bottle,car,0,0503_s5n_dnn_0_car_00_car3-bottle3.png
densenet121-train-60-epochs,1,504,NaN,bear,car,0,0504_s5n_dnn_0_car_00_car3-dog2.png
densenet121-train-60-epochs,1,505,NaN,car,car,0,0505_s5n_dnn_0_car_00_car3-elephant3.png
densenet121-train-60-epochs,1,506,NaN,car,car,0,0506_s5n_dnn_0_car_00_car3-oven3.png
densenet121-train-60-epochs,1,507,NaN,car,car,0,0507_s5n_dnn_0_car_00_car3-truck1.png
densenet121-train-60-epochs,1,508,NaN,bird,car,0,0508_s5n_dnn_0_car_00_car4-bear3.png
densenet121-train-60-epochs,1,509,NaN,bird,car,0,0509_s5n_dnn_0_car_00_car4-bicycle3.png
densenet121-train-60-epochs,1,510,NaN,bottle,car,0,0510_s5n_dnn_0_car_00_car4-bird1.png
densenet121-train-60-epochs,1,511,NaN,boat,car,0,0511_s5n_dnn_0_car_00_car4-boat1.png
densenet121-train-60-epochs,1,512,NaN,keyboard,car,0,0512_s5n_dnn_0_car_00_car4-bottle1.png
densenet121-train-60-epochs,1,513,NaN,truck,car,0,0513_s5n_dnn_0_car_00_car4-car2.png
densenet121-train-60-epochs,1,514,NaN,bird,car,0,0514_s5n_dnn_0_car_00_car4-cat3.png
densenet121-train-60-epochs,1,515,NaN,boat,car,0,0515_s5n_dnn_0_car_00_car4-clock1.png
densenet121-train-60-epochs,1,516,NaN,keyboard,car,0,0516_s5n_dnn_0_car_00_car4-elephant3.png
densenet121-train-60-epochs,1,517,NaN,car,car,0,0517_s5n_dnn_0_car_00_car4-oven2.png
densenet121-train-60-epochs,1,518,NaN,truck,car,0,0518_s5n_dnn_0_car_00_car5-airplane3.png
densenet121-train-60-epochs,1,519,NaN,bird,car,0,0519_s5n_dnn_0_car_00_car5-bear3.png
densenet121-train-60-epochs,1,520,NaN,clock,car,0,0520_s5n_dnn_0_car_00_car5-bottle1.png
densenet121-train-60-epochs,1,521,NaN,bird,car,0,0521_s5n_dnn_0_car_00_car5-cat1.png
densenet121-train-60-epochs,1,522,NaN,car,car,0,0522_s5n_dnn_0_car_00_car5-keyboard3.png
densenet121-train-60-epochs,1,523,NaN,truck,car,0,0523_s5n_dnn_0_car_00_car5-knife2.png
densenet121-train-60-epochs,1,524,NaN,truck,car,0,0524_s5n_dnn_0_car_00_car5-oven2.png
densenet121-train-60-epochs,1,525,NaN,truck,car,0,0525_s5n_dnn_0_car_00_car5-truck3.png
densenet121-train-60-epochs,1,526,NaN,bird,car,0,0526_s5n_dnn_0_car_00_car6-bear1.png
densenet121-train-60-epochs,1,527,NaN,car,car,0,0527_s5n_dnn_0_car_00_car6-bicycle3.png
densenet121-train-60-epochs,1,528,NaN,car,car,0,0528_s5n_dnn_0_car_00_car6-boat1.png
densenet121-train-60-epochs,1,529,NaN,clock,car,0,0529_s5n_dnn_0_car_00_car6-bottle1.png
densenet121-train-60-epochs,1,530,NaN,car,car,0,0530_s5n_dnn_0_car_00_car6-chair3.png
densenet121-train-60-epochs,1,531,NaN,car,car,0,0531_s5n_dnn_0_car_00_car6-elephant3.png
densenet121-train-60-epochs,1,532,NaN,car,car,0,0532_s5n_dnn_0_car_00_car6-knife1.png
densenet121-train-60-epochs,1,533,NaN,boat,car,0,0533_s5n_dnn_0_car_00_car6-truck3.png
densenet121-train-60-epochs,1,534,NaN,car,car,0,0534_s5n_dnn_0_car_00_car7-airplane2.png
densenet121-train-60-epochs,1,535,NaN,bird,car,0,0535_s5n_dnn_0_car_00_car7-bear1.png
densenet121-train-60-epochs,1,536,NaN,dog,car,0,0536_s5n_dnn_0_car_00_car7-bird3.png
densenet121-train-60-epochs,1,537,NaN,car,car,0,0537_s5n_dnn_0_car_00_car7-boat3.png
densenet121-train-60-epochs,1,538,NaN,car,car,0,0538_s5n_dnn_0_car_00_car7-car1.png
densenet121-train-60-epochs,1,539,NaN,car,car,0,0539_s5n_dnn_0_car_00_car7-clock1.png
densenet121-train-60-epochs,1,540,NaN,dog,car,0,0540_s5n_dnn_0_car_00_car7-dog3.png
densenet121-train-60-epochs,1,541,NaN,car,car,0,0541_s5n_dnn_0_car_00_car7-elephant3.png
densenet121-train-60-epochs,1,542,NaN,car,car,0,0542_s5n_dnn_0_car_00_car7-keyboard3.png
densenet121-train-60-epochs,1,543,NaN,bottle,car,0,0543_s5n_dnn_0_car_00_car7-oven2.png
densenet121-train-60-epochs,1,544,NaN,car,car,0,0544_s5n_dnn_0_car_00_car8-airplane3.png
densenet121-train-60-epochs,1,545,NaN,bird,car,0,0545_s5n_dnn_0_car_00_car8-bear1.png
densenet121-train-60-epochs,1,546,NaN,car,car,0,0546_s5n_dnn_0_car_00_car8-bicycle2.png
densenet121-train-60-epochs,1,547,NaN,boat,car,0,0547_s5n_dnn_0_car_00_car8-boat3.png
densenet121-train-60-epochs,1,548,NaN,bird,car,0,0548_s5n_dnn_0_car_00_car8-cat1.png
densenet121-train-60-epochs,1,549,NaN,car,car,0,0549_s5n_dnn_0_car_00_car8-chair1.png
densenet121-train-60-epochs,1,550,NaN,car,car,0,0550_s5n_dnn_0_car_00_car8-clock2.png
densenet121-train-60-epochs,1,551,NaN,bird,car,0,0551_s5n_dnn_0_car_00_car8-dog1.png
densenet121-train-60-epochs,1,552,NaN,bird,car,0,0552_s5n_dnn_0_car_00_car8-knife2.png
densenet121-train-60-epochs,1,553,NaN,car,car,0,0553_s5n_dnn_0_car_00_car8-truck3.png
densenet121-train-60-epochs,1,554,NaN,car,car,0,0554_s5n_dnn_0_car_00_car9-bicycle2.png
densenet121-train-60-epochs,1,555,NaN,bottle,car,0,0555_s5n_dnn_0_car_00_car9-bird1.png
densenet121-train-60-epochs,1,556,NaN,bird,car,0,0556_s5n_dnn_0_car_00_car9-cat1.png
densenet121-train-60-epochs,1,557,NaN,car,car,0,0557_s5n_dnn_0_car_00_car9-clock2.png
densenet121-train-60-epochs,1,558,NaN,clock,car,0,0558_s5n_dnn_0_car_00_car9-keyboard2.png
densenet121-train-60-epochs,1,559,NaN,car,car,0,0559_s5n_dnn_0_car_00_car9-knife1.png
densenet121-train-60-epochs,1,560,NaN,car,car,0,0560_s5n_dnn_0_car_00_car9-truck3.png
densenet121-train-60-epochs,1,561,NaN,cat,cat,0,0561_s5n_dnn_0_cat_00_cat1-airplane1.png
densenet121-train-60-epochs,1,562,NaN,cat,cat,0,0562_s5n_dnn_0_cat_00_cat1-bird1.png
densenet121-train-60-epochs,1,563,NaN,boat,cat,0,0563_s5n_dnn_0_cat_00_cat1-boat1.png
densenet121-train-60-epochs,1,564,NaN,cat,cat,0,0564_s5n_dnn_0_cat_00_cat1-car2.png
densenet121-train-60-epochs,1,565,NaN,cat,cat,0,0565_s5n_dnn_0_cat_00_cat1-cat3.png
densenet121-train-60-epochs,1,566,NaN,cat,cat,0,0566_s5n_dnn_0_cat_00_cat1-chair2.png
densenet121-train-60-epochs,1,567,NaN,cat,cat,0,0567_s5n_dnn_0_cat_00_cat1-dog1.png
densenet121-train-60-epochs,1,568,NaN,dog,cat,0,0568_s5n_dnn_0_cat_00_cat1-keyboard3.png
densenet121-train-60-epochs,1,569,NaN,cat,cat,0,0569_s5n_dnn_0_cat_00_cat1-oven1.png
densenet121-train-60-epochs,1,570,NaN,cat,cat,0,0570_s5n_dnn_0_cat_00_cat10-airplane3.png
densenet121-train-60-epochs,1,571,NaN,cat,cat,0,0571_s5n_dnn_0_cat_00_cat10-bear1.png
densenet121-train-60-epochs,1,572,NaN,cat,cat,0,0572_s5n_dnn_0_cat_00_cat10-bicycle1.png
densenet121-train-60-epochs,1,573,NaN,cat,cat,0,0573_s5n_dnn_0_cat_00_cat10-bird2.png
densenet121-train-60-epochs,1,574,NaN,bird,cat,0,0574_s5n_dnn_0_cat_00_cat10-bottle1.png
densenet121-train-60-epochs,1,575,NaN,cat,cat,0,0575_s5n_dnn_0_cat_00_cat10-clock1.png
densenet121-train-60-epochs,1,576,NaN,cat,cat,0,0576_s5n_dnn_0_cat_00_cat10-elephant3.png
densenet121-train-60-epochs,1,577,NaN,dog,cat,0,0577_s5n_dnn_0_cat_00_cat10-keyboard1.png
densenet121-train-60-epochs,1,578,NaN,cat,cat,0,0578_s5n_dnn_0_cat_00_cat10-oven2.png
densenet121-train-60-epochs,1,579,NaN,clock,cat,0,0579_s5n_dnn_0_cat_00_cat2-boat2.png
densenet121-train-60-epochs,1,580,NaN,clock,cat,0,0580_s5n_dnn_0_cat_00_cat2-bottle3.png
densenet121-train-60-epochs,1,581,NaN,clock,cat,0,0581_s5n_dnn_0_cat_00_cat2-car3.png
densenet121-train-60-epochs,1,582,NaN,dog,cat,0,0582_s5n_dnn_0_cat_00_cat2-cat1.png
densenet121-train-60-epochs,1,583,NaN,cat,cat,0,0583_s5n_dnn_0_cat_00_cat2-elephant1.png
densenet121-train-60-epochs,1,584,NaN,dog,cat,0,0584_s5n_dnn_0_cat_00_cat2-knife3.png
densenet121-train-60-epochs,1,585,NaN,cat,cat,0,0585_s5n_dnn_0_cat_00_cat2-truck3.png
densenet121-train-60-epochs,1,586,NaN,cat,cat,0,0586_s5n_dnn_0_cat_00_cat3-bear2.png
densenet121-train-60-epochs,1,587,NaN,cat,cat,0,0587_s5n_dnn_0_cat_00_cat3-bicycle1.png
densenet121-train-60-epochs,1,588,NaN,cat,cat,0,0588_s5n_dnn_0_cat_00_cat3-cat1.png
densenet121-train-60-epochs,1,589,NaN,cat,cat,0,0589_s5n_dnn_0_cat_00_cat3-elephant2.png
densenet121-train-60-epochs,1,590,NaN,dog,cat,0,0590_s5n_dnn_0_cat_00_cat3-oven2.png
densenet121-train-60-epochs,1,591,NaN,dog,cat,0,0591_s5n_dnn_0_cat_00_cat3-truck3.png
densenet121-train-60-epochs,1,592,NaN,elephant,cat,0,0592_s5n_dnn_0_cat_00_cat4-airplane1.png
densenet121-train-60-epochs,1,593,NaN,dog,cat,0,0593_s5n_dnn_0_cat_00_cat4-bird2.png
densenet121-train-60-epochs,1,594,NaN,cat,cat,0,0594_s5n_dnn_0_cat_00_cat4-car2.png
densenet121-train-60-epochs,1,595,NaN,bird,cat,0,0595_s5n_dnn_0_cat_00_cat4-cat3.png
densenet121-train-60-epochs,1,596,NaN,cat,cat,0,0596_s5n_dnn_0_cat_00_cat4-chair2.png
densenet121-train-60-epochs,1,597,NaN,cat,cat,0,0597_s5n_dnn_0_cat_00_cat4-clock2.png
densenet121-train-60-epochs,1,598,NaN,cat,cat,0,0598_s5n_dnn_0_cat_00_cat4-dog3.png
densenet121-train-60-epochs,1,599,NaN,clock,cat,0,0599_s5n_dnn_0_cat_00_cat4-keyboard2.png
densenet121-train-60-epochs,1,600,NaN,truck,cat,0,0600_s5n_dnn_0_cat_00_cat4-knife1.png
densenet121-train-60-epochs,1,601,NaN,cat,cat,0,0601_s5n_dnn_0_cat_00_cat4-oven1.png
densenet121-train-60-epochs,1,602,NaN,bottle,cat,0,0602_s5n_dnn_0_cat_00_cat4-truck3.png
densenet121-train-60-epochs,1,603,NaN,bottle,cat,0,0603_s5n_dnn_0_cat_00_cat5-airplane2.png
densenet121-train-60-epochs,1,604,NaN,cat,cat,0,0604_s5n_dnn_0_cat_00_cat5-bear2.png
densenet121-train-60-epochs,1,605,NaN,cat,cat,0,0605_s5n_dnn_0_cat_00_cat5-bicycle3.png
densenet121-train-60-epochs,1,606,NaN,boat,cat,0,0606_s5n_dnn_0_cat_00_cat5-boat1.png
densenet121-train-60-epochs,1,607,NaN,bird,cat,0,0607_s5n_dnn_0_cat_00_cat5-bottle1.png
densenet121-train-60-epochs,1,608,NaN,cat,cat,0,0608_s5n_dnn_0_cat_00_cat5-car2.png
densenet121-train-60-epochs,1,609,NaN,cat,cat,0,0609_s5n_dnn_0_cat_00_cat5-chair3.png
densenet121-train-60-epochs,1,610,NaN,dog,cat,0,0610_s5n_dnn_0_cat_00_cat5-dog3.png
densenet121-train-60-epochs,1,611,NaN,cat,cat,0,0611_s5n_dnn_0_cat_00_cat5-elephant2.png
densenet121-train-60-epochs,1,612,NaN,dog,cat,0,0612_s5n_dnn_0_cat_00_cat5-keyboard3.png
densenet121-train-60-epochs,1,613,NaN,cat,cat,0,0613_s5n_dnn_0_cat_00_cat5-knife2.png
densenet121-train-60-epochs,1,614,NaN,cat,cat,0,0614_s5n_dnn_0_cat_00_cat6-bear1.png
densenet121-train-60-epochs,1,615,NaN,clock,cat,0,0615_s5n_dnn_0_cat_00_cat6-chair3.png
densenet121-train-60-epochs,1,616,NaN,cat,cat,0,0616_s5n_dnn_0_cat_00_cat6-clock3.png
densenet121-train-60-epochs,1,617,NaN,keyboard,cat,0,0617_s5n_dnn_0_cat_00_cat6-keyboard3.png
densenet121-train-60-epochs,1,618,NaN,cat,cat,0,0618_s5n_dnn_0_cat_00_cat6-oven1.png
densenet121-train-60-epochs,1,619,NaN,airplane,cat,0,0619_s5n_dnn_0_cat_00_cat7-airplane2.png
densenet121-train-60-epochs,1,620,NaN,cat,cat,0,0620_s5n_dnn_0_cat_00_cat7-boat3.png
densenet121-train-60-epochs,1,621,NaN,cat,cat,0,0621_s5n_dnn_0_cat_00_cat7-bottle1.png
densenet121-train-60-epochs,1,622,NaN,cat,cat,0,0622_s5n_dnn_0_cat_00_cat7-clock3.png
densenet121-train-60-epochs,1,623,NaN,dog,cat,0,0623_s5n_dnn_0_cat_00_cat7-dog3.png
densenet121-train-60-epochs,1,624,NaN,cat,cat,0,0624_s5n_dnn_0_cat_00_cat7-elephant1.png
densenet121-train-60-epochs,1,625,NaN,cat,cat,0,0625_s5n_dnn_0_cat_00_cat7-knife2.png
densenet121-train-60-epochs,1,626,NaN,chair,cat,0,0626_s5n_dnn_0_cat_00_cat7-truck2.png
densenet121-train-60-epochs,1,627,NaN,cat,cat,0,0627_s5n_dnn_0_cat_00_cat8-bear1.png
densenet121-train-60-epochs,1,628,NaN,cat,cat,0,0628_s5n_dnn_0_cat_00_cat8-bicycle3.png
densenet121-train-60-epochs,1,629,NaN,cat,cat,0,0629_s5n_dnn_0_cat_00_cat8-bird2.png
densenet121-train-60-epochs,1,630,NaN,clock,cat,0,0630_s5n_dnn_0_cat_00_cat8-car2.png
densenet121-train-60-epochs,1,631,NaN,bird,cat,0,0631_s5n_dnn_0_cat_00_cat9-bicycle1.png
densenet121-train-60-epochs,1,632,NaN,dog,cat,0,0632_s5n_dnn_0_cat_00_cat9-bird3.png
densenet121-train-60-epochs,1,633,NaN,bird,cat,0,0633_s5n_dnn_0_cat_00_cat9-boat2.png
densenet121-train-60-epochs,1,634,NaN,bottle,cat,0,0634_s5n_dnn_0_cat_00_cat9-bottle2.png
densenet121-train-60-epochs,1,635,NaN,chair,cat,0,0635_s5n_dnn_0_cat_00_cat9-cat3.png
densenet121-train-60-epochs,1,636,NaN,bird,cat,0,0636_s5n_dnn_0_cat_00_cat9-chair2.png
densenet121-train-60-epochs,1,637,NaN,cat,cat,0,0637_s5n_dnn_0_cat_00_cat9-clock2.png
densenet121-train-60-epochs,1,638,NaN,dog,cat,0,0638_s5n_dnn_0_cat_00_cat9-dog2.png
densenet121-train-60-epochs,1,639,NaN,truck,cat,0,0639_s5n_dnn_0_cat_00_cat9-knife2.png
densenet121-train-60-epochs,1,640,NaN,keyboard,cat,0,0640_s5n_dnn_0_cat_00_cat9-truck1.png
densenet121-train-60-epochs,1,641,NaN,airplane,chair,0,0641_s5n_dnn_0_chair_00_chair1-airplane2.png
densenet121-train-60-epochs,1,642,NaN,chair,chair,0,0642_s5n_dnn_0_chair_00_chair1-bear1.png
densenet121-train-60-epochs,1,643,NaN,chair,chair,0,0643_s5n_dnn_0_chair_00_chair1-cat3.png
densenet121-train-60-epochs,1,644,NaN,chair,chair,0,0644_s5n_dnn_0_chair_00_chair1-chair1.png
densenet121-train-60-epochs,1,645,NaN,chair,chair,0,0645_s5n_dnn_0_chair_00_chair1-clock2.png
densenet121-train-60-epochs,1,646,NaN,chair,chair,0,0646_s5n_dnn_0_chair_00_chair1-dog1.png
densenet121-train-60-epochs,1,647,NaN,chair,chair,0,0647_s5n_dnn_0_chair_00_chair1-elephant1.png
densenet121-train-60-epochs,1,648,NaN,chair,chair,0,0648_s5n_dnn_0_chair_00_chair1-oven3.png
densenet121-train-60-epochs,1,649,NaN,chair,chair,0,0649_s5n_dnn_0_chair_00_chair1-truck3.png
densenet121-train-60-epochs,1,650,NaN,boat,chair,0,0650_s5n_dnn_0_chair_00_chair10-airplane2.png
densenet121-train-60-epochs,1,651,NaN,chair,chair,0,0651_s5n_dnn_0_chair_00_chair10-bicycle1.png
densenet121-train-60-epochs,1,652,NaN,chair,chair,0,0652_s5n_dnn_0_chair_00_chair10-bird3.png
densenet121-train-60-epochs,1,653,NaN,chair,chair,0,0653_s5n_dnn_0_chair_00_chair10-bottle3.png
densenet121-train-60-epochs,1,654,NaN,oven,chair,0,0654_s5n_dnn_0_chair_00_chair10-car2.png
densenet121-train-60-epochs,1,655,NaN,cat,chair,0,0655_s5n_dnn_0_chair_00_chair10-cat1.png
densenet121-train-60-epochs,1,656,NaN,chair,chair,0,0656_s5n_dnn_0_chair_00_chair10-clock1.png
densenet121-train-60-epochs,1,657,NaN,chair,chair,0,0657_s5n_dnn_0_chair_00_chair10-dog1.png
densenet121-train-60-epochs,1,658,NaN,chair,chair,0,0658_s5n_dnn_0_chair_00_chair10-oven1.png
densenet121-train-60-epochs,1,659,NaN,elephant,chair,0,0659_s5n_dnn_0_chair_00_chair2-bear2.png
densenet121-train-60-epochs,1,660,NaN,chair,chair,0,0660_s5n_dnn_0_chair_00_chair2-boat1.png
densenet121-train-60-epochs,1,661,NaN,chair,chair,0,0661_s5n_dnn_0_chair_00_chair2-keyboard2.png
densenet121-train-60-epochs,1,662,NaN,chair,chair,0,0662_s5n_dnn_0_chair_00_chair2-knife1.png
densenet121-train-60-epochs,1,663,NaN,chair,chair,0,0663_s5n_dnn_0_chair_00_chair3-airplane2.png
densenet121-train-60-epochs,1,664,NaN,chair,chair,0,0664_s5n_dnn_0_chair_00_chair3-bicycle3.png
densenet121-train-60-epochs,1,665,NaN,chair,chair,0,0665_s5n_dnn_0_chair_00_chair3-bottle3.png
densenet121-train-60-epochs,1,666,NaN,chair,chair,0,0666_s5n_dnn_0_chair_00_chair3-car3.png
densenet121-train-60-epochs,1,667,NaN,chair,chair,0,0667_s5n_dnn_0_chair_00_chair3-dog2.png
densenet121-train-60-epochs,1,668,NaN,truck,chair,0,0668_s5n_dnn_0_chair_00_chair3-knife1.png
densenet121-train-60-epochs,1,669,NaN,elephant,chair,0,0669_s5n_dnn_0_chair_00_chair4-bear2.png
densenet121-train-60-epochs,1,670,NaN,chair,chair,0,0670_s5n_dnn_0_chair_00_chair4-cat2.png
densenet121-train-60-epochs,1,671,NaN,chair,chair,0,0671_s5n_dnn_0_chair_00_chair4-chair3.png
densenet121-train-60-epochs,1,672,NaN,dog,chair,0,0672_s5n_dnn_0_chair_00_chair4-keyboard2.png
densenet121-train-60-epochs,1,673,NaN,chair,chair,0,0673_s5n_dnn_0_chair_00_chair4-oven2.png
densenet121-train-60-epochs,1,674,NaN,chair,chair,0,0674_s5n_dnn_0_chair_00_chair4-truck2.png
densenet121-train-60-epochs,1,675,NaN,chair,chair,0,0675_s5n_dnn_0_chair_00_chair5-bicycle1.png
densenet121-train-60-epochs,1,676,NaN,chair,chair,0,0676_s5n_dnn_0_chair_00_chair5-bird1.png
densenet121-train-60-epochs,1,677,NaN,chair,chair,0,0677_s5n_dnn_0_chair_00_chair5-boat3.png
densenet121-train-60-epochs,1,678,NaN,chair,chair,0,0678_s5n_dnn_0_chair_00_chair5-bottle3.png
densenet121-train-60-epochs,1,679,NaN,chair,chair,0,0679_s5n_dnn_0_chair_00_chair5-car1.png
densenet121-train-60-epochs,1,680,NaN,chair,chair,0,0680_s5n_dnn_0_chair_00_chair5-cat3.png
densenet121-train-60-epochs,1,681,NaN,chair,chair,0,0681_s5n_dnn_0_chair_00_chair5-clock2.png
densenet121-train-60-epochs,1,682,NaN,clock,chair,0,0682_s5n_dnn_0_chair_00_chair5-keyboard2.png
densenet121-train-60-epochs,1,683,NaN,chair,chair,0,0683_s5n_dnn_0_chair_00_chair5-knife3.png
densenet121-train-60-epochs,1,684,NaN,chair,chair,0,0684_s5n_dnn_0_chair_00_chair5-oven2.png
densenet121-train-60-epochs,1,685,NaN,chair,chair,0,0685_s5n_dnn_0_chair_00_chair5-truck3.png
densenet121-train-60-epochs,1,686,NaN,chair,chair,0,0686_s5n_dnn_0_chair_00_chair6-bird2.png
densenet121-train-60-epochs,1,687,NaN,chair,chair,0,0687_s5n_dnn_0_chair_00_chair6-dog1.png
densenet121-train-60-epochs,1,688,NaN,chair,chair,0,0688_s5n_dnn_0_chair_00_chair6-elephant2.png
densenet121-train-60-epochs,1,689,NaN,truck,chair,0,0689_s5n_dnn_0_chair_00_chair6-truck2.png
densenet121-train-60-epochs,1,690,NaN,chair,chair,0,0690_s5n_dnn_0_chair_00_chair7-airplane1.png
densenet121-train-60-epochs,1,691,NaN,chair,chair,0,0691_s5n_dnn_0_chair_00_chair7-bird1.png
densenet121-train-60-epochs,1,692,NaN,chair,chair,0,0692_s5n_dnn_0_chair_00_chair7-boat3.png
densenet121-train-60-epochs,1,693,NaN,chair,chair,0,0693_s5n_dnn_0_chair_00_chair7-bottle1.png
densenet121-train-60-epochs,1,694,NaN,clock,chair,0,0694_s5n_dnn_0_chair_00_chair7-car2.png
densenet121-train-60-epochs,1,695,NaN,chair,chair,0,0695_s5n_dnn_0_chair_00_chair7-cat1.png
densenet121-train-60-epochs,1,696,NaN,chair,chair,0,0696_s5n_dnn_0_chair_00_chair7-chair1.png
densenet121-train-60-epochs,1,697,NaN,clock,chair,0,0697_s5n_dnn_0_chair_00_chair7-clock3.png
densenet121-train-60-epochs,1,698,NaN,chair,chair,0,0698_s5n_dnn_0_chair_00_chair7-elephant1.png
densenet121-train-60-epochs,1,699,NaN,oven,chair,0,0699_s5n_dnn_0_chair_00_chair7-knife2.png
densenet121-train-60-epochs,1,700,NaN,clock,chair,0,0700_s5n_dnn_0_chair_00_chair7-truck3.png
densenet121-train-60-epochs,1,701,NaN,chair,chair,0,0701_s5n_dnn_0_chair_00_chair8-airplane1.png
densenet121-train-60-epochs,1,702,NaN,chair,chair,0,0702_s5n_dnn_0_chair_00_chair8-bear1.png
densenet121-train-60-epochs,1,703,NaN,chair,chair,0,0703_s5n_dnn_0_chair_00_chair8-bicycle3.png
densenet121-train-60-epochs,1,704,NaN,chair,chair,0,0704_s5n_dnn_0_chair_00_chair8-boat1.png
densenet121-train-60-epochs,1,705,NaN,chair,chair,0,0705_s5n_dnn_0_chair_00_chair8-car1.png
densenet121-train-60-epochs,1,706,NaN,chair,chair,0,0706_s5n_dnn_0_chair_00_chair8-chair3.png
densenet121-train-60-epochs,1,707,NaN,chair,chair,0,0707_s5n_dnn_0_chair_00_chair8-clock3.png
densenet121-train-60-epochs,1,708,NaN,chair,chair,0,0708_s5n_dnn_0_chair_00_chair8-elephant1.png
densenet121-train-60-epochs,1,709,NaN,truck,chair,0,0709_s5n_dnn_0_chair_00_chair8-keyboard3.png
densenet121-train-60-epochs,1,710,NaN,chair,chair,0,0710_s5n_dnn_0_chair_00_chair8-knife2.png
densenet121-train-60-epochs,1,711,NaN,bottle,chair,0,0711_s5n_dnn_0_chair_00_chair8-oven1.png
densenet121-train-60-epochs,1,712,NaN,chair,chair,0,0712_s5n_dnn_0_chair_00_chair9-bear1.png
densenet121-train-60-epochs,1,713,NaN,chair,chair,0,0713_s5n_dnn_0_chair_00_chair9-bicycle3.png
densenet121-train-60-epochs,1,714,NaN,clock,chair,0,0714_s5n_dnn_0_chair_00_chair9-bird3.png
densenet121-train-60-epochs,1,715,NaN,chair,chair,0,0715_s5n_dnn_0_chair_00_chair9-boat2.png
densenet121-train-60-epochs,1,716,NaN,chair,chair,0,0716_s5n_dnn_0_chair_00_chair9-bottle3.png
densenet121-train-60-epochs,1,717,NaN,chair,chair,0,0717_s5n_dnn_0_chair_00_chair9-chair3.png
densenet121-train-60-epochs,1,718,NaN,clock,chair,0,0718_s5n_dnn_0_chair_00_chair9-dog2.png
densenet121-train-60-epochs,1,719,NaN,chair,chair,0,0719_s5n_dnn_0_chair_00_chair9-elephant1.png
densenet121-train-60-epochs,1,720,NaN,chair,chair,0,0720_s5n_dnn_0_chair_00_chair9-keyboard2.png
densenet121-train-60-epochs,1,721,NaN,bird,clock,0,0721_s5n_dnn_0_clock_00_clock1-bear1.png
densenet121-train-60-epochs,1,722,NaN,clock,clock,0,0722_s5n_dnn_0_clock_00_clock1-boat3.png
densenet121-train-60-epochs,1,723,NaN,clock,clock,0,0723_s5n_dnn_0_clock_00_clock1-car1.png
densenet121-train-60-epochs,1,724,NaN,clock,clock,0,0724_s5n_dnn_0_clock_00_clock1-clock2.png
densenet121-train-60-epochs,1,725,NaN,clock,clock,0,0725_s5n_dnn_0_clock_00_clock1-dog2.png
densenet121-train-60-epochs,1,726,NaN,elephant,clock,0,0726_s5n_dnn_0_clock_00_clock1-elephant2.png
densenet121-train-60-epochs,1,727,NaN,bottle,clock,0,0727_s5n_dnn_0_clock_00_clock1-truck3.png
densenet121-train-60-epochs,1,728,NaN,clock,clock,0,0728_s5n_dnn_0_clock_00_clock10-airplane1.png
densenet121-train-60-epochs,1,729,NaN,clock,clock,0,0729_s5n_dnn_0_clock_00_clock10-bird3.png
densenet121-train-60-epochs,1,730,NaN,clock,clock,0,0730_s5n_dnn_0_clock_00_clock10-boat2.png
densenet121-train-60-epochs,1,731,NaN,clock,clock,0,0731_s5n_dnn_0_clock_00_clock10-bottle1.png
densenet121-train-60-epochs,1,732,NaN,clock,clock,0,0732_s5n_dnn_0_clock_00_clock10-cat1.png
densenet121-train-60-epochs,1,733,NaN,clock,clock,0,0733_s5n_dnn_0_clock_00_clock10-clock3.png
densenet121-train-60-epochs,1,734,NaN,dog,clock,0,0734_s5n_dnn_0_clock_00_clock10-dog3.png
densenet121-train-60-epochs,1,735,NaN,dog,clock,0,0735_s5n_dnn_0_clock_00_clock10-knife3.png
densenet121-train-60-epochs,1,736,NaN,clock,clock,0,0736_s5n_dnn_0_clock_00_clock10-oven2.png
densenet121-train-60-epochs,1,737,NaN,bottle,clock,0,0737_s5n_dnn_0_clock_00_clock10-truck2.png
densenet121-train-60-epochs,1,738,NaN,clock,clock,0,0738_s5n_dnn_0_clock_00_clock2-bear2.png
densenet121-train-60-epochs,1,739,NaN,clock,clock,0,0739_s5n_dnn_0_clock_00_clock2-bicycle1.png
densenet121-train-60-epochs,1,740,NaN,clock,clock,0,0740_s5n_dnn_0_clock_00_clock2-bottle3.png
densenet121-train-60-epochs,1,741,NaN,clock,clock,0,0741_s5n_dnn_0_clock_00_clock2-clock3.png
densenet121-train-60-epochs,1,742,NaN,clock,clock,0,0742_s5n_dnn_0_clock_00_clock2-dog1.png
densenet121-train-60-epochs,1,743,NaN,clock,clock,0,0743_s5n_dnn_0_clock_00_clock2-elephant2.png
densenet121-train-60-epochs,1,744,NaN,clock,clock,0,0744_s5n_dnn_0_clock_00_clock2-knife1.png
densenet121-train-60-epochs,1,745,NaN,clock,clock,0,0745_s5n_dnn_0_clock_00_clock3-bear3.png
densenet121-train-60-epochs,1,746,NaN,clock,clock,0,0746_s5n_dnn_0_clock_00_clock3-bicycle2.png
densenet121-train-60-epochs,1,747,NaN,clock,clock,0,0747_s5n_dnn_0_clock_00_clock3-bird1.png
densenet121-train-60-epochs,1,748,NaN,clock,clock,0,0748_s5n_dnn_0_clock_00_clock3-car2.png
densenet121-train-60-epochs,1,749,NaN,clock,clock,0,0749_s5n_dnn_0_clock_00_clock3-cat1.png
densenet121-train-60-epochs,1,750,NaN,clock,clock,0,0750_s5n_dnn_0_clock_00_clock3-dog2.png
densenet121-train-60-epochs,1,751,NaN,clock,clock,0,0751_s5n_dnn_0_clock_00_clock3-elephant3.png
densenet121-train-60-epochs,1,752,NaN,clock,clock,0,0752_s5n_dnn_0_clock_00_clock3-keyboard3.png
densenet121-train-60-epochs,1,753,NaN,clock,clock,0,0753_s5n_dnn_0_clock_00_clock4-airplane1.png
densenet121-train-60-epochs,1,754,NaN,clock,clock,0,0754_s5n_dnn_0_clock_00_clock4-bird3.png
densenet121-train-60-epochs,1,755,NaN,clock,clock,0,0755_s5n_dnn_0_clock_00_clock4-boat3.png
densenet121-train-60-epochs,1,756,NaN,clock,clock,0,0756_s5n_dnn_0_clock_00_clock4-bottle3.png
densenet121-train-60-epochs,1,757,NaN,clock,clock,0,0757_s5n_dnn_0_clock_00_clock4-car2.png
densenet121-train-60-epochs,1,758,NaN,clock,clock,0,0758_s5n_dnn_0_clock_00_clock4-chair1.png
densenet121-train-60-epochs,1,759,NaN,clock,clock,0,0759_s5n_dnn_0_clock_00_clock4-elephant2.png
densenet121-train-60-epochs,1,760,NaN,clock,clock,0,0760_s5n_dnn_0_clock_00_clock4-knife1.png
densenet121-train-60-epochs,1,761,NaN,clock,clock,0,0761_s5n_dnn_0_clock_00_clock4-oven1.png
densenet121-train-60-epochs,1,762,NaN,clock,clock,0,0762_s5n_dnn_0_clock_00_clock5-airplane1.png
densenet121-train-60-epochs,1,763,NaN,clock,clock,0,0763_s5n_dnn_0_clock_00_clock5-bicycle1.png
densenet121-train-60-epochs,1,764,NaN,clock,clock,0,0764_s5n_dnn_0_clock_00_clock5-chair3.png
densenet121-train-60-epochs,1,765,NaN,clock,clock,0,0765_s5n_dnn_0_clock_00_clock5-clock2.png
densenet121-train-60-epochs,1,766,NaN,clock,clock,0,0766_s5n_dnn_0_clock_00_clock5-elephant2.png
densenet121-train-60-epochs,1,767,NaN,clock,clock,0,0767_s5n_dnn_0_clock_00_clock5-keyboard1.png
densenet121-train-60-epochs,1,768,NaN,clock,clock,0,0768_s5n_dnn_0_clock_00_clock5-oven1.png
densenet121-train-60-epochs,1,769,NaN,clock,clock,0,0769_s5n_dnn_0_clock_00_clock6-bicycle1.png
densenet121-train-60-epochs,1,770,NaN,clock,clock,0,0770_s5n_dnn_0_clock_00_clock6-bird3.png
densenet121-train-60-epochs,1,771,NaN,clock,clock,0,0771_s5n_dnn_0_clock_00_clock6-bottle1.png
densenet121-train-60-epochs,1,772,NaN,clock,clock,0,0772_s5n_dnn_0_clock_00_clock6-car2.png
densenet121-train-60-epochs,1,773,NaN,clock,clock,0,0773_s5n_dnn_0_clock_00_clock6-chair3.png
densenet121-train-60-epochs,1,774,NaN,clock,clock,0,0774_s5n_dnn_0_clock_00_clock6-clock2.png
densenet121-train-60-epochs,1,775,NaN,clock,clock,0,0775_s5n_dnn_0_clock_00_clock6-knife2.png
densenet121-train-60-epochs,1,776,NaN,clock,clock,0,0776_s5n_dnn_0_clock_00_clock6-oven1.png
densenet121-train-60-epochs,1,777,NaN,clock,clock,0,0777_s5n_dnn_0_clock_00_clock6-truck3.png
densenet121-train-60-epochs,1,778,NaN,clock,clock,0,0778_s5n_dnn_0_clock_00_clock7-bear2.png
densenet121-train-60-epochs,1,779,NaN,clock,clock,0,0779_s5n_dnn_0_clock_00_clock7-bicycle1.png
densenet121-train-60-epochs,1,780,NaN,clock,clock,0,0780_s5n_dnn_0_clock_00_clock7-boat3.png
densenet121-train-60-epochs,1,781,NaN,clock,clock,0,0781_s5n_dnn_0_clock_00_clock7-bottle2.png
densenet121-train-60-epochs,1,782,NaN,clock,clock,0,0782_s5n_dnn_0_clock_00_clock7-car1.png
densenet121-train-60-epochs,1,783,NaN,clock,clock,0,0783_s5n_dnn_0_clock_00_clock7-cat2.png
densenet121-train-60-epochs,1,784,NaN,clock,clock,0,0784_s5n_dnn_0_clock_00_clock7-dog2.png
densenet121-train-60-epochs,1,785,NaN,clock,clock,0,0785_s5n_dnn_0_clock_00_clock7-keyboard2.png
densenet121-train-60-epochs,1,786,NaN,clock,clock,0,0786_s5n_dnn_0_clock_00_clock7-truck3.png
densenet121-train-60-epochs,1,787,NaN,clock,clock,0,0787_s5n_dnn_0_clock_00_clock8-airplane2.png
densenet121-train-60-epochs,1,788,NaN,clock,clock,0,0788_s5n_dnn_0_clock_00_clock8-bear2.png
densenet121-train-60-epochs,1,789,NaN,clock,clock,0,0789_s5n_dnn_0_clock_00_clock8-boat1.png
densenet121-train-60-epochs,1,790,NaN,clock,clock,0,0790_s5n_dnn_0_clock_00_clock8-cat1.png
densenet121-train-60-epochs,1,791,NaN,clock,clock,0,0791_s5n_dnn_0_clock_00_clock8-chair2.png
densenet121-train-60-epochs,1,792,NaN,clock,clock,0,0792_s5n_dnn_0_clock_00_clock8-keyboard1.png
densenet121-train-60-epochs,1,793,NaN,clock,clock,0,0793_s5n_dnn_0_clock_00_clock8-knife1.png
densenet121-train-60-epochs,1,794,NaN,clock,clock,0,0794_s5n_dnn_0_clock_00_clock8-oven3.png
densenet121-train-60-epochs,1,795,NaN,clock,clock,0,0795_s5n_dnn_0_clock_00_clock8-truck2.png
densenet121-train-60-epochs,1,796,NaN,clock,clock,0,0796_s5n_dnn_0_clock_00_clock9-airplane1.png
densenet121-train-60-epochs,1,797,NaN,clock,clock,0,0797_s5n_dnn_0_clock_00_clock9-bird2.png
densenet121-train-60-epochs,1,798,NaN,clock,clock,0,0798_s5n_dnn_0_clock_00_clock9-cat1.png
densenet121-train-60-epochs,1,799,NaN,clock,clock,0,0799_s5n_dnn_0_clock_00_clock9-chair3.png
densenet121-train-60-epochs,1,800,NaN,clock,clock,0,0800_s5n_dnn_0_clock_00_clock9-keyboard2.png
densenet121-train-60-epochs,1,801,NaN,dog,dog,0,0801_s5n_dnn_0_dog_00_dog1-airplane3.png
densenet121-train-60-epochs,1,802,NaN,dog,dog,0,0802_s5n_dnn_0_dog_00_dog1-bear1.png
densenet121-train-60-epochs,1,803,NaN,dog,dog,0,0803_s5n_dnn_0_dog_00_dog1-bird1.png
densenet121-train-60-epochs,1,804,NaN,dog,dog,0,0804_s5n_dnn_0_dog_00_dog1-boat3.png
densenet121-train-60-epochs,1,805,NaN,dog,dog,0,0805_s5n_dnn_0_dog_00_dog1-car2.png
densenet121-train-60-epochs,1,806,NaN,dog,dog,0,0806_s5n_dnn_0_dog_00_dog1-cat3.png
densenet121-train-60-epochs,1,807,NaN,dog,dog,0,0807_s5n_dnn_0_dog_00_dog1-chair1.png
densenet121-train-60-epochs,1,808,NaN,dog,dog,0,0808_s5n_dnn_0_dog_00_dog1-dog2.png
densenet121-train-60-epochs,1,809,NaN,dog,dog,0,0809_s5n_dnn_0_dog_00_dog1-knife3.png
densenet121-train-60-epochs,1,810,NaN,bird,dog,0,0810_s5n_dnn_0_dog_00_dog10-airplane1.png
densenet121-train-60-epochs,1,811,NaN,dog,dog,0,0811_s5n_dnn_0_dog_00_dog10-bicycle1.png
densenet121-train-60-epochs,1,812,NaN,dog,dog,0,0812_s5n_dnn_0_dog_00_dog10-bottle1.png
densenet121-train-60-epochs,1,813,NaN,dog,dog,0,0813_s5n_dnn_0_dog_00_dog10-car3.png
densenet121-train-60-epochs,1,814,NaN,dog,dog,0,0814_s5n_dnn_0_dog_00_dog10-clock1.png
densenet121-train-60-epochs,1,815,NaN,chair,dog,0,0815_s5n_dnn_0_dog_00_dog10-dog1.png
densenet121-train-60-epochs,1,816,NaN,dog,dog,0,0816_s5n_dnn_0_dog_00_dog10-elephant1.png
densenet121-train-60-epochs,1,817,NaN,dog,dog,0,0817_s5n_dnn_0_dog_00_dog10-keyboard2.png
densenet121-train-60-epochs,1,818,NaN,dog,dog,0,0818_s5n_dnn_0_dog_00_dog10-oven2.png
densenet121-train-60-epochs,1,819,NaN,truck,dog,0,0819_s5n_dnn_0_dog_00_dog10-truck2.png
densenet121-train-60-epochs,1,820,NaN,boat,dog,0,0820_s5n_dnn_0_dog_00_dog2-airplane2.png
densenet121-train-60-epochs,1,821,NaN,dog,dog,0,0821_s5n_dnn_0_dog_00_dog2-bicycle2.png
densenet121-train-60-epochs,1,822,NaN,bird,dog,0,0822_s5n_dnn_0_dog_00_dog2-bottle2.png
densenet121-train-60-epochs,1,823,NaN,dog,dog,0,0823_s5n_dnn_0_dog_00_dog2-cat1.png
densenet121-train-60-epochs,1,824,NaN,dog,dog,0,0824_s5n_dnn_0_dog_00_dog2-dog3.png
densenet121-train-60-epochs,1,825,NaN,dog,dog,0,0825_s5n_dnn_0_dog_00_dog2-knife3.png
densenet121-train-60-epochs,1,826,NaN,dog,dog,0,0826_s5n_dnn_0_dog_00_dog3-bear3.png
densenet121-train-60-epochs,1,827,NaN,dog,dog,0,0827_s5n_dnn_0_dog_00_dog3-bird2.png
densenet121-train-60-epochs,1,828,NaN,chair,dog,0,0828_s5n_dnn_0_dog_00_dog3-boat1.png
densenet121-train-60-epochs,1,829,NaN,clock,dog,0,0829_s5n_dnn_0_dog_00_dog3-clock1.png
densenet121-train-60-epochs,1,830,NaN,dog,dog,0,0830_s5n_dnn_0_dog_00_dog3-dog1.png
densenet121-train-60-epochs,1,831,NaN,dog,dog,0,0831_s5n_dnn_0_dog_00_dog3-elephant2.png
densenet121-train-60-epochs,1,832,NaN,dog,dog,0,0832_s5n_dnn_0_dog_00_dog3-keyboard1.png
densenet121-train-60-epochs,1,833,NaN,dog,dog,0,0833_s5n_dnn_0_dog_00_dog3-knife3.png
densenet121-train-60-epochs,1,834,NaN,truck,dog,0,0834_s5n_dnn_0_dog_00_dog3-truck2.png
densenet121-train-60-epochs,1,835,NaN,dog,dog,0,0835_s5n_dnn_0_dog_00_dog4-airplane3.png
densenet121-train-60-epochs,1,836,NaN,clock,dog,0,0836_s5n_dnn_0_dog_00_dog4-bicycle1.png
densenet121-train-60-epochs,1,837,NaN,bird,dog,0,0837_s5n_dnn_0_dog_00_dog4-bird1.png
densenet121-train-60-epochs,1,838,NaN,clock,dog,0,0838_s5n_dnn_0_dog_00_dog4-bottle2.png
densenet121-train-60-epochs,1,839,NaN,bird,dog,0,0839_s5n_dnn_0_dog_00_dog4-cat3.png
densenet121-train-60-epochs,1,840,NaN,dog,dog,0,0840_s5n_dnn_0_dog_00_dog4-chair1.png
densenet121-train-60-epochs,1,841,NaN,dog,dog,0,0841_s5n_dnn_0_dog_00_dog4-clock1.png
densenet121-train-60-epochs,1,842,NaN,cat,dog,0,0842_s5n_dnn_0_dog_00_dog4-elephant2.png
densenet121-train-60-epochs,1,843,NaN,clock,dog,0,0843_s5n_dnn_0_dog_00_dog4-keyboard2.png
densenet121-train-60-epochs,1,844,NaN,dog,dog,0,0844_s5n_dnn_0_dog_00_dog4-oven1.png
densenet121-train-60-epochs,1,845,NaN,boat,dog,0,0845_s5n_dnn_0_dog_00_dog4-truck2.png
densenet121-train-60-epochs,1,846,NaN,dog,dog,0,0846_s5n_dnn_0_dog_00_dog5-bear3.png
densenet121-train-60-epochs,1,847,NaN,dog,dog,0,0847_s5n_dnn_0_dog_00_dog5-boat3.png
densenet121-train-60-epochs,1,848,NaN,dog,dog,0,0848_s5n_dnn_0_dog_00_dog5-car3.png
densenet121-train-60-epochs,1,849,NaN,dog,dog,0,0849_s5n_dnn_0_dog_00_dog5-elephant1.png
densenet121-train-60-epochs,1,850,NaN,dog,dog,0,0850_s5n_dnn_0_dog_00_dog5-knife2.png
densenet121-train-60-epochs,1,851,NaN,dog,dog,0,0851_s5n_dnn_0_dog_00_dog5-oven1.png
densenet121-train-60-epochs,1,852,NaN,elephant,dog,0,0852_s5n_dnn_0_dog_00_dog5-truck2.png
densenet121-train-60-epochs,1,853,NaN,dog,dog,0,0853_s5n_dnn_0_dog_00_dog6-bicycle1.png
densenet121-train-60-epochs,1,854,NaN,dog,dog,0,0854_s5n_dnn_0_dog_00_dog6-bird1.png
densenet121-train-60-epochs,1,855,NaN,dog,dog,0,0855_s5n_dnn_0_dog_00_dog6-cat1.png
densenet121-train-60-epochs,1,856,NaN,dog,dog,0,0856_s5n_dnn_0_dog_00_dog6-clock1.png
densenet121-train-60-epochs,1,857,NaN,cat,dog,0,0857_s5n_dnn_0_dog_00_dog6-elephant2.png
densenet121-train-60-epochs,1,858,NaN,dog,dog,0,0858_s5n_dnn_0_dog_00_dog6-truck2.png
densenet121-train-60-epochs,1,859,NaN,dog,dog,0,0859_s5n_dnn_0_dog_00_dog7-bird3.png
densenet121-train-60-epochs,1,860,NaN,bird,dog,0,0860_s5n_dnn_0_dog_00_dog7-car2.png
densenet121-train-60-epochs,1,861,NaN,bird,dog,0,0861_s5n_dnn_0_dog_00_dog7-chair2.png
densenet121-train-60-epochs,1,862,NaN,clock,dog,0,0862_s5n_dnn_0_dog_00_dog7-keyboard3.png
densenet121-train-60-epochs,1,863,NaN,dog,dog,0,0863_s5n_dnn_0_dog_00_dog7-knife3.png
densenet121-train-60-epochs,1,864,NaN,bottle,dog,0,0864_s5n_dnn_0_dog_00_dog7-oven2.png
densenet121-train-60-epochs,1,865,NaN,bird,dog,0,0865_s5n_dnn_0_dog_00_dog8-bear3.png
densenet121-train-60-epochs,1,866,NaN,dog,dog,0,0866_s5n_dnn_0_dog_00_dog8-boat3.png
densenet121-train-60-epochs,1,867,NaN,elephant,dog,0,0867_s5n_dnn_0_dog_00_dog8-bottle2.png
densenet121-train-60-epochs,1,868,NaN,bird,dog,0,0868_s5n_dnn_0_dog_00_dog8-chair3.png
densenet121-train-60-epochs,1,869,NaN,dog,dog,0,0869_s5n_dnn_0_dog_00_dog8-clock2.png
densenet121-train-60-epochs,1,870,NaN,dog,dog,0,0870_s5n_dnn_0_dog_00_dog8-dog3.png
densenet121-train-60-epochs,1,871,NaN,clock,dog,0,0871_s5n_dnn_0_dog_00_dog8-keyboard3.png
densenet121-train-60-epochs,1,872,NaN,dog,dog,0,0872_s5n_dnn_0_dog_00_dog8-oven3.png
densenet121-train-60-epochs,1,873,NaN,dog,dog,0,0873_s5n_dnn_0_dog_00_dog9-airplane3.png
densenet121-train-60-epochs,1,874,NaN,bird,dog,0,0874_s5n_dnn_0_dog_00_dog9-bear3.png
densenet121-train-60-epochs,1,875,NaN,dog,dog,0,0875_s5n_dnn_0_dog_00_dog9-bicycle3.png
densenet121-train-60-epochs,1,876,NaN,dog,dog,0,0876_s5n_dnn_0_dog_00_dog9-boat1.png
densenet121-train-60-epochs,1,877,NaN,dog,dog,0,0877_s5n_dnn_0_dog_00_dog9-bottle1.png
densenet121-train-60-epochs,1,878,NaN,dog,dog,0,0878_s5n_dnn_0_dog_00_dog9-car1.png
densenet121-train-60-epochs,1,879,NaN,dog,dog,0,0879_s5n_dnn_0_dog_00_dog9-cat1.png
densenet121-train-60-epochs,1,880,NaN,chair,dog,0,0880_s5n_dnn_0_dog_00_dog9-chair2.png
densenet121-train-60-epochs,1,881,NaN,bird,elephant,0,0881_s5n_dnn_0_elephant_00_elephant1-airplane2.png
densenet121-train-60-epochs,1,882,NaN,elephant,elephant,0,0882_s5n_dnn_0_elephant_00_elephant1-bear2.png
densenet121-train-60-epochs,1,883,NaN,elephant,elephant,0,0883_s5n_dnn_0_elephant_00_elephant1-boat2.png
densenet121-train-60-epochs,1,884,NaN,dog,elephant,0,0884_s5n_dnn_0_elephant_00_elephant1-bottle1.png
densenet121-train-60-epochs,1,885,NaN,chair,elephant,0,0885_s5n_dnn_0_elephant_00_elephant1-car3.png
densenet121-train-60-epochs,1,886,NaN,dog,elephant,0,0886_s5n_dnn_0_elephant_00_elephant1-chair1.png
densenet121-train-60-epochs,1,887,NaN,elephant,elephant,0,0887_s5n_dnn_0_elephant_00_elephant1-dog2.png
densenet121-train-60-epochs,1,888,NaN,clock,elephant,0,0888_s5n_dnn_0_elephant_00_elephant1-keyboard3.png
densenet121-train-60-epochs,1,889,NaN,elephant,elephant,0,0889_s5n_dnn_0_elephant_00_elephant1-oven2.png
densenet121-train-60-epochs,1,890,NaN,elephant,elephant,0,0890_s5n_dnn_0_elephant_00_elephant10-bear1.png
densenet121-train-60-epochs,1,891,NaN,elephant,elephant,0,0891_s5n_dnn_0_elephant_00_elephant10-elephant1.png
densenet121-train-60-epochs,1,892,NaN,elephant,elephant,0,0892_s5n_dnn_0_elephant_00_elephant10-keyboard1.png
densenet121-train-60-epochs,1,893,NaN,elephant,elephant,0,0893_s5n_dnn_0_elephant_00_elephant10-knife3.png
densenet121-train-60-epochs,1,894,NaN,dog,elephant,0,0894_s5n_dnn_0_elephant_00_elephant2-airplane3.png
densenet121-train-60-epochs,1,895,NaN,elephant,elephant,0,0895_s5n_dnn_0_elephant_00_elephant2-bear3.png
densenet121-train-60-epochs,1,896,NaN,bottle,elephant,0,0896_s5n_dnn_0_elephant_00_elephant2-bird1.png
densenet121-train-60-epochs,1,897,NaN,bottle,elephant,0,0897_s5n_dnn_0_elephant_00_elephant2-boat1.png
densenet121-train-60-epochs,1,898,NaN,elephant,elephant,0,0898_s5n_dnn_0_elephant_00_elephant2-bottle3.png
densenet121-train-60-epochs,1,899,NaN,dog,elephant,0,0899_s5n_dnn_0_elephant_00_elephant2-cat1.png
densenet121-train-60-epochs,1,900,NaN,chair,elephant,0,0900_s5n_dnn_0_elephant_00_elephant2-clock1.png
densenet121-train-60-epochs,1,901,NaN,clock,elephant,0,0901_s5n_dnn_0_elephant_00_elephant2-elephant3.png
densenet121-train-60-epochs,1,902,NaN,bottle,elephant,0,0902_s5n_dnn_0_elephant_00_elephant2-keyboard3.png
densenet121-train-60-epochs,1,903,NaN,truck,elephant,0,0903_s5n_dnn_0_elephant_00_elephant2-truck2.png
densenet121-train-60-epochs,1,904,NaN,cat,elephant,0,0904_s5n_dnn_0_elephant_00_elephant3-cat2.png
densenet121-train-60-epochs,1,905,NaN,elephant,elephant,0,0905_s5n_dnn_0_elephant_00_elephant3-chair1.png
densenet121-train-60-epochs,1,906,NaN,bottle,elephant,0,0906_s5n_dnn_0_elephant_00_elephant3-keyboard2.png
densenet121-train-60-epochs,1,907,NaN,elephant,elephant,0,0907_s5n_dnn_0_elephant_00_elephant3-knife1.png
densenet121-train-60-epochs,1,908,NaN,elephant,elephant,0,0908_s5n_dnn_0_elephant_00_elephant3-oven1.png
densenet121-train-60-epochs,1,909,NaN,elephant,elephant,0,0909_s5n_dnn_0_elephant_00_elephant3-truck1.png
densenet121-train-60-epochs,1,910,NaN,elephant,elephant,0,0910_s5n_dnn_0_elephant_00_elephant4-bicycle2.png
densenet121-train-60-epochs,1,911,NaN,elephant,elephant,0,0911_s5n_dnn_0_elephant_00_elephant4-bird1.png
densenet121-train-60-epochs,1,912,NaN,dog,elephant,0,0912_s5n_dnn_0_elephant_00_elephant4-boat3.png
densenet121-train-60-epochs,1,913,NaN,elephant,elephant,0,0913_s5n_dnn_0_elephant_00_elephant4-car3.png
densenet121-train-60-epochs,1,914,NaN,elephant,elephant,0,0914_s5n_dnn_0_elephant_00_elephant4-chair3.png
densenet121-train-60-epochs,1,915,NaN,elephant,elephant,0,0915_s5n_dnn_0_elephant_00_elephant4-clock3.png
densenet121-train-60-epochs,1,916,NaN,elephant,elephant,0,0916_s5n_dnn_0_elephant_00_elephant4-oven1.png
densenet121-train-60-epochs,1,917,NaN,elephant,elephant,0,0917_s5n_dnn_0_elephant_00_elephant5-bear2.png
densenet121-train-60-epochs,1,918,NaN,elephant,elephant,0,0918_s5n_dnn_0_elephant_00_elephant5-bicycle3.png
densenet121-train-60-epochs,1,919,NaN,elephant,elephant,0,0919_s5n_dnn_0_elephant_00_elephant5-bottle2.png
densenet121-train-60-epochs,1,920,NaN,elephant,elephant,0,0920_s5n_dnn_0_elephant_00_elephant5-car1.png
densenet121-train-60-epochs,1,921,NaN,elephant,elephant,0,0921_s5n_dnn_0_elephant_00_elephant5-chair3.png
densenet121-train-60-epochs,1,922,NaN,elephant,elephant,0,0922_s5n_dnn_0_elephant_00_elephant5-elephant1.png
densenet121-train-60-epochs,1,923,NaN,elephant,elephant,0,0923_s5n_dnn_0_elephant_00_elephant5-truck1.png
densenet121-train-60-epochs,1,924,NaN,elephant,elephant,0,0924_s5n_dnn_0_elephant_00_elephant6-bicycle1.png
densenet121-train-60-epochs,1,925,NaN,chair,elephant,0,0925_s5n_dnn_0_elephant_00_elephant6-bird1.png
densenet121-train-60-epochs,1,926,NaN,elephant,elephant,0,0926_s5n_dnn_0_elephant_00_elephant6-bottle2.png
densenet121-train-60-epochs,1,927,NaN,elephant,elephant,0,0927_s5n_dnn_0_elephant_00_elephant6-car3.png
densenet121-train-60-epochs,1,928,NaN,elephant,elephant,0,0928_s5n_dnn_0_elephant_00_elephant6-cat2.png
densenet121-train-60-epochs,1,929,NaN,elephant,elephant,0,0929_s5n_dnn_0_elephant_00_elephant6-dog2.png
densenet121-train-60-epochs,1,930,NaN,elephant,elephant,0,0930_s5n_dnn_0_elephant_00_elephant6-knife2.png
densenet121-train-60-epochs,1,931,NaN,elephant,elephant,0,0931_s5n_dnn_0_elephant_00_elephant6-oven1.png
densenet121-train-60-epochs,1,932,NaN,elephant,elephant,0,0932_s5n_dnn_0_elephant_00_elephant6-truck3.png
densenet121-train-60-epochs,1,933,NaN,elephant,elephant,0,0933_s5n_dnn_0_elephant_00_elephant7-airplane3.png
densenet121-train-60-epochs,1,934,NaN,bird,elephant,0,0934_s5n_dnn_0_elephant_00_elephant7-bear3.png
densenet121-train-60-epochs,1,935,NaN,chair,elephant,0,0935_s5n_dnn_0_elephant_00_elephant7-bird1.png
densenet121-train-60-epochs,1,936,NaN,elephant,elephant,0,0936_s5n_dnn_0_elephant_00_elephant7-bottle3.png
densenet121-train-60-epochs,1,937,NaN,bicycle,elephant,0,0937_s5n_dnn_0_elephant_00_elephant7-car3.png
densenet121-train-60-epochs,1,938,NaN,cat,elephant,0,0938_s5n_dnn_0_elephant_00_elephant7-cat1.png
densenet121-train-60-epochs,1,939,NaN,elephant,elephant,0,0939_s5n_dnn_0_elephant_00_elephant7-clock2.png
densenet121-train-60-epochs,1,940,NaN,dog,elephant,0,0940_s5n_dnn_0_elephant_00_elephant7-dog1.png
densenet121-train-60-epochs,1,941,NaN,clock,elephant,0,0941_s5n_dnn_0_elephant_00_elephant7-keyboard3.png
densenet121-train-60-epochs,1,942,NaN,elephant,elephant,0,0942_s5n_dnn_0_elephant_00_elephant7-knife2.png
densenet121-train-60-epochs,1,943,NaN,elephant,elephant,0,0943_s5n_dnn_0_elephant_00_elephant8-airplane3.png
densenet121-train-60-epochs,1,944,NaN,bottle,elephant,0,0944_s5n_dnn_0_elephant_00_elephant8-bicycle3.png
densenet121-train-60-epochs,1,945,NaN,elephant,elephant,0,0945_s5n_dnn_0_elephant_00_elephant8-bird2.png
densenet121-train-60-epochs,1,946,NaN,bird,elephant,0,0946_s5n_dnn_0_elephant_00_elephant8-boat2.png
densenet121-train-60-epochs,1,947,NaN,dog,elephant,0,0947_s5n_dnn_0_elephant_00_elephant8-cat1.png
densenet121-train-60-epochs,1,948,NaN,dog,elephant,0,0948_s5n_dnn_0_elephant_00_elephant8-clock2.png
densenet121-train-60-epochs,1,949,NaN,dog,elephant,0,0949_s5n_dnn_0_elephant_00_elephant8-dog1.png
densenet121-train-60-epochs,1,950,NaN,elephant,elephant,0,0950_s5n_dnn_0_elephant_00_elephant8-elephant1.png
densenet121-train-60-epochs,1,951,NaN,elephant,elephant,0,0951_s5n_dnn_0_elephant_00_elephant8-knife2.png
densenet121-train-60-epochs,1,952,NaN,elephant,elephant,0,0952_s5n_dnn_0_elephant_00_elephant8-oven3.png
densenet121-train-60-epochs,1,953,NaN,elephant,elephant,0,0953_s5n_dnn_0_elephant_00_elephant8-truck3.png
densenet121-train-60-epochs,1,954,NaN,elephant,elephant,0,0954_s5n_dnn_0_elephant_00_elephant9-airplane2.png
densenet121-train-60-epochs,1,955,NaN,elephant,elephant,0,0955_s5n_dnn_0_elephant_00_elephant9-bicycle2.png
densenet121-train-60-epochs,1,956,NaN,elephant,elephant,0,0956_s5n_dnn_0_elephant_00_elephant9-boat3.png
densenet121-train-60-epochs,1,957,NaN,elephant,elephant,0,0957_s5n_dnn_0_elephant_00_elephant9-chair2.png
densenet121-train-60-epochs,1,958,NaN,elephant,elephant,0,0958_s5n_dnn_0_elephant_00_elephant9-clock3.png
densenet121-train-60-epochs,1,959,NaN,dog,elephant,0,0959_s5n_dnn_0_elephant_00_elephant9-dog3.png
densenet121-train-60-epochs,1,960,NaN,elephant,elephant,0,0960_s5n_dnn_0_elephant_00_elephant9-elephant3.png
densenet121-train-60-epochs,1,961,NaN,clock,keyboard,0,0961_s5n_dnn_0_keyboard_00_keyboard1-airplane2.png
densenet121-train-60-epochs,1,962,NaN,bear,keyboard,0,0962_s5n_dnn_0_keyboard_00_keyboard1-bear2.png
densenet121-train-60-epochs,1,963,NaN,dog,keyboard,0,0963_s5n_dnn_0_keyboard_00_keyboard1-bird2.png
densenet121-train-60-epochs,1,964,NaN,oven,keyboard,0,0964_s5n_dnn_0_keyboard_00_keyboard1-car3.png
densenet121-train-60-epochs,1,965,NaN,keyboard,keyboard,0,0965_s5n_dnn_0_keyboard_00_keyboard1-chair2.png
densenet121-train-60-epochs,1,966,NaN,clock,keyboard,0,0966_s5n_dnn_0_keyboard_00_keyboard1-clock1.png
densenet121-train-60-epochs,1,967,NaN,dog,keyboard,0,0967_s5n_dnn_0_keyboard_00_keyboard1-dog3.png
densenet121-train-60-epochs,1,968,NaN,car,keyboard,0,0968_s5n_dnn_0_keyboard_00_keyboard1-elephant3.png
densenet121-train-60-epochs,1,969,NaN,keyboard,keyboard,0,0969_s5n_dnn_0_keyboard_00_keyboard10-airplane3.png
densenet121-train-60-epochs,1,970,NaN,keyboard,keyboard,0,0970_s5n_dnn_0_keyboard_00_keyboard10-boat2.png
densenet121-train-60-epochs,1,971,NaN,keyboard,keyboard,0,0971_s5n_dnn_0_keyboard_00_keyboard10-car1.png
densenet121-train-60-epochs,1,972,NaN,keyboard,keyboard,0,0972_s5n_dnn_0_keyboard_00_keyboard10-keyboard1.png
densenet121-train-60-epochs,1,973,NaN,oven,keyboard,0,0973_s5n_dnn_0_keyboard_00_keyboard10-oven3.png
densenet121-train-60-epochs,1,974,NaN,chair,keyboard,0,0974_s5n_dnn_0_keyboard_00_keyboard10-truck1.png
densenet121-train-60-epochs,1,975,NaN,bird,keyboard,0,0975_s5n_dnn_0_keyboard_00_keyboard2-bicycle3.png
densenet121-train-60-epochs,1,976,NaN,bird,keyboard,0,0976_s5n_dnn_0_keyboard_00_keyboard2-bottle1.png
densenet121-train-60-epochs,1,977,NaN,clock,keyboard,0,0977_s5n_dnn_0_keyboard_00_keyboard2-clock1.png
densenet121-train-60-epochs,1,978,NaN,keyboard,keyboard,0,0978_s5n_dnn_0_keyboard_00_keyboard2-elephant1.png
densenet121-train-60-epochs,1,979,NaN,boat,keyboard,0,0979_s5n_dnn_0_keyboard_00_keyboard2-knife1.png
densenet121-train-60-epochs,1,980,NaN,bottle,keyboard,0,0980_s5n_dnn_0_keyboard_00_keyboard3-bicycle2.png
densenet121-train-60-epochs,1,981,NaN,oven,keyboard,0,0981_s5n_dnn_0_keyboard_00_keyboard3-bird3.png
densenet121-train-60-epochs,1,982,NaN,bottle,keyboard,0,0982_s5n_dnn_0_keyboard_00_keyboard3-boat1.png
densenet121-train-60-epochs,1,983,NaN,oven,keyboard,0,0983_s5n_dnn_0_keyboard_00_keyboard3-car2.png
densenet121-train-60-epochs,1,984,NaN,dog,keyboard,0,0984_s5n_dnn_0_keyboard_00_keyboard3-cat1.png
densenet121-train-60-epochs,1,985,NaN,bottle,keyboard,0,0985_s5n_dnn_0_keyboard_00_keyboard3-clock3.png
densenet121-train-60-epochs,1,986,NaN,elephant,keyboard,0,0986_s5n_dnn_0_keyboard_00_keyboard3-elephant2.png
densenet121-train-60-epochs,1,987,NaN,keyboard,keyboard,0,0987_s5n_dnn_0_keyboard_00_keyboard4-bird1.png
densenet121-train-60-epochs,1,988,NaN,bottle,keyboard,0,0988_s5n_dnn_0_keyboard_00_keyboard4-bottle2.png
densenet121-train-60-epochs,1,989,NaN,cat,keyboard,0,0989_s5n_dnn_0_keyboard_00_keyboard4-cat2.png
densenet121-train-60-epochs,1,990,NaN,keyboard,keyboard,0,0990_s5n_dnn_0_keyboard_00_keyboard4-clock2.png
densenet121-train-60-epochs,1,991,NaN,bottle,keyboard,0,0991_s5n_dnn_0_keyboard_00_keyboard4-keyboard2.png
densenet121-train-60-epochs,1,992,NaN,keyboard,keyboard,0,0992_s5n_dnn_0_keyboard_00_keyboard4-knife2.png
densenet121-train-60-epochs,1,993,NaN,oven,keyboard,0,0993_s5n_dnn_0_keyboard_00_keyboard4-oven2.png
densenet121-train-60-epochs,1,994,NaN,cat,keyboard,0,0994_s5n_dnn_0_keyboard_00_keyboard4-truck3.png
densenet121-train-60-epochs,1,995,NaN,keyboard,keyboard,0,0995_s5n_dnn_0_keyboard_00_keyboard5-airplane3.png
densenet121-train-60-epochs,1,996,NaN,bird,keyboard,0,0996_s5n_dnn_0_keyboard_00_keyboard5-bear3.png
densenet121-train-60-epochs,1,997,NaN,keyboard,keyboard,0,0997_s5n_dnn_0_keyboard_00_keyboard5-bicycle1.png
densenet121-train-60-epochs,1,998,NaN,chair,keyboard,0,0998_s5n_dnn_0_keyboard_00_keyboard5-bird3.png
densenet121-train-60-epochs,1,999,NaN,keyboard,keyboard,0,0999_s5n_dnn_0_keyboard_00_keyboard5-bottle1.png
densenet121-train-60-epochs,1,1000,NaN,dog,keyboard,0,1000_s5n_dnn_0_keyboard_00_keyboard5-cat1.png
densenet121-train-60-epochs,1,1001,NaN,dog,keyboard,0,1001_s5n_dnn_0_keyboard_00_keyboard5-dog3.png
densenet121-train-60-epochs,1,1002,NaN,keyboard,keyboard,0,1002_s5n_dnn_0_keyboard_00_keyboard5-keyboard1.png
densenet121-train-60-epochs,1,1003,NaN,keyboard,keyboard,0,1003_s5n_dnn_0_keyboard_00_keyboard5-knife2.png
densenet121-train-60-epochs,1,1004,NaN,oven,keyboard,0,1004_s5n_dnn_0_keyboard_00_keyboard5-oven2.png
densenet121-train-60-epochs,1,1005,NaN,bear,keyboard,0,1005_s5n_dnn_0_keyboard_00_keyboard6-bear2.png
densenet121-train-60-epochs,1,1006,NaN,bottle,keyboard,0,1006_s5n_dnn_0_keyboard_00_keyboard6-bicycle1.png
densenet121-train-60-epochs,1,1007,NaN,bottle,keyboard,0,1007_s5n_dnn_0_keyboard_00_keyboard6-boat2.png
densenet121-train-60-epochs,1,1008,NaN,bottle,keyboard,0,1008_s5n_dnn_0_keyboard_00_keyboard6-bottle2.png
densenet121-train-60-epochs,1,1009,NaN,truck,keyboard,0,1009_s5n_dnn_0_keyboard_00_keyboard6-car2.png
densenet121-train-60-epochs,1,1010,NaN,clock,keyboard,0,1010_s5n_dnn_0_keyboard_00_keyboard6-chair1.png
densenet121-train-60-epochs,1,1011,NaN,dog,keyboard,0,1011_s5n_dnn_0_keyboard_00_keyboard6-dog2.png
densenet121-train-60-epochs,1,1012,NaN,cat,keyboard,0,1012_s5n_dnn_0_keyboard_00_keyboard6-elephant1.png
densenet121-train-60-epochs,1,1013,NaN,truck,keyboard,0,1013_s5n_dnn_0_keyboard_00_keyboard6-knife2.png
densenet121-train-60-epochs,1,1014,NaN,bird,keyboard,0,1014_s5n_dnn_0_keyboard_00_keyboard7-bear2.png
densenet121-train-60-epochs,1,1015,NaN,bird,keyboard,0,1015_s5n_dnn_0_keyboard_00_keyboard7-boat2.png
densenet121-train-60-epochs,1,1016,NaN,bird,keyboard,0,1016_s5n_dnn_0_keyboard_00_keyboard7-bottle1.png
densenet121-train-60-epochs,1,1017,NaN,oven,keyboard,0,1017_s5n_dnn_0_keyboard_00_keyboard7-car3.png
densenet121-train-60-epochs,1,1018,NaN,bird,keyboard,0,1018_s5n_dnn_0_keyboard_00_keyboard7-chair3.png
densenet121-train-60-epochs,1,1019,NaN,bird,keyboard,0,1019_s5n_dnn_0_keyboard_00_keyboard7-clock3.png
densenet121-train-60-epochs,1,1020,NaN,bird,keyboard,0,1020_s5n_dnn_0_keyboard_00_keyboard7-dog1.png
densenet121-train-60-epochs,1,1021,NaN,keyboard,keyboard,0,1021_s5n_dnn_0_keyboard_00_keyboard7-knife1.png
densenet121-train-60-epochs,1,1022,NaN,dog,keyboard,0,1022_s5n_dnn_0_keyboard_00_keyboard7-oven2.png
densenet121-train-60-epochs,1,1023,NaN,truck,keyboard,0,1023_s5n_dnn_0_keyboard_00_keyboard7-truck2.png
densenet121-train-60-epochs,1,1024,NaN,keyboard,keyboard,0,1024_s5n_dnn_0_keyboard_00_keyboard8-airplane2.png
densenet121-train-60-epochs,1,1025,NaN,bottle,keyboard,0,1025_s5n_dnn_0_keyboard_00_keyboard8-cat3.png
densenet121-train-60-epochs,1,1026,NaN,keyboard,keyboard,0,1026_s5n_dnn_0_keyboard_00_keyboard8-chair2.png
densenet121-train-60-epochs,1,1027,NaN,dog,keyboard,0,1027_s5n_dnn_0_keyboard_00_keyboard8-dog3.png
densenet121-train-60-epochs,1,1028,NaN,keyboard,keyboard,0,1028_s5n_dnn_0_keyboard_00_keyboard8-keyboard2.png
densenet121-train-60-epochs,1,1029,NaN,keyboard,keyboard,0,1029_s5n_dnn_0_keyboard_00_keyboard8-oven1.png
densenet121-train-60-epochs,1,1030,NaN,keyboard,keyboard,0,1030_s5n_dnn_0_keyboard_00_keyboard8-truck3.png
densenet121-train-60-epochs,1,1031,NaN,keyboard,keyboard,0,1031_s5n_dnn_0_keyboard_00_keyboard9-airplane3.png
densenet121-train-60-epochs,1,1032,NaN,bear,keyboard,0,1032_s5n_dnn_0_keyboard_00_keyboard9-bear2.png
densenet121-train-60-epochs,1,1033,NaN,bird,keyboard,0,1033_s5n_dnn_0_keyboard_00_keyboard9-bicycle2.png
densenet121-train-60-epochs,1,1034,NaN,bottle,keyboard,0,1034_s5n_dnn_0_keyboard_00_keyboard9-bird1.png
densenet121-train-60-epochs,1,1035,NaN,boat,keyboard,0,1035_s5n_dnn_0_keyboard_00_keyboard9-boat2.png
densenet121-train-60-epochs,1,1036,NaN,keyboard,keyboard,0,1036_s5n_dnn_0_keyboard_00_keyboard9-cat1.png
densenet121-train-60-epochs,1,1037,NaN,keyboard,keyboard,0,1037_s5n_dnn_0_keyboard_00_keyboard9-chair2.png
densenet121-train-60-epochs,1,1038,NaN,cat,keyboard,0,1038_s5n_dnn_0_keyboard_00_keyboard9-elephant2.png
densenet121-train-60-epochs,1,1039,NaN,clock,keyboard,0,1039_s5n_dnn_0_keyboard_00_keyboard9-keyboard2.png
densenet121-train-60-epochs,1,1040,NaN,boat,keyboard,0,1040_s5n_dnn_0_keyboard_00_keyboard9-truck3.png
densenet121-train-60-epochs,1,1041,NaN,bird,knife,0,1041_s5n_dnn_0_knife_00_knife1-airplane1.png
densenet121-train-60-epochs,1,1042,NaN,knife,knife,0,1042_s5n_dnn_0_knife_00_knife1-bird2.png
densenet121-train-60-epochs,1,1043,NaN,boat,knife,0,1043_s5n_dnn_0_knife_00_knife1-car3.png
