subj,session,trial,rt,object_response,category,condition,imagename
subject-09,1,1,1.12934708595276,clock,clock,0,0001_stg_s09_0_clock_00_clock9-keyboard2.png
subject-09,1,2,1.50025701522827,cat,boat,0,0002_stg_s09_0_boat_00_boat10-bear3.png
subject-09,1,3,1.24914884567261,keyboard,keyboard,0,0003_stg_s09_0_keyboard_00_keyboard1-clock1.png
subject-09,1,4,0.900561094284058,knife,knife,0,0004_stg_s09_0_knife_00_knife7-bottle3.png
subject-09,1,5,0.905865907669067,elephant,elephant,0,0005_stg_s09_0_elephant_00_elephant8-dog1.png
subject-09,1,6,0.920253038406372,bear,airplane,0,0006_stg_s09_0_airplane_00_airplane10-bear3.png
subject-09,1,7,0.757426023483276,boat,boat,0,0007_stg_s09_0_boat_00_boat2-bottle2.png
subject-09,1,8,1.12496399879456,dog,bird,0,0008_stg_s09_0_bird_00_bird1-keyboard3.png
subject-09,1,9,0.868834972381592,elephant,elephant,0,0009_stg_s09_0_elephant_00_elephant5-truck1.png
subject-09,1,10,0.667207002639771,truck,truck,0,0010_stg_s09_0_truck_00_truck2-keyboard1.png
subject-09,1,11,0.69746208190918,cat,cat,0,0011_stg_s09_0_cat_00_cat6-oven1.png
subject-09,1,12,1.09502696990967,bottle,keyboard,0,0012_stg_s09_0_keyboard_00_keyboard2-bottle1.png
subject-09,1,13,0.986468076705933,chair,chair,0,0013_stg_s09_0_chair_00_chair5-bottle3.png
subject-09,1,14,1.01666903495789,knife,boat,0,0014_stg_s09_0_boat_00_boat8-oven1.png
subject-09,1,15,0.659995079040527,bottle,bottle,0,0015_stg_s09_0_bottle_00_bottle6-boat3.png
subject-09,1,16,1.25762915611267,bird,bird,0,0016_stg_s09_0_bird_00_bird8-keyboard2.png
subject-09,1,17,0.800504922866821,boat,airplane,0,0017_stg_s09_0_airplane_00_airplane3-car1.png
subject-09,1,18,0.806605815887451,keyboard,keyboard,0,0018_stg_s09_0_keyboard_00_keyboard9-airplane3.png
subject-09,1,19,0.783138990402222,car,car,0,0019_stg_s09_0_car_00_car3-dog2.png
subject-09,1,20,0.704300165176392,chair,chair,0,0020_stg_s09_0_chair_00_chair9-bicycle3.png
subject-09,1,21,0.968763113021851,oven,dog,0,0021_stg_s09_0_dog_00_dog10-oven2.png
subject-09,1,22,0.911965847015381,bird,bird,0,0022_stg_s09_0_bird_00_bird3-cat1.png
subject-09,1,23,1.35550284385681,cat,cat,0,0023_stg_s09_0_cat_00_cat2-bottle3.png
subject-09,1,24,0.777911186218262,keyboard,oven,0,0024_stg_s09_0_oven_00_oven2-truck3.png
subject-09,1,25,0.67028284072876,car,car,0,0025_stg_s09_0_car_00_car2-knife3.png
subject-09,1,26,1.22986483573914,cat,bird,0,0026_stg_s09_0_bird_00_bird3-bottle2.png
subject-09,1,27,0.767616033554077,airplane,airplane,0,0027_stg_s09_0_airplane_00_airplane10-oven2.png
subject-09,1,28,0.735746145248413,clock,clock,0,0028_stg_s09_0_clock_00_clock1-boat3.png
subject-09,1,29,0.811805963516235,car,truck,0,0029_stg_s09_0_truck_00_truck6-cat2.png
subject-09,1,30,1.04719305038452,bicycle,bicycle,0,0030_stg_s09_0_bicycle_00_bicycle1-elephant2.png
subject-09,1,31,0.79158091545105,clock,clock,0,0031_stg_s09_0_clock_00_clock9-cat1.png
subject-09,1,32,0.796711921691895,bird,bird,0,0032_stg_s09_0_bird_00_bird2-dog2.png
subject-09,1,33,1.04240584373474,bear,elephant,0,0033_stg_s09_0_elephant_00_elephant2-elephant3.png
subject-09,1,34,0.832834959030151,cat,cat,0,0034_stg_s09_0_cat_00_cat4-oven1.png
subject-09,1,35,0.933732032775879,chair,chair,0,0035_stg_s09_0_chair_00_chair5-bird1.png
subject-09,1,36,0.871595859527588,clock,clock,0,0036_stg_s09_0_clock_00_clock8-bear2.png
subject-09,1,37,0.886209964752197,truck,truck,0,0037_stg_s09_0_truck_00_truck3-knife2.png
subject-09,1,38,0.829122066497803,knife,knife,0,0038_stg_s09_0_knife_00_knife10-keyboard3.png
subject-09,1,39,1.20479798316956,chair,chair,0,0039_stg_s09_0_chair_00_chair5-bicycle1.png
subject-09,1,40,0.872537136077881,elephant,elephant,0,0040_stg_s09_0_elephant_00_elephant7-car3.png
subject-09,1,41,0.886780023574829,boat,dog,0,0041_stg_s09_0_dog_00_dog8-keyboard3.png
subject-09,1,42,1.20044994354248,bicycle,bicycle,0,0042_stg_s09_0_bicycle_00_bicycle6-dog2.png
subject-09,1,43,1.50003409385681,elephant,dog,0,0043_stg_s09_0_dog_00_dog7-knife3.png
subject-09,1,44,0.813300132751465,dog,dog,0,0044_stg_s09_0_dog_00_dog4-oven1.png
subject-09,1,45,0.834243059158325,boat,knife,0,0045_stg_s09_0_knife_00_knife7-elephant2.png
subject-09,1,46,0.702516794204712,car,car,0,0046_stg_s09_0_car_00_car6-boat1.png
subject-09,1,47,0.987398147583008,dog,dog,0,0047_stg_s09_0_dog_00_dog1-knife3.png
subject-09,1,48,1.31497597694397,dog,dog,0,0048_stg_s09_0_dog_00_dog3-bird2.png
subject-09,1,49,0.92799186706543,dog,dog,0,0049_stg_s09_0_dog_00_dog7-keyboard3.png
subject-09,1,50,0.829034090042114,elephant,elephant,0,0050_stg_s09_0_elephant_00_elephant8-knife2.png
subject-09,1,51,0.926386117935181,bicycle,bicycle,0,0051_stg_s09_0_bicycle_00_bicycle10-clock2.png
subject-09,1,52,1.44102597236633,bear,bear,0,0052_stg_s09_0_bear_00_bear3-keyboard2.png
subject-09,1,53,0.987704038619995,bear,elephant,0,0053_stg_s09_0_elephant_00_elephant5-chair3.png
subject-09,1,54,1.07740807533264,knife,bicycle,0,0054_stg_s09_0_bicycle_00_bicycle4-keyboard3.png
subject-09,1,55,0.930965900421143,car,oven,0,0055_stg_s09_0_oven_00_oven1-clock3.png
subject-09,1,56,0.953310012817383,bicycle,bicycle,0,0056_stg_s09_0_bicycle_00_bicycle9-chair1.png
subject-09,1,57,0.997193098068237,bicycle,bicycle,0,0057_stg_s09_0_bicycle_00_bicycle4-clock3.png
subject-09,1,58,0.881372928619385,dog,dog,0,0058_stg_s09_0_dog_00_dog2-dog3.png
subject-09,1,59,0.678783893585205,clock,clock,0,0059_stg_s09_0_clock_00_clock2-dog1.png
subject-09,1,60,0.924896955490112,car,boat,0,0060_stg_s09_0_boat_00_boat10-truck1.png
subject-09,1,61,0.90615701675415,bird,bird,0,0061_stg_s09_0_bird_00_bird5-truck2.png
subject-09,1,62,1.02063989639282,keyboard,keyboard,0,0062_stg_s09_0_keyboard_00_keyboard8-chair2.png
subject-09,1,63,0.887135982513428,bird,cat,0,0063_stg_s09_0_cat_00_cat4-knife1.png
subject-09,1,64,0.840321063995361,bottle,bottle,0,0064_stg_s09_0_bottle_00_bottle5-airplane1.png
subject-09,1,65,0.852994918823242,bird,bird,0,0065_stg_s09_0_bird_00_bird6-airplane2.png
subject-09,1,66,0.859408140182495,bird,bird,0,0066_stg_s09_0_bird_00_bird4-airplane1.png
subject-09,1,67,0.940502166748047,car,car,0,0067_stg_s09_0_car_00_car7-car1.png
subject-09,1,68,1.17793107032776,knife,airplane,0,0068_stg_s09_0_airplane_00_airplane8-elephant3.png
subject-09,1,69,1.01405501365662,car,car,0,0069_stg_s09_0_car_00_car4-bicycle3.png
subject-09,1,70,0.790284156799316,bird,bird,0,0070_stg_s09_0_bird_00_bird5-bear3.png
subject-09,1,71,0.874581098556519,truck,truck,0,0071_stg_s09_0_truck_00_truck5-bird2.png
subject-09,1,72,0.853402853012085,truck,truck,0,0072_stg_s09_0_truck_00_truck9-airplane2.png
subject-09,1,73,0.927255868911743,elephant,airplane,0,0073_stg_s09_0_airplane_00_airplane10-elephant1.png
subject-09,1,74,0.835592031478882,boat,boat,0,0074_stg_s09_0_boat_00_boat1-car2.png
subject-09,1,75,0.741434097290039,bicycle,bicycle,0,0075_stg_s09_0_bicycle_00_bicycle4-airplane1.png
subject-09,1,76,0.955957889556885,bear,bear,0,0076_stg_s09_0_bear_00_bear1-bear3.png
subject-09,1,77,0.869652032852173,airplane,airplane,0,0077_stg_s09_0_airplane_00_airplane4-car1.png
subject-09,1,78,1.40781402587891,car,airplane,0,0078_stg_s09_0_airplane_00_airplane6-chair3.png
subject-09,1,79,1.09260201454163,truck,bear,0,0079_stg_s09_0_bear_00_bear4-boat2.png
subject-09,1,80,0.684354066848755,car,car,0,0080_stg_s09_0_car_00_car3-airplane3.png
subject-09,1,81,0.689606904983521,bicycle,bicycle,0,0081_stg_s09_0_bicycle_00_bicycle10-elephant2.png
subject-09,1,82,0.747488021850586,chair,chair,0,0082_stg_s09_0_chair_00_chair8-boat1.png
subject-09,1,83,0.831377983093262,bear,bear,0,0083_stg_s09_0_bear_00_bear3-bird3.png
subject-09,1,84,0.77547812461853,bear,bear,0,0084_stg_s09_0_bear_00_bear5-chair1.png
subject-09,1,85,0.821448087692261,bicycle,bicycle,0,0085_stg_s09_0_bicycle_00_bicycle8-chair2.png
subject-09,1,86,0.602583885192871,boat,boat,0,0086_stg_s09_0_boat_00_boat10-boat3.png
subject-09,1,87,0.856582164764404,elephant,car,0,0087_stg_s09_0_car_00_car1-dog2.png
subject-09,1,88,1.35484600067139,chair,truck,0,0088_stg_s09_0_truck_00_truck7-keyboard3.png
subject-09,1,89,0.890625953674316,chair,chair,0,0089_stg_s09_0_chair_00_chair4-truck2.png
subject-09,1,90,1.02851915359497,chair,chair,0,0090_stg_s09_0_chair_00_chair2-boat1.png
subject-09,1,91,0.934290885925293,truck,truck,0,0091_stg_s09_0_truck_00_truck3-oven2.png
subject-09,1,92,0.756288051605225,keyboard,keyboard,0,0092_stg_s09_0_keyboard_00_keyboard6-bicycle1.png
subject-09,1,93,0.595067024230957,car,car,0,0093_stg_s09_0_car_00_car3-boat1.png
subject-09,1,94,0.817302942276001,bottle,bottle,0,0094_stg_s09_0_bottle_00_bottle4-airplane1.png
subject-09,1,95,0.698544979095459,oven,oven,0,0095_stg_s09_0_oven_00_oven2-oven3.png
subject-09,1,96,1.09846711158752,bicycle,bicycle,0,0096_stg_s09_0_bicycle_00_bicycle6-car2.png
subject-09,1,97,0.780816078186035,keyboard,keyboard,0,0097_stg_s09_0_keyboard_00_keyboard5-airplane3.png
subject-09,1,98,0.91858696937561,knife,knife,0,0098_stg_s09_0_knife_00_knife1-dog1.png
subject-09,1,99,0.978449106216431,keyboard,keyboard,0,0099_stg_s09_0_keyboard_00_keyboard8-keyboard2.png
subject-09,1,100,0.754787921905518,oven,oven,0,0100_stg_s09_0_oven_00_oven4-bicycle2.png
subject-09,1,101,0.799219846725464,bottle,bottle,0,0101_stg_s09_0_bottle_00_bottle9-bicycle1.png
subject-09,1,102,0.883316040039062,chair,chair,0,0102_stg_s09_0_chair_00_chair7-boat3.png
subject-09,1,103,0.913360834121704,dog,dog,0,0103_stg_s09_0_dog_00_dog2-airplane2.png
subject-09,1,104,0.649144172668457,boat,boat,0,0104_stg_s09_0_boat_00_boat9-clock1.png
subject-09,1,105,0.817502975463867,car,cat,0,0105_stg_s09_0_cat_00_cat5-airplane2.png
subject-09,1,106,1.14440417289734,bear,cat,0,0106_stg_s09_0_cat_00_cat10-bird2.png
subject-09,1,107,0.874419212341309,knife,knife,0,0107_stg_s09_0_knife_00_knife1-keyboard3.png
subject-09,1,108,1.21035289764404,chair,truck,0,0108_stg_s09_0_truck_00_truck3-keyboard3.png
subject-09,1,109,0.788545846939087,truck,truck,0,0109_stg_s09_0_truck_00_truck8-cat2.png
subject-09,1,110,0.83235502243042,oven,oven,0,0110_stg_s09_0_oven_00_oven9-clock2.png
subject-09,1,111,0.884944915771484,car,car,0,0111_stg_s09_0_car_00_car4-elephant3.png
subject-09,1,112,1.34395217895508,cat,cat,0,0112_stg_s09_0_cat_00_cat1-chair2.png
subject-09,1,113,0.933937072753906,boat,airplane,0,0113_stg_s09_0_airplane_00_airplane4-bicycle2.png
subject-09,1,114,0.702345132827759,bird,bird,0,0114_stg_s09_0_bird_00_bird5-bird1.png
subject-09,1,115,0.977987051010132,chair,oven,0,0115_stg_s09_0_oven_00_oven8-chair1.png
subject-09,1,116,0.838196992874146,bear,bear,0,0116_stg_s09_0_bear_00_bear4-clock3.png
subject-09,1,117,0.844213008880615,bird,bird,0,0117_stg_s09_0_bird_00_bird6-oven1.png
subject-09,1,118,1.04186987876892,keyboard,knife,0,0118_stg_s09_0_knife_00_knife6-clock2.png
subject-09,1,119,0.794826030731201,oven,oven,0,0119_stg_s09_0_oven_00_oven6-bear2.png
subject-09,1,120,1.23878192901611,truck,elephant,0,0120_stg_s09_0_elephant_00_elephant6-truck3.png
subject-09,1,121,1.1446430683136,knife,knife,0,0121_stg_s09_0_knife_00_knife9-bicycle1.png
subject-09,1,122,0.913706064224243,bottle,bottle,0,0122_stg_s09_0_bottle_00_bottle3-cat3.png
subject-09,1,123,1.30567002296448,car,knife,0,0123_stg_s09_0_knife_00_knife1-oven1.png
subject-09,1,124,0.873295068740845,bicycle,bicycle,0,0124_stg_s09_0_bicycle_00_bicycle7-clock3.png
subject-09,1,125,1.47203516960144,bicycle,dog,0,0125_stg_s09_0_dog_00_dog7-oven2.png
subject-09,1,126,0.739876985549927,clock,clock,0,0126_stg_s09_0_clock_00_clock4-elephant2.png
subject-09,1,127,0.929236888885498,bird,airplane,0,0127_stg_s09_0_airplane_00_airplane4-bear3.png
subject-09,1,128,0.866878032684326,knife,knife,0,0128_stg_s09_0_knife_00_knife6-knife1.png
subject-09,1,129,0.788585901260376,boat,boat,0,0129_stg_s09_0_boat_00_boat9-boat3.png
subject-09,1,130,0.94083309173584,elephant,airplane,0,0130_stg_s09_0_airplane_00_airplane2-bear1.png
subject-09,1,131,1.167729139328,cat,dog,0,0131_stg_s09_0_dog_00_dog9-airplane3.png
subject-09,1,132,0.697718858718872,keyboard,keyboard,0,0132_stg_s09_0_keyboard_00_keyboard5-bird3.png
subject-09,1,133,0.796027183532715,oven,oven,0,0133_stg_s09_0_oven_00_oven4-clock2.png
subject-09,1,134,0.747622966766357,bottle,bottle,0,0134_stg_s09_0_bottle_00_bottle1-bear1.png
subject-09,1,135,0.678184032440186,bicycle,bicycle,0,0135_stg_s09_0_bicycle_00_bicycle6-boat2.png
subject-09,1,136,1.09784197807312,bird,bird,0,0136_stg_s09_0_bird_00_bird6-bottle3.png
subject-09,1,137,0.798220872879028,elephant,elephant,0,0137_stg_s09_0_elephant_00_elephant1-boat2.png
subject-09,1,138,0.649681091308594,oven,oven,0,0138_stg_s09_0_oven_00_oven10-bicycle1.png
subject-09,1,139,0.771538972854614,dog,dog,0,0139_stg_s09_0_dog_00_dog3-keyboard1.png
subject-09,1,140,0.839835166931152,truck,truck,0,0140_stg_s09_0_truck_00_truck2-airplane3.png
subject-09,1,141,1.04332089424133,airplane,airplane,0,0141_stg_s09_0_airplane_00_airplane8-bicycle3.png
subject-09,1,142,0.867284059524536,truck,truck,0,0142_stg_s09_0_truck_00_truck7-boat1.png
subject-09,1,143,0.741729021072388,clock,clock,0,0143_stg_s09_0_clock_00_clock4-oven1.png
subject-09,1,144,0.741868019104004,cat,cat,0,0144_stg_s09_0_cat_00_cat6-keyboard3.png
subject-09,1,145,0.724003791809082,bicycle,bicycle,0,0145_stg_s09_0_bicycle_00_bicycle1-bird1.png
subject-09,1,146,0.875859975814819,elephant,elephant,0,0146_stg_s09_0_elephant_00_elephant1-dog2.png
subject-09,1,147,0.905387878417969,elephant,elephant,0,0147_stg_s09_0_elephant_00_elephant7-clock2.png
subject-09,1,148,0.881840944290161,knife,knife,0,0148_stg_s09_0_knife_00_knife9-bird1.png
subject-09,1,149,0.609214067459106,bottle,bottle,0,0149_stg_s09_0_bottle_00_bottle3-airplane2.png
subject-09,1,150,0.806944847106934,truck,truck,0,0150_stg_s09_0_truck_00_truck9-chair3.png
subject-09,1,151,1.37577700614929,car,car,0,0151_stg_s09_0_car_00_car8-cat1.png
subject-09,1,152,0.888875007629395,bear,bear,0,0152_stg_s09_0_bear_00_bear7-oven3.png
subject-09,1,153,0.89487099647522,bottle,bottle,0,0153_stg_s09_0_bottle_00_bottle5-oven2.png
subject-09,1,154,0.894994974136353,car,car,0,0154_stg_s09_0_car_00_car8-truck3.png
subject-09,1,155,0.615442037582397,chair,chair,0,0155_stg_s09_0_chair_00_chair10-oven1.png
subject-09,1,156,0.783967018127441,knife,knife,0,0156_stg_s09_0_knife_00_knife5-bicycle2.png
subject-09,1,157,0.82153582572937,bird,bird,0,0157_stg_s09_0_bird_00_bird3-dog1.png
subject-09,1,158,0.719848871231079,boat,oven,0,0158_stg_s09_0_oven_00_oven9-knife3.png
subject-09,1,159,0.673686027526855,keyboard,keyboard,0,0159_stg_s09_0_keyboard_00_keyboard1-bear2.png
subject-09,1,160,0.726063013076782,truck,truck,0,0160_stg_s09_0_truck_00_truck1-chair2.png
subject-09,1,161,0.845600128173828,airplane,dog,0,0161_stg_s09_0_dog_00_dog5-knife2.png
subject-09,1,162,0.628742933273315,oven,oven,0,0162_stg_s09_0_oven_00_oven2-bottle1.png
subject-09,1,163,0.7427659034729,truck,cat,0,0163_stg_s09_0_cat_00_cat7-truck2.png
subject-09,1,164,0.694659948348999,oven,oven,0,0164_stg_s09_0_oven_00_oven5-bottle3.png
subject-09,1,165,1.18494582176208,car,chair,0,0165_stg_s09_0_chair_00_chair6-truck2.png
subject-09,1,166,0.868829011917114,bear,bear,0,0166_stg_s09_0_bear_00_bear2-knife2.png
subject-09,1,167,0.912739992141724,elephant,dog,0,0167_stg_s09_0_dog_00_dog5-truck2.png
subject-09,1,168,1.27224493026733,bottle,boat,0,0168_stg_s09_0_boat_00_boat6-clock2.png
subject-09,1,169,0.694691181182861,car,car,0,0169_stg_s09_0_car_00_car5-truck3.png
subject-09,1,170,1.00131106376648,truck,truck,0,0170_stg_s09_0_truck_00_truck5-car1.png
subject-09,1,171,0.906701803207397,knife,knife,0,0171_stg_s09_0_knife_00_knife10-knife1.png
subject-09,1,172,0.829791069030762,bird,bird,0,0172_stg_s09_0_bird_00_bird2-airplane3.png
subject-09,1,173,0.835500001907349,cat,cat,0,0173_stg_s09_0_cat_00_cat4-chair2.png
subject-09,1,174,0.933686971664429,oven,bear,0,0174_stg_s09_0_bear_00_bear4-keyboard3.png
subject-09,1,175,0.879690885543823,bottle,dog,0,0175_stg_s09_0_dog_00_dog4-bicycle1.png
subject-09,1,176,1.39360976219177,bicycle,bicycle,0,0176_stg_s09_0_bicycle_00_bicycle3-elephant2.png
subject-09,1,177,0.962337017059326,dog,bear,0,0177_stg_s09_0_bear_00_bear9-keyboard3.png
subject-09,1,178,0.975992202758789,keyboard,keyboard,0,0178_stg_s09_0_keyboard_00_keyboard3-bicycle2.png
subject-09,1,179,0.805903196334839,bird,bird,0,0179_stg_s09_0_bird_00_bird7-keyboard3.png
subject-09,1,180,0.949872970581055,bear,car,0,0180_stg_s09_0_car_00_car9-keyboard2.png
subject-09,1,181,0.634348154067993,oven,oven,0,0181_stg_s09_0_oven_00_oven9-bird3.png
subject-09,1,182,0.815051794052124,elephant,bear,0,0182_stg_s09_0_bear_00_bear6-cat3.png
subject-09,1,183,0.675987005233765,car,car,0,0183_stg_s09_0_car_00_car7-oven2.png
subject-09,1,184,0.852138996124268,chair,chair,0,0184_stg_s09_0_chair_00_chair9-boat2.png
subject-09,1,185,0.703241109848022,cat,cat,0,0185_stg_s09_0_cat_00_cat1-dog1.png
subject-09,1,186,0.733620166778564,bottle,bottle,0,0186_stg_s09_0_bottle_00_bottle9-elephant2.png
subject-09,1,187,0.868926048278809,bottle,bottle,0,0187_stg_s09_0_bottle_00_bottle8-bird1.png
subject-09,1,188,0.691351890563965,airplane,airplane,0,0188_stg_s09_0_airplane_00_airplane1-chair2.png
subject-09,1,189,0.718391895294189,bear,bear,0,0189_stg_s09_0_bear_00_bear7-dog3.png
subject-09,1,190,0.664488077163696,boat,boat,0,0190_stg_s09_0_boat_00_boat5-airplane1.png
subject-09,1,191,0.784369945526123,airplane,airplane,0,0191_stg_s09_0_airplane_00_airplane4-boat3.png
subject-09,1,192,0.835777997970581,bottle,bottle,0,0192_stg_s09_0_bottle_00_bottle4-truck1.png
subject-09,1,193,1.50022912025452,airplane,airplane,0,0193_stg_s09_0_airplane_00_airplane4-elephant1.png
subject-09,1,194,1.02400183677673,clock,clock,0,0194_stg_s09_0_clock_00_clock8-truck2.png
subject-09,1,195,0.707675218582153,chair,chair,0,0195_stg_s09_0_chair_00_chair3-bicycle3.png
subject-09,1,196,0.661377906799316,bear,bear,0,0196_stg_s09_0_bear_00_bear3-airplane1.png
subject-09,1,197,1.06544613838196,elephant,boat,0,0197_stg_s09_0_boat_00_boat1-bear1.png
subject-09,1,198,1.04166507720947,keyboard,keyboard,0,0198_stg_s09_0_keyboard_00_keyboard1-car3.png
subject-09,1,199,0.80179500579834,knife,knife,0,0199_stg_s09_0_knife_00_knife1-bird2.png
subject-09,1,200,0.64782190322876,oven,oven,0,0200_stg_s09_0_oven_00_oven4-dog1.png
subject-09,1,201,0.583523988723755,boat,boat,0,0201_stg_s09_0_boat_00_boat6-bottle2.png
subject-09,1,202,0.689038991928101,airplane,airplane,0,0202_stg_s09_0_airplane_00_airplane1-bicycle2.png
subject-09,1,203,0.849156141281128,airplane,airplane,0,0203_stg_s09_0_airplane_00_airplane7-cat3.png
subject-09,1,204,1.26062893867493,truck,truck,0,0204_stg_s09_0_truck_00_truck6-boat2.png
subject-09,1,205,0.999039173126221,car,oven,0,0205_stg_s09_0_oven_00_oven8-keyboard3.png
subject-09,1,206,0.86612606048584,car,truck,0,0206_stg_s09_0_truck_00_truck9-elephant1.png
subject-09,1,207,0.708945035934448,chair,chair,0,0207_stg_s09_0_chair_00_chair8-bear1.png
subject-09,1,208,1.05257391929626,elephant,elephant,0,0208_stg_s09_0_elephant_00_elephant5-bottle2.png
subject-09,1,209,1.13430118560791,airplane,airplane,0,0209_stg_s09_0_airplane_00_airplane6-keyboard3.png
subject-09,1,210,0.918412923812866,airplane,airplane,0,0210_stg_s09_0_airplane_00_airplane7-car1.png
subject-09,1,211,0.708523035049438,car,car,0,0211_stg_s09_0_car_00_car6-bottle1.png
subject-09,1,212,0.776335954666138,oven,oven,0,0212_stg_s09_0_oven_00_oven6-truck1.png
subject-09,1,213,0.676755905151367,clock,clock,0,0213_stg_s09_0_clock_00_clock1-bear1.png
subject-09,1,214,1.0290629863739,chair,knife,0,0214_stg_s09_0_knife_00_knife4-oven2.png
subject-09,1,215,0.956294059753418,cat,bear,0,0215_stg_s09_0_bear_00_bear4-elephant2.png
subject-09,1,216,0.932036161422729,cat,cat,0,0216_stg_s09_0_cat_00_cat6-clock3.png
subject-09,1,217,0.713953971862793,boat,boat,0,0217_stg_s09_0_boat_00_boat9-cat3.png
subject-09,1,218,0.744267225265503,knife,knife,0,0218_stg_s09_0_knife_00_knife5-knife3.png
subject-09,1,219,1.0045337677002,bear,bear,0,0219_stg_s09_0_bear_00_bear5-airplane3.png
subject-09,1,220,0.887332916259766,car,boat,0,0220_stg_s09_0_boat_00_boat1-truck3.png
subject-09,1,221,0.993219137191772,truck,truck,0,0221_stg_s09_0_truck_00_truck9-truck3.png
subject-09,1,222,0.746808052062988,bear,bear,0,0222_stg_s09_0_bear_00_bear3-bicycle2.png
subject-09,1,223,0.767403125762939,boat,knife,0,0223_stg_s09_0_knife_00_knife6-chair3.png
subject-09,1,224,0.602447986602783,clock,clock,0,0224_stg_s09_0_clock_00_clock7-boat3.png
subject-09,1,225,0.792450904846191,chair,oven,0,0225_stg_s09_0_oven_00_oven7-dog2.png
subject-09,1,226,0.890790939331055,oven,oven,0,0226_stg_s09_0_oven_00_oven8-cat3.png
subject-09,1,227,0.699156999588013,clock,clock,0,0227_stg_s09_0_clock_00_clock2-clock3.png
subject-09,1,228,0.780084848403931,airplane,airplane,0,0228_stg_s09_0_airplane_00_airplane10-airplane1.png
subject-09,1,229,0.831899166107178,car,car,0,0229_stg_s09_0_car_00_car5-bottle1.png
subject-09,1,230,0.775749921798706,car,car,0,0230_stg_s09_0_car_00_car5-bear3.png
subject-09,1,231,1.21432399749756,oven,oven,0,0231_stg_s09_0_oven_00_oven9-bear2.png
subject-09,1,232,0.628811120986938,oven,oven,0,0232_stg_s09_0_oven_00_oven9-boat2.png
subject-09,1,233,0.818234920501709,cat,dog,0,0233_stg_s09_0_dog_00_dog10-airplane1.png
subject-09,1,234,0.824250936508179,knife,airplane,0,0234_stg_s09_0_airplane_00_airplane4-knife1.png
subject-09,1,235,0.99878191947937,elephant,keyboard,0,0235_stg_s09_0_keyboard_00_keyboard2-elephant1.png
subject-09,1,236,0.975112915039062,elephant,elephant,0,0236_stg_s09_0_elephant_00_elephant4-car3.png
subject-09,1,237,1.28611898422241,airplane,boat,0,0237_stg_s09_0_boat_00_boat4-boat3.png
subject-09,1,238,0.832979917526245,truck,truck,0,0238_stg_s09_0_truck_00_truck2-elephant1.png
subject-09,1,239,0.708892107009888,bottle,bottle,0,0239_stg_s09_0_bottle_00_bottle3-bicycle3.png
subject-09,1,240,0.891535043716431,knife,airplane,0,0240_stg_s09_0_airplane_00_airplane10-knife3.png
subject-09,1,241,0.883012056350708,bird,bird,0,0241_stg_s09_0_bird_00_bird4-bicycle2.png
subject-09,1,242,0.865880966186523,dog,dog,0,0242_stg_s09_0_dog_00_dog10-bottle1.png
subject-09,1,243,0.789213180541992,truck,truck,0,0243_stg_s09_0_truck_00_truck2-oven3.png
subject-09,1,244,0.78178596496582,bear,bear,0,0244_stg_s09_0_bear_00_bear4-truck3.png
subject-09,1,245,0.887319087982178,bird,bird,0,0245_stg_s09_0_bird_00_bird9-dog2.png
subject-09,1,246,1.12249112129211,knife,elephant,0,0246_stg_s09_0_elephant_00_elephant10-elephant1.png
subject-09,1,247,1.15089321136475,knife,knife,0,0247_stg_s09_0_knife_00_knife9-bear3.png
subject-09,1,248,1.12665390968323,knife,knife,0,0248_stg_s09_0_knife_00_knife3-bear2.png
subject-09,1,249,0.79395318031311,bottle,bottle,0,0249_stg_s09_0_bottle_00_bottle2-car2.png
subject-09,1,250,0.905926942825317,chair,chair,0,0250_stg_s09_0_chair_00_chair10-bottle3.png
subject-09,1,251,1.15844011306763,bicycle,bicycle,0,0251_stg_s09_0_bicycle_00_bicycle1-bear1.png
subject-09,1,252,0.93300199508667,bear,bear,0,0252_stg_s09_0_bear_00_bear5-bottle1.png
subject-09,1,253,0.701385021209717,clock,clock,0,0253_stg_s09_0_clock_00_clock3-elephant3.png
subject-09,1,254,0.813148975372314,bicycle,bicycle,0,0254_stg_s09_0_bicycle_00_bicycle4-knife3.png
subject-09,1,255,0.83545708656311,bear,elephant,0,0255_stg_s09_0_elephant_00_elephant1-oven2.png
subject-09,1,256,0.71656608581543,clock,clock,0,0256_stg_s09_0_clock_00_clock7-cat2.png
subject-09,1,257,0.867290019989014,dog,dog,0,0257_stg_s09_0_dog_00_dog10-truck2.png
subject-09,1,258,0.813526153564453,bottle,bottle,0,0258_stg_s09_0_bottle_00_bottle6-oven3.png
subject-09,1,259,0.949586153030396,elephant,elephant,0,0259_stg_s09_0_elephant_00_elephant5-elephant1.png
subject-09,1,260,1.19304800033569,chair,chair,0,0260_stg_s09_0_chair_00_chair8-elephant1.png
subject-09,1,261,0.791378974914551,airplane,airplane,0,0261_stg_s09_0_airplane_00_airplane10-truck1.png
subject-09,1,262,1.45689797401428,oven,chair,0,0262_stg_s09_0_chair_00_chair6-elephant2.png
subject-09,1,263,0.694633007049561,clock,clock,0,0263_stg_s09_0_clock_00_clock10-bird3.png
subject-09,1,264,0.70904016494751,chair,chair,0,0264_stg_s09_0_chair_00_chair7-elephant1.png
subject-09,1,265,0.882659196853638,chair,boat,0,0265_stg_s09_0_boat_00_boat7-keyboard3.png
subject-09,1,266,0.696491956710815,bird,bird,0,0266_stg_s09_0_bird_00_bird10-bear2.png
subject-09,1,267,0.848257064819336,bear,bear,0,0267_stg_s09_0_bear_00_bear5-oven3.png
subject-09,1,268,0.945742845535278,elephant,elephant,0,0268_stg_s09_0_elephant_00_elephant9-boat3.png
subject-09,1,269,0.681617975234985,clock,oven,0,0269_stg_s09_0_oven_00_oven3-bear2.png
subject-09,1,270,0.871500968933105,airplane,keyboard,0,0270_stg_s09_0_keyboard_00_keyboard6-car2.png
subject-09,1,271,1.06320881843567,bird,dog,0,0271_stg_s09_0_dog_00_dog3-elephant2.png
subject-09,1,272,0.875648021697998,oven,oven,0,0272_stg_s09_0_oven_00_oven10-airplane2.png
subject-09,1,273,0.567687034606934,bottle,bottle,0,0273_stg_s09_0_bottle_00_bottle5-truck1.png
subject-09,1,274,0.503101110458374,clock,clock,0,0274_stg_s09_0_clock_00_clock9-chair3.png
subject-09,1,275,0.730748891830444,airplane,airplane,0,0275_stg_s09_0_airplane_00_airplane5-bicycle1.png
subject-09,1,276,0.960649967193604,knife,keyboard,0,0276_stg_s09_0_keyboard_00_keyboard6-elephant1.png
subject-09,1,277,0.966946840286255,keyboard,keyboard,0,0277_stg_s09_0_keyboard_00_keyboard4-bird1.png
subject-09,1,278,0.635117053985596,bicycle,bicycle,0,0278_stg_s09_0_bicycle_00_bicycle1-chair1.png
subject-09,1,279,0.730313062667847,car,truck,0,0279_stg_s09_0_truck_00_truck3-car3.png
subject-09,1,280,0.682729005813599,oven,oven,0,0280_stg_s09_0_oven_00_oven4-elephant3.png
subject-09,1,281,0.758699893951416,keyboard,keyboard,0,0281_stg_s09_0_keyboard_00_keyboard10-airplane3.png
subject-09,1,282,0.765277147293091,car,car,0,0282_stg_s09_0_car_00_car6-bicycle3.png
subject-09,1,283,0.84666109085083,bicycle,bicycle,0,0283_stg_s09_0_bicycle_00_bicycle4-boat1.png
subject-09,1,284,0.923247098922729,bear,bear,0,0284_stg_s09_0_bear_00_bear8-knife3.png
subject-09,1,285,0.721040964126587,dog,dog,0,0285_stg_s09_0_dog_00_dog6-clock1.png
subject-09,1,286,1.266282081604,dog,bear,0,0286_stg_s09_0_bear_00_bear1-bird2.png
subject-09,1,287,0.696055889129639,keyboard,keyboard,0,0287_stg_s09_0_keyboard_00_keyboard6-knife2.png
subject-09,1,288,0.710227966308594,bicycle,bicycle,0,0288_stg_s09_0_bicycle_00_bicycle8-clock3.png
subject-09,1,289,0.637570858001709,bottle,bottle,0,0289_stg_s09_0_bottle_00_bottle1-dog2.png
subject-09,1,290,0.681939840316772,keyboard,keyboard,0,0290_stg_s09_0_keyboard_00_keyboard5-cat1.png
subject-09,1,291,0.628280162811279,cat,cat,0,0291_stg_s09_0_cat_00_cat1-bird1.png
subject-09,1,292,1.00205898284912,airplane,knife,0,0292_stg_s09_0_knife_00_knife4-airplane3.png
subject-09,1,293,0.984200954437256,oven,boat,0,0293_stg_s09_0_boat_00_boat1-elephant3.png
subject-09,1,294,NaN,na,elephant,0,0294_stg_s09_0_elephant_00_elephant2-keyboard3.png
subject-09,1,295,0.887439012527466,boat,boat,0,0295_stg_s09_0_boat_00_boat5-bicycle3.png
subject-09,1,296,0.64709210395813,airplane,airplane,0,0296_stg_s09_0_airplane_00_airplane7-bottle3.png
subject-09,1,297,0.69978404045105,oven,knife,0,0297_stg_s09_0_knife_00_knife10-oven3.png
subject-09,1,298,0.697423934936523,knife,knife,0,0298_stg_s09_0_knife_00_knife4-clock3.png
subject-09,1,299,0.711836814880371,bottle,bottle,0,0299_stg_s09_0_bottle_00_bottle1-car1.png
subject-09,1,300,0.826319932937622,chair,chair,0,0300_stg_s09_0_chair_00_chair4-oven2.png
subject-09,1,301,1.00112819671631,chair,chair,0,0301_stg_s09_0_chair_00_chair4-cat2.png
subject-09,1,302,0.785244941711426,bird,bird,0,0302_stg_s09_0_bird_00_bird7-bottle1.png
subject-09,1,303,0.729090929031372,knife,knife,0,0303_stg_s09_0_knife_00_knife6-bicycle1.png
subject-09,1,304,0.697100877761841,oven,airplane,0,0304_stg_s09_0_airplane_00_airplane9-knife3.png
subject-09,1,305,0.841427803039551,elephant,elephant,0,0305_stg_s09_0_elephant_00_elephant8-boat2.png
subject-09,1,306,0.915241956710815,elephant,elephant,0,0306_stg_s09_0_elephant_00_elephant1-car3.png
subject-09,1,307,0.874856948852539,airplane,airplane,0,0307_stg_s09_0_airplane_00_airplane4-keyboard3.png
subject-09,1,308,0.879971981048584,knife,knife,0,0308_stg_s09_0_knife_00_knife1-car3.png
subject-09,1,309,1.27906584739685,oven,oven,0,0309_stg_s09_0_oven_00_oven4-keyboard3.png
subject-09,1,310,0.717357158660889,oven,oven,0,0310_stg_s09_0_oven_00_oven1-bird3.png
subject-09,1,311,0.891564130783081,oven,oven,0,0311_stg_s09_0_oven_00_oven6-airplane3.png
subject-09,1,312,0.581248998641968,cat,cat,0,0312_stg_s09_0_cat_00_cat1-car2.png
subject-09,1,313,0.67060399055481,knife,knife,0,0313_stg_s09_0_knife_00_knife5-dog1.png
subject-09,1,314,0.838544130325317,truck,truck,0,0314_stg_s09_0_truck_00_truck10-truck3.png
subject-09,1,315,1.39096307754517,boat,knife,0,0315_stg_s09_0_knife_00_knife4-car2.png
subject-09,1,316,0.767826080322266,bicycle,bicycle,0,0316_stg_s09_0_bicycle_00_bicycle2-dog1.png
subject-09,1,317,1.01191711425781,dog,dog,0,0317_stg_s09_0_dog_00_dog3-dog1.png
subject-09,1,318,0.855427026748657,cat,cat,0,0318_stg_s09_0_cat_00_cat1-oven1.png
subject-09,1,319,0.913144111633301,elephant,elephant,0,0319_stg_s09_0_elephant_00_elephant10-knife3.png
subject-09,1,320,0.928023099899292,bicycle,bicycle,0,0320_stg_s09_0_bicycle_00_bicycle8-truck1.png
subject-09,1,321,0.682115077972412,bird,bird,0,0321_stg_s09_0_bird_00_bird5-bicycle1.png
subject-09,1,322,0.872796058654785,cat,dog,0,0322_stg_s09_0_dog_00_dog2-knife3.png
subject-09,1,323,0.924015998840332,truck,truck,0,0323_stg_s09_0_truck_00_truck5-knife3.png
subject-09,1,324,0.691765069961548,cat,cat,0,0324_stg_s09_0_cat_00_cat7-bottle1.png
subject-09,1,325,0.849891185760498,bird,bird,0,0325_stg_s09_0_bird_00_bird8-knife2.png
subject-09,1,326,1.20958399772644,bird,bird,0,0326_stg_s09_0_bird_00_bird6-elephant2.png
subject-09,1,327,0.710071802139282,oven,oven,0,0327_stg_s09_0_oven_00_oven3-elephant3.png
subject-09,1,328,0.776494979858398,elephant,elephant,0,0328_stg_s09_0_elephant_00_elephant2-boat1.png
subject-09,1,329,0.714651107788086,clock,clock,0,0329_stg_s09_0_clock_00_clock6-truck3.png
subject-09,1,330,0.796233892440796,clock,clock,0,0330_stg_s09_0_clock_00_clock8-chair2.png
subject-09,1,331,0.77810001373291,cat,keyboard,0,0331_stg_s09_0_keyboard_00_keyboard7-bear2.png
subject-09,1,332,0.713057041168213,truck,truck,0,0332_stg_s09_0_truck_00_truck3-bird2.png
subject-09,1,333,0.827474117279053,bottle,bottle,0,0333_stg_s09_0_bottle_00_bottle8-keyboard3.png
subject-09,1,334,1.50006604194641,bird,dog,0,0334_stg_s09_0_dog_00_dog1-boat3.png
subject-09,1,335,0.87001895904541,elephant,elephant,0,0335_stg_s09_0_elephant_00_elephant2-bottle3.png
subject-09,1,336,0.676272869110107,truck,truck,0,0336_stg_s09_0_truck_00_truck5-truck1.png
subject-09,1,337,0.833333015441895,dog,dog,0,0337_stg_s09_0_dog_00_dog1-bird1.png
subject-09,1,338,0.807921171188354,boat,bear,0,0338_stg_s09_0_bear_00_bear7-truck1.png
subject-09,1,339,0.798470020294189,bear,bear,0,0339_stg_s09_0_bear_00_bear2-cat2.png
subject-09,1,340,0.834792137145996,bottle,bottle,0,0340_stg_s09_0_bottle_00_bottle6-bottle3.png
subject-09,1,341,0.756295919418335,car,car,0,0341_stg_s09_0_car_00_car3-bottle3.png
subject-09,1,342,0.824152946472168,bear,bear,0,0342_stg_s09_0_bear_00_bear8-truck3.png
subject-09,1,343,0.68417501449585,chair,chair,0,0343_stg_s09_0_chair_00_chair5-boat3.png
subject-09,1,344,0.688292026519775,clock,clock,0,0344_stg_s09_0_clock_00_clock8-keyboard1.png
subject-09,1,345,0.818485975265503,car,boat,0,0345_stg_s09_0_boat_00_boat10-oven1.png
subject-09,1,346,0.783941030502319,oven,keyboard,0,0346_stg_s09_0_keyboard_00_keyboard1-elephant3.png
subject-09,1,347,1.11982011795044,cat,dog,0,0347_stg_s09_0_dog_00_dog6-elephant2.png
subject-09,1,348,0.636163949966431,bear,bear,0,0348_stg_s09_0_bear_00_bear5-bicycle3.png
subject-09,1,349,0.709825038909912,boat,boat,0,0349_stg_s09_0_boat_00_boat4-chair2.png
subject-09,1,350,0.921726226806641,truck,truck,0,0350_stg_s09_0_truck_00_truck1-bicycle3.png
subject-09,1,351,0.744327068328857,cat,elephant,0,0351_stg_s09_0_elephant_00_elephant8-cat1.png
subject-09,1,352,0.741751909255981,bicycle,bicycle,0,0352_stg_s09_0_bicycle_00_bicycle1-boat3.png
subject-09,1,353,1.01835298538208,airplane,airplane,0,0353_stg_s09_0_airplane_00_airplane9-airplane2.png
subject-09,1,354,0.62377405166626,car,car,0,0354_stg_s09_0_car_00_car6-bear1.png
subject-09,1,355,0.751284837722778,clock,clock,0,0355_stg_s09_0_clock_00_clock9-bird2.png
subject-09,1,356,1.23941898345947,oven,boat,0,0356_stg_s09_0_boat_00_boat4-bird1.png
subject-09,1,357,0.784559011459351,car,car,0,0357_stg_s09_0_car_00_car1-clock2.png
subject-09,1,358,0.975260019302368,cat,bear,0,0358_stg_s09_0_bear_00_bear8-elephant2.png
subject-09,1,359,0.697406053543091,bicycle,bicycle,0,0359_stg_s09_0_bicycle_00_bicycle6-bicycle3.png
subject-09,1,360,1.3553159236908,boat,boat,0,0360_stg_s09_0_boat_00_boat2-oven3.png
subject-09,1,361,0.723215103149414,boat,boat,0,0361_stg_s09_0_boat_00_boat5-clock3.png
subject-09,1,362,0.753081083297729,truck,truck,0,0362_stg_s09_0_truck_00_truck10-bicycle1.png
subject-09,1,363,0.932873964309692,keyboard,keyboard,0,0363_stg_s09_0_keyboard_00_keyboard6-dog2.png
subject-09,1,364,1.16878914833069,car,car,0,0364_stg_s09_0_car_00_car5-knife2.png
subject-09,1,365,0.699342966079712,boat,boat,0,0365_stg_s09_0_boat_00_boat2-keyboard1.png
subject-09,1,366,0.651695013046265,cat,cat,0,0366_stg_s09_0_cat_00_cat4-clock2.png
subject-09,1,367,1.03342390060425,oven,keyboard,0,0367_stg_s09_0_keyboard_00_keyboard8-oven1.png
subject-09,1,368,0.838277101516724,bottle,bottle,0,0368_stg_s09_0_bottle_00_bottle2-bottle3.png
subject-09,1,369,1.12064599990845,chair,knife,0,0369_stg_s09_0_knife_00_knife7-airplane3.png
subject-09,1,370,1.00598692893982,dog,dog,0,0370_stg_s09_0_dog_00_dog10-dog1.png
subject-09,1,371,0.924835205078125,car,car,0,0371_stg_s09_0_car_00_car3-truck1.png
subject-09,1,372,0.836756944656372,chair,bird,0,0372_stg_s09_0_bird_00_bird8-chair1.png
subject-09,1,373,0.641792058944702,bear,bear,0,0373_stg_s09_0_bear_00_bear7-bear2.png
subject-09,1,374,0.970093965530396,truck,truck,0,0374_stg_s09_0_truck_00_truck9-bottle2.png
subject-09,1,375,0.684267044067383,chair,chair,0,0375_stg_s09_0_chair_00_chair5-clock2.png
subject-09,1,376,0.943382024765015,elephant,elephant,0,0376_stg_s09_0_elephant_00_elephant5-bear2.png
subject-09,1,377,1.26264500617981,airplane,airplane,0,0377_stg_s09_0_airplane_00_airplane7-clock3.png
subject-09,1,378,1.18333387374878,car,cat,0,0378_stg_s09_0_cat_00_cat5-chair3.png
subject-09,1,379,1.14284896850586,chair,elephant,0,0379_stg_s09_0_elephant_00_elephant8-truck3.png
subject-09,1,380,0.994648933410645,chair,chair,0,0380_stg_s09_0_chair_00_chair1-elephant1.png
subject-09,1,381,0.893660068511963,chair,chair,0,0381_stg_s09_0_chair_00_chair5-car1.png
subject-09,1,382,0.724260091781616,truck,truck,0,0382_stg_s09_0_truck_00_truck2-chair1.png
subject-09,1,383,0.705988883972168,chair,knife,0,0383_stg_s09_0_knife_00_knife10-chair1.png
subject-09,1,384,0.974650859832764,bottle,bottle,0,0384_stg_s09_0_bottle_00_bottle3-chair3.png
subject-09,1,385,0.957187175750732,bottle,bottle,0,0385_stg_s09_0_bottle_00_bottle8-bicycle1.png
subject-09,1,386,0.908671140670776,keyboard,keyboard,0,0386_stg_s09_0_keyboard_00_keyboard4-oven2.png
subject-09,1,387,0.798563957214355,bottle,bottle,0,0387_stg_s09_0_bottle_00_bottle3-knife3.png
subject-09,1,388,0.988785028457642,dog,dog,0,0388_stg_s09_0_dog_00_dog8-bottle2.png
subject-09,1,389,0.762665987014771,bicycle,bicycle,0,0389_stg_s09_0_bicycle_00_bicycle9-car1.png
subject-09,1,390,0.836112022399902,car,car,0,0390_stg_s09_0_car_00_car7-bird3.png
subject-09,1,391,0.794981002807617,airplane,airplane,0,0391_stg_s09_0_airplane_00_airplane9-clock1.png
subject-09,1,392,0.95389986038208,car,car,0,0392_stg_s09_0_car_00_car9-knife1.png
subject-09,1,393,0.605067014694214,chair,chair,0,0393_stg_s09_0_chair_00_chair1-oven3.png
subject-09,1,394,1.1738600730896,elephant,bird,0,0394_stg_s09_0_bird_00_bird10-chair1.png
subject-09,1,395,0.595417976379395,clock,clock,0,0395_stg_s09_0_clock_00_clock5-bicycle1.png
subject-09,1,396,0.931905031204224,bear,bear,0,0396_stg_s09_0_bear_00_bear2-dog1.png
subject-09,1,397,0.890177965164185,bird,bird,0,0397_stg_s09_0_bird_00_bird10-bicycle1.png
subject-09,1,398,0.840981006622314,dog,dog,0,0398_stg_s09_0_dog_00_dog9-bottle1.png
subject-09,1,399,1.02324199676514,chair,chair,0,0399_stg_s09_0_chair_00_chair4-bear2.png
subject-09,1,400,1.02865600585938,bicycle,bicycle,0,0400_stg_s09_0_bicycle_00_bicycle1-oven1.png
subject-09,1,401,1.01098203659058,keyboard,keyboard,0,0401_stg_s09_0_keyboard_00_keyboard3-boat1.png
subject-09,1,402,0.738440036773682,truck,truck,0,0402_stg_s09_0_truck_00_truck6-bottle3.png
subject-09,1,403,0.752005100250244,boat,boat,0,0403_stg_s09_0_boat_00_boat8-knife1.png
subject-09,1,404,0.696080923080444,bear,bear,0,0404_stg_s09_0_bear_00_bear8-dog1.png
subject-09,1,405,0.799782991409302,car,car,0,0405_stg_s09_0_car_00_car8-airplane3.png
subject-09,1,406,0.553611993789673,cat,cat,0,0406_stg_s09_0_cat_00_cat5-bottle1.png
subject-09,1,407,0.836055040359497,elephant,elephant,0,0407_stg_s09_0_elephant_00_elephant3-cat2.png
subject-09,1,408,0.780178070068359,keyboard,keyboard,0,0408_stg_s09_0_keyboard_00_keyboard5-keyboard1.png
subject-09,1,409,0.770861864089966,clock,clock,0,0409_stg_s09_0_clock_00_clock7-bicycle1.png
subject-09,1,410,0.998217821121216,knife,bottle,0,0410_stg_s09_0_bottle_00_bottle7-keyboard2.png
subject-09,1,411,1.04248785972595,airplane,airplane,0,0411_stg_s09_0_airplane_00_airplane3-oven1.png
subject-09,1,412,0.886606931686401,airplane,airplane,0,0412_stg_s09_0_airplane_00_airplane6-knife1.png
subject-09,1,413,0.998802185058594,truck,truck,0,0413_stg_s09_0_truck_00_truck2-bird2.png
subject-09,1,414,0.874105930328369,boat,airplane,0,0414_stg_s09_0_airplane_00_airplane2-dog1.png
subject-09,1,415,0.793869972229004,bear,bear,0,0415_stg_s09_0_bear_00_bear4-cat3.png
subject-09,1,416,0.809134006500244,dog,dog,0,0416_stg_s09_0_dog_00_dog3-knife3.png
subject-09,1,417,1.04389595985413,bird,bear,0,0417_stg_s09_0_bear_00_bear6-bottle3.png
subject-09,1,418,0.988392114639282,dog,dog,0,0418_stg_s09_0_dog_00_dog9-bicycle3.png
subject-09,1,419,0.717786073684692,bicycle,bicycle,0,0419_stg_s09_0_bicycle_00_bicycle1-knife3.png
subject-09,1,420,0.783990144729614,bear,bear,0,0420_stg_s09_0_bear_00_bear2-airplane1.png
subject-09,1,421,0.774116039276123,bottle,bottle,0,0421_stg_s09_0_bottle_00_bottle6-bicycle3.png
subject-09,1,422,0.809829950332642,airplane,airplane,0,0422_stg_s09_0_airplane_00_airplane7-keyboard1.png
subject-09,1,423,0.78643012046814,cat,airplane,0,0423_stg_s09_0_airplane_00_airplane1-elephant1.png
subject-09,1,424,0.676181077957153,bicycle,bicycle,0,0424_stg_s09_0_bicycle_00_bicycle4-car2.png
subject-09,1,425,0.733090162277222,bird,airplane,0,0425_stg_s09_0_airplane_00_airplane3-dog1.png
subject-09,1,426,0.631253004074097,clock,clock,0,0426_stg_s09_0_clock_00_clock5-keyboard1.png
subject-09,1,427,0.805960893630981,chair,chair,0,0427_stg_s09_0_chair_00_chair8-car1.png
subject-09,1,428,0.727828979492188,bird,bird,0,0428_stg_s09_0_bird_00_bird1-knife3.png
subject-09,1,429,0.909250020980835,truck,truck,0,0429_stg_s09_0_truck_00_truck6-knife2.png
subject-09,1,430,0.831929922103882,bird,bird,0,0430_stg_s09_0_bird_00_bird9-bicycle3.png
subject-09,1,431,0.813750028610229,bicycle,bicycle,0,0431_stg_s09_0_bicycle_00_bicycle8-bear2.png
subject-09,1,432,0.765352010726929,boat,boat,0,0432_stg_s09_0_boat_00_boat8-dog3.png
subject-09,1,433,0.763301849365234,car,car,0,0433_stg_s09_0_car_00_car10-keyboard2.png
subject-09,1,434,1.0298638343811,knife,bear,0,0434_stg_s09_0_bear_00_bear6-car2.png
subject-09,1,435,0.681648015975952,truck,truck,0,0435_stg_s09_0_truck_00_truck7-chair2.png
subject-09,1,436,0.917412996292114,knife,knife,0,0436_stg_s09_0_knife_00_knife7-bird3.png
subject-09,1,437,0.853062152862549,car,car,0,0437_stg_s09_0_car_00_car1-keyboard2.png
subject-09,1,438,0.891206026077271,dog,dog,0,0438_stg_s09_0_dog_00_dog9-cat1.png
subject-09,1,439,1.01155209541321,airplane,airplane,0,0439_stg_s09_0_airplane_00_airplane3-clock1.png
subject-09,1,440,0.825122117996216,keyboard,keyboard,0,0440_stg_s09_0_keyboard_00_keyboard7-clock3.png
subject-09,1,441,0.875334978103638,bottle,keyboard,0,0441_stg_s09_0_keyboard_00_keyboard1-airplane2.png
subject-09,1,442,0.89699912071228,boat,bird,0,0442_stg_s09_0_bird_00_bird2-car3.png
subject-09,1,443,0.89490008354187,keyboard,keyboard,0,0443_stg_s09_0_keyboard_00_keyboard2-clock1.png
subject-09,1,444,0.877019882202148,chair,chair,0,0444_stg_s09_0_chair_00_chair8-keyboard3.png
subject-09,1,445,1.00494384765625,clock,clock,0,0445_stg_s09_0_clock_00_clock2-knife1.png
subject-09,1,446,1.09704208374023,knife,bicycle,0,0446_stg_s09_0_bicycle_00_bicycle5-keyboard3.png
subject-09,1,447,0.785778999328613,chair,boat,0,0447_stg_s09_0_boat_00_boat3-chair3.png
subject-09,1,448,0.584297895431519,car,car,0,0448_stg_s09_0_car_00_car9-clock2.png
subject-09,1,449,1.16534495353699,knife,knife,0,0449_stg_s09_0_knife_00_knife5-truck3.png
subject-09,1,450,0.793637037277222,clock,clock,0,0450_stg_s09_0_clock_00_clock4-airplane1.png
subject-09,1,451,0.659089088439941,bottle,bottle,0,0451_stg_s09_0_bottle_00_bottle7-clock1.png
subject-09,1,452,0.848167896270752,chair,chair,0,0452_stg_s09_0_chair_00_chair9-chair3.png
subject-09,1,453,0.938334226608276,keyboard,keyboard,0,0453_stg_s09_0_keyboard_00_keyboard1-dog3.png
subject-09,1,454,0.836479902267456,oven,boat,0,0454_stg_s09_0_boat_00_boat5-car3.png
subject-09,1,455,0.665446043014526,car,car,0,0455_stg_s09_0_car_00_car10-dog1.png
subject-09,1,456,0.593593835830688,clock,clock,0,0456_stg_s09_0_clock_00_clock4-bottle3.png
subject-09,1,457,0.716583013534546,bicycle,bicycle,0,0457_stg_s09_0_bicycle_00_bicycle7-elephant2.png
subject-09,1,458,0.660467147827148,oven,cat,0,0458_stg_s09_0_cat_00_cat5-knife2.png
subject-09,1,459,0.745194911956787,keyboard,keyboard,0,0459_stg_s09_0_keyboard_00_keyboard9-cat1.png
subject-09,1,460,0.736427068710327,oven,oven,0,0460_stg_s09_0_oven_00_oven4-knife2.png
subject-09,1,461,0.871998071670532,cat,bear,0,0461_stg_s09_0_bear_00_bear10-oven1.png
subject-09,1,462,0.767120122909546,keyboard,keyboard,0,0462_stg_s09_0_keyboard_00_keyboard5-dog3.png
subject-09,1,463,0.835024833679199,knife,knife,0,0463_stg_s09_0_knife_00_knife2-bird1.png
subject-09,1,464,0.88659405708313,car,car,0,0464_stg_s09_0_car_00_car6-truck3.png
subject-09,1,465,1.14454483985901,car,car,0,0465_stg_s09_0_car_00_car9-bicycle2.png
subject-09,1,466,0.874588966369629,keyboard,keyboard,0,0466_stg_s09_0_keyboard_00_keyboard4-bottle2.png
subject-09,1,467,0.894440889358521,bottle,bottle,0,0467_stg_s09_0_bottle_00_bottle5-boat1.png
subject-09,1,468,0.937564134597778,bottle,bottle,0,0468_stg_s09_0_bottle_00_bottle5-elephant1.png
subject-09,1,469,0.751919031143188,keyboard,keyboard,0,0469_stg_s09_0_keyboard_00_keyboard7-car3.png
subject-09,1,470,0.947497129440308,elephant,cat,0,0470_stg_s09_0_cat_00_cat3-elephant2.png
subject-09,1,471,0.65422797203064,bird,bird,0,0471_stg_s09_0_bird_00_bird7-bird2.png
subject-09,1,472,0.782234191894531,car,car,0,0472_stg_s09_0_car_00_car4-oven2.png
subject-09,1,473,1.19581604003906,knife,boat,0,0473_stg_s09_0_boat_00_boat6-knife2.png
subject-09,1,474,0.831775903701782,bear,elephant,0,0474_stg_s09_0_elephant_00_elephant6-knife2.png
subject-09,1,475,1.14277982711792,bear,bear,0,0475_stg_s09_0_bear_00_bear4-car3.png
subject-09,1,476,0.689794063568115,chair,knife,0,0476_stg_s09_0_knife_00_knife1-truck2.png
subject-09,1,477,0.725957155227661,bottle,bottle,0,0477_stg_s09_0_bottle_00_bottle1-cat3.png
subject-09,1,478,0.837467908859253,cat,cat,0,0478_stg_s09_0_cat_00_cat7-airplane2.png
subject-09,1,479,0.727497100830078,elephant,elephant,0,0479_stg_s09_0_elephant_00_elephant1-airplane2.png
subject-09,1,480,1.18742609024048,chair,knife,0,0480_stg_s09_0_knife_00_knife7-chair2.png
subject-09,1,481,0.701627969741821,chair,chair,0,0481_stg_s09_0_chair_00_chair7-truck3.png
subject-09,1,482,0.804637908935547,oven,boat,0,0482_stg_s09_0_boat_00_boat5-boat3.png
subject-09,1,483,1.24957704544067,boat,airplane,0,0483_stg_s09_0_airplane_00_airplane9-car2.png
subject-09,1,484,0.809639930725098,knife,airplane,0,0484_stg_s09_0_airplane_00_airplane4-dog2.png
subject-09,1,485,0.9448401927948,car,bear,0,0485_stg_s09_0_bear_00_bear10-truck1.png
subject-09,1,486,0.819321870803833,truck,truck,0,0486_stg_s09_0_truck_00_truck1-dog1.png
subject-09,1,487,0.863512992858887,chair,airplane,0,0487_stg_s09_0_airplane_00_airplane8-truck3.png
subject-09,1,488,0.97545599937439,dog,dog,0,0488_stg_s09_0_dog_00_dog10-bicycle1.png
subject-09,1,489,1.03551316261292,dog,dog,0,0489_stg_s09_0_dog_00_dog1-chair1.png
subject-09,1,490,0.996494054794312,chair,chair,0,0490_stg_s09_0_chair_00_chair5-oven2.png
subject-09,1,491,0.861942052841187,car,car,0,0491_stg_s09_0_car_00_car8-boat3.png
subject-09,1,492,0.822768926620483,bottle,bottle,0,0492_stg_s09_0_bottle_00_bottle4-dog2.png
subject-09,1,493,0.942344188690186,cat,cat,0,0493_stg_s09_0_cat_00_cat9-clock2.png
subject-09,1,494,0.902247905731201,bear,elephant,0,0494_stg_s09_0_elephant_00_elephant6-cat2.png
subject-09,1,495,0.830423831939697,knife,knife,0,0495_stg_s09_0_knife_00_knife8-bottle3.png
subject-09,1,496,0.958318948745728,airplane,airplane,0,0496_stg_s09_0_airplane_00_airplane7-airplane3.png
subject-09,1,497,0.780002117156982,chair,chair,0,0497_stg_s09_0_chair_00_chair2-keyboard2.png
subject-09,1,498,0.807826042175293,bottle,bottle,0,0498_stg_s09_0_bottle_00_bottle7-boat3.png
subject-09,1,499,0.922605991363525,dog,dog,0,0499_stg_s09_0_dog_00_dog4-chair1.png
subject-09,1,500,0.737686157226562,keyboard,keyboard,0,0500_stg_s09_0_keyboard_00_keyboard3-car2.png
subject-09,1,501,0.978660821914673,dog,dog,0,0501_stg_s09_0_dog_00_dog1-bear1.png
subject-09,1,502,0.867825031280518,bottle,boat,0,0502_stg_s09_0_boat_00_boat7-oven3.png
subject-09,1,503,0.825567960739136,dog,dog,0,0503_stg_s09_0_dog_00_dog8-dog3.png
subject-09,1,504,0.691102981567383,bicycle,bicycle,0,0504_stg_s09_0_bicycle_00_bicycle1-clock3.png
subject-09,1,505,0.674795150756836,car,car,0,0505_stg_s09_0_car_00_car4-bottle1.png
subject-09,1,506,0.695071935653687,boat,boat,0,0506_stg_s09_0_boat_00_boat2-bird1.png
subject-09,1,507,0.776576042175293,boat,boat,0,0507_stg_s09_0_boat_00_boat4-car3.png
subject-09,1,508,0.837177991867065,car,cat,0,0508_stg_s09_0_cat_00_cat3-oven2.png
subject-09,1,509,0.710831165313721,chair,chair,0,0509_stg_s09_0_chair_00_chair8-bicycle3.png
subject-09,1,510,0.762875080108643,bird,bird,0,0510_stg_s09_0_bird_00_bird1-boat1.png
subject-09,1,511,0.63693380355835,oven,oven,0,0511_stg_s09_0_oven_00_oven4-car1.png
subject-09,1,512,0.672301054000854,clock,clock,0,0512_stg_s09_0_clock_00_clock2-bear2.png
subject-09,1,513,0.872236013412476,bottle,bottle,0,0513_stg_s09_0_bottle_00_bottle1-bird3.png
subject-09,1,514,0.70051383972168,truck,truck,0,0514_stg_s09_0_truck_00_truck2-bottle3.png
subject-09,1,515,0.842211008071899,bird,bird,0,0515_stg_s09_0_bird_00_bird4-clock1.png
subject-09,1,516,0.694166898727417,cat,cat,0,0516_stg_s09_0_cat_00_cat2-elephant1.png
subject-09,1,517,1.15960812568665,airplane,airplane,0,0517_stg_s09_0_airplane_00_airplane8-clock2.png
subject-09,1,518,0.971577167510986,oven,oven,0,0518_stg_s09_0_oven_00_oven3-cat2.png
subject-09,1,519,0.645580053329468,bottle,bottle,0,0519_stg_s09_0_bottle_00_bottle6-airplane1.png
subject-09,1,520,0.757874965667725,knife,knife,0,0520_stg_s09_0_knife_00_knife9-boat1.png
subject-09,1,521,0.732043027877808,chair,chair,0,0521_stg_s09_0_chair_00_chair9-bear1.png
subject-09,1,522,0.962800979614258,bottle,bottle,0,0522_stg_s09_0_bottle_00_bottle10-clock2.png
subject-09,1,523,0.698017835617065,bicycle,bicycle,0,0523_stg_s09_0_bicycle_00_bicycle9-bird3.png
subject-09,1,524,0.665143013000488,bird,bird,0,0524_stg_s09_0_bird_00_bird8-elephant1.png
subject-09,1,525,1.03877401351929,chair,chair,0,0525_stg_s09_0_chair_00_chair7-bird1.png
subject-09,1,526,0.791201114654541,boat,dog,0,0526_stg_s09_0_dog_00_dog9-car1.png
subject-09,1,527,0.910439968109131,dog,dog,0,0527_stg_s09_0_dog_00_dog2-bicycle2.png
subject-09,1,528,0.829782009124756,keyboard,keyboard,0,0528_stg_s09_0_keyboard_00_keyboard6-boat2.png
subject-09,1,529,0.819544792175293,airplane,airplane,0,0529_stg_s09_0_airplane_00_airplane10-cat2.png
subject-09,1,530,0.786272048950195,dog,dog,0,0530_stg_s09_0_dog_00_dog5-oven1.png
subject-09,1,531,0.899991989135742,cat,elephant,0,0531_stg_s09_0_elephant_00_elephant4-bird1.png
subject-09,1,532,0.627619028091431,boat,boat,0,0532_stg_s09_0_boat_00_boat9-chair2.png
subject-09,1,533,0.802417039871216,knife,truck,0,0533_stg_s09_0_truck_00_truck3-bear3.png
subject-09,1,534,0.713501930236816,clock,clock,0,0534_stg_s09_0_clock_00_clock2-bottle3.png
subject-09,1,535,0.943557024002075,airplane,bird,0,0535_stg_s09_0_bird_00_bird6-truck2.png
subject-09,1,536,1.01860594749451,chair,keyboard,0,0536_stg_s09_0_keyboard_00_keyboard4-keyboard2.png
subject-09,1,537,0.631722927093506,clock,clock,0,0537_stg_s09_0_clock_00_clock3-cat1.png
subject-09,1,538,0.644255876541138,chair,chair,0,0538_stg_s09_0_chair_00_chair7-clock3.png
subject-09,1,539,0.802279949188232,bird,cat,0,0539_stg_s09_0_cat_00_cat4-truck3.png
subject-09,1,540,0.921581983566284,chair,chair,0,0540_stg_s09_0_chair_00_chair8-chair3.png
subject-09,1,541,0.735718011856079,car,bear,0,0541_stg_s09_0_bear_00_bear2-keyboard2.png
subject-09,1,542,0.693264961242676,oven,boat,0,0542_stg_s09_0_boat_00_boat7-bottle1.png
subject-09,1,543,0.667057991027832,clock,clock,0,0543_stg_s09_0_clock_00_clock3-keyboard3.png
subject-09,1,544,0.657104969024658,clock,clock,0,0544_stg_s09_0_clock_00_clock8-oven3.png
subject-09,1,545,0.806608915328979,keyboard,keyboard,0,0545_stg_s09_0_keyboard_00_keyboard2-bicycle3.png
subject-09,1,546,0.728717088699341,bird,bird,0,0546_stg_s09_0_bird_00_bird7-truck2.png
subject-09,1,547,1.07839703559875,cat,cat,0,0547_stg_s09_0_cat_00_cat7-knife2.png
subject-09,1,548,0.630629062652588,oven,oven,0,0548_stg_s09_0_oven_00_oven5-bird1.png
subject-09,1,549,0.788396120071411,bird,bear,0,0549_stg_s09_0_bear_00_bear6-clock1.png
subject-09,1,550,0.748714923858643,truck,truck,0,0550_stg_s09_0_truck_00_truck7-bird2.png
subject-09,1,551,0.84404993057251,bottle,bottle,0,0551_stg_s09_0_bottle_00_bottle10-truck3.png
subject-09,1,552,0.888805866241455,oven,chair,0,0552_stg_s09_0_chair_00_chair4-keyboard2.png
subject-09,1,553,0.799968004226685,chair,chair,0,0553_stg_s09_0_chair_00_chair10-car2.png
subject-09,1,554,0.860485076904297,keyboard,boat,0,0554_stg_s09_0_boat_00_boat3-cat3.png
subject-09,1,555,0.867218017578125,bear,bear,0,0555_stg_s09_0_bear_00_bear4-oven2.png
subject-09,1,556,0.862137794494629,dog,dog,0,0556_stg_s09_0_dog_00_dog4-elephant2.png
subject-09,1,557,0.675935029983521,boat,boat,0,0557_stg_s09_0_boat_00_boat9-bird1.png
subject-09,1,558,0.850456953048706,bear,bear,0,0558_stg_s09_0_bear_00_bear2-elephant1.png
subject-09,1,559,0.645675182342529,oven,oven,0,0559_stg_s09_0_oven_00_oven2-bicycle1.png
subject-09,1,560,0.818881034851074,knife,knife,0,0560_stg_s09_0_knife_00_knife6-bottle3.png
subject-09,1,561,0.969142913818359,keyboard,knife,0,0561_stg_s09_0_knife_00_knife6-truck1.png
subject-09,1,562,0.896562099456787,elephant,elephant,0,0562_stg_s09_0_elephant_00_elephant3-knife1.png
subject-09,1,563,1.4243471622467,car,cat,0,0563_stg_s09_0_cat_00_cat10-airplane3.png
subject-09,1,564,0.729591846466064,bicycle,bicycle,0,0564_stg_s09_0_bicycle_00_bicycle3-oven3.png
subject-09,1,565,0.603318929672241,car,car,0,0565_stg_s09_0_car_00_car10-car1.png
subject-09,1,566,0.59865403175354,clock,clock,0,0566_stg_s09_0_clock_00_clock4-knife1.png
subject-09,1,567,0.751002788543701,chair,chair,0,0567_stg_s09_0_chair_00_chair3-knife1.png
subject-09,1,568,0.686633825302124,truck,truck,0,0568_stg_s09_0_truck_00_truck2-boat3.png
subject-09,1,569,0.85815691947937,car,keyboard,0,0569_stg_s09_0_keyboard_00_keyboard7-oven2.png
subject-09,1,570,0.85548996925354,oven,bottle,0,0570_stg_s09_0_bottle_00_bottle7-elephant2.png
subject-09,1,571,0.843071937561035,airplane,airplane,0,0571_stg_s09_0_airplane_00_airplane6-bottle2.png
subject-09,1,572,0.879631996154785,truck,knife,0,0572_stg_s09_0_knife_00_knife8-truck3.png
subject-09,1,573,0.901099920272827,bicycle,bicycle,0,0573_stg_s09_0_bicycle_00_bicycle1-airplane2.png
subject-09,1,574,0.637392044067383,clock,clock,0,0574_stg_s09_0_clock_00_clock6-oven1.png
subject-09,1,575,0.657134056091309,car,car,0,0575_stg_s09_0_car_00_car4-boat1.png
subject-09,1,576,0.938968181610107,bicycle,bicycle,0,0576_stg_s09_0_bicycle_00_bicycle7-oven1.png
subject-09,1,577,0.850425004959106,clock,airplane,0,0577_stg_s09_0_airplane_00_airplane4-truck2.png
subject-09,1,578,0.578320026397705,cat,cat,0,0578_stg_s09_0_cat_00_cat9-bicycle1.png
subject-09,1,579,0.876134157180786,knife,boat,0,0579_stg_s09_0_boat_00_boat6-car1.png
subject-09,1,580,1.24194812774658,airplane,airplane,0,0580_stg_s09_0_airplane_00_airplane7-bird3.png
subject-09,1,581,0.923907041549683,car,car,0,0581_stg_s09_0_car_00_car6-elephant3.png
subject-09,1,582,0.85959005355835,dog,dog,0,0582_stg_s09_0_dog_00_dog1-cat3.png
subject-09,1,583,0.932949781417847,bicycle,bicycle,0,0583_stg_s09_0_bicycle_00_bicycle9-cat3.png
subject-09,1,584,0.769526958465576,oven,oven,0,0584_stg_s09_0_oven_00_oven3-truck1.png
subject-09,1,585,0.720500946044922,chair,keyboard,0,0585_stg_s09_0_keyboard_00_keyboard8-truck3.png
subject-09,1,586,0.887440919876099,elephant,elephant,0,0586_stg_s09_0_elephant_00_elephant10-bear1.png
subject-09,1,587,1.03165793418884,chair,chair,0,0587_stg_s09_0_chair_00_chair9-bird3.png
subject-09,1,588,1.24580097198486,knife,knife,0,0588_stg_s09_0_knife_00_knife3-knife1.png
subject-09,1,589,0.711451053619385,car,car,0,0589_stg_s09_0_car_00_car7-bear1.png
subject-09,1,590,1.17696309089661,clock,clock,0,0590_stg_s09_0_clock_00_clock1-clock2.png
subject-09,1,591,0.784167051315308,elephant,elephant,0,0591_stg_s09_0_elephant_00_elephant8-oven3.png
subject-09,1,592,0.719513177871704,boat,boat,0,0592_stg_s09_0_boat_00_boat9-keyboard2.png
subject-09,1,593,0.701664924621582,car,cat,0,0593_stg_s09_0_cat_00_cat10-oven2.png
subject-09,1,594,0.823353052139282,cat,bird,0,0594_stg_s09_0_bird_00_bird2-clock3.png
subject-09,1,595,0.965333938598633,car,car,0,0595_stg_s09_0_car_00_car5-oven2.png
subject-09,1,596,0.695395946502686,oven,oven,0,0596_stg_s09_0_oven_00_oven9-oven1.png
subject-09,1,597,0.71564793586731,cat,bear,0,0597_stg_s09_0_bear_00_bear10-knife2.png
subject-09,1,598,0.750826120376587,car,car,0,0598_stg_s09_0_car_00_car4-bear3.png
subject-09,1,599,0.741776943206787,cat,cat,0,0599_stg_s09_0_cat_00_cat5-bear2.png
subject-09,1,600,0.760891914367676,clock,bird,0,0600_stg_s09_0_bird_00_bird3-knife3.png
subject-09,1,601,0.635586023330688,car,car,0,0601_stg_s09_0_car_00_car6-knife1.png
subject-09,1,602,0.719749927520752,chair,keyboard,0,0602_stg_s09_0_keyboard_00_keyboard6-chair1.png
subject-09,1,603,0.89330792427063,knife,knife,0,0603_stg_s09_0_knife_00_knife6-airplane1.png
subject-09,1,604,0.797481060028076,car,car,0,0604_stg_s09_0_car_00_car2-cat3.png
subject-09,1,605,0.595620155334473,keyboard,keyboard,0,0605_stg_s09_0_keyboard_00_keyboard5-bicycle1.png
subject-09,1,606,0.638866186141968,clock,clock,0,0606_stg_s09_0_clock_00_clock7-keyboard2.png
subject-09,1,607,0.688766956329346,chair,knife,0,0607_stg_s09_0_knife_00_knife2-car3.png
subject-09,1,608,0.938888072967529,dog,dog,0,0608_stg_s09_0_dog_00_dog2-cat1.png
subject-09,1,609,0.866569995880127,car,car,0,0609_stg_s09_0_car_00_car6-chair3.png
subject-09,1,610,0.764433145523071,bicycle,bicycle,0,0610_stg_s09_0_bicycle_00_bicycle10-airplane2.png
subject-09,1,611,0.954255819320679,cat,cat,0,0611_stg_s09_0_cat_00_cat4-keyboard2.png
subject-09,1,612,0.72811222076416,cat,cat,0,0612_stg_s09_0_cat_00_cat3-cat1.png
subject-09,1,613,0.763785123825073,cat,cat,0,0613_stg_s09_0_cat_00_cat4-bird2.png
subject-09,1,614,0.669564962387085,car,car,0,0614_stg_s09_0_car_00_car8-bicycle2.png
subject-09,1,615,0.85800313949585,airplane,airplane,0,0615_stg_s09_0_airplane_00_airplane8-oven2.png
subject-09,1,616,0.818314790725708,bear,bear,0,0616_stg_s09_0_bear_00_bear2-bird3.png
subject-09,1,617,0.725151062011719,clock,clock,0,0617_stg_s09_0_clock_00_clock6-car2.png
subject-09,1,618,0.930778980255127,chair,bird,0,0618_stg_s09_0_bird_00_bird3-oven1.png
subject-09,1,619,0.750665187835693,truck,truck,0,0619_stg_s09_0_truck_00_truck7-bear2.png
subject-09,1,620,1.01685905456543,truck,truck,0,0620_stg_s09_0_truck_00_truck10-clock1.png
subject-09,1,621,0.647355079650879,cat,cat,0,0621_stg_s09_0_cat_00_cat2-car3.png
subject-09,1,622,1.02694392204285,elephant,elephant,0,0622_stg_s09_0_elephant_00_elephant5-bicycle3.png
subject-09,1,623,0.656466007232666,truck,truck,0,0623_stg_s09_0_truck_00_truck3-bicycle1.png
subject-09,1,624,0.998448133468628,knife,keyboard,0,0624_stg_s09_0_keyboard_00_keyboard3-elephant2.png
subject-09,1,625,1.30396509170532,airplane,bird,0,0625_stg_s09_0_bird_00_bird10-elephant2.png
subject-09,1,626,0.924022912979126,knife,knife,0,0626_stg_s09_0_knife_00_knife6-oven3.png
subject-09,1,627,0.775964021682739,oven,oven,0,0627_stg_s09_0_oven_00_oven6-elephant2.png
subject-09,1,628,1.30351901054382,bear,bear,0,0628_stg_s09_0_bear_00_bear10-cat2.png
subject-09,1,629,0.755742073059082,bottle,bottle,0,0629_stg_s09_0_bottle_00_bottle8-bottle3.png
subject-09,1,630,0.696808099746704,bicycle,bicycle,0,0630_stg_s09_0_bicycle_00_bicycle9-airplane2.png
subject-09,1,631,0.957347869873047,car,boat,0,0631_stg_s09_0_boat_00_boat8-truck2.png
subject-09,1,632,0.769134998321533,bottle,bottle,0,0632_stg_s09_0_bottle_00_bottle6-dog3.png
subject-09,1,633,0.737246990203857,chair,keyboard,0,0633_stg_s09_0_keyboard_00_keyboard7-chair3.png
subject-09,1,634,1.04088807106018,chair,oven,0,0634_stg_s09_0_oven_00_oven7-bottle1.png
subject-09,1,635,0.67731499671936,clock,clock,0,0635_stg_s09_0_clock_00_clock7-truck3.png
subject-09,1,636,0.750519990921021,elephant,bird,0,0636_stg_s09_0_bird_00_bird3-bird2.png
subject-09,1,637,1.00289702415466,chair,chair,0,0637_stg_s09_0_chair_00_chair7-bottle1.png
subject-09,1,638,0.700281858444214,car,car,0,0638_stg_s09_0_car_00_car9-truck3.png
subject-09,1,639,0.820660829544067,bottle,bottle,0,0639_stg_s09_0_bottle_00_bottle10-bear2.png
subject-09,1,640,0.948444128036499,dog,dog,0,0640_stg_s09_0_dog_00_dog10-car3.png
subject-09,1,641,0.776412010192871,chair,chair,0,0641_stg_s09_0_chair_00_chair10-bird3.png
subject-09,1,642,0.790460109710693,cat,cat,0,0642_stg_s09_0_cat_00_cat9-chair2.png
subject-09,1,643,0.704648971557617,cat,cat,0,0643_stg_s09_0_cat_00_cat10-bicycle1.png
subject-09,1,644,0.716254949569702,chair,chair,0,0644_stg_s09_0_chair_00_chair10-clock1.png
subject-09,1,645,0.774258136749268,keyboard,keyboard,0,0645_stg_s09_0_keyboard_00_keyboard9-bicycle2.png
subject-09,1,646,0.726164817810059,clock,clock,0,0646_stg_s09_0_clock_00_clock5-airplane1.png
subject-09,1,647,0.769519805908203,chair,bird,0,0647_stg_s09_0_bird_00_bird5-oven3.png
subject-09,1,648,0.759824991226196,truck,truck,0,0648_stg_s09_0_truck_00_truck6-oven3.png
subject-09,1,649,0.817552089691162,oven,boat,0,0649_stg_s09_0_boat_00_boat3-airplane2.png
subject-09,1,650,0.807240009307861,knife,boat,0,0650_stg_s09_0_boat_00_boat6-bear1.png
subject-09,1,651,0.873100996017456,truck,truck,0,0651_stg_s09_0_truck_00_truck10-airplane1.png
subject-09,1,652,0.91746997833252,bicycle,bicycle,0,0652_stg_s09_0_bicycle_00_bicycle7-bear2.png
subject-09,1,653,0.730616092681885,clock,clock,0,0653_stg_s09_0_clock_00_clock5-chair3.png
subject-09,1,654,0.725934982299805,car,car,0,0654_stg_s09_0_car_00_car8-dog1.png
subject-09,1,655,0.748231887817383,elephant,elephant,0,0655_stg_s09_0_elephant_00_elephant7-airplane3.png
subject-09,1,656,0.837852001190186,oven,boat,0,0656_stg_s09_0_boat_00_boat7-clock3.png
subject-09,1,657,0.995562076568604,bear,bird,0,0657_stg_s09_0_bird_00_bird3-bear3.png
subject-09,1,658,0.70159912109375,bottle,bottle,0,0658_stg_s09_0_bottle_00_bottle3-bottle3.png
subject-09,1,659,0.920889139175415,elephant,elephant,0,0659_stg_s09_0_elephant_00_elephant6-dog2.png
subject-09,1,660,0.711827993392944,cat,cat,0,0660_stg_s09_0_cat_00_cat5-bicycle3.png
subject-09,1,661,0.717604160308838,chair,chair,0,0661_stg_s09_0_chair_00_chair10-bicycle1.png
subject-09,1,662,1.28444600105286,oven,oven,0,0662_stg_s09_0_oven_00_oven4-chair1.png
subject-09,1,663,0.622760057449341,clock,clock,0,0663_stg_s09_0_clock_00_clock5-elephant2.png
subject-09,1,664,0.643131017684937,cat,cat,0,0664_stg_s09_0_cat_00_cat7-dog3.png
subject-09,1,665,0.800743818283081,knife,boat,0,0665_stg_s09_0_boat_00_boat6-cat1.png
subject-09,1,666,0.9060959815979,truck,truck,0,0666_stg_s09_0_truck_00_truck1-bear1.png
subject-09,1,667,0.826731204986572,airplane,airplane,0,0667_stg_s09_0_airplane_00_airplane4-airplane1.png
subject-09,1,668,0.962309122085571,knife,knife,0,0668_stg_s09_0_knife_00_knife5-clock1.png
subject-09,1,669,0.836387872695923,bear,bear,0,0669_stg_s09_0_bear_00_bear3-cat1.png
subject-09,1,670,0.67998194694519,elephant,elephant,0,0670_stg_s09_0_elephant_00_elephant9-clock3.png
subject-09,1,671,0.957176923751831,chair,chair,0,0671_stg_s09_0_chair_00_chair1-clock2.png
subject-09,1,672,0.838557958602905,chair,chair,0,0672_stg_s09_0_chair_00_chair5-knife3.png
subject-09,1,673,0.698867797851562,cat,cat,0,0673_stg_s09_0_cat_00_cat2-boat2.png
subject-09,1,674,0.680428981781006,airplane,airplane,0,0674_stg_s09_0_airplane_00_airplane10-boat3.png
subject-09,1,675,0.671512842178345,bird,bird,0,0675_stg_s09_0_bird_00_bird5-keyboard2.png
subject-09,1,676,0.915357112884521,keyboard,keyboard,0,0676_stg_s09_0_keyboard_00_keyboard6-bear2.png
subject-09,1,677,0.871577024459839,airplane,airplane,0,0677_stg_s09_0_airplane_00_airplane2-bicycle1.png
subject-09,1,678,0.946686983108521,knife,boat,0,0678_stg_s09_0_boat_00_boat4-dog2.png
subject-09,1,679,0.819839000701904,truck,truck,0,0679_stg_s09_0_truck_00_truck2-clock1.png
subject-09,1,680,0.993799924850464,truck,truck,0,0680_stg_s09_0_truck_00_truck5-dog3.png
subject-09,1,681,0.899748086929321,knife,boat,0,0681_stg_s09_0_boat_00_boat1-keyboard3.png
subject-09,1,682,0.963660955429077,chair,chair,0,0682_stg_s09_0_chair_00_chair7-car2.png
subject-09,1,683,1.19137096405029,airplane,cat,0,0683_stg_s09_0_cat_00_cat9-knife2.png
subject-09,1,684,0.751132011413574,car,car,0,0684_stg_s09_0_car_00_car1-airplane1.png
subject-09,1,685,0.849431991577148,chair,chair,0,0685_stg_s09_0_chair_00_chair9-dog2.png
subject-09,1,686,1.29063987731934,clock,clock,0,0686_stg_s09_0_clock_00_clock6-bird3.png
subject-09,1,687,0.758907079696655,car,car,0,0687_stg_s09_0_car_00_car4-clock1.png
subject-09,1,688,1.24043202400208,keyboard,knife,0,0688_stg_s09_0_knife_00_knife4-boat1.png
subject-09,1,689,0.85232400894165,keyboard,keyboard,0,0689_stg_s09_0_keyboard_00_keyboard3-bird3.png
subject-09,1,690,0.819595098495483,elephant,elephant,0,0690_stg_s09_0_elephant_00_elephant8-bird2.png
subject-09,1,691,1.11552882194519,chair,chair,0,0691_stg_s09_0_chair_00_chair1-cat3.png
subject-09,1,692,1.06535983085632,cat,boat,0,0692_stg_s09_0_boat_00_boat6-elephant2.png
subject-09,1,693,0.740969896316528,bottle,bottle,0,0693_stg_s09_0_bottle_00_bottle3-boat3.png
subject-09,1,694,0.814395904541016,car,car,0,0694_stg_s09_0_car_00_car8-bear1.png
subject-09,1,695,0.780121088027954,bird,bird,0,0695_stg_s09_0_bird_00_bird5-airplane3.png
subject-09,1,696,0.869786024093628,airplane,airplane,0,0696_stg_s09_0_airplane_00_airplane9-boat1.png
subject-09,1,697,0.873013019561768,cat,boat,0,0697_stg_s09_0_boat_00_boat7-cat3.png
subject-09,1,698,0.900964975357056,dog,dog,0,0698_stg_s09_0_dog_00_dog10-clock1.png
subject-09,1,699,1.11296796798706,bottle,bottle,0,0699_stg_s09_0_bottle_00_bottle4-oven2.png
subject-09,1,700,0.986201047897339,dog,dog,0,0700_stg_s09_0_dog_00_dog4-bird1.png
subject-09,1,701,0.953429937362671,oven,oven,0,0701_stg_s09_0_oven_00_oven1-cat1.png
subject-09,1,702,0.703456878662109,clock,clock,0,0702_stg_s09_0_clock_00_clock3-dog2.png
subject-09,1,703,0.917610883712769,boat,boat,0,0703_stg_s09_0_boat_00_boat1-chair3.png
subject-09,1,704,0.715595960617065,oven,knife,0,0704_stg_s09_0_knife_00_knife2-bottle2.png
subject-09,1,705,0.881612062454224,chair,chair,0,0705_stg_s09_0_chair_00_chair2-bear2.png
subject-09,1,706,0.917577981948853,dog,dog,0,0706_stg_s09_0_dog_00_dog5-car3.png
subject-09,1,707,0.866626977920532,bear,bear,0,0707_stg_s09_0_bear_00_bear3-dog3.png
subject-09,1,708,0.843542098999023,elephant,elephant,0,0708_stg_s09_0_elephant_00_elephant7-bird1.png
subject-09,1,709,0.709135055541992,cat,elephant,0,0709_stg_s09_0_elephant_00_elephant1-keyboard3.png
subject-09,1,710,0.638967037200928,oven,oven,0,0710_stg_s09_0_oven_00_oven6-knife3.png
subject-09,1,711,0.781141996383667,knife,airplane,0,0711_stg_s09_0_airplane_00_airplane2-bird3.png
subject-09,1,712,0.986469984054565,knife,knife,0,0712_stg_s09_0_knife_00_knife2-cat3.png
subject-09,1,713,0.677175045013428,cat,cat,0,0713_stg_s09_0_cat_00_cat9-bird3.png
subject-09,1,714,0.775725126266479,chair,knife,0,0714_stg_s09_0_knife_00_knife2-truck2.png
subject-09,1,715,0.90366792678833,bottle,bottle,0,0715_stg_s09_0_bottle_00_bottle6-bird1.png
subject-09,1,716,0.647547006607056,clock,clock,0,0716_stg_s09_0_clock_00_clock4-chair1.png
subject-09,1,717,0.667486906051636,oven,airplane,0,0717_stg_s09_0_airplane_00_airplane3-keyboard2.png
subject-09,1,718,0.712019920349121,elephant,elephant,0,0718_stg_s09_0_elephant_00_elephant4-bicycle2.png
subject-09,1,719,0.817566871643066,elephant,elephant,0,0719_stg_s09_0_elephant_00_elephant2-clock1.png
subject-09,1,720,0.691798210144043,bicycle,bicycle,0,0720_stg_s09_0_bicycle_00_bicycle4-bicycle3.png
subject-09,1,721,0.911586999893188,knife,knife,0,0721_stg_s09_0_knife_00_knife5-oven2.png
subject-09,1,722,0.933511972427368,knife,knife,0,0722_stg_s09_0_knife_00_knife2-bear2.png
subject-09,1,723,0.747888088226318,oven,truck,0,0723_stg_s09_0_truck_00_truck6-truck2.png
subject-09,1,724,0.613867044448853,clock,clock,0,0724_stg_s09_0_clock_00_clock3-bicycle2.png
subject-09,1,725,0.920561075210571,knife,keyboard,0,0725_stg_s09_0_keyboard_00_keyboard10-keyboard1.png
subject-09,1,726,0.65632700920105,bird,bird,0,0726_stg_s09_0_bird_00_bird7-cat3.png
subject-09,1,727,1.30658483505249,cat,cat,0,0727_stg_s09_0_cat_00_cat7-elephant1.png
subject-09,1,728,0.722443819046021,oven,oven,0,0728_stg_s09_0_oven_00_oven10-boat2.png
subject-09,1,729,0.943673133850098,dog,dog,0,0729_stg_s09_0_dog_00_dog7-chair2.png
subject-09,1,730,0.986351013183594,car,car,0,0730_stg_s09_0_car_00_car8-clock2.png
subject-09,1,731,1.46832203865051,bicycle,bicycle,0,0731_stg_s09_0_bicycle_00_bicycle2-bicycle1.png
subject-09,1,732,0.820616006851196,chair,chair,0,0732_stg_s09_0_chair_00_chair1-bear1.png
subject-09,1,733,0.993274927139282,keyboard,keyboard,0,0733_stg_s09_0_keyboard_00_keyboard9-boat2.png
subject-09,1,734,1.02415704727173,chair,chair,0,0734_stg_s09_0_chair_00_chair9-bottle3.png
subject-09,1,735,1.00588703155518,knife,knife,0,0735_stg_s09_0_knife_00_knife9-elephant2.png
subject-09,1,736,1.26395702362061,elephant,elephant,0,0736_stg_s09_0_elephant_00_elephant8-elephant1.png
subject-09,1,737,0.723449945449829,car,car,0,0737_stg_s09_0_car_00_car9-bird1.png
subject-09,1,738,0.898178100585938,cat,cat,0,0738_stg_s09_0_cat_00_cat1-boat1.png
subject-09,1,739,1.11802887916565,knife,knife,0,0739_stg_s09_0_knife_00_knife8-car2.png
subject-09,1,740,0.893646001815796,chair,chair,0,0740_stg_s09_0_chair_00_chair7-knife2.png
subject-09,1,741,0.683607816696167,truck,truck,0,0741_stg_s09_0_truck_00_truck4-knife1.png
subject-09,1,742,0.811827182769775,chair,keyboard,0,0742_stg_s09_0_keyboard_00_keyboard10-oven3.png
subject-09,1,743,0.776891946792603,bear,bear,0,0743_stg_s09_0_bear_00_bear9-boat2.png
subject-09,1,744,0.8126220703125,bottle,bottle,0,0744_stg_s09_0_bottle_00_bottle6-knife3.png
subject-09,1,745,1.2866530418396,truck,truck,0,0745_stg_s09_0_truck_00_truck4-bear1.png
subject-09,1,746,0.755038976669312,keyboard,keyboard,0,0746_stg_s09_0_keyboard_00_keyboard5-bottle1.png
subject-09,1,747,0.759114980697632,truck,truck,0,0747_stg_s09_0_truck_00_truck4-boat3.png
subject-09,1,748,0.986624956130981,dog,dog,0,0748_stg_s09_0_dog_00_dog6-bicycle1.png
subject-09,1,749,0.763027906417847,keyboard,keyboard,0,0749_stg_s09_0_keyboard_00_keyboard6-bottle2.png
subject-09,1,750,0.937063217163086,bottle,bottle,0,0750_stg_s09_0_bottle_00_bottle7-bear1.png
subject-09,1,751,0.827843904495239,bird,bird,0,0751_stg_s09_0_bird_00_bird1-oven1.png
subject-09,1,752,0.985021829605103,bear,bear,0,0752_stg_s09_0_bear_00_bear2-oven1.png
subject-09,1,753,0.744572877883911,elephant,elephant,0,0753_stg_s09_0_elephant_00_elephant6-car3.png
subject-09,1,754,0.818249940872192,bottle,bottle,0,0754_stg_s09_0_bottle_00_bottle1-clock1.png
subject-09,1,755,0.716563940048218,elephant,elephant,0,0755_stg_s09_0_elephant_00_elephant4-oven1.png
subject-09,1,756,0.660315990447998,oven,oven,0,0756_stg_s09_0_oven_00_oven10-oven3.png
subject-09,1,757,0.641731977462769,clock,clock,0,0757_stg_s09_0_clock_00_clock7-dog2.png
subject-09,1,758,0.79466700553894,bottle,bottle,0,0758_stg_s09_0_bottle_00_bottle4-car3.png
subject-09,1,759,0.700654029846191,bird,bird,0,0759_stg_s09_0_bird_00_bird8-clock1.png
subject-09,1,760,0.790299892425537,cat,cat,0,0760_stg_s09_0_cat_00_cat3-bicycle1.png
subject-09,1,761,0.542025804519653,oven,oven,0,0761_stg_s09_0_oven_00_oven5-airplane1.png
subject-09,1,762,0.807853937149048,bear,bear,0,0762_stg_s09_0_bear_00_bear1-elephant1.png
subject-09,1,763,0.987733125686646,truck,truck,0,0763_stg_s09_0_truck_00_truck1-knife1.png
subject-09,1,764,1.06946206092834,knife,knife,0,0764_stg_s09_0_knife_00_knife2-dog1.png
subject-09,1,765,1.18422412872314,keyboard,keyboard,0,0765_stg_s09_0_keyboard_00_keyboard10-car1.png
subject-09,1,766,0.806578159332275,elephant,elephant,0,0766_stg_s09_0_elephant_00_elephant10-keyboard1.png
subject-09,1,767,0.819109916687012,oven,chair,0,0767_stg_s09_0_chair_00_chair6-bird2.png
subject-09,1,768,1.08482098579407,boat,knife,0,0768_stg_s09_0_knife_00_knife7-car2.png
subject-09,1,769,0.846326112747192,airplane,airplane,0,0769_stg_s09_0_airplane_00_airplane5-dog3.png
subject-09,1,770,0.868952035903931,bottle,elephant,0,0770_stg_s09_0_elephant_00_elephant3-chair1.png
subject-09,1,771,0.789039850234985,keyboard,keyboard,0,0771_stg_s09_0_keyboard_00_keyboard5-knife2.png
subject-09,1,772,0.716336011886597,chair,oven,0,0772_stg_s09_0_oven_00_oven7-oven1.png
subject-09,1,773,0.644042015075684,bicycle,bicycle,0,0773_stg_s09_0_bicycle_00_bicycle8-boat1.png
subject-09,1,774,0.683073997497559,bottle,bottle,0,0774_stg_s09_0_bottle_00_bottle7-truck2.png
subject-09,1,775,0.770670890808105,chair,chair,0,0775_stg_s09_0_chair_00_chair9-keyboard2.png
subject-09,1,776,0.747267961502075,elephant,elephant,0,0776_stg_s09_0_elephant_00_elephant9-chair2.png
subject-09,1,777,0.570087909698486,car,car,0,0777_stg_s09_0_car_00_car7-dog3.png
subject-09,1,778,0.668389081954956,keyboard,keyboard,0,0778_stg_s09_0_keyboard_00_keyboard8-dog3.png
subject-09,1,779,0.70371413230896,oven,oven,0,0779_stg_s09_0_oven_00_oven3-car2.png
subject-09,1,780,1.02389407157898,knife,boat,0,0780_stg_s09_0_boat_00_boat6-dog1.png
subject-09,1,781,0.635292768478394,dog,dog,0,0781_stg_s09_0_dog_00_dog1-dog2.png
subject-09,1,782,0.72856593132019,clock,clock,0,0782_stg_s09_0_clock_00_clock3-bird1.png
subject-09,1,783,0.715753078460693,bird,bird,0,0783_stg_s09_0_bird_00_bird8-boat3.png
subject-09,1,784,0.704613924026489,elephant,elephant,0,0784_stg_s09_0_elephant_00_elephant7-knife2.png
subject-09,1,785,0.8249351978302,cat,cat,0,0785_stg_s09_0_cat_00_cat5-elephant2.png
subject-09,1,786,0.747035980224609,truck,truck,0,0786_stg_s09_0_truck_00_truck4-bottle2.png
subject-09,1,787,0.666866064071655,cat,cat,0,0787_stg_s09_0_cat_00_cat1-cat3.png
subject-09,1,788,0.717887878417969,chair,bear,0,0788_stg_s09_0_bear_00_bear6-chair1.png
subject-09,1,789,0.738276958465576,car,car,0,0789_stg_s09_0_car_00_car9-cat1.png
subject-09,1,790,0.765546083450317,oven,boat,0,0790_stg_s09_0_boat_00_boat9-bear3.png
subject-09,1,791,0.764004945755005,cat,cat,0,0791_stg_s09_0_cat_00_cat9-bottle2.png
subject-09,1,792,0.791898012161255,bottle,knife,0,0792_stg_s09_0_knife_00_knife9-bottle2.png
subject-09,1,793,0.744045972824097,bicycle,bicycle,0,0793_stg_s09_0_bicycle_00_bicycle2-bottle1.png
subject-09,1,794,0.863572120666504,bicycle,bicycle,0,0794_stg_s09_0_bicycle_00_bicycle4-chair2.png
subject-09,1,795,0.769473791122437,clock,clock,0,0795_stg_s09_0_clock_00_clock4-car2.png
subject-09,1,796,1.33299612998962,cat,cat,0,0796_stg_s09_0_cat_00_cat10-keyboard1.png
subject-09,1,797,0.779204130172729,elephant,bear,0,0797_stg_s09_0_bear_00_bear5-bird1.png
subject-09,1,798,1.01515293121338,knife,airplane,0,0798_stg_s09_0_airplane_00_airplane8-bird1.png
subject-09,1,799,0.767616987228394,boat,boat,0,0799_stg_s09_0_boat_00_boat9-knife2.png
subject-09,1,800,0.895256996154785,knife,boat,0,0800_stg_s09_0_boat_00_boat4-bottle2.png
subject-09,1,801,0.853432893753052,car,cat,0,0801_stg_s09_0_cat_00_cat5-car2.png
subject-09,1,802,0.688712120056152,keyboard,keyboard,0,0802_stg_s09_0_keyboard_00_keyboard1-bird2.png
subject-09,1,803,0.740347146987915,cat,cat,0,0803_stg_s09_0_cat_00_cat2-truck3.png
subject-09,1,804,0.927844047546387,knife,knife,0,0804_stg_s09_0_knife_00_knife7-boat3.png
subject-09,1,805,0.980570077896118,knife,knife,0,0805_stg_s09_0_knife_00_knife10-dog1.png
subject-09,1,806,0.732116937637329,bird,bird,0,0806_stg_s09_0_bird_00_bird6-boat2.png
subject-09,1,807,0.951332807540894,dog,dog,0,0807_stg_s09_0_dog_00_dog8-chair3.png
subject-09,1,808,0.833561182022095,cat,boat,0,0808_stg_s09_0_boat_00_boat7-elephant3.png
subject-09,1,809,0.747354984283447,bicycle,bicycle,0,0809_stg_s09_0_bicycle_00_bicycle7-truck3.png
subject-09,1,810,0.658833026885986,cat,cat,0,0810_stg_s09_0_cat_00_cat10-clock1.png
subject-09,1,811,0.765300035476685,chair,oven,0,0811_stg_s09_0_oven_00_oven6-chair3.png
subject-09,1,812,0.677192211151123,cat,cat,0,0812_stg_s09_0_cat_00_cat4-dog3.png
subject-09,1,813,0.745965003967285,boat,boat,0,0813_stg_s09_0_boat_00_boat5-knife2.png
subject-09,1,814,0.927585124969482,dog,boat,0,0814_stg_s09_0_boat_00_boat3-dog3.png
subject-09,1,815,0.541558980941772,clock,clock,0,0815_stg_s09_0_clock_00_clock3-car2.png
subject-09,1,816,0.706444978713989,dog,dog,0,0816_stg_s09_0_dog_00_dog5-elephant1.png
subject-09,1,817,0.872963190078735,bird,bird,0,0817_stg_s09_0_bird_00_bird5-dog2.png
subject-09,1,818,0.670621871948242,bear,bear,0,0818_stg_s09_0_bear_00_bear5-boat2.png
subject-09,1,819,0.935963869094849,bird,bird,0,0819_stg_s09_0_bird_00_bird7-car2.png
subject-09,1,820,0.796355962753296,boat,boat,0,0820_stg_s09_0_boat_00_boat8-elephant1.png
subject-09,1,821,0.800256013870239,knife,knife,0,0821_stg_s09_0_knife_00_knife9-airplane2.png
subject-09,1,822,0.997879981994629,elephant,elephant,0,0822_stg_s09_0_elephant_00_elephant9-elephant3.png
subject-09,1,823,0.801367998123169,airplane,airplane,0,0823_stg_s09_0_airplane_00_airplane5-chair3.png
subject-09,1,824,0.885486125946045,truck,keyboard,0,0824_stg_s09_0_keyboard_00_keyboard7-truck2.png
subject-09,1,825,0.775774002075195,car,bear,0,0825_stg_s09_0_bear_00_bear10-clock1.png
subject-09,1,826,0.88811206817627,car,car,0,0826_stg_s09_0_car_00_car4-bird1.png
subject-09,1,827,0.856774091720581,bird,bird,0,0827_stg_s09_0_bird_00_bird1-chair2.png
subject-09,1,828,0.846392154693604,bottle,bottle,0,0828_stg_s09_0_bottle_00_bottle3-bird1.png
subject-09,1,829,0.69831109046936,car,car,0,0829_stg_s09_0_car_00_car10-elephant2.png
subject-09,1,830,0.663076877593994,chair,chair,0,0830_stg_s09_0_chair_00_chair4-chair3.png
subject-09,1,831,1.19674181938171,keyboard,keyboard,0,0831_stg_s09_0_keyboard_00_keyboard7-dog1.png
subject-09,1,832,0.740349054336548,bicycle,bicycle,0,0832_stg_s09_0_bicycle_00_bicycle1-bicycle3.png
subject-09,1,833,0.876548051834106,elephant,elephant,0,0833_stg_s09_0_elephant_00_elephant4-chair3.png
subject-09,1,834,0.888488054275513,boat,boat,0,0834_stg_s09_0_boat_00_boat1-bird3.png
subject-09,1,835,0.60304594039917,cat,cat,0,0835_stg_s09_0_cat_00_cat6-bear1.png
subject-09,1,836,0.700461864471436,cat,cat,0,0836_stg_s09_0_cat_00_cat8-bear1.png
subject-09,1,837,0.736736059188843,bear,cat,0,0837_stg_s09_0_cat_00_cat10-elephant3.png
subject-09,1,838,0.688920021057129,bottle,bottle,0,0838_stg_s09_0_bottle_00_bottle5-keyboard2.png
subject-09,1,839,0.801706075668335,clock,oven,0,0839_stg_s09_0_oven_00_oven2-dog3.png
subject-09,1,840,0.683451890945435,oven,oven,0,0840_stg_s09_0_oven_00_oven1-boat3.png
subject-09,1,841,1.15698599815369,bear,bear,0,0841_stg_s09_0_bear_00_bear1-airplane3.png
subject-09,1,842,0.908903121948242,clock,clock,0,0842_stg_s09_0_clock_00_clock6-bottle1.png
subject-09,1,843,0.89847207069397,cat,elephant,0,0843_stg_s09_0_elephant_00_elephant2-bird1.png
subject-09,1,844,0.664458990097046,keyboard,keyboard,0,0844_stg_s09_0_keyboard_00_keyboard7-knife1.png
subject-09,1,845,0.90044116973877,keyboard,keyboard,0,0845_stg_s09_0_keyboard_00_keyboard10-boat2.png
subject-09,1,846,0.665819883346558,bird,bird,0,0846_stg_s09_0_bird_00_bird6-car3.png
subject-09,1,847,0.804091930389404,car,car,0,0847_stg_s09_0_car_00_car10-chair1.png
subject-09,1,848,0.945580959320068,airplane,bicycle,0,0848_stg_s09_0_bicycle_00_bicycle2-keyboard2.png
subject-09,1,849,0.997639894485474,truck,truck,0,0849_stg_s09_0_truck_00_truck3-cat1.png
subject-09,1,850,0.611292123794556,clock,clock,0,0850_stg_s09_0_clock_00_clock5-clock2.png
subject-09,1,851,0.709429025650024,bear,bear,0,0851_stg_s09_0_bear_00_bear3-car2.png
subject-09,1,852,1.09738397598267,truck,truck,0,0852_stg_s09_0_truck_00_truck6-bicycle1.png
subject-09,1,853,0.67877984046936,bottle,bottle,0,0853_stg_s09_0_bottle_00_bottle8-dog2.png
subject-09,1,854,0.784763097763062,chair,chair,0,0854_stg_s09_0_chair_00_chair7-airplane1.png
subject-09,1,855,0.642689943313599,boat,boat,0,0855_stg_s09_0_boat_00_boat2-airplane1.png
subject-09,1,856,0.761690139770508,knife,knife,0,0856_stg_s09_0_knife_00_knife8-cat2.png
subject-09,1,857,0.737125873565674,car,keyboard,0,0857_stg_s09_0_keyboard_00_keyboard9-keyboard2.png
subject-09,1,858,0.602723836898804,clock,clock,0,0858_stg_s09_0_clock_00_clock7-bear2.png
subject-09,1,859,0.961220026016235,car,elephant,0,0859_stg_s09_0_elephant_00_elephant2-truck2.png
subject-09,1,860,0.718599081039429,chair,chair,0,0860_stg_s09_0_chair_00_chair10-cat1.png
subject-09,1,861,0.832782983779907,chair,chair,0,0861_stg_s09_0_chair_00_chair9-elephant1.png
subject-09,1,862,1.46588110923767,oven,oven,0,0862_stg_s09_0_oven_00_oven7-keyboard1.png
subject-09,1,863,0.704360008239746,car,boat,0,0863_stg_s09_0_boat_00_boat7-chair1.png
subject-09,1,864,1.45420789718628,knife,knife,0,0864_stg_s09_0_knife_00_knife10-elephant3.png
subject-09,1,865,1.00617098808289,bicycle,bicycle,0,0865_stg_s09_0_bicycle_00_bicycle5-dog2.png
subject-09,1,866,0.917764902114868,clock,knife,0,0866_stg_s09_0_knife_00_knife4-bear1.png
subject-09,1,867,0.814483880996704,keyboard,keyboard,0,0867_stg_s09_0_keyboard_00_keyboard4-clock2.png
subject-09,1,868,0.918810129165649,clock,clock,0,0868_stg_s09_0_clock_00_clock1-truck3.png
subject-09,1,869,0.717426061630249,boat,boat,0,0869_stg_s09_0_boat_00_boat7-boat2.png
subject-09,1,870,0.69356107711792,chair,chair,0,0870_stg_s09_0_chair_00_chair3-airplane2.png
subject-09,1,871,0.875754117965698,knife,knife,0,0871_stg_s09_0_knife_00_knife4-cat2.png
subject-09,1,872,0.745290040969849,clock,clock,0,0872_stg_s09_0_clock_00_clock9-airplane1.png
subject-09,1,873,0.965426921844482,dog,dog,0,0873_stg_s09_0_dog_00_dog8-bear3.png
subject-09,1,874,0.954651832580566,elephant,elephant,0,0874_stg_s09_0_elephant_00_elephant4-clock3.png
subject-09,1,875,1.34215998649597,bird,airplane,0,0875_stg_s09_0_airplane_00_airplane9-keyboard2.png
subject-09,1,876,0.69449520111084,oven,oven,0,0876_stg_s09_0_oven_00_oven3-boat3.png
subject-09,1,877,1.09728479385376,car,bird,0,0877_stg_s09_0_bird_00_bird3-boat3.png
subject-09,1,878,0.665328979492188,elephant,elephant,0,0878_stg_s09_0_elephant_00_elephant1-bottle1.png
subject-09,1,879,0.9772629737854,bicycle,bicycle,0,0879_stg_s09_0_bicycle_00_bicycle5-bottle3.png
subject-09,1,880,0.73767614364624,bottle,bottle,0,0880_stg_s09_0_bottle_00_bottle5-bird3.png
subject-09,1,881,0.827440023422241,oven,oven,0,0881_stg_s09_0_oven_00_oven7-car3.png
subject-09,1,882,0.985270977020264,bear,bear,0,0882_stg_s09_0_bear_00_bear6-bird2.png
subject-09,1,883,0.87208890914917,bear,cat,0,0883_stg_s09_0_cat_00_cat10-bear1.png
subject-09,1,884,0.823856115341187,oven,oven,0,0884_stg_s09_0_oven_00_oven6-bird1.png
subject-09,1,885,0.867833137512207,oven,keyboard,0,0885_stg_s09_0_keyboard_00_keyboard10-truck1.png
subject-09,1,886,0.820670127868652,bird,bird,0,0886_stg_s09_0_bird_00_bird7-boat1.png
subject-09,1,887,0.902430057525635,bicycle,bicycle,0,0887_stg_s09_0_bicycle_00_bicycle10-dog3.png
subject-09,1,888,0.814903020858765,chair,chair,0,0888_stg_s09_0_chair_00_chair1-truck3.png
subject-09,1,889,0.642979860305786,car,car,0,0889_stg_s09_0_car_00_car4-car2.png
subject-09,1,890,0.726986885070801,cat,cat,0,0890_stg_s09_0_cat_00_cat2-knife3.png
subject-09,1,891,0.790253877639771,cat,cat,0,0891_stg_s09_0_cat_00_cat6-chair3.png
subject-09,1,892,0.871667146682739,knife,knife,0,0892_stg_s09_0_knife_00_knife1-elephant1.png
subject-09,1,893,0.875408172607422,car,car,0,0893_stg_s09_0_car_00_car7-airplane2.png
subject-09,1,894,0.810750961303711,cat,cat,0,0894_stg_s09_0_cat_00_cat9-dog2.png
subject-09,1,895,0.830624103546143,dog,dog,0,0895_stg_s09_0_dog_00_dog4-cat3.png
subject-09,1,896,0.666424989700317,boat,boat,0,0896_stg_s09_0_boat_00_boat9-airplane2.png
subject-09,1,897,0.872745037078857,truck,truck,0,0897_stg_s09_0_truck_00_truck10-car3.png
subject-09,1,898,0.961039066314697,cat,bottle,0,0898_stg_s09_0_bottle_00_bottle1-keyboard3.png
subject-09,1,899,0.92066216468811,bicycle,bicycle,0,0899_stg_s09_0_bicycle_00_bicycle6-cat1.png
subject-09,1,900,0.626677989959717,cat,cat,0,0900_stg_s09_0_cat_00_cat8-car2.png
subject-09,1,901,0.716208934783936,bird,bird,0,0901_stg_s09_0_bird_00_bird1-bear1.png
subject-09,1,902,0.7825608253479,boat,boat,0,0902_stg_s09_0_boat_00_boat8-bottle1.png
subject-09,1,903,0.678334951400757,bicycle,bicycle,0,0903_stg_s09_0_bicycle_00_bicycle5-elephant1.png
subject-09,1,904,0.822333812713623,oven,boat,0,0904_stg_s09_0_boat_00_boat7-truck2.png
subject-09,1,905,0.733244180679321,oven,oven,0,0905_stg_s09_0_oven_00_oven9-keyboard1.png
subject-09,1,906,0.677376985549927,bird,bird,0,0906_stg_s09_0_bird_00_bird9-chair1.png
subject-09,1,907,0.712630987167358,cat,cat,0,0907_stg_s09_0_cat_00_cat2-cat1.png
subject-09,1,908,0.60851001739502,clock,clock,0,0908_stg_s09_0_clock_00_clock6-clock2.png
subject-09,1,909,0.677459001541138,bottle,bottle,0,0909_stg_s09_0_bottle_00_bottle6-chair2.png
subject-09,1,910,0.881914138793945,bird,bird,0,0910_stg_s09_0_bird_00_bird4-dog3.png
subject-09,1,911,0.91751503944397,keyboard,keyboard,0,0911_stg_s09_0_keyboard_00_keyboard7-bottle1.png
subject-09,1,912,0.785528898239136,clock,clock,0,0912_stg_s09_0_clock_00_clock10-boat2.png
subject-09,1,913,0.752304077148438,car,car,0,0913_stg_s09_0_car_00_car5-cat1.png
subject-09,1,914,1.27237296104431,elephant,elephant,0,0914_stg_s09_0_elephant_00_elephant2-airplane3.png
subject-09,1,915,0.877997159957886,keyboard,oven,0,0915_stg_s09_0_oven_00_oven1-dog3.png
subject-09,1,916,0.926565885543823,car,boat,0,0916_stg_s09_0_boat_00_boat3-car3.png
subject-09,1,917,0.746140003204346,truck,truck,0,0917_stg_s09_0_truck_00_truck5-airplane2.png
subject-09,1,918,0.698240041732788,keyboard,keyboard,0,0918_stg_s09_0_keyboard_00_keyboard4-cat2.png
subject-09,1,919,0.642197132110596,bottle,bottle,0,0919_stg_s09_0_bottle_00_bottle2-elephant1.png
subject-09,1,920,1.07570385932922,bird,bird,0,0920_stg_s09_0_bird_00_bird8-bottle1.png
subject-09,1,921,0.737066030502319,knife,knife,0,0921_stg_s09_0_knife_00_knife6-bird1.png
subject-09,1,922,0.94871997833252,bicycle,bicycle,0,0922_stg_s09_0_bicycle_00_bicycle5-cat1.png
subject-09,1,923,0.722162008285522,keyboard,keyboard,0,0923_stg_s09_0_keyboard_00_keyboard8-airplane2.png
subject-09,1,924,0.920152902603149,dog,dog,0,0924_stg_s09_0_dog_00_dog9-boat1.png
subject-09,1,925,0.656414985656738,cat,cat,0,0925_stg_s09_0_cat_00_cat8-bird2.png
subject-09,1,926,0.684237003326416,chair,chair,0,0926_stg_s09_0_chair_00_chair10-dog1.png
subject-09,1,927,0.611753940582275,oven,oven,0,0927_stg_s09_0_oven_00_oven8-knife2.png
subject-09,1,928,0.79399299621582,airplane,airplane,0,0928_stg_s09_0_airplane_00_airplane5-bird2.png
subject-09,1,929,0.697789907455444,chair,chair,0,0929_stg_s09_0_chair_00_chair3-dog2.png
subject-09,1,930,0.941616058349609,chair,chair,0,0930_stg_s09_0_chair_00_chair3-bottle3.png
subject-09,1,931,0.945026874542236,bear,bear,0,0931_stg_s09_0_bear_00_bear2-car2.png
subject-09,1,932,0.551694869995117,oven,oven,0,0932_stg_s09_0_oven_00_oven6-bicycle1.png
subject-09,1,933,0.834221839904785,truck,truck,0,0933_stg_s09_0_truck_00_truck6-bear2.png
subject-09,1,934,0.716087102890015,chair,chair,0,0934_stg_s09_0_chair_00_chair6-dog1.png
subject-09,1,935,0.821988105773926,bottle,bottle,0,0935_stg_s09_0_bottle_00_bottle5-clock3.png
subject-09,1,936,0.918424844741821,airplane,boat,0,0936_stg_s09_0_boat_00_boat3-keyboard2.png
subject-09,1,937,0.879426002502441,boat,keyboard,0,0937_stg_s09_0_keyboard_00_keyboard4-truck3.png
subject-09,1,938,0.561105012893677,clock,clock,0,0938_stg_s09_0_clock_00_clock8-knife1.png
subject-09,1,939,0.751466989517212,boat,boat,0,0939_stg_s09_0_boat_00_boat8-bird2.png
subject-09,1,940,0.847121953964233,elephant,boat,0,0940_stg_s09_0_boat_00_boat4-elephant2.png
subject-09,1,941,1.49675512313843,knife,knife,0,0941_stg_s09_0_knife_00_knife5-keyboard3.png
subject-09,1,942,0.759308099746704,oven,bicycle,0,0942_stg_s09_0_bicycle_00_bicycle9-keyboard3.png
subject-09,1,943,0.617901086807251,bird,bird,0,0943_stg_s09_0_bird_00_bird5-car2.png
subject-09,1,944,0.777740001678467,airplane,airplane,0,0944_stg_s09_0_airplane_00_airplane5-knife1.png
subject-09,1,945,0.751629829406738,oven,oven,0,0945_stg_s09_0_oven_00_oven10-truck2.png
subject-09,1,946,0.893324136734009,bicycle,bicycle,0,0946_stg_s09_0_bicycle_00_bicycle7-knife2.png
subject-09,1,947,0.983644962310791,bicycle,bicycle,0,0947_stg_s09_0_bicycle_00_bicycle5-bear1.png
subject-09,1,948,0.927067041397095,dog,dog,0,0948_stg_s09_0_dog_00_dog8-oven3.png
subject-09,1,949,0.985115051269531,bird,bird,0,0949_stg_s09_0_bird_00_bird7-knife2.png
subject-09,1,950,0.83437705039978,knife,knife,0,0950_stg_s09_0_knife_00_knife2-bicycle3.png
subject-09,1,951,0.756280183792114,bird,boat,0,0951_stg_s09_0_boat_00_boat10-cat1.png
subject-09,1,952,0.638427019119263,airplane,airplane,0,0952_stg_s09_0_airplane_00_airplane7-truck1.png
subject-09,1,953,0.956282138824463,elephant,knife,0,0953_stg_s09_0_knife_00_knife2-elephant2.png
subject-09,1,954,0.799612998962402,elephant,elephant,0,0954_stg_s09_0_elephant_00_elephant2-bear3.png
subject-09,1,955,0.722650051116943,cat,cat,0,0955_stg_s09_0_cat_00_cat1-keyboard3.png
subject-09,1,956,0.629194021224976,airplane,airplane,0,0956_stg_s09_0_airplane_00_airplane7-boat2.png
subject-09,1,957,0.908349990844727,car,car,0,0957_stg_s09_0_car_00_car2-chair1.png
subject-09,1,958,0.701127052307129,oven,oven,0,0958_stg_s09_0_oven_00_oven6-oven3.png
subject-09,1,959,0.697454929351807,clock,clock,0,0959_stg_s09_0_clock_00_clock10-bottle1.png
subject-09,1,960,0.741849899291992,car,car,0,0960_stg_s09_0_car_00_car7-clock1.png
subject-09,1,961,0.617287874221802,oven,oven,0,0961_stg_s09_0_oven_00_oven5-dog3.png
subject-09,1,962,0.521114110946655,cat,cat,0,0962_stg_s09_0_cat_00_cat7-clock3.png
subject-09,1,963,0.833210945129395,bird,elephant,0,0963_stg_s09_0_elephant_00_elephant7-cat1.png
subject-09,1,964,0.931824207305908,car,car,0,0964_stg_s09_0_car_00_car3-elephant3.png
subject-09,1,965,0.850941896438599,truck,truck,0,0965_stg_s09_0_truck_00_truck4-airplane3.png
subject-09,1,966,1.01083183288574,knife,keyboard,0,0966_stg_s09_0_keyboard_00_keyboard9-elephant2.png
subject-09,1,967,1.03692889213562,truck,truck,0,0967_stg_s09_0_truck_00_truck8-bottle2.png
subject-09,1,968,0.821523904800415,bottle,bottle,0,0968_stg_s09_0_bottle_00_bottle10-dog1.png
subject-09,1,969,0.871612071990967,bear,bear,0,0969_stg_s09_0_bear_00_bear1-bicycle3.png
subject-09,1,970,0.768331050872803,truck,truck,0,0970_stg_s09_0_truck_00_truck10-elephant3.png
subject-09,1,971,0.881572008132935,bird,bear,0,0971_stg_s09_0_bear_00_bear6-bear1.png
subject-09,1,972,0.863838911056519,bear,bear,0,0972_stg_s09_0_bear_00_bear10-elephant1.png
subject-09,1,973,1.09915614128113,cat,cat,0,0973_stg_s09_0_cat_00_cat10-bottle1.png
subject-09,1,974,0.851444005966187,knife,knife,0,0974_stg_s09_0_knife_00_knife4-keyboard1.png
subject-09,1,975,0.771043062210083,cat,cat,0,0975_stg_s09_0_cat_00_cat5-boat1.png
subject-09,1,976,0.870004892349243,knife,knife,0,0976_stg_s09_0_knife_00_knife1-clock2.png
subject-09,1,977,0.997580051422119,bicycle,bicycle,0,0977_stg_s09_0_bicycle_00_bicycle1-truck1.png
subject-09,1,978,0.9477219581604,cat,cat,0,0978_stg_s09_0_cat_00_cat5-dog3.png
subject-09,1,979,0.929553031921387,dog,dog,0,0979_stg_s09_0_dog_00_dog10-elephant1.png
subject-09,1,980,0.811554908752441,chair,car,0,0980_stg_s09_0_car_00_car1-chair3.png
subject-09,1,981,0.80971097946167,airplane,elephant,0,0981_stg_s09_0_elephant_00_elephant7-keyboard3.png
subject-09,1,982,0.76191782951355,bear,bear,0,0982_stg_s09_0_bear_00_bear7-bicycle2.png
subject-09,1,983,0.966611862182617,bear,bear,0,0983_stg_s09_0_bear_00_bear8-bear1.png
subject-09,1,984,0.758519172668457,cat,airplane,0,0984_stg_s09_0_airplane_00_airplane4-cat3.png
subject-09,1,985,0.838066816329956,elephant,elephant,0,0985_stg_s09_0_elephant_00_elephant3-oven1.png
subject-09,1,986,1.05008387565613,dog,dog,0,0986_stg_s09_0_dog_00_dog9-chair2.png
subject-09,1,987,0.842855930328369,bottle,bottle,0,0987_stg_s09_0_bottle_00_bottle9-car3.png
subject-09,1,988,0.763514995574951,bottle,bottle,0,0988_stg_s09_0_bottle_00_bottle1-chair2.png
subject-09,1,989,0.737430095672607,chair,knife,0,0989_stg_s09_0_knife_00_knife9-chair1.png
subject-09,1,990,0.736237049102783,bicycle,bicycle,0,0990_stg_s09_0_bicycle_00_bicycle4-truck3.png
subject-09,1,991,0.697214126586914,oven,oven,0,0991_stg_s09_0_oven_00_oven9-airplane2.png
subject-09,1,992,0.754789113998413,chair,dog,0,0992_stg_s09_0_dog_00_dog6-truck2.png
subject-09,1,993,0.844444990158081,elephant,elephant,0,0993_stg_s09_0_elephant_00_elephant3-truck1.png
subject-09,1,994,0.771783828735352,oven,oven,0,0994_stg_s09_0_oven_00_oven5-elephant1.png
subject-09,1,995,0.870228052139282,elephant,elephant,0,0995_stg_s09_0_elephant_00_elephant1-bear2.png
subject-09,1,996,0.927767038345337,car,keyboard,0,0996_stg_s09_0_keyboard_00_keyboard2-knife1.png
subject-09,1,997,0.717895984649658,bicycle,bicycle,0,0997_stg_s09_0_bicycle_00_bicycle2-car2.png
subject-09,1,998,0.807996034622192,elephant,elephant,0,0998_stg_s09_0_elephant_00_elephant4-boat3.png
subject-09,1,999,1.00643706321716,keyboard,keyboard,0,0999_stg_s09_0_keyboard_00_keyboard3-cat1.png
subject-09,1,1000,1.05678582191467,airplane,airplane,0,1000_stg_s09_0_airplane_00_airplane5-bear2.png
subject-09,1,1001,0.762555837631226,elephant,bird,0,1001_stg_s09_0_bird_00_bird1-elephant2.png
subject-09,1,1002,0.760332107543945,truck,truck,0,1002_stg_s09_0_truck_00_truck3-chair2.png
subject-09,1,1003,0.877678155899048,clock,clock,0,1003_stg_s09_0_clock_00_clock7-bottle2.png
subject-09,1,1004,0.867931842803955,keyboard,keyboard,0,1004_stg_s09_0_keyboard_00_keyboard5-oven2.png
subject-09,1,1005,0.66643500328064,boat,boat,0,1005_stg_s09_0_boat_00_boat3-bicycle2.png
subject-09,1,1006,0.880959987640381,dog,dog,0,1006_stg_s09_0_dog_00_dog8-clock2.png
subject-09,1,1007,0.885247945785522,elephant,elephant,0,1007_stg_s09_0_elephant_00_elephant5-car1.png
subject-09,1,1008,0.913075923919678,dog,dog,0,1008_stg_s09_0_dog_00_dog8-boat3.png
subject-09,1,1009,0.74888801574707,bear,bear,0,1009_stg_s09_0_bear_00_bear8-airplane1.png
subject-09,1,1010,0.655226945877075,bottle,bottle,0,1010_stg_s09_0_bottle_00_bottle2-clock1.png
subject-09,1,1011,1.06739187240601,truck,truck,0,1011_stg_s09_0_truck_00_truck2-bicycle2.png
subject-09,1,1012,0.848809957504272,dog,dog,0,1012_stg_s09_0_dog_00_dog9-bear3.png
subject-09,1,1013,0.868641138076782,car,car,0,1013_stg_s09_0_car_00_car1-car2.png
subject-09,1,1014,0.881144046783447,cat,cat,0,1014_stg_s09_0_cat_00_cat4-cat3.png
subject-09,1,1015,1.04646992683411,bird,elephant,0,1015_stg_s09_0_elephant_00_elephant6-bird1.png
subject-09,1,1016,0.790137052536011,knife,knife,0,1016_stg_s09_0_knife_00_knife8-boat1.png
subject-09,1,1017,1.31869983673096,keyboard,keyboard,0,1017_stg_s09_0_keyboard_00_keyboard3-clock3.png
subject-09,1,1018,0.78628396987915,bottle,bottle,0,1018_stg_s09_0_bottle_00_bottle9-oven2.png
subject-09,1,1019,0.736476898193359,bear,bear,0,1019_stg_s09_0_bear_00_bear10-car2.png
subject-09,1,1020,0.772870779037476,dog,dog,0,1020_stg_s09_0_dog_00_dog3-truck2.png
subject-09,1,1021,0.794761896133423,cat,dog,0,1021_stg_s09_0_dog_00_dog2-bottle2.png
subject-09,1,1022,0.715459823608398,knife,knife,0,1022_stg_s09_0_knife_00_knife5-cat2.png
subject-09,1,1023,1.06509804725647,bear,bear,0,1023_stg_s09_0_bear_00_bear8-bottle1.png
subject-09,1,1024,0.762372016906738,bicycle,bicycle,0,1024_stg_s09_0_bicycle_00_bicycle5-chair2.png
subject-09,1,1025,0.679908037185669,car,car,0,1025_stg_s09_0_car_00_car2-bird3.png
subject-09,1,1026,0.794391870498657,car,car,0,1026_stg_s09_0_car_00_car8-knife2.png
subject-09,1,1027,0.888568878173828,bottle,bottle,0,1027_stg_s09_0_bottle_00_bottle9-keyboard1.png
subject-09,1,1028,0.901060104370117,dog,dog,0,1028_stg_s09_0_dog_00_dog4-keyboard2.png
subject-09,1,1029,0.7985680103302,bird,bird,0,1029_stg_s09_0_bird_00_bird8-car2.png
subject-09,1,1030,0.691793918609619,bird,bird,0,1030_stg_s09_0_bird_00_bird10-bird2.png
subject-09,1,1031,0.665376901626587,bear,bear,0,1031_stg_s09_0_bear_00_bear9-knife2.png
subject-09,1,1032,1.26966595649719,bird,knife,0,1032_stg_s09_0_knife_00_knife4-knife2.png
subject-09,1,1033,0.759627103805542,elephant,airplane,0,1033_stg_s09_0_airplane_00_airplane3-elephant1.png
subject-09,1,1034,0.77173900604248,bird,bear,0,1034_stg_s09_0_bear_00_bear10-keyboard3.png
subject-09,1,1035,0.622550964355469,bicycle,bicycle,0,1035_stg_s09_0_bicycle_00_bicycle1-bottle3.png
subject-09,1,1036,0.688150882720947,airplane,airplane,0,1036_stg_s09_0_airplane_00_airplane5-bottle3.png
subject-09,1,1037,1.09177684783936,keyboard,keyboard,0,1037_stg_s09_0_keyboard_00_keyboard9-truck3.png
subject-09,1,1038,0.613805055618286,truck,truck,0,1038_stg_s09_0_truck_00_truck2-car3.png
subject-09,1,1039,0.817219972610474,knife,boat,0,1039_stg_s09_0_boat_00_boat6-bicycle2.png
subject-09,1,1040,0.785811901092529,keyboard,keyboard,0,1040_stg_s09_0_keyboard_00_keyboard9-chair2.png
subject-09,1,1041,0.661473989486694,oven,oven,0,1041_stg_s09_0_oven_00_oven2-boat3.png
subject-09,1,1042,0.575075149536133,cat,cat,0,1042_stg_s09_0_cat_00_cat7-boat3.png
subject-09,1,1043,0.748018980026245,truck,truck,0,1043_stg_s09_0_truck_00_truck1-car3.png
subject-09,1,1044,0.830843925476074,bird,bird,0,1044_stg_s09_0_bird_00_bird1-airplane2.png
subject-09,1,1045,0.62859582901001,oven,oven,0,1045_stg_s09_0_oven_00_oven2-car1.png
subject-09,1,1046,0.800514221191406,bird,cat,0,1046_stg_s09_0_cat_00_cat4-car2.png
subject-09,1,1047,0.654824018478394,cat,cat,0,1047_stg_s09_0_cat_00_cat8-bicycle3.png
subject-09,1,1048,0.774990081787109,bicycle,bicycle,0,1048_stg_s09_0_bicycle_00_bicycle9-knife3.png
subject-09,1,1049,0.971179962158203,knife,knife,0,1049_stg_s09_0_knife_00_knife6-dog2.png
subject-09,1,1050,0.761066913604736,bird,bird,0,1050_stg_s09_0_bird_00_bird3-truck3.png
subject-09,1,1051,0.896208047866821,airplane,airplane,0,1051_stg_s09_0_airplane_00_airplane3-airplane2.png
subject-09,1,1052,0.66198992729187,boat,boat,0,1052_stg_s09_0_boat_00_boat1-bicycle2.png
subject-09,1,1053,1.2667920589447,bear,bear,0,1053_stg_s09_0_bear_00_bear3-truck3.png
subject-09,1,1054,0.850664854049683,dog,dog,0,1054_stg_s09_0_dog_00_dog6-bird1.png
subject-09,1,1055,0.700636148452759,clock,clock,0,1055_stg_s09_0_clock_00_clock1-car1.png
subject-09,1,1056,0.669112920761108,boat,boat,0,1056_stg_s09_0_boat_00_boat3-clock3.png
subject-09,1,1057,0.831590890884399,bear,bear,0,1057_stg_s09_0_bear_00_bear10-bottle1.png
subject-09,1,1058,0.851729154586792,dog,dog,0,1058_stg_s09_0_dog_00_dog4-truck2.png
subject-09,1,1059,0.844230890274048,cat,dog,0,1059_stg_s09_0_dog_00_dog1-car2.png
subject-09,1,1060,0.624286890029907,chair,chair,0,1060_stg_s09_0_chair_00_chair8-oven1.png
subject-09,1,1061,0.621533870697021,clock,clock,0,1061_stg_s09_0_clock_00_clock6-knife2.png
subject-09,1,1062,0.58185601234436,bird,bird,0,1062_stg_s09_0_bird_00_bird10-clock1.png
subject-09,1,1063,0.785268068313599,cat,bird,0,1063_stg_s09_0_bird_00_bird2-knife1.png
subject-09,1,1064,0.745810031890869,elephant,elephant,0,1064_stg_s09_0_elephant_00_elephant9-dog3.png
subject-09,1,1065,0.711210012435913,clock,clock,0,1065_stg_s09_0_clock_00_clock10-dog3.png
subject-09,1,1066,0.531542062759399,cat,cat,0,1066_stg_s09_0_cat_00_cat3-bear2.png
subject-09,1,1067,0.71306586265564,chair,chair,0,1067_stg_s09_0_chair_00_chair8-airplane1.png
subject-09,1,1068,0.782250165939331,clock,clock,0,1068_stg_s09_0_clock_00_clock5-oven1.png
subject-09,1,1069,0.885669946670532,chair,chair,0,1069_stg_s09_0_chair_00_chair8-clock3.png
subject-09,1,1070,0.682665109634399,truck,truck,0,1070_stg_s09_0_truck_00_truck1-clock3.png
subject-09,1,1071,0.764746904373169,cat,dog,0,1071_stg_s09_0_dog_00_dog7-car2.png
subject-09,1,1072,0.605583906173706,chair,chair,0,1072_stg_s09_0_chair_00_chair5-truck3.png
subject-09,1,1073,0.79584002494812,chair,chair,0,1073_stg_s09_0_chair_00_chair5-keyboard2.png
subject-09,1,1074,0.998893022537231,truck,truck,0,1074_stg_s09_0_truck_00_truck4-oven2.png
subject-09,1,1075,0.856899976730347,cat,cat,0,1075_stg_s09_0_cat_00_cat1-airplane1.png
subject-09,1,1076,0.683847904205322,clock,clock,0,1076_stg_s09_0_clock_00_clock10-knife3.png
subject-09,1,1077,0.795527935028076,bird,bird,0,1077_stg_s09_0_bird_00_bird1-truck1.png
subject-09,1,1078,0.853389978408813,truck,car,0,1078_stg_s09_0_car_00_car1-oven3.png
subject-09,1,1079,0.73717999458313,elephant,elephant,0,1079_stg_s09_0_elephant_00_elephant8-bicycle3.png
subject-09,1,1080,0.771163940429688,bear,bear,0,1080_stg_s09_0_bear_00_bear1-clock2.png
subject-09,1,1081,0.7761390209198,bear,bear,0,1081_stg_s09_0_bear_00_bear7-clock1.png
subject-09,1,1082,1.20253801345825,clock,clock,0,1082_stg_s09_0_clock_00_clock10-airplane1.png
subject-09,1,1083,0.786504030227661,truck,truck,0,1083_stg_s09_0_truck_00_truck1-cat1.png
subject-09,1,1084,0.576543092727661,clock,clock,0,1084_stg_s09_0_clock_00_clock6-bicycle1.png
subject-09,1,1085,0.80437183380127,clock,clock,0,1085_stg_s09_0_clock_00_clock8-cat1.png
subject-09,1,1086,0.846756935119629,clock,bottle,0,1086_stg_s09_0_bottle_00_bottle7-cat2.png
subject-09,1,1087,0.606216907501221,clock,clock,0,1087_stg_s09_0_clock_00_clock10-clock3.png
subject-09,1,1088,0.80967903137207,bicycle,bicycle,0,1088_stg_s09_0_bicycle_00_bicycle7-bicycle2.png
subject-09,1,1089,0.876163005828857,knife,knife,0,1089_stg_s09_0_knife_00_knife3-cat1.png
subject-09,1,1090,0.757905006408691,keyboard,keyboard,0,1090_stg_s09_0_keyboard_00_keyboard1-chair2.png
subject-09,1,1091,0.802254915237427,bear,bear,0,1091_stg_s09_0_bear_00_bear9-dog1.png
subject-09,1,1092,0.667436122894287,bird,bird,0,1092_stg_s09_0_bird_00_bird10-cat1.png
subject-09,1,1093,0.824820041656494,elephant,elephant,0,1093_stg_s09_0_elephant_00_elephant9-bicycle2.png
subject-09,1,1094,0.906906843185425,bottle,bottle,0,1094_stg_s09_0_bottle_00_bottle5-knife1.png
