subj,session,trial,rt,object_response,category,condition,imagename
subject-01,1,1,1.45217204093933,bottle,boat,0,0001_stg_s01_0_boat_00_boat1-truck3.png
subject-01,1,2,1.50003004074097,car,airplane,0,0002_stg_s01_0_airplane_00_airplane4-car1.png
subject-01,1,3,1.50025820732117,bear,bear,0,0003_stg_s01_0_bear_00_bear10-bottle1.png
subject-01,1,4,1.50013089179993,bottle,bottle,0,0004_stg_s01_0_bottle_00_bottle9-bottle1.png
subject-01,1,5,1.50014805793762,bear,dog,0,0005_stg_s01_0_dog_00_dog9-bicycle3.png
subject-01,1,6,1.50023794174194,clock,oven,0,0006_stg_s01_0_oven_00_oven3-cat2.png
subject-01,1,7,1.50012898445129,bicycle,bicycle,0,0007_stg_s01_0_bicycle_00_bicycle2-car2.png
subject-01,1,8,1.41855502128601,car,knife,0,0008_stg_s01_0_knife_00_knife1-truck2.png
subject-01,1,9,1.50025796890259,clock,oven,0,0009_stg_s01_0_oven_00_oven3-truck1.png
subject-01,1,10,1.45721983909607,knife,knife,0,0010_stg_s01_0_knife_00_knife1-elephant1.png
subject-01,1,11,1.50012993812561,bicycle,bicycle,0,0011_stg_s01_0_bicycle_00_bicycle5-dog2.png
subject-01,1,12,1.50018882751465,chair,chair,0,0012_stg_s01_0_chair_00_chair7-boat3.png
subject-01,1,13,1.50018501281738,bear,bear,0,0013_stg_s01_0_bear_00_bear10-knife2.png
subject-01,1,14,1.50007796287537,knife,airplane,0,0014_stg_s01_0_airplane_00_airplane7-clock3.png
subject-01,1,15,1.44621396064758,bicycle,boat,0,0015_stg_s01_0_boat_00_boat3-keyboard2.png
subject-01,1,16,1.50000596046448,bicycle,bird,0,0016_stg_s01_0_bird_00_bird8-knife2.png
subject-01,1,17,1.50012016296387,keyboard,keyboard,0,0017_stg_s01_0_keyboard_00_keyboard7-clock3.png
subject-01,1,18,1.50021409988403,clock,clock,0,0018_stg_s01_0_clock_00_clock2-bicycle1.png
subject-01,1,19,1.43538188934326,boat,airplane,0,0019_stg_s01_0_airplane_00_airplane10-oven2.png
subject-01,1,20,1.47149109840393,bicycle,elephant,0,0020_stg_s01_0_elephant_00_elephant2-truck2.png
subject-01,1,21,1.40693211555481,knife,boat,0,0021_stg_s01_0_boat_00_boat6-clock2.png
subject-01,1,22,1.46615600585938,knife,knife,0,0022_stg_s01_0_knife_00_knife5-knife3.png
subject-01,1,23,1.28561401367188,bear,bear,0,0023_stg_s01_0_bear_00_bear2-elephant1.png
subject-01,1,24,1.50026321411133,bottle,boat,0,0024_stg_s01_0_boat_00_boat7-keyboard3.png
subject-01,1,25,1.500412940979,truck,truck,0,0025_stg_s01_0_truck_00_truck6-dog2.png
subject-01,1,26,1.32526397705078,knife,bear,0,0026_stg_s01_0_bear_00_bear6-boat3.png
subject-01,1,27,1.34674596786499,bear,bear,0,0027_stg_s01_0_bear_00_bear4-oven2.png
subject-01,1,28,1.22859883308411,bear,bear,0,0028_stg_s01_0_bear_00_bear2-knife2.png
subject-01,1,29,1.35070419311523,knife,airplane,0,0029_stg_s01_0_airplane_00_airplane8-elephant3.png
subject-01,1,30,1.50026488304138,bicycle,bicycle,0,0030_stg_s01_0_bicycle_00_bicycle9-car1.png
subject-01,1,31,1.49231100082397,dog,dog,0,0031_stg_s01_0_dog_00_dog9-bear3.png
subject-01,1,32,1.50008201599121,bicycle,dog,0,0032_stg_s01_0_dog_00_dog2-bottle2.png
subject-01,1,33,1.37204599380493,clock,clock,0,0033_stg_s01_0_clock_00_clock10-knife3.png
subject-01,1,34,1.50026988983154,oven,boat,0,0034_stg_s01_0_boat_00_boat10-cat1.png
subject-01,1,35,1.23030304908752,knife,knife,0,0035_stg_s01_0_knife_00_knife2-cat3.png
subject-01,1,36,1.17353487014771,truck,truck,0,0036_stg_s01_0_truck_00_truck1-knife1.png
subject-01,1,37,1.34093999862671,clock,clock,0,0037_stg_s01_0_clock_00_clock8-cat1.png
subject-01,1,38,1.48514795303345,airplane,airplane,0,0038_stg_s01_0_airplane_00_airplane5-dog3.png
subject-01,1,39,1.46689105033875,keyboard,keyboard,0,0039_stg_s01_0_keyboard_00_keyboard9-chair2.png
subject-01,1,40,1.50035285949707,bear,bear,0,0040_stg_s01_0_bear_00_bear4-car3.png
subject-01,1,41,1.2165949344635,cat,cat,0,0041_stg_s01_0_cat_00_cat1-cat3.png
subject-01,1,42,1.4382381439209,cat,cat,0,0042_stg_s01_0_cat_00_cat7-elephant1.png
subject-01,1,43,1.24812912940979,cat,cat,0,0043_stg_s01_0_cat_00_cat7-clock3.png
subject-01,1,44,1.40563702583313,clock,clock,0,0044_stg_s01_0_clock_00_clock5-airplane1.png
subject-01,1,45,1.50023889541626,elephant,elephant,0,0045_stg_s01_0_elephant_00_elephant3-keyboard2.png
subject-01,1,46,1.47879910469055,elephant,elephant,0,0046_stg_s01_0_elephant_00_elephant2-elephant3.png
subject-01,1,47,1.50031399726868,bottle,bottle,0,0047_stg_s01_0_bottle_00_bottle7-boat3.png
subject-01,1,48,1.44154191017151,bicycle,bicycle,0,0048_stg_s01_0_bicycle_00_bicycle9-knife3.png
subject-01,1,49,1.50030303001404,bottle,bottle,0,0049_stg_s01_0_bottle_00_bottle3-bottle3.png
subject-01,1,50,1.47525501251221,knife,knife,0,0050_stg_s01_0_knife_00_knife1-oven1.png
subject-01,1,51,1.20570087432861,cat,cat,0,0051_stg_s01_0_cat_00_cat1-chair2.png
subject-01,1,52,1.50015807151794,dog,knife,0,0052_stg_s01_0_knife_00_knife6-chair3.png
subject-01,1,53,1.29141211509705,oven,clock,0,0053_stg_s01_0_clock_00_clock1-dog2.png
subject-01,1,54,1.50020813941956,elephant,elephant,0,0054_stg_s01_0_elephant_00_elephant9-boat3.png
subject-01,1,55,1.47890090942383,car,car,0,0055_stg_s01_0_car_00_car4-bottle1.png
subject-01,1,56,1.4461522102356,car,cat,0,0056_stg_s01_0_cat_00_cat3-truck3.png
subject-01,1,57,1.5001049041748,truck,truck,0,0057_stg_s01_0_truck_00_truck2-chair1.png
subject-01,1,58,1.50012397766113,knife,knife,0,0058_stg_s01_0_knife_00_knife5-bicycle2.png
subject-01,1,59,1.50017189979553,car,car,0,0059_stg_s01_0_car_00_car8-knife2.png
subject-01,1,60,1.50024104118347,bicycle,bicycle,0,0060_stg_s01_0_bicycle_00_bicycle5-cat1.png
subject-01,1,61,1.50010585784912,oven,oven,0,0061_stg_s01_0_oven_00_oven2-bottle1.png
subject-01,1,62,1.33507418632507,oven,oven,0,0062_stg_s01_0_oven_00_oven1-boat3.png
subject-01,1,63,1.27309894561768,oven,oven,0,0063_stg_s01_0_oven_00_oven3-clock3.png
subject-01,1,64,1.41695404052734,bottle,bottle,0,0064_stg_s01_0_bottle_00_bottle2-chair3.png
subject-01,1,65,1.40674686431885,knife,knife,0,0065_stg_s01_0_knife_00_knife7-bottle3.png
subject-01,1,66,1.50023984909058,knife,knife,0,0066_stg_s01_0_knife_00_knife8-truck3.png
subject-01,1,67,1.50016617774963,keyboard,keyboard,0,0067_stg_s01_0_keyboard_00_keyboard4-bird1.png
subject-01,1,68,1.48898696899414,knife,knife,0,0068_stg_s01_0_knife_00_knife2-bear2.png
subject-01,1,69,1.50018095970154,bicycle,bicycle,0,0069_stg_s01_0_bicycle_00_bicycle9-keyboard3.png
subject-01,1,70,1.36315417289734,bicycle,bicycle,0,0070_stg_s01_0_bicycle_00_bicycle4-knife3.png
subject-01,1,71,1.20696401596069,oven,oven,0,0071_stg_s01_0_oven_00_oven6-truck1.png
subject-01,1,72,1.19760894775391,bicycle,bicycle,0,0072_stg_s01_0_bicycle_00_bicycle5-chair2.png
subject-01,1,73,1.44898390769958,airplane,airplane,0,0073_stg_s01_0_airplane_00_airplane5-bottle3.png
subject-01,1,74,1.50006294250488,bicycle,bird,0,0074_stg_s01_0_bird_00_bird3-boat3.png
subject-01,1,75,1.50019001960754,elephant,elephant,0,0075_stg_s01_0_elephant_00_elephant1-airplane2.png
subject-01,1,76,1.48758602142334,bicycle,bird,0,0076_stg_s01_0_bird_00_bird3-oven1.png
subject-01,1,77,1.5001699924469,oven,chair,0,0077_stg_s01_0_chair_00_chair6-elephant2.png
subject-01,1,78,1.50025510787964,dog,dog,0,0078_stg_s01_0_dog_00_dog10-keyboard2.png
subject-01,1,79,1.50007295608521,elephant,elephant,0,0079_stg_s01_0_elephant_00_elephant3-truck1.png
subject-01,1,80,1.50003790855408,elephant,elephant,0,0080_stg_s01_0_elephant_00_elephant8-clock2.png
subject-01,1,81,1.25618004798889,clock,clock,0,0081_stg_s01_0_clock_00_clock10-oven2.png
subject-01,1,82,1.50011110305786,truck,truck,0,0082_stg_s01_0_truck_00_truck1-car3.png
subject-01,1,83,1.50013279914856,car,cat,0,0083_stg_s01_0_cat_00_cat10-airplane3.png
subject-01,1,84,1.45644021034241,clock,bird,0,0084_stg_s01_0_bird_00_bird4-bicycle2.png
subject-01,1,85,1.48638200759888,truck,truck,0,0085_stg_s01_0_truck_00_truck6-bear2.png
subject-01,1,86,1.50049495697021,bird,airplane,0,0086_stg_s01_0_airplane_00_airplane3-keyboard2.png
subject-01,1,87,1.50002312660217,truck,truck,0,0087_stg_s01_0_truck_00_truck2-keyboard1.png
subject-01,1,88,1.37802696228027,chair,chair,0,0088_stg_s01_0_chair_00_chair1-dog1.png
subject-01,1,89,1.34601902961731,bicycle,bicycle,0,0089_stg_s01_0_bicycle_00_bicycle1-boat3.png
subject-01,1,90,1.45751214027405,dog,bird,0,0090_stg_s01_0_bird_00_bird6-airplane2.png
subject-01,1,91,1.42629790306091,bicycle,bicycle,0,0091_stg_s01_0_bicycle_00_bicycle6-dog2.png
subject-01,1,92,1.31168985366821,bottle,bottle,0,0092_stg_s01_0_bottle_00_bottle5-keyboard2.png
subject-01,1,93,1.50017309188843,elephant,elephant,0,0093_stg_s01_0_elephant_00_elephant4-oven1.png
subject-01,1,94,1.39142799377441,car,car,0,0094_stg_s01_0_car_00_car7-car1.png
subject-01,1,95,1.50015902519226,boat,boat,0,0095_stg_s01_0_boat_00_boat1-bicycle2.png
subject-01,1,96,1.50013303756714,dog,dog,0,0096_stg_s01_0_dog_00_dog8-dog3.png
subject-01,1,97,1.50034093856812,bird,bird,0,0097_stg_s01_0_bird_00_bird9-keyboard1.png
subject-01,1,98,1.48397207260132,elephant,elephant,0,0098_stg_s01_0_elephant_00_elephant8-truck3.png
subject-01,1,99,1.50020003318787,bottle,bottle,0,0099_stg_s01_0_bottle_00_bottle1-dog2.png
subject-01,1,100,1.50028705596924,car,car,0,0100_stg_s01_0_car_00_car10-chair1.png
subject-01,1,101,1.50014305114746,car,car,0,0101_stg_s01_0_car_00_car8-dog1.png
subject-01,1,102,1.33553314208984,bicycle,bicycle,0,0102_stg_s01_0_bicycle_00_bicycle9-chair1.png
subject-01,1,103,1.19520807266235,chair,chair,0,0103_stg_s01_0_chair_00_chair7-car2.png
subject-01,1,104,1.50036001205444,truck,truck,0,0104_stg_s01_0_truck_00_truck3-dog3.png
subject-01,1,105,1.29725098609924,clock,clock,0,0105_stg_s01_0_clock_00_clock1-boat3.png
subject-01,1,106,1.46504497528076,truck,truck,0,0106_stg_s01_0_truck_00_truck8-cat2.png
subject-01,1,107,1.49023103713989,oven,bird,0,0107_stg_s01_0_bird_00_bird7-boat1.png
subject-01,1,108,1.47480988502502,boat,boat,0,0108_stg_s01_0_boat_00_boat4-car3.png
subject-01,1,109,1.47997689247131,bear,bear,0,0109_stg_s01_0_bear_00_bear1-clock2.png
subject-01,1,110,1.47025108337402,boat,boat,0,0110_stg_s01_0_boat_00_boat8-truck2.png
subject-01,1,111,1.50003790855408,car,car,0,0111_stg_s01_0_car_00_car2-bird3.png
subject-01,1,112,1.50021386146545,oven,oven,0,0112_stg_s01_0_oven_00_oven10-bear1.png
subject-01,1,113,1.5002589225769,chair,chair,0,0113_stg_s01_0_chair_00_chair8-clock3.png
subject-01,1,114,1.47579503059387,elephant,elephant,0,0114_stg_s01_0_elephant_00_elephant4-bicycle2.png
subject-01,1,115,1.48162078857422,cat,elephant,0,0115_stg_s01_0_elephant_00_elephant7-keyboard3.png
subject-01,1,116,1.48564982414246,dog,boat,0,0116_stg_s01_0_boat_00_boat5-car3.png
subject-01,1,117,1.43742704391479,bear,bear,0,0117_stg_s01_0_bear_00_bear5-boat2.png
subject-01,1,118,1.50022101402283,oven,car,0,0118_stg_s01_0_car_00_car1-keyboard2.png
subject-01,1,119,1.50024795532227,boat,boat,0,0119_stg_s01_0_boat_00_boat5-knife2.png
subject-01,1,120,1.50011396408081,cat,cat,0,0120_stg_s01_0_cat_00_cat3-bicycle1.png
subject-01,1,121,1.50012898445129,car,car,0,0121_stg_s01_0_car_00_car7-oven2.png
subject-01,1,122,1.49187183380127,knife,knife,0,0122_stg_s01_0_knife_00_knife6-bird1.png
subject-01,1,123,1.50007486343384,keyboard,keyboard,0,0123_stg_s01_0_keyboard_00_keyboard2-bottle1.png
subject-01,1,124,1.33912086486816,dog,dog,0,0124_stg_s01_0_dog_00_dog9-bottle1.png
subject-01,1,125,1.26919412612915,oven,oven,0,0125_stg_s01_0_oven_00_oven9-bear2.png
subject-01,1,126,1.44320487976074,boat,boat,0,0126_stg_s01_0_boat_00_boat9-knife2.png
subject-01,1,127,1.40908885002136,elephant,elephant,0,0127_stg_s01_0_elephant_00_elephant3-cat2.png
subject-01,1,128,1.46060705184937,clock,clock,0,0128_stg_s01_0_clock_00_clock4-bottle3.png
subject-01,1,129,1.50004696846008,truck,truck,0,0129_stg_s01_0_truck_00_truck2-car3.png
subject-01,1,130,1.50025987625122,bottle,bottle,0,0130_stg_s01_0_bottle_00_bottle10-car1.png
subject-01,1,131,1.50025701522827,oven,bird,0,0131_stg_s01_0_bird_00_bird10-chair1.png
subject-01,1,132,1.50029706954956,chair,chair,0,0132_stg_s01_0_chair_00_chair7-clock3.png
subject-01,1,133,1.50016498565674,knife,airplane,0,0133_stg_s01_0_airplane_00_airplane4-bottle1.png
subject-01,1,134,1.50029301643372,truck,truck,0,0134_stg_s01_0_truck_00_truck2-clock1.png
subject-01,1,135,1.50004506111145,knife,boat,0,0135_stg_s01_0_boat_00_boat4-bird1.png
subject-01,1,136,1.4572639465332,bicycle,bicycle,0,0136_stg_s01_0_bicycle_00_bicycle2-keyboard2.png
subject-01,1,137,1.46098899841309,knife,boat,0,0137_stg_s01_0_boat_00_boat4-dog2.png
subject-01,1,138,1.50020694732666,bottle,bottle,0,0138_stg_s01_0_bottle_00_bottle8-bottle3.png
subject-01,1,139,1.50016403198242,clock,clock,0,0139_stg_s01_0_clock_00_clock8-chair2.png
subject-01,1,140,1.49368381500244,clock,clock,0,0140_stg_s01_0_clock_00_clock8-oven3.png
subject-01,1,141,1.375648021698,oven,keyboard,0,0141_stg_s01_0_keyboard_00_keyboard10-car1.png
subject-01,1,142,1.47948694229126,knife,knife,0,0142_stg_s01_0_knife_00_knife9-airplane2.png
subject-01,1,143,1.5,chair,chair,0,0143_stg_s01_0_chair_00_chair10-cat1.png
subject-01,1,144,1.49222803115845,bird,bird,0,0144_stg_s01_0_bird_00_bird10-bicycle1.png
subject-01,1,145,1.50019693374634,cat,cat,0,0145_stg_s01_0_cat_00_cat2-bottle3.png
subject-01,1,146,1.50011420249939,knife,knife,0,0146_stg_s01_0_knife_00_knife8-car2.png
subject-01,1,147,1.46182799339294,cat,elephant,0,0147_stg_s01_0_elephant_00_elephant1-bottle1.png
subject-01,1,148,1.37333393096924,elephant,bird,0,0148_stg_s01_0_bird_00_bird2-clock3.png
subject-01,1,149,1.50021481513977,knife,boat,0,0149_stg_s01_0_boat_00_boat6-car1.png
subject-01,1,150,1.46736598014832,bicycle,bicycle,0,0150_stg_s01_0_bicycle_00_bicycle7-bear2.png
subject-01,1,151,1.50016593933105,oven,oven,0,0151_stg_s01_0_oven_00_oven5-elephant1.png
subject-01,1,152,1.50037002563477,cat,airplane,0,0152_stg_s01_0_airplane_00_airplane3-dog1.png
subject-01,1,153,1.4596540927887,bird,bird,0,0153_stg_s01_0_bird_00_bird1-clock3.png
subject-01,1,154,1.50013494491577,bicycle,bicycle,0,0154_stg_s01_0_bicycle_00_bicycle1-bicycle3.png
subject-01,1,155,1.50000905990601,airplane,airplane,0,0155_stg_s01_0_airplane_00_airplane2-bottle1.png
subject-01,1,156,1.50022482872009,bicycle,bicycle,0,0156_stg_s01_0_bicycle_00_bicycle4-clock3.png
subject-01,1,157,1.50005292892456,elephant,elephant,0,0157_stg_s01_0_elephant_00_elephant7-bird1.png
subject-01,1,158,1.50009608268738,bird,bird,0,0158_stg_s01_0_bird_00_bird5-oven3.png
subject-01,1,159,1.47048997879028,chair,chair,0,0159_stg_s01_0_chair_00_chair6-dog1.png
subject-01,1,160,1.43672108650208,bicycle,bicycle,0,0160_stg_s01_0_bicycle_00_bicycle9-bear1.png
subject-01,1,161,1.50034594535828,bird,bird,0,0161_stg_s01_0_bird_00_bird3-bottle2.png
subject-01,1,162,1.50031399726868,car,car,0,0162_stg_s01_0_car_00_car10-dog1.png
subject-01,1,163,1.50018310546875,elephant,elephant,0,0163_stg_s01_0_elephant_00_elephant1-oven2.png
subject-01,1,164,1.45566987991333,oven,oven,0,0164_stg_s01_0_oven_00_oven3-bear2.png
subject-01,1,165,1.48947405815125,bird,bird,0,0165_stg_s01_0_bird_00_bird5-bicycle1.png
subject-01,1,166,1.50021600723267,knife,knife,0,0166_stg_s01_0_knife_00_knife8-bicycle1.png
subject-01,1,167,1.46055889129639,car,car,0,0167_stg_s01_0_car_00_car3-bottle3.png
subject-01,1,168,1.50030088424683,cat,cat,0,0168_stg_s01_0_cat_00_cat5-bear2.png
subject-01,1,169,1.50002503395081,elephant,bird,0,0169_stg_s01_0_bird_00_bird2-airplane3.png
subject-01,1,170,1.50002002716064,clock,clock,0,0170_stg_s01_0_clock_00_clock7-bear2.png
subject-01,1,171,1.50005507469177,chair,chair,0,0171_stg_s01_0_chair_00_chair4-keyboard2.png
subject-01,1,172,1.49436497688293,cat,bird,0,0172_stg_s01_0_bird_00_bird1-elephant2.png
subject-01,1,173,1.50023698806763,bottle,bottle,0,0173_stg_s01_0_bottle_00_bottle5-cat1.png
subject-01,1,174,1.48555493354797,bicycle,bicycle,0,0174_stg_s01_0_bicycle_00_bicycle6-car2.png
subject-01,1,175,1.50041794776917,bottle,bottle,0,0175_stg_s01_0_bottle_00_bottle1-keyboard3.png
subject-01,1,176,1.5000319480896,truck,truck,0,0176_stg_s01_0_truck_00_truck1-cat1.png
subject-01,1,177,1.50027894973755,car,airplane,0,0177_stg_s01_0_airplane_00_airplane3-airplane2.png
subject-01,1,178,1.50004601478577,knife,knife,0,0178_stg_s01_0_knife_00_knife1-airplane1.png
subject-01,1,179,1.50007510185242,bottle,bottle,0,0179_stg_s01_0_bottle_00_bottle5-elephant1.png
subject-01,1,180,1.43738889694214,bird,bird,0,0180_stg_s01_0_bird_00_bird1-bicycle2.png
subject-01,1,181,1.48194098472595,elephant,elephant,0,0181_stg_s01_0_elephant_00_elephant10-knife3.png
subject-01,1,182,1.29340696334839,chair,chair,0,0182_stg_s01_0_chair_00_chair3-bottle3.png
subject-01,1,183,1.46669006347656,oven,oven,0,0183_stg_s01_0_oven_00_oven1-bird3.png
subject-01,1,184,1.48693108558655,bottle,bottle,0,0184_stg_s01_0_bottle_00_bottle9-truck1.png
subject-01,1,185,1.50014519691467,bird,dog,0,0185_stg_s01_0_dog_00_dog4-clock1.png
subject-01,1,186,1.47243022918701,cat,knife,0,0186_stg_s01_0_knife_00_knife1-chair1.png
subject-01,1,187,1.45332598686218,keyboard,knife,0,0187_stg_s01_0_knife_00_knife10-oven3.png
subject-01,1,188,1.48959112167358,clock,clock,0,0188_stg_s01_0_clock_00_clock3-dog2.png
subject-01,1,189,1.50001096725464,chair,chair,0,0189_stg_s01_0_chair_00_chair9-bear1.png
subject-01,1,190,1.50006890296936,cat,elephant,0,0190_stg_s01_0_elephant_00_elephant6-bird1.png
subject-01,1,191,1.50035500526428,oven,boat,0,0191_stg_s01_0_boat_00_boat6-knife2.png
subject-01,1,192,1.49108290672302,keyboard,keyboard,0,0192_stg_s01_0_keyboard_00_keyboard6-chair1.png
subject-01,1,193,1.50023603439331,bear,bear,0,0193_stg_s01_0_bear_00_bear2-bird3.png
subject-01,1,194,1.3923671245575,keyboard,keyboard,0,0194_stg_s01_0_keyboard_00_keyboard8-cat3.png
subject-01,1,195,1.46552109718323,truck,oven,0,0195_stg_s01_0_oven_00_oven7-keyboard1.png
subject-01,1,196,1.36151504516602,chair,chair,0,0196_stg_s01_0_chair_00_chair8-bicycle3.png
subject-01,1,197,1.49999904632568,keyboard,oven,0,0197_stg_s01_0_oven_00_oven6-airplane3.png
subject-01,1,198,1.50030493736267,oven,oven,0,0198_stg_s01_0_oven_00_oven2-oven3.png
subject-01,1,199,1.37688302993774,oven,cat,0,0199_stg_s01_0_cat_00_cat5-knife2.png
subject-01,1,200,1.50005102157593,cat,cat,0,0200_stg_s01_0_cat_00_cat2-truck3.png
subject-01,1,201,1.46833109855652,keyboard,chair,0,0201_stg_s01_0_chair_00_chair8-keyboard3.png
subject-01,1,202,1.50023794174194,bottle,bottle,0,0202_stg_s01_0_bottle_00_bottle6-bird1.png
subject-01,1,203,1.49999904632568,knife,boat,0,0203_stg_s01_0_boat_00_boat1-oven1.png
subject-01,1,204,1.50009393692017,boat,boat,0,0204_stg_s01_0_boat_00_boat1-car2.png
subject-01,1,205,1.45871782302856,truck,truck,0,0205_stg_s01_0_truck_00_truck2-oven3.png
subject-01,1,206,1.50031995773315,truck,truck,0,0206_stg_s01_0_truck_00_truck8-elephant1.png
subject-01,1,207,1.48298096656799,bear,bicycle,0,0207_stg_s01_0_bicycle_00_bicycle4-cat1.png
subject-01,1,208,1.50018000602722,cat,dog,0,0208_stg_s01_0_dog_00_dog8-clock2.png
subject-01,1,209,1.5002760887146,oven,oven,0,0209_stg_s01_0_oven_00_oven10-cat2.png
subject-01,1,210,1.50006914138794,bicycle,dog,0,0210_stg_s01_0_dog_00_dog9-car1.png
subject-01,1,211,1.44827508926392,airplane,airplane,0,0211_stg_s01_0_airplane_00_airplane5-bird2.png
subject-01,1,212,1.5003719329834,chair,chair,0,0212_stg_s01_0_chair_00_chair4-chair3.png
subject-01,1,213,1.50023484230042,bottle,bottle,0,0213_stg_s01_0_bottle_00_bottle2-car2.png
subject-01,1,214,1.50004577636719,elephant,elephant,0,0214_stg_s01_0_elephant_00_elephant4-clock3.png
subject-01,1,215,1.45963597297668,airplane,airplane,0,0215_stg_s01_0_airplane_00_airplane10-car3.png
subject-01,1,216,1.47186303138733,chair,chair,0,0216_stg_s01_0_chair_00_chair7-truck3.png
subject-01,1,217,1.47013282775879,bottle,boat,0,0217_stg_s01_0_boat_00_boat7-boat2.png
subject-01,1,218,1.50023794174194,car,car,0,0218_stg_s01_0_car_00_car3-truck1.png
subject-01,1,219,1.50024104118347,airplane,bird,0,0219_stg_s01_0_bird_00_bird2-bird2.png
subject-01,1,220,1.49717378616333,knife,knife,0,0220_stg_s01_0_knife_00_knife5-keyboard3.png
subject-01,1,221,1.49495983123779,boat,knife,0,0221_stg_s01_0_knife_00_knife2-truck2.png
subject-01,1,222,1.50004482269287,bicycle,bicycle,0,0222_stg_s01_0_bicycle_00_bicycle2-knife2.png
subject-01,1,223,1.50033807754517,boat,keyboard,0,0223_stg_s01_0_keyboard_00_keyboard7-truck2.png
subject-01,1,224,1.50027680397034,chair,chair,0,0224_stg_s01_0_chair_00_chair7-elephant1.png
subject-01,1,225,1.50038409233093,truck,truck,0,0225_stg_s01_0_truck_00_truck7-truck2.png
subject-01,1,226,1.47250008583069,bicycle,bird,0,0226_stg_s01_0_bird_00_bird8-car2.png
subject-01,1,227,1.50025820732117,airplane,airplane,0,0227_stg_s01_0_airplane_00_airplane7-boat2.png
subject-01,1,228,1.50024104118347,bicycle,bicycle,0,0228_stg_s01_0_bicycle_00_bicycle6-airplane2.png
subject-01,1,229,1.50000405311584,bicycle,dog,0,0229_stg_s01_0_dog_00_dog7-oven2.png
subject-01,1,230,1.46916699409485,car,car,0,0230_stg_s01_0_car_00_car4-elephant3.png
subject-01,1,231,1.47220516204834,bicycle,bicycle,0,0231_stg_s01_0_bicycle_00_bicycle8-boat1.png
subject-01,1,232,1.49229502677917,truck,truck,0,0232_stg_s01_0_truck_00_truck10-truck3.png
subject-01,1,233,1.50015711784363,bicycle,cat,0,0233_stg_s01_0_cat_00_cat5-chair3.png
subject-01,1,234,1.27761387825012,elephant,elephant,0,0234_stg_s01_0_elephant_00_elephant1-car3.png
subject-01,1,235,1.44309902191162,clock,clock,0,0235_stg_s01_0_clock_00_clock6-bottle1.png
subject-01,1,236,1.50045704841614,bird,bird,0,0236_stg_s01_0_bird_00_bird3-bear3.png
subject-01,1,237,1.50025200843811,dog,dog,0,0237_stg_s01_0_dog_00_dog6-bicycle1.png
subject-01,1,238,1.50027990341187,cat,knife,0,0238_stg_s01_0_knife_00_knife4-knife2.png
subject-01,1,239,1.50005483627319,chair,chair,0,0239_stg_s01_0_chair_00_chair4-bear2.png
subject-01,1,240,1.50008296966553,boat,truck,0,0240_stg_s01_0_truck_00_truck3-knife2.png
subject-01,1,241,1.50020480155945,chair,knife,0,0241_stg_s01_0_knife_00_knife10-chair1.png
subject-01,1,242,1.44043517112732,bird,bird,0,0242_stg_s01_0_bird_00_bird9-bottle3.png
subject-01,1,243,1.49775695800781,dog,dog,0,0243_stg_s01_0_dog_00_dog4-cat3.png
subject-01,1,244,1.4959728717804,truck,truck,0,0244_stg_s01_0_truck_00_truck3-car3.png
subject-01,1,245,1.50012397766113,clock,clock,0,0245_stg_s01_0_clock_00_clock9-keyboard2.png
subject-01,1,246,1.50001311302185,keyboard,keyboard,0,0246_stg_s01_0_keyboard_00_keyboard8-oven1.png
subject-01,1,247,1.50008797645569,dog,dog,0,0247_stg_s01_0_dog_00_dog7-keyboard3.png
subject-01,1,248,1.40653204917908,chair,chair,0,0248_stg_s01_0_chair_00_chair10-clock1.png
subject-01,1,249,1.50002980232239,dog,dog,0,0249_stg_s01_0_dog_00_dog8-bear3.png
subject-01,1,250,1.50032591819763,car,car,0,0250_stg_s01_0_car_00_car5-bear3.png
subject-01,1,251,1.46622204780579,bottle,bottle,0,0251_stg_s01_0_bottle_00_bottle6-knife3.png
subject-01,1,252,1.50026297569275,dog,dog,0,0252_stg_s01_0_dog_00_dog1-cat3.png
subject-01,1,253,1.50015783309937,elephant,elephant,0,0253_stg_s01_0_elephant_00_elephant8-boat2.png
subject-01,1,254,1.50020790100098,oven,bicycle,0,0254_stg_s01_0_bicycle_00_bicycle7-elephant2.png
subject-01,1,255,1.46603298187256,oven,oven,0,0255_stg_s01_0_oven_00_oven4-truck3.png
subject-01,1,256,1.50022411346436,dog,dog,0,0256_stg_s01_0_dog_00_dog3-knife3.png
subject-01,1,257,1.50020885467529,keyboard,knife,0,0257_stg_s01_0_knife_00_knife7-airplane3.png
subject-01,1,258,1.50008583068848,car,car,0,0258_stg_s01_0_car_00_car3-bird2.png
subject-01,1,259,1.50017714500427,knife,knife,0,0259_stg_s01_0_knife_00_knife9-elephant2.png
subject-01,1,260,1.47757291793823,truck,truck,0,0260_stg_s01_0_truck_00_truck9-elephant1.png
subject-01,1,261,1.50030493736267,bear,bear,0,0261_stg_s01_0_bear_00_bear8-dog1.png
subject-01,1,262,1.50028300285339,truck,truck,0,0262_stg_s01_0_truck_00_truck6-clock2.png
subject-01,1,263,1.50018382072449,bicycle,bicycle,0,0263_stg_s01_0_bicycle_00_bicycle4-car2.png
subject-01,1,264,1.48704886436462,truck,truck,0,0264_stg_s01_0_truck_00_truck4-boat3.png
subject-01,1,265,1.48247504234314,bottle,bottle,0,0265_stg_s01_0_bottle_00_bottle3-bird1.png
subject-01,1,266,1.50033187866211,bottle,bottle,0,0266_stg_s01_0_bottle_00_bottle7-airplane3.png
subject-01,1,267,1.50027298927307,bottle,bottle,0,0267_stg_s01_0_bottle_00_bottle6-bear2.png
subject-01,1,268,1.50033617019653,cat,cat,0,0268_stg_s01_0_cat_00_cat5-bicycle3.png
subject-01,1,269,1.50039100646973,truck,truck,0,0269_stg_s01_0_truck_00_truck7-chair2.png
subject-01,1,270,1.50004291534424,bear,bear,0,0270_stg_s01_0_bear_00_bear7-oven3.png
subject-01,1,271,1.45610499382019,car,car,0,0271_stg_s01_0_car_00_car6-knife1.png
subject-01,1,272,1.50014901161194,boat,boat,0,0272_stg_s01_0_boat_00_boat2-bird1.png
subject-01,1,273,1.50002813339233,bear,bear,0,0273_stg_s01_0_bear_00_bear1-elephant1.png
subject-01,1,274,1.42027187347412,clock,clock,0,0274_stg_s01_0_clock_00_clock1-clock2.png
subject-01,1,275,1.50023889541626,chair,chair,0,0275_stg_s01_0_chair_00_chair3-bicycle3.png
subject-01,1,276,1.50018405914307,clock,clock,0,0276_stg_s01_0_clock_00_clock6-car2.png
subject-01,1,277,1.46416783332825,bear,bear,0,0277_stg_s01_0_bear_00_bear3-keyboard2.png
subject-01,1,278,1.24637389183044,boat,boat,0,0278_stg_s01_0_boat_00_boat3-car3.png
subject-01,1,279,1.50010800361633,bicycle,bicycle,0,0279_stg_s01_0_bicycle_00_bicycle1-knife3.png
subject-01,1,280,1.50006484985352,elephant,elephant,0,0280_stg_s01_0_elephant_00_elephant7-airplane3.png
subject-01,1,281,1.50025415420532,oven,oven,0,0281_stg_s01_0_oven_00_oven9-knife3.png
subject-01,1,282,1.4050920009613,bear,elephant,0,0282_stg_s01_0_elephant_00_elephant6-dog2.png
subject-01,1,283,1.33250784873962,keyboard,keyboard,0,0283_stg_s01_0_keyboard_00_keyboard7-knife1.png
subject-01,1,284,1.50031805038452,car,car,0,0284_stg_s01_0_car_00_car4-bicycle3.png
subject-01,1,285,1.40220713615417,clock,clock,0,0285_stg_s01_0_clock_00_clock5-oven1.png
subject-01,1,286,1.36834311485291,cat,cat,0,0286_stg_s01_0_cat_00_cat3-cat1.png
subject-01,1,287,1.47980380058289,bird,bird,0,0287_stg_s01_0_bird_00_bird4-dog3.png
subject-01,1,288,1.50034809112549,clock,clock,0,0288_stg_s01_0_clock_00_clock8-boat1.png
subject-01,1,289,1.43556809425354,chair,chair,0,0289_stg_s01_0_chair_00_chair2-knife1.png
subject-01,1,290,1.50028300285339,bicycle,bicycle,0,0290_stg_s01_0_bicycle_00_bicycle1-elephant2.png
subject-01,1,291,1.45112299919128,elephant,elephant,0,0291_stg_s01_0_elephant_00_elephant7-cat1.png
subject-01,1,292,1.50017404556274,clock,clock,0,0292_stg_s01_0_clock_00_clock9-bird2.png
subject-01,1,293,1.50024199485779,oven,oven,0,0293_stg_s01_0_oven_00_oven3-bottle3.png
subject-01,1,294,1.50021886825562,elephant,elephant,0,0294_stg_s01_0_elephant_00_elephant6-cat2.png
subject-01,1,295,1.50036382675171,car,car,0,0295_stg_s01_0_car_00_car6-boat1.png
subject-01,1,296,1.50029110908508,bear,bear,0,0296_stg_s01_0_bear_00_bear1-chair2.png
subject-01,1,297,1.50025105476379,bird,bird,0,0297_stg_s01_0_bird_00_bird5-truck2.png
subject-01,1,298,1.41227316856384,car,car,0,0298_stg_s01_0_car_00_car8-bicycle2.png
subject-01,1,299,1.50013494491577,keyboard,keyboard,0,0299_stg_s01_0_keyboard_00_keyboard9-bird1.png
subject-01,1,300,1.50013613700867,dog,dog,0,0300_stg_s01_0_dog_00_dog10-bicycle1.png
subject-01,1,301,1.50018310546875,bicycle,bicycle,0,0301_stg_s01_0_bicycle_00_bicycle3-elephant2.png
subject-01,1,302,1.50016903877258,clock,clock,0,0302_stg_s01_0_clock_00_clock3-elephant3.png
subject-01,1,303,1.50024700164795,airplane,airplane,0,0303_stg_s01_0_airplane_00_airplane9-airplane2.png
subject-01,1,304,1.50022196769714,car,car,0,0304_stg_s01_0_car_00_car9-bird1.png
subject-01,1,305,1.50001096725464,dog,dog,0,0305_stg_s01_0_dog_00_dog1-bird1.png
subject-01,1,306,1.50012898445129,bottle,bottle,0,0306_stg_s01_0_bottle_00_bottle5-oven2.png
subject-01,1,307,1.50028491020203,car,car,0,0307_stg_s01_0_car_00_car2-cat3.png
subject-01,1,308,1.18707299232483,clock,clock,0,0308_stg_s01_0_clock_00_clock4-car2.png
subject-01,1,309,1.49888801574707,elephant,elephant,0,0309_stg_s01_0_elephant_00_elephant5-truck1.png
subject-01,1,310,1.50010704994202,cat,bear,0,0310_stg_s01_0_bear_00_bear6-bird2.png
subject-01,1,311,1.40623307228088,clock,clock,0,0311_stg_s01_0_clock_00_clock5-bicycle1.png
subject-01,1,312,1.25864481925964,oven,oven,0,0312_stg_s01_0_oven_00_oven4-car1.png
subject-01,1,313,1.44640398025513,bear,bear,0,0313_stg_s01_0_bear_00_bear9-knife2.png
subject-01,1,314,1.50003504753113,oven,knife,0,0314_stg_s01_0_knife_00_knife5-truck3.png
subject-01,1,315,1.44073915481567,truck,truck,0,0315_stg_s01_0_truck_00_truck1-chair2.png
subject-01,1,316,1.50031590461731,cat,cat,0,0316_stg_s01_0_cat_00_cat1-dog1.png
subject-01,1,317,1.47690606117249,airplane,airplane,0,0317_stg_s01_0_airplane_00_airplane9-boat1.png
subject-01,1,318,1.46836018562317,bird,boat,0,0318_stg_s01_0_boat_00_boat2-bear3.png
subject-01,1,319,1.48840999603271,chair,chair,0,0319_stg_s01_0_chair_00_chair9-elephant1.png
subject-01,1,320,1.48403596878052,keyboard,keyboard,0,0320_stg_s01_0_keyboard_00_keyboard5-knife2.png
subject-01,1,321,1.50019383430481,chair,chair,0,0321_stg_s01_0_chair_00_chair9-dog2.png
subject-01,1,322,1.47793698310852,elephant,elephant,0,0322_stg_s01_0_elephant_00_elephant9-elephant3.png
subject-01,1,323,1.42145299911499,cat,cat,0,0323_stg_s01_0_cat_00_cat7-knife2.png
subject-01,1,324,1.50039291381836,cat,cat,0,0324_stg_s01_0_cat_00_cat2-car3.png
subject-01,1,325,1.45284581184387,dog,dog,0,0325_stg_s01_0_dog_00_dog5-knife2.png
subject-01,1,326,1.50017189979553,car,car,0,0326_stg_s01_0_car_00_car5-bottle1.png
subject-01,1,327,1.36120986938477,keyboard,keyboard,0,0327_stg_s01_0_keyboard_00_keyboard9-keyboard2.png
subject-01,1,328,1.50025486946106,bicycle,bicycle,0,0328_stg_s01_0_bicycle_00_bicycle5-elephant1.png
subject-01,1,329,1.38466596603394,keyboard,keyboard,0,0329_stg_s01_0_keyboard_00_keyboard6-knife2.png
subject-01,1,330,1.50005292892456,bear,bear,0,0330_stg_s01_0_bear_00_bear10-chair2.png
subject-01,1,331,1.47093391418457,dog,dog,0,0331_stg_s01_0_dog_00_dog5-elephant1.png
subject-01,1,332,1.50000095367432,keyboard,keyboard,0,0332_stg_s01_0_keyboard_00_keyboard9-elephant2.png
subject-01,1,333,1.49986791610718,bicycle,bicycle,0,0333_stg_s01_0_bicycle_00_bicycle4-boat1.png
subject-01,1,334,1.50003480911255,keyboard,knife,0,0334_stg_s01_0_knife_00_knife9-bird1.png
subject-01,1,335,1.49307203292847,cat,cat,0,0335_stg_s01_0_cat_00_cat10-bear1.png
subject-01,1,336,1.4898099899292,cat,cat,0,0336_stg_s01_0_cat_00_cat4-oven1.png
subject-01,1,337,1.50013518333435,dog,dog,0,0337_stg_s01_0_dog_00_dog10-clock1.png
subject-01,1,338,1.35039496421814,keyboard,bottle,0,0338_stg_s01_0_bottle_00_bottle7-cat2.png
subject-01,1,339,1.50026702880859,clock,clock,0,0339_stg_s01_0_clock_00_clock10-bottle1.png
subject-01,1,340,1.50024580955505,bird,bird,0,0340_stg_s01_0_bird_00_bird9-bear3.png
subject-01,1,341,1.50002789497375,oven,truck,0,0341_stg_s01_0_truck_00_truck7-elephant2.png
subject-01,1,342,1.50034594535828,chair,chair,0,0342_stg_s01_0_chair_00_chair1-chair1.png
subject-01,1,343,1.43897891044617,cat,cat,0,0343_stg_s01_0_cat_00_cat4-truck3.png
subject-01,1,344,1.50016188621521,chair,oven,0,0344_stg_s01_0_oven_00_oven7-elephant1.png
subject-01,1,345,1.36266493797302,bottle,bottle,0,0345_stg_s01_0_bottle_00_bottle8-dog2.png
subject-01,1,346,1.50036287307739,chair,cat,0,0346_stg_s01_0_cat_00_cat10-bicycle1.png
subject-01,1,347,1.50013399124146,bottle,bottle,0,0347_stg_s01_0_bottle_00_bottle7-clock1.png
subject-01,1,348,1.44371819496155,airplane,airplane,0,0348_stg_s01_0_airplane_00_airplane3-elephant1.png
subject-01,1,349,1.46419382095337,car,car,0,0349_stg_s01_0_car_00_car7-bird3.png
subject-01,1,350,1.45158696174622,knife,knife,0,0350_stg_s01_0_knife_00_knife10-bear3.png
subject-01,1,351,1.49248385429382,car,car,0,0351_stg_s01_0_car_00_car3-dog2.png
subject-01,1,352,1.47433090209961,car,car,0,0352_stg_s01_0_car_00_car9-knife1.png
subject-01,1,353,1.50028395652771,cat,cat,0,0353_stg_s01_0_cat_00_cat7-airplane2.png
subject-01,1,354,1.4897940158844,elephant,elephant,0,0354_stg_s01_0_elephant_00_elephant8-dog1.png
subject-01,1,355,1.44717812538147,keyboard,keyboard,0,0355_stg_s01_0_keyboard_00_keyboard8-keyboard2.png
subject-01,1,356,1.42764401435852,truck,truck,0,0356_stg_s01_0_truck_00_truck6-cat2.png
subject-01,1,357,1.4469530582428,dog,dog,0,0357_stg_s01_0_dog_00_dog10-car3.png
subject-01,1,358,1.48906397819519,bottle,bottle,0,0358_stg_s01_0_bottle_00_bottle3-boat3.png
subject-01,1,359,1.4413640499115,chair,chair,0,0359_stg_s01_0_chair_00_chair10-oven1.png
subject-01,1,360,1.47500514984131,cat,boat,0,0360_stg_s01_0_boat_00_boat6-cat1.png
subject-01,1,361,1.50020384788513,car,car,0,0361_stg_s01_0_car_00_car8-chair1.png
subject-01,1,362,1.50024890899658,keyboard,keyboard,0,0362_stg_s01_0_keyboard_00_keyboard7-chair3.png
subject-01,1,363,1.50014209747314,dog,bird,0,0363_stg_s01_0_bird_00_bird7-keyboard3.png
subject-01,1,364,1.48935008049011,bear,bear,0,0364_stg_s01_0_bear_00_bear9-bottle2.png
subject-01,1,365,1.50026202201843,bicycle,bicycle,0,0365_stg_s01_0_bicycle_00_bicycle10-airplane2.png
subject-01,1,366,1.50008296966553,bottle,boat,0,0366_stg_s01_0_boat_00_boat7-truck2.png
subject-01,1,367,1.50023508071899,bird,bird,0,0367_stg_s01_0_bird_00_bird7-cat3.png
subject-01,1,368,1.43525409698486,dog,dog,0,0368_stg_s01_0_dog_00_dog4-oven1.png
subject-01,1,369,1.50037217140198,bottle,elephant,0,0369_stg_s01_0_elephant_00_elephant6-truck3.png
subject-01,1,370,1.50003099441528,bear,boat,0,0370_stg_s01_0_boat_00_boat6-truck3.png
subject-01,1,371,1.47665286064148,truck,truck,0,0371_stg_s01_0_truck_00_truck9-bottle2.png
subject-01,1,372,1.50022101402283,bird,bird,0,0372_stg_s01_0_bird_00_bird6-bottle3.png
subject-01,1,373,1.50005006790161,car,car,0,0373_stg_s01_0_car_00_car10-car1.png
subject-01,1,374,1.5002498626709,clock,clock,0,0374_stg_s01_0_clock_00_clock4-airplane1.png
subject-01,1,375,1.50035405158997,bird,cat,0,0375_stg_s01_0_cat_00_cat5-keyboard3.png
subject-01,1,376,1.49999499320984,clock,clock,0,0376_stg_s01_0_clock_00_clock7-dog2.png
subject-01,1,377,1.5000147819519,bear,bear,0,0377_stg_s01_0_bear_00_bear5-airplane3.png
subject-01,1,378,1.50005602836609,keyboard,keyboard,0,0378_stg_s01_0_keyboard_00_keyboard1-bear2.png
subject-01,1,379,1.50036787986755,oven,oven,0,0379_stg_s01_0_oven_00_oven5-bicycle1.png
subject-01,1,380,1.50019788742065,bicycle,bicycle,0,0380_stg_s01_0_bicycle_00_bicycle3-oven3.png
subject-01,1,381,1.50016188621521,clock,clock,0,0381_stg_s01_0_clock_00_clock3-bicycle2.png
subject-01,1,382,1.50004506111145,bird,bird,0,0382_stg_s01_0_bird_00_bird1-airplane2.png
subject-01,1,383,1.50009202957153,cat,airplane,0,0383_stg_s01_0_airplane_00_airplane6-chair3.png
subject-01,1,384,1.49891304969788,dog,dog,0,0384_stg_s01_0_dog_00_dog4-bird1.png
subject-01,1,385,1.49489212036133,dog,dog,0,0385_stg_s01_0_dog_00_dog10-bottle1.png
subject-01,1,386,1.50048899650574,bird,bird,0,0386_stg_s01_0_bird_00_bird7-oven3.png
subject-01,1,387,1.44841194152832,bird,bear,0,0387_stg_s01_0_bear_00_bear4-keyboard3.png
subject-01,1,388,1.50040793418884,truck,truck,0,0388_stg_s01_0_truck_00_truck9-chair3.png
subject-01,1,389,1.50016307830811,dog,dog,0,0389_stg_s01_0_dog_00_dog9-chair2.png
subject-01,1,390,1.50015807151794,elephant,elephant,0,0390_stg_s01_0_elephant_00_elephant5-bicycle3.png
subject-01,1,391,1.50010704994202,keyboard,keyboard,0,0391_stg_s01_0_keyboard_00_keyboard1-elephant3.png
subject-01,1,392,1.50019598007202,elephant,elephant,0,0392_stg_s01_0_elephant_00_elephant8-elephant1.png
subject-01,1,393,1.48800420761108,truck,truck,0,0393_stg_s01_0_truck_00_truck5-knife3.png
subject-01,1,394,1.50024199485779,chair,chair,0,0394_stg_s01_0_chair_00_chair6-bird2.png
subject-01,1,395,1.50026893615723,bicycle,bicycle,0,0395_stg_s01_0_bicycle_00_bicycle7-clock3.png
subject-01,1,396,1.5001540184021,bear,bear,0,0396_stg_s01_0_bear_00_bear1-airplane3.png
subject-01,1,397,1.44365191459656,bear,bear,0,0397_stg_s01_0_bear_00_bear1-bear3.png
subject-01,1,398,1.50015711784363,bottle,bottle,0,0398_stg_s01_0_bottle_00_bottle6-boat3.png
subject-01,1,399,1.50029015541077,bird,airplane,0,0399_stg_s01_0_airplane_00_airplane7-cat3.png
subject-01,1,400,1.44728589057922,keyboard,keyboard,0,0400_stg_s01_0_keyboard_00_keyboard6-elephant1.png
subject-01,1,401,1.50013494491577,keyboard,keyboard,0,0401_stg_s01_0_keyboard_00_keyboard5-dog3.png
subject-01,1,402,1.50014305114746,bicycle,knife,0,0402_stg_s01_0_knife_00_knife6-bottle3.png
subject-01,1,403,1.50014281272888,bear,bear,0,0403_stg_s01_0_bear_00_bear8-bicycle3.png
subject-01,1,404,1.50007295608521,dog,elephant,0,0404_stg_s01_0_elephant_00_elephant1-keyboard3.png
subject-01,1,405,1.50010180473328,bicycle,bicycle,0,0405_stg_s01_0_bicycle_00_bicycle10-boat3.png
subject-01,1,406,1.50004887580872,elephant,elephant,0,0406_stg_s01_0_elephant_00_elephant9-airplane2.png
subject-01,1,407,1.47519397735596,cat,dog,0,0407_stg_s01_0_dog_00_dog5-boat3.png
subject-01,1,408,1.5000741481781,car,car,0,0408_stg_s01_0_car_00_car6-bottle1.png
subject-01,1,409,1.45800590515137,cat,bear,0,0409_stg_s01_0_bear_00_bear1-bicycle3.png
subject-01,1,410,1.50009703636169,boat,cat,0,0410_stg_s01_0_cat_00_cat10-oven2.png
subject-01,1,411,1.45741581916809,clock,clock,0,0411_stg_s01_0_clock_00_clock10-bird3.png
subject-01,1,412,1.50001192092896,bird,bird,0,0412_stg_s01_0_bird_00_bird6-oven1.png
subject-01,1,413,1.5001049041748,cat,bottle,0,0413_stg_s01_0_bottle_00_bottle7-oven2.png
subject-01,1,414,1.44645810127258,bicycle,bicycle,0,0414_stg_s01_0_bicycle_00_bicycle3-truck3.png
subject-01,1,415,1.50012397766113,oven,oven,0,0415_stg_s01_0_oven_00_oven4-dog1.png
subject-01,1,416,1.47778296470642,car,car,0,0416_stg_s01_0_car_00_car5-cat1.png
subject-01,1,417,1.360102891922,bottle,bottle,0,0417_stg_s01_0_bottle_00_bottle6-oven3.png
subject-01,1,418,1.26098799705505,cat,cat,0,0418_stg_s01_0_cat_00_cat9-bottle2.png
subject-01,1,419,1.50019288063049,chair,bird,0,0419_stg_s01_0_bird_00_bird3-knife3.png
subject-01,1,420,1.50014710426331,chair,chair,0,0420_stg_s01_0_chair_00_chair10-airplane2.png
subject-01,1,421,1.50010299682617,bear,bear,0,0421_stg_s01_0_bear_00_bear5-chair1.png
subject-01,1,422,1.50015616416931,boat,boat,0,0422_stg_s01_0_boat_00_boat4-knife2.png
subject-01,1,423,1.50014185905457,airplane,airplane,0,0423_stg_s01_0_airplane_00_airplane9-truck1.png
subject-01,1,424,1.50040197372437,car,car,0,0424_stg_s01_0_car_00_car1-oven3.png
subject-01,1,425,1.50023198127747,bear,bear,0,0425_stg_s01_0_bear_00_bear2-cat2.png
subject-01,1,426,1.49999308586121,oven,boat,0,0426_stg_s01_0_boat_00_boat9-dog2.png
subject-01,1,427,1.50029683113098,cat,dog,0,0427_stg_s01_0_dog_00_dog4-chair1.png
subject-01,1,428,1.50023412704468,bear,bear,0,0428_stg_s01_0_bear_00_bear10-keyboard3.png
subject-01,1,429,1.50004410743713,car,car,0,0429_stg_s01_0_car_00_car3-oven3.png
subject-01,1,430,1.50037717819214,clock,clock,0,0430_stg_s01_0_clock_00_clock7-truck3.png
subject-01,1,431,1.50036597251892,truck,truck,0,0431_stg_s01_0_truck_00_truck5-dog3.png
subject-01,1,432,1.50020694732666,car,car,0,0432_stg_s01_0_car_00_car8-boat3.png
subject-01,1,433,1.50022792816162,elephant,elephant,0,0433_stg_s01_0_elephant_00_elephant6-bottle2.png
subject-01,1,434,1.50032496452332,truck,truck,0,0434_stg_s01_0_truck_00_truck10-clock1.png
subject-01,1,435,1.50019788742065,keyboard,keyboard,0,0435_stg_s01_0_keyboard_00_keyboard9-airplane3.png
subject-01,1,436,1.45618915557861,dog,dog,0,0436_stg_s01_0_dog_00_dog10-elephant1.png
subject-01,1,437,1.50029301643372,chair,airplane,0,0437_stg_s01_0_airplane_00_airplane5-oven3.png
subject-01,1,438,1.48719501495361,bear,bear,0,0438_stg_s01_0_bear_00_bear4-cat3.png
subject-01,1,439,1.50009298324585,oven,oven,0,0439_stg_s01_0_oven_00_oven1-cat1.png
subject-01,1,440,1.50006103515625,bottle,bottle,0,0440_stg_s01_0_bottle_00_bottle6-bicycle3.png
subject-01,1,441,1.50018000602722,chair,chair,0,0441_stg_s01_0_chair_00_chair5-keyboard2.png
subject-01,1,442,1.500079870224,car,car,0,0442_stg_s01_0_car_00_car4-cat3.png
subject-01,1,443,1.50016117095947,elephant,elephant,0,0443_stg_s01_0_elephant_00_elephant2-bird1.png
subject-01,1,444,1.50011801719666,keyboard,boat,0,0444_stg_s01_0_boat_00_boat4-boat3.png
subject-01,1,445,1.42656183242798,keyboard,keyboard,0,0445_stg_s01_0_keyboard_00_keyboard5-bird3.png
subject-01,1,446,1.5002019405365,bottle,bottle,0,0446_stg_s01_0_bottle_00_bottle9-car3.png
subject-01,1,447,1.5000638961792,bottle,bottle,0,0447_stg_s01_0_bottle_00_bottle10-bear2.png
subject-01,1,448,1.50034499168396,cat,cat,0,0448_stg_s01_0_cat_00_cat4-clock2.png
subject-01,1,449,1.50014710426331,boat,boat,0,0449_stg_s01_0_boat_00_boat3-bicycle2.png
subject-01,1,450,1.50003600120544,clock,boat,0,0450_stg_s01_0_boat_00_boat8-bird2.png
subject-01,1,451,1.50024509429932,keyboard,keyboard,0,0451_stg_s01_0_keyboard_00_keyboard5-airplane3.png
subject-01,1,452,1.48714995384216,bicycle,elephant,0,0452_stg_s01_0_elephant_00_elephant2-keyboard3.png
subject-01,1,453,1.50006103515625,car,truck,0,0453_stg_s01_0_truck_00_truck2-airplane3.png
subject-01,1,454,1.46838688850403,truck,truck,0,0454_stg_s01_0_truck_00_truck5-bird2.png
subject-01,1,455,1.50014495849609,boat,airplane,0,0455_stg_s01_0_airplane_00_airplane3-car1.png
subject-01,1,456,1.50011110305786,bird,dog,0,0456_stg_s01_0_dog_00_dog8-keyboard3.png
subject-01,1,457,1.50004696846008,keyboard,keyboard,0,0457_stg_s01_0_keyboard_00_keyboard9-truck3.png
subject-01,1,458,1.50034403800964,oven,oven,0,0458_stg_s01_0_oven_00_oven7-clock2.png
subject-01,1,459,1.50032210350037,bicycle,bicycle,0,0459_stg_s01_0_bicycle_00_bicycle4-truck3.png
subject-01,1,460,1.44334292411804,cat,elephant,0,0460_stg_s01_0_elephant_00_elephant2-clock1.png
subject-01,1,461,1.50033402442932,car,car,0,0461_stg_s01_0_car_00_car1-car2.png
subject-01,1,462,1.50032496452332,keyboard,oven,0,0462_stg_s01_0_oven_00_oven5-bird1.png
subject-01,1,463,1.50009417533875,cat,dog,0,0463_stg_s01_0_dog_00_dog3-bird2.png
subject-01,1,464,1.50019788742065,bird,bird,0,0464_stg_s01_0_bird_00_bird5-cat2.png
subject-01,1,465,1.50025391578674,bird,bird,0,0465_stg_s01_0_bird_00_bird1-oven1.png
subject-01,1,466,1.48571801185608,cat,cat,0,0466_stg_s01_0_cat_00_cat1-boat1.png
subject-01,1,467,1.3901629447937,airplane,airplane,0,0467_stg_s01_0_airplane_00_airplane2-bicycle1.png
subject-01,1,468,1.50005483627319,bottle,bottle,0,0468_stg_s01_0_bottle_00_bottle9-bicycle1.png
subject-01,1,469,1.44421291351318,cat,cat,0,0469_stg_s01_0_cat_00_cat4-car2.png
subject-01,1,470,1.50005698204041,clock,clock,0,0470_stg_s01_0_clock_00_clock1-car1.png
subject-01,1,471,1.50012516975403,truck,truck,0,0471_stg_s01_0_truck_00_truck5-car1.png
subject-01,1,472,1.50035095214844,bottle,bottle,0,0472_stg_s01_0_bottle_00_bottle9-keyboard1.png
subject-01,1,473,1.47579383850098,car,car,0,0473_stg_s01_0_car_00_car5-airplane3.png
subject-01,1,474,1.50033688545227,truck,truck,0,0474_stg_s01_0_truck_00_truck3-bicycle1.png
subject-01,1,475,1.50011801719666,clock,clock,0,0475_stg_s01_0_clock_00_clock10-airplane1.png
subject-01,1,476,1.5001208782196,keyboard,keyboard,0,0476_stg_s01_0_keyboard_00_keyboard4-cat2.png
subject-01,1,477,1.50011205673218,dog,dog,0,0477_stg_s01_0_dog_00_dog8-oven3.png
subject-01,1,478,1.50006294250488,elephant,boat,0,0478_stg_s01_0_boat_00_boat9-bear3.png
subject-01,1,479,1.50007700920105,dog,dog,0,0479_stg_s01_0_dog_00_dog5-oven1.png
subject-01,1,480,1.49999594688416,dog,bird,0,0480_stg_s01_0_bird_00_bird7-truck2.png
subject-01,1,481,1.43721008300781,dog,car,0,0481_stg_s01_0_car_00_car2-knife3.png
subject-01,1,482,1.38236784934998,airplane,airplane,0,0482_stg_s01_0_airplane_00_airplane4-bear3.png
subject-01,1,483,1.50009202957153,car,car,0,0483_stg_s01_0_car_00_car1-chair3.png
subject-01,1,484,1.48229694366455,car,car,0,0484_stg_s01_0_car_00_car7-clock1.png
subject-01,1,485,1.50000691413879,bear,bear,0,0485_stg_s01_0_bear_00_bear10-bear2.png
subject-01,1,486,1.50024199485779,keyboard,keyboard,0,0486_stg_s01_0_keyboard_00_keyboard10-boat2.png
subject-01,1,487,1.42706298828125,cat,airplane,0,0487_stg_s01_0_airplane_00_airplane2-bear1.png
subject-01,1,488,1.50034809112549,bear,elephant,0,0488_stg_s01_0_elephant_00_elephant4-chair3.png
subject-01,1,489,1.4882800579071,keyboard,keyboard,0,0489_stg_s01_0_keyboard_00_keyboard4-truck3.png
subject-01,1,490,1.47710418701172,bird,bird,0,0490_stg_s01_0_bird_00_bird5-chair1.png
subject-01,1,491,1.48022413253784,clock,clock,0,0491_stg_s01_0_clock_00_clock6-bird3.png
subject-01,1,492,1.50005722045898,boat,boat,0,0492_stg_s01_0_boat_00_boat8-knife1.png
subject-01,1,493,1.44974684715271,keyboard,keyboard,0,0493_stg_s01_0_keyboard_00_keyboard3-car2.png
subject-01,1,494,1.50031590461731,clock,clock,0,0494_stg_s01_0_clock_00_clock7-bicycle1.png
subject-01,1,495,1.50042796134949,dog,dog,0,0495_stg_s01_0_dog_00_dog1-airplane3.png
subject-01,1,496,1.49225497245789,knife,knife,0,0496_stg_s01_0_knife_00_knife6-airplane1.png
subject-01,1,497,1.50034117698669,car,car,0,0497_stg_s01_0_car_00_car3-boat1.png
subject-01,1,498,1.48374485969543,bicycle,bicycle,0,0498_stg_s01_0_bicycle_00_bicycle2-bottle1.png
subject-01,1,499,1.50031280517578,boat,boat,0,0499_stg_s01_0_boat_00_boat6-dog1.png
subject-01,1,500,1.50037884712219,chair,chair,0,0500_stg_s01_0_chair_00_chair8-airplane1.png
subject-01,1,501,1.50024914741516,truck,truck,0,0501_stg_s01_0_truck_00_truck2-bicycle2.png
subject-01,1,502,1.50017619132996,keyboard,keyboard,0,0502_stg_s01_0_keyboard_00_keyboard7-car3.png
subject-01,1,503,1.50001120567322,bear,elephant,0,0503_stg_s01_0_elephant_00_elephant4-boat3.png
subject-01,1,504,1.50026512145996,bird,bird,0,0504_stg_s01_0_bird_00_bird5-car2.png
subject-01,1,505,1.50024604797363,truck,truck,0,0505_stg_s01_0_truck_00_truck4-bear1.png
subject-01,1,506,1.50034713745117,bottle,bottle,0,0506_stg_s01_0_bottle_00_bottle4-airplane1.png
subject-01,1,507,1.50025796890259,cat,dog,0,0507_stg_s01_0_dog_00_dog7-chair2.png
subject-01,1,508,1.50032091140747,bottle,knife,0,0508_stg_s01_0_knife_00_knife9-bottle2.png
subject-01,1,509,1.45756697654724,bicycle,bicycle,0,0509_stg_s01_0_bicycle_00_bicycle8-chair2.png
subject-01,1,510,1.50022912025452,elephant,elephant,0,0510_stg_s01_0_elephant_00_elephant7-bottle3.png
subject-01,1,511,1.45243191719055,cat,cat,0,0511_stg_s01_0_cat_00_cat4-keyboard2.png
subject-01,1,512,1.50020217895508,elephant,elephant,0,0512_stg_s01_0_elephant_00_elephant9-bicycle2.png
subject-01,1,513,0.670959949493408,bottle,bottle,0,0513_stg_s01_0_bottle_00_bottle1-bird3.png
subject-01,1,514,1.18117594718933,elephant,elephant,0,0514_stg_s01_0_elephant_00_elephant5-bottle2.png
subject-01,1,515,1.50024604797363,cat,dog,0,0515_stg_s01_0_dog_00_dog5-truck2.png
subject-01,1,516,1.50024700164795,oven,keyboard,0,0516_stg_s01_0_keyboard_00_keyboard4-oven2.png
subject-01,1,517,1.06761503219604,chair,chair,0,0517_stg_s01_0_chair_00_chair8-oven1.png
subject-01,1,518,1.50015687942505,bicycle,bicycle,0,0518_stg_s01_0_bicycle_00_bicycle9-bird3.png
subject-01,1,519,1.50029921531677,bicycle,bicycle,0,0519_stg_s01_0_bicycle_00_bicycle7-bicycle2.png
subject-01,1,520,1.50018000602722,cat,knife,0,0520_stg_s01_0_knife_00_knife4-clock3.png
subject-01,1,521,1.50007510185242,clock,clock,0,0521_stg_s01_0_clock_00_clock4-bird3.png
subject-01,1,522,1.45752501487732,bird,bird,0,0522_stg_s01_0_bird_00_bird9-chair1.png
subject-01,1,523,1.46153402328491,oven,knife,0,0523_stg_s01_0_knife_00_knife10-keyboard3.png
subject-01,1,524,1.50008296966553,bottle,bottle,0,0524_stg_s01_0_bottle_00_bottle3-knife3.png
subject-01,1,525,1.50022387504578,oven,oven,0,0525_stg_s01_0_oven_00_oven10-bicycle1.png
subject-01,1,526,1.48910999298096,car,car,0,0526_stg_s01_0_car_00_car4-car2.png
subject-01,1,527,1.50035214424133,bird,bird,0,0527_stg_s01_0_bird_00_bird3-cat1.png
subject-01,1,528,1.44333505630493,car,car,0,0528_stg_s01_0_car_00_car10-keyboard2.png
subject-01,1,529,1.50018286705017,boat,boat,0,0529_stg_s01_0_boat_00_boat1-chair3.png
subject-01,1,530,1.50023293495178,boat,boat,0,0530_stg_s01_0_boat_00_boat5-airplane1.png
subject-01,1,531,1.47666811943054,elephant,elephant,0,0531_stg_s01_0_elephant_00_elephant7-car3.png
subject-01,1,532,1.48075985908508,clock,clock,0,0532_stg_s01_0_clock_00_clock8-airplane2.png
subject-01,1,533,1.4722158908844,car,car,0,0533_stg_s01_0_car_00_car4-oven2.png
subject-01,1,534,1.43826389312744,truck,truck,0,0534_stg_s01_0_truck_00_truck2-elephant1.png
subject-01,1,535,1.50007390975952,chair,chair,0,0535_stg_s01_0_chair_00_chair7-knife2.png
subject-01,1,536,1.49176788330078,airplane,airplane,0,0536_stg_s01_0_airplane_00_airplane10-airplane1.png
subject-01,1,537,1.50008583068848,chair,chair,0,0537_stg_s01_0_chair_00_chair3-knife1.png
subject-01,1,538,1.5001060962677,car,car,0,0538_stg_s01_0_car_00_car6-bear1.png
subject-01,1,539,1.50005602836609,knife,knife,0,0539_stg_s01_0_knife_00_knife5-cat2.png
subject-01,1,540,1.50011897087097,car,car,0,0540_stg_s01_0_car_00_car8-truck3.png
subject-01,1,541,1.50008201599121,keyboard,keyboard,0,0541_stg_s01_0_keyboard_00_keyboard7-oven2.png
subject-01,1,542,1.27567195892334,oven,oven,0,0542_stg_s01_0_oven_00_oven5-airplane1.png
subject-01,1,543,1.50020384788513,clock,clock,0,0543_stg_s01_0_clock_00_clock8-bear2.png
subject-01,1,544,1.50026488304138,airplane,cat,0,0544_stg_s01_0_cat_00_cat10-bottle1.png
subject-01,1,545,1.50031208992004,airplane,airplane,0,0545_stg_s01_0_airplane_00_airplane7-keyboard1.png
subject-01,1,546,1.50027203559875,airplane,knife,0,0546_stg_s01_0_knife_00_knife7-elephant2.png
subject-01,1,547,1.50003218650818,airplane,airplane,0,0547_stg_s01_0_airplane_00_airplane4-bicycle2.png
subject-01,1,548,1.49200391769409,cat,cat,0,0548_stg_s01_0_cat_00_cat7-dog3.png
subject-01,1,549,1.50013399124146,clock,clock,0,0549_stg_s01_0_clock_00_clock6-chair3.png
subject-01,1,550,1.50003409385681,knife,knife,0,0550_stg_s01_0_knife_00_knife6-oven3.png
subject-01,1,551,1.50015377998352,bear,elephant,0,0551_stg_s01_0_elephant_00_elephant8-cat1.png
subject-01,1,552,1.50026702880859,bear,bear,0,0552_stg_s01_0_bear_00_bear5-bird1.png
subject-01,1,553,1.50016713142395,clock,clock,0,0553_stg_s01_0_clock_00_clock9-cat1.png
subject-01,1,554,1.50019407272339,bottle,bottle,0,0554_stg_s01_0_bottle_00_bottle8-knife1.png
subject-01,1,555,1.50014114379883,bear,bear,0,0555_stg_s01_0_bear_00_bear5-bottle1.png
subject-01,1,556,1.49916195869446,oven,oven,0,0556_stg_s01_0_oven_00_oven7-bottle1.png
subject-01,1,557,1.5001540184021,airplane,airplane,0,0557_stg_s01_0_airplane_00_airplane4-knife1.png
subject-01,1,558,1.25211000442505,bird,bird,0,0558_stg_s01_0_bird_00_bird6-elephant2.png
subject-01,1,559,1.50040602684021,dog,dog,0,0559_stg_s01_0_dog_00_dog2-airplane2.png
subject-01,1,560,1.5001540184021,keyboard,keyboard,0,0560_stg_s01_0_keyboard_00_keyboard8-chair2.png
subject-01,1,561,1.50000905990601,bicycle,bicycle,0,0561_stg_s01_0_bicycle_00_bicycle7-knife2.png
subject-01,1,562,1.40248107910156,bicycle,bird,0,0562_stg_s01_0_bird_00_bird2-car3.png
subject-01,1,563,1.46590089797974,bird,bird,0,0563_stg_s01_0_bird_00_bird9-bicycle3.png
subject-01,1,564,1.46240401268005,cat,cat,0,0564_stg_s01_0_cat_00_cat10-elephant3.png
subject-01,1,565,1.50015306472778,bear,elephant,0,0565_stg_s01_0_elephant_00_elephant6-bicycle1.png
subject-01,1,566,1.50030016899109,airplane,airplane,0,0566_stg_s01_0_airplane_00_airplane4-boat3.png
subject-01,1,567,1.45701003074646,truck,truck,0,0567_stg_s01_0_truck_00_truck3-chair2.png
subject-01,1,568,1.48546314239502,chair,chair,0,0568_stg_s01_0_chair_00_chair5-bottle3.png
subject-01,1,569,1.47335505485535,truck,truck,0,0569_stg_s01_0_truck_00_truck4-oven2.png
subject-01,1,570,1.50007605552673,cat,cat,0,0570_stg_s01_0_cat_00_cat4-dog3.png
subject-01,1,571,1.5002110004425,elephant,bear,0,0571_stg_s01_0_bear_00_bear7-truck1.png
subject-01,1,572,1.50028800964355,bear,bear,0,0572_stg_s01_0_bear_00_bear8-bottle1.png
subject-01,1,573,1.39971899986267,clock,clock,0,0573_stg_s01_0_clock_00_clock8-truck2.png
subject-01,1,574,1.50012707710266,airplane,airplane,0,0574_stg_s01_0_airplane_00_airplane10-knife3.png
subject-01,1,575,1.50057411193848,chair,chair,0,0575_stg_s01_0_chair_00_chair5-bicycle1.png
subject-01,1,576,1.45581984519958,cat,cat,0,0576_stg_s01_0_cat_00_cat6-keyboard3.png
subject-01,1,577,1.22112894058228,oven,oven,0,0577_stg_s01_0_oven_00_oven9-oven1.png
subject-01,1,578,1.2741551399231,bear,bear,0,0578_stg_s01_0_bear_00_bear7-bear2.png
subject-01,1,579,1.50008416175842,bicycle,bird,0,0579_stg_s01_0_bird_00_bird2-dog2.png
subject-01,1,580,1.50006508827209,bicycle,bicycle,0,0580_stg_s01_0_bicycle_00_bicycle5-car3.png
subject-01,1,581,1.39199090003967,cat,bear,0,0581_stg_s01_0_bear_00_bear6-bottle3.png
subject-01,1,582,1.49595403671265,elephant,elephant,0,0582_stg_s01_0_elephant_00_elephant10-keyboard1.png
subject-01,1,583,1.50035500526428,chair,knife,0,0583_stg_s01_0_knife_00_knife7-chair2.png
subject-01,1,584,0.973632097244263,bear,truck,0,0584_stg_s01_0_truck_00_truck10-bicycle1.png
subject-01,1,585,1.49999904632568,chair,chair,0,0585_stg_s01_0_chair_00_chair7-cat1.png
subject-01,1,586,1.50018906593323,clock,clock,0,0586_stg_s01_0_clock_00_clock10-boat2.png
subject-01,1,587,1.46833109855652,airplane,airplane,0,0587_stg_s01_0_airplane_00_airplane10-boat3.png
subject-01,1,588,1.50019097328186,bicycle,bicycle,0,0588_stg_s01_0_bicycle_00_bicycle1-clock3.png
subject-01,1,589,1.50046300888062,bird,bird,0,0589_stg_s01_0_bird_00_bird3-truck3.png
subject-01,1,590,1.49488997459412,dog,cat,0,0590_stg_s01_0_cat_00_cat4-knife1.png
subject-01,1,591,1.50000715255737,bicycle,bicycle,0,0591_stg_s01_0_bicycle_00_bicycle3-keyboard1.png
subject-01,1,592,1.48056697845459,car,car,0,0592_stg_s01_0_car_00_car2-chair1.png
subject-01,1,593,1.47720789909363,cat,dog,0,0593_stg_s01_0_dog_00_dog3-truck2.png
subject-01,1,594,1.4563570022583,cat,cat,0,0594_stg_s01_0_cat_00_cat10-bird2.png
subject-01,1,595,1.50001502037048,oven,oven,0,0595_stg_s01_0_oven_00_oven6-elephant2.png
subject-01,1,596,1.50010681152344,oven,oven,0,0596_stg_s01_0_oven_00_oven6-knife3.png
subject-01,1,597,1.50043511390686,boat,boat,0,0597_stg_s01_0_boat_00_boat9-airplane2.png
subject-01,1,598,1.43706798553467,cat,cat,0,0598_stg_s01_0_cat_00_cat9-clock2.png
subject-01,1,599,1.50017786026001,airplane,airplane,0,0599_stg_s01_0_airplane_00_airplane9-oven2.png
subject-01,1,600,1.50044012069702,bird,bicycle,0,0600_stg_s01_0_bicycle_00_bicycle1-bottle3.png
subject-01,1,601,1.50018501281738,clock,clock,0,0601_stg_s01_0_clock_00_clock5-elephant2.png
subject-01,1,602,1.50024604797363,bottle,bottle,0,0602_stg_s01_0_bottle_00_bottle5-chair1.png
subject-01,1,603,1.50004315376282,airplane,truck,0,0603_stg_s01_0_truck_00_truck3-bear3.png
subject-01,1,604,1.49180483818054,cat,dog,0,0604_stg_s01_0_dog_00_dog6-bird1.png
subject-01,1,605,1.45791602134705,bicycle,bicycle,0,0605_stg_s01_0_bicycle_00_bicycle2-bicycle1.png
subject-01,1,606,1.50034785270691,bottle,bottle,0,0606_stg_s01_0_bottle_00_bottle2-bottle3.png
subject-01,1,607,1.49564599990845,airplane,airplane,0,0607_stg_s01_0_airplane_00_airplane1-chair2.png
subject-01,1,608,1.49999499320984,truck,truck,0,0608_stg_s01_0_truck_00_truck1-bicycle3.png
subject-01,1,609,1.50030207633972,dog,elephant,0,0609_stg_s01_0_elephant_00_elephant2-cat1.png
subject-01,1,610,1.50019907951355,airplane,boat,0,0610_stg_s01_0_boat_00_boat4-chair2.png
subject-01,1,611,1.5003559589386,chair,chair,0,0611_stg_s01_0_chair_00_chair8-bear1.png
subject-01,1,612,1.50023913383484,clock,clock,0,0612_stg_s01_0_clock_00_clock7-boat3.png
subject-01,1,613,1.48455810546875,cat,cat,0,0613_stg_s01_0_cat_00_cat2-boat2.png
subject-01,1,614,1.45875191688538,dog,dog,0,0614_stg_s01_0_dog_00_dog4-bottle2.png
subject-01,1,615,1.50018286705017,bird,bird,0,0615_stg_s01_0_bird_00_bird10-clock1.png
subject-01,1,616,1.50010108947754,elephant,elephant,0,0616_stg_s01_0_elephant_00_elephant10-bear1.png
subject-01,1,617,1.46288108825684,cat,dog,0,0617_stg_s01_0_dog_00_dog1-dog2.png
subject-01,1,618,1.50012803077698,elephant,elephant,0,0618_stg_s01_0_elephant_00_elephant3-oven1.png
subject-01,1,619,1.50011992454529,bicycle,bicycle,0,0619_stg_s01_0_bicycle_00_bicycle10-clock2.png
subject-01,1,620,1.47248196601868,bottle,bottle,0,0620_stg_s01_0_bottle_00_bottle2-knife3.png
subject-01,1,621,1.50030183792114,oven,clock,0,0621_stg_s01_0_clock_00_clock2-dog1.png
subject-01,1,622,1.5001049041748,chair,chair,0,0622_stg_s01_0_chair_00_chair8-chair3.png
subject-01,1,623,1.50017285346985,bottle,bottle,0,0623_stg_s01_0_bottle_00_bottle1-chair2.png
subject-01,1,624,1.50033903121948,bear,bear,0,0624_stg_s01_0_bear_00_bear10-oven1.png
subject-01,1,625,1.50031781196594,bear,elephant,0,0625_stg_s01_0_elephant_00_elephant2-boat1.png
subject-01,1,626,1.5002019405365,airplane,airplane,0,0626_stg_s01_0_airplane_00_airplane4-bird3.png
subject-01,1,627,1.50040006637573,truck,truck,0,0627_stg_s01_0_truck_00_truck2-bird2.png
subject-01,1,628,0.893932104110718,truck,truck,0,0628_stg_s01_0_truck_00_truck3-oven2.png
subject-01,1,629,1.50027012825012,knife,knife,0,0629_stg_s01_0_knife_00_knife1-bird2.png
subject-01,1,630,1.50027513504028,chair,chair,0,0630_stg_s01_0_chair_00_chair3-car3.png
subject-01,1,631,1.50008797645569,clock,clock,0,0631_stg_s01_0_clock_00_clock6-knife2.png
subject-01,1,632,1.50014805793762,knife,knife,0,0632_stg_s01_0_knife_00_knife9-bear3.png
subject-01,1,633,1.50002408027649,chair,chair,0,0633_stg_s01_0_chair_00_chair9-bottle3.png
subject-01,1,634,1.49138498306274,cat,cat,0,0634_stg_s01_0_cat_00_cat5-car2.png
subject-01,1,635,1.50002503395081,bear,bear,0,0635_stg_s01_0_bear_00_bear4-clock3.png
subject-01,1,636,1.46192598342896,chair,chair,0,0636_stg_s01_0_chair_00_chair1-elephant1.png
subject-01,1,637,1.50019097328186,dog,dog,0,0637_stg_s01_0_dog_00_dog1-chair1.png
subject-01,1,638,1.50021290779114,chair,chair,0,0638_stg_s01_0_chair_00_chair10-bird3.png
subject-01,1,639,1.44129300117493,bear,bear,0,0639_stg_s01_0_bear_00_bear2-car2.png
subject-01,1,640,1.50006198883057,chair,chair,0,0640_stg_s01_0_chair_00_chair1-truck3.png
subject-01,1,641,1.50023484230042,bicycle,bicycle,0,0641_stg_s01_0_bicycle_00_bicycle8-bird2.png
subject-01,1,642,1.50001096725464,car,car,0,0642_stg_s01_0_car_00_car1-airplane1.png
subject-01,1,643,1.50015592575073,car,car,0,0643_stg_s01_0_car_00_car10-bottle3.png
subject-01,1,644,1.5003387928009,bicycle,bicycle,0,0644_stg_s01_0_bicycle_00_bicycle4-chair2.png
subject-01,1,645,1.5002110004425,elephant,elephant,0,0645_stg_s01_0_elephant_00_elephant6-oven1.png
subject-01,1,646,1.5002498626709,oven,oven,0,0646_stg_s01_0_oven_00_oven8-cat3.png
subject-01,1,647,1.50012016296387,bird,bird,0,0647_stg_s01_0_bird_00_bird8-clock1.png
subject-01,1,648,1.48263597488403,bird,bird,0,0648_stg_s01_0_bird_00_bird10-elephant2.png
subject-01,1,649,1.50008916854858,airplane,boat,0,0649_stg_s01_0_boat_00_boat4-bicycle3.png
subject-01,1,650,1.45850515365601,chair,chair,0,0650_stg_s01_0_chair_00_chair1-cat3.png
subject-01,1,651,1.5002760887146,cat,bottle,0,0651_stg_s01_0_bottle_00_bottle7-keyboard2.png
subject-01,1,652,1.50032305717468,knife,boat,0,0652_stg_s01_0_boat_00_boat1-keyboard3.png
subject-01,1,653,1.50031018257141,bottle,bottle,0,0653_stg_s01_0_bottle_00_bottle8-bicycle1.png
subject-01,1,654,1.50012588500977,bicycle,bicycle,0,0654_stg_s01_0_bicycle_00_bicycle5-keyboard3.png
subject-01,1,655,1.46593499183655,clock,clock,0,0655_stg_s01_0_clock_00_clock7-bottle2.png
subject-01,1,656,1.50028300285339,clock,clock,0,0656_stg_s01_0_clock_00_clock3-keyboard3.png
subject-01,1,657,1.50005292892456,bear,bear,0,0657_stg_s01_0_bear_00_bear3-dog3.png
subject-01,1,658,1.50012302398682,clock,knife,0,0658_stg_s01_0_knife_00_knife2-dog1.png
subject-01,1,659,1.50033497810364,bear,elephant,0,0659_stg_s01_0_elephant_00_elephant4-car3.png
subject-01,1,660,1.50031995773315,clock,clock,0,0660_stg_s01_0_clock_00_clock9-chair3.png
subject-01,1,661,1.50000500679016,dog,dog,0,0661_stg_s01_0_dog_00_dog2-knife3.png
subject-01,1,662,1.46034812927246,bicycle,bicycle,0,0662_stg_s01_0_bicycle_00_bicycle4-airplane1.png
subject-01,1,663,1.46958017349243,keyboard,keyboard,0,0663_stg_s01_0_keyboard_00_keyboard10-oven3.png
subject-01,1,664,1.50001502037048,bicycle,bicycle,0,0664_stg_s01_0_bicycle_00_bicycle5-bottle3.png
subject-01,1,665,1.44726204872131,bird,bird,0,0665_stg_s01_0_bird_00_bird5-bird1.png
subject-01,1,666,1.50014805793762,bottle,bottle,0,0666_stg_s01_0_bottle_00_bottle1-car1.png
subject-01,1,667,1.50014901161194,cat,cat,0,0667_stg_s01_0_cat_00_cat4-chair2.png
subject-01,1,668,1.47284698486328,knife,boat,0,0668_stg_s01_0_boat_00_boat8-dog3.png
subject-01,1,669,1.44679498672485,truck,truck,0,0669_stg_s01_0_truck_00_truck7-bear2.png
subject-01,1,670,1.49606490135193,car,car,0,0670_stg_s01_0_car_00_car1-clock2.png
subject-01,1,671,1.46842217445374,dog,dog,0,0671_stg_s01_0_dog_00_dog9-cat1.png
subject-01,1,672,1.50014996528625,cat,cat,0,0672_stg_s01_0_cat_00_cat8-bird2.png
subject-01,1,673,1.45949506759644,bottle,bottle,0,0673_stg_s01_0_bottle_00_bottle4-truck1.png
subject-01,1,674,1.43428802490234,bottle,knife,0,0674_stg_s01_0_knife_00_knife10-dog1.png
subject-01,1,675,1.50015807151794,chair,chair,0,0675_stg_s01_0_chair_00_chair10-bicycle1.png
subject-01,1,676,1.50038003921509,bird,bird,0,0676_stg_s01_0_bird_00_bird5-keyboard2.png
subject-01,1,677,1.50037097930908,clock,clock,0,0677_stg_s01_0_clock_00_clock3-cat1.png
subject-01,1,678,1.50011897087097,airplane,airplane,0,0678_stg_s01_0_airplane_00_airplane7-bird3.png
subject-01,1,679,1.50005888938904,oven,oven,0,0679_stg_s01_0_oven_00_oven9-keyboard1.png
subject-01,1,680,1.48952794075012,knife,knife,0,0680_stg_s01_0_knife_00_knife9-chair1.png
subject-01,1,681,1.48556089401245,clock,airplane,0,0681_stg_s01_0_airplane_00_airplane8-oven2.png
subject-01,1,682,1.47829103469849,car,car,0,0682_stg_s01_0_car_00_car6-chair3.png
subject-01,1,683,1.48228311538696,knife,keyboard,0,0683_stg_s01_0_keyboard_00_keyboard6-dog2.png
subject-01,1,684,1.50027894973755,bird,bird,0,0684_stg_s01_0_bird_00_bird9-dog2.png
subject-01,1,685,1.50027799606323,car,car,0,0685_stg_s01_0_car_00_car2-car3.png
subject-01,1,686,1.45660996437073,chair,chair,0,0686_stg_s01_0_chair_00_chair5-truck3.png
subject-01,1,687,1.45218300819397,airplane,airplane,0,0687_stg_s01_0_airplane_00_airplane6-knife1.png
subject-01,1,688,1.50040817260742,bird,bird,0,0688_stg_s01_0_bird_00_bird3-bird2.png
subject-01,1,689,1.50017809867859,car,cat,0,0689_stg_s01_0_cat_00_cat3-oven2.png
subject-01,1,690,1.50023913383484,cat,bird,0,0690_stg_s01_0_bird_00_bird2-knife1.png
subject-01,1,691,1.46857404708862,keyboard,keyboard,0,0691_stg_s01_0_keyboard_00_keyboard1-airplane2.png
subject-01,1,692,1.50017786026001,keyboard,truck,0,0692_stg_s01_0_truck_00_truck6-truck2.png
subject-01,1,693,1.50004887580872,clock,clock,0,0693_stg_s01_0_clock_00_clock3-bear3.png
subject-01,1,694,1.50018382072449,dog,dog,0,0694_stg_s01_0_dog_00_dog7-bird3.png
subject-01,1,695,1.47591996192932,airplane,airplane,0,0695_stg_s01_0_airplane_00_airplane8-clock2.png
subject-01,1,696,1.50007295608521,chair,chair,0,0696_stg_s01_0_chair_00_chair8-car1.png
subject-01,1,697,1.48620104789734,oven,oven,0,0697_stg_s01_0_oven_00_oven3-airplane1.png
subject-01,1,698,1.45270895957947,clock,oven,0,0698_stg_s01_0_oven_00_oven6-bicycle1.png
subject-01,1,699,1.44851207733154,airplane,airplane,0,0699_stg_s01_0_airplane_00_airplane10-elephant1.png
subject-01,1,700,1.50006198883057,car,car,0,0700_stg_s01_0_car_00_car5-knife2.png
subject-01,1,701,1.50016593933105,airplane,knife,0,0701_stg_s01_0_knife_00_knife1-car3.png
subject-01,1,702,1.50029683113098,dog,cat,0,0702_stg_s01_0_cat_00_cat7-boat3.png
subject-01,1,703,1.500324010849,chair,chair,0,0703_stg_s01_0_chair_00_chair9-chair3.png
subject-01,1,704,1.50034403800964,cat,cat,0,0704_stg_s01_0_cat_00_cat9-bicycle1.png
subject-01,1,705,1.46391487121582,chair,oven,0,0705_stg_s01_0_oven_00_oven6-chair3.png
subject-01,1,706,1.48951196670532,cat,boat,0,0706_stg_s01_0_boat_00_boat7-bottle1.png
subject-01,1,707,1.48281693458557,bear,bear,0,0707_stg_s01_0_bear_00_bear9-keyboard3.png
subject-01,1,708,1.5002429485321,clock,clock,0,0708_stg_s01_0_clock_00_clock4-chair1.png
subject-01,1,709,1.50008296966553,keyboard,keyboard,0,0709_stg_s01_0_keyboard_00_keyboard5-bicycle1.png
subject-01,1,710,1.46234917640686,dog,bear,0,0710_stg_s01_0_bear_00_bear6-clock1.png
subject-01,1,711,1.42800307273865,chair,chair,0,0711_stg_s01_0_chair_00_chair7-bird1.png
subject-01,1,712,1.47759199142456,boat,boat,0,0712_stg_s01_0_boat_00_boat9-chair2.png
subject-01,1,713,1.500079870224,chair,chair,0,0713_stg_s01_0_chair_00_chair7-bottle1.png
subject-01,1,714,1.50023102760315,keyboard,keyboard,0,0714_stg_s01_0_keyboard_00_keyboard1-chair2.png
subject-01,1,715,1.35241603851318,boat,boat,0,0715_stg_s01_0_boat_00_boat1-elephant3.png
subject-01,1,716,1.5000638961792,clock,knife,0,0716_stg_s01_0_knife_00_knife9-boat1.png
subject-01,1,717,1.45283794403076,knife,bicycle,0,0717_stg_s01_0_bicycle_00_bicycle6-bicycle3.png
subject-01,1,718,1.50002503395081,clock,clock,0,0718_stg_s01_0_clock_00_clock2-clock3.png
subject-01,1,719,1.50038814544678,boat,boat,0,0719_stg_s01_0_boat_00_boat5-boat3.png
subject-01,1,720,1.49999785423279,bottle,bottle,0,0720_stg_s01_0_bottle_00_bottle10-dog1.png
subject-01,1,721,1.50008702278137,bear,bear,0,0721_stg_s01_0_bear_00_bear4-elephant2.png
subject-01,1,722,1.4606671333313,cat,cat,0,0722_stg_s01_0_cat_00_cat10-keyboard1.png
subject-01,1,723,1.47822713851929,bird,bird,0,0723_stg_s01_0_bird_00_bird8-bottle1.png
subject-01,1,724,1.50021910667419,chair,chair,0,0724_stg_s01_0_chair_00_chair5-oven2.png
subject-01,1,725,1.48724699020386,truck,truck,0,0725_stg_s01_0_truck_00_truck4-bottle2.png
subject-01,1,726,1.50003886222839,keyboard,keyboard,0,0726_stg_s01_0_keyboard_00_keyboard8-dog3.png
subject-01,1,727,1.50026392936707,chair,knife,0,0727_stg_s01_0_knife_00_knife4-oven2.png
subject-01,1,728,1.50038814544678,cat,cat,0,0728_stg_s01_0_cat_00_cat1-car2.png
subject-01,1,729,1.49999403953552,elephant,elephant,0,0729_stg_s01_0_elephant_00_elephant10-elephant1.png
subject-01,1,730,1.5002179145813,oven,boat,0,0730_stg_s01_0_boat_00_boat10-truck1.png
subject-01,1,731,1.50007700920105,elephant,elephant,0,0731_stg_s01_0_elephant_00_elephant3-chair1.png
subject-01,1,732,1.50005793571472,boat,boat,0,0732_stg_s01_0_boat_00_boat5-clock3.png
subject-01,1,733,1.50039911270142,boat,boat,0,0733_stg_s01_0_boat_00_boat2-keyboard1.png
subject-01,1,734,1.49999308586121,dog,dog,0,0734_stg_s01_0_dog_00_dog1-bear1.png
subject-01,1,735,1.43028688430786,keyboard,boat,0,0735_stg_s01_0_boat_00_boat3-dog3.png
subject-01,1,736,1.50019693374634,airplane,airplane,0,0736_stg_s01_0_airplane_00_airplane1-bicycle2.png
subject-01,1,737,1.5004289150238,car,car,0,0737_stg_s01_0_car_00_car9-truck3.png
subject-01,1,738,1.50020694732666,bear,bear,0,0738_stg_s01_0_bear_00_bear8-truck3.png
subject-01,1,739,1.43790793418884,bird,bird,0,0739_stg_s01_0_bird_00_bird10-cat1.png
subject-01,1,740,1.4333119392395,oven,oven,0,0740_stg_s01_0_oven_00_oven2-boat3.png
subject-01,1,741,1.50022101402283,bear,cat,0,0741_stg_s01_0_cat_00_cat2-knife3.png
subject-01,1,742,1.50029897689819,bicycle,bicycle,0,0742_stg_s01_0_bicycle_00_bicycle9-bottle1.png
subject-01,1,743,1.50009179115295,clock,clock,0,0743_stg_s01_0_clock_00_clock5-keyboard1.png
subject-01,1,744,1.50009894371033,cat,cat,0,0744_stg_s01_0_cat_00_cat7-bottle1.png
subject-01,1,745,1.50028705596924,keyboard,keyboard,0,0745_stg_s01_0_keyboard_00_keyboard1-car3.png
subject-01,1,746,1.50000214576721,keyboard,knife,0,0746_stg_s01_0_knife_00_knife8-boat1.png
subject-01,1,747,1.50032210350037,dog,bear,0,0747_stg_s01_0_bear_00_bear2-keyboard2.png
subject-01,1,748,1.50011301040649,cat,cat,0,0748_stg_s01_0_cat_00_cat6-bear1.png
subject-01,1,749,1.50000596046448,car,car,0,0749_stg_s01_0_car_00_car10-bicycle2.png
subject-01,1,750,1.43786311149597,airplane,airplane,0,0750_stg_s01_0_airplane_00_airplane4-elephant1.png
subject-01,1,751,1.50032591819763,boat,boat,0,0751_stg_s01_0_boat_00_boat6-bottle2.png
subject-01,1,752,1.20532488822937,cat,cat,0,0752_stg_s01_0_cat_00_cat2-elephant1.png
subject-01,1,753,1.50007104873657,oven,oven,0,0753_stg_s01_0_oven_00_oven7-oven1.png
subject-01,1,754,1.50006794929504,oven,oven,0,0754_stg_s01_0_oven_00_oven4-clock2.png
subject-01,1,755,1.50017189979553,bicycle,bicycle,0,0755_stg_s01_0_bicycle_00_bicycle1-dog3.png
subject-01,1,756,1.41882300376892,cat,dog,0,0756_stg_s01_0_dog_00_dog8-chair3.png
subject-01,1,757,1.50009489059448,keyboard,keyboard,0,0757_stg_s01_0_keyboard_00_keyboard5-keyboard1.png
subject-01,1,758,1.46390795707703,bottle,bottle,0,0758_stg_s01_0_bottle_00_bottle5-knife1.png
subject-01,1,759,1.50037789344788,dog,bear,0,0759_stg_s01_0_bear_00_bear3-bird3.png
subject-01,1,760,1.50002908706665,car,car,0,0760_stg_s01_0_car_00_car6-truck3.png
subject-01,1,761,1.50030994415283,cat,cat,0,0761_stg_s01_0_cat_00_cat6-chair3.png
subject-01,1,762,1.50039386749268,car,car,0,0762_stg_s01_0_car_00_car3-airplane3.png
subject-01,1,763,1.49457812309265,dog,dog,0,0763_stg_s01_0_dog_00_dog10-truck2.png
subject-01,1,764,1.49999809265137,oven,knife,0,0764_stg_s01_0_knife_00_knife1-keyboard3.png
subject-01,1,765,1.50012302398682,bicycle,bicycle,0,0765_stg_s01_0_bicycle_00_bicycle2-dog1.png
subject-01,1,766,1.50036382675171,bear,bear,0,0766_stg_s01_0_bear_00_bear8-elephant2.png
subject-01,1,767,1.44489192962646,cat,cat,0,0767_stg_s01_0_cat_00_cat9-bird3.png
subject-01,1,768,1.48658394813538,bottle,bottle,0,0768_stg_s01_0_bottle_00_bottle3-bicycle3.png
subject-01,1,769,1.1427321434021,keyboard,keyboard,0,0769_stg_s01_0_keyboard_00_keyboard9-cat1.png
subject-01,1,770,1.50015211105347,boat,keyboard,0,0770_stg_s01_0_keyboard_00_keyboard2-knife1.png
subject-01,1,771,1.47992992401123,car,airplane,0,0771_stg_s01_0_airplane_00_airplane4-truck2.png
subject-01,1,772,1.50045680999756,bird,bird,0,0772_stg_s01_0_bird_00_bird10-bear2.png
subject-01,1,773,1.49999594688416,elephant,elephant,0,0773_stg_s01_0_elephant_00_elephant6-car3.png
subject-01,1,774,1.50046396255493,dog,dog,0,0774_stg_s01_0_dog_00_dog10-dog1.png
subject-01,1,775,1.50048995018005,bear,bear,0,0775_stg_s01_0_bear_00_bear10-truck1.png
subject-01,1,776,1.45964384078979,oven,oven,0,0776_stg_s01_0_oven_00_oven2-bird2.png
subject-01,1,777,1.44645404815674,airplane,knife,0,0777_stg_s01_0_knife_00_knife2-bird1.png
subject-01,1,778,1.50006508827209,knife,knife,0,0778_stg_s01_0_knife_00_knife8-bottle3.png
subject-01,1,779,1.5002977848053,cat,cat,0,0779_stg_s01_0_cat_00_cat1-oven1.png
subject-01,1,780,1.46695399284363,boat,boat,0,0780_stg_s01_0_boat_00_boat9-clock1.png
subject-01,1,781,1.50008487701416,oven,oven,0,0781_stg_s01_0_oven_00_oven4-chair1.png
subject-01,1,782,1.50016283988953,oven,oven,0,0782_stg_s01_0_oven_00_oven10-oven3.png
subject-01,1,783,1.50031900405884,car,car,0,0783_stg_s01_0_car_00_car4-clock1.png
subject-01,1,784,1.50028109550476,oven,oven,0,0784_stg_s01_0_oven_00_oven9-airplane2.png
subject-01,1,785,1.50010681152344,bottle,bottle,0,0785_stg_s01_0_bottle_00_bottle10-boat3.png
subject-01,1,786,1.50022101402283,car,car,0,0786_stg_s01_0_car_00_car7-dog3.png
subject-01,1,787,1.50033092498779,truck,truck,0,0787_stg_s01_0_truck_00_truck3-clock3.png
subject-01,1,788,1.48564600944519,chair,chair,0,0788_stg_s01_0_chair_00_chair1-airplane2.png
subject-01,1,789,1.50038003921509,bear,bear,0,0789_stg_s01_0_bear_00_bear3-car2.png
subject-01,1,790,1.50006890296936,airplane,airplane,0,0790_stg_s01_0_airplane_00_airplane7-car1.png
subject-01,1,791,1.50010085105896,car,car,0,0791_stg_s01_0_car_00_car8-clock2.png
subject-01,1,792,1.50019407272339,truck,truck,0,0792_stg_s01_0_truck_00_truck8-dog3.png
subject-01,1,793,1.50002694129944,airplane,airplane,0,0793_stg_s01_0_airplane_00_airplane10-dog3.png
subject-01,1,794,1.50026106834412,bear,dog,0,0794_stg_s01_0_dog_00_dog1-boat3.png
subject-01,1,795,1.47395300865173,bird,bird,0,0795_stg_s01_0_bird_00_bird3-dog1.png
subject-01,1,796,1.47059607505798,bird,bird,0,0796_stg_s01_0_bird_00_bird8-elephant1.png
subject-01,1,797,1.50009894371033,boat,knife,0,0797_stg_s01_0_knife_00_knife7-car2.png
subject-01,1,798,1.50008392333984,airplane,airplane,0,0798_stg_s01_0_airplane_00_airplane10-truck1.png
subject-01,1,799,1.50022196769714,car,car,0,0799_stg_s01_0_car_00_car4-bear3.png
subject-01,1,800,1.50027894973755,chair,chair,0,0800_stg_s01_0_chair_00_chair1-clock2.png
subject-01,1,801,1.50015091896057,car,car,0,0801_stg_s01_0_car_00_car4-boat1.png
subject-01,1,802,1.47519087791443,truck,truck,0,0802_stg_s01_0_truck_00_truck9-boat3.png
subject-01,1,803,1.47828602790833,knife,knife,0,0803_stg_s01_0_knife_00_knife5-dog1.png
subject-01,1,804,1.50028896331787,bottle,bottle,0,0804_stg_s01_0_bottle_00_bottle5-boat1.png
subject-01,1,805,1.50008988380432,clock,clock,0,0805_stg_s01_0_clock_00_clock8-keyboard1.png
subject-01,1,806,1.45052003860474,airplane,airplane,0,0806_stg_s01_0_airplane_00_airplane5-bear2.png
subject-01,1,807,1.50001287460327,bicycle,bicycle,0,0807_stg_s01_0_bicycle_00_bicycle1-bird1.png
subject-01,1,808,1.50026392936707,airplane,bicycle,0,0808_stg_s01_0_bicycle_00_bicycle10-elephant2.png
subject-01,1,809,1.46205902099609,airplane,airplane,0,0809_stg_s01_0_airplane_00_airplane7-airplane3.png
subject-01,1,810,1.50015902519226,airplane,airplane,0,0810_stg_s01_0_airplane_00_airplane8-chair1.png
subject-01,1,811,1.50035214424133,chair,chair,0,0811_stg_s01_0_chair_00_chair8-elephant1.png
subject-01,1,812,1.5000011920929,airplane,boat,0,0812_stg_s01_0_boat_00_boat10-boat3.png
subject-01,1,813,1.5003490447998,bird,chair,0,0813_stg_s01_0_chair_00_chair5-bird1.png
subject-01,1,814,1.50019311904907,chair,chair,0,0814_stg_s01_0_chair_00_chair2-boat1.png
subject-01,1,815,1.50005912780762,truck,truck,0,0815_stg_s01_0_truck_00_truck5-truck1.png
subject-01,1,816,1.50006818771362,clock,clock,0,0816_stg_s01_0_clock_00_clock7-car1.png
subject-01,1,817,1.50012302398682,cat,bear,0,0817_stg_s01_0_bear_00_bear3-bicycle2.png
subject-01,1,818,1.50036001205444,dog,cat,0,0818_stg_s01_0_cat_00_cat6-oven1.png
subject-01,1,819,1.50002002716064,oven,oven,0,0819_stg_s01_0_oven_00_oven4-bottle2.png
subject-01,1,820,1.50021386146545,elephant,elephant,0,0820_stg_s01_0_elephant_00_elephant9-dog3.png
subject-01,1,821,1.50007700920105,oven,oven,0,0821_stg_s01_0_oven_00_oven4-knife2.png
subject-01,1,822,1.50011086463928,knife,knife,0,0822_stg_s01_0_knife_00_knife2-bicycle3.png
subject-01,1,823,1.4466860294342,dog,bird,0,0823_stg_s01_0_bird_00_bird8-boat3.png
subject-01,1,824,1.38849210739136,car,car,0,0824_stg_s01_0_car_00_car7-boat3.png
subject-01,1,825,1.5000958442688,bottle,bottle,0,0825_stg_s01_0_bottle_00_bottle6-airplane1.png
subject-01,1,826,1.5004301071167,bottle,bottle,0,0826_stg_s01_0_bottle_00_bottle9-elephant2.png
subject-01,1,827,1.50023603439331,clock,clock,0,0827_stg_s01_0_clock_00_clock1-elephant2.png
subject-01,1,828,1.45847606658936,clock,clock,0,0828_stg_s01_0_clock_00_clock3-car2.png
subject-01,1,829,1.50005197525024,oven,oven,0,0829_stg_s01_0_oven_00_oven3-boat3.png
subject-01,1,830,1.50023508071899,oven,oven,0,0830_stg_s01_0_oven_00_oven3-elephant3.png
subject-01,1,831,1.45205283164978,oven,oven,0,0831_stg_s01_0_oven_00_oven6-bird1.png
subject-01,1,832,1.5002601146698,car,car,0,0832_stg_s01_0_car_00_car5-keyboard3.png
subject-01,1,833,1.50001502037048,bicycle,bicycle,0,0833_stg_s01_0_bicycle_00_bicycle4-oven3.png
subject-01,1,834,1.50022292137146,airplane,airplane,0,0834_stg_s01_0_airplane_00_airplane6-bear3.png
subject-01,1,835,1.48867797851562,knife,boat,0,0835_stg_s01_0_boat_00_boat6-elephant2.png
subject-01,1,836,1.43981599807739,bottle,bottle,0,0836_stg_s01_0_bottle_00_bottle1-bear1.png
subject-01,1,837,1.50004696846008,elephant,elephant,0,0837_stg_s01_0_elephant_00_elephant1-bear2.png
subject-01,1,838,1.50016093254089,boat,boat,0,0838_stg_s01_0_boat_00_boat2-oven3.png
subject-01,1,839,1.50004410743713,boat,car,0,0839_stg_s01_0_car_00_car1-dog2.png
subject-01,1,840,1.50049901008606,bicycle,bicycle,0,0840_stg_s01_0_bicycle_00_bicycle2-bird3.png
subject-01,1,841,1.50011610984802,cat,cat,0,0841_stg_s01_0_cat_00_cat2-cat1.png
subject-01,1,842,1.4746630191803,truck,truck,0,0842_stg_s01_0_truck_00_truck7-boat1.png
subject-01,1,843,1.50004196166992,bear,bear,0,0843_stg_s01_0_bear_00_bear3-airplane1.png
subject-01,1,844,1.50025796890259,oven,oven,0,0844_stg_s01_0_oven_00_oven10-airplane2.png
subject-01,1,845,1.50010800361633,car,car,0,0845_stg_s01_0_car_00_car5-oven2.png
subject-01,1,846,1.44508099555969,car,car,0,0846_stg_s01_0_car_00_car9-bicycle2.png
subject-01,1,847,1.50011110305786,chair,chair,0,0847_stg_s01_0_chair_00_chair4-cat2.png
subject-01,1,848,1.48268008232117,boat,boat,0,0848_stg_s01_0_boat_00_boat2-bottle2.png
subject-01,1,849,1.50034117698669,boat,boat,0,0849_stg_s01_0_boat_00_boat8-oven1.png
subject-01,1,850,1.50027418136597,keyboard,keyboard,0,0850_stg_s01_0_keyboard_00_keyboard3-bird3.png
subject-01,1,851,1.41680216789246,truck,truck,0,0851_stg_s01_0_truck_00_truck8-bottle2.png
subject-01,1,852,1.43675088882446,bear,bear,0,0852_stg_s01_0_bear_00_bear7-clock1.png
subject-01,1,853,1.50012683868408,bicycle,bicycle,0,0853_stg_s01_0_bicycle_00_bicycle4-bicycle3.png
subject-01,1,854,1.50016808509827,elephant,elephant,0,0854_stg_s01_0_elephant_00_elephant7-knife2.png
subject-01,1,855,1.50007891654968,elephant,elephant,0,0855_stg_s01_0_elephant_00_elephant7-dog1.png
subject-01,1,856,1.42519497871399,bear,knife,0,0856_stg_s01_0_knife_00_knife4-bear1.png
subject-01,1,857,1.50012993812561,keyboard,keyboard,0,0857_stg_s01_0_keyboard_00_keyboard1-bird2.png
subject-01,1,858,1.50013303756714,bicycle,bicycle,0,0858_stg_s01_0_bicycle_00_bicycle1-truck1.png
subject-01,1,859,1.47226285934448,bird,bird,0,0859_stg_s01_0_bird_00_bird4-airplane1.png
subject-01,1,860,1.50008702278137,oven,airplane,0,0860_stg_s01_0_airplane_00_airplane2-cat1.png
subject-01,1,861,1.46334600448608,knife,airplane,0,0861_stg_s01_0_airplane_00_airplane8-bird1.png
subject-01,1,862,1.42925214767456,bird,bird,0,0862_stg_s01_0_bird_00_bird1-bear1.png
subject-01,1,863,1.39580202102661,bottle,bottle,0,0863_stg_s01_0_bottle_00_bottle9-oven2.png
subject-01,1,864,1.50012588500977,clock,clock,0,0864_stg_s01_0_clock_00_clock4-oven1.png
subject-01,1,865,1.50002098083496,dog,dog,0,0865_stg_s01_0_dog_00_dog4-airplane3.png
subject-01,1,866,1.45838189125061,cat,cat,0,0866_stg_s01_0_cat_00_cat9-cat3.png
subject-01,1,867,1.50034117698669,chair,chair,0,0867_stg_s01_0_chair_00_chair5-knife3.png
subject-01,1,868,1.50040888786316,dog,dog,0,0868_stg_s01_0_dog_00_dog10-oven2.png
subject-01,1,869,1.50036096572876,chair,chair,0,0869_stg_s01_0_chair_00_chair8-boat1.png
subject-01,1,870,1.50023984909058,bottle,bottle,0,0870_stg_s01_0_bottle_00_bottle8-keyboard3.png
subject-01,1,871,1.50010395050049,keyboard,keyboard,0,0871_stg_s01_0_keyboard_00_keyboard5-bottle1.png
subject-01,1,872,1.50013208389282,knife,knife,0,0872_stg_s01_0_knife_00_knife4-boat1.png
subject-01,1,873,1.50000309944153,chair,chair,0,0873_stg_s01_0_chair_00_chair9-keyboard2.png
subject-01,1,874,1.47751998901367,oven,oven,0,0874_stg_s01_0_oven_00_oven10-boat2.png
subject-01,1,875,1.50023603439331,bear,elephant,0,0875_stg_s01_0_elephant_00_elephant8-bicycle3.png
subject-01,1,876,1.50001883506775,elephant,elephant,0,0876_stg_s01_0_elephant_00_elephant1-boat2.png
subject-01,1,877,1.50025391578674,chair,chair,0,0877_stg_s01_0_chair_00_chair5-clock2.png
subject-01,1,878,1.50025200843811,truck,truck,0,0878_stg_s01_0_truck_00_truck4-airplane3.png
subject-01,1,879,1.48622298240662,chair,bottle,0,0879_stg_s01_0_bottle_00_bottle4-car3.png
subject-01,1,880,1.50000095367432,airplane,airplane,0,0880_stg_s01_0_airplane_00_airplane9-clock1.png
subject-01,1,881,1.50033903121948,cat,cat,0,0881_stg_s01_0_cat_00_cat9-truck1.png
subject-01,1,882,1.48312592506409,dog,dog,0,0882_stg_s01_0_dog_00_dog6-cat1.png
subject-01,1,883,1.50026702880859,chair,knife,0,0883_stg_s01_0_knife_00_knife6-clock2.png
subject-01,1,884,1.50028014183044,airplane,airplane,0,0884_stg_s01_0_airplane_00_airplane5-boat3.png
subject-01,1,885,1.46197700500488,elephant,elephant,0,0885_stg_s01_0_elephant_00_elephant1-chair1.png
subject-01,1,886,1.50042295455933,bottle,bottle,0,0886_stg_s01_0_bottle_00_bottle1-clock1.png
subject-01,1,887,1.50033497810364,keyboard,keyboard,0,0887_stg_s01_0_keyboard_00_keyboard5-oven2.png
subject-01,1,888,1.50028586387634,bear,bear,0,0888_stg_s01_0_bear_00_bear9-dog1.png
subject-01,1,889,1.45126795768738,bear,elephant,0,0889_stg_s01_0_elephant_00_elephant6-knife2.png
subject-01,1,890,1.48541307449341,cat,knife,0,0890_stg_s01_0_knife_00_knife4-keyboard1.png
subject-01,1,891,1.50028300285339,bicycle,bicycle,0,0891_stg_s01_0_bicycle_00_bicycle6-cat1.png
subject-01,1,892,1.50011396408081,dog,dog,0,0892_stg_s01_0_dog_00_dog9-airplane3.png
subject-01,1,893,1.50016403198242,elephant,elephant,0,0893_stg_s01_0_elephant_00_elephant8-knife2.png
subject-01,1,894,1.50008201599121,car,car,0,0894_stg_s01_0_car_00_car7-airplane2.png
subject-01,1,895,1.50001001358032,bottle,bottle,0,0895_stg_s01_0_bottle_00_bottle7-truck2.png
subject-01,1,896,1.42458701133728,bear,bear,0,0896_stg_s01_0_bear_00_bear2-oven1.png
subject-01,1,897,1.50022578239441,bottle,bottle,0,0897_stg_s01_0_bottle_00_bottle8-bird1.png
subject-01,1,898,1.50007486343384,oven,oven,0,0898_stg_s01_0_oven_00_oven4-keyboard3.png
subject-01,1,899,1.42013788223267,cat,cat,0,0899_stg_s01_0_cat_00_cat3-elephant2.png
subject-01,1,900,1.50032901763916,cat,cat,0,0900_stg_s01_0_cat_00_cat9-chair2.png
subject-01,1,901,1.50033712387085,cat,cat,0,0901_stg_s01_0_cat_00_cat9-knife2.png
subject-01,1,902,1.50023913383484,bird,bird,0,0902_stg_s01_0_bird_00_bird7-bird2.png
subject-01,1,903,1.45805692672729,truck,truck,0,0903_stg_s01_0_truck_00_truck7-bird2.png
subject-01,1,904,1.50031089782715,chair,chair,0,0904_stg_s01_0_chair_00_chair9-boat2.png
subject-01,1,905,1.43477010726929,chair,chair,0,0905_stg_s01_0_chair_00_chair8-knife2.png
subject-01,1,906,1.45530200004578,chair,chair,0,0906_stg_s01_0_chair_00_chair5-boat3.png
subject-01,1,907,1.45121908187866,clock,clock,0,0907_stg_s01_0_clock_00_clock9-airplane1.png
subject-01,1,908,1.50007605552673,chair,airplane,0,0908_stg_s01_0_airplane_00_airplane4-keyboard3.png
subject-01,1,909,1.45103597640991,bottle,bottle,0,0909_stg_s01_0_bottle_00_bottle8-elephant3.png
subject-01,1,910,1.5000159740448,bottle,boat,0,0910_stg_s01_0_boat_00_boat7-oven3.png
subject-01,1,911,1.50012898445129,oven,oven,0,0911_stg_s01_0_oven_00_oven1-clock3.png
subject-01,1,912,1.50031304359436,cat,cat,0,0912_stg_s01_0_cat_00_cat1-airplane1.png
subject-01,1,913,1.50019311904907,truck,truck,0,0913_stg_s01_0_truck_00_truck2-boat3.png
subject-01,1,914,1.50036001205444,dog,dog,0,0914_stg_s01_0_dog_00_dog1-car2.png
subject-01,1,915,1.4494960308075,bicycle,bicycle,0,0915_stg_s01_0_bicycle_00_bicycle7-cat1.png
subject-01,1,916,1.42940092086792,bird,bird,0,0916_stg_s01_0_bird_00_bird5-airplane3.png
subject-01,1,917,1.47090101242065,dog,dog,0,0917_stg_s01_0_dog_00_dog4-truck2.png
subject-01,1,918,1.47608113288879,truck,truck,0,0918_stg_s01_0_truck_00_truck10-airplane1.png
subject-01,1,919,1.50019216537476,bear,bear,0,0919_stg_s01_0_bear_00_bear2-dog1.png
subject-01,1,920,1.50028800964355,oven,oven,0,0920_stg_s01_0_oven_00_oven6-bear2.png
subject-01,1,921,1.50010299682617,bear,bear,0,0921_stg_s01_0_bear_00_bear5-bicycle3.png
subject-01,1,922,1.5003490447998,truck,truck,0,0922_stg_s01_0_truck_00_truck1-bird1.png
subject-01,1,923,1.5003809928894,bottle,bottle,0,0923_stg_s01_0_bottle_00_bottle2-elephant1.png
subject-01,1,924,1.50005602836609,boat,boat,0,0924_stg_s01_0_boat_00_boat10-bear3.png
subject-01,1,925,1.50030207633972,dog,dog,0,0925_stg_s01_0_dog_00_dog4-elephant2.png
subject-01,1,926,1.438392162323,elephant,elephant,0,0926_stg_s01_0_elephant_00_elephant5-car1.png
subject-01,1,927,1.50009799003601,bear,bicycle,0,0927_stg_s01_0_bicycle_00_bicycle4-keyboard3.png
subject-01,1,928,1.5000331401825,oven,oven,0,0928_stg_s01_0_oven_00_oven7-cat1.png
subject-01,1,929,1.50026893615723,boat,boat,0,0929_stg_s01_0_boat_00_boat7-elephant3.png
subject-01,1,930,1.50015211105347,keyboard,keyboard,0,0930_stg_s01_0_keyboard_00_keyboard1-clock1.png
subject-01,1,931,1.50032711029053,keyboard,keyboard,0,0931_stg_s01_0_keyboard_00_keyboard9-bear2.png
subject-01,1,932,1.41104602813721,keyboard,keyboard,0,0932_stg_s01_0_keyboard_00_keyboard8-airplane2.png
subject-01,1,933,1.5000011920929,oven,oven,0,0933_stg_s01_0_oven_00_oven2-car1.png
subject-01,1,934,1.4975848197937,knife,boat,0,0934_stg_s01_0_boat_00_boat4-elephant2.png
subject-01,1,935,1.50005006790161,airplane,airplane,0,0935_stg_s01_0_airplane_00_airplane10-cat2.png
subject-01,1,936,1.41184782981873,airplane,airplane,0,0936_stg_s01_0_airplane_00_airplane7-truck1.png
subject-01,1,937,1.50005102157593,bicycle,bicycle,0,0937_stg_s01_0_bicycle_00_bicycle7-oven1.png
subject-01,1,938,1.50012397766113,bird,bird,0,0938_stg_s01_0_bird_00_bird4-cat3.png
subject-01,1,939,1.50019693374634,bicycle,bicycle,0,0939_stg_s01_0_bicycle_00_bicycle1-airplane2.png
subject-01,1,940,1.50013899803162,knife,knife,0,0940_stg_s01_0_knife_00_knife4-cat2.png
subject-01,1,941,1.5000638961792,bear,bear,0,0941_stg_s01_0_bear_00_bear8-airplane1.png
subject-01,1,942,1.50028896331787,airplane,airplane,0,0942_stg_s01_0_airplane_00_airplane2-bird3.png
subject-01,1,943,1.50007486343384,keyboard,keyboard,0,0943_stg_s01_0_keyboard_00_keyboard2-clock1.png
subject-01,1,944,1.49305605888367,bicycle,bicycle,0,0944_stg_s01_0_bicycle_00_bicycle6-boat2.png
subject-01,1,945,1.46536588668823,chair,chair,0,0945_stg_s01_0_chair_00_chair9-bird3.png
subject-01,1,946,1.50029015541077,clock,clock,0,0946_stg_s01_0_clock_00_clock2-bear2.png
subject-01,1,947,1.42765998840332,oven,oven,0,0947_stg_s01_0_oven_00_oven9-car2.png
subject-01,1,948,1.50036692619324,bicycle,bicycle,0,0948_stg_s01_0_bicycle_00_bicycle9-cat3.png
subject-01,1,949,1.41922807693481,oven,oven,0,0949_stg_s01_0_oven_00_oven2-truck3.png
subject-01,1,950,1.4450581073761,dog,dog,0,0950_stg_s01_0_dog_00_dog3-bear3.png
subject-01,1,951,1.47348594665527,elephant,elephant,0,0951_stg_s01_0_elephant_00_elephant9-chair2.png
subject-01,1,952,1.50013303756714,bottle,bottle,0,0952_stg_s01_0_bottle_00_bottle9-cat2.png
subject-01,1,953,1.50018405914307,elephant,elephant,0,0953_stg_s01_0_elephant_00_elephant7-bear3.png
subject-01,1,954,1.49857592582703,bear,bear,0,0954_stg_s01_0_bear_00_bear1-bird2.png
subject-01,1,955,1.49298501014709,bear,bear,0,0955_stg_s01_0_bear_00_bear4-truck3.png
subject-01,1,956,1.50018286705017,truck,truck,0,0956_stg_s01_0_truck_00_truck4-knife1.png
subject-01,1,957,1.50038290023804,dog,dog,0,0957_stg_s01_0_dog_00_dog7-car2.png
subject-01,1,958,1.49999403953552,chair,chair,0,0958_stg_s01_0_chair_00_chair6-truck2.png
subject-01,1,959,1.43834114074707,cat,oven,0,0959_stg_s01_0_oven_00_oven7-dog2.png
subject-01,1,960,1.50001287460327,keyboard,keyboard,0,0960_stg_s01_0_keyboard_00_keyboard9-bicycle2.png
subject-01,1,961,1.5002110004425,bear,airplane,0,0961_stg_s01_0_airplane_00_airplane3-cat1.png
subject-01,1,962,1.50013494491577,bird,bird,0,0962_stg_s01_0_bird_00_bird8-keyboard2.png
subject-01,1,963,1.49016690254211,oven,boat,0,0963_stg_s01_0_boat_00_boat7-chair1.png
subject-01,1,964,1.50011920928955,airplane,airplane,0,0964_stg_s01_0_airplane_00_airplane1-clock1.png
subject-01,1,965,1.46111583709717,cat,truck,0,0965_stg_s01_0_truck_00_truck7-keyboard3.png
subject-01,1,966,1.50035309791565,bicycle,bicycle,0,0966_stg_s01_0_bicycle_00_bicycle3-bird1.png
subject-01,1,967,1.50021195411682,clock,clock,0,0967_stg_s01_0_clock_00_clock10-truck2.png
subject-01,1,968,1.49922490119934,dog,elephant,0,0968_stg_s01_0_elephant_00_elephant4-bird1.png
subject-01,1,969,1.50015807151794,clock,clock,0,0969_stg_s01_0_clock_00_clock6-truck3.png
subject-01,1,970,1.50001096725464,keyboard,keyboard,0,0970_stg_s01_0_keyboard_00_keyboard5-bear3.png
subject-01,1,971,1.50029397010803,clock,clock,0,0971_stg_s01_0_clock_00_clock4-elephant2.png
subject-01,1,972,1.50020408630371,clock,clock,0,0972_stg_s01_0_clock_00_clock2-knife1.png
subject-01,1,973,1.50028014183044,oven,oven,0,0973_stg_s01_0_oven_00_oven8-keyboard3.png
subject-01,1,974,1.50022220611572,boat,boat,0,0974_stg_s01_0_boat_00_boat9-bird1.png
subject-01,1,975,1.48356008529663,bear,bear,0,0975_stg_s01_0_bear_00_bear7-dog3.png
subject-01,1,976,1.50022506713867,oven,oven,0,0976_stg_s01_0_oven_00_oven10-truck2.png
subject-01,1,977,1.50021696090698,oven,knife,0,0977_stg_s01_0_knife_00_knife6-truck1.png
subject-01,1,978,1.50023102760315,clock,clock,0,0978_stg_s01_0_clock_00_clock6-clock2.png
subject-01,1,979,1.50003504753113,truck,truck,0,0979_stg_s01_0_truck_00_truck6-bicycle1.png
subject-01,1,980,1.50016713142395,dog,elephant,0,0980_stg_s01_0_elephant_00_elephant2-bottle3.png
subject-01,1,981,1.50005292892456,bottle,bottle,0,0981_stg_s01_0_bottle_00_bottle3-cat3.png
subject-01,1,982,1.50012803077698,bear,elephant,0,0982_stg_s01_0_elephant_00_elephant2-bear3.png
subject-01,1,983,1.41351199150085,cat,cat,0,0983_stg_s01_0_cat_00_cat10-clock1.png
subject-01,1,984,1.50039005279541,dog,dog,0,0984_stg_s01_0_dog_00_dog6-truck2.png
subject-01,1,985,1.50028491020203,dog,knife,0,0985_stg_s01_0_knife_00_knife6-bicycle1.png
subject-01,1,986,1.50000596046448,chair,chair,0,0986_stg_s01_0_chair_00_chair7-airplane1.png
subject-01,1,987,1.49850988388062,cat,cat,0,0987_stg_s01_0_cat_00_cat8-car2.png
subject-01,1,988,1.50010108947754,boat,keyboard,0,0988_stg_s01_0_keyboard_00_keyboard3-elephant2.png
subject-01,1,989,1.4770188331604,chair,boat,0,0989_stg_s01_0_boat_00_boat4-bottle2.png
subject-01,1,990,1.50025391578674,keyboard,keyboard,0,0990_stg_s01_0_keyboard_00_keyboard10-truck1.png
subject-01,1,991,1.50009202957153,keyboard,keyboard,0,0991_stg_s01_0_keyboard_00_keyboard6-bicycle1.png
subject-01,1,992,1.43300104141235,oven,airplane,0,0992_stg_s01_0_airplane_00_airplane9-keyboard2.png
subject-01,1,993,1.50019407272339,oven,knife,0,0993_stg_s01_0_knife_00_knife3-keyboard3.png
subject-01,1,994,1.39152407646179,keyboard,keyboard,0,0994_stg_s01_0_keyboard_00_keyboard5-cat1.png
subject-01,1,995,1.50016212463379,bird,bird,0,0995_stg_s01_0_bird_00_bird9-elephant2.png
subject-01,1,996,1.5001962184906,clock,clock,0,0996_stg_s01_0_clock_00_clock4-boat3.png
subject-01,1,997,1.50012111663818,dog,dog,0,0997_stg_s01_0_dog_00_dog4-bicycle1.png
subject-01,1,998,1.43755197525024,clock,clock,0,0998_stg_s01_0_clock_00_clock1-bear1.png
subject-01,1,999,1.40174889564514,oven,airplane,0,0999_stg_s01_0_airplane_00_airplane8-truck3.png
subject-01,1,1000,1.50010418891907,boat,boat,0,1000_stg_s01_0_boat_00_boat6-airplane2.png
subject-01,1,1001,1.47698307037354,knife,knife,0,1001_stg_s01_0_knife_00_knife9-bicycle1.png
subject-01,1,1002,1.50027012825012,clock,clock,0,1002_stg_s01_0_clock_00_clock7-keyboard2.png
subject-01,1,1003,1.49999785423279,knife,knife,0,1003_stg_s01_0_knife_00_knife6-knife1.png
subject-01,1,1004,1.44806909561157,knife,knife,0,1004_stg_s01_0_knife_00_knife1-clock2.png
subject-01,1,1005,1.48997282981873,car,car,0,1005_stg_s01_0_car_00_car8-airplane3.png
subject-01,1,1006,1.50010514259338,clock,knife,0,1006_stg_s01_0_knife_00_knife10-elephant3.png
subject-01,1,1007,1.50045108795166,truck,truck,0,1007_stg_s01_0_truck_00_truck10-elephant3.png
subject-01,1,1008,1.48413491249084,oven,oven,0,1008_stg_s01_0_oven_00_oven3-knife1.png
subject-01,1,1009,1.46586298942566,clock,clock,0,1009_stg_s01_0_clock_00_clock2-elephant2.png
subject-01,1,1010,1.4698269367218,keyboard,keyboard,0,1010_stg_s01_0_keyboard_00_keyboard8-truck3.png
subject-01,1,1011,1.48775601387024,elephant,elephant,0,1011_stg_s01_0_elephant_00_elephant8-oven3.png
subject-01,1,1012,1.50013518333435,dog,dog,0,1012_stg_s01_0_dog_00_dog2-bicycle2.png
subject-01,1,1013,1.50006103515625,boat,boat,0,1013_stg_s01_0_boat_00_boat3-cat3.png
subject-01,1,1014,1.42592096328735,knife,knife,0,1014_stg_s01_0_knife_00_knife6-boat3.png
subject-01,1,1015,1.18393802642822,car,truck,0,1015_stg_s01_0_truck_00_truck9-airplane2.png
subject-01,1,1016,1.50032782554626,chair,chair,0,1016_stg_s01_0_chair_00_chair2-bear2.png
subject-01,1,1017,1.45775890350342,car,car,0,1017_stg_s01_0_car_00_car7-bear1.png
subject-01,1,1018,1.50036787986755,cat,cat,0,1018_stg_s01_0_cat_00_cat1-keyboard3.png
subject-01,1,1019,1.50019502639771,oven,oven,0,1019_stg_s01_0_oven_00_oven9-chair1.png
subject-01,1,1020,1.50014019012451,clock,clock,0,1020_stg_s01_0_clock_00_clock3-bird1.png
subject-01,1,1021,1.50008797645569,truck,truck,0,1021_stg_s01_0_truck_00_truck2-bottle3.png
subject-01,1,1022,1.50005102157593,bear,bear,0,1022_stg_s01_0_bear_00_bear9-boat2.png
subject-01,1,1023,1.41692495346069,clock,clock,0,1023_stg_s01_0_clock_00_clock7-cat2.png
subject-01,1,1024,1.43658399581909,cat,cat,0,1024_stg_s01_0_cat_00_cat8-bicycle3.png
subject-01,1,1025,1.49654793739319,cat,dog,0,1025_stg_s01_0_dog_00_dog9-boat1.png
subject-01,1,1026,1.50014495849609,dog,dog,0,1026_stg_s01_0_dog_00_dog5-car3.png
subject-01,1,1027,1.45983910560608,knife,knife,0,1027_stg_s01_0_knife_00_knife3-cat1.png
subject-01,1,1028,1.50026488304138,car,car,0,1028_stg_s01_0_car_00_car3-elephant3.png
subject-01,1,1029,1.42763495445251,keyboard,keyboard,0,1029_stg_s01_0_keyboard_00_keyboard1-dog3.png
subject-01,1,1030,1.44572806358337,dog,dog,0,1030_stg_s01_0_dog_00_dog6-clock1.png
subject-01,1,1031,1.5004141330719,truck,truck,0,1031_stg_s01_0_truck_00_truck8-keyboard2.png
subject-01,1,1032,1.50034689903259,cat,elephant,0,1032_stg_s01_0_elephant_00_elephant1-dog2.png
subject-01,1,1033,1.44685196876526,boat,boat,0,1033_stg_s01_0_boat_00_boat3-chair3.png
subject-01,1,1034,1.500333070755,oven,oven,0,1034_stg_s01_0_oven_00_oven2-bear3.png
subject-01,1,1035,1.50027585029602,boat,boat,0,1035_stg_s01_0_boat_00_boat9-cat3.png
subject-01,1,1036,1.50021505355835,truck,truck,0,1036_stg_s01_0_truck_00_truck1-clock3.png
subject-01,1,1037,1.44780921936035,truck,truck,0,1037_stg_s01_0_truck_00_truck3-bird2.png
subject-01,1,1038,1.50003600120544,dog,dog,0,1038_stg_s01_0_dog_00_dog1-knife3.png
subject-01,1,1039,1.50046181678772,dog,bear,0,1039_stg_s01_0_bear_00_bear6-cat3.png
subject-01,1,1040,1.45727205276489,cat,cat,0,1040_stg_s01_0_cat_00_cat4-airplane1.png
subject-01,1,1041,1.50022101402283,bicycle,bicycle,0,1041_stg_s01_0_bicycle_00_bicycle8-truck1.png
subject-01,1,1042,1.48810505867004,truck,truck,0,1042_stg_s01_0_truck_00_truck6-oven3.png
subject-01,1,1043,1.50028300285339,knife,knife,0,1043_stg_s01_0_knife_00_knife8-cat2.png
subject-01,1,1044,1.50026988983154,boat,boat,0,1044_stg_s01_0_boat_00_boat9-boat3.png
subject-01,1,1045,1.50024795532227,oven,oven,0,1045_stg_s01_0_oven_00_oven2-dog3.png
subject-01,1,1046,1.5002601146698,bird,bird,0,1046_stg_s01_0_bird_00_bird5-dog2.png
subject-01,1,1047,1.50004982948303,oven,oven,0,1047_stg_s01_0_oven_00_oven6-oven3.png
subject-01,1,1048,1.48487305641174,bicycle,bicycle,0,1048_stg_s01_0_bicycle_00_bicycle9-airplane2.png
subject-01,1,1049,1.50024104118347,bottle,bottle,0,1049_stg_s01_0_bottle_00_bottle3-bear2.png
subject-01,1,1050,1.44679093360901,bear,bear,0,1050_stg_s01_0_bear_00_bear5-oven3.png
subject-01,1,1051,1.50001907348633,chair,chair,0,1051_stg_s01_0_chair_00_chair9-bicycle3.png
subject-01,1,1052,1.46913719177246,knife,airplane,0,1052_stg_s01_0_airplane_00_airplane9-knife3.png
subject-01,1,1053,1.50025105476379,keyboard,keyboard,0,1053_stg_s01_0_keyboard_00_keyboard4-keyboard2.png
subject-01,1,1054,1.50018191337585,chair,chair,0,1054_stg_s01_0_chair_00_chair10-car2.png
subject-01,1,1055,1.48611998558044,bicycle,bicycle,0,1055_stg_s01_0_bicycle_00_bicycle4-bottle1.png
subject-01,1,1056,1.46648693084717,bottle,bottle,0,1056_stg_s01_0_bottle_00_bottle4-bicycle1.png
subject-01,1,1057,1.50028395652771,car,car,0,1057_stg_s01_0_car_00_car5-truck3.png
subject-01,1,1058,1.50002598762512,oven,oven,0,1058_stg_s01_0_oven_00_oven2-chair1.png
subject-01,1,1059,1.50027298927307,chair,chair,0,1059_stg_s01_0_chair_00_chair10-bottle3.png
subject-01,1,1060,1.50019288063049,chair,chair,0,1060_stg_s01_0_chair_00_chair5-cat3.png
subject-01,1,1061,1.50014996528625,cat,bear,0,1061_stg_s01_0_bear_00_bear10-clock1.png
subject-01,1,1062,1.50029110908508,dog,bird,0,1062_stg_s01_0_bird_00_bird1-keyboard3.png
subject-01,1,1063,1.50010800361633,oven,boat,0,1063_stg_s01_0_boat_00_boat7-clock3.png
subject-01,1,1064,1.50043296813965,bottle,bottle,0,1064_stg_s01_0_bottle_00_bottle1-cat3.png
subject-01,1,1065,1.50000286102295,boat,boat,0,1065_stg_s01_0_boat_00_boat6-bear1.png
subject-01,1,1066,1.50037097930908,boat,boat,0,1066_stg_s01_0_boat_00_boat9-keyboard2.png
subject-01,1,1067,1.44071388244629,boat,boat,0,1067_stg_s01_0_boat_00_boat5-bicycle3.png
subject-01,1,1068,1.50033688545227,elephant,elephant,0,1068_stg_s01_0_elephant_00_elephant8-airplane3.png
subject-01,1,1069,1.45608687400818,knife,knife,0,1069_stg_s01_0_knife_00_knife5-oven2.png
subject-01,1,1070,1.50001907348633,dog,dog,0,1070_stg_s01_0_dog_00_dog2-cat1.png
subject-01,1,1071,1.50007319450378,bicycle,bicycle,0,1071_stg_s01_0_bicycle_00_bicycle8-bear2.png
subject-01,1,1072,1.46595692634583,airplane,airplane,0,1072_stg_s01_0_airplane_00_airplane7-bottle3.png
subject-01,1,1073,1.49999809265137,bear,bear,0,1073_stg_s01_0_bear_00_bear3-cat1.png
subject-01,1,1074,1.50021481513977,boat,boat,0,1074_stg_s01_0_boat_00_boat2-airplane1.png
subject-01,1,1075,1.46853303909302,boat,boat,0,1075_stg_s01_0_boat_00_boat1-bird3.png
subject-01,1,1076,1.50020718574524,knife,knife,0,1076_stg_s01_0_knife_00_knife10-knife1.png
subject-01,1,1077,1.28534293174744,boat,boat,0,1077_stg_s01_0_boat_00_boat10-oven1.png
subject-01,1,1078,1.50017213821411,elephant,elephant,0,1078_stg_s01_0_elephant_00_elephant7-clock2.png
subject-01,1,1079,1.50006103515625,chair,chair,0,1079_stg_s01_0_chair_00_chair3-airplane2.png
subject-01,1,1080,1.50028991699219,boat,knife,0,1080_stg_s01_0_knife_00_knife2-car3.png
subject-01,1,1081,1.44388318061829,clock,clock,0,1081_stg_s01_0_clock_00_clock1-truck3.png
subject-01,1,1082,1.50040984153748,dog,bear,0,1082_stg_s01_0_bear_00_bear6-car2.png
subject-01,1,1083,1.50031805038452,bird,bird,0,1083_stg_s01_0_bird_00_bird6-car3.png
subject-01,1,1084,1.48877501487732,cat,cat,0,1084_stg_s01_0_cat_00_cat7-truck2.png
subject-01,1,1085,1.50039386749268,car,car,0,1085_stg_s01_0_car_00_car9-clock2.png
subject-01,1,1086,1.50014305114746,keyboard,keyboard,0,1086_stg_s01_0_keyboard_00_keyboard6-boat2.png
subject-01,1,1087,1.50027680397034,clock,clock,0,1087_stg_s01_0_clock_00_clock8-knife1.png
subject-01,1,1088,1.47282195091248,boat,boat,0,1088_stg_s01_0_boat_00_boat8-elephant1.png
subject-01,1,1089,1.5000901222229,chair,chair,0,1089_stg_s01_0_chair_00_chair10-dog1.png
subject-01,1,1090,1.50000786781311,oven,oven,0,1090_stg_s01_0_oven_00_oven5-bottle3.png
subject-01,1,1091,1.50019097328186,truck,truck,0,1091_stg_s01_0_truck_00_truck1-dog1.png
subject-01,1,1092,1.50005292892456,truck,truck,0,1092_stg_s01_0_truck_00_truck6-bottle3.png
subject-01,1,1093,1.50037503242493,cat,cat,0,1093_stg_s01_0_cat_00_cat9-boat2.png
subject-01,1,1094,1.48649191856384,clock,clock,0,1094_stg_s01_0_clock_00_clock6-bicycle1.png
subject-01,1,1095,1.50035715103149,bear,bear,0,1095_stg_s01_0_bear_00_bear3-chair2.png
subject-01,1,1096,1.50015020370483,cat,cat,0,1096_stg_s01_0_cat_00_cat4-bird2.png
subject-01,1,1097,1.50009298324585,airplane,airplane,0,1097_stg_s01_0_airplane_00_airplane6-bottle2.png
subject-01,1,1098,1.50017905235291,bottle,bird,0,1098_stg_s01_0_bird_00_bird7-car2.png
subject-01,1,1099,1.50028419494629,bottle,bottle,0,1099_stg_s01_0_bottle_00_bottle4-dog2.png
subject-01,1,1100,1.50021195411682,airplane,airplane,0,1100_stg_s01_0_airplane_00_airplane5-chair3.png
subject-01,1,1101,1.45348405838013,oven,oven,0,1101_stg_s01_0_oven_00_oven2-bicycle1.png
subject-01,1,1102,1.49784398078918,airplane,airplane,0,1102_stg_s01_0_airplane_00_airplane3-oven1.png
subject-01,1,1103,1.50026202201843,dog,dog,0,1103_stg_s01_0_dog_00_dog5-bear3.png
subject-01,1,1104,1.50013279914856,knife,knife,0,1104_stg_s01_0_knife_00_knife7-bird3.png
