subj,session,trial,rt,object_response,category,condition,imagename
subject-04,1,1,0.593658924102783,cat,cat,0,0001_stg_s04_0_cat_00_cat2-cat1.png
subject-04,1,2,0.730279922485352,bottle,bottle,0,0002_stg_s04_0_bottle_00_bottle9-bottle1.png
subject-04,1,3,1.00534701347351,chair,truck,0,0003_stg_s04_0_truck_00_truck5-airplane2.png
subject-04,1,4,0.711403131484985,oven,truck,0,0004_stg_s04_0_truck_00_truck7-oven2.png
subject-04,1,5,0.601846218109131,clock,clock,0,0005_stg_s04_0_clock_00_clock10-truck2.png
subject-04,1,6,1.02419304847717,elephant,car,0,0006_stg_s04_0_car_00_car8-bicycle2.png
subject-04,1,7,1.29826092720032,knife,knife,0,0007_stg_s04_0_knife_00_knife4-airplane3.png
subject-04,1,8,0.936174154281616,elephant,knife,0,0008_stg_s04_0_knife_00_knife1-elephant1.png
subject-04,1,9,0.67922306060791,cat,clock,0,0009_stg_s04_0_clock_00_clock10-dog3.png
subject-04,1,10,0.96149206161499,chair,bicycle,0,0010_stg_s04_0_bicycle_00_bicycle1-airplane2.png
subject-04,1,11,1.03286600112915,chair,chair,0,0011_stg_s04_0_chair_00_chair5-oven2.png
subject-04,1,12,0.922729015350342,bottle,bottle,0,0012_stg_s04_0_bottle_00_bottle6-knife3.png
subject-04,1,13,0.79025411605835,keyboard,keyboard,0,0013_stg_s04_0_keyboard_00_keyboard7-bear2.png
subject-04,1,14,0.963517904281616,elephant,dog,0,0014_stg_s04_0_dog_00_dog2-airplane2.png
subject-04,1,15,0.939265012741089,clock,chair,0,0015_stg_s04_0_chair_00_chair2-keyboard2.png
subject-04,1,16,0.891996145248413,keyboard,bottle,0,0016_stg_s04_0_bottle_00_bottle6-airplane1.png
subject-04,1,17,0.681462049484253,clock,boat,0,0017_stg_s04_0_boat_00_boat3-clock3.png
subject-04,1,18,0.816973924636841,airplane,bear,0,0018_stg_s04_0_bear_00_bear1-clock2.png
subject-04,1,19,0.776286125183105,oven,dog,0,0019_stg_s04_0_dog_00_dog7-car2.png
subject-04,1,20,0.928206920623779,chair,cat,0,0020_stg_s04_0_cat_00_cat7-knife2.png
subject-04,1,21,0.88823390007019,airplane,elephant,0,0021_stg_s04_0_elephant_00_elephant1-airplane2.png
subject-04,1,22,0.656468868255615,cat,car,0,0022_stg_s04_0_car_00_car3-bottle3.png
subject-04,1,23,0.716611862182617,oven,bottle,0,0023_stg_s04_0_bottle_00_bottle7-airplane3.png
subject-04,1,24,0.80613899230957,airplane,truck,0,0024_stg_s04_0_truck_00_truck9-airplane2.png
subject-04,1,25,1.06391906738281,clock,chair,0,0025_stg_s04_0_chair_00_chair8-airplane1.png
subject-04,1,26,0.671558856964111,boat,chair,0,0026_stg_s04_0_chair_00_chair3-airplane2.png
subject-04,1,27,0.869290828704834,bottle,bird,0,0027_stg_s04_0_bird_00_bird8-bottle1.png
subject-04,1,28,NaN,na,boat,0,0028_stg_s04_0_boat_00_boat9-dog2.png
subject-04,1,29,1.24542093276978,airplane,airplane,0,0029_stg_s04_0_airplane_00_airplane7-bottle3.png
subject-04,1,30,0.806007146835327,boat,bird,0,0030_stg_s04_0_bird_00_bird7-bird2.png
subject-04,1,31,0.681546926498413,clock,knife,0,0031_stg_s04_0_knife_00_knife9-bicycle1.png
subject-04,1,32,0.817286968231201,keyboard,cat,0,0032_stg_s04_0_cat_00_cat2-car3.png
subject-04,1,33,1.17415189743042,cat,boat,0,0033_stg_s04_0_boat_00_boat9-bear3.png
subject-04,1,34,0.834008932113647,boat,car,0,0034_stg_s04_0_car_00_car6-knife1.png
subject-04,1,35,0.709419012069702,bicycle,bicycle,0,0035_stg_s04_0_bicycle_00_bicycle2-car2.png
subject-04,1,36,0.906917095184326,bottle,bicycle,0,0036_stg_s04_0_bicycle_00_bicycle9-bottle1.png
subject-04,1,37,1.01939988136292,clock,bird,0,0037_stg_s04_0_bird_00_bird8-clock1.png
subject-04,1,38,1.17921996116638,oven,knife,0,0038_stg_s04_0_knife_00_knife6-chair3.png
subject-04,1,39,1.23901510238647,clock,keyboard,0,0039_stg_s04_0_keyboard_00_keyboard4-keyboard2.png
subject-04,1,40,0.784853935241699,airplane,car,0,0040_stg_s04_0_car_00_car8-chair1.png
subject-04,1,41,1.08068490028381,knife,knife,0,0041_stg_s04_0_knife_00_knife1-car3.png
subject-04,1,42,0.972537040710449,knife,bicycle,0,0042_stg_s04_0_bicycle_00_bicycle1-truck1.png
subject-04,1,43,0.787358999252319,clock,truck,0,0043_stg_s04_0_truck_00_truck2-clock1.png
subject-04,1,44,1.02273607254028,cat,car,0,0044_stg_s04_0_car_00_car7-airplane2.png
subject-04,1,45,0.9963059425354,oven,bicycle,0,0045_stg_s04_0_bicycle_00_bicycle3-bird1.png
subject-04,1,46,1.16393780708313,keyboard,knife,0,0046_stg_s04_0_knife_00_knife5-truck3.png
subject-04,1,47,0.908437967300415,bicycle,dog,0,0047_stg_s04_0_dog_00_dog1-chair1.png
subject-04,1,48,NaN,na,keyboard,0,0048_stg_s04_0_keyboard_00_keyboard4-cat2.png
subject-04,1,49,0.873836994171143,cat,bird,0,0049_stg_s04_0_bird_00_bird10-elephant2.png
subject-04,1,50,0.986106872558594,oven,bottle,0,0050_stg_s04_0_bottle_00_bottle8-bird1.png
subject-04,1,51,0.570003986358643,keyboard,knife,0,0051_stg_s04_0_knife_00_knife4-clock3.png
subject-04,1,52,0.513357877731323,boat,bird,0,0052_stg_s04_0_bird_00_bird4-airplane1.png
subject-04,1,53,0.978682994842529,chair,bicycle,0,0053_stg_s04_0_bicycle_00_bicycle10-elephant2.png
subject-04,1,54,1.06105184555054,bicycle,bicycle,0,0054_stg_s04_0_bicycle_00_bicycle4-oven3.png
subject-04,1,55,1.06755805015564,boat,boat,0,0055_stg_s04_0_boat_00_boat6-clock2.png
subject-04,1,56,0.805399894714355,clock,bird,0,0056_stg_s04_0_bird_00_bird10-clock1.png
subject-04,1,57,0.80440616607666,oven,knife,0,0057_stg_s04_0_knife_00_knife4-oven2.png
subject-04,1,58,0.85680103302002,bird,bird,0,0058_stg_s04_0_bird_00_bird8-elephant1.png
subject-04,1,59,0.895411968231201,car,bottle,0,0059_stg_s04_0_bottle_00_bottle6-chair2.png
subject-04,1,60,0.993433952331543,bottle,bear,0,0060_stg_s04_0_bear_00_bear10-bottle1.png
subject-04,1,61,0.891382932662964,oven,chair,0,0061_stg_s04_0_chair_00_chair10-oven1.png
subject-04,1,62,0.613059043884277,cat,keyboard,0,0062_stg_s04_0_keyboard_00_keyboard1-dog3.png
subject-04,1,63,0.8732750415802,chair,airplane,0,0063_stg_s04_0_airplane_00_airplane5-knife1.png
subject-04,1,64,0.85529899597168,oven,oven,0,0064_stg_s04_0_oven_00_oven3-boat3.png
subject-04,1,65,1.36686110496521,airplane,bird,0,0065_stg_s04_0_bird_00_bird6-oven1.png
subject-04,1,66,1.00144600868225,elephant,elephant,0,0066_stg_s04_0_elephant_00_elephant10-elephant1.png
subject-04,1,67,1.062166929245,oven,elephant,0,0067_stg_s04_0_elephant_00_elephant5-chair3.png
subject-04,1,68,0.86028003692627,bottle,boat,0,0068_stg_s04_0_boat_00_boat6-car1.png
subject-04,1,69,0.866249084472656,airplane,elephant,0,0069_stg_s04_0_elephant_00_elephant5-truck1.png
subject-04,1,70,0.909175872802734,boat,keyboard,0,0070_stg_s04_0_keyboard_00_keyboard4-truck3.png
subject-04,1,71,0.982424020767212,dog,dog,0,0071_stg_s04_0_dog_00_dog2-dog3.png
subject-04,1,72,1.21897101402283,boat,bear,0,0072_stg_s04_0_bear_00_bear2-car2.png
subject-04,1,73,1.07856822013855,truck,boat,0,0073_stg_s04_0_boat_00_boat2-bottle2.png
subject-04,1,74,0.885003089904785,oven,bear,0,0074_stg_s04_0_bear_00_bear4-cat3.png
subject-04,1,75,0.690775156021118,cat,airplane,0,0075_stg_s04_0_airplane_00_airplane5-boat3.png
subject-04,1,76,1.50035500526428,clock,knife,0,0076_stg_s04_0_knife_00_knife1-airplane1.png
subject-04,1,77,0.709794044494629,clock,clock,0,0077_stg_s04_0_clock_00_clock4-airplane1.png
subject-04,1,78,1.25231909751892,bear,bear,0,0078_stg_s04_0_bear_00_bear4-oven2.png
subject-04,1,79,0.782287836074829,airplane,truck,0,0079_stg_s04_0_truck_00_truck3-chair2.png
subject-04,1,80,0.695482015609741,bottle,bottle,0,0080_stg_s04_0_bottle_00_bottle6-bear2.png
subject-04,1,81,1.36235594749451,chair,keyboard,0,0081_stg_s04_0_keyboard_00_keyboard10-car1.png
subject-04,1,82,1.20016312599182,oven,car,0,0082_stg_s04_0_car_00_car3-oven3.png
subject-04,1,83,1.12775802612305,boat,dog,0,0083_stg_s04_0_dog_00_dog9-airplane3.png
subject-04,1,84,0.933583974838257,elephant,boat,0,0084_stg_s04_0_boat_00_boat2-bird1.png
subject-04,1,85,0.818923950195312,bird,chair,0,0085_stg_s04_0_chair_00_chair4-truck2.png
subject-04,1,86,0.970822095870972,bird,bottle,0,0086_stg_s04_0_bottle_00_bottle8-bottle3.png
subject-04,1,87,0.762409210205078,clock,keyboard,0,0087_stg_s04_0_keyboard_00_keyboard1-bird2.png
subject-04,1,88,0.768446207046509,oven,bird,0,0088_stg_s04_0_bird_00_bird1-oven1.png
subject-04,1,89,0.93569016456604,bottle,keyboard,0,0089_stg_s04_0_keyboard_00_keyboard7-bottle1.png
subject-04,1,90,0.710653066635132,bicycle,bicycle,0,0090_stg_s04_0_bicycle_00_bicycle1-oven1.png
subject-04,1,91,0.778847932815552,car,car,0,0091_stg_s04_0_car_00_car9-knife1.png
subject-04,1,92,0.800739049911499,boat,truck,0,0092_stg_s04_0_truck_00_truck1-car3.png
subject-04,1,93,1.18755698204041,car,airplane,0,0093_stg_s04_0_airplane_00_airplane7-airplane3.png
subject-04,1,94,0.625285148620605,oven,bird,0,0094_stg_s04_0_bird_00_bird5-bicycle1.png
subject-04,1,95,0.693057060241699,keyboard,bird,0,0095_stg_s04_0_bird_00_bird3-bird2.png
subject-04,1,96,0.79941987991333,chair,truck,0,0096_stg_s04_0_truck_00_truck6-boat2.png
subject-04,1,97,1.39510703086853,bird,bottle,0,0097_stg_s04_0_bottle_00_bottle9-truck1.png
subject-04,1,98,1.01658797264099,bird,dog,0,0098_stg_s04_0_dog_00_dog4-bottle2.png
subject-04,1,99,0.922172069549561,elephant,airplane,0,0099_stg_s04_0_airplane_00_airplane1-elephant1.png
subject-04,1,100,1.50004410743713,oven,clock,0,0100_stg_s04_0_clock_00_clock10-knife3.png
subject-04,1,101,1.42637801170349,keyboard,oven,0,0101_stg_s04_0_oven_00_oven4-bottle2.png
subject-04,1,102,0.67801308631897,clock,clock,0,0102_stg_s04_0_clock_00_clock6-chair3.png
subject-04,1,103,1.09785079956055,boat,truck,0,0103_stg_s04_0_truck_00_truck2-bird2.png
subject-04,1,104,1.41997909545898,dog,cat,0,0104_stg_s04_0_cat_00_cat8-bear1.png
subject-04,1,105,0.947678089141846,cat,chair,0,0105_stg_s04_0_chair_00_chair8-bicycle3.png
subject-04,1,106,1.10542011260986,dog,dog,0,0106_stg_s04_0_dog_00_dog7-bird3.png
subject-04,1,107,1.34902906417847,elephant,boat,0,0107_stg_s04_0_boat_00_boat1-keyboard3.png
subject-04,1,108,0.717367172241211,car,car,0,0108_stg_s04_0_car_00_car6-boat1.png
subject-04,1,109,1.13145184516907,elephant,knife,0,0109_stg_s04_0_knife_00_knife10-keyboard3.png
subject-04,1,110,0.913709163665771,cat,bird,0,0110_stg_s04_0_bird_00_bird6-car3.png
subject-04,1,111,0.95722508430481,bird,boat,0,0111_stg_s04_0_boat_00_boat5-knife2.png
subject-04,1,112,0.855117082595825,cat,bear,0,0112_stg_s04_0_bear_00_bear1-bicycle3.png
subject-04,1,113,0.69069504737854,oven,boat,0,0113_stg_s04_0_boat_00_boat8-truck2.png
subject-04,1,114,1.42696690559387,cat,car,0,0114_stg_s04_0_car_00_car6-bear1.png
subject-04,1,115,0.86441707611084,bird,bear,0,0115_stg_s04_0_bear_00_bear6-car2.png
subject-04,1,116,0.762560844421387,cat,knife,0,0116_stg_s04_0_knife_00_knife5-cat2.png
subject-04,1,117,0.927923917770386,bottle,clock,0,0117_stg_s04_0_clock_00_clock6-bicycle1.png
subject-04,1,118,1.10130000114441,bottle,keyboard,0,0118_stg_s04_0_keyboard_00_keyboard10-boat2.png
subject-04,1,119,0.784619092941284,keyboard,airplane,0,0119_stg_s04_0_airplane_00_airplane4-knife1.png
subject-04,1,120,0.704287052154541,cat,bottle,0,0120_stg_s04_0_bottle_00_bottle7-cat2.png
subject-04,1,121,1.05711102485657,bird,bird,0,0121_stg_s04_0_bird_00_bird10-bicycle1.png
subject-04,1,122,0.770598173141479,boat,bottle,0,0122_stg_s04_0_bottle_00_bottle3-airplane2.png
subject-04,1,123,0.684701204299927,cat,elephant,0,0123_stg_s04_0_elephant_00_elephant8-cat1.png
subject-04,1,124,0.945765018463135,bottle,car,0,0124_stg_s04_0_car_00_car6-bottle1.png
subject-04,1,125,1.05202317237854,cat,car,0,0125_stg_s04_0_car_00_car7-elephant3.png
subject-04,1,126,1.29548597335815,dog,cat,0,0126_stg_s04_0_cat_00_cat5-elephant2.png
subject-04,1,127,0.777276992797852,oven,oven,0,0127_stg_s04_0_oven_00_oven10-oven3.png
subject-04,1,128,0.891259908676147,keyboard,elephant,0,0128_stg_s04_0_elephant_00_elephant6-truck3.png
subject-04,1,129,0.65920090675354,clock,keyboard,0,0129_stg_s04_0_keyboard_00_keyboard2-clock1.png
subject-04,1,130,1.0721640586853,truck,truck,0,0130_stg_s04_0_truck_00_truck10-clock1.png
subject-04,1,131,0.99376106262207,bird,bird,0,0131_stg_s04_0_bird_00_bird3-truck3.png
subject-04,1,132,0.744733810424805,cat,bear,0,0132_stg_s04_0_bear_00_bear6-bear1.png
subject-04,1,133,0.948356151580811,dog,dog,0,0133_stg_s04_0_dog_00_dog1-bear1.png
subject-04,1,134,1.0456280708313,bird,airplane,0,0134_stg_s04_0_airplane_00_airplane6-keyboard3.png
subject-04,1,135,0.884420871734619,car,car,0,0135_stg_s04_0_car_00_car10-car1.png
subject-04,1,136,1.12042999267578,bottle,bottle,0,0136_stg_s04_0_bottle_00_bottle3-boat3.png
subject-04,1,137,0.742486953735352,clock,clock,0,0137_stg_s04_0_clock_00_clock2-clock3.png
subject-04,1,138,0.792495965957642,bicycle,boat,0,0138_stg_s04_0_boat_00_boat2-keyboard1.png
subject-04,1,139,0.737981081008911,cat,elephant,0,0139_stg_s04_0_elephant_00_elephant5-car1.png
subject-04,1,140,1.10454916954041,airplane,truck,0,0140_stg_s04_0_truck_00_truck2-chair1.png
subject-04,1,141,0.748941898345947,bottle,boat,0,0141_stg_s04_0_boat_00_boat8-bottle1.png
subject-04,1,142,0.649281978607178,boat,boat,0,0142_stg_s04_0_boat_00_boat6-airplane2.png
subject-04,1,143,0.722600936889648,bottle,oven,0,0143_stg_s04_0_oven_00_oven2-bottle1.png
subject-04,1,144,1.24208211898804,cat,boat,0,0144_stg_s04_0_boat_00_boat3-dog3.png
subject-04,1,145,0.640227794647217,cat,cat,0,0145_stg_s04_0_cat_00_cat7-clock3.png
subject-04,1,146,0.821393966674805,elephant,keyboard,0,0146_stg_s04_0_keyboard_00_keyboard2-elephant1.png
subject-04,1,147,0.903215169906616,bottle,cat,0,0147_stg_s04_0_cat_00_cat9-bottle2.png
subject-04,1,148,0.763453006744385,clock,clock,0,0148_stg_s04_0_clock_00_clock8-oven3.png
subject-04,1,149,1.00752210617065,cat,truck,0,0149_stg_s04_0_truck_00_truck1-cat1.png
subject-04,1,150,0.600061178207397,oven,bear,0,0150_stg_s04_0_bear_00_bear10-clock1.png
subject-04,1,151,0.635215044021606,cat,oven,0,0151_stg_s04_0_oven_00_oven10-cat2.png
subject-04,1,152,0.83257007598877,dog,bottle,0,0152_stg_s04_0_bottle_00_bottle6-dog3.png
subject-04,1,153,0.936506986618042,dog,truck,0,0153_stg_s04_0_truck_00_truck6-bear2.png
subject-04,1,154,0.935065984725952,bird,bicycle,0,0154_stg_s04_0_bicycle_00_bicycle6-bicycle3.png
subject-04,1,155,0.648921966552734,clock,boat,0,0155_stg_s04_0_boat_00_boat9-clock1.png
subject-04,1,156,0.871226072311401,bear,boat,0,0156_stg_s04_0_boat_00_boat7-truck2.png
subject-04,1,157,0.969430208206177,bear,chair,0,0157_stg_s04_0_chair_00_chair6-elephant2.png
subject-04,1,158,1.01428413391113,cat,boat,0,0158_stg_s04_0_boat_00_boat7-cat3.png
subject-04,1,159,0.673671960830688,cat,oven,0,0159_stg_s04_0_oven_00_oven8-cat3.png
subject-04,1,160,0.730908870697021,clock,keyboard,0,0160_stg_s04_0_keyboard_00_keyboard6-boat2.png
subject-04,1,161,0.699252843856812,cat,bottle,0,0161_stg_s04_0_bottle_00_bottle4-dog2.png
subject-04,1,162,1.21090912818909,oven,knife,0,0162_stg_s04_0_knife_00_knife4-boat1.png
subject-04,1,163,1.00860500335693,airplane,bear,0,0163_stg_s04_0_bear_00_bear10-car2.png
subject-04,1,164,1.12232089042664,oven,oven,0,0164_stg_s04_0_oven_00_oven9-bird3.png
subject-04,1,165,0.982429027557373,bird,dog,0,0165_stg_s04_0_dog_00_dog5-truck2.png
subject-04,1,166,0.940443992614746,boat,knife,0,0166_stg_s04_0_knife_00_knife7-chair2.png
subject-04,1,167,0.938860893249512,keyboard,boat,0,0167_stg_s04_0_boat_00_boat5-bicycle3.png
subject-04,1,168,0.874467134475708,oven,car,0,0168_stg_s04_0_car_00_car2-knife3.png
subject-04,1,169,1.01834607124329,cat,dog,0,0169_stg_s04_0_dog_00_dog9-bear3.png
subject-04,1,170,0.878355026245117,car,truck,0,0170_stg_s04_0_truck_00_truck7-truck2.png
subject-04,1,171,0.737787008285522,bottle,bottle,0,0171_stg_s04_0_bottle_00_bottle2-bottle3.png
subject-04,1,172,0.974151849746704,bottle,car,0,0172_stg_s04_0_car_00_car8-truck3.png
subject-04,1,173,0.839511871337891,boat,dog,0,0173_stg_s04_0_dog_00_dog3-knife3.png
subject-04,1,174,1.00515198707581,bicycle,truck,0,0174_stg_s04_0_truck_00_truck9-elephant1.png
subject-04,1,175,0.941487789154053,cat,dog,0,0175_stg_s04_0_dog_00_dog3-bear3.png
subject-04,1,176,0.817126989364624,cat,airplane,0,0176_stg_s04_0_airplane_00_airplane8-elephant3.png
subject-04,1,177,0.982579946517944,oven,car,0,0177_stg_s04_0_car_00_car3-truck1.png
subject-04,1,178,0.610379934310913,cat,elephant,0,0178_stg_s04_0_elephant_00_elephant7-dog1.png
subject-04,1,179,0.791830062866211,bird,airplane,0,0179_stg_s04_0_airplane_00_airplane10-oven2.png
subject-04,1,180,0.705732107162476,cat,bear,0,0180_stg_s04_0_bear_00_bear8-dog1.png
subject-04,1,181,0.679875135421753,dog,knife,0,0181_stg_s04_0_knife_00_knife2-dog1.png
subject-04,1,182,0.745885848999023,bear,dog,0,0182_stg_s04_0_dog_00_dog10-keyboard2.png
subject-04,1,183,1.16044187545776,elephant,elephant,0,0183_stg_s04_0_elephant_00_elephant2-elephant3.png
subject-04,1,184,0.882354974746704,oven,chair,0,0184_stg_s04_0_chair_00_chair7-knife2.png
subject-04,1,185,0.626019954681396,cat,boat,0,0185_stg_s04_0_boat_00_boat10-cat1.png
subject-04,1,186,1.42197895050049,oven,boat,0,0186_stg_s04_0_boat_00_boat2-oven3.png
subject-04,1,187,0.559063911437988,boat,bird,0,0187_stg_s04_0_bird_00_bird3-boat3.png
subject-04,1,188,1.10049200057983,keyboard,keyboard,0,0188_stg_s04_0_keyboard_00_keyboard8-cat3.png
subject-04,1,189,0.982178211212158,elephant,airplane,0,0189_stg_s04_0_airplane_00_airplane4-elephant1.png
subject-04,1,190,0.758630990982056,bear,elephant,0,0190_stg_s04_0_elephant_00_elephant10-keyboard1.png
subject-04,1,191,0.940330982208252,bicycle,airplane,0,0191_stg_s04_0_airplane_00_airplane4-bicycle2.png
subject-04,1,192,0.989248991012573,knife,cat,0,0192_stg_s04_0_cat_00_cat10-bicycle1.png
subject-04,1,193,0.687269926071167,oven,bear,0,0193_stg_s04_0_bear_00_bear3-car2.png
subject-04,1,194,0.762864828109741,car,knife,0,0194_stg_s04_0_knife_00_knife6-boat3.png
subject-04,1,195,0.991584062576294,car,airplane,0,0195_stg_s04_0_airplane_00_airplane7-car1.png
subject-04,1,196,0.881591081619263,cat,elephant,0,0196_stg_s04_0_elephant_00_elephant7-bear3.png
subject-04,1,197,0.850535869598389,elephant,keyboard,0,0197_stg_s04_0_keyboard_00_keyboard6-elephant1.png
subject-04,1,198,0.978858947753906,bird,car,0,0198_stg_s04_0_car_00_car6-truck3.png
subject-04,1,199,0.985427856445312,bird,knife,0,0199_stg_s04_0_knife_00_knife9-chair1.png
subject-04,1,200,0.807655811309814,cat,bottle,0,0200_stg_s04_0_bottle_00_bottle1-cat3.png
subject-04,1,201,0.922781944274902,dog,bicycle,0,0201_stg_s04_0_bicycle_00_bicycle1-elephant2.png
subject-04,1,202,0.782953977584839,chair,chair,0,0202_stg_s04_0_chair_00_chair3-knife1.png
subject-04,1,203,1.00255084037781,car,elephant,0,0203_stg_s04_0_elephant_00_elephant6-car3.png
subject-04,1,204,0.792399883270264,car,bicycle,0,0204_stg_s04_0_bicycle_00_bicycle4-bicycle3.png
subject-04,1,205,1.4901020526886,bird,bottle,0,0205_stg_s04_0_bottle_00_bottle5-bird3.png
subject-04,1,206,0.727917909622192,clock,bottle,0,0206_stg_s04_0_bottle_00_bottle2-clock1.png
subject-04,1,207,1.01027798652649,chair,oven,0,0207_stg_s04_0_oven_00_oven7-clock2.png
subject-04,1,208,0.913665056228638,chair,knife,0,0208_stg_s04_0_knife_00_knife1-oven1.png
subject-04,1,209,0.811886072158813,clock,clock,0,0209_stg_s04_0_clock_00_clock7-dog2.png
subject-04,1,210,0.94129490852356,knife,airplane,0,0210_stg_s04_0_airplane_00_airplane9-knife3.png
subject-04,1,211,0.786015033721924,bicycle,car,0,0211_stg_s04_0_car_00_car8-airplane3.png
subject-04,1,212,0.830138921737671,cat,oven,0,0212_stg_s04_0_oven_00_oven3-cat2.png
subject-04,1,213,0.820480108261108,oven,truck,0,0213_stg_s04_0_truck_00_truck10-truck3.png
subject-04,1,214,0.878200054168701,clock,bear,0,0214_stg_s04_0_bear_00_bear6-clock1.png
subject-04,1,215,1.08466410636902,keyboard,bear,0,0215_stg_s04_0_bear_00_bear2-keyboard2.png
subject-04,1,216,1.13648700714111,bird,boat,0,0216_stg_s04_0_boat_00_boat4-bird1.png
subject-04,1,217,0.926367998123169,car,bear,0,0217_stg_s04_0_bear_00_bear1-bird2.png
subject-04,1,218,0.778319835662842,oven,bird,0,0218_stg_s04_0_bird_00_bird7-keyboard3.png
subject-04,1,219,0.776312828063965,clock,clock,0,0219_stg_s04_0_clock_00_clock7-car1.png
subject-04,1,220,0.811652898788452,clock,clock,0,0220_stg_s04_0_clock_00_clock9-airplane1.png
subject-04,1,221,1.12426996231079,dog,bicycle,0,0221_stg_s04_0_bicycle_00_bicycle7-bicycle2.png
subject-04,1,222,1.39220309257507,elephant,car,0,0222_stg_s04_0_car_00_car6-elephant3.png
subject-04,1,223,0.965727090835571,cat,chair,0,0223_stg_s04_0_chair_00_chair9-dog2.png
subject-04,1,224,0.885586977005005,car,bear,0,0224_stg_s04_0_bear_00_bear7-truck1.png
subject-04,1,225,0.908334016799927,oven,knife,0,0225_stg_s04_0_knife_00_knife9-bird1.png
subject-04,1,226,1.06617498397827,truck,oven,0,0226_stg_s04_0_oven_00_oven1-boat3.png
subject-04,1,227,1.20181894302368,bicycle,dog,0,0227_stg_s04_0_dog_00_dog8-bottle2.png
subject-04,1,228,0.937240839004517,keyboard,truck,0,0228_stg_s04_0_truck_00_truck7-chair2.png
subject-04,1,229,0.781219005584717,oven,dog,0,0229_stg_s04_0_dog_00_dog10-oven2.png
subject-04,1,230,0.757488965988159,boat,keyboard,0,0230_stg_s04_0_keyboard_00_keyboard9-chair2.png
subject-04,1,231,0.869389057159424,airplane,truck,0,0231_stg_s04_0_truck_00_truck4-knife1.png
subject-04,1,232,0.569607973098755,cat,airplane,0,0232_stg_s04_0_airplane_00_airplane5-bear2.png
subject-04,1,233,1.00594186782837,clock,oven,0,0233_stg_s04_0_oven_00_oven4-clock2.png
subject-04,1,234,0.663016080856323,oven,elephant,0,0234_stg_s04_0_elephant_00_elephant8-truck3.png
subject-04,1,235,0.790771007537842,cat,bird,0,0235_stg_s04_0_bird_00_bird9-dog2.png
subject-04,1,236,0.829338073730469,clock,bicycle,0,0236_stg_s04_0_bicycle_00_bicycle6-boat2.png
subject-04,1,237,0.902769088745117,keyboard,knife,0,0237_stg_s04_0_knife_00_knife5-oven2.png
subject-04,1,238,1.14750504493713,knife,knife,0,0238_stg_s04_0_knife_00_knife6-bicycle1.png
subject-04,1,239,0.715217113494873,oven,keyboard,0,0239_stg_s04_0_keyboard_00_keyboard9-truck3.png
subject-04,1,240,0.864901065826416,chair,elephant,0,0240_stg_s04_0_elephant_00_elephant7-airplane3.png
subject-04,1,241,0.641031980514526,clock,chair,0,0241_stg_s04_0_chair_00_chair6-truck2.png
subject-04,1,242,0.876583099365234,car,bear,0,0242_stg_s04_0_bear_00_bear3-truck3.png
subject-04,1,243,1.4801139831543,elephant,elephant,0,0243_stg_s04_0_elephant_00_elephant9-elephant3.png
subject-04,1,244,1.48353099822998,bear,airplane,0,0244_stg_s04_0_airplane_00_airplane5-bird2.png
subject-04,1,245,1.37597608566284,cat,bear,0,0245_stg_s04_0_bear_00_bear9-dog1.png
subject-04,1,246,0.627151012420654,clock,knife,0,0246_stg_s04_0_knife_00_knife1-clock2.png
subject-04,1,247,0.876672983169556,cat,oven,0,0247_stg_s04_0_oven_00_oven7-cat1.png
subject-04,1,248,0.737303972244263,clock,bird,0,0248_stg_s04_0_bird_00_bird1-clock3.png
subject-04,1,249,0.89695405960083,dog,cat,0,0249_stg_s04_0_cat_00_cat4-dog3.png
subject-04,1,250,0.957001924514771,bird,bird,0,0250_stg_s04_0_bird_00_bird1-boat1.png
subject-04,1,251,0.792670011520386,clock,bottle,0,0251_stg_s04_0_bottle_00_bottle8-knife1.png
subject-04,1,252,0.920450925827026,keyboard,chair,0,0252_stg_s04_0_chair_00_chair8-knife2.png
subject-04,1,253,1.37802982330322,chair,chair,0,0253_stg_s04_0_chair_00_chair4-oven2.png
subject-04,1,254,0.731965065002441,clock,bird,0,0254_stg_s04_0_bird_00_bird6-bottle3.png
subject-04,1,255,0.736293792724609,boat,cat,0,0255_stg_s04_0_cat_00_cat5-boat1.png
subject-04,1,256,1.39361596107483,elephant,cat,0,0256_stg_s04_0_cat_00_cat2-elephant1.png
subject-04,1,257,0.726385116577148,cat,elephant,0,0257_stg_s04_0_elephant_00_elephant10-knife3.png
subject-04,1,258,0.494081020355225,cat,truck,0,0258_stg_s04_0_truck_00_truck3-bear3.png
subject-04,1,259,0.7548828125,dog,elephant,0,0259_stg_s04_0_elephant_00_elephant9-chair2.png
subject-04,1,260,0.736449003219604,airplane,oven,0,0260_stg_s04_0_oven_00_oven7-car3.png
subject-04,1,261,0.864439964294434,cat,chair,0,0261_stg_s04_0_chair_00_chair9-bird3.png
subject-04,1,262,0.854559183120728,cat,knife,0,0262_stg_s04_0_knife_00_knife4-cat2.png
subject-04,1,263,0.820245027542114,bird,oven,0,0263_stg_s04_0_oven_00_oven2-bicycle1.png
subject-04,1,264,0.850792169570923,keyboard,chair,0,0264_stg_s04_0_chair_00_chair5-bottle3.png
subject-04,1,265,1.23791408538818,bird,bottle,0,0265_stg_s04_0_bottle_00_bottle5-cat1.png
subject-04,1,266,0.851662874221802,chair,clock,0,0266_stg_s04_0_clock_00_clock10-oven2.png
subject-04,1,267,0.750590085983276,boat,oven,0,0267_stg_s04_0_oven_00_oven5-airplane1.png
subject-04,1,268,0.586399078369141,cat,airplane,0,0268_stg_s04_0_airplane_00_airplane7-cat3.png
subject-04,1,269,0.935562133789062,oven,bird,0,0269_stg_s04_0_bird_00_bird5-bird1.png
subject-04,1,270,1.01179504394531,airplane,boat,0,0270_stg_s04_0_boat_00_boat3-keyboard2.png
subject-04,1,271,1.16392207145691,oven,bottle,0,0271_stg_s04_0_bottle_00_bottle3-bird1.png
subject-04,1,272,0.653212070465088,clock,airplane,0,0272_stg_s04_0_airplane_00_airplane9-clock1.png
subject-04,1,273,0.857606887817383,bicycle,cat,0,0273_stg_s04_0_cat_00_cat6-keyboard3.png
subject-04,1,274,0.924746990203857,clock,cat,0,0274_stg_s04_0_cat_00_cat5-bottle1.png
subject-04,1,275,0.636868000030518,oven,boat,0,0275_stg_s04_0_boat_00_boat9-keyboard2.png
subject-04,1,276,1.50017404556274,car,dog,0,0276_stg_s04_0_dog_00_dog4-oven1.png
subject-04,1,277,0.648566007614136,clock,boat,0,0277_stg_s04_0_boat_00_boat10-boat3.png
subject-04,1,278,0.576030969619751,cat,knife,0,0278_stg_s04_0_knife_00_knife10-bear3.png
subject-04,1,279,0.642050981521606,oven,oven,0,0279_stg_s04_0_oven_00_oven9-oven1.png
subject-04,1,280,0.843576908111572,dog,chair,0,0280_stg_s04_0_chair_00_chair2-bear2.png
subject-04,1,281,0.847164869308472,knife,truck,0,0281_stg_s04_0_truck_00_truck4-boat3.png
subject-04,1,282,1.04547214508057,clock,boat,0,0282_stg_s04_0_boat_00_boat7-clock3.png
subject-04,1,283,0.85698390007019,bottle,bicycle,0,0283_stg_s04_0_bicycle_00_bicycle2-bottle1.png
subject-04,1,284,0.586516141891479,clock,clock,0,0284_stg_s04_0_clock_00_clock3-bicycle2.png
subject-04,1,285,0.931226015090942,bicycle,truck,0,0285_stg_s04_0_truck_00_truck7-bird2.png
subject-04,1,286,0.659801006317139,cat,elephant,0,0286_stg_s04_0_elephant_00_elephant5-bear2.png
subject-04,1,287,0.887279033660889,bird,bird,0,0287_stg_s04_0_bird_00_bird7-car2.png
subject-04,1,288,0.694401025772095,oven,bottle,0,0288_stg_s04_0_bottle_00_bottle5-keyboard2.png
subject-04,1,289,1.13788604736328,cat,chair,0,0289_stg_s04_0_chair_00_chair5-cat3.png
subject-04,1,290,0.844671010971069,dog,boat,0,0290_stg_s04_0_boat_00_boat6-cat1.png
subject-04,1,291,0.9113450050354,bottle,truck,0,0291_stg_s04_0_truck_00_truck8-bottle2.png
subject-04,1,292,0.595253229141235,airplane,bottle,0,0292_stg_s04_0_bottle_00_bottle1-bird3.png
subject-04,1,293,0.791182041168213,airplane,car,0,0293_stg_s04_0_car_00_car7-oven2.png
subject-04,1,294,0.897561073303223,cat,dog,0,0294_stg_s04_0_dog_00_dog8-dog3.png
subject-04,1,295,0.671340942382812,cat,chair,0,0295_stg_s04_0_chair_00_chair10-cat1.png
subject-04,1,296,0.891271829605103,bear,elephant,0,0296_stg_s04_0_elephant_00_elephant1-dog2.png
subject-04,1,297,0.588763952255249,oven,elephant,0,0297_stg_s04_0_elephant_00_elephant1-keyboard3.png
subject-04,1,298,0.570444107055664,cat,airplane,0,0298_stg_s04_0_airplane_00_airplane4-dog2.png
subject-04,1,299,0.789808988571167,dog,boat,0,0299_stg_s04_0_boat_00_boat6-elephant2.png
subject-04,1,300,1.37134099006653,dog,bird,0,0300_stg_s04_0_bird_00_bird9-bear3.png
subject-04,1,301,0.77025294303894,car,truck,0,0301_stg_s04_0_truck_00_truck2-boat3.png
subject-04,1,302,0.843204975128174,dog,knife,0,0302_stg_s04_0_knife_00_knife10-dog1.png
subject-04,1,303,1.0177891254425,dog,airplane,0,0303_stg_s04_0_airplane_00_airplane8-oven2.png
subject-04,1,304,1.50019001960754,boat,cat,0,0304_stg_s04_0_cat_00_cat5-chair3.png
subject-04,1,305,1.10582685470581,oven,dog,0,0305_stg_s04_0_dog_00_dog5-knife2.png
subject-04,1,306,0.58812689781189,clock,clock,0,0306_stg_s04_0_clock_00_clock1-clock2.png
subject-04,1,307,0.663930177688599,cat,bicycle,0,0307_stg_s04_0_bicycle_00_bicycle5-oven3.png
subject-04,1,308,0.829529047012329,bird,bicycle,0,0308_stg_s04_0_bicycle_00_bicycle8-boat1.png
subject-04,1,309,1.3094699382782,bottle,bottle,0,0309_stg_s04_0_bottle_00_bottle7-boat3.png
subject-04,1,310,0.768819093704224,cat,bear,0,0310_stg_s04_0_bear_00_bear8-bear1.png
subject-04,1,311,1.02119898796082,airplane,chair,0,0311_stg_s04_0_chair_00_chair8-oven1.png
subject-04,1,312,0.841009855270386,clock,clock,0,0312_stg_s04_0_clock_00_clock10-clock3.png
subject-04,1,313,1.12277603149414,bird,elephant,0,0313_stg_s04_0_elephant_00_elephant5-bicycle3.png
subject-04,1,314,0.888431072235107,bicycle,bicycle,0,0314_stg_s04_0_bicycle_00_bicycle3-oven3.png
subject-04,1,315,0.885612964630127,boat,elephant,0,0315_stg_s04_0_elephant_00_elephant1-oven2.png
subject-04,1,316,1.313560962677,clock,chair,0,0316_stg_s04_0_chair_00_chair6-bird2.png
subject-04,1,317,1.20072102546692,knife,clock,0,0317_stg_s04_0_clock_00_clock10-airplane1.png
subject-04,1,318,1.20778894424438,car,oven,0,0318_stg_s04_0_oven_00_oven3-truck1.png
subject-04,1,319,0.829267024993896,car,truck,0,0319_stg_s04_0_truck_00_truck6-truck2.png
subject-04,1,320,1.24070000648499,bottle,elephant,0,0320_stg_s04_0_elephant_00_elephant6-bottle2.png
subject-04,1,321,0.638892889022827,cat,bird,0,0321_stg_s04_0_bird_00_bird4-dog3.png
subject-04,1,322,1.32673287391663,elephant,keyboard,0,0322_stg_s04_0_keyboard_00_keyboard3-elephant2.png
subject-04,1,323,0.964416980743408,cat,bottle,0,0323_stg_s04_0_bottle_00_bottle10-bear2.png
subject-04,1,324,1.47411799430847,clock,bear,0,0324_stg_s04_0_bear_00_bear9-keyboard3.png
subject-04,1,325,0.786840200424194,car,keyboard,0,0325_stg_s04_0_keyboard_00_keyboard7-truck2.png
subject-04,1,326,1.08558106422424,cat,dog,0,0326_stg_s04_0_dog_00_dog3-keyboard1.png
subject-04,1,327,0.713162899017334,oven,clock,0,0327_stg_s04_0_clock_00_clock6-knife2.png
subject-04,1,328,1.22427701950073,car,airplane,0,0328_stg_s04_0_airplane_00_airplane8-truck3.png
subject-04,1,329,1.16837501525879,truck,cat,0,0329_stg_s04_0_cat_00_cat3-truck3.png
subject-04,1,330,1.2870831489563,car,truck,0,0330_stg_s04_0_truck_00_truck5-truck1.png
subject-04,1,331,1.34558296203613,boat,chair,0,0331_stg_s04_0_chair_00_chair2-boat1.png
subject-04,1,332,0.766865968704224,boat,keyboard,0,0332_stg_s04_0_keyboard_00_keyboard7-boat2.png
subject-04,1,333,1.22859787940979,dog,bird,0,0333_stg_s04_0_bird_00_bird3-cat1.png
subject-04,1,334,0.639319896697998,clock,bicycle,0,0334_stg_s04_0_bicycle_00_bicycle7-clock3.png
subject-04,1,335,1.29678106307983,airplane,bird,0,0335_stg_s04_0_bird_00_bird8-boat3.png
subject-04,1,336,1.15690016746521,dog,dog,0,0336_stg_s04_0_dog_00_dog3-dog1.png
subject-04,1,337,1.14417695999146,dog,bear,0,0337_stg_s04_0_bear_00_bear3-airplane1.png
subject-04,1,338,0.665693998336792,clock,car,0,0338_stg_s04_0_car_00_car5-keyboard3.png
subject-04,1,339,1.49880790710449,knife,clock,0,0339_stg_s04_0_clock_00_clock6-clock2.png
subject-04,1,340,0.889617919921875,oven,knife,0,0340_stg_s04_0_knife_00_knife7-airplane3.png
subject-04,1,341,0.842185020446777,keyboard,truck,0,0341_stg_s04_0_truck_00_truck10-bicycle1.png
subject-04,1,342,1.02392601966858,oven,cat,0,0342_stg_s04_0_cat_00_cat10-oven2.png
subject-04,1,343,1.36570501327515,car,car,0,0343_stg_s04_0_car_00_car1-oven3.png
subject-04,1,344,1.22578597068787,bird,chair,0,0344_stg_s04_0_chair_00_chair7-car2.png
subject-04,1,345,0.823820114135742,cat,airplane,0,0345_stg_s04_0_airplane_00_airplane10-bear3.png
subject-04,1,346,0.681445837020874,oven,keyboard,0,0346_stg_s04_0_keyboard_00_keyboard8-airplane2.png
subject-04,1,347,0.978832006454468,keyboard,keyboard,0,0347_stg_s04_0_keyboard_00_keyboard5-keyboard1.png
subject-04,1,348,1.09837698936462,clock,bear,0,0348_stg_s04_0_bear_00_bear1-chair2.png
subject-04,1,349,0.712023973464966,oven,elephant,0,0349_stg_s04_0_elephant_00_elephant6-oven1.png
subject-04,1,350,1.04504013061523,airplane,keyboard,0,0350_stg_s04_0_keyboard_00_keyboard7-chair3.png
subject-04,1,351,1.42473602294922,bicycle,elephant,0,0351_stg_s04_0_elephant_00_elephant8-boat2.png
subject-04,1,352,1.07679986953735,cat,airplane,0,0352_stg_s04_0_airplane_00_airplane5-dog3.png
subject-04,1,353,0.589977979660034,oven,boat,0,0353_stg_s04_0_boat_00_boat3-airplane2.png
subject-04,1,354,1.20986390113831,keyboard,elephant,0,0354_stg_s04_0_elephant_00_elephant8-bicycle3.png
subject-04,1,355,1.48190593719482,keyboard,bicycle,0,0355_stg_s04_0_bicycle_00_bicycle5-bottle3.png
subject-04,1,356,0.651957988739014,clock,airplane,0,0356_stg_s04_0_airplane_00_airplane3-clock1.png
subject-04,1,357,1.11769104003906,oven,truck,0,0357_stg_s04_0_truck_00_truck3-bird2.png
subject-04,1,358,0.753854990005493,bottle,airplane,0,0358_stg_s04_0_airplane_00_airplane2-bottle1.png
subject-04,1,359,1.45746684074402,oven,dog,0,0359_stg_s04_0_dog_00_dog8-keyboard3.png
subject-04,1,360,0.739452838897705,bottle,cat,0,0360_stg_s04_0_cat_00_cat10-bottle1.png
subject-04,1,361,0.953265905380249,cat,bicycle,0,0361_stg_s04_0_bicycle_00_bicycle1-bear1.png
subject-04,1,362,0.521799087524414,cat,cat,0,0362_stg_s04_0_cat_00_cat5-dog3.png
subject-04,1,363,1.50001692771912,knife,clock,0,0363_stg_s04_0_clock_00_clock5-airplane1.png
subject-04,1,364,0.845569849014282,clock,bear,0,0364_stg_s04_0_bear_00_bear5-airplane3.png
subject-04,1,365,1.10321497917175,airplane,boat,0,0365_stg_s04_0_boat_00_boat4-chair2.png
subject-04,1,366,0.97219705581665,bicycle,oven,0,0366_stg_s04_0_oven_00_oven1-bird3.png
subject-04,1,367,0.866535902023315,car,airplane,0,0367_stg_s04_0_airplane_00_airplane3-airplane2.png
subject-04,1,368,0.856351852416992,clock,bird,0,0368_stg_s04_0_bird_00_bird2-clock3.png
subject-04,1,369,0.646841049194336,oven,bottle,0,0369_stg_s04_0_bottle_00_bottle8-keyboard3.png
subject-04,1,370,0.736790895462036,boat,truck,0,0370_stg_s04_0_truck_00_truck4-oven2.png
subject-04,1,371,0.826817035675049,keyboard,oven,0,0371_stg_s04_0_oven_00_oven2-boat3.png
subject-04,1,372,0.79236912727356,oven,bottle,0,0372_stg_s04_0_bottle_00_bottle6-oven3.png
subject-04,1,373,1.11220192909241,bird,elephant,0,0373_stg_s04_0_elephant_00_elephant2-boat1.png
subject-04,1,374,0.939597129821777,car,airplane,0,0374_stg_s04_0_airplane_00_airplane10-truck1.png
subject-04,1,375,1.00773501396179,car,bicycle,0,0375_stg_s04_0_bicycle_00_bicycle6-car2.png
subject-04,1,376,0.981030941009521,cat,bear,0,0376_stg_s04_0_bear_00_bear4-elephant2.png
subject-04,1,377,0.680169820785522,clock,oven,0,0377_stg_s04_0_oven_00_oven9-chair1.png
subject-04,1,378,0.716071844100952,oven,bear,0,0378_stg_s04_0_bear_00_bear10-knife2.png
subject-04,1,379,1.02217793464661,oven,bear,0,0379_stg_s04_0_bear_00_bear5-bird1.png
subject-04,1,380,0.69648003578186,car,truck,0,0380_stg_s04_0_truck_00_truck5-car1.png
subject-04,1,381,1.02428507804871,truck,elephant,0,0381_stg_s04_0_elephant_00_elephant2-bird1.png
subject-04,1,382,1.38211584091187,clock,bicycle,0,0382_stg_s04_0_bicycle_00_bicycle8-bird2.png
subject-04,1,383,1.07987499237061,truck,dog,0,0383_stg_s04_0_dog_00_dog5-boat3.png
subject-04,1,384,1.05612778663635,clock,chair,0,0384_stg_s04_0_chair_00_chair9-keyboard2.png
subject-04,1,385,0.851882934570312,keyboard,dog,0,0385_stg_s04_0_dog_00_dog7-chair2.png
subject-04,1,386,1.00326800346375,oven,oven,0,0386_stg_s04_0_oven_00_oven3-knife1.png
subject-04,1,387,0.61766505241394,cat,bear,0,0387_stg_s04_0_bear_00_bear3-cat1.png
subject-04,1,388,1.22954297065735,car,truck,0,0388_stg_s04_0_truck_00_truck4-bottle2.png
subject-04,1,389,0.864845991134644,cat,truck,0,0389_stg_s04_0_truck_00_truck7-elephant2.png
subject-04,1,390,0.762346982955933,boat,boat,0,0390_stg_s04_0_boat_00_boat5-boat3.png
subject-04,1,391,0.728942155838013,bottle,boat,0,0391_stg_s04_0_boat_00_boat6-bottle2.png
subject-04,1,392,0.664947986602783,bicycle,bird,0,0392_stg_s04_0_bird_00_bird2-airplane3.png
subject-04,1,393,0.846500873565674,airplane,cat,0,0393_stg_s04_0_cat_00_cat7-airplane2.png
subject-04,1,394,0.637015819549561,cat,truck,0,0394_stg_s04_0_truck_00_truck8-dog3.png
subject-04,1,395,0.864241123199463,clock,elephant,0,0395_stg_s04_0_elephant_00_elephant4-clock3.png
subject-04,1,396,0.891746044158936,clock,bicycle,0,0396_stg_s04_0_bicycle_00_bicycle2-knife2.png
subject-04,1,397,0.93574595451355,clock,clock,0,0397_stg_s04_0_clock_00_clock2-knife1.png
subject-04,1,398,1.50010991096497,bird,chair,0,0398_stg_s04_0_chair_00_chair5-truck3.png
subject-04,1,399,0.805383205413818,keyboard,airplane,0,0399_stg_s04_0_airplane_00_airplane4-boat3.png
subject-04,1,400,0.804224014282227,oven,cat,0,0400_stg_s04_0_cat_00_cat1-bird1.png
subject-04,1,401,0.747704029083252,clock,clock,0,0401_stg_s04_0_clock_00_clock8-truck2.png
subject-04,1,402,0.736741065979004,boat,clock,0,0402_stg_s04_0_clock_00_clock5-keyboard1.png
subject-04,1,403,1.32494592666626,bear,knife,0,0403_stg_s04_0_knife_00_knife3-cat1.png
subject-04,1,404,1.09831500053406,cat,truck,0,0404_stg_s04_0_truck_00_truck10-elephant3.png
subject-04,1,405,0.695294141769409,clock,keyboard,0,0405_stg_s04_0_keyboard_00_keyboard3-clock3.png
subject-04,1,406,1.216952085495,oven,car,0,0406_stg_s04_0_car_00_car5-airplane3.png
subject-04,1,407,0.763028144836426,car,boat,0,0407_stg_s04_0_boat_00_boat3-car3.png
subject-04,1,408,0.925407886505127,airplane,bottle,0,0408_stg_s04_0_bottle_00_bottle3-knife3.png
subject-04,1,409,1.41493201255798,knife,clock,0,0409_stg_s04_0_clock_00_clock4-boat3.png
subject-04,1,410,0.651527166366577,cat,knife,0,0410_stg_s04_0_knife_00_knife2-cat3.png
subject-04,1,411,0.719119071960449,clock,cat,0,0411_stg_s04_0_cat_00_cat10-clock1.png
subject-04,1,412,1.00159096717834,bicycle,car,0,0412_stg_s04_0_car_00_car1-chair3.png
subject-04,1,413,1.45994591712952,bear,clock,0,0413_stg_s04_0_clock_00_clock9-keyboard2.png
subject-04,1,414,0.687679052352905,clock,cat,0,0414_stg_s04_0_cat_00_cat9-clock2.png
subject-04,1,415,1.50013113021851,airplane,elephant,0,0415_stg_s04_0_elephant_00_elephant7-knife2.png
subject-04,1,416,0.892000913619995,cat,bicycle,0,0416_stg_s04_0_bicycle_00_bicycle3-elephant2.png
subject-04,1,417,0.827832937240601,bottle,elephant,0,0417_stg_s04_0_elephant_00_elephant5-bottle2.png
subject-04,1,418,0.969392061233521,car,bear,0,0418_stg_s04_0_bear_00_bear3-chair2.png
subject-04,1,419,0.705229997634888,oven,bird,0,0419_stg_s04_0_bird_00_bird2-bird2.png
subject-04,1,420,1.34124493598938,bottle,airplane,0,0420_stg_s04_0_airplane_00_airplane6-knife1.png
subject-04,1,421,1.09096097946167,bottle,airplane,0,0421_stg_s04_0_airplane_00_airplane5-bottle3.png
subject-04,1,422,0.91244101524353,car,boat,0,0422_stg_s04_0_boat_00_boat5-car3.png
subject-04,1,423,0.740635871887207,cat,chair,0,0423_stg_s04_0_chair_00_chair10-dog1.png
subject-04,1,424,0.884398937225342,bear,chair,0,0424_stg_s04_0_chair_00_chair9-elephant1.png
subject-04,1,425,0.866544961929321,bear,dog,0,0425_stg_s04_0_dog_00_dog5-bear3.png
subject-04,1,426,1.02391195297241,keyboard,keyboard,0,0426_stg_s04_0_keyboard_00_keyboard8-oven1.png
subject-04,1,427,1.27372217178345,bear,bicycle,0,0427_stg_s04_0_bicycle_00_bicycle4-cat1.png
subject-04,1,428,1.48557281494141,chair,bottle,0,0428_stg_s04_0_bottle_00_bottle1-chair2.png
subject-04,1,429,0.891353130340576,airplane,bottle,0,0429_stg_s04_0_bottle_00_bottle9-oven2.png
subject-04,1,430,0.973859071731567,airplane,bicycle,0,0430_stg_s04_0_bicycle_00_bicycle9-knife3.png
subject-04,1,431,0.893877029418945,car,truck,0,0431_stg_s04_0_truck_00_truck3-bicycle1.png
subject-04,1,432,0.769847869873047,bird,cat,0,0432_stg_s04_0_cat_00_cat8-car2.png
subject-04,1,433,0.898725032806396,car,airplane,0,0433_stg_s04_0_airplane_00_airplane4-truck2.png
subject-04,1,434,0.833992958068848,bottle,truck,0,0434_stg_s04_0_truck_00_truck2-bottle3.png
subject-04,1,435,0.878160953521729,bottle,bird,0,0435_stg_s04_0_bird_00_bird9-chair1.png
subject-04,1,436,0.590578079223633,clock,airplane,0,0436_stg_s04_0_airplane_00_airplane2-bicycle1.png
subject-04,1,437,0.964067935943604,oven,bottle,0,0437_stg_s04_0_bottle_00_bottle5-oven2.png
subject-04,1,438,0.639497995376587,cat,oven,0,0438_stg_s04_0_oven_00_oven1-cat1.png
subject-04,1,439,0.944294929504395,cat,oven,0,0439_stg_s04_0_oven_00_oven6-elephant2.png
subject-04,1,440,0.825460910797119,cat,cat,0,0440_stg_s04_0_cat_00_cat7-elephant1.png
subject-04,1,441,0.807681083679199,dog,airplane,0,0441_stg_s04_0_airplane_00_airplane4-bear3.png
subject-04,1,442,0.843039989471436,cat,car,0,0442_stg_s04_0_car_00_car3-dog2.png
subject-04,1,443,0.554954051971436,clock,airplane,0,0443_stg_s04_0_airplane_00_airplane8-clock2.png
subject-04,1,444,0.666094779968262,oven,knife,0,0444_stg_s04_0_knife_00_knife4-knife2.png
subject-04,1,445,1.50013494491577,airplane,bird,0,0445_stg_s04_0_bird_00_bird8-keyboard2.png
subject-04,1,446,0.608533143997192,boat,bottle,0,0446_stg_s04_0_bottle_00_bottle5-airplane1.png
subject-04,1,447,0.711886167526245,cat,cat,0,0447_stg_s04_0_cat_00_cat5-bicycle3.png
subject-04,1,448,1.10682392120361,dog,clock,0,0448_stg_s04_0_clock_00_clock2-bear2.png
subject-04,1,449,1.36506700515747,dog,airplane,0,0449_stg_s04_0_airplane_00_airplane2-dog1.png
subject-04,1,450,0.915952920913696,bear,elephant,0,0450_stg_s04_0_elephant_00_elephant6-bicycle1.png
subject-04,1,451,0.58424711227417,cat,oven,0,0451_stg_s04_0_oven_00_oven10-bear1.png
subject-04,1,452,0.896391868591309,clock,bicycle,0,0452_stg_s04_0_bicycle_00_bicycle2-keyboard2.png
subject-04,1,453,0.648178100585938,cat,knife,0,0453_stg_s04_0_knife_00_knife3-bear2.png
subject-04,1,454,0.543927907943726,clock,bicycle,0,0454_stg_s04_0_bicycle_00_bicycle8-clock3.png
subject-04,1,455,1.16359996795654,elephant,truck,0,0455_stg_s04_0_truck_00_truck8-elephant1.png
subject-04,1,456,0.974913120269775,elephant,knife,0,0456_stg_s04_0_knife_00_knife10-elephant3.png
subject-04,1,457,1.44051384925842,knife,bear,0,0457_stg_s04_0_bear_00_bear10-oven1.png
subject-04,1,458,1.22319388389587,dog,bicycle,0,0458_stg_s04_0_bicycle_00_bicycle7-cat1.png
subject-04,1,459,1.45083808898926,cat,elephant,0,0459_stg_s04_0_elephant_00_elephant9-boat3.png
subject-04,1,460,0.98179292678833,bottle,bottle,0,0460_stg_s04_0_bottle_00_bottle10-truck3.png
subject-04,1,461,0.72933292388916,cat,oven,0,0461_stg_s04_0_oven_00_oven7-dog2.png
subject-04,1,462,0.595309972763062,oven,truck,0,0462_stg_s04_0_truck_00_truck2-bicycle2.png
subject-04,1,463,0.601971864700317,clock,oven,0,0463_stg_s04_0_oven_00_oven3-airplane1.png
subject-04,1,464,0.867507934570312,car,oven,0,0464_stg_s04_0_oven_00_oven8-chair1.png
subject-04,1,465,1.31783604621887,bird,airplane,0,0465_stg_s04_0_airplane_00_airplane9-truck1.png
subject-04,1,466,0.586095094680786,cat,oven,0,0466_stg_s04_0_oven_00_oven3-elephant3.png
subject-04,1,467,1.38196301460266,knife,keyboard,0,0467_stg_s04_0_keyboard_00_keyboard4-knife2.png
subject-04,1,468,0.874096870422363,chair,bird,0,0468_stg_s04_0_bird_00_bird2-knife1.png
subject-04,1,469,1.26964592933655,bird,bottle,0,0469_stg_s04_0_bottle_00_bottle3-bicycle3.png
subject-04,1,470,1.06813502311707,airplane,car,0,0470_stg_s04_0_car_00_car5-oven2.png
subject-04,1,471,0.620406866073608,cat,bottle,0,0471_stg_s04_0_bottle_00_bottle3-bear2.png
subject-04,1,472,0.925866842269897,bird,oven,0,0472_stg_s04_0_oven_00_oven3-car2.png
subject-04,1,473,0.967883110046387,bear,bottle,0,0473_stg_s04_0_bottle_00_bottle4-oven2.png
subject-04,1,474,0.927128076553345,bicycle,cat,0,0474_stg_s04_0_cat_00_cat10-keyboard1.png
subject-04,1,475,0.877106189727783,car,knife,0,0475_stg_s04_0_knife_00_knife8-truck3.png
subject-04,1,476,0.820931911468506,car,cat,0,0476_stg_s04_0_cat_00_cat7-truck2.png
subject-04,1,477,0.765075922012329,cat,elephant,0,0477_stg_s04_0_elephant_00_elephant8-bird2.png
subject-04,1,478,1.50008988380432,clock,dog,0,0478_stg_s04_0_dog_00_dog6-clock1.png
subject-04,1,479,1.39655900001526,car,bicycle,0,0479_stg_s04_0_bicycle_00_bicycle8-truck1.png
subject-04,1,480,0.640938997268677,clock,bottle,0,0480_stg_s04_0_bottle_00_bottle10-clock2.png
subject-04,1,481,0.938334941864014,bottle,bear,0,0481_stg_s04_0_bear_00_bear9-knife2.png
subject-04,1,482,0.674086093902588,clock,truck,0,0482_stg_s04_0_truck_00_truck1-clock3.png
subject-04,1,483,1.24486684799194,airplane,knife,0,0483_stg_s04_0_knife_00_knife1-keyboard3.png
subject-04,1,484,1.11871099472046,airplane,truck,0,0484_stg_s04_0_truck_00_truck1-chair2.png
subject-04,1,485,0.687152862548828,oven,oven,0,0485_stg_s04_0_oven_00_oven10-bicycle1.png
subject-04,1,486,0.736348152160645,car,oven,0,0486_stg_s04_0_oven_00_oven6-truck1.png
subject-04,1,487,1.30180597305298,cat,knife,0,0487_stg_s04_0_knife_00_knife9-elephant2.png
subject-04,1,488,0.73167610168457,cat,cat,0,0488_stg_s04_0_cat_00_cat5-knife2.png
subject-04,1,489,0.957310914993286,chair,chair,0,0489_stg_s04_0_chair_00_chair7-clock3.png
subject-04,1,490,1.28474593162537,car,cat,0,0490_stg_s04_0_cat_00_cat2-truck3.png
subject-04,1,491,0.774522066116333,cat,clock,0,0491_stg_s04_0_clock_00_clock9-cat1.png
subject-04,1,492,0.6181480884552,bear,boat,0,0492_stg_s04_0_boat_00_boat3-cat3.png
subject-04,1,493,0.653373003005981,dog,bird,0,0493_stg_s04_0_bird_00_bird7-cat3.png
subject-04,1,494,1.30345892906189,keyboard,bear,0,0494_stg_s04_0_bear_00_bear3-keyboard2.png
subject-04,1,495,0.955449104309082,car,bicycle,0,0495_stg_s04_0_bicycle_00_bicycle7-truck3.png
subject-04,1,496,0.874918937683105,airplane,chair,0,0496_stg_s04_0_chair_00_chair5-bicycle1.png
subject-04,1,497,0.665097951889038,cat,clock,0,0497_stg_s04_0_clock_00_clock3-bear3.png
subject-04,1,498,0.847378969192505,cat,knife,0,0498_stg_s04_0_knife_00_knife8-cat2.png
subject-04,1,499,0.766700983047485,car,chair,0,0499_stg_s04_0_chair_00_chair5-car1.png
subject-04,1,500,0.856727838516235,car,bear,0,0500_stg_s04_0_bear_00_bear8-bicycle3.png
subject-04,1,501,0.938266038894653,truck,bird,0,0501_stg_s04_0_bird_00_bird5-car2.png
subject-04,1,502,0.933800935745239,bicycle,bear,0,0502_stg_s04_0_bear_00_bear4-boat2.png
subject-04,1,503,1.33663702011108,bear,elephant,0,0503_stg_s04_0_elephant_00_elephant6-knife2.png
subject-04,1,504,1.41142010688782,knife,bottle,0,0504_stg_s04_0_bottle_00_bottle4-bicycle1.png
subject-04,1,505,0.833224058151245,car,cat,0,0505_stg_s04_0_cat_00_cat9-truck1.png
subject-04,1,506,0.669429779052734,cat,cat,0,0506_stg_s04_0_cat_00_cat6-oven1.png
subject-04,1,507,0.643192052841187,cat,clock,0,0507_stg_s04_0_clock_00_clock1-elephant2.png
subject-04,1,508,1.04747796058655,dog,boat,0,0508_stg_s04_0_boat_00_boat1-elephant3.png
subject-04,1,509,0.878121852874756,elephant,keyboard,0,0509_stg_s04_0_keyboard_00_keyboard9-bird1.png
subject-04,1,510,1.0225191116333,oven,chair,0,0510_stg_s04_0_chair_00_chair9-bicycle3.png
subject-04,1,511,0.657479047775269,car,bicycle,0,0511_stg_s04_0_bicycle_00_bicycle9-chair1.png
subject-04,1,512,0.568977832794189,oven,keyboard,0,0512_stg_s04_0_keyboard_00_keyboard9-bear2.png
subject-04,1,513,1.28461098670959,chair,clock,0,0513_stg_s04_0_clock_00_clock4-knife1.png
subject-04,1,514,0.73682713508606,bottle,keyboard,0,0514_stg_s04_0_keyboard_00_keyboard2-bottle1.png
subject-04,1,515,0.696878910064697,cat,clock,0,0515_stg_s04_0_clock_00_clock1-dog2.png
subject-04,1,516,0.686563968658447,boat,elephant,0,0516_stg_s04_0_elephant_00_elephant6-bird1.png
subject-04,1,517,0.73710298538208,dog,cat,0,0517_stg_s04_0_cat_00_cat5-bear2.png
subject-04,1,518,0.965136051177979,clock,elephant,0,0518_stg_s04_0_elephant_00_elephant3-knife1.png
subject-04,1,519,0.608999013900757,cat,elephant,0,0519_stg_s04_0_elephant_00_elephant2-bear3.png
subject-04,1,520,1.27514696121216,car,car,0,0520_stg_s04_0_car_00_car10-keyboard2.png
subject-04,1,521,0.810898065567017,car,bird,0,0521_stg_s04_0_bird_00_bird3-knife3.png
subject-04,1,522,0.998126029968262,clock,elephant,0,0522_stg_s04_0_elephant_00_elephant4-bicycle2.png
subject-04,1,523,1.12575697898865,bird,oven,0,0523_stg_s04_0_oven_00_oven4-car1.png
subject-04,1,524,0.639765977859497,cat,keyboard,0,0524_stg_s04_0_keyboard_00_keyboard5-dog3.png
subject-04,1,525,0.668282032012939,bear,cat,0,0525_stg_s04_0_cat_00_cat1-cat3.png
subject-04,1,526,0.719480991363525,clock,elephant,0,0526_stg_s04_0_elephant_00_elephant9-clock3.png
subject-04,1,527,1.31603693962097,knife,bear,0,0527_stg_s04_0_bear_00_bear5-boat2.png
subject-04,1,528,1.38148498535156,boat,dog,0,0528_stg_s04_0_dog_00_dog4-bird1.png
subject-04,1,529,1.017333984375,car,bear,0,0529_stg_s04_0_bear_00_bear9-boat2.png
subject-04,1,530,0.799720048904419,chair,keyboard,0,0530_stg_s04_0_keyboard_00_keyboard5-bicycle1.png
subject-04,1,531,0.713526010513306,cat,bicycle,0,0531_stg_s04_0_bicycle_00_bicycle9-keyboard3.png
subject-04,1,532,0.616626977920532,clock,chair,0,0532_stg_s04_0_chair_00_chair5-clock2.png
subject-04,1,533,0.790796995162964,bird,bicycle,0,0533_stg_s04_0_bicycle_00_bicycle2-dog1.png
subject-04,1,534,0.702553033828735,oven,clock,0,0534_stg_s04_0_clock_00_clock4-bottle3.png
subject-04,1,535,0.797895908355713,oven,elephant,0,0535_stg_s04_0_elephant_00_elephant2-airplane3.png
subject-04,1,536,0.627584934234619,cat,boat,0,0536_stg_s04_0_boat_00_boat8-dog3.png
subject-04,1,537,0.815211057662964,bear,knife,0,0537_stg_s04_0_knife_00_knife7-bird3.png
subject-04,1,538,0.984198093414307,bear,bear,0,0538_stg_s04_0_bear_00_bear2-cat2.png
subject-04,1,539,1.24173212051392,chair,airplane,0,0539_stg_s04_0_airplane_00_airplane1-chair2.png
subject-04,1,540,1.23964285850525,truck,truck,0,0540_stg_s04_0_truck_00_truck1-knife1.png
subject-04,1,541,0.929616928100586,car,car,0,0541_stg_s04_0_car_00_car1-airplane1.png
subject-04,1,542,1.4015371799469,car,car,0,0542_stg_s04_0_car_00_car2-car3.png
subject-04,1,543,0.761291980743408,cat,car,0,0543_stg_s04_0_car_00_car2-bird3.png
subject-04,1,544,0.542098045349121,clock,dog,0,0544_stg_s04_0_dog_00_dog4-clock1.png
subject-04,1,545,0.799600839614868,car,clock,0,0545_stg_s04_0_clock_00_clock4-car2.png
subject-04,1,546,0.735799074172974,keyboard,keyboard,0,0546_stg_s04_0_keyboard_00_keyboard7-oven2.png
subject-04,1,547,1.23155903816223,elephant,car,0,0547_stg_s04_0_car_00_car4-elephant3.png
subject-04,1,548,1.48139905929565,boat,chair,0,0548_stg_s04_0_chair_00_chair5-bird1.png
subject-04,1,549,0.849390029907227,clock,knife,0,0549_stg_s04_0_knife_00_knife7-bottle3.png
subject-04,1,550,0.768309831619263,bicycle,cat,0,0550_stg_s04_0_cat_00_cat2-bottle3.png
subject-04,1,551,0.772263050079346,car,truck,0,0551_stg_s04_0_truck_00_truck2-car3.png
subject-04,1,552,0.90024995803833,car,keyboard,0,0552_stg_s04_0_keyboard_00_keyboard3-car2.png
subject-04,1,553,0.944015026092529,bottle,cat,0,0553_stg_s04_0_cat_00_cat4-truck3.png
subject-04,1,554,0.933793067932129,bird,oven,0,0554_stg_s04_0_oven_00_oven3-bottle3.png
subject-04,1,555,1.06012892723083,chair,clock,0,0555_stg_s04_0_clock_00_clock2-bicycle1.png
subject-04,1,556,1.40447521209717,car,bottle,0,0556_stg_s04_0_bottle_00_bottle4-car3.png
subject-04,1,557,1.1182849407196,elephant,bottle,0,0557_stg_s04_0_bottle_00_bottle2-elephant1.png
subject-04,1,558,1.03820300102234,airplane,oven,0,0558_stg_s04_0_oven_00_oven6-oven3.png
subject-04,1,559,0.711961984634399,cat,keyboard,0,0559_stg_s04_0_keyboard_00_keyboard8-dog3.png
subject-04,1,560,0.984915971755981,knife,knife,0,0560_stg_s04_0_knife_00_knife9-boat1.png
subject-04,1,561,1.48962616920471,airplane,bicycle,0,0561_stg_s04_0_bicycle_00_bicycle1-knife3.png
subject-04,1,562,0.911562919616699,airplane,oven,0,0562_stg_s04_0_oven_00_oven8-keyboard3.png
subject-04,1,563,1.23155093193054,dog,bird,0,0563_stg_s04_0_bird_00_bird6-elephant2.png
subject-04,1,564,1.12104201316833,car,airplane,0,0564_stg_s04_0_airplane_00_airplane8-bicycle3.png
subject-04,1,565,1.21713089942932,chair,bottle,0,0565_stg_s04_0_bottle_00_bottle2-knife3.png
subject-04,1,566,1.16903305053711,dog,clock,0,0566_stg_s04_0_clock_00_clock3-cat1.png
subject-04,1,567,0.742114067077637,bottle,chair,0,0567_stg_s04_0_chair_00_chair7-bottle1.png
subject-04,1,568,0.586102962493896,oven,car,0,0568_stg_s04_0_car_00_car7-keyboard3.png
subject-04,1,569,0.58988618850708,oven,truck,0,0569_stg_s04_0_truck_00_truck9-truck3.png
subject-04,1,570,0.825309038162231,car,bird,0,0570_stg_s04_0_bird_00_bird5-chair1.png
subject-04,1,571,1.27214097976685,bear,knife,0,0571_stg_s04_0_knife_00_knife2-elephant2.png
subject-04,1,572,0.685869932174683,bottle,knife,0,0572_stg_s04_0_knife_00_knife2-bottle2.png
subject-04,1,573,0.689961194992065,boat,oven,0,0573_stg_s04_0_oven_00_oven2-chair1.png
subject-04,1,574,0.679224014282227,car,knife,0,0574_stg_s04_0_knife_00_knife4-car2.png
subject-04,1,575,1.37480211257935,dog,car,0,0575_stg_s04_0_car_00_car10-dog1.png
subject-04,1,576,0.626905918121338,clock,bicycle,0,0576_stg_s04_0_bicycle_00_bicycle1-bottle3.png
subject-04,1,577,0.630213975906372,oven,cat,0,0577_stg_s04_0_cat_00_cat9-knife2.png
subject-04,1,578,1.31237506866455,dog,keyboard,0,0578_stg_s04_0_keyboard_00_keyboard7-dog1.png
subject-04,1,579,0.77878999710083,clock,dog,0,0579_stg_s04_0_dog_00_dog6-bicycle1.png
subject-04,1,580,0.647298097610474,clock,cat,0,0580_stg_s04_0_cat_00_cat6-clock3.png
subject-04,1,581,1.33512401580811,airplane,dog,0,0581_stg_s04_0_dog_00_dog5-oven1.png
subject-04,1,582,1.29290580749512,airplane,airplane,0,0582_stg_s04_0_airplane_00_airplane10-knife3.png
subject-04,1,583,0.744436979293823,bicycle,knife,0,0583_stg_s04_0_knife_00_knife2-car3.png
subject-04,1,584,0.834278106689453,car,car,0,0584_stg_s04_0_car_00_car4-bicycle3.png
subject-04,1,585,1.50030303001404,cat,bicycle,0,0585_stg_s04_0_bicycle_00_bicycle7-elephant2.png
subject-04,1,586,0.672798871994019,clock,knife,0,0586_stg_s04_0_knife_00_knife6-airplane1.png
subject-04,1,587,0.876431941986084,car,car,0,0587_stg_s04_0_car_00_car2-chair1.png
subject-04,1,588,1.12098002433777,bicycle,bird,0,0588_stg_s04_0_bird_00_bird9-bottle3.png
subject-04,1,589,0.67118501663208,boat,elephant,0,0589_stg_s04_0_elephant_00_elephant4-boat3.png
subject-04,1,590,0.64459490776062,cat,elephant,0,0590_stg_s04_0_elephant_00_elephant9-dog3.png
subject-04,1,591,1.38623690605164,car,dog,0,0591_stg_s04_0_dog_00_dog3-truck2.png
subject-04,1,592,0.775972127914429,oven,knife,0,0592_stg_s04_0_knife_00_knife5-bicycle2.png
subject-04,1,593,1.22760510444641,boat,bottle,0,0593_stg_s04_0_bottle_00_bottle2-chair3.png
subject-04,1,594,0.664486885070801,cat,chair,0,0594_stg_s04_0_chair_00_chair7-cat1.png
subject-04,1,595,0.784544944763184,bear,bicycle,0,0595_stg_s04_0_bicycle_00_bicycle5-cat1.png
subject-04,1,596,1.36604905128479,cat,bicycle,0,0596_stg_s04_0_bicycle_00_bicycle5-elephant1.png
subject-04,1,597,0.94005012512207,dog,dog,0,0597_stg_s04_0_dog_00_dog10-dog1.png
subject-04,1,598,1.02228808403015,dog,airplane,0,0598_stg_s04_0_airplane_00_airplane3-cat1.png
subject-04,1,599,0.733996152877808,cat,oven,0,0599_stg_s04_0_oven_00_oven2-dog3.png
subject-04,1,600,0.832166910171509,car,cat,0,0600_stg_s04_0_cat_00_cat1-car2.png
subject-04,1,601,0.768151998519897,keyboard,knife,0,0601_stg_s04_0_knife_00_knife6-oven3.png
subject-04,1,602,1.0499370098114,dog,dog,0,0602_stg_s04_0_dog_00_dog1-cat3.png
subject-04,1,603,0.702558994293213,oven,bird,0,0603_stg_s04_0_bird_00_bird1-keyboard3.png
subject-04,1,604,0.638370037078857,boat,airplane,0,0604_stg_s04_0_airplane_00_airplane3-chair3.png
subject-04,1,605,1.31846308708191,dog,airplane,0,0605_stg_s04_0_airplane_00_airplane3-dog1.png
subject-04,1,606,1.12236785888672,boat,clock,0,0606_stg_s04_0_clock_00_clock5-chair3.png
subject-04,1,607,1.27447199821472,knife,knife,0,0607_stg_s04_0_knife_00_knife6-bird1.png
subject-04,1,608,0.979766845703125,knife,knife,0,0608_stg_s04_0_knife_00_knife2-bicycle3.png
subject-04,1,609,1.09219098091125,dog,bear,0,0609_stg_s04_0_bear_00_bear7-dog3.png
subject-04,1,610,1.35775709152222,clock,chair,0,0610_stg_s04_0_chair_00_chair2-knife1.png
subject-04,1,611,0.855625152587891,chair,boat,0,0611_stg_s04_0_boat_00_boat9-chair2.png
subject-04,1,612,0.943696022033691,car,car,0,0612_stg_s04_0_car_00_car3-boat1.png
subject-04,1,613,1.27053499221802,elephant,airplane,0,0613_stg_s04_0_airplane_00_airplane10-elephant1.png
subject-04,1,614,1.12301993370056,keyboard,elephant,0,0614_stg_s04_0_elephant_00_elephant7-keyboard3.png
subject-04,1,615,0.772933959960938,car,bear,0,0615_stg_s04_0_bear_00_bear10-truck1.png
subject-04,1,616,0.671499013900757,oven,car,0,0616_stg_s04_0_car_00_car3-bird2.png
subject-04,1,617,1.1913628578186,oven,cat,0,0617_stg_s04_0_cat_00_cat3-bicycle1.png
subject-04,1,618,0.910940885543823,car,knife,0,0618_stg_s04_0_knife_00_knife10-chair1.png
subject-04,1,619,0.768317937850952,bottle,boat,0,0619_stg_s04_0_boat_00_boat4-bottle2.png
subject-04,1,620,0.704447031021118,bottle,dog,0,0620_stg_s04_0_dog_00_dog4-truck2.png
subject-04,1,621,0.611181974411011,clock,clock,0,0621_stg_s04_0_clock_00_clock8-knife1.png
subject-04,1,622,1.41490602493286,car,keyboard,0,0622_stg_s04_0_keyboard_00_keyboard10-oven3.png
subject-04,1,623,1.43277215957642,car,dog,0,0623_stg_s04_0_dog_00_dog9-car1.png
subject-04,1,624,0.870141983032227,truck,elephant,0,0624_stg_s04_0_elephant_00_elephant3-truck1.png
subject-04,1,625,1.10630393028259,boat,keyboard,0,0625_stg_s04_0_keyboard_00_keyboard4-bird1.png
subject-04,1,626,1.11348986625671,cat,car,0,0626_stg_s04_0_car_00_car5-cat1.png
subject-04,1,627,0.917639970779419,dog,bicycle,0,0627_stg_s04_0_bicycle_00_bicycle5-chair2.png
subject-04,1,628,0.829437971115112,clock,keyboard,0,0628_stg_s04_0_keyboard_00_keyboard4-clock2.png
subject-04,1,629,0.848816871643066,bottle,bottle,0,0629_stg_s04_0_bottle_00_bottle5-boat1.png
subject-04,1,630,0.662913084030151,bottle,airplane,0,0630_stg_s04_0_airplane_00_airplane10-boat3.png
subject-04,1,631,0.758224964141846,chair,bear,0,0631_stg_s04_0_bear_00_bear8-truck3.png
subject-04,1,632,1.22206687927246,clock,cat,0,0632_stg_s04_0_cat_00_cat9-bicycle1.png
subject-04,1,633,0.897941112518311,bottle,airplane,0,0633_stg_s04_0_airplane_00_airplane4-car1.png
subject-04,1,634,1.36966991424561,elephant,elephant,0,0634_stg_s04_0_elephant_00_elephant8-airplane3.png
subject-04,1,635,0.983534097671509,cat,elephant,0,0635_stg_s04_0_elephant_00_elephant4-oven1.png
subject-04,1,636,0.732782125473022,cat,bear,0,0636_stg_s04_0_bear_00_bear8-elephant2.png
subject-04,1,637,0.715313196182251,car,knife,0,0637_stg_s04_0_knife_00_knife6-truck1.png
subject-04,1,638,0.575078010559082,clock,bottle,0,0638_stg_s04_0_bottle_00_bottle7-clock1.png
subject-04,1,639,0.75780987739563,bicycle,oven,0,0639_stg_s04_0_oven_00_oven9-boat2.png
subject-04,1,640,1.04473185539246,oven,car,0,0640_stg_s04_0_car_00_car10-bottle3.png
subject-04,1,641,1.29427218437195,keyboard,dog,0,0641_stg_s04_0_dog_00_dog4-keyboard2.png
subject-04,1,642,1.03680109977722,bicycle,bicycle,0,0642_stg_s04_0_bicycle_00_bicycle4-car2.png
subject-04,1,643,1.14257407188416,dog,car,0,0643_stg_s04_0_car_00_car2-cat3.png
subject-04,1,644,0.970686912536621,bottle,keyboard,0,0644_stg_s04_0_keyboard_00_keyboard6-bottle2.png
subject-04,1,645,0.690713882446289,clock,dog,0,0645_stg_s04_0_dog_00_dog10-airplane1.png
subject-04,1,646,1.00230479240417,cat,dog,0,0646_stg_s04_0_dog_00_dog9-cat1.png
subject-04,1,647,1.50008702278137,airplane,bear,0,0647_stg_s04_0_bear_00_bear2-oven1.png
subject-04,1,648,1.50014305114746,bird,keyboard,0,0648_stg_s04_0_keyboard_00_keyboard6-bicycle1.png
subject-04,1,649,1.12190198898315,bicycle,bird,0,0649_stg_s04_0_bird_00_bird1-bicycle2.png
subject-04,1,650,1.49556303024292,knife,bear,0,0650_stg_s04_0_bear_00_bear2-knife2.png
subject-04,1,651,0.96853494644165,keyboard,keyboard,0,0651_stg_s04_0_keyboard_00_keyboard10-airplane3.png
subject-04,1,652,0.867846965789795,car,oven,0,0652_stg_s04_0_oven_00_oven4-chair1.png
subject-04,1,653,0.965621948242188,dog,boat,0,0653_stg_s04_0_boat_00_boat10-bear3.png
subject-04,1,654,0.915584087371826,truck,bottle,0,0654_stg_s04_0_bottle_00_bottle2-car2.png
subject-04,1,655,1.01900410652161,oven,bear,0,0655_stg_s04_0_bear_00_bear10-keyboard3.png
subject-04,1,656,1.36031889915466,chair,boat,0,0656_stg_s04_0_boat_00_boat1-bird3.png
subject-04,1,657,1.03425693511963,keyboard,airplane,0,0657_stg_s04_0_airplane_00_airplane6-chair3.png
subject-04,1,658,0.910332918167114,keyboard,chair,0,0658_stg_s04_0_chair_00_chair5-knife3.png
subject-04,1,659,1.1357798576355,car,bear,0,0659_stg_s04_0_bear_00_bear5-bicycle3.png
subject-04,1,660,0.780596017837524,bird,clock,0,0660_stg_s04_0_clock_00_clock6-car2.png
subject-04,1,661,1.50021409988403,truck,car,0,0661_stg_s04_0_car_00_car7-boat3.png
subject-04,1,662,1.50015211105347,dog,bird,0,0662_stg_s04_0_bird_00_bird1-elephant2.png
subject-04,1,663,0.572180032730103,clock,car,0,0663_stg_s04_0_car_00_car9-clock2.png
subject-04,1,664,0.483870029449463,cat,knife,0,0664_stg_s04_0_knife_00_knife4-bear1.png
subject-04,1,665,1.24979615211487,bicycle,chair,0,0665_stg_s04_0_chair_00_chair9-bottle3.png
subject-04,1,666,0.977307796478271,cat,chair,0,0666_stg_s04_0_chair_00_chair3-bicycle3.png
subject-04,1,667,0.94876503944397,dog,elephant,0,0667_stg_s04_0_elephant_00_elephant1-bear2.png
subject-04,1,668,0.671291828155518,oven,truck,0,0668_stg_s04_0_truck_00_truck2-oven3.png
subject-04,1,669,1.22919011116028,car,truck,0,0669_stg_s04_0_truck_00_truck4-airplane3.png
subject-04,1,670,0.802926063537598,cat,bicycle,0,0670_stg_s04_0_bicycle_00_bicycle8-bear2.png
subject-04,1,671,0.738888025283813,bear,clock,0,0671_stg_s04_0_clock_00_clock2-elephant2.png
subject-04,1,672,0.996267080307007,oven,cat,0,0672_stg_s04_0_cat_00_cat4-car2.png
subject-04,1,673,0.686073064804077,keyboard,boat,0,0673_stg_s04_0_boat_00_boat8-knife1.png
subject-04,1,674,1.13593482971191,dog,cat,0,0674_stg_s04_0_cat_00_cat3-cat1.png
subject-04,1,675,0.693816184997559,cat,clock,0,0675_stg_s04_0_clock_00_clock3-dog2.png
subject-04,1,676,0.797209024429321,oven,oven,0,0676_stg_s04_0_oven_00_oven10-truck2.png
subject-04,1,677,0.586690187454224,car,cat,0,0677_stg_s04_0_cat_00_cat5-car2.png
subject-04,1,678,0.793540954589844,airplane,dog,0,0678_stg_s04_0_dog_00_dog3-boat1.png
subject-04,1,679,1.34279489517212,keyboard,airplane,0,0679_stg_s04_0_airplane_00_airplane9-keyboard2.png
subject-04,1,680,1.00882005691528,keyboard,cat,0,0680_stg_s04_0_cat_00_cat10-airplane3.png
subject-04,1,681,0.842266798019409,clock,oven,0,0681_stg_s04_0_oven_00_oven1-clock3.png
subject-04,1,682,0.610444784164429,clock,boat,0,0682_stg_s04_0_boat_00_boat5-clock3.png
subject-04,1,683,0.575460910797119,cat,cat,0,0683_stg_s04_0_cat_00_cat9-dog2.png
subject-04,1,684,0.963418006896973,keyboard,bicycle,0,0684_stg_s04_0_bicycle_00_bicycle5-keyboard3.png
subject-04,1,685,0.961548089981079,bicycle,boat,0,0685_stg_s04_0_boat_00_boat4-knife2.png
subject-04,1,686,1.15661787986755,dog,knife,0,0686_stg_s04_0_knife_00_knife5-dog1.png
subject-04,1,687,1.13900804519653,bicycle,elephant,0,0687_stg_s04_0_elephant_00_elephant4-bird1.png
subject-04,1,688,0.834316968917847,clock,bottle,0,0688_stg_s04_0_bottle_00_bottle1-clock1.png
subject-04,1,689,0.840357065200806,car,elephant,0,0689_stg_s04_0_elephant_00_elephant1-boat2.png
subject-04,1,690,1.00669717788696,cat,car,0,0690_stg_s04_0_car_00_car8-cat1.png
subject-04,1,691,0.813053846359253,car,boat,0,0691_stg_s04_0_boat_00_boat10-truck1.png
subject-04,1,692,0.870434999465942,oven,oven,0,0692_stg_s04_0_oven_00_oven2-truck3.png
subject-04,1,693,0.782476902008057,boat,truck,0,0693_stg_s04_0_truck_00_truck6-bicycle1.png
subject-04,1,694,1.43278694152832,bird,bird,0,0694_stg_s04_0_bird_00_bird1-airplane2.png
subject-04,1,695,1.50000095367432,airplane,airplane,0,0695_stg_s04_0_airplane_00_airplane3-oven1.png
subject-04,1,696,0.842703819274902,bottle,bear,0,0696_stg_s04_0_bear_00_bear9-bottle2.png
subject-04,1,697,1.21391201019287,bicycle,bear,0,0697_stg_s04_0_bear_00_bear6-bird2.png
subject-04,1,698,0.660030126571655,cat,truck,0,0698_stg_s04_0_truck_00_truck6-dog2.png
subject-04,1,699,0.769425868988037,car,airplane,0,0699_stg_s04_0_airplane_00_airplane7-truck1.png
subject-04,1,700,1.48086595535278,knife,boat,0,0700_stg_s04_0_boat_00_boat6-bicycle2.png
subject-04,1,701,1.12471103668213,boat,keyboard,0,0701_stg_s04_0_keyboard_00_keyboard3-bird3.png
subject-04,1,702,1.38223814964294,dog,elephant,0,0702_stg_s04_0_elephant_00_elephant7-cat1.png
subject-04,1,703,1.19393110275269,keyboard,bottle,0,0703_stg_s04_0_bottle_00_bottle5-truck1.png
subject-04,1,704,0.814604043960571,bottle,boat,0,0704_stg_s04_0_boat_00_boat7-bottle1.png
subject-04,1,705,0.963330030441284,oven,keyboard,0,0705_stg_s04_0_keyboard_00_keyboard1-car3.png
subject-04,1,706,0.693243980407715,clock,bottle,0,0706_stg_s04_0_bottle_00_bottle6-bottle3.png
subject-04,1,707,0.759146928787231,clock,oven,0,0707_stg_s04_0_oven_00_oven9-clock2.png
subject-04,1,708,0.901102066040039,clock,boat,0,0708_stg_s04_0_boat_00_boat9-knife2.png
subject-04,1,709,0.812691926956177,car,car,0,0709_stg_s04_0_car_00_car4-car2.png
subject-04,1,710,1.06487512588501,dog,cat,0,0710_stg_s04_0_cat_00_cat6-bear1.png
subject-04,1,711,1.3149471282959,keyboard,dog,0,0711_stg_s04_0_dog_00_dog2-bottle2.png
subject-04,1,712,0.866067886352539,oven,car,0,0712_stg_s04_0_car_00_car5-knife2.png
subject-04,1,713,1.04619097709656,airplane,airplane,0,0713_stg_s04_0_airplane_00_airplane10-dog3.png
subject-04,1,714,1.49067211151123,elephant,knife,0,0714_stg_s04_0_knife_00_knife2-bird1.png
subject-04,1,715,1.00529193878174,elephant,boat,0,0715_stg_s04_0_boat_00_boat8-elephant1.png
subject-04,1,716,1.49265384674072,boat,boat,0,0716_stg_s04_0_boat_00_boat3-bicycle2.png
subject-04,1,717,0.737147092819214,car,boat,0,0717_stg_s04_0_boat_00_boat7-boat2.png
subject-04,1,718,0.72422194480896,truck,chair,0,0718_stg_s04_0_chair_00_chair7-chair1.png
subject-04,1,719,0.684998989105225,cat,keyboard,0,0719_stg_s04_0_keyboard_00_keyboard5-cat1.png
subject-04,1,720,0.743007183074951,bear,bear,0,0720_stg_s04_0_bear_00_bear1-bear3.png
subject-04,1,721,0.665374994277954,oven,cat,0,0721_stg_s04_0_cat_00_cat7-boat3.png
subject-04,1,722,0.698526859283447,cat,bicycle,0,0722_stg_s04_0_bicycle_00_bicycle7-bear2.png
subject-04,1,723,0.932542085647583,airplane,airplane,0,0723_stg_s04_0_airplane_00_airplane9-airplane2.png
subject-04,1,724,1.08204889297485,elephant,dog,0,0724_stg_s04_0_dog_00_dog10-elephant1.png
subject-04,1,725,1.03937387466431,dog,oven,0,0725_stg_s04_0_oven_00_oven4-dog1.png
subject-04,1,726,0.614958047866821,oven,dog,0,0726_stg_s04_0_dog_00_dog1-boat3.png
subject-04,1,727,1.08737802505493,truck,airplane,0,0727_stg_s04_0_airplane_00_airplane3-car1.png
subject-04,1,728,1.4070520401001,clock,bear,0,0728_stg_s04_0_bear_00_bear5-bottle1.png
subject-04,1,729,0.921168088912964,oven,oven,0,0729_stg_s04_0_oven_00_oven6-knife3.png
subject-04,1,730,1.09203910827637,dog,cat,0,0730_stg_s04_0_cat_00_cat9-cat3.png
subject-04,1,731,0.551505088806152,clock,airplane,0,0731_stg_s04_0_airplane_00_airplane7-clock3.png
subject-04,1,732,1.48396396636963,keyboard,cat,0,0732_stg_s04_0_cat_00_cat4-airplane1.png
subject-04,1,733,1.28183603286743,car,oven,0,0733_stg_s04_0_oven_00_oven4-bicycle2.png
subject-04,1,734,1.08797097206116,car,bear,0,0734_stg_s04_0_bear_00_bear8-boat2.png
subject-04,1,735,1.14670491218567,knife,bicycle,0,0735_stg_s04_0_bicycle_00_bicycle4-boat1.png
subject-04,1,736,1.06101393699646,clock,clock,0,0736_stg_s04_0_clock_00_clock7-bottle2.png
subject-04,1,737,0.718739986419678,car,knife,0,0737_stg_s04_0_knife_00_knife3-knife1.png
subject-04,1,738,0.872101068496704,truck,bird,0,0738_stg_s04_0_bird_00_bird7-knife2.png
subject-04,1,739,1.02916312217712,car,truck,0,0739_stg_s04_0_truck_00_truck9-boat3.png
subject-04,1,740,0.810531139373779,oven,dog,0,0740_stg_s04_0_dog_00_dog9-chair2.png
subject-04,1,741,0.601012945175171,cat,car,0,0741_stg_s04_0_car_00_car9-cat1.png
subject-04,1,742,1.24296689033508,boat,cat,0,0742_stg_s04_0_cat_00_cat2-knife3.png
subject-04,1,743,1.29223799705505,elephant,bicycle,0,0743_stg_s04_0_bicycle_00_bicycle6-airplane2.png
subject-04,1,744,0.819863080978394,cat,oven,0,0744_stg_s04_0_oven_00_oven9-bear2.png
subject-04,1,745,0.601647853851318,cat,chair,0,0745_stg_s04_0_chair_00_chair1-cat3.png
subject-04,1,746,0.78108811378479,bottle,bottle,0,0746_stg_s04_0_bottle_00_bottle10-car1.png
subject-04,1,747,1.36477780342102,car,bird,0,0747_stg_s04_0_bird_00_bird1-truck1.png
subject-04,1,748,1.27065801620483,bear,oven,0,0748_stg_s04_0_oven_00_oven7-elephant1.png
subject-04,1,749,1.13572192192078,bicycle,chair,0,0749_stg_s04_0_chair_00_chair7-bird1.png
subject-04,1,750,0.8072669506073,bird,bird,0,0750_stg_s04_0_bird_00_bird5-airplane3.png
subject-04,1,751,0.889250993728638,bottle,bird,0,0751_stg_s04_0_bird_00_bird6-boat2.png
subject-04,1,752,1.17610502243042,oven,bird,0,0752_stg_s04_0_bird_00_bird8-chair1.png
subject-04,1,753,0.573784112930298,car,car,0,0753_stg_s04_0_car_00_car1-car2.png
subject-04,1,754,0.751932144165039,oven,oven,0,0754_stg_s04_0_oven_00_oven10-boat2.png
subject-04,1,755,1.25421595573425,elephant,chair,0,0755_stg_s04_0_chair_00_chair8-elephant1.png
subject-04,1,756,0.805356025695801,clock,car,0,0756_stg_s04_0_car_00_car4-clock1.png
subject-04,1,757,1.14740180969238,car,boat,0,0757_stg_s04_0_boat_00_boat9-boat3.png
subject-04,1,758,0.861531972885132,oven,chair,0,0758_stg_s04_0_chair_00_chair4-chair3.png
subject-04,1,759,1.14889001846313,keyboard,keyboard,0,0759_stg_s04_0_keyboard_00_keyboard3-boat1.png
subject-04,1,760,1.40441298484802,dog,chair,0,0760_stg_s04_0_chair_00_chair7-elephant1.png
subject-04,1,761,1.0642249584198,car,bicycle,0,0761_stg_s04_0_bicycle_00_bicycle9-airplane2.png
subject-04,1,762,0.860438823699951,cat,airplane,0,0762_stg_s04_0_airplane_00_airplane2-bear1.png
subject-04,1,763,0.634411811828613,cat,clock,0,0763_stg_s04_0_clock_00_clock7-cat2.png
subject-04,1,764,1.06273198127747,chair,cat,0,0764_stg_s04_0_cat_00_cat4-chair2.png
subject-04,1,765,0.995638847351074,bottle,airplane,0,0765_stg_s04_0_airplane_00_airplane6-bottle2.png
subject-04,1,766,0.723259925842285,cat,bicycle,0,0766_stg_s04_0_bicycle_00_bicycle9-bird3.png
subject-04,1,767,1.22806119918823,airplane,boat,0,0767_stg_s04_0_boat_00_boat6-truck3.png
subject-04,1,768,0.687351942062378,bottle,bottle,0,0768_stg_s04_0_bottle_00_bottle3-bottle3.png
subject-04,1,769,0.614435911178589,oven,clock,0,0769_stg_s04_0_clock_00_clock6-truck3.png
subject-04,1,770,0.551002979278564,oven,boat,0,0770_stg_s04_0_boat_00_boat9-airplane2.png
subject-04,1,771,0.592208862304688,cat,boat,0,0771_stg_s04_0_boat_00_boat6-dog1.png
subject-04,1,772,0.496310949325562,clock,clock,0,0772_stg_s04_0_clock_00_clock5-clock2.png
subject-04,1,773,0.601676940917969,oven,truck,0,0773_stg_s04_0_truck_00_truck7-keyboard3.png
subject-04,1,774,0.952511072158813,car,bear,0,0774_stg_s04_0_bear_00_bear6-chair1.png
subject-04,1,775,1.03986620903015,chair,clock,0,0775_stg_s04_0_clock_00_clock7-bicycle1.png
subject-04,1,776,0.754879951477051,cat,bird,0,0776_stg_s04_0_bird_00_bird10-cat1.png
subject-04,1,777,0.6526939868927,oven,dog,0,0777_stg_s04_0_dog_00_dog1-knife3.png
subject-04,1,778,0.619488000869751,airplane,boat,0,0778_stg_s04_0_boat_00_boat3-chair3.png
subject-04,1,779,0.547544002532959,boat,bicycle,0,0779_stg_s04_0_bicycle_00_bicycle10-boat3.png
subject-04,1,780,0.683754920959473,boat,bear,0,0780_stg_s04_0_bear_00_bear7-bicycle2.png
subject-04,1,781,1.23368811607361,car,truck,0,0781_stg_s04_0_truck_00_truck3-car3.png
subject-04,1,782,0.615299940109253,cat,dog,0,0782_stg_s04_0_dog_00_dog1-dog2.png
subject-04,1,783,0.933996915817261,bottle,bottle,0,0783_stg_s04_0_bottle_00_bottle5-knife1.png
subject-04,1,784,0.976380109786987,elephant,dog,0,0784_stg_s04_0_dog_00_dog5-elephant1.png
subject-04,1,785,0.634420871734619,cat,truck,0,0785_stg_s04_0_truck_00_truck6-cat2.png
subject-04,1,786,0.762586116790771,bottle,elephant,0,0786_stg_s04_0_elephant_00_elephant1-bottle1.png
subject-04,1,787,0.821807146072388,bottle,boat,0,0787_stg_s04_0_boat_00_boat6-knife2.png
subject-04,1,788,0.625665903091431,cat,clock,0,0788_stg_s04_0_clock_00_clock8-bear2.png
subject-04,1,789,0.767685890197754,airplane,truck,0,0789_stg_s04_0_truck_00_truck2-keyboard1.png
subject-04,1,790,0.695864915847778,cat,clock,0,0790_stg_s04_0_clock_00_clock7-bear2.png
subject-04,1,791,0.690330982208252,bicycle,bird,0,0791_stg_s04_0_bird_00_bird10-bird2.png
subject-04,1,792,0.94061279296875,knife,elephant,0,0792_stg_s04_0_elephant_00_elephant3-oven1.png
subject-04,1,793,0.822679042816162,oven,chair,0,0793_stg_s04_0_chair_00_chair10-airplane2.png
subject-04,1,794,0.760227203369141,bottle,clock,0,0794_stg_s04_0_clock_00_clock10-bottle1.png
subject-04,1,795,0.942031860351562,oven,keyboard,0,0795_stg_s04_0_keyboard_00_keyboard9-bicycle2.png
subject-04,1,796,1.10005307197571,bear,elephant,0,0796_stg_s04_0_elephant_00_elephant6-cat2.png
subject-04,1,797,0.79593300819397,cat,clock,0,0797_stg_s04_0_clock_00_clock1-bear1.png
subject-04,1,798,0.970654964447021,dog,bottle,0,0798_stg_s04_0_bottle_00_bottle3-cat3.png
subject-04,1,799,1.22824192047119,car,keyboard,0,0799_stg_s04_0_keyboard_00_keyboard6-car2.png
subject-04,1,800,0.848675966262817,car,keyboard,0,0800_stg_s04_0_keyboard_00_keyboard5-knife2.png
subject-04,1,801,0.729856014251709,oven,oven,0,0801_stg_s04_0_oven_00_oven9-keyboard1.png
subject-04,1,802,0.78894305229187,clock,dog,0,0802_stg_s04_0_dog_00_dog10-clock1.png
subject-04,1,803,0.978494167327881,airplane,bird,0,0803_stg_s04_0_bird_00_bird7-oven3.png
subject-04,1,804,0.560256004333496,cat,elephant,0,0804_stg_s04_0_elephant_00_elephant3-cat2.png
subject-04,1,805,0.888520002365112,oven,bottle,0,0805_stg_s04_0_bottle_00_bottle9-keyboard1.png
subject-04,1,806,0.621768951416016,boat,boat,0,0806_stg_s04_0_boat_00_boat1-chair3.png
subject-04,1,807,0.803906917572021,keyboard,boat,0,0807_stg_s04_0_boat_00_boat4-elephant2.png
subject-04,1,808,1.31327414512634,elephant,truck,0,0808_stg_s04_0_truck_00_truck5-bird2.png
subject-04,1,809,1.11097598075867,dog,chair,0,0809_stg_s04_0_chair_00_chair8-bear1.png
subject-04,1,810,0.984805107116699,dog,bottle,0,0810_stg_s04_0_bottle_00_bottle1-bear1.png
subject-04,1,811,0.751484155654907,car,dog,0,0811_stg_s04_0_dog_00_dog4-chair1.png
subject-04,1,812,0.701117992401123,bottle,oven,0,0812_stg_s04_0_oven_00_oven7-bottle1.png
subject-04,1,813,0.790919065475464,airplane,bird,0,0813_stg_s04_0_bird_00_bird3-dog1.png
subject-04,1,814,1.03314018249512,dog,keyboard,0,0814_stg_s04_0_keyboard_00_keyboard5-bear3.png
subject-04,1,815,0.538863182067871,cat,car,0,0815_stg_s04_0_car_00_car8-dog1.png
subject-04,1,816,0.718745946884155,oven,cat,0,0816_stg_s04_0_cat_00_cat1-airplane1.png
subject-04,1,817,1.14431190490723,truck,knife,0,0817_stg_s04_0_knife_00_knife7-car2.png
subject-04,1,818,1.03368401527405,elephant,dog,0,0818_stg_s04_0_dog_00_dog4-elephant2.png
subject-04,1,819,0.624243021011353,bear,knife,0,0819_stg_s04_0_knife_00_knife1-bird2.png
subject-04,1,820,0.92054295539856,car,bird,0,0820_stg_s04_0_bird_00_bird8-knife2.png
subject-04,1,821,1.50015187263489,knife,chair,0,0821_stg_s04_0_chair_00_chair8-boat1.png
subject-04,1,822,0.629302978515625,cat,car,0,0822_stg_s04_0_car_00_car5-bear3.png
subject-04,1,823,0.809360980987549,bottle,chair,0,0823_stg_s04_0_chair_00_chair3-bottle3.png
subject-04,1,824,1.03746891021729,car,car,0,0824_stg_s04_0_car_00_car7-bird3.png
subject-04,1,825,0.681528091430664,cat,bear,0,0825_stg_s04_0_bear_00_bear10-bear2.png
subject-04,1,826,0.932275056838989,dog,car,0,0826_stg_s04_0_car_00_car7-bear1.png
subject-04,1,827,0.722534894943237,clock,chair,0,0827_stg_s04_0_chair_00_chair7-airplane1.png
subject-04,1,828,0.788291215896606,oven,knife,0,0828_stg_s04_0_knife_00_knife3-keyboard3.png
subject-04,1,829,0.692789793014526,bottle,dog,0,0829_stg_s04_0_dog_00_dog10-bottle1.png
subject-04,1,830,0.682176113128662,cat,bird,0,0830_stg_s04_0_bird_00_bird3-bear3.png
subject-04,1,831,0.78721809387207,car,keyboard,0,0831_stg_s04_0_keyboard_00_keyboard6-chair1.png
subject-04,1,832,1.06090092658997,truck,bear,0,0832_stg_s04_0_bear_00_bear2-bird3.png
subject-04,1,833,0.910473108291626,dog,airplane,0,0833_stg_s04_0_airplane_00_airplane6-bear3.png
subject-04,1,834,0.991522073745728,airplane,bird,0,0834_stg_s04_0_bird_00_bird3-oven1.png
subject-04,1,835,0.879962921142578,oven,clock,0,0835_stg_s04_0_clock_00_clock1-car1.png
subject-04,1,836,0.807234048843384,cat,truck,0,0836_stg_s04_0_truck_00_truck7-bear2.png
subject-04,1,837,0.780927896499634,clock,clock,0,0837_stg_s04_0_clock_00_clock1-truck3.png
subject-04,1,838,0.839094877243042,oven,airplane,0,0838_stg_s04_0_airplane_00_airplane8-bird1.png
subject-04,1,839,0.780333995819092,bicycle,car,0,0839_stg_s04_0_car_00_car4-bird1.png
subject-04,1,840,0.778151035308838,car,bear,0,0840_stg_s04_0_bear_00_bear3-bird3.png
subject-04,1,841,0.719919919967651,cat,bottle,0,0841_stg_s04_0_bottle_00_bottle9-cat2.png
subject-04,1,842,0.710233926773071,dog,bottle,0,0842_stg_s04_0_bottle_00_bottle7-bear1.png
subject-04,1,843,1.13581681251526,bird,dog,0,0843_stg_s04_0_dog_00_dog8-chair3.png
subject-04,1,844,0.863967180252075,boat,bird,0,0844_stg_s04_0_bird_00_bird9-bicycle3.png
subject-04,1,845,1.0621030330658,keyboard,chair,0,0845_stg_s04_0_chair_00_chair4-keyboard2.png
subject-04,1,846,0.711296796798706,oven,airplane,0,0846_stg_s04_0_airplane_00_airplane1-bicycle2.png
subject-04,1,847,0.854993104934692,boat,bottle,0,0847_stg_s04_0_bottle_00_bottle6-boat3.png
subject-04,1,848,1.3649730682373,boat,clock,0,0848_stg_s04_0_clock_00_clock8-airplane2.png
subject-04,1,849,1.0681140422821,airplane,clock,0,0849_stg_s04_0_clock_00_clock6-oven1.png
subject-04,1,850,0.912523031234741,airplane,cat,0,0850_stg_s04_0_cat_00_cat8-bird2.png
subject-04,1,851,0.95374584197998,keyboard,elephant,0,0851_stg_s04_0_elephant_00_elephant3-keyboard2.png
subject-04,1,852,1.15788722038269,elephant,dog,0,0852_stg_s04_0_dog_00_dog3-elephant2.png
subject-04,1,853,0.847018957138062,oven,oven,0,0853_stg_s04_0_oven_00_oven10-airplane2.png
subject-04,1,854,1.05980896949768,car,chair,0,0854_stg_s04_0_chair_00_chair7-truck3.png
subject-04,1,855,0.757220983505249,cat,bear,0,0855_stg_s04_0_bear_00_bear7-bear2.png
subject-04,1,856,0.706913232803345,clock,bear,0,0856_stg_s04_0_bear_00_bear4-knife1.png
subject-04,1,857,0.80221700668335,dog,knife,0,0857_stg_s04_0_knife_00_knife2-bear2.png
subject-04,1,858,0.873562097549438,car,bear,0,0858_stg_s04_0_bear_00_bear5-chair1.png
subject-04,1,859,0.671636819839478,car,boat,0,0859_stg_s04_0_boat_00_boat1-car2.png
subject-04,1,860,0.766363859176636,car,bottle,0,0860_stg_s04_0_bottle_00_bottle10-boat3.png
subject-04,1,861,0.579278945922852,clock,car,0,0861_stg_s04_0_car_00_car7-clock1.png
subject-04,1,862,0.590061902999878,oven,car,0,0862_stg_s04_0_car_00_car9-truck3.png
subject-04,1,863,0.826719045639038,keyboard,airplane,0,0863_stg_s04_0_airplane_00_airplane3-keyboard2.png
subject-04,1,864,0.754304170608521,keyboard,car,0,0864_stg_s04_0_car_00_car1-clock2.png
subject-04,1,865,0.717752933502197,clock,truck,0,0865_stg_s04_0_truck_00_truck3-clock3.png
subject-04,1,866,0.729793071746826,clock,truck,0,0866_stg_s04_0_truck_00_truck6-bottle3.png
subject-04,1,867,1.27131199836731,elephant,bottle,0,0867_stg_s04_0_bottle_00_bottle9-elephant2.png
subject-04,1,868,0.839241981506348,airplane,bird,0,0868_stg_s04_0_bird_00_bird5-truck2.png
subject-04,1,869,1.0348858833313,dog,truck,0,0869_stg_s04_0_truck_00_truck1-bear1.png
subject-04,1,870,0.762550115585327,clock,boat,0,0870_stg_s04_0_boat_00_boat2-airplane1.png
subject-04,1,871,0.929795026779175,keyboard,bird,0,0871_stg_s04_0_bird_00_bird5-keyboard2.png
subject-04,1,872,1.47979402542114,airplane,elephant,0,0872_stg_s04_0_elephant_00_elephant6-dog2.png
subject-04,1,873,0.745215892791748,clock,boat,0,0873_stg_s04_0_boat_00_boat1-oven1.png
subject-04,1,874,1.11062908172607,car,dog,0,0874_stg_s04_0_dog_00_dog6-bird1.png
subject-04,1,875,0.722027063369751,boat,bicycle,0,0875_stg_s04_0_bicycle_00_bicycle4-truck3.png
subject-04,1,876,0.917724132537842,dog,knife,0,0876_stg_s04_0_knife_00_knife9-bear3.png
subject-04,1,877,1.36785411834717,boat,bicycle,0,0877_stg_s04_0_bicycle_00_bicycle1-bird1.png
subject-04,1,878,1.01184797286987,knife,oven,0,0878_stg_s04_0_oven_00_oven5-bicycle1.png
subject-04,1,879,0.88508415222168,clock,dog,0,0879_stg_s04_0_dog_00_dog9-boat1.png
subject-04,1,880,0.627061128616333,clock,knife,0,0880_stg_s04_0_knife_00_knife8-car2.png
subject-04,1,881,0.738515138626099,keyboard,airplane,0,0881_stg_s04_0_airplane_00_airplane5-oven3.png
subject-04,1,882,0.750391006469727,car,boat,0,0882_stg_s04_0_boat_00_boat4-bicycle3.png
subject-04,1,883,0.724027156829834,cat,oven,0,0883_stg_s04_0_oven_00_oven3-bear2.png
subject-04,1,884,0.674171924591064,clock,dog,0,0884_stg_s04_0_dog_00_dog3-clock1.png
subject-04,1,885,0.964091062545776,keyboard,oven,0,0885_stg_s04_0_oven_00_oven9-knife3.png
subject-04,1,886,0.906705141067505,keyboard,truck,0,0886_stg_s04_0_truck_00_truck9-bottle2.png
subject-04,1,887,1.42647290229797,cat,airplane,0,0887_stg_s04_0_airplane_00_airplane4-keyboard3.png
subject-04,1,888,0.592550992965698,clock,knife,0,0888_stg_s04_0_knife_00_knife5-clock1.png
subject-04,1,889,0.773941040039062,oven,bird,0,0889_stg_s04_0_bird_00_bird1-knife3.png
subject-04,1,890,0.791131973266602,keyboard,car,0,0890_stg_s04_0_car_00_car7-car1.png
subject-04,1,891,1.32556414604187,clock,elephant,0,0891_stg_s04_0_elephant_00_elephant4-car3.png
subject-04,1,892,0.801470994949341,airplane,bicycle,0,0892_stg_s04_0_bicycle_00_bicycle3-keyboard1.png
subject-04,1,893,0.851218938827515,boat,cat,0,0893_stg_s04_0_cat_00_cat6-chair3.png
subject-04,1,894,0.649523973464966,keyboard,truck,0,0894_stg_s04_0_truck_00_truck6-knife2.png
subject-04,1,895,0.745014905929565,clock,bird,0,0895_stg_s04_0_bird_00_bird5-oven3.png
subject-04,1,896,0.933161973953247,keyboard,car,0,0896_stg_s04_0_car_00_car1-keyboard2.png
subject-04,1,897,0.706433057785034,clock,bird,0,0897_stg_s04_0_bird_00_bird4-clock1.png
subject-04,1,898,0.735008955001831,bottle,cat,0,0898_stg_s04_0_cat_00_cat7-bottle1.png
subject-04,1,899,1.28341317176819,elephant,bottle,0,0899_stg_s04_0_bottle_00_bottle7-elephant2.png
subject-04,1,900,0.980948925018311,keyboard,keyboard,0,0900_stg_s04_0_keyboard_00_keyboard10-keyboard1.png
subject-04,1,901,0.593324899673462,clock,bear,0,0901_stg_s04_0_bear_00_bear7-clock1.png
subject-04,1,902,1.19191122055054,cat,dog,0,0902_stg_s04_0_dog_00_dog2-cat1.png
subject-04,1,903,1.2338650226593,car,clock,0,0903_stg_s04_0_clock_00_clock1-boat3.png
subject-04,1,904,1.32950091362,bird,oven,0,0904_stg_s04_0_oven_00_oven2-car1.png
subject-04,1,905,0.925318002700806,keyboard,bicycle,0,0905_stg_s04_0_bicycle_00_bicycle1-boat3.png
subject-04,1,906,0.677167892456055,clock,bear,0,0906_stg_s04_0_bear_00_bear2-airplane1.png
subject-04,1,907,0.751841068267822,car,truck,0,0907_stg_s04_0_truck_00_truck1-bicycle3.png
subject-04,1,908,1.24057197570801,dog,bottle,0,0908_stg_s04_0_bottle_00_bottle1-dog2.png
subject-04,1,909,1.20095705986023,car,bird,0,0909_stg_s04_0_bird_00_bird10-chair1.png
subject-04,1,910,0.829444885253906,keyboard,cat,0,0910_stg_s04_0_cat_00_cat5-keyboard3.png
subject-04,1,911,1.15506601333618,clock,knife,0,0911_stg_s04_0_knife_00_knife10-knife1.png
subject-04,1,912,0.852648019790649,airplane,knife,0,0912_stg_s04_0_knife_00_knife1-chair1.png
subject-04,1,913,0.756059885025024,bicycle,clock,0,0913_stg_s04_0_clock_00_clock3-bird1.png
subject-04,1,914,1.13216400146484,car,chair,0,0914_stg_s04_0_chair_00_chair10-car2.png
subject-04,1,915,0.727433204650879,car,car,0,0915_stg_s04_0_car_00_car8-boat3.png
subject-04,1,916,0.831593990325928,oven,bicycle,0,0916_stg_s04_0_bicycle_00_bicycle7-knife2.png
subject-04,1,917,0.628993034362793,cat,oven,0,0917_stg_s04_0_oven_00_oven2-bear3.png
subject-04,1,918,0.803749799728394,knife,chair,0,0918_stg_s04_0_chair_00_chair10-bicycle1.png
subject-04,1,919,1.08303093910217,keyboard,cat,0,0919_stg_s04_0_cat_00_cat4-keyboard2.png
subject-04,1,920,0.979097843170166,keyboard,chair,0,0920_stg_s04_0_chair_00_chair8-keyboard3.png
subject-04,1,921,1.12337303161621,car,dog,0,0921_stg_s04_0_dog_00_dog1-bird1.png
subject-04,1,922,1.12653422355652,bird,bicycle,0,0922_stg_s04_0_bicycle_00_bicycle1-bicycle3.png
subject-04,1,923,1.13894391059875,dog,bottle,0,0923_stg_s04_0_bottle_00_bottle8-elephant3.png
subject-04,1,924,0.972342967987061,bottle,bird,0,0924_stg_s04_0_bird_00_bird3-bottle2.png
subject-04,1,925,0.924921989440918,keyboard,chair,0,0925_stg_s04_0_chair_00_chair9-boat2.png
subject-04,1,926,0.691119909286499,car,airplane,0,0926_stg_s04_0_airplane_00_airplane8-chair1.png
subject-04,1,927,1.50031590461731,airplane,car,0,0927_stg_s04_0_car_00_car4-oven2.png
subject-04,1,928,1.28391599655151,elephant,elephant,0,0928_stg_s04_0_elephant_00_elephant8-elephant1.png
subject-04,1,929,1.15010786056519,car,clock,0,0929_stg_s04_0_clock_00_clock7-boat3.png
subject-04,1,930,1.50040698051453,dog,bicycle,0,0930_stg_s04_0_bicycle_00_bicycle10-dog3.png
subject-04,1,931,0.741841077804565,cat,bird,0,0931_stg_s04_0_bird_00_bird5-cat2.png
subject-04,1,932,0.612882852554321,clock,chair,0,0932_stg_s04_0_chair_00_chair10-clock1.png
subject-04,1,933,0.970902919769287,dog,clock,0,0933_stg_s04_0_clock_00_clock2-dog1.png
subject-04,1,934,0.83188796043396,oven,bicycle,0,0934_stg_s04_0_bicycle_00_bicycle2-bird3.png
subject-04,1,935,1.25782299041748,clock,car,0,0935_stg_s04_0_car_00_car8-knife2.png
subject-04,1,936,0.853117942810059,cat,clock,0,0936_stg_s04_0_clock_00_clock6-bird3.png
subject-04,1,937,0.843564987182617,car,car,0,0937_stg_s04_0_car_00_car10-chair1.png
subject-04,1,938,0.784790992736816,car,keyboard,0,0938_stg_s04_0_keyboard_00_keyboard7-car3.png
subject-04,1,939,1.18384909629822,airplane,boat,0,0939_stg_s04_0_boat_00_boat8-oven1.png
subject-04,1,940,1.36256408691406,keyboard,bicycle,0,0940_stg_s04_0_bicycle_00_bicycle4-airplane1.png
subject-04,1,941,0.852507829666138,clock,keyboard,0,0941_stg_s04_0_keyboard_00_keyboard1-clock1.png
subject-04,1,942,1.11103391647339,car,dog,0,0942_stg_s04_0_dog_00_dog9-bicycle3.png
subject-04,1,943,1.35279703140259,dog,cat,0,0943_stg_s04_0_cat_00_cat10-bear1.png
subject-04,1,944,0.826095104217529,elephant,chair,0,0944_stg_s04_0_chair_00_chair1-elephant1.png
subject-04,1,945,0.70033597946167,clock,clock,0,0945_stg_s04_0_clock_00_clock2-bottle3.png
subject-04,1,946,1.47999286651611,boat,car,0,0946_stg_s04_0_car_00_car6-chair3.png
subject-04,1,947,0.777709007263184,elephant,airplane,0,0947_stg_s04_0_airplane_00_airplane3-elephant1.png
subject-04,1,948,0.727497100830078,oven,oven,0,0948_stg_s04_0_oven_00_oven5-bird1.png
subject-04,1,949,1.05510592460632,car,bird,0,0949_stg_s04_0_bird_00_bird7-boat1.png
subject-04,1,950,0.642762899398804,clock,chair,0,0950_stg_s04_0_chair_00_chair10-bottle3.png
subject-04,1,951,0.611099004745483,clock,clock,0,0951_stg_s04_0_clock_00_clock8-boat1.png
subject-04,1,952,0.983021974563599,elephant,bear,0,0952_stg_s04_0_bear_00_bear2-elephant1.png
subject-04,1,953,0.548524141311646,clock,bottle,0,0953_stg_s04_0_bottle_00_bottle5-clock3.png
subject-04,1,954,0.760685920715332,keyboard,airplane,0,0954_stg_s04_0_airplane_00_airplane5-bicycle1.png
subject-04,1,955,0.751150131225586,cat,airplane,0,0955_stg_s04_0_airplane_00_airplane2-cat1.png
subject-04,1,956,0.557154893875122,cat,keyboard,0,0956_stg_s04_0_keyboard_00_keyboard3-cat1.png
subject-04,1,957,1.39209604263306,clock,dog,0,0957_stg_s04_0_dog_00_dog7-knife3.png
subject-04,1,958,0.760514974594116,dog,truck,0,0958_stg_s04_0_truck_00_truck5-dog3.png
subject-04,1,959,1.04004907608032,keyboard,cat,0,0959_stg_s04_0_cat_00_cat1-keyboard3.png
subject-04,1,960,0.805532217025757,keyboard,dog,0,0960_stg_s04_0_dog_00_dog7-oven2.png
subject-04,1,961,1.42594695091248,airplane,chair,0,0961_stg_s04_0_chair_00_chair1-truck3.png
subject-04,1,962,0.868005990982056,cat,airplane,0,0962_stg_s04_0_airplane_00_airplane10-cat2.png
subject-04,1,963,0.881496906280518,dog,elephant,0,0963_stg_s04_0_elephant_00_elephant8-dog1.png
subject-04,1,964,0.864501953125,dog,dog,0,0964_stg_s04_0_dog_00_dog4-cat3.png
subject-04,1,965,1.50002193450928,bicycle,bottle,0,0965_stg_s04_0_bottle_00_bottle5-chair1.png
subject-04,1,966,0.935090065002441,dog,boat,0,0966_stg_s04_0_boat_00_boat1-bear1.png
subject-04,1,967,1.16791415214539,clock,airplane,0,0967_stg_s04_0_airplane_00_airplane2-bird3.png
subject-04,1,968,0.744603157043457,clock,keyboard,0,0968_stg_s04_0_keyboard_00_keyboard7-clock3.png
subject-04,1,969,1.04784107208252,keyboard,dog,0,0969_stg_s04_0_dog_00_dog6-truck2.png
subject-04,1,970,0.827171087265015,keyboard,cat,0,0970_stg_s04_0_cat_00_cat4-oven1.png
subject-04,1,971,1.06407690048218,cat,keyboard,0,0971_stg_s04_0_keyboard_00_keyboard9-cat1.png
subject-04,1,972,0.584243059158325,clock,elephant,0,0972_stg_s04_0_elephant_00_elephant2-clock1.png
subject-04,1,973,0.988219976425171,car,keyboard,0,0973_stg_s04_0_keyboard_00_keyboard2-bicycle3.png
subject-04,1,974,0.816528081893921,boat,oven,0,0974_stg_s04_0_oven_00_oven6-chair3.png
subject-04,1,975,0.569024085998535,boat,truck,0,0975_stg_s04_0_truck_00_truck9-chair3.png
subject-04,1,976,1.10191202163696,dog,bicycle,0,0976_stg_s04_0_bicycle_00_bicycle5-bear1.png
subject-04,1,977,1.4900050163269,knife,dog,0,0977_stg_s04_0_dog_00_dog10-bicycle1.png
subject-04,1,978,0.703744888305664,bottle,airplane,0,0978_stg_s04_0_airplane_00_airplane5-chair3.png
subject-04,1,979,0.961719989776611,car,airplane,0,0979_stg_s04_0_airplane_00_airplane10-car3.png
subject-04,1,980,0.706701040267944,keyboard,elephant,0,0980_stg_s04_0_elephant_00_elephant2-keyboard3.png
subject-04,1,981,0.702040195465088,boat,truck,0,0981_stg_s04_0_truck_00_truck1-bird1.png
subject-04,1,982,0.738800048828125,bottle,bottle,0,0982_stg_s04_0_bottle_00_bottle8-bicycle1.png
subject-04,1,983,0.728081941604614,car,bird,0,0983_stg_s04_0_bird_00_bird7-truck2.png
subject-04,1,984,0.715430974960327,oven,cat,0,0984_stg_s04_0_cat_00_cat5-airplane2.png
subject-04,1,985,0.627533912658691,clock,elephant,0,0985_stg_s04_0_elephant_00_elephant1-car3.png
subject-04,1,986,0.694141864776611,car,bottle,0,0986_stg_s04_0_bottle_00_bottle7-truck2.png
subject-04,1,987,1.05995297431946,dog,bird,0,0987_stg_s04_0_bird_00_bird5-bear3.png
subject-04,1,988,0.71799898147583,oven,boat,0,0988_stg_s04_0_boat_00_boat1-bicycle2.png
subject-04,1,989,0.723839998245239,car,clock,0,0989_stg_s04_0_clock_00_clock4-chair1.png
subject-04,1,990,0.705806970596313,keyboard,bottle,0,0990_stg_s04_0_bottle_00_bottle1-keyboard3.png
subject-04,1,991,0.764333009719849,clock,bicycle,0,0991_stg_s04_0_bicycle_00_bicycle4-chair2.png
subject-04,1,992,1.25952577590942,airplane,boat,0,0992_stg_s04_0_boat_00_boat9-bird1.png
subject-04,1,993,1.44762110710144,elephant,boat,0,0993_stg_s04_0_boat_00_boat7-elephant3.png
subject-04,1,994,0.683296918869019,car,elephant,0,0994_stg_s04_0_elephant_00_elephant2-truck2.png
subject-04,1,995,0.87257981300354,airplane,airplane,0,0995_stg_s04_0_airplane_00_airplane9-oven2.png
subject-04,1,996,0.669071912765503,car,dog,0,0996_stg_s04_0_dog_00_dog10-truck2.png
subject-04,1,997,0.997118949890137,chair,keyboard,0,0997_stg_s04_0_keyboard_00_keyboard6-knife2.png
subject-04,1,998,0.902987003326416,dog,chair,0,0998_stg_s04_0_chair_00_chair9-bear1.png
subject-04,1,999,0.874999046325684,chair,bear,0,0999_stg_s04_0_bear_00_bear10-chair2.png
subject-04,1,1000,1.14749598503113,dog,truck,0,1000_stg_s04_0_truck_00_truck8-cat2.png
subject-04,1,1001,1.2588050365448,bird,bottle,0,1001_stg_s04_0_bottle_00_bottle1-car1.png
subject-04,1,1002,0.571676015853882,clock,knife,0,1002_stg_s04_0_knife_00_knife6-knife1.png
subject-04,1,1003,0.592246055603027,clock,bicycle,0,1003_stg_s04_0_bicycle_00_bicycle4-clock3.png
subject-04,1,1004,0.62014102935791,keyboard,keyboard,0,1004_stg_s04_0_keyboard_00_keyboard8-keyboard2.png
subject-04,1,1005,1.03840303421021,dog,truck,0,1005_stg_s04_0_truck_00_truck3-cat1.png
subject-04,1,1006,0.989818811416626,elephant,bottle,0,1006_stg_s04_0_bottle_00_bottle5-elephant1.png
subject-04,1,1007,0.602313041687012,clock,clock,0,1007_stg_s04_0_clock_00_clock9-chair3.png
subject-04,1,1008,0.991949081420898,keyboard,truck,0,1008_stg_s04_0_truck_00_truck3-keyboard3.png
subject-04,1,1009,1.30405902862549,bicycle,truck,0,1009_stg_s04_0_truck_00_truck2-airplane3.png
subject-04,1,1010,1.15336298942566,clock,bicycle,0,1010_stg_s04_0_bicycle_00_bicycle4-bottle1.png
subject-04,1,1011,0.506019115447998,oven,truck,0,1011_stg_s04_0_truck_00_truck3-oven2.png
subject-04,1,1012,0.763762950897217,keyboard,keyboard,0,1012_stg_s04_0_keyboard_00_keyboard9-keyboard2.png
subject-04,1,1013,1.28969502449036,dog,airplane,0,1013_stg_s04_0_airplane_00_airplane4-cat3.png
subject-04,1,1014,1.39323401451111,keyboard,keyboard,0,1014_stg_s04_0_keyboard_00_keyboard1-chair2.png
subject-04,1,1015,1.05910801887512,keyboard,cat,0,1015_stg_s04_0_cat_00_cat3-oven2.png
subject-04,1,1016,0.74001407623291,car,bottle,0,1016_stg_s04_0_bottle_00_bottle6-bicycle3.png
subject-04,1,1017,0.898751020431519,car,elephant,0,1017_stg_s04_0_elephant_00_elephant8-knife2.png
subject-04,1,1018,0.750706195831299,car,keyboard,0,1018_stg_s04_0_keyboard_00_keyboard1-airplane2.png
subject-04,1,1019,1.36813592910767,elephant,oven,0,1019_stg_s04_0_oven_00_oven5-elephant1.png
subject-04,1,1020,1.46383190155029,bicycle,cat,0,1020_stg_s04_0_cat_00_cat8-bicycle3.png
subject-04,1,1021,1.22394800186157,cat,oven,0,1021_stg_s04_0_oven_00_oven1-dog3.png
subject-04,1,1022,0.882238149642944,keyboard,bear,0,1022_stg_s04_0_bear_00_bear7-oven3.png
subject-04,1,1023,0.972109079360962,dog,bottle,0,1023_stg_s04_0_bottle_00_bottle8-dog2.png
subject-04,1,1024,0.784417152404785,clock,dog,0,1024_stg_s04_0_dog_00_dog8-clock2.png
subject-04,1,1025,1.17625093460083,boat,car,0,1025_stg_s04_0_car_00_car9-bird1.png
subject-04,1,1026,1.38853096961975,elephant,bicycle,0,1026_stg_s04_0_bicycle_00_bicycle6-dog2.png
subject-04,1,1027,0.801331996917725,keyboard,keyboard,0,1027_stg_s04_0_keyboard_00_keyboard5-oven2.png
subject-04,1,1028,0.7899169921875,oven,truck,0,1028_stg_s04_0_truck_00_truck2-elephant1.png
subject-04,1,1029,0.533250093460083,clock,bicycle,0,1029_stg_s04_0_bicycle_00_bicycle10-clock2.png
subject-04,1,1030,1.47596907615662,dog,knife,0,1030_stg_s04_0_knife_00_knife6-dog2.png
subject-04,1,1031,0.644198894500732,cat,truck,0,1031_stg_s04_0_truck_00_truck3-dog3.png
subject-04,1,1032,1.05311489105225,keyboard,keyboard,0,1032_stg_s04_0_keyboard_00_keyboard8-chair2.png
subject-04,1,1033,1.01138997077942,elephant,bear,0,1033_stg_s04_0_bear_00_bear10-elephant1.png
subject-04,1,1034,0.649908065795898,car,bottle,0,1034_stg_s04_0_bottle_00_bottle4-truck1.png
subject-04,1,1035,0.514676094055176,oven,bear,0,1035_stg_s04_0_bear_00_bear1-elephant1.png
subject-04,1,1036,1.14068508148193,boat,dog,0,1036_stg_s04_0_dog_00_dog8-boat3.png
subject-04,1,1037,0.768935203552246,cat,elephant,0,1037_stg_s04_0_elephant_00_elephant2-cat1.png
subject-04,1,1038,0.856081962585449,bottle,keyboard,0,1038_stg_s04_0_keyboard_00_keyboard4-bottle2.png
subject-04,1,1039,0.830447912216187,dog,keyboard,0,1039_stg_s04_0_keyboard_00_keyboard1-bear2.png
subject-04,1,1040,0.742053985595703,bottle,dog,0,1040_stg_s04_0_dog_00_dog9-bottle1.png
subject-04,1,1041,0.685755968093872,cat,clock,0,1041_stg_s04_0_clock_00_clock3-elephant3.png
subject-04,1,1042,0.652342081069946,bottle,boat,0,1042_stg_s04_0_boat_00_boat4-boat3.png
subject-04,1,1043,0.593786954879761,clock,car,0,1043_stg_s04_0_car_00_car8-clock2.png
subject-04,1,1044,1.05112099647522,dog,bird,0,1044_stg_s04_0_bird_00_bird10-bear2.png
subject-04,1,1045,0.715656995773315,keyboard,knife,0,1045_stg_s04_0_knife_00_knife8-boat1.png
subject-04,1,1046,0.773416996002197,oven,oven,0,1046_stg_s04_0_oven_00_oven8-knife2.png
subject-04,1,1047,0.786611795425415,car,car,0,1047_stg_s04_0_car_00_car4-boat1.png
subject-04,1,1048,1.21944999694824,cat,chair,0,1048_stg_s04_0_chair_00_chair6-dog1.png
subject-04,1,1049,0.57989501953125,cat,cat,0,1049_stg_s04_0_cat_00_cat3-bear2.png
subject-04,1,1050,1.23720288276672,oven,car,0,1050_stg_s04_0_car_00_car3-airplane3.png
subject-04,1,1051,0.543508052825928,car,truck,0,1051_stg_s04_0_truck_00_truck10-car3.png
subject-04,1,1052,0.723162174224854,clock,oven,0,1052_stg_s04_0_oven_00_oven5-bottle3.png
subject-04,1,1053,0.780666828155518,bottle,bottle,0,1053_stg_s04_0_bottle_00_bottle9-car3.png
subject-04,1,1054,0.770035982131958,bottle,knife,0,1054_stg_s04_0_knife_00_knife6-bottle3.png
subject-04,1,1055,0.987959861755371,oven,dog,0,1055_stg_s04_0_dog_00_dog3-bird2.png
subject-04,1,1056,1.30029797554016,knife,oven,0,1056_stg_s04_0_oven_00_oven7-oven1.png
subject-04,1,1057,1.14414596557617,chair,knife,0,1057_stg_s04_0_knife_00_knife5-keyboard3.png
subject-04,1,1058,0.610020160675049,clock,bicycle,0,1058_stg_s04_0_bicycle_00_bicycle4-keyboard3.png
subject-04,1,1059,1.29727005958557,bicycle,bicycle,0,1059_stg_s04_0_bicycle_00_bicycle4-knife3.png
subject-04,1,1060,0.933864831924438,car,dog,0,1060_stg_s04_0_dog_00_dog5-car3.png
subject-04,1,1061,0.845782041549683,car,clock,0,1061_stg_s04_0_clock_00_clock3-car2.png
subject-04,1,1062,1.38747692108154,keyboard,airplane,0,1062_stg_s04_0_airplane_00_airplane4-airplane1.png
subject-04,1,1063,1.1911768913269,bottle,airplane,0,1063_stg_s04_0_airplane_00_airplane7-boat2.png
subject-04,1,1064,1.01326203346252,bird,bird,0,1064_stg_s04_0_bird_00_bird6-airplane2.png
subject-04,1,1065,0.975745916366577,oven,airplane,0,1065_stg_s04_0_airplane_00_airplane7-keyboard1.png
subject-04,1,1066,1.50033903121948,chair,cat,0,1066_stg_s04_0_cat_00_cat1-chair2.png
subject-04,1,1067,0.530686140060425,clock,chair,0,1067_stg_s04_0_chair_00_chair1-clock2.png
subject-04,1,1068,0.873613119125366,car,knife,0,1068_stg_s04_0_knife_00_knife1-truck2.png
subject-04,1,1069,0.631564140319824,cat,bicycle,0,1069_stg_s04_0_bicycle_00_bicycle9-bear1.png
subject-04,1,1070,0.643155813217163,cat,bird,0,1070_stg_s04_0_bird_00_bird1-bear1.png
subject-04,1,1071,0.711619138717651,oven,bicycle,0,1071_stg_s04_0_bicycle_00_bicycle10-airplane2.png
subject-04,1,1072,0.661317825317383,boat,keyboard,0,1072_stg_s04_0_keyboard_00_keyboard10-truck1.png
subject-04,1,1073,1.21875882148743,dog,oven,0,1073_stg_s04_0_oven_00_oven5-dog3.png
subject-04,1,1074,1.46069288253784,truck,bird,0,1074_stg_s04_0_bird_00_bird4-bicycle2.png
subject-04,1,1075,0.612780094146729,cat,keyboard,0,1075_stg_s04_0_keyboard_00_keyboard9-elephant2.png
subject-04,1,1076,0.589243173599243,clock,truck,0,1076_stg_s04_0_truck_00_truck6-clock2.png
subject-04,1,1077,0.730205059051514,oven,keyboard,0,1077_stg_s04_0_keyboard_00_keyboard1-elephant3.png
subject-04,1,1078,1.39463996887207,dog,bear,0,1078_stg_s04_0_bear_00_bear2-dog1.png
subject-04,1,1079,0.670021057128906,bottle,bear,0,1079_stg_s04_0_bear_00_bear8-bottle1.png
subject-04,1,1080,0.874443054199219,keyboard,chair,0,1080_stg_s04_0_chair_00_chair5-keyboard2.png
subject-04,1,1081,0.678347110748291,car,elephant,0,1081_stg_s04_0_elephant_00_elephant1-chair1.png
subject-04,1,1082,0.636029005050659,cat,boat,0,1082_stg_s04_0_boat_00_boat9-cat3.png
subject-04,1,1083,0.717434883117676,clock,keyboard,0,1083_stg_s04_0_keyboard_00_keyboard5-airplane3.png
subject-04,1,1084,0.858227014541626,oven,keyboard,0,1084_stg_s04_0_keyboard_00_keyboard5-bird3.png
subject-04,1,1085,0.607576131820679,clock,airplane,0,1085_stg_s04_0_airplane_00_airplane10-airplane1.png
subject-04,1,1086,0.781278133392334,car,cat,0,1086_stg_s04_0_cat_00_cat4-bird2.png
subject-04,1,1087,0.776504039764404,cat,clock,0,1087_stg_s04_0_clock_00_clock10-cat1.png
subject-04,1,1088,1.00463914871216,oven,oven,0,1088_stg_s04_0_oven_00_oven4-keyboard3.png
subject-04,1,1089,1.4845860004425,bird,chair,0,1089_stg_s04_0_chair_00_chair1-airplane2.png
subject-04,1,1090,0.898308992385864,bottle,bird,0,1090_stg_s04_0_bird_00_bird8-car2.png
subject-04,1,1091,0.742116928100586,boat,boat,0,1091_stg_s04_0_boat_00_boat8-bird2.png
subject-04,1,1092,0.902792930603027,cat,bicycle,0,1092_stg_s04_0_bicycle_00_bicycle6-cat1.png
subject-04,1,1093,0.938237905502319,chair,clock,0,1093_stg_s04_0_clock_00_clock4-bird3.png
subject-04,1,1094,0.728554964065552,bottle,bird,0,1094_stg_s04_0_bird_00_bird7-bottle1.png
subject-04,1,1095,1.2170090675354,truck,knife,0,1095_stg_s04_0_knife_00_knife7-boat3.png
subject-04,1,1096,1.47441482543945,knife,dog,0,1096_stg_s04_0_dog_00_dog2-knife3.png
subject-04,1,1097,0.68084979057312,cat,car,0,1097_stg_s04_0_car_00_car8-bear1.png
subject-04,1,1098,1.26816701889038,cat,chair,0,1098_stg_s04_0_chair_00_chair3-dog2.png
subject-04,1,1099,1.41869115829468,elephant,knife,0,1099_stg_s04_0_knife_00_knife7-elephant2.png
