subj,session,trial,rt,object_response,category,condition,imagename
subject-03,1,1,NaN,na,bicycle,0,0001_stg_s03_0_bicycle_00_bicycle2-bottle1.png
subject-03,1,2,0.853034973144531,chair,chair,0,0002_stg_s03_0_chair_00_chair8-oven1.png
subject-03,1,3,0.796284914016724,car,truck,0,0003_stg_s03_0_truck_00_truck4-bottle2.png
subject-03,1,4,0.793823003768921,boat,boat,0,0004_stg_s03_0_boat_00_boat1-oven1.png
subject-03,1,5,1.10796499252319,boat,boat,0,0005_stg_s03_0_boat_00_boat8-knife1.png
subject-03,1,6,1.13783311843872,keyboard,keyboard,0,0006_stg_s03_0_keyboard_00_keyboard7-bottle1.png
subject-03,1,7,0.997667074203491,elephant,airplane,0,0007_stg_s03_0_airplane_00_airplane5-bird2.png
subject-03,1,8,NaN,na,boat,0,0008_stg_s03_0_boat_00_boat7-keyboard3.png
subject-03,1,9,1.13063883781433,keyboard,keyboard,0,0009_stg_s03_0_keyboard_00_keyboard9-truck3.png
subject-03,1,10,1.19111299514771,boat,airplane,0,0010_stg_s03_0_airplane_00_airplane7-keyboard1.png
subject-03,1,11,NaN,na,keyboard,0,0011_stg_s03_0_keyboard_00_keyboard7-car3.png
subject-03,1,12,NaN,na,bear,0,0012_stg_s03_0_bear_00_bear10-bottle1.png
subject-03,1,13,1.19068479537964,cat,keyboard,0,0013_stg_s03_0_keyboard_00_keyboard7-dog1.png
subject-03,1,14,0.859395980834961,elephant,bear,0,0014_stg_s03_0_bear_00_bear1-elephant1.png
subject-03,1,15,1.23285984992981,keyboard,oven,0,0015_stg_s03_0_oven_00_oven3-airplane1.png
subject-03,1,16,1.23944187164307,oven,elephant,0,0016_stg_s03_0_elephant_00_elephant8-knife2.png
subject-03,1,17,0.906719923019409,clock,truck,0,0017_stg_s03_0_truck_00_truck6-cat2.png
subject-03,1,18,1.11247491836548,boat,chair,0,0018_stg_s03_0_chair_00_chair4-bear2.png
subject-03,1,19,1.33459305763245,knife,airplane,0,0019_stg_s03_0_airplane_00_airplane9-boat1.png
subject-03,1,20,NaN,na,car,0,0020_stg_s03_0_car_00_car6-truck3.png
subject-03,1,21,0.759558916091919,cat,cat,0,0021_stg_s03_0_cat_00_cat4-truck3.png
subject-03,1,22,1.09724903106689,elephant,bear,0,0022_stg_s03_0_bear_00_bear4-oven2.png
subject-03,1,23,1.14096713066101,keyboard,chair,0,0023_stg_s03_0_chair_00_chair7-chair1.png
subject-03,1,24,1.03039813041687,car,bicycle,0,0024_stg_s03_0_bicycle_00_bicycle7-knife2.png
subject-03,1,25,0.961015939712524,elephant,keyboard,0,0025_stg_s03_0_keyboard_00_keyboard6-bear2.png
subject-03,1,26,0.977639198303223,oven,boat,0,0026_stg_s03_0_boat_00_boat1-bird3.png
subject-03,1,27,1.33562111854553,bear,car,0,0027_stg_s03_0_car_00_car8-chair1.png
subject-03,1,28,0.750046968460083,elephant,bear,0,0028_stg_s03_0_bear_00_bear4-elephant2.png
subject-03,1,29,1.35621309280396,dog,bicycle,0,0029_stg_s03_0_bicycle_00_bicycle5-dog2.png
subject-03,1,30,1.2774510383606,bird,truck,0,0030_stg_s03_0_truck_00_truck2-bicycle2.png
subject-03,1,31,1.16009497642517,oven,bottle,0,0031_stg_s03_0_bottle_00_bottle6-oven3.png
subject-03,1,32,0.681637048721313,keyboard,chair,0,0032_stg_s03_0_chair_00_chair4-cat2.png
subject-03,1,33,1.249272108078,clock,bicycle,0,0033_stg_s03_0_bicycle_00_bicycle9-bird3.png
subject-03,1,34,0.870914936065674,bottle,cat,0,0034_stg_s03_0_cat_00_cat3-bicycle1.png
subject-03,1,35,1.13096594810486,oven,boat,0,0035_stg_s03_0_boat_00_boat1-bear1.png
subject-03,1,36,1.42970895767212,cat,chair,0,0036_stg_s03_0_chair_00_chair6-dog1.png
subject-03,1,37,1.50002479553223,bear,keyboard,0,0037_stg_s03_0_keyboard_00_keyboard6-chair1.png
subject-03,1,38,1.47383213043213,oven,elephant,0,0038_stg_s03_0_elephant_00_elephant2-truck2.png
subject-03,1,39,1.21186590194702,keyboard,keyboard,0,0039_stg_s03_0_keyboard_00_keyboard8-oven1.png
subject-03,1,40,1.00971603393555,airplane,knife,0,0040_stg_s03_0_knife_00_knife3-knife1.png
subject-03,1,41,0.986149787902832,elephant,oven,0,0041_stg_s03_0_oven_00_oven6-bear2.png
subject-03,1,42,0.85407280921936,oven,oven,0,0042_stg_s03_0_oven_00_oven4-truck3.png
subject-03,1,43,1.16066908836365,bottle,car,0,0043_stg_s03_0_car_00_car6-bottle1.png
subject-03,1,44,1.1798689365387,boat,car,0,0044_stg_s03_0_car_00_car9-cat1.png
subject-03,1,45,0.90902304649353,cat,car,0,0045_stg_s03_0_car_00_car8-bear1.png
subject-03,1,46,1.17699813842773,boat,car,0,0046_stg_s03_0_car_00_car5-airplane3.png
subject-03,1,47,1.42044806480408,chair,truck,0,0047_stg_s03_0_truck_00_truck6-bottle3.png
subject-03,1,48,0.92635703086853,bear,bottle,0,0048_stg_s03_0_bottle_00_bottle1-bear1.png
subject-03,1,49,NaN,na,dog,0,0049_stg_s03_0_dog_00_dog9-cat1.png
subject-03,1,50,1.25143599510193,airplane,knife,0,0050_stg_s03_0_knife_00_knife5-cat2.png
subject-03,1,51,0.773323059082031,bottle,oven,0,0051_stg_s03_0_oven_00_oven7-car3.png
subject-03,1,52,1.11124491691589,elephant,airplane,0,0052_stg_s03_0_airplane_00_airplane1-bicycle2.png
subject-03,1,53,1.3173520565033,bottle,cat,0,0053_stg_s03_0_cat_00_cat7-boat3.png
subject-03,1,54,1.12633490562439,car,car,0,0054_stg_s03_0_car_00_car4-clock1.png
subject-03,1,55,0.971415996551514,oven,oven,0,0055_stg_s03_0_oven_00_oven9-oven1.png
subject-03,1,56,0.815459012985229,clock,bottle,0,0056_stg_s03_0_bottle_00_bottle7-truck2.png
subject-03,1,57,0.745511054992676,cat,airplane,0,0057_stg_s03_0_airplane_00_airplane9-oven2.png
subject-03,1,58,NaN,na,bicycle,0,0058_stg_s03_0_bicycle_00_bicycle10-boat3.png
subject-03,1,59,0.901945829391479,chair,boat,0,0059_stg_s03_0_boat_00_boat4-car3.png
subject-03,1,60,0.932379961013794,clock,clock,0,0060_stg_s03_0_clock_00_clock5-airplane1.png
subject-03,1,61,0.592205762863159,boat,boat,0,0061_stg_s03_0_boat_00_boat2-bottle2.png
subject-03,1,62,0.651834011077881,bottle,cat,0,0062_stg_s03_0_cat_00_cat9-bottle2.png
subject-03,1,63,1.0958149433136,bear,truck,0,0063_stg_s03_0_truck_00_truck5-dog3.png
subject-03,1,64,1.16421008110046,bird,bear,0,0064_stg_s03_0_bear_00_bear10-truck1.png
subject-03,1,65,1.05382990837097,boat,cat,0,0065_stg_s03_0_cat_00_cat5-chair3.png
subject-03,1,66,0.975967884063721,keyboard,clock,0,0066_stg_s03_0_clock_00_clock8-knife1.png
subject-03,1,67,0.760191917419434,oven,oven,0,0067_stg_s03_0_oven_00_oven7-bottle1.png
subject-03,1,68,0.933939933776855,cat,dog,0,0068_stg_s03_0_dog_00_dog2-airplane2.png
subject-03,1,69,0.847657918930054,clock,bird,0,0069_stg_s03_0_bird_00_bird1-oven1.png
subject-03,1,70,1.21571803092957,chair,bird,0,0070_stg_s03_0_bird_00_bird4-airplane1.png
subject-03,1,71,1.08239102363586,bear,dog,0,0071_stg_s03_0_dog_00_dog2-cat1.png
subject-03,1,72,NaN,na,dog,0,0072_stg_s03_0_dog_00_dog1-bear1.png
subject-03,1,73,0.655720949172974,cat,dog,0,0073_stg_s03_0_dog_00_dog9-bottle1.png
subject-03,1,74,0.537454843521118,airplane,knife,0,0074_stg_s03_0_knife_00_knife4-knife2.png
subject-03,1,75,0.905103921890259,elephant,bear,0,0075_stg_s03_0_bear_00_bear3-airplane1.png
subject-03,1,76,1.30334210395813,bottle,airplane,0,0076_stg_s03_0_airplane_00_airplane9-truck1.png
subject-03,1,77,1.07933592796326,chair,elephant,0,0077_stg_s03_0_elephant_00_elephant6-knife2.png
subject-03,1,78,1.13128590583801,bottle,keyboard,0,0078_stg_s03_0_keyboard_00_keyboard3-bird3.png
subject-03,1,79,0.829387187957764,elephant,elephant,0,0079_stg_s03_0_elephant_00_elephant10-elephant1.png
subject-03,1,80,0.775213956832886,oven,boat,0,0080_stg_s03_0_boat_00_boat4-chair2.png
subject-03,1,81,1.0283191204071,clock,chair,0,0081_stg_s03_0_chair_00_chair2-boat1.png
subject-03,1,82,0.812871932983398,boat,car,0,0082_stg_s03_0_car_00_car3-boat1.png
subject-03,1,83,0.810643911361694,chair,truck,0,0083_stg_s03_0_truck_00_truck2-boat3.png
subject-03,1,84,0.92911696434021,elephant,elephant,0,0084_stg_s03_0_elephant_00_elephant2-cat1.png
subject-03,1,85,1.10482096672058,elephant,bottle,0,0085_stg_s03_0_bottle_00_bottle9-elephant2.png
subject-03,1,86,1.32513499259949,bottle,bear,0,0086_stg_s03_0_bear_00_bear2-oven1.png
subject-03,1,87,0.695326089859009,boat,oven,0,0087_stg_s03_0_oven_00_oven10-airplane2.png
subject-03,1,88,0.885235071182251,cat,boat,0,0088_stg_s03_0_boat_00_boat9-dog2.png
subject-03,1,89,0.691141843795776,bear,bottle,0,0089_stg_s03_0_bottle_00_bottle8-elephant3.png
subject-03,1,90,1.15891003608704,bird,car,0,0090_stg_s03_0_car_00_car2-bird3.png
subject-03,1,91,0.679966926574707,elephant,bear,0,0091_stg_s03_0_bear_00_bear7-clock1.png
subject-03,1,92,1.08610415458679,airplane,airplane,0,0092_stg_s03_0_airplane_00_airplane2-dog1.png
subject-03,1,93,0.600229978561401,cat,bird,0,0093_stg_s03_0_bird_00_bird2-clock3.png
subject-03,1,94,0.844007015228271,chair,truck,0,0094_stg_s03_0_truck_00_truck6-truck2.png
subject-03,1,95,1.32544589042664,bottle,bear,0,0095_stg_s03_0_bear_00_bear4-boat2.png
subject-03,1,96,0.923482894897461,clock,clock,0,0096_stg_s03_0_clock_00_clock8-boat1.png
subject-03,1,97,0.861494064331055,elephant,car,0,0097_stg_s03_0_car_00_car3-elephant3.png
subject-03,1,98,0.945402860641479,bird,dog,0,0098_stg_s03_0_dog_00_dog9-bicycle3.png
subject-03,1,99,0.734821081161499,bottle,oven,0,0099_stg_s03_0_oven_00_oven2-dog3.png
subject-03,1,100,0.810709953308105,oven,airplane,0,0100_stg_s03_0_airplane_00_airplane10-knife3.png
subject-03,1,101,1.13842916488647,bottle,clock,0,0101_stg_s03_0_clock_00_clock10-bottle1.png
subject-03,1,102,1.22843384742737,chair,keyboard,0,0102_stg_s03_0_keyboard_00_keyboard3-cat1.png
subject-03,1,103,0.872663974761963,elephant,dog,0,0103_stg_s03_0_dog_00_dog9-bear3.png
subject-03,1,104,0.839379072189331,elephant,dog,0,0104_stg_s03_0_dog_00_dog6-elephant2.png
subject-03,1,105,0.891288995742798,elephant,airplane,0,0105_stg_s03_0_airplane_00_airplane4-cat3.png
subject-03,1,106,0.834805965423584,bird,dog,0,0106_stg_s03_0_dog_00_dog7-bird3.png
subject-03,1,107,0.97831392288208,bottle,bear,0,0107_stg_s03_0_bear_00_bear8-bicycle3.png
subject-03,1,108,1.40926098823547,bird,elephant,0,0108_stg_s03_0_elephant_00_elephant2-clock1.png
subject-03,1,109,0.969681024551392,oven,airplane,0,0109_stg_s03_0_airplane_00_airplane5-oven3.png
subject-03,1,110,0.636582136154175,boat,dog,0,0110_stg_s03_0_dog_00_dog8-keyboard3.png
subject-03,1,111,0.588354825973511,clock,chair,0,0111_stg_s03_0_chair_00_chair4-truck2.png
subject-03,1,112,0.702703952789307,boat,cat,0,0112_stg_s03_0_cat_00_cat5-car2.png
subject-03,1,113,0.946547031402588,bottle,bicycle,0,0113_stg_s03_0_bicycle_00_bicycle7-cat1.png
subject-03,1,114,0.800782918930054,oven,boat,0,0114_stg_s03_0_boat_00_boat10-boat3.png
subject-03,1,115,0.974273920059204,chair,bicycle,0,0115_stg_s03_0_bicycle_00_bicycle2-car2.png
subject-03,1,116,1.13379621505737,boat,bear,0,0116_stg_s03_0_bear_00_bear2-airplane1.png
subject-03,1,117,1.01820397377014,oven,clock,0,0117_stg_s03_0_clock_00_clock8-keyboard1.png
subject-03,1,118,1.22331595420837,airplane,car,0,0118_stg_s03_0_car_00_car1-car2.png
subject-03,1,119,1.1596519947052,keyboard,bicycle,0,0119_stg_s03_0_bicycle_00_bicycle10-clock2.png
subject-03,1,120,0.781829833984375,clock,car,0,0120_stg_s03_0_car_00_car7-boat3.png
subject-03,1,121,1.13895893096924,bottle,chair,0,0121_stg_s03_0_chair_00_chair10-oven1.png
subject-03,1,122,1.13605690002441,bottle,cat,0,0122_stg_s03_0_cat_00_cat6-keyboard3.png
subject-03,1,123,0.903801202774048,bottle,keyboard,0,0123_stg_s03_0_keyboard_00_keyboard8-airplane2.png
subject-03,1,124,0.933593988418579,boat,bird,0,0124_stg_s03_0_bird_00_bird5-car2.png
subject-03,1,125,0.785807847976685,elephant,bird,0,0125_stg_s03_0_bird_00_bird3-bear3.png
subject-03,1,126,1.02930593490601,bear,dog,0,0126_stg_s03_0_dog_00_dog2-dog3.png
subject-03,1,127,0.978164911270142,bottle,truck,0,0127_stg_s03_0_truck_00_truck6-bicycle1.png
subject-03,1,128,1.06725192070007,elephant,dog,0,0128_stg_s03_0_dog_00_dog8-dog3.png
subject-03,1,129,0.951380968093872,bottle,elephant,0,0129_stg_s03_0_elephant_00_elephant1-bottle1.png
subject-03,1,130,0.950200796127319,clock,bottle,0,0130_stg_s03_0_bottle_00_bottle5-truck1.png
subject-03,1,131,0.972430944442749,knife,car,0,0131_stg_s03_0_car_00_car6-knife1.png
subject-03,1,132,1.3408100605011,clock,dog,0,0132_stg_s03_0_dog_00_dog1-airplane3.png
subject-03,1,133,1.00069999694824,bottle,dog,0,0133_stg_s03_0_dog_00_dog4-airplane3.png
subject-03,1,134,0.961261987686157,bottle,clock,0,0134_stg_s03_0_clock_00_clock3-bird1.png
subject-03,1,135,0.952728033065796,bottle,bottle,0,0135_stg_s03_0_bottle_00_bottle6-knife3.png
subject-03,1,136,1.13470697402954,boat,elephant,0,0136_stg_s03_0_elephant_00_elephant7-clock2.png
subject-03,1,137,0.932446002960205,oven,boat,0,0137_stg_s03_0_boat_00_boat5-airplane1.png
subject-03,1,138,0.771009206771851,keyboard,dog,0,0138_stg_s03_0_dog_00_dog8-clock2.png
subject-03,1,139,1.15231800079346,oven,knife,0,0139_stg_s03_0_knife_00_knife1-car3.png
subject-03,1,140,0.837430953979492,elephant,boat,0,0140_stg_s03_0_boat_00_boat1-elephant3.png
subject-03,1,141,0.958991050720215,chair,truck,0,0141_stg_s03_0_truck_00_truck9-airplane2.png
subject-03,1,142,0.919051885604858,elephant,bird,0,0142_stg_s03_0_bird_00_bird8-elephant1.png
subject-03,1,143,0.984294891357422,bottle,clock,0,0143_stg_s03_0_clock_00_clock5-oven1.png
subject-03,1,144,0.923434019088745,bear,cat,0,0144_stg_s03_0_cat_00_cat4-cat3.png
subject-03,1,145,0.79057502746582,bottle,bicycle,0,0145_stg_s03_0_bicycle_00_bicycle7-clock3.png
subject-03,1,146,0.894006967544556,dog,dog,0,0146_stg_s03_0_dog_00_dog10-dog1.png
subject-03,1,147,0.938248872756958,bottle,bird,0,0147_stg_s03_0_bird_00_bird10-bicycle1.png
subject-03,1,148,0.913635015487671,bottle,elephant,0,0148_stg_s03_0_elephant_00_elephant7-car3.png
subject-03,1,149,0.857026100158691,elephant,airplane,0,0149_stg_s03_0_airplane_00_airplane8-bird1.png
subject-03,1,150,0.868523120880127,clock,keyboard,0,0150_stg_s03_0_keyboard_00_keyboard3-boat1.png
subject-03,1,151,0.936543941497803,bottle,bicycle,0,0151_stg_s03_0_bicycle_00_bicycle4-bottle1.png
subject-03,1,152,1.06420707702637,airplane,boat,0,0152_stg_s03_0_boat_00_boat4-dog2.png
subject-03,1,153,1.04568290710449,bottle,bottle,0,0153_stg_s03_0_bottle_00_bottle2-car2.png
subject-03,1,154,0.945828914642334,clock,dog,0,0154_stg_s03_0_dog_00_dog4-bird1.png
subject-03,1,155,0.905972003936768,bottle,bottle,0,0155_stg_s03_0_bottle_00_bottle4-car3.png
subject-03,1,156,0.866050958633423,chair,elephant,0,0156_stg_s03_0_elephant_00_elephant8-airplane3.png
subject-03,1,157,0.848203182220459,oven,elephant,0,0157_stg_s03_0_elephant_00_elephant9-chair2.png
subject-03,1,158,0.800432920455933,bear,cat,0,0158_stg_s03_0_cat_00_cat9-knife2.png
subject-03,1,159,0.990643978118896,oven,bottle,0,0159_stg_s03_0_bottle_00_bottle8-bicycle1.png
subject-03,1,160,1.02043104171753,bottle,elephant,0,0160_stg_s03_0_elephant_00_elephant2-airplane3.png
subject-03,1,161,0.92543888092041,clock,oven,0,0161_stg_s03_0_oven_00_oven9-car2.png
subject-03,1,162,1.02917408943176,keyboard,bottle,0,0162_stg_s03_0_bottle_00_bottle5-oven2.png
subject-03,1,163,0.959008932113647,bottle,elephant,0,0163_stg_s03_0_elephant_00_elephant6-bird1.png
subject-03,1,164,0.673346996307373,clock,bicycle,0,0164_stg_s03_0_bicycle_00_bicycle7-bear2.png
subject-03,1,165,0.77006196975708,boat,knife,0,0165_stg_s03_0_knife_00_knife2-bottle2.png
subject-03,1,166,0.716316938400269,clock,bottle,0,0166_stg_s03_0_bottle_00_bottle10-dog1.png
subject-03,1,167,1.41154098510742,bottle,airplane,0,0167_stg_s03_0_airplane_00_airplane2-bottle1.png
subject-03,1,168,0.820769786834717,bottle,clock,0,0168_stg_s03_0_clock_00_clock1-dog2.png
subject-03,1,169,1.03944897651672,chair,clock,0,0169_stg_s03_0_clock_00_clock10-clock3.png
subject-03,1,170,0.799287080764771,oven,bear,0,0170_stg_s03_0_bear_00_bear1-bicycle3.png
subject-03,1,171,0.777771949768066,bottle,chair,0,0171_stg_s03_0_chair_00_chair1-chair1.png
subject-03,1,172,0.875787019729614,boat,airplane,0,0172_stg_s03_0_airplane_00_airplane7-bird3.png
subject-03,1,173,0.980798959732056,bottle,boat,0,0173_stg_s03_0_boat_00_boat7-chair1.png
subject-03,1,174,0.878809928894043,car,knife,0,0174_stg_s03_0_knife_00_knife7-bottle3.png
subject-03,1,175,0.784333944320679,bottle,oven,0,0175_stg_s03_0_oven_00_oven5-bottle3.png
subject-03,1,176,0.683390140533447,clock,oven,0,0176_stg_s03_0_oven_00_oven7-oven1.png
subject-03,1,177,NaN,na,bicycle,0,0177_stg_s03_0_bicycle_00_bicycle1-bottle3.png
subject-03,1,178,0.794174909591675,bottle,oven,0,0178_stg_s03_0_oven_00_oven5-airplane1.png
subject-03,1,179,0.592561960220337,clock,keyboard,0,0179_stg_s03_0_keyboard_00_keyboard3-clock3.png
subject-03,1,180,0.95209002494812,knife,clock,0,0180_stg_s03_0_clock_00_clock4-bird3.png
subject-03,1,181,1.05902695655823,boat,airplane,0,0181_stg_s03_0_airplane_00_airplane5-bottle3.png
subject-03,1,182,0.905240058898926,keyboard,keyboard,0,0182_stg_s03_0_keyboard_00_keyboard7-knife1.png
subject-03,1,183,0.779016017913818,oven,knife,0,0183_stg_s03_0_knife_00_knife7-boat3.png
subject-03,1,184,0.721827030181885,elephant,bird,0,0184_stg_s03_0_bird_00_bird10-elephant2.png
subject-03,1,185,1.18208003044128,bottle,bird,0,0185_stg_s03_0_bird_00_bird8-clock1.png
subject-03,1,186,0.912929058074951,bottle,bird,0,0186_stg_s03_0_bird_00_bird8-boat3.png
subject-03,1,187,0.97367787361145,bottle,car,0,0187_stg_s03_0_car_00_car9-truck3.png
subject-03,1,188,1.25547099113464,bottle,clock,0,0188_stg_s03_0_clock_00_clock5-bicycle1.png
subject-03,1,189,0.571753978729248,clock,bird,0,0189_stg_s03_0_bird_00_bird3-bottle2.png
subject-03,1,190,0.83669114112854,clock,boat,0,0190_stg_s03_0_boat_00_boat3-chair3.png
subject-03,1,191,0.596167087554932,boat,airplane,0,0191_stg_s03_0_airplane_00_airplane8-bicycle3.png
subject-03,1,192,0.626423835754395,clock,truck,0,0192_stg_s03_0_truck_00_truck4-bear1.png
subject-03,1,193,0.816586971282959,elephant,bird,0,0193_stg_s03_0_bird_00_bird1-elephant2.png
subject-03,1,194,0.861102104187012,elephant,clock,0,0194_stg_s03_0_clock_00_clock2-elephant2.png
subject-03,1,195,0.883141994476318,elephant,bicycle,0,0195_stg_s03_0_bicycle_00_bicycle1-bear1.png
subject-03,1,196,1.05140113830566,elephant,elephant,0,0196_stg_s03_0_elephant_00_elephant4-chair3.png
subject-03,1,197,0.987738847732544,clock,chair,0,0197_stg_s03_0_chair_00_chair7-airplane1.png
subject-03,1,198,0.847523927688599,bear,bicycle,0,0198_stg_s03_0_bicycle_00_bicycle8-chair2.png
subject-03,1,199,1.12318301200867,cat,bird,0,0199_stg_s03_0_bird_00_bird6-boat2.png
subject-03,1,200,0.645966053009033,elephant,knife,0,0200_stg_s03_0_knife_00_knife4-cat2.png
subject-03,1,201,0.911464929580688,oven,car,0,0201_stg_s03_0_car_00_car1-airplane1.png
subject-03,1,202,0.925566911697388,clock,knife,0,0202_stg_s03_0_knife_00_knife8-boat1.png
subject-03,1,203,1.12361192703247,elephant,bird,0,0203_stg_s03_0_bird_00_bird8-knife2.png
subject-03,1,204,0.966803073883057,bottle,bottle,0,0204_stg_s03_0_bottle_00_bottle10-boat3.png
subject-03,1,205,0.71048378944397,oven,bottle,0,0205_stg_s03_0_bottle_00_bottle1-keyboard3.png
subject-03,1,206,0.733094930648804,elephant,bicycle,0,0206_stg_s03_0_bicycle_00_bicycle2-dog1.png
subject-03,1,207,0.647261142730713,elephant,elephant,0,0207_stg_s03_0_elephant_00_elephant3-truck1.png
subject-03,1,208,0.837342977523804,cat,elephant,0,0208_stg_s03_0_elephant_00_elephant1-dog2.png
subject-03,1,209,0.58881402015686,airplane,cat,0,0209_stg_s03_0_cat_00_cat4-knife1.png
subject-03,1,210,0.818422079086304,bottle,cat,0,0210_stg_s03_0_cat_00_cat10-bottle1.png
subject-03,1,211,1.06307220458984,elephant,knife,0,0211_stg_s03_0_knife_00_knife10-dog1.png
subject-03,1,212,1.16647386550903,elephant,bird,0,0212_stg_s03_0_bird_00_bird5-dog2.png
subject-03,1,213,0.935260057449341,clock,knife,0,0213_stg_s03_0_knife_00_knife8-bicycle1.png
subject-03,1,214,0.794398069381714,oven,cat,0,0214_stg_s03_0_cat_00_cat2-boat2.png
subject-03,1,215,0.659750938415527,chair,knife,0,0215_stg_s03_0_knife_00_knife7-airplane3.png
subject-03,1,216,0.819247961044312,elephant,cat,0,0216_stg_s03_0_cat_00_cat5-elephant2.png
subject-03,1,217,0.925420045852661,oven,car,0,0217_stg_s03_0_car_00_car7-keyboard3.png
subject-03,1,218,1.07497596740723,bottle,bicycle,0,0218_stg_s03_0_bicycle_00_bicycle3-bird1.png
subject-03,1,219,0.691196918487549,boat,cat,0,0219_stg_s03_0_cat_00_cat5-bicycle3.png
subject-03,1,220,0.7275390625,oven,bird,0,0220_stg_s03_0_bird_00_bird5-keyboard2.png
subject-03,1,221,0.941129922866821,keyboard,bird,0,0221_stg_s03_0_bird_00_bird3-bird2.png
subject-03,1,222,0.877707004547119,bottle,car,0,0222_stg_s03_0_car_00_car7-airplane2.png
subject-03,1,223,0.645621061325073,oven,keyboard,0,0223_stg_s03_0_keyboard_00_keyboard9-bicycle2.png
subject-03,1,224,0.697023153305054,bicycle,clock,0,0224_stg_s03_0_clock_00_clock2-bear2.png
subject-03,1,225,0.933421850204468,elephant,bottle,0,0225_stg_s03_0_bottle_00_bottle7-elephant2.png
subject-03,1,226,0.693263053894043,boat,bottle,0,0226_stg_s03_0_bottle_00_bottle9-bicycle1.png
subject-03,1,227,0.552320957183838,oven,clock,0,0227_stg_s03_0_clock_00_clock6-bottle1.png
subject-03,1,228,0.833800077438354,keyboard,oven,0,0228_stg_s03_0_oven_00_oven9-chair1.png
subject-03,1,229,0.985862016677856,elephant,elephant,0,0229_stg_s03_0_elephant_00_elephant4-boat3.png
subject-03,1,230,0.720873117446899,clock,oven,0,0230_stg_s03_0_oven_00_oven9-knife3.png
subject-03,1,231,0.902554988861084,oven,dog,0,0231_stg_s03_0_dog_00_dog1-cat3.png
subject-03,1,232,0.808279037475586,boat,cat,0,0232_stg_s03_0_cat_00_cat1-bird1.png
subject-03,1,233,0.681716918945312,bottle,airplane,0,0233_stg_s03_0_airplane_00_airplane6-bottle2.png
subject-03,1,234,0.919786930084229,elephant,oven,0,0234_stg_s03_0_oven_00_oven3-clock3.png
subject-03,1,235,1.0097770690918,bottle,clock,0,0235_stg_s03_0_clock_00_clock8-airplane2.png
subject-03,1,236,0.860973119735718,cat,bird,0,0236_stg_s03_0_bird_00_bird4-cat3.png
subject-03,1,237,0.989534854888916,boat,bicycle,0,0237_stg_s03_0_bicycle_00_bicycle9-chair1.png
subject-03,1,238,0.726707935333252,elephant,knife,0,0238_stg_s03_0_knife_00_knife3-bear2.png
subject-03,1,239,1.17155599594116,car,bear,0,0239_stg_s03_0_bear_00_bear5-bird1.png
subject-03,1,240,1.06894397735596,boat,oven,0,0240_stg_s03_0_oven_00_oven9-bear2.png
subject-03,1,241,0.772485017776489,bottle,bird,0,0241_stg_s03_0_bird_00_bird9-bottle3.png
subject-03,1,242,0.680133104324341,oven,elephant,0,0242_stg_s03_0_elephant_00_elephant6-truck3.png
subject-03,1,243,0.799890995025635,clock,dog,0,0243_stg_s03_0_dog_00_dog10-oven2.png
subject-03,1,244,1.09765696525574,keyboard,bicycle,0,0244_stg_s03_0_bicycle_00_bicycle1-airplane2.png
subject-03,1,245,0.958630084991455,airplane,bird,0,0245_stg_s03_0_bird_00_bird7-boat1.png
subject-03,1,246,0.932576179504395,elephant,car,0,0246_stg_s03_0_car_00_car2-cat3.png
subject-03,1,247,0.840808868408203,car,elephant,0,0247_stg_s03_0_elephant_00_elephant8-cat1.png
subject-03,1,248,0.776285171508789,oven,clock,0,0248_stg_s03_0_clock_00_clock7-keyboard2.png
subject-03,1,249,0.928644895553589,clock,dog,0,0249_stg_s03_0_dog_00_dog7-oven2.png
subject-03,1,250,0.880485057830811,elephant,oven,0,0250_stg_s03_0_oven_00_oven7-dog2.png
subject-03,1,251,0.87056303024292,oven,keyboard,0,0251_stg_s03_0_keyboard_00_keyboard1-clock1.png
subject-03,1,252,1.08586096763611,bottle,elephant,0,0252_stg_s03_0_elephant_00_elephant1-boat2.png
subject-03,1,253,0.831400156021118,elephant,dog,0,0253_stg_s03_0_dog_00_dog3-elephant2.png
subject-03,1,254,1.20522212982178,clock,boat,0,0254_stg_s03_0_boat_00_boat1-chair3.png
subject-03,1,255,0.649734973907471,cat,boat,0,0255_stg_s03_0_boat_00_boat7-clock3.png
subject-03,1,256,0.60887885093689,boat,bottle,0,0256_stg_s03_0_bottle_00_bottle4-truck1.png
subject-03,1,257,1.09903001785278,clock,clock,0,0257_stg_s03_0_clock_00_clock2-bicycle1.png
subject-03,1,258,1.1274619102478,cat,oven,0,0258_stg_s03_0_oven_00_oven10-bear1.png
subject-03,1,259,0.582485914230347,oven,boat,0,0259_stg_s03_0_boat_00_boat9-boat3.png
subject-03,1,260,0.973047971725464,keyboard,keyboard,0,0260_stg_s03_0_keyboard_00_keyboard4-knife2.png
subject-03,1,261,0.918987035751343,elephant,boat,0,0261_stg_s03_0_boat_00_boat7-elephant3.png
subject-03,1,262,0.808470010757446,clock,clock,0,0262_stg_s03_0_clock_00_clock1-truck3.png
subject-03,1,263,0.944620132446289,cat,bottle,0,0263_stg_s03_0_bottle_00_bottle7-bear1.png
subject-03,1,264,1.31843614578247,car,truck,0,0264_stg_s03_0_truck_00_truck1-chair2.png
subject-03,1,265,0.864850044250488,boat,bear,0,0265_stg_s03_0_bear_00_bear1-airplane3.png
subject-03,1,266,0.932927846908569,elephant,elephant,0,0266_stg_s03_0_elephant_00_elephant9-clock3.png
subject-03,1,267,1.26947498321533,elephant,elephant,0,0267_stg_s03_0_elephant_00_elephant4-oven1.png
subject-03,1,268,0.806256055831909,oven,boat,0,0268_stg_s03_0_boat_00_boat4-knife2.png
subject-03,1,269,1.21929287910461,keyboard,truck,0,0269_stg_s03_0_truck_00_truck2-bird2.png
subject-03,1,270,0.838989019393921,boat,chair,0,0270_stg_s03_0_chair_00_chair6-bird2.png
subject-03,1,271,0.644484996795654,bottle,knife,0,0271_stg_s03_0_knife_00_knife6-boat3.png
subject-03,1,272,0.896565198898315,clock,car,0,0272_stg_s03_0_car_00_car6-boat1.png
subject-03,1,273,0.92454981803894,bottle,airplane,0,0273_stg_s03_0_airplane_00_airplane5-bear2.png
subject-03,1,274,1.09217596054077,boat,airplane,0,0274_stg_s03_0_airplane_00_airplane3-oven1.png
subject-03,1,275,1.1976101398468,bottle,bottle,0,0275_stg_s03_0_bottle_00_bottle5-knife1.png
subject-03,1,276,1.06391882896423,airplane,keyboard,0,0276_stg_s03_0_keyboard_00_keyboard10-keyboard1.png
subject-03,1,277,1.50031900405884,chair,truck,0,0277_stg_s03_0_truck_00_truck5-cat3.png
subject-03,1,278,1.16747808456421,oven,bear,0,0278_stg_s03_0_bear_00_bear6-clock1.png
subject-03,1,279,0.889286994934082,bottle,bear,0,0279_stg_s03_0_bear_00_bear5-bottle1.png
subject-03,1,280,0.83292293548584,clock,chair,0,0280_stg_s03_0_chair_00_chair8-boat1.png
subject-03,1,281,1.10092496871948,clock,chair,0,0281_stg_s03_0_chair_00_chair5-bottle3.png
subject-03,1,282,0.766914844512939,bottle,bottle,0,0282_stg_s03_0_bottle_00_bottle1-clock1.png
subject-03,1,283,1.40228009223938,clock,airplane,0,0283_stg_s03_0_airplane_00_airplane8-oven2.png
subject-03,1,284,0.954419851303101,bottle,bicycle,0,0284_stg_s03_0_bicycle_00_bicycle4-oven3.png
subject-03,1,285,0.776879072189331,clock,clock,0,0285_stg_s03_0_clock_00_clock7-bottle2.png
subject-03,1,286,0.9963219165802,elephant,knife,0,0286_stg_s03_0_knife_00_knife10-knife1.png
subject-03,1,287,1.1488630771637,bottle,oven,0,0287_stg_s03_0_oven_00_oven4-chair1.png
subject-03,1,288,0.962167978286743,bicycle,bird,0,0288_stg_s03_0_bird_00_bird5-chair1.png
subject-03,1,289,0.897511959075928,bear,bear,0,0289_stg_s03_0_bear_00_bear9-dog1.png
subject-03,1,290,1.11732888221741,dog,truck,0,0290_stg_s03_0_truck_00_truck1-clock3.png
subject-03,1,291,0.933974027633667,bottle,cat,0,0291_stg_s03_0_cat_00_cat5-knife2.png
subject-03,1,292,0.695731163024902,boat,car,0,0292_stg_s03_0_car_00_car5-knife2.png
subject-03,1,293,0.894561052322388,oven,bottle,0,0293_stg_s03_0_bottle_00_bottle9-cat2.png
subject-03,1,294,0.968406915664673,keyboard,keyboard,0,0294_stg_s03_0_keyboard_00_keyboard5-keyboard1.png
subject-03,1,295,0.790088891983032,boat,dog,0,0295_stg_s03_0_dog_00_dog7-knife3.png
subject-03,1,296,1.0972740650177,bottle,elephant,0,0296_stg_s03_0_elephant_00_elephant2-boat1.png
subject-03,1,297,0.656841993331909,clock,bear,0,0297_stg_s03_0_bear_00_bear6-cat3.png
subject-03,1,298,0.738417863845825,cat,bear,0,0298_stg_s03_0_bear_00_bear10-knife2.png
subject-03,1,299,0.966753959655762,clock,truck,0,0299_stg_s03_0_truck_00_truck9-chair3.png
subject-03,1,300,0.934032917022705,oven,elephant,0,0300_stg_s03_0_elephant_00_elephant2-bird1.png
subject-03,1,301,1.17787003517151,chair,boat,0,0301_stg_s03_0_boat_00_boat3-cat3.png
subject-03,1,302,0.789860010147095,bottle,dog,0,0302_stg_s03_0_dog_00_dog10-bottle1.png
subject-03,1,303,1.05559301376343,knife,knife,0,0303_stg_s03_0_knife_00_knife4-airplane3.png
subject-03,1,304,1.01538705825806,cat,keyboard,0,0304_stg_s03_0_keyboard_00_keyboard1-dog3.png
subject-03,1,305,1.07576107978821,elephant,dog,0,0305_stg_s03_0_dog_00_dog10-elephant1.png
subject-03,1,306,0.889523029327393,elephant,boat,0,0306_stg_s03_0_boat_00_boat10-bear3.png
subject-03,1,307,1.04782009124756,knife,cat,0,0307_stg_s03_0_cat_00_cat5-keyboard3.png
subject-03,1,308,0.869249820709229,knife,knife,0,0308_stg_s03_0_knife_00_knife10-oven3.png
subject-03,1,309,0.922021150588989,clock,bottle,0,0309_stg_s03_0_bottle_00_bottle5-chair1.png
subject-03,1,310,0.881169080734253,elephant,airplane,0,0310_stg_s03_0_airplane_00_airplane7-clock3.png
subject-03,1,311,0.876896142959595,car,truck,0,0311_stg_s03_0_truck_00_truck5-truck1.png
subject-03,1,312,1.30689907073975,cat,elephant,0,0312_stg_s03_0_elephant_00_elephant9-dog3.png
subject-03,1,313,0.612438917160034,clock,dog,0,0313_stg_s03_0_dog_00_dog3-truck2.png
subject-03,1,314,1.00814986228943,oven,boat,0,0314_stg_s03_0_boat_00_boat9-airplane2.png
subject-03,1,315,0.837510824203491,elephant,knife,0,0315_stg_s03_0_knife_00_knife9-bear3.png
subject-03,1,316,0.981135845184326,bear,elephant,0,0316_stg_s03_0_elephant_00_elephant1-keyboard3.png
subject-03,1,317,1.01729607582092,elephant,bicycle,0,0317_stg_s03_0_bicycle_00_bicycle5-bear1.png
subject-03,1,318,0.96128511428833,elephant,knife,0,0318_stg_s03_0_knife_00_knife2-elephant2.png
subject-03,1,319,0.653960943222046,bottle,bottle,0,0319_stg_s03_0_bottle_00_bottle8-bottle3.png
subject-03,1,320,1.13537812232971,cat,bird,0,0320_stg_s03_0_bird_00_bird4-dog3.png
subject-03,1,321,1.27154207229614,elephant,bicycle,0,0321_stg_s03_0_bicycle_00_bicycle10-dog3.png
subject-03,1,322,0.730968952178955,elephant,bicycle,0,0322_stg_s03_0_bicycle_00_bicycle2-bird3.png
subject-03,1,323,0.775097131729126,oven,knife,0,0323_stg_s03_0_knife_00_knife8-bottle3.png
subject-03,1,324,0.97899603843689,clock,chair,0,0324_stg_s03_0_chair_00_chair10-bird3.png
subject-03,1,325,0.922343969345093,bottle,bottle,0,0325_stg_s03_0_bottle_00_bottle2-clock1.png
subject-03,1,326,0.744772911071777,boat,knife,0,0326_stg_s03_0_knife_00_knife10-bear3.png
subject-03,1,327,0.782989025115967,bottle,bear,0,0327_stg_s03_0_bear_00_bear10-clock1.png
subject-03,1,328,1.05743503570557,chair,dog,0,0328_stg_s03_0_dog_00_dog5-knife2.png
subject-03,1,329,0.876188993453979,clock,airplane,0,0329_stg_s03_0_airplane_00_airplane3-chair3.png
subject-03,1,330,1.15277910232544,bear,chair,0,0330_stg_s03_0_chair_00_chair5-bird1.png
subject-03,1,331,0.935184955596924,clock,airplane,0,0331_stg_s03_0_airplane_00_airplane7-car1.png
subject-03,1,332,1.07342004776001,car,truck,0,0332_stg_s03_0_truck_00_truck4-oven2.png
subject-03,1,333,0.922935962677002,bottle,bottle,0,0333_stg_s03_0_bottle_00_bottle9-car3.png
subject-03,1,334,1.32069706916809,bottle,elephant,0,0334_stg_s03_0_elephant_00_elephant5-bear2.png
subject-03,1,335,1.0110878944397,elephant,bicycle,0,0335_stg_s03_0_bicycle_00_bicycle9-cat3.png
subject-03,1,336,1.0412380695343,oven,keyboard,0,0336_stg_s03_0_keyboard_00_keyboard2-knife1.png
subject-03,1,337,1.42059087753296,bottle,chair,0,0337_stg_s03_0_chair_00_chair1-airplane2.png
subject-03,1,338,0.81994891166687,keyboard,oven,0,0338_stg_s03_0_oven_00_oven8-knife2.png
subject-03,1,339,0.848494052886963,oven,bird,0,0339_stg_s03_0_bird_00_bird5-cat2.png
subject-03,1,340,0.767959117889404,bottle,knife,0,0340_stg_s03_0_knife_00_knife6-bottle3.png
subject-03,1,341,0.798274040222168,oven,car,0,0341_stg_s03_0_car_00_car3-bird2.png
subject-03,1,342,1.47004294395447,cat,knife,0,0342_stg_s03_0_knife_00_knife2-bear2.png
subject-03,1,343,0.775184869766235,bottle,knife,0,0343_stg_s03_0_knife_00_knife9-bottle2.png
subject-03,1,344,1.19490218162537,clock,knife,0,0344_stg_s03_0_knife_00_knife1-chair1.png
subject-03,1,345,0.717210054397583,oven,bicycle,0,0345_stg_s03_0_bicycle_00_bicycle3-truck3.png
subject-03,1,346,0.732229948043823,chair,elephant,0,0346_stg_s03_0_elephant_00_elephant8-truck3.png
subject-03,1,347,0.762186050415039,oven,airplane,0,0347_stg_s03_0_airplane_00_airplane2-bicycle1.png
subject-03,1,348,0.736193180084229,boat,chair,0,0348_stg_s03_0_chair_00_chair3-bottle3.png
subject-03,1,349,0.642803192138672,bottle,bottle,0,0349_stg_s03_0_bottle_00_bottle10-car1.png
subject-03,1,350,0.970977067947388,cat,dog,0,0350_stg_s03_0_dog_00_dog10-truck2.png
subject-03,1,351,0.708975791931152,oven,bear,0,0351_stg_s03_0_bear_00_bear6-chair1.png
subject-03,1,352,1.01273798942566,clock,car,0,0352_stg_s03_0_car_00_car8-boat3.png
subject-03,1,353,0.859338998794556,keyboard,elephant,0,0353_stg_s03_0_elephant_00_elephant4-bird1.png
subject-03,1,354,0.79550313949585,boat,boat,0,0354_stg_s03_0_boat_00_boat7-truck2.png
subject-03,1,355,0.80963397026062,elephant,airplane,0,0355_stg_s03_0_airplane_00_airplane4-bear3.png
subject-03,1,356,0.691015958786011,bear,elephant,0,0356_stg_s03_0_elephant_00_elephant6-dog2.png
subject-03,1,357,0.88149094581604,bottle,bird,0,0357_stg_s03_0_bird_00_bird6-truck2.png
subject-03,1,358,0.863179206848145,cat,elephant,0,0358_stg_s03_0_elephant_00_elephant1-bear2.png
subject-03,1,359,0.694471120834351,oven,knife,0,0359_stg_s03_0_knife_00_knife4-keyboard1.png
subject-03,1,360,1.03046298027039,keyboard,chair,0,0360_stg_s03_0_chair_00_chair4-chair3.png
subject-03,1,361,0.652367115020752,chair,boat,0,0361_stg_s03_0_boat_00_boat2-bird1.png
subject-03,1,362,0.743451833724976,bottle,chair,0,0362_stg_s03_0_chair_00_chair1-truck3.png
subject-03,1,363,0.748979091644287,clock,clock,0,0363_stg_s03_0_clock_00_clock4-elephant2.png
subject-03,1,364,0.938744068145752,elephant,bottle,0,0364_stg_s03_0_bottle_00_bottle5-elephant1.png
subject-03,1,365,0.850292205810547,bottle,oven,0,0365_stg_s03_0_oven_00_oven3-bottle3.png
subject-03,1,366,1.20799779891968,boat,knife,0,0366_stg_s03_0_knife_00_knife5-clock1.png
subject-03,1,367,0.676162004470825,bottle,bird,0,0367_stg_s03_0_bird_00_bird1-boat1.png
subject-03,1,368,1.16095995903015,bottle,clock,0,0368_stg_s03_0_clock_00_clock8-bear2.png
subject-03,1,369,0.850120067596436,elephant,airplane,0,0369_stg_s03_0_airplane_00_airplane3-dog1.png
subject-03,1,370,1.01662492752075,chair,car,0,0370_stg_s03_0_car_00_car5-oven2.png
subject-03,1,371,0.906805992126465,bottle,elephant,0,0371_stg_s03_0_elephant_00_elephant1-car3.png
subject-03,1,372,0.744735956192017,clock,bird,0,0372_stg_s03_0_bird_00_bird10-clock1.png
subject-03,1,373,0.780489921569824,bottle,bear,0,0373_stg_s03_0_bear_00_bear4-truck3.png
subject-03,1,374,0.776229858398438,boat,car,0,0374_stg_s03_0_car_00_car6-bicycle3.png
subject-03,1,375,0.620390176773071,oven,keyboard,0,0375_stg_s03_0_keyboard_00_keyboard5-cat1.png
subject-03,1,376,0.817712068557739,keyboard,bird,0,0376_stg_s03_0_bird_00_bird1-truck1.png
subject-03,1,377,0.837316989898682,oven,keyboard,0,0377_stg_s03_0_keyboard_00_keyboard6-bicycle1.png
subject-03,1,378,1.15656113624573,elephant,truck,0,0378_stg_s03_0_truck_00_truck2-elephant1.png
subject-03,1,379,0.946233034133911,chair,oven,0,0379_stg_s03_0_oven_00_oven4-clock2.png
subject-03,1,380,0.881749868392944,elephant,knife,0,0380_stg_s03_0_knife_00_knife10-elephant3.png
subject-03,1,381,0.941745042800903,elephant,knife,0,0381_stg_s03_0_knife_00_knife5-keyboard3.png
subject-03,1,382,0.739453077316284,chair,clock,0,0382_stg_s03_0_clock_00_clock4-oven1.png
subject-03,1,383,0.713962078094482,oven,truck,0,0383_stg_s03_0_truck_00_truck4-airplane3.png
subject-03,1,384,0.843631982803345,oven,bear,0,0384_stg_s03_0_bear_00_bear9-knife2.png
subject-03,1,385,0.933562994003296,clock,bicycle,0,0385_stg_s03_0_bicycle_00_bicycle2-bicycle1.png
subject-03,1,386,0.761238098144531,bottle,keyboard,0,0386_stg_s03_0_keyboard_00_keyboard8-keyboard2.png
subject-03,1,387,1.15128207206726,clock,cat,0,0387_stg_s03_0_cat_00_cat9-boat2.png
subject-03,1,388,0.749239921569824,chair,knife,0,0388_stg_s03_0_knife_00_knife3-keyboard3.png
subject-03,1,389,1.06160092353821,clock,keyboard,0,0389_stg_s03_0_keyboard_00_keyboard1-bird2.png
subject-03,1,390,1.0967218875885,oven,dog,0,0390_stg_s03_0_dog_00_dog1-knife3.png
subject-03,1,391,1.00625801086426,elephant,clock,0,0391_stg_s03_0_clock_00_clock2-dog1.png
subject-03,1,392,1.17279887199402,oven,oven,0,0392_stg_s03_0_oven_00_oven7-clock2.png
subject-03,1,393,0.947900056838989,elephant,elephant,0,0393_stg_s03_0_elephant_00_elephant8-dog1.png
subject-03,1,394,1.17656898498535,keyboard,elephant,0,0394_stg_s03_0_elephant_00_elephant10-keyboard1.png
subject-03,1,395,0.782045841217041,keyboard,dog,0,0395_stg_s03_0_dog_00_dog4-truck2.png
subject-03,1,396,0.985927104949951,airplane,boat,0,0396_stg_s03_0_boat_00_boat9-bird1.png
subject-03,1,397,1.22202682495117,bottle,clock,0,0397_stg_s03_0_clock_00_clock7-truck3.png
subject-03,1,398,0.797798871994019,oven,truck,0,0398_stg_s03_0_truck_00_truck5-knife3.png
subject-03,1,399,1.40137696266174,bottle,bird,0,0399_stg_s03_0_bird_00_bird5-bird1.png
subject-03,1,400,0.776494026184082,chair,airplane,0,0400_stg_s03_0_airplane_00_airplane7-boat2.png
subject-03,1,401,1.07228207588196,elephant,airplane,0,0401_stg_s03_0_airplane_00_airplane1-elephant1.png
subject-03,1,402,1.24796009063721,bear,bear,0,0402_stg_s03_0_bear_00_bear10-cat2.png
subject-03,1,403,0.784149885177612,elephant,keyboard,0,0403_stg_s03_0_keyboard_00_keyboard2-elephant1.png
subject-03,1,404,0.87369704246521,oven,airplane,0,0404_stg_s03_0_airplane_00_airplane6-chair3.png
subject-03,1,405,1.03397297859192,bottle,boat,0,0405_stg_s03_0_boat_00_boat8-oven1.png
subject-03,1,406,1.08376097679138,bottle,bear,0,0406_stg_s03_0_bear_00_bear7-truck1.png
subject-03,1,407,0.91128396987915,bottle,bottle,0,0407_stg_s03_0_bottle_00_bottle5-cat1.png
subject-03,1,408,1.07119989395142,bird,bear,0,0408_stg_s03_0_bear_00_bear6-bird2.png
subject-03,1,409,0.968972206115723,elephant,truck,0,0409_stg_s03_0_truck_00_truck1-bear1.png
subject-03,1,410,0.850960969924927,oven,car,0,0410_stg_s03_0_car_00_car10-car1.png
subject-03,1,411,1.11898612976074,keyboard,truck,0,0411_stg_s03_0_truck_00_truck3-cat1.png
subject-03,1,412,0.624967098236084,oven,elephant,0,0412_stg_s03_0_elephant_00_elephant4-car3.png
subject-03,1,413,0.744994878768921,chair,keyboard,0,0413_stg_s03_0_keyboard_00_keyboard10-car1.png
subject-03,1,414,0.642866134643555,elephant,knife,0,0414_stg_s03_0_knife_00_knife5-bicycle2.png
subject-03,1,415,0.841338872909546,bottle,airplane,0,0415_stg_s03_0_airplane_00_airplane1-clock1.png
subject-03,1,416,1.04500985145569,elephant,keyboard,0,0416_stg_s03_0_keyboard_00_keyboard3-elephant2.png
subject-03,1,417,1.02693700790405,elephant,bicycle,0,0417_stg_s03_0_bicycle_00_bicycle1-elephant2.png
subject-03,1,418,0.816780805587769,bottle,elephant,0,0418_stg_s03_0_elephant_00_elephant9-boat3.png
subject-03,1,419,0.739439964294434,bottle,chair,0,0419_stg_s03_0_chair_00_chair8-car1.png
subject-03,1,420,0.874588966369629,chair,elephant,0,0420_stg_s03_0_elephant_00_elephant8-bird2.png
subject-03,1,421,0.856786012649536,oven,keyboard,0,0421_stg_s03_0_keyboard_00_keyboard7-chair3.png
subject-03,1,422,0.769076824188232,car,clock,0,0422_stg_s03_0_clock_00_clock3-keyboard3.png
subject-03,1,423,1.15078711509705,cat,clock,0,0423_stg_s03_0_clock_00_clock1-clock2.png
subject-03,1,424,0.694319009780884,oven,bicycle,0,0424_stg_s03_0_bicycle_00_bicycle1-clock3.png
subject-03,1,425,0.82979416847229,oven,dog,0,0425_stg_s03_0_dog_00_dog8-oven3.png
subject-03,1,426,0.705905914306641,oven,bird,0,0426_stg_s03_0_bird_00_bird8-chair1.png
subject-03,1,427,0.742271900177002,elephant,bird,0,0427_stg_s03_0_bird_00_bird9-keyboard1.png
subject-03,1,428,1.25362300872803,clock,cat,0,0428_stg_s03_0_cat_00_cat6-chair3.png
subject-03,1,429,0.859771013259888,bear,elephant,0,0429_stg_s03_0_elephant_00_elephant7-keyboard3.png
subject-03,1,430,1.29395389556885,bird,bear,0,0430_stg_s03_0_bear_00_bear9-keyboard3.png
subject-03,1,431,0.769652128219604,bottle,bicycle,0,0431_stg_s03_0_bicycle_00_bicycle5-car3.png
subject-03,1,432,1.40604996681213,bottle,dog,0,0432_stg_s03_0_dog_00_dog2-bottle2.png
subject-03,1,433,0.857457160949707,oven,knife,0,0433_stg_s03_0_knife_00_knife1-truck2.png
subject-03,1,434,0.977383852005005,bird,bicycle,0,0434_stg_s03_0_bicycle_00_bicycle4-keyboard3.png
subject-03,1,435,1.04275417327881,elephant,knife,0,0435_stg_s03_0_knife_00_knife4-oven2.png
subject-03,1,436,0.965320110321045,dog,bottle,0,0436_stg_s03_0_bottle_00_bottle1-cat3.png
subject-03,1,437,1.06075811386108,chair,keyboard,0,0437_stg_s03_0_keyboard_00_keyboard9-chair2.png
subject-03,1,438,0.966557025909424,bottle,oven,0,0438_stg_s03_0_oven_00_oven3-boat3.png
subject-03,1,439,1.21618103981018,keyboard,elephant,0,0439_stg_s03_0_elephant_00_elephant2-bottle3.png
subject-03,1,440,1.15209293365479,bird,cat,0,0440_stg_s03_0_cat_00_cat4-airplane1.png
subject-03,1,441,0.920006036758423,elephant,clock,0,0441_stg_s03_0_clock_00_clock3-cat1.png
subject-03,1,442,0.869278192520142,bear,cat,0,0442_stg_s03_0_cat_00_cat1-chair2.png
subject-03,1,443,1.14589619636536,oven,oven,0,0443_stg_s03_0_oven_00_oven6-bicycle1.png
subject-03,1,444,0.734925031661987,chair,bear,0,0444_stg_s03_0_bear_00_bear5-bicycle3.png
subject-03,1,445,0.909399032592773,elephant,knife,0,0445_stg_s03_0_knife_00_knife1-dog1.png
subject-03,1,446,1.13127994537354,elephant,bird,0,0446_stg_s03_0_bird_00_bird1-bear1.png
subject-03,1,447,0.888551950454712,keyboard,bicycle,0,0447_stg_s03_0_bicycle_00_bicycle7-oven1.png
subject-03,1,448,1.37835288047791,oven,keyboard,0,0448_stg_s03_0_keyboard_00_keyboard9-boat2.png
subject-03,1,449,0.754603147506714,cat,oven,0,0449_stg_s03_0_oven_00_oven8-keyboard3.png
subject-03,1,450,0.728909015655518,oven,airplane,0,0450_stg_s03_0_airplane_00_airplane5-knife1.png
subject-03,1,451,0.680249929428101,bottle,boat,0,0451_stg_s03_0_boat_00_boat5-clock3.png
subject-03,1,452,1.15471792221069,oven,dog,0,0452_stg_s03_0_dog_00_dog3-clock1.png
subject-03,1,453,0.997596979141235,elephant,airplane,0,0453_stg_s03_0_airplane_00_airplane10-dog3.png
subject-03,1,454,0.819825887680054,oven,bicycle,0,0454_stg_s03_0_bicycle_00_bicycle4-truck3.png
subject-03,1,455,0.969702959060669,chair,bird,0,0455_stg_s03_0_bird_00_bird5-oven3.png
subject-03,1,456,0.891934156417847,oven,bottle,0,0456_stg_s03_0_bottle_00_bottle8-bird1.png
subject-03,1,457,0.827355146408081,keyboard,keyboard,0,0457_stg_s03_0_keyboard_00_keyboard2-bicycle3.png
subject-03,1,458,1.27471113204956,cat,truck,0,0458_stg_s03_0_truck_00_truck5-keyboard1.png
subject-03,1,459,1.30472898483276,chair,clock,0,0459_stg_s03_0_clock_00_clock6-chair3.png
subject-03,1,460,0.603477954864502,boat,oven,0,0460_stg_s03_0_oven_00_oven2-chair1.png
subject-03,1,461,0.892336845397949,elephant,cat,0,0461_stg_s03_0_cat_00_cat7-knife2.png
subject-03,1,462,1.12899398803711,dog,bird,0,0462_stg_s03_0_bird_00_bird3-oven1.png
subject-03,1,463,0.794749975204468,elephant,bear,0,0463_stg_s03_0_bear_00_bear8-elephant2.png
subject-03,1,464,1.0539219379425,bottle,chair,0,0464_stg_s03_0_chair_00_chair5-oven2.png
subject-03,1,465,1.23574805259705,bottle,dog,0,0465_stg_s03_0_dog_00_dog9-boat1.png
subject-03,1,466,0.680526971817017,clock,dog,0,0466_stg_s03_0_dog_00_dog10-bicycle1.png
subject-03,1,467,0.908072948455811,oven,oven,0,0467_stg_s03_0_oven_00_oven6-oven3.png
subject-03,1,468,0.675661087036133,bottle,bicycle,0,0468_stg_s03_0_bicycle_00_bicycle9-airplane2.png
subject-03,1,469,1.0633978843689,chair,clock,0,0469_stg_s03_0_clock_00_clock7-cat2.png
subject-03,1,470,0.806887149810791,cat,truck,0,0470_stg_s03_0_truck_00_truck1-cat1.png
subject-03,1,471,0.867281913757324,boat,car,0,0471_stg_s03_0_car_00_car1-oven3.png
subject-03,1,472,0.848608016967773,elephant,boat,0,0472_stg_s03_0_boat_00_boat4-elephant2.png
subject-03,1,473,1.19272398948669,bear,knife,0,0473_stg_s03_0_knife_00_knife4-bear1.png
subject-03,1,474,0.998868942260742,elephant,boat,0,0474_stg_s03_0_boat_00_boat6-cat1.png
subject-03,1,475,0.988656997680664,bottle,car,0,0475_stg_s03_0_car_00_car8-truck3.png
subject-03,1,476,1.10853004455566,elephant,truck,0,0476_stg_s03_0_truck_00_truck7-bear2.png
subject-03,1,477,1.24459218978882,elephant,knife,0,0477_stg_s03_0_knife_00_knife9-elephant2.png
subject-03,1,478,0.704333066940308,oven,truck,0,0478_stg_s03_0_truck_00_truck2-bottle3.png
subject-03,1,479,0.826892137527466,keyboard,truck,0,0479_stg_s03_0_truck_00_truck6-boat2.png
subject-03,1,480,0.862454175949097,oven,oven,0,0480_stg_s03_0_oven_00_oven2-bird2.png
subject-03,1,481,0.706086874008179,bottle,truck,0,0481_stg_s03_0_truck_00_truck1-bicycle3.png
subject-03,1,482,1.01028895378113,bird,boat,0,0482_stg_s03_0_boat_00_boat5-knife2.png
subject-03,1,483,0.832361936569214,oven,airplane,0,0483_stg_s03_0_airplane_00_airplane4-truck2.png
subject-03,1,484,0.784541845321655,bottle,dog,0,0484_stg_s03_0_dog_00_dog4-bicycle1.png
subject-03,1,485,0.928390979766846,elephant,cat,0,0485_stg_s03_0_cat_00_cat10-bird2.png
subject-03,1,486,0.794435024261475,cat,chair,0,0486_stg_s03_0_chair_00_chair8-bicycle3.png
subject-03,1,487,0.945733070373535,keyboard,bottle,0,0487_stg_s03_0_bottle_00_bottle6-bottle3.png
subject-03,1,488,0.703147172927856,bottle,cat,0,0488_stg_s03_0_cat_00_cat1-boat1.png
subject-03,1,489,0.860964059829712,cat,clock,0,0489_stg_s03_0_clock_00_clock8-cat1.png
subject-03,1,490,0.666597843170166,elephant,boat,0,0490_stg_s03_0_boat_00_boat6-bear1.png
subject-03,1,491,0.772702217102051,oven,clock,0,0491_stg_s03_0_clock_00_clock10-truck2.png
subject-03,1,492,0.770917177200317,keyboard,bear,0,0492_stg_s03_0_bear_00_bear4-car3.png
subject-03,1,493,0.99068808555603,chair,car,0,0493_stg_s03_0_car_00_car9-clock2.png
subject-03,1,494,0.650959968566895,bottle,bear,0,0494_stg_s03_0_bear_00_bear9-bottle2.png
subject-03,1,495,0.832634925842285,elephant,dog,0,0495_stg_s03_0_dog_00_dog4-elephant2.png
subject-03,1,496,1.21436285972595,keyboard,airplane,0,0496_stg_s03_0_airplane_00_airplane4-boat3.png
subject-03,1,497,0.891010999679565,elephant,chair,0,0497_stg_s03_0_chair_00_chair9-elephant1.png
subject-03,1,498,1.07279515266418,bottle,dog,0,0498_stg_s03_0_dog_00_dog4-oven1.png
subject-03,1,499,0.984520196914673,bird,keyboard,0,0499_stg_s03_0_keyboard_00_keyboard6-dog2.png
subject-03,1,500,0.982439994812012,cat,car,0,0500_stg_s03_0_car_00_car2-knife3.png
subject-03,1,501,0.666491985321045,elephant,elephant,0,0501_stg_s03_0_elephant_00_elephant6-cat2.png
subject-03,1,502,1.0455961227417,bottle,knife,0,0502_stg_s03_0_knife_00_knife4-boat1.png
subject-03,1,503,0.737288951873779,chair,bottle,0,0503_stg_s03_0_bottle_00_bottle8-keyboard3.png
subject-03,1,504,1.14160799980164,car,truck,0,0504_stg_s03_0_truck_00_truck2-car3.png
subject-03,1,505,1.42298412322998,bird,chair,0,0505_stg_s03_0_chair_00_chair3-dog2.png
subject-03,1,506,1.40561509132385,bottle,car,0,0506_stg_s03_0_car_00_car8-airplane3.png
subject-03,1,507,1.2348210811615,oven,oven,0,0507_stg_s03_0_oven_00_oven3-knife1.png
subject-03,1,508,0.802511930465698,bottle,boat,0,0508_stg_s03_0_boat_00_boat1-car2.png
subject-03,1,509,0.846925020217896,bottle,car,0,0509_stg_s03_0_car_00_car3-airplane3.png
subject-03,1,510,0.908246040344238,bottle,oven,0,0510_stg_s03_0_oven_00_oven1-bird3.png
subject-03,1,511,0.912155151367188,elephant,bicycle,0,0511_stg_s03_0_bicycle_00_bicycle9-bear1.png
subject-03,1,512,1.20979905128479,bottle,bicycle,0,0512_stg_s03_0_bicycle_00_bicycle8-truck1.png
subject-03,1,513,0.755253076553345,bottle,oven,0,0513_stg_s03_0_oven_00_oven4-car1.png
subject-03,1,514,1.17573213577271,bottle,elephant,0,0514_stg_s03_0_elephant_00_elephant1-airplane2.png
subject-03,1,515,0.83502197265625,chair,oven,0,0515_stg_s03_0_oven_00_oven1-boat3.png
subject-03,1,516,0.887619972229004,bird,airplane,0,0516_stg_s03_0_airplane_00_airplane3-clock1.png
subject-03,1,517,0.939713001251221,bottle,bottle,0,0517_stg_s03_0_bottle_00_bottle10-clock2.png
subject-03,1,518,0.813050985336304,oven,oven,0,0518_stg_s03_0_oven_00_oven7-cat1.png
subject-03,1,519,0.702707052230835,chair,truck,0,0519_stg_s03_0_truck_00_truck7-chair2.png
subject-03,1,520,0.725826025009155,clock,knife,0,0520_stg_s03_0_knife_00_knife9-airplane2.png
subject-03,1,521,0.761790990829468,bottle,elephant,0,0521_stg_s03_0_elephant_00_elephant1-chair1.png
subject-03,1,522,0.683916807174683,oven,airplane,0,0522_stg_s03_0_airplane_00_airplane2-bird3.png
subject-03,1,523,0.790866851806641,bottle,car,0,0523_stg_s03_0_car_00_car3-truck1.png
subject-03,1,524,1.1267831325531,chair,elephant,0,0524_stg_s03_0_elephant_00_elephant10-knife3.png
subject-03,1,525,0.809083938598633,bottle,oven,0,0525_stg_s03_0_oven_00_oven8-chair1.png
subject-03,1,526,1.09906101226807,bear,dog,0,0526_stg_s03_0_dog_00_dog1-dog2.png
subject-03,1,527,0.92670202255249,oven,knife,0,0527_stg_s03_0_knife_00_knife1-airplane1.png
subject-03,1,528,0.757331132888794,chair,oven,0,0528_stg_s03_0_oven_00_oven4-knife2.png
subject-03,1,529,1.07691287994385,elephant,cat,0,0529_stg_s03_0_cat_00_cat2-elephant1.png
subject-03,1,530,1.04308485984802,bottle,car,0,0530_stg_s03_0_car_00_car4-bicycle3.png
subject-03,1,531,1.23319005966187,bottle,cat,0,0531_stg_s03_0_cat_00_cat7-truck2.png
subject-03,1,532,0.630460977554321,chair,bear,0,0532_stg_s03_0_bear_00_bear5-boat2.png
subject-03,1,533,0.729119062423706,bottle,boat,0,0533_stg_s03_0_boat_00_boat3-car3.png
subject-03,1,534,0.956660985946655,cat,car,0,0534_stg_s03_0_car_00_car1-keyboard2.png
subject-03,1,535,0.631897926330566,bottle,dog,0,0535_stg_s03_0_dog_00_dog10-car3.png
subject-03,1,536,0.768569946289062,bottle,dog,0,0536_stg_s03_0_dog_00_dog1-bird1.png
subject-03,1,537,0.912064075469971,elephant,bird,0,0537_stg_s03_0_bird_00_bird4-bicycle2.png
subject-03,1,538,1.01595091819763,bear,clock,0,0538_stg_s03_0_clock_00_clock1-bear1.png
subject-03,1,539,0.959374904632568,bird,bird,0,0539_stg_s03_0_bird_00_bird4-clock1.png
subject-03,1,540,1.06572580337524,oven,bottle,0,0540_stg_s03_0_bottle_00_bottle4-airplane1.png
subject-03,1,541,0.733213901519775,chair,clock,0,0541_stg_s03_0_clock_00_clock9-chair3.png
subject-03,1,542,0.698703050613403,keyboard,keyboard,0,0542_stg_s03_0_keyboard_00_keyboard4-clock2.png
subject-03,1,543,0.720838069915771,elephant,bear,0,0543_stg_s03_0_bear_00_bear7-dog3.png
subject-03,1,544,0.927280902862549,chair,bear,0,0544_stg_s03_0_bear_00_bear9-boat2.png
subject-03,1,545,0.862546920776367,bottle,bicycle,0,0545_stg_s03_0_bicycle_00_bicycle9-bottle1.png
subject-03,1,546,0.935980796813965,cat,dog,0,0546_stg_s03_0_dog_00_dog2-bicycle2.png
subject-03,1,547,0.763508796691895,oven,bicycle,0,0547_stg_s03_0_bicycle_00_bicycle2-knife2.png
subject-03,1,548,0.791409969329834,chair,dog,0,0548_stg_s03_0_dog_00_dog5-bear3.png
subject-03,1,549,0.819693803787231,clock,bird,0,0549_stg_s03_0_bird_00_bird7-truck2.png
subject-03,1,550,1.09558892250061,elephant,cat,0,0550_stg_s03_0_cat_00_cat3-elephant2.png
subject-03,1,551,1.07757592201233,bottle,chair,0,0551_stg_s03_0_chair_00_chair3-car3.png
subject-03,1,552,0.675391912460327,elephant,dog,0,0552_stg_s03_0_dog_00_dog8-bear3.png
subject-03,1,553,0.766133069992065,chair,oven,0,0553_stg_s03_0_oven_00_oven5-bird1.png
subject-03,1,554,1.13947510719299,bottle,airplane,0,0554_stg_s03_0_airplane_00_airplane10-boat3.png
subject-03,1,555,0.875491857528687,bottle,oven,0,0555_stg_s03_0_oven_00_oven2-car1.png
subject-03,1,556,1.18712210655212,oven,oven,0,0556_stg_s03_0_oven_00_oven10-bicycle1.png
subject-03,1,557,1.00821590423584,bottle,cat,0,0557_stg_s03_0_cat_00_cat10-clock1.png
subject-03,1,558,1.12893509864807,bird,bear,0,0558_stg_s03_0_bear_00_bear1-bird2.png
subject-03,1,559,0.613336086273193,oven,keyboard,0,0559_stg_s03_0_keyboard_00_keyboard4-cat2.png
subject-03,1,560,0.98657488822937,elephant,knife,0,0560_stg_s03_0_knife_00_knife1-clock2.png
subject-03,1,561,0.930836915969849,bottle,bottle,0,0561_stg_s03_0_bottle_00_bottle5-boat1.png
subject-03,1,562,0.929054021835327,car,cat,0,0562_stg_s03_0_cat_00_cat1-airplane1.png
subject-03,1,563,1.07330918312073,cat,chair,0,0563_stg_s03_0_chair_00_chair9-dog2.png
subject-03,1,564,0.647292852401733,bottle,boat,0,0564_stg_s03_0_boat_00_boat6-truck3.png
subject-03,1,565,0.823192119598389,clock,car,0,0565_stg_s03_0_car_00_car7-car1.png
subject-03,1,566,0.905390977859497,oven,oven,0,0566_stg_s03_0_oven_00_oven10-oven3.png
subject-03,1,567,1.40931987762451,bottle,airplane,0,0567_stg_s03_0_airplane_00_airplane7-airplane3.png
subject-03,1,568,0.785468101501465,keyboard,keyboard,0,0568_stg_s03_0_keyboard_00_keyboard7-clock3.png
subject-03,1,569,0.766624927520752,bottle,oven,0,0569_stg_s03_0_oven_00_oven1-cat1.png
subject-03,1,570,0.973706007003784,bottle,bird,0,0570_stg_s03_0_bird_00_bird8-car2.png
subject-03,1,571,1.50017905235291,oven,airplane,0,0571_stg_s03_0_airplane_00_airplane1-chair2.png
subject-03,1,572,0.644115924835205,oven,chair,0,0572_stg_s03_0_chair_00_chair9-bear1.png
subject-03,1,573,1.04018211364746,chair,boat,0,0573_stg_s03_0_boat_00_boat8-truck2.png
subject-03,1,574,0.867470979690552,bottle,chair,0,0574_stg_s03_0_chair_00_chair7-truck3.png
subject-03,1,575,1.24128222465515,elephant,bicycle,0,0575_stg_s03_0_bicycle_00_bicycle4-cat1.png
subject-03,1,576,1.13429594039917,cat,airplane,0,0576_stg_s03_0_airplane_00_airplane6-knife1.png
subject-03,1,577,0.702722072601318,bottle,chair,0,0577_stg_s03_0_chair_00_chair5-car1.png
subject-03,1,578,0.776044130325317,bottle,bear,0,0578_stg_s03_0_bear_00_bear1-chair2.png
subject-03,1,579,0.695918798446655,elephant,airplane,0,0579_stg_s03_0_airplane_00_airplane10-elephant1.png
subject-03,1,580,0.956305980682373,bottle,bear,0,0580_stg_s03_0_bear_00_bear10-keyboard3.png
subject-03,1,581,0.91658091545105,chair,chair,0,0581_stg_s03_0_chair_00_chair7-knife2.png
subject-03,1,582,0.706038951873779,oven,bicycle,0,0582_stg_s03_0_bicycle_00_bicycle1-oven1.png
subject-03,1,583,0.749566078186035,elephant,knife,0,0583_stg_s03_0_knife_00_knife7-elephant2.png
subject-03,1,584,1.22379803657532,bird,chair,0,0584_stg_s03_0_chair_00_chair5-cat3.png
subject-03,1,585,0.721273183822632,elephant,keyboard,0,0585_stg_s03_0_keyboard_00_keyboard6-elephant1.png
subject-03,1,586,1.04912710189819,keyboard,elephant,0,0586_stg_s03_0_elephant_00_elephant1-oven2.png
subject-03,1,587,0.798402070999146,bottle,dog,0,0587_stg_s03_0_dog_00_dog1-chair1.png
subject-03,1,588,0.996968984603882,chair,elephant,0,0588_stg_s03_0_elephant_00_elephant7-knife2.png
subject-03,1,589,0.848819971084595,bottle,bicycle,0,0589_stg_s03_0_bicycle_00_bicycle4-car2.png
subject-03,1,590,0.708556890487671,elephant,car,0,0590_stg_s03_0_car_00_car7-elephant3.png
subject-03,1,591,0.87384819984436,oven,bird,0,0591_stg_s03_0_bird_00_bird10-cat1.png
subject-03,1,592,0.980145931243896,bottle,truck,0,0592_stg_s03_0_truck_00_truck1-bird1.png
subject-03,1,593,0.748970985412598,oven,bear,0,0593_stg_s03_0_bear_00_bear3-keyboard2.png
subject-03,1,594,1.09790205955505,chair,knife,0,0594_stg_s03_0_knife_00_knife2-truck2.png
subject-03,1,595,0.796146869659424,oven,bicycle,0,0595_stg_s03_0_bicycle_00_bicycle3-oven3.png
subject-03,1,596,0.840230941772461,bottle,truck,0,0596_stg_s03_0_truck_00_truck3-knife2.png
subject-03,1,597,0.697055101394653,oven,bear,0,0597_stg_s03_0_bear_00_bear4-knife1.png
subject-03,1,598,0.98676586151123,chair,bird,0,0598_stg_s03_0_bird_00_bird1-airplane2.png
subject-03,1,599,1.06336998939514,bird,oven,0,0599_stg_s03_0_oven_00_oven10-cat2.png
subject-03,1,600,0.999751091003418,bottle,oven,0,0600_stg_s03_0_oven_00_oven6-bird1.png
subject-03,1,601,0.629601955413818,elephant,knife,0,0601_stg_s03_0_knife_00_knife1-elephant1.png
subject-03,1,602,0.719626903533936,bottle,elephant,0,0602_stg_s03_0_elephant_00_elephant9-airplane2.png
subject-03,1,603,0.96981406211853,bottle,cat,0,0603_stg_s03_0_cat_00_cat2-truck3.png
subject-03,1,604,0.799454927444458,bottle,cat,0,0604_stg_s03_0_cat_00_cat2-knife3.png
subject-03,1,605,1.08183002471924,bird,bird,0,0605_stg_s03_0_bird_00_bird7-keyboard3.png
subject-03,1,606,0.955313920974731,bottle,airplane,0,0606_stg_s03_0_airplane_00_airplane7-truck1.png
subject-03,1,607,0.729259014129639,chair,boat,0,0607_stg_s03_0_boat_00_boat4-bicycle3.png
subject-03,1,608,0.827449083328247,bottle,bird,0,0608_stg_s03_0_bird_00_bird6-airplane2.png
subject-03,1,609,0.963397026062012,elephant,airplane,0,0609_stg_s03_0_airplane_00_airplane4-dog2.png
subject-03,1,610,1.02854609489441,chair,knife,0,0610_stg_s03_0_knife_00_knife6-truck1.png
subject-03,1,611,0.642894983291626,bottle,oven,0,0611_stg_s03_0_oven_00_oven4-bicycle2.png
subject-03,1,612,1.2167489528656,cat,bicycle,0,0612_stg_s03_0_bicycle_00_bicycle7-bicycle2.png
subject-03,1,613,0.798113822937012,oven,oven,0,0613_stg_s03_0_oven_00_oven9-airplane2.png
subject-03,1,614,0.963634014129639,keyboard,keyboard,0,0614_stg_s03_0_keyboard_00_keyboard8-dog3.png
subject-03,1,615,1.32350301742554,chair,oven,0,0615_stg_s03_0_oven_00_oven4-keyboard3.png
subject-03,1,616,0.892827033996582,bottle,cat,0,0616_stg_s03_0_cat_00_cat3-cat1.png
subject-03,1,617,0.942155838012695,bird,car,0,0617_stg_s03_0_car_00_car9-knife1.png
subject-03,1,618,0.72292685508728,cat,bird,0,0618_stg_s03_0_bird_00_bird3-cat1.png
subject-03,1,619,1.09158802032471,bottle,bird,0,0619_stg_s03_0_bird_00_bird9-bicycle3.png
subject-03,1,620,1.24886298179626,elephant,chair,0,0620_stg_s03_0_chair_00_chair8-bear1.png
subject-03,1,621,1.02191209793091,elephant,knife,0,0621_stg_s03_0_knife_00_knife6-dog2.png
subject-03,1,622,0.890420913696289,elephant,chair,0,0622_stg_s03_0_chair_00_chair4-keyboard2.png
subject-03,1,623,1.27262711524963,elephant,car,0,0623_stg_s03_0_car_00_car4-bear3.png
subject-03,1,624,1.43011403083801,bear,car,0,0624_stg_s03_0_car_00_car10-dog1.png
subject-03,1,625,0.897704124450684,cat,bicycle,0,0625_stg_s03_0_bicycle_00_bicycle5-chair2.png
subject-03,1,626,0.917962789535522,bottle,knife,0,0626_stg_s03_0_knife_00_knife5-truck3.png
subject-03,1,627,0.95373797416687,oven,clock,0,0627_stg_s03_0_clock_00_clock6-car2.png
subject-03,1,628,0.791604042053223,cat,cat,0,0628_stg_s03_0_cat_00_cat8-bird2.png
subject-03,1,629,0.79576587677002,bottle,bird,0,0629_stg_s03_0_bird_00_bird7-car2.png
subject-03,1,630,0.885197162628174,elephant,bicycle,0,0630_stg_s03_0_bicycle_00_bicycle5-oven3.png
subject-03,1,631,1.15040302276611,elephant,clock,0,0631_stg_s03_0_clock_00_clock2-knife1.png
subject-03,1,632,0.985663175582886,bottle,chair,0,0632_stg_s03_0_chair_00_chair10-bottle3.png
subject-03,1,633,1.05124497413635,bird,keyboard,0,0633_stg_s03_0_keyboard_00_keyboard7-bear2.png
subject-03,1,634,0.827264785766602,elephant,cat,0,0634_stg_s03_0_cat_00_cat10-elephant3.png
subject-03,1,635,1.43916583061218,bird,dog,0,0635_stg_s03_0_dog_00_dog10-keyboard2.png
subject-03,1,636,0.977308034896851,bottle,clock,0,0636_stg_s03_0_clock_00_clock7-bear2.png
subject-03,1,637,0.968039989471436,bottle,truck,0,0637_stg_s03_0_truck_00_truck10-car3.png
subject-03,1,638,1.17942905426025,cat,boat,0,0638_stg_s03_0_boat_00_boat10-cat1.png
subject-03,1,639,0.815470933914185,bottle,cat,0,0639_stg_s03_0_cat_00_cat2-car3.png
subject-03,1,640,0.707894086837769,oven,truck,0,0640_stg_s03_0_truck_00_truck4-knife1.png
subject-03,1,641,1.12750911712646,cat,bear,0,0641_stg_s03_0_bear_00_bear8-dog1.png
subject-03,1,642,0.90134596824646,cat,keyboard,0,0642_stg_s03_0_keyboard_00_keyboard5-dog3.png
subject-03,1,643,0.991651058197021,bear,cat,0,0643_stg_s03_0_cat_00_cat5-bear2.png
subject-03,1,644,1.01897692680359,cat,dog,0,0644_stg_s03_0_dog_00_dog8-boat3.png
subject-03,1,645,0.965624094009399,bottle,bottle,0,0645_stg_s03_0_bottle_00_bottle4-oven2.png
subject-03,1,646,0.792546987533569,elephant,bear,0,0646_stg_s03_0_bear_00_bear10-elephant1.png
subject-03,1,647,1.01802110671997,chair,chair,0,0647_stg_s03_0_chair_00_chair7-bird1.png
subject-03,1,648,1.07015800476074,elephant,knife,0,0648_stg_s03_0_knife_00_knife6-bicycle1.png
subject-03,1,649,0.961802959442139,bear,car,0,0649_stg_s03_0_car_00_car7-dog3.png
subject-03,1,650,0.727495908737183,elephant,bicycle,0,0650_stg_s03_0_bicycle_00_bicycle10-elephant2.png
subject-03,1,651,1.0637001991272,elephant,knife,0,0651_stg_s03_0_knife_00_knife7-chair2.png
subject-03,1,652,1.0401930809021,bottle,bicycle,0,0652_stg_s03_0_bicycle_00_bicycle9-knife3.png
subject-03,1,653,1.11357188224792,bottle,bicycle,0,0653_stg_s03_0_bicycle_00_bicycle1-bicycle3.png
subject-03,1,654,1.00342893600464,oven,cat,0,0654_stg_s03_0_cat_00_cat1-cat3.png
subject-03,1,655,0.617292881011963,bottle,truck,0,0655_stg_s03_0_truck_00_truck7-boat1.png
subject-03,1,656,1.50029706954956,bottle,airplane,0,0656_stg_s03_0_airplane_00_airplane8-chair1.png
subject-03,1,657,0.65967583656311,bottle,boat,0,0657_stg_s03_0_boat_00_boat1-truck3.png
subject-03,1,658,0.741035938262939,bottle,bear,0,0658_stg_s03_0_bear_00_bear2-knife2.png
subject-03,1,659,0.860991954803467,bottle,bottle,0,0659_stg_s03_0_bottle_00_bottle3-bird1.png
subject-03,1,660,1.24867701530457,chair,elephant,0,0660_stg_s03_0_elephant_00_elephant9-bicycle2.png
subject-03,1,661,1.4389910697937,oven,truck,0,0661_stg_s03_0_truck_00_truck10-bicycle1.png
subject-03,1,662,0.860728025436401,bottle,truck,0,0662_stg_s03_0_truck_00_truck5-airplane2.png
subject-03,1,663,1.23452186584473,keyboard,keyboard,0,0663_stg_s03_0_keyboard_00_keyboard4-bottle2.png
subject-03,1,664,0.710858821868896,bottle,dog,0,0664_stg_s03_0_dog_00_dog8-bottle2.png
subject-03,1,665,0.709161996841431,bottle,oven,0,0665_stg_s03_0_oven_00_oven4-bottle2.png
subject-03,1,666,0.997320175170898,boat,boat,0,0666_stg_s03_0_boat_00_boat1-bicycle2.png
subject-03,1,667,0.956531047821045,elephant,car,0,0667_stg_s03_0_car_00_car8-bicycle2.png
subject-03,1,668,1.14595699310303,bottle,clock,0,0668_stg_s03_0_clock_00_clock10-oven2.png
subject-03,1,669,1.12826108932495,bottle,car,0,0669_stg_s03_0_car_00_car10-keyboard2.png
subject-03,1,670,1.05535793304443,chair,truck,0,0670_stg_s03_0_truck_00_truck6-oven3.png
subject-03,1,671,1.08305191993713,chair,clock,0,0671_stg_s03_0_clock_00_clock4-car2.png
subject-03,1,672,0.873471975326538,bottle,keyboard,0,0672_stg_s03_0_keyboard_00_keyboard5-bottle1.png
subject-03,1,673,0.845489025115967,oven,cat,0,0673_stg_s03_0_cat_00_cat3-oven2.png
subject-03,1,674,0.773800849914551,bottle,bottle,0,0674_stg_s03_0_bottle_00_bottle9-keyboard1.png
subject-03,1,675,0.72594690322876,elephant,truck,0,0675_stg_s03_0_truck_00_truck8-elephant1.png
subject-03,1,676,0.945547103881836,bottle,dog,0,0676_stg_s03_0_dog_00_dog4-keyboard2.png
subject-03,1,677,0.781077146530151,bottle,bicycle,0,0677_stg_s03_0_bicycle_00_bicycle4-boat1.png
subject-03,1,678,1.04703307151794,oven,boat,0,0678_stg_s03_0_boat_00_boat5-boat3.png
subject-03,1,679,1.02373194694519,chair,bird,0,0679_stg_s03_0_bird_00_bird1-knife3.png
subject-03,1,680,1.07366394996643,cat,bear,0,0680_stg_s03_0_bear_00_bear3-bird3.png
subject-03,1,681,0.917281150817871,bottle,car,0,0681_stg_s03_0_car_00_car5-truck3.png
subject-03,1,682,0.960984945297241,keyboard,clock,0,0682_stg_s03_0_clock_00_clock4-knife1.png
subject-03,1,683,0.796856164932251,bottle,airplane,0,0683_stg_s03_0_airplane_00_airplane4-car1.png
subject-03,1,684,0.986960887908936,keyboard,car,0,0684_stg_s03_0_car_00_car1-chair3.png
subject-03,1,685,1.12050795555115,elephant,elephant,0,0685_stg_s03_0_elephant_00_elephant7-bird1.png
subject-03,1,686,0.910609006881714,elephant,boat,0,0686_stg_s03_0_boat_00_boat9-cat3.png
subject-03,1,687,0.800271987915039,bottle,bottle,0,0687_stg_s03_0_bottle_00_bottle6-boat3.png
subject-03,1,688,1.13608980178833,boat,truck,0,0688_stg_s03_0_truck_00_truck10-airplane1.png
subject-03,1,689,0.85607385635376,oven,truck,0,0689_stg_s03_0_truck_00_truck9-boat3.png
subject-03,1,690,0.823997020721436,elephant,bear,0,0690_stg_s03_0_bear_00_bear6-bear1.png
subject-03,1,691,1.47674798965454,elephant,oven,0,0691_stg_s03_0_oven_00_oven2-bear3.png
subject-03,1,692,0.967231035232544,bottle,airplane,0,0692_stg_s03_0_airplane_00_airplane10-truck1.png
subject-03,1,693,1.2022340297699,elephant,airplane,0,0693_stg_s03_0_airplane_00_airplane6-bear3.png
subject-03,1,694,0.752231121063232,bottle,bird,0,0694_stg_s03_0_bird_00_bird1-clock3.png
subject-03,1,695,0.875236988067627,cat,cat,0,0695_stg_s03_0_cat_00_cat5-dog3.png
subject-03,1,696,0.887104988098145,bottle,chair,0,0696_stg_s03_0_chair_00_chair2-bear2.png
subject-03,1,697,0.600759029388428,boat,clock,0,0697_stg_s03_0_clock_00_clock3-bear3.png
subject-03,1,698,0.812983989715576,bottle,cat,0,0698_stg_s03_0_cat_00_cat1-oven1.png
subject-03,1,699,0.735280990600586,bottle,bottle,0,0699_stg_s03_0_bottle_00_bottle2-knife3.png
subject-03,1,700,0.825224876403809,elephant,boat,0,0700_stg_s03_0_boat_00_boat6-elephant2.png
subject-03,1,701,0.882977962493896,bottle,bear,0,0701_stg_s03_0_bear_00_bear2-car2.png
subject-03,1,702,1.07251501083374,bottle,airplane,0,0702_stg_s03_0_airplane_00_airplane10-car3.png
subject-03,1,703,0.77063512802124,boat,keyboard,0,0703_stg_s03_0_keyboard_00_keyboard7-oven2.png
subject-03,1,704,0.66812801361084,oven,bicycle,0,0704_stg_s03_0_bicycle_00_bicycle4-knife3.png
subject-03,1,705,0.927379131317139,elephant,bottle,0,0705_stg_s03_0_bottle_00_bottle1-dog2.png
subject-03,1,706,1.03322887420654,bear,bird,0,0706_stg_s03_0_bird_00_bird3-dog1.png
subject-03,1,707,0.777470111846924,bottle,boat,0,0707_stg_s03_0_boat_00_boat3-airplane2.png
subject-03,1,708,0.691517114639282,bottle,bear,0,0708_stg_s03_0_bear_00_bear5-chair1.png
subject-03,1,709,0.659734964370728,oven,boat,0,0709_stg_s03_0_boat_00_boat3-clock3.png
subject-03,1,710,0.733084201812744,elephant,car,0,0710_stg_s03_0_car_00_car4-elephant3.png
subject-03,1,711,0.852458000183105,cat,airplane,0,0711_stg_s03_0_airplane_00_airplane3-cat1.png
subject-03,1,712,1.20929789543152,dog,bear,0,0712_stg_s03_0_bear_00_bear1-clock2.png
subject-03,1,713,0.845566987991333,bottle,bicycle,0,0713_stg_s03_0_bicycle_00_bicycle8-bear2.png
subject-03,1,714,0.893514156341553,chair,bird,0,0714_stg_s03_0_bird_00_bird2-bird2.png
subject-03,1,715,0.943274021148682,elephant,knife,0,0715_stg_s03_0_knife_00_knife2-dog1.png
subject-03,1,716,0.98006796836853,chair,boat,0,0716_stg_s03_0_boat_00_boat6-knife2.png
subject-03,1,717,1.2320830821991,elephant,oven,0,0717_stg_s03_0_oven_00_oven7-elephant1.png
subject-03,1,718,0.921368837356567,bear,dog,0,0718_stg_s03_0_dog_00_dog3-bird2.png
subject-03,1,719,1.03294801712036,cat,bottle,0,0719_stg_s03_0_bottle_00_bottle6-bird1.png
subject-03,1,720,0.931580781936646,bottle,chair,0,0720_stg_s03_0_chair_00_chair1-clock2.png
subject-03,1,721,0.78252387046814,bottle,car,0,0721_stg_s03_0_car_00_car7-clock1.png
subject-03,1,722,0.942567110061646,oven,knife,0,0722_stg_s03_0_knife_00_knife6-oven3.png
subject-03,1,723,0.894912004470825,bottle,bicycle,0,0723_stg_s03_0_bicycle_00_bicycle1-chair1.png
subject-03,1,724,0.914107084274292,bottle,car,0,0724_stg_s03_0_car_00_car4-bird1.png
subject-03,1,725,1.00945997238159,elephant,bear,0,0725_stg_s03_0_bear_00_bear2-elephant1.png
subject-03,1,726,0.991503000259399,bottle,bottle,0,0726_stg_s03_0_bottle_00_bottle10-truck3.png
subject-03,1,727,0.697452068328857,bottle,airplane,0,0727_stg_s03_0_airplane_00_airplane3-car1.png
subject-03,1,728,0.809059143066406,oven,bird,0,0728_stg_s03_0_bird_00_bird6-bottle3.png
subject-03,1,729,0.798889875411987,cat,bird,0,0729_stg_s03_0_bird_00_bird7-oven3.png
subject-03,1,730,0.913196802139282,bottle,truck,0,0730_stg_s03_0_truck_00_truck2-chair1.png
subject-03,1,731,1.00370502471924,bottle,chair,0,0731_stg_s03_0_chair_00_chair7-boat3.png
subject-03,1,732,1.01764392852783,bottle,bear,0,0732_stg_s03_0_bear_00_bear7-bicycle2.png
subject-03,1,733,1.11563801765442,bottle,boat,0,0733_stg_s03_0_boat_00_boat2-airplane1.png
subject-03,1,734,0.873722791671753,bottle,bottle,0,0734_stg_s03_0_bottle_00_bottle7-boat3.png
subject-03,1,735,1.10939788818359,elephant,elephant,0,0735_stg_s03_0_elephant_00_elephant10-bear1.png
subject-03,1,736,1.01578903198242,bird,truck,0,0736_stg_s03_0_truck_00_truck3-dog3.png
subject-03,1,737,0.788855075836182,bottle,bottle,0,0737_stg_s03_0_bottle_00_bottle9-bottle1.png
subject-03,1,738,1.03287482261658,dog,boat,0,0738_stg_s03_0_boat_00_boat8-bird2.png
subject-03,1,739,1.28276801109314,bear,knife,0,0739_stg_s03_0_knife_00_knife6-airplane1.png
subject-03,1,740,0.628653049468994,bottle,keyboard,0,0740_stg_s03_0_keyboard_00_keyboard10-boat2.png
subject-03,1,741,0.902984857559204,elephant,boat,0,0741_stg_s03_0_boat_00_boat8-elephant1.png
subject-03,1,742,1.01426005363464,dog,cat,0,0742_stg_s03_0_cat_00_cat7-dog3.png
subject-03,1,743,0.866132974624634,cat,bicycle,0,0743_stg_s03_0_bicycle_00_bicycle8-clock3.png
subject-03,1,744,0.901176929473877,bottle,cat,0,0744_stg_s03_0_cat_00_cat1-car2.png
subject-03,1,745,0.737545967102051,bottle,bird,0,0745_stg_s03_0_bird_00_bird3-truck3.png
subject-03,1,746,0.949235916137695,elephant,airplane,0,0746_stg_s03_0_airplane_00_airplane4-knife1.png
subject-03,1,747,0.801238059997559,bottle,bicycle,0,0747_stg_s03_0_bicycle_00_bicycle9-car1.png
subject-03,1,748,1.05820202827454,bird,boat,0,0748_stg_s03_0_boat_00_boat3-dog3.png
subject-03,1,749,1.00718998908997,bottle,dog,0,0749_stg_s03_0_dog_00_dog9-car1.png
subject-03,1,750,0.830755949020386,oven,knife,0,0750_stg_s03_0_knife_00_knife4-clock3.png
subject-03,1,751,1.50006604194641,chair,elephant,0,0751_stg_s03_0_elephant_00_elephant2-keyboard3.png
subject-03,1,752,0.848266124725342,chair,truck,0,0752_stg_s03_0_truck_00_truck5-car1.png
subject-03,1,753,0.970202922821045,elephant,chair,0,0753_stg_s03_0_chair_00_chair7-elephant1.png
subject-03,1,754,1.09884214401245,bottle,keyboard,0,0754_stg_s03_0_keyboard_00_keyboard6-boat2.png
subject-03,1,755,1.08114290237427,boat,truck,0,0755_stg_s03_0_truck_00_truck10-truck3.png
subject-03,1,756,1.17942810058594,bottle,oven,0,0756_stg_s03_0_oven_00_oven10-boat2.png
subject-03,1,757,0.692681074142456,clock,oven,0,0757_stg_s03_0_oven_00_oven2-truck3.png
subject-03,1,758,0.67418098449707,bottle,bottle,0,0758_stg_s03_0_bottle_00_bottle6-bicycle3.png
subject-03,1,759,0.686218023300171,bottle,bottle,0,0759_stg_s03_0_bottle_00_bottle3-airplane2.png
subject-03,1,760,0.776291847229004,chair,knife,0,0760_stg_s03_0_knife_00_knife6-clock2.png
subject-03,1,761,1.08233690261841,boat,airplane,0,0761_stg_s03_0_airplane_00_airplane4-airplane1.png
subject-03,1,762,1.00246000289917,elephant,bicycle,0,0762_stg_s03_0_bicycle_00_bicycle7-elephant2.png
subject-03,1,763,1.34608793258667,cat,elephant,0,0763_stg_s03_0_elephant_00_elephant3-keyboard2.png
subject-03,1,764,1.03608798980713,chair,chair,0,0764_stg_s03_0_chair_00_chair9-keyboard2.png
subject-03,1,765,1.21798801422119,elephant,clock,0,0765_stg_s03_0_clock_00_clock1-elephant2.png
subject-03,1,766,0.945202827453613,bottle,cat,0,0766_stg_s03_0_cat_00_cat8-bicycle3.png
subject-03,1,767,0.957602977752686,oven,bottle,0,0767_stg_s03_0_bottle_00_bottle6-airplane1.png
subject-03,1,768,0.933658838272095,bottle,chair,0,0768_stg_s03_0_chair_00_chair7-clock3.png
subject-03,1,769,0.648319005966187,bottle,bottle,0,0769_stg_s03_0_bottle_00_bottle2-chair3.png
subject-03,1,770,0.700390100479126,oven,car,0,0770_stg_s03_0_car_00_car4-oven2.png
subject-03,1,771,0.781806945800781,elephant,airplane,0,0771_stg_s03_0_airplane_00_airplane10-bear3.png
subject-03,1,772,0.688150882720947,bottle,knife,0,0772_stg_s03_0_knife_00_knife6-chair3.png
subject-03,1,773,1.17645502090454,oven,knife,0,0773_stg_s03_0_knife_00_knife1-keyboard3.png
subject-03,1,774,0.886936902999878,elephant,bird,0,0774_stg_s03_0_bird_00_bird5-bear3.png
subject-03,1,775,0.917394876480103,oven,chair,0,0775_stg_s03_0_chair_00_chair10-car2.png
subject-03,1,776,0.753077983856201,cat,bottle,0,0776_stg_s03_0_bottle_00_bottle10-bear2.png
subject-03,1,777,1.1028299331665,chair,dog,0,0777_stg_s03_0_dog_00_dog3-knife3.png
subject-03,1,778,0.824232816696167,bottle,bicycle,0,0778_stg_s03_0_bicycle_00_bicycle6-boat2.png
subject-03,1,779,0.72166109085083,oven,car,0,0779_stg_s03_0_car_00_car9-bird1.png
subject-03,1,780,1.1801609992981,bottle,truck,0,0780_stg_s03_0_truck_00_truck8-bottle2.png
subject-03,1,781,1.27801299095154,elephant,oven,0,0781_stg_s03_0_oven_00_oven3-bear2.png
subject-03,1,782,0.989553928375244,oven,bicycle,0,0782_stg_s03_0_bicycle_00_bicycle5-keyboard3.png
subject-03,1,783,0.695559024810791,oven,dog,0,0783_stg_s03_0_dog_00_dog4-clock1.png
subject-03,1,784,0.708827018737793,bottle,chair,0,0784_stg_s03_0_chair_00_chair3-knife1.png
subject-03,1,785,0.644635915756226,bottle,keyboard,0,0785_stg_s03_0_keyboard_00_keyboard6-bottle2.png
subject-03,1,786,1.11084818840027,bottle,clock,0,0786_stg_s03_0_clock_00_clock9-bird2.png
subject-03,1,787,0.724500894546509,oven,dog,0,0787_stg_s03_0_dog_00_dog4-bottle2.png
subject-03,1,788,0.568207025527954,bottle,dog,0,0788_stg_s03_0_dog_00_dog5-truck2.png
subject-03,1,789,0.75590991973877,oven,bear,0,0789_stg_s03_0_bear_00_bear10-oven1.png
subject-03,1,790,1.45420908927917,bird,truck,0,0790_stg_s03_0_truck_00_truck3-chair2.png
subject-03,1,791,0.973876953125,bottle,elephant,0,0791_stg_s03_0_elephant_00_elephant7-bottle3.png
subject-03,1,792,0.696112871170044,bottle,keyboard,0,0792_stg_s03_0_keyboard_00_keyboard5-knife2.png
subject-03,1,793,0.832046985626221,bottle,chair,0,0793_stg_s03_0_chair_00_chair10-airplane2.png
subject-03,1,794,1.21927189826965,bottle,cat,0,0794_stg_s03_0_cat_00_cat4-clock2.png
subject-03,1,795,0.979026079177856,chair,bear,0,0795_stg_s03_0_bear_00_bear3-car2.png
subject-03,1,796,0.952354907989502,elephant,bicycle,0,0796_stg_s03_0_bicycle_00_bicycle1-dog3.png
subject-03,1,797,0.720473051071167,bottle,boat,0,0797_stg_s03_0_boat_00_boat7-boat2.png
subject-03,1,798,1.43157696723938,clock,truck,0,0798_stg_s03_0_truck_00_truck7-oven2.png
subject-03,1,799,0.921266078948975,bottle,bottle,0,0799_stg_s03_0_bottle_00_bottle1-car1.png
subject-03,1,800,0.864850044250488,bottle,truck,0,0800_stg_s03_0_truck_00_truck4-boat3.png
subject-03,1,801,1.39401912689209,bottle,bear,0,0801_stg_s03_0_bear_00_bear6-car2.png
subject-03,1,802,1.05357098579407,elephant,truck,0,0802_stg_s03_0_truck_00_truck3-bicycle1.png
subject-03,1,803,0.821609020233154,clock,clock,0,0803_stg_s03_0_clock_00_clock8-chair2.png
subject-03,1,804,0.83322286605835,bottle,cat,0,0804_stg_s03_0_cat_00_cat10-bicycle1.png
subject-03,1,805,1.02331304550171,boat,oven,0,0805_stg_s03_0_oven_00_oven3-truck1.png
subject-03,1,806,0.782921075820923,oven,clock,0,0806_stg_s03_0_clock_00_clock5-keyboard1.png
subject-03,1,807,0.679040908813477,bottle,dog,0,0807_stg_s03_0_dog_00_dog5-car3.png
subject-03,1,808,1.00659990310669,bottle,bird,0,0808_stg_s03_0_bird_00_bird1-chair2.png
subject-03,1,809,0.94281005859375,oven,clock,0,0809_stg_s03_0_clock_00_clock10-airplane1.png
subject-03,1,810,1.07864785194397,elephant,truck,0,0810_stg_s03_0_truck_00_truck6-knife2.png
subject-03,1,811,0.791712999343872,cat,car,0,0811_stg_s03_0_car_00_car1-dog2.png
subject-03,1,812,0.964983224868774,elephant,bicycle,0,0812_stg_s03_0_bicycle_00_bicycle4-clock3.png
subject-03,1,813,1.06980991363525,bottle,chair,0,0813_stg_s03_0_chair_00_chair2-keyboard2.png
subject-03,1,814,0.832695960998535,oven,bird,0,0814_stg_s03_0_bird_00_bird7-bird2.png
subject-03,1,815,1.10825800895691,boat,elephant,0,0815_stg_s03_0_elephant_00_elephant8-oven3.png
subject-03,1,816,1.10668683052063,keyboard,dog,0,0816_stg_s03_0_dog_00_dog5-oven1.png
subject-03,1,817,0.996140003204346,oven,knife,0,0817_stg_s03_0_knife_00_knife8-cat2.png
subject-03,1,818,1.07785201072693,elephant,dog,0,0818_stg_s03_0_dog_00_dog5-elephant1.png
subject-03,1,819,1.01391386985779,chair,truck,0,0819_stg_s03_0_truck_00_truck3-oven2.png
subject-03,1,820,0.944009065628052,elephant,cat,0,0820_stg_s03_0_cat_00_cat4-bird2.png
subject-03,1,821,0.977816820144653,bottle,dog,0,0821_stg_s03_0_dog_00_dog10-clock1.png
subject-03,1,822,0.732190847396851,chair,knife,0,0822_stg_s03_0_knife_00_knife2-bird1.png
subject-03,1,823,0.989786863327026,bird,bear,0,0823_stg_s03_0_bear_00_bear3-dog3.png
subject-03,1,824,1.13202214241028,elephant,elephant,0,0824_stg_s03_0_elephant_00_elephant2-elephant3.png
subject-03,1,825,0.854472875595093,oven,clock,0,0825_stg_s03_0_clock_00_clock4-airplane1.png
subject-03,1,826,1.09585094451904,bottle,knife,0,0826_stg_s03_0_knife_00_knife9-bicycle1.png
subject-03,1,827,0.879045963287354,elephant,car,0,0827_stg_s03_0_car_00_car6-elephant3.png
subject-03,1,828,1.08259892463684,elephant,bottle,0,0828_stg_s03_0_bottle_00_bottle6-bear2.png
subject-03,1,829,0.972531080245972,bottle,chair,0,0829_stg_s03_0_chair_00_chair7-cat1.png
subject-03,1,830,1.11626195907593,oven,keyboard,0,0830_stg_s03_0_keyboard_00_keyboard9-keyboard2.png
subject-03,1,831,0.935855150222778,bottle,cat,0,0831_stg_s03_0_cat_00_cat6-oven1.png
subject-03,1,832,0.741825819015503,bottle,dog,0,0832_stg_s03_0_dog_00_dog2-knife3.png
subject-03,1,833,0.769741058349609,bottle,chair,0,0833_stg_s03_0_chair_00_chair9-bottle3.png
subject-03,1,834,0.781766176223755,bottle,car,0,0834_stg_s03_0_car_00_car4-cat3.png
subject-03,1,835,1.27198791503906,oven,bird,0,0835_stg_s03_0_bird_00_bird1-keyboard3.png
subject-03,1,836,0.701462984085083,bottle,clock,0,0836_stg_s03_0_clock_00_clock7-car1.png
subject-03,1,837,1.02768707275391,oven,truck,0,0837_stg_s03_0_truck_00_truck10-clock1.png
subject-03,1,838,1.23302102088928,bottle,airplane,0,0838_stg_s03_0_airplane_00_airplane5-chair3.png
subject-03,1,839,1.11208820343018,bear,clock,0,0839_stg_s03_0_clock_00_clock7-dog2.png
subject-03,1,840,0.701337099075317,bottle,keyboard,0,0840_stg_s03_0_keyboard_00_keyboard1-car3.png
subject-03,1,841,0.99141788482666,oven,chair,0,0841_stg_s03_0_chair_00_chair5-keyboard2.png
subject-03,1,842,0.844357967376709,bottle,truck,0,0842_stg_s03_0_truck_00_truck9-truck3.png
subject-03,1,843,1.11919283866882,cat,airplane,0,0843_stg_s03_0_airplane_00_airplane8-clock2.png
subject-03,1,844,0.732683897018433,oven,bird,0,0844_stg_s03_0_bird_00_bird2-knife1.png
subject-03,1,845,0.830522060394287,elephant,cat,0,0845_stg_s03_0_cat_00_cat3-bear2.png
subject-03,1,846,0.679588079452515,bottle,cat,0,0846_stg_s03_0_cat_00_cat9-truck1.png
subject-03,1,847,0.907963037490845,oven,dog,0,0847_stg_s03_0_dog_00_dog1-boat3.png
subject-03,1,848,0.69197416305542,bottle,dog,0,0848_stg_s03_0_dog_00_dog5-boat3.png
subject-03,1,849,0.903071165084839,bear,cat,0,0849_stg_s03_0_cat_00_cat1-dog1.png
subject-03,1,850,0.960845947265625,elephant,oven,0,0850_stg_s03_0_oven_00_oven1-clock3.png
subject-03,1,851,0.934859991073608,elephant,elephant,0,0851_stg_s03_0_elephant_00_elephant8-clock2.png
subject-03,1,852,0.833095073699951,elephant,cat,0,0852_stg_s03_0_cat_00_cat9-dog2.png
subject-03,1,853,1.32870388031006,elephant,elephant,0,0853_stg_s03_0_elephant_00_elephant5-chair3.png
subject-03,1,854,0.750783920288086,elephant,truck,0,0854_stg_s03_0_truck_00_truck10-elephant3.png
subject-03,1,855,0.832946062088013,bottle,knife,0,0855_stg_s03_0_knife_00_knife1-oven1.png
subject-03,1,856,1.03870320320129,oven,oven,0,0856_stg_s03_0_oven_00_oven10-truck2.png
subject-03,1,857,0.829123973846436,cat,boat,0,0857_stg_s03_0_boat_00_boat5-bicycle3.png
subject-03,1,858,0.695116996765137,bottle,bird,0,0858_stg_s03_0_bird_00_bird2-car3.png
subject-03,1,859,0.722442150115967,elephant,elephant,0,0859_stg_s03_0_elephant_00_elephant7-dog1.png
subject-03,1,860,1.13522887229919,bottle,airplane,0,0860_stg_s03_0_airplane_00_airplane9-airplane2.png
subject-03,1,861,0.911453008651733,clock,boat,0,0861_stg_s03_0_boat_00_boat1-keyboard3.png
subject-03,1,862,1.42958998680115,bird,oven,0,0862_stg_s03_0_oven_00_oven8-cat3.png
subject-03,1,863,0.952078104019165,elephant,airplane,0,0863_stg_s03_0_airplane_00_airplane2-bear1.png
subject-03,1,864,0.842080116271973,bottle,airplane,0,0864_stg_s03_0_airplane_00_airplane4-bottle1.png
subject-03,1,865,0.816236019134521,elephant,airplane,0,0865_stg_s03_0_airplane_00_airplane4-elephant1.png
subject-03,1,866,1.08982419967651,cat,cat,0,0866_stg_s03_0_cat_00_cat4-chair2.png
subject-03,1,867,0.958288192749023,elephant,truck,0,0867_stg_s03_0_truck_00_truck9-elephant1.png
subject-03,1,868,1.07843279838562,bottle,chair,0,0868_stg_s03_0_chair_00_chair9-boat2.png
subject-03,1,869,0.90010404586792,bottle,car,0,0869_stg_s03_0_car_00_car5-bottle1.png
subject-03,1,870,0.836971998214722,oven,oven,0,0870_stg_s03_0_oven_00_oven2-bicycle1.png
subject-03,1,871,0.718155145645142,bottle,cat,0,0871_stg_s03_0_cat_00_cat9-bird3.png
subject-03,1,872,1.059809923172,bottle,elephant,0,0872_stg_s03_0_elephant_00_elephant7-airplane3.png
subject-03,1,873,1.13389992713928,bottle,boat,0,0873_stg_s03_0_boat_00_boat9-clock1.png
subject-03,1,874,0.723489046096802,oven,bottle,0,0874_stg_s03_0_bottle_00_bottle7-oven2.png
subject-03,1,875,1.03505182266235,chair,knife,0,0875_stg_s03_0_knife_00_knife1-bird2.png
subject-03,1,876,1.00890612602234,bottle,cat,0,0876_stg_s03_0_cat_00_cat5-bottle1.png
subject-03,1,877,1.04442310333252,oven,boat,0,0877_stg_s03_0_boat_00_boat7-cat3.png
subject-03,1,878,1.08865809440613,clock,chair,0,0878_stg_s03_0_chair_00_chair5-knife3.png
subject-03,1,879,0.698555946350098,bottle,bear,0,0879_stg_s03_0_bear_00_bear8-bottle1.png
subject-03,1,880,0.796733856201172,bottle,knife,0,0880_stg_s03_0_knife_00_knife8-truck3.png
subject-03,1,881,0.838781833648682,bottle,bicycle,0,0881_stg_s03_0_bicycle_00_bicycle5-bottle3.png
subject-03,1,882,0.752780199050903,boat,truck,0,0882_stg_s03_0_truck_00_truck3-keyboard3.png
subject-03,1,883,0.65705394744873,bottle,chair,0,0883_stg_s03_0_chair_00_chair5-clock2.png
subject-03,1,884,1.14353609085083,dog,chair,0,0884_stg_s03_0_chair_00_chair10-dog1.png
subject-03,1,885,1.04974985122681,bottle,cat,0,0885_stg_s03_0_cat_00_cat4-oven1.png
subject-03,1,886,0.91001296043396,oven,car,0,0886_stg_s03_0_car_00_car7-bird3.png
subject-03,1,887,0.85169506072998,bottle,bird,0,0887_stg_s03_0_bird_00_bird5-truck2.png
subject-03,1,888,0.832825899124146,chair,knife,0,0888_stg_s03_0_knife_00_knife9-bird1.png
subject-03,1,889,1.02222895622253,bottle,bird,0,0889_stg_s03_0_bird_00_bird10-chair1.png
subject-03,1,890,1.05029988288879,oven,chair,0,0890_stg_s03_0_chair_00_chair10-cat1.png
subject-03,1,891,1.32188200950623,elephant,airplane,0,0891_stg_s03_0_airplane_00_airplane10-cat2.png
subject-03,1,892,1.26638293266296,bottle,bottle,0,0892_stg_s03_0_bottle_00_bottle3-chair3.png
subject-03,1,893,0.809844017028809,bottle,bear,0,0893_stg_s03_0_bear_00_bear6-bottle3.png
subject-03,1,894,0.945746183395386,elephant,dog,0,0894_stg_s03_0_dog_00_dog9-chair2.png
subject-03,1,895,0.976171970367432,oven,elephant,0,0895_stg_s03_0_elephant_00_elephant8-bicycle3.png
subject-03,1,896,1.24241805076599,bottle,car,0,0896_stg_s03_0_car_00_car4-boat1.png
subject-03,1,897,0.862986087799072,elephant,knife,0,0897_stg_s03_0_knife_00_knife6-bird1.png
subject-03,1,898,1.06091403961182,elephant,chair,0,0898_stg_s03_0_chair_00_chair1-cat3.png
subject-03,1,899,NaN,na,car,0,0899_stg_s03_0_car_00_car7-bear1.png
subject-03,1,900,1.25467491149902,elephant,airplane,0,0900_stg_s03_0_airplane_00_airplane6-keyboard3.png
subject-03,1,901,0.79820990562439,bottle,elephant,0,0901_stg_s03_0_elephant_00_elephant7-cat1.png
subject-03,1,902,0.70026683807373,chair,boat,0,0902_stg_s03_0_boat_00_boat6-bottle2.png
subject-03,1,903,0.912952899932861,bottle,elephant,0,0903_stg_s03_0_elephant_00_elephant3-chair1.png
subject-03,1,904,0.856902122497559,clock,clock,0,0904_stg_s03_0_clock_00_clock2-bottle3.png
subject-03,1,905,0.575712919235229,bottle,boat,0,0905_stg_s03_0_boat_00_boat8-bottle1.png
subject-03,1,906,0.719900846481323,bottle,keyboard,0,0906_stg_s03_0_keyboard_00_keyboard8-truck3.png
subject-03,1,907,0.884881973266602,boat,truck,0,0907_stg_s03_0_truck_00_truck7-keyboard3.png
subject-03,1,908,0.636981010437012,chair,knife,0,0908_stg_s03_0_knife_00_knife2-car3.png
subject-03,1,909,0.827145099639893,bottle,bird,0,0909_stg_s03_0_bird_00_bird7-cat3.png
subject-03,1,910,0.770989894866943,elephant,car,0,0910_stg_s03_0_car_00_car8-dog1.png
subject-03,1,911,1.10361218452454,elephant,bird,0,0911_stg_s03_0_bird_00_bird9-bear3.png
subject-03,1,912,0.793085098266602,bottle,elephant,0,0912_stg_s03_0_elephant_00_elephant6-bottle2.png
subject-03,1,913,0.829493999481201,bottle,bicycle,0,0913_stg_s03_0_bicycle_00_bicycle6-airplane2.png
subject-03,1,914,1.24943900108337,bear,car,0,0914_stg_s03_0_car_00_car5-bear3.png
subject-03,1,915,0.663633108139038,bottle,bottle,0,0915_stg_s03_0_bottle_00_bottle2-bottle3.png
subject-03,1,916,0.760909080505371,boat,chair,0,0916_stg_s03_0_chair_00_chair8-knife2.png
subject-03,1,917,0.81155800819397,clock,bottle,0,0917_stg_s03_0_bottle_00_bottle7-airplane3.png
subject-03,1,918,0.763526916503906,oven,oven,0,0918_stg_s03_0_oven_00_oven2-oven3.png
subject-03,1,919,0.999262809753418,knife,truck,0,0919_stg_s03_0_truck_00_truck6-clock2.png
subject-03,1,920,0.743381023406982,bottle,cat,0,0920_stg_s03_0_cat_00_cat9-chair2.png
subject-03,1,921,0.933734178543091,elephant,keyboard,0,0921_stg_s03_0_keyboard_00_keyboard3-bicycle2.png
subject-03,1,922,0.791974067687988,chair,oven,0,0922_stg_s03_0_oven_00_oven6-knife3.png
subject-03,1,923,1.02792811393738,oven,clock,0,0923_stg_s03_0_clock_00_clock9-cat1.png
subject-03,1,924,0.733633041381836,bottle,dog,0,0924_stg_s03_0_dog_00_dog7-keyboard3.png
subject-03,1,925,0.9237060546875,boat,truck,0,0925_stg_s03_0_truck_00_truck3-clock3.png
subject-03,1,926,0.667473077774048,elephant,chair,0,0926_stg_s03_0_chair_00_chair8-elephant1.png
subject-03,1,927,0.908524036407471,oven,bird,0,0927_stg_s03_0_bird_00_bird9-chair1.png
subject-03,1,928,0.915040016174316,bottle,chair,0,0928_stg_s03_0_chair_00_chair3-bicycle3.png
subject-03,1,929,1.0269820690155,bottle,bird,0,0929_stg_s03_0_bird_00_bird5-bicycle1.png
subject-03,1,930,1.07131385803223,bottle,oven,0,0930_stg_s03_0_oven_00_oven5-bicycle1.png
subject-03,1,931,0.978137969970703,bird,bear,0,0931_stg_s03_0_bear_00_bear1-bear3.png
subject-03,1,932,0.705948114395142,bottle,keyboard,0,0932_stg_s03_0_keyboard_00_keyboard8-cat3.png
subject-03,1,933,0.903024911880493,elephant,truck,0,0933_stg_s03_0_truck_00_truck3-bird2.png
subject-03,1,934,1.01503491401672,elephant,bird,0,0934_stg_s03_0_bird_00_bird10-bear2.png
subject-03,1,935,1.05865502357483,dog,keyboard,0,0935_stg_s03_0_keyboard_00_keyboard4-oven2.png
subject-03,1,936,0.932883977890015,bottle,dog,0,0936_stg_s03_0_dog_00_dog7-chair2.png
subject-03,1,937,0.92256498336792,bottle,car,0,0937_stg_s03_0_car_00_car8-cat1.png
subject-03,1,938,1.01770281791687,chair,clock,0,0938_stg_s03_0_clock_00_clock8-truck2.png
subject-03,1,939,0.761657953262329,bottle,airplane,0,0939_stg_s03_0_airplane_00_airplane10-airplane1.png
subject-03,1,940,0.651618957519531,oven,oven,0,0940_stg_s03_0_oven_00_oven9-keyboard1.png
subject-03,1,941,1.13306307792664,elephant,bicycle,0,0941_stg_s03_0_bicycle_00_bicycle3-keyboard1.png
subject-03,1,942,0.607470035552979,bottle,bicycle,0,0942_stg_s03_0_bicycle_00_bicycle1-bird1.png
subject-03,1,943,0.935517072677612,car,cat,0,0943_stg_s03_0_cat_00_cat2-bottle3.png
subject-03,1,944,1.2391369342804,car,car,0,0944_stg_s03_0_car_00_car2-chair1.png
subject-03,1,945,0.699395895004272,bottle,bottle,0,0945_stg_s03_0_bottle_00_bottle3-bicycle3.png
subject-03,1,946,0.697033882141113,bottle,chair,0,0946_stg_s03_0_chair_00_chair2-knife1.png
subject-03,1,947,0.970314979553223,oven,clock,0,0947_stg_s03_0_clock_00_clock8-oven3.png
subject-03,1,948,0.790789127349854,clock,bicycle,0,0948_stg_s03_0_bicycle_00_bicycle8-boat1.png
subject-03,1,949,0.980666160583496,bottle,keyboard,0,0949_stg_s03_0_keyboard_00_keyboard7-boat2.png
subject-03,1,950,1.23273515701294,chair,chair,0,0950_stg_s03_0_chair_00_chair6-truck2.png
subject-03,1,951,0.843798875808716,oven,bottle,0,0951_stg_s03_0_bottle_00_bottle5-keyboard2.png
subject-03,1,952,1.23959684371948,keyboard,clock,0,0952_stg_s03_0_clock_00_clock9-airplane1.png
subject-03,1,953,1.32196712493896,elephant,truck,0,0953_stg_s03_0_truck_00_truck7-elephant2.png
subject-03,1,954,0.981636047363281,elephant,knife,0,0954_stg_s03_0_knife_00_knife5-dog1.png
subject-03,1,955,0.985324859619141,elephant,chair,0,0955_stg_s03_0_chair_00_chair8-clock3.png
subject-03,1,956,0.808051109313965,bottle,boat,0,0956_stg_s03_0_boat_00_boat6-airplane2.png
subject-03,1,957,0.789475917816162,chair,bicycle,0,0957_stg_s03_0_bicycle_00_bicycle4-chair2.png
subject-03,1,958,0.863367080688477,bottle,cat,0,0958_stg_s03_0_cat_00_cat4-keyboard2.png
subject-03,1,959,0.861241817474365,oven,chair,0,0959_stg_s03_0_chair_00_chair9-chair3.png
subject-03,1,960,0.697548866271973,boat,dog,0,0960_stg_s03_0_dog_00_dog4-chair1.png
subject-03,1,961,0.749714136123657,oven,bicycle,0,0961_stg_s03_0_bicycle_00_bicycle6-cat1.png
subject-03,1,962,1.22156405448914,bottle,dog,0,0962_stg_s03_0_dog_00_dog3-boat1.png
subject-03,1,963,0.675561904907227,elephant,cat,0,0963_stg_s03_0_cat_00_cat7-elephant1.png
subject-03,1,964,0.987033128738403,elephant,keyboard,0,0964_stg_s03_0_keyboard_00_keyboard7-truck2.png
subject-03,1,965,0.853991031646729,bottle,knife,0,0965_stg_s03_0_knife_00_knife9-boat1.png
subject-03,1,966,0.851946115493774,bottle,elephant,0,0966_stg_s03_0_elephant_00_elephant5-truck1.png
subject-03,1,967,0.787779092788696,elephant,keyboard,0,0967_stg_s03_0_keyboard_00_keyboard4-bird1.png
subject-03,1,968,0.784940958023071,boat,airplane,0,0968_stg_s03_0_airplane_00_airplane9-clock1.png
subject-03,1,969,0.712660074234009,chair,clock,0,0969_stg_s03_0_clock_00_clock10-bird3.png
subject-03,1,970,0.603611946105957,bottle,clock,0,0970_stg_s03_0_clock_00_clock5-chair3.png
subject-03,1,971,0.833672046661377,elephant,boat,0,0971_stg_s03_0_boat_00_boat9-bear3.png
subject-03,1,972,1.02976298332214,chair,chair,0,0972_stg_s03_0_chair_00_chair10-bicycle1.png
subject-03,1,973,0.881417989730835,bottle,bear,0,0973_stg_s03_0_bear_00_bear5-airplane3.png
subject-03,1,974,0.934659004211426,clock,clock,0,0974_stg_s03_0_clock_00_clock7-bicycle1.png
subject-03,1,975,0.932364940643311,chair,elephant,0,0975_stg_s03_0_elephant_00_elephant4-clock3.png
subject-03,1,976,0.791683912277222,bottle,bird,0,0976_stg_s03_0_bird_00_bird8-bottle1.png
subject-03,1,977,1.05796599388123,bottle,cat,0,0977_stg_s03_0_cat_00_cat9-bicycle1.png
subject-03,1,978,0.999335050582886,oven,dog,0,0978_stg_s03_0_dog_00_dog7-car2.png
subject-03,1,979,0.859621047973633,chair,truck,0,0979_stg_s03_0_truck_00_truck1-knife1.png
subject-03,1,980,0.804064989089966,bottle,airplane,0,0980_stg_s03_0_airplane_00_airplane5-boat3.png
subject-03,1,981,0.981006145477295,bottle,elephant,0,0981_stg_s03_0_elephant_00_elephant8-boat2.png
subject-03,1,982,0.684345960617065,bottle,oven,0,0982_stg_s03_0_oven_00_oven9-bird3.png
subject-03,1,983,0.957957983016968,elephant,truck,0,0983_stg_s03_0_truck_00_truck8-cat2.png
subject-03,1,984,0.915599822998047,elephant,oven,0,0984_stg_s03_0_oven_00_oven5-elephant1.png
subject-03,1,985,0.913765907287598,elephant,car,0,0985_stg_s03_0_car_00_car10-elephant2.png
subject-03,1,986,0.9981529712677,bottle,knife,0,0986_stg_s03_0_knife_00_knife9-chair1.png
subject-03,1,987,0.86372709274292,chair,knife,0,0987_stg_s03_0_knife_00_knife5-knife3.png
subject-03,1,988,0.746141910552979,cat,knife,0,0988_stg_s03_0_knife_00_knife3-clock2.png
subject-03,1,989,0.736066102981567,bottle,car,0,0989_stg_s03_0_car_00_car5-cat1.png
subject-03,1,990,1.03160715103149,elephant,bear,0,0990_stg_s03_0_bear_00_bear2-cat2.png
subject-03,1,991,1.25871706008911,elephant,bicycle,0,0991_stg_s03_0_bicycle_00_bicycle5-cat1.png
subject-03,1,992,0.995162963867188,bottle,bicycle,0,0992_stg_s03_0_bicycle_00_bicycle10-airplane2.png
subject-03,1,993,0.870519161224365,bottle,bear,0,0993_stg_s03_0_bear_00_bear8-truck3.png
subject-03,1,994,1.22087597846985,bird,bottle,0,0994_stg_s03_0_bottle_00_bottle6-dog3.png
subject-03,1,995,0.980576992034912,bottle,bear,0,0995_stg_s03_0_bear_00_bear4-clock3.png
subject-03,1,996,1.00130701065063,clock,car,0,0996_stg_s03_0_car_00_car8-knife2.png
subject-03,1,997,1.06139707565308,cat,car,0,0997_stg_s03_0_car_00_car5-keyboard3.png
subject-03,1,998,0.98130989074707,bottle,oven,0,0998_stg_s03_0_oven_00_oven6-truck1.png
subject-03,1,999,0.926000118255615,elephant,clock,0,0999_stg_s03_0_clock_00_clock3-elephant3.png
subject-03,1,1000,1.13021302223206,elephant,elephant,0,1000_stg_s03_0_elephant_00_elephant3-cat2.png
subject-03,1,1001,0.85179615020752,bottle,boat,0,1001_stg_s03_0_boat_00_boat9-keyboard2.png
subject-03,1,1002,1.10993099212646,bottle,bottle,0,1002_stg_s03_0_bottle_00_bottle6-chair2.png
subject-03,1,1003,0.84574294090271,cat,bottle,0,1003_stg_s03_0_bottle_00_bottle3-bear2.png
subject-03,1,1004,0.827884197235107,chair,truck,0,1004_stg_s03_0_truck_00_truck6-bear2.png
subject-03,1,1005,0.90221905708313,bottle,car,0,1005_stg_s03_0_car_00_car9-bicycle2.png
subject-03,1,1006,1.0301148891449,cat,airplane,0,1006_stg_s03_0_airplane_00_airplane5-dog3.png
subject-03,1,1007,0.76045823097229,bottle,cat,0,1007_stg_s03_0_cat_00_cat4-car2.png
subject-03,1,1008,0.972805023193359,oven,car,0,1008_stg_s03_0_car_00_car10-chair1.png
subject-03,1,1009,0.699947118759155,bottle,bottle,0,1009_stg_s03_0_bottle_00_bottle3-bottle3.png
subject-03,1,1010,1.26925587654114,bottle,elephant,0,1010_stg_s03_0_elephant_00_elephant6-oven1.png
subject-03,1,1011,0.820321798324585,bottle,airplane,0,1011_stg_s03_0_airplane_00_airplane8-truck3.png
subject-03,1,1012,1.04627084732056,boat,bottle,0,1012_stg_s03_0_bottle_00_bottle5-airplane1.png
subject-03,1,1013,1.45828294754028,chair,clock,0,1013_stg_s03_0_clock_00_clock4-boat3.png
subject-03,1,1014,0.751008987426758,bottle,cat,0,1014_stg_s03_0_cat_00_cat7-airplane2.png
subject-03,1,1015,0.694441080093384,bottle,keyboard,0,1015_stg_s03_0_keyboard_00_keyboard9-airplane3.png
subject-03,1,1016,0.952194929122925,bottle,chair,0,1016_stg_s03_0_chair_00_chair7-bottle1.png
subject-03,1,1017,0.84772515296936,oven,keyboard,0,1017_stg_s03_0_keyboard_00_keyboard6-knife2.png
subject-03,1,1018,0.932152032852173,keyboard,keyboard,0,1018_stg_s03_0_keyboard_00_keyboard1-chair2.png
subject-03,1,1019,1.12819886207581,elephant,elephant,0,1019_stg_s03_0_elephant_00_elephant9-elephant3.png
subject-03,1,1020,1.05841398239136,bear,bear,0,1020_stg_s03_0_bear_00_bear3-cat1.png
subject-03,1,1021,1.20111298561096,bottle,cat,0,1021_stg_s03_0_cat_00_cat10-airplane3.png
subject-03,1,1022,1.09910893440247,bottle,oven,0,1022_stg_s03_0_oven_00_oven6-airplane3.png
subject-03,1,1023,0.904632806777954,elephant,boat,0,1023_stg_s03_0_boat_00_boat6-dog1.png
subject-03,1,1024,1.27083897590637,bottle,bear,0,1024_stg_s03_0_bear_00_bear3-bicycle2.png
subject-03,1,1025,0.978978872299194,bottle,bear,0,1025_stg_s03_0_bear_00_bear3-truck3.png
subject-03,1,1026,0.812046051025391,cat,dog,0,1026_stg_s03_0_dog_00_dog4-cat3.png
subject-03,1,1027,0.994146823883057,elephant,chair,0,1027_stg_s03_0_chair_00_chair1-bear1.png
subject-03,1,1028,0.68387508392334,bottle,cat,0,1028_stg_s03_0_cat_00_cat5-airplane2.png
subject-03,1,1029,0.771739959716797,bottle,keyboard,0,1029_stg_s03_0_keyboard_00_keyboard10-oven3.png
subject-03,1,1030,0.731790065765381,oven,boat,0,1030_stg_s03_0_boat_00_boat10-truck1.png
subject-03,1,1031,1.08913898468018,bird,truck,0,1031_stg_s03_0_truck_00_truck1-dog1.png
subject-03,1,1032,0.926682949066162,bottle,bird,0,1032_stg_s03_0_bird_00_bird5-airplane3.png
subject-03,1,1033,0.749013185501099,chair,knife,0,1033_stg_s03_0_knife_00_knife5-oven2.png
subject-03,1,1034,0.998764038085938,elephant,clock,0,1034_stg_s03_0_clock_00_clock6-knife2.png
subject-03,1,1035,0.994025945663452,elephant,airplane,0,1035_stg_s03_0_airplane_00_airplane8-elephant3.png
subject-03,1,1036,0.676070928573608,bottle,boat,0,1036_stg_s03_0_boat_00_boat4-bird1.png
subject-03,1,1037,1.22565412521362,bottle,elephant,0,1037_stg_s03_0_elephant_00_elephant6-bicycle1.png
subject-03,1,1038,1.30194592475891,elephant,truck,0,1038_stg_s03_0_truck_00_truck5-bird2.png
subject-03,1,1039,0.937873125076294,bottle,bottle,0,1039_stg_s03_0_bottle_00_bottle9-truck1.png
subject-03,1,1040,0.971261024475098,bottle,dog,0,1040_stg_s03_0_dog_00_dog6-bird1.png
subject-03,1,1041,0.760791063308716,bottle,bird,0,1041_stg_s03_0_bird_00_bird7-knife2.png
subject-03,1,1042,1.29768586158752,car,car,0,1042_stg_s03_0_car_00_car1-clock2.png
subject-03,1,1043,0.955482006072998,elephant,airplane,0,1043_stg_s03_0_airplane_00_airplane7-cat3.png
subject-03,1,1044,0.660896778106689,bottle,boat,0,1044_stg_s03_0_boat_00_boat6-car1.png
subject-03,1,1045,1.06577897071838,chair,clock,0,1045_stg_s03_0_clock_00_clock3-dog2.png
subject-03,1,1046,0.678759098052979,bottle,boat,0,1046_stg_s03_0_boat_00_boat4-boat3.png
subject-03,1,1047,0.807780027389526,bottle,car,0,1047_stg_s03_0_car_00_car4-car2.png
subject-03,1,1048,1.22320699691772,chair,bicycle,0,1048_stg_s03_0_bicycle_00_bicycle4-airplane1.png
subject-03,1,1049,0.941897869110107,elephant,elephant,0,1049_stg_s03_0_elephant_00_elephant2-bear3.png
subject-03,1,1050,1.07875680923462,bird,chair,0,1050_stg_s03_0_chair_00_chair9-bird3.png
subject-03,1,1051,0.952637910842896,bottle,clock,0,1051_stg_s03_0_clock_00_clock7-boat3.png
subject-03,1,1052,0.872350931167603,elephant,bear,0,1052_stg_s03_0_bear_00_bear7-bear2.png
subject-03,1,1053,0.907896041870117,elephant,bicycle,0,1053_stg_s03_0_bicycle_00_bicycle3-elephant2.png
subject-03,1,1054,1.0663800239563,cat,keyboard,0,1054_stg_s03_0_keyboard_00_keyboard5-bear3.png
subject-03,1,1055,0.786273002624512,bottle,bear,0,1055_stg_s03_0_bear_00_bear6-boat3.png
subject-03,1,1056,0.722480058670044,elephant,bicycle,0,1056_stg_s03_0_bicycle_00_bicycle5-elephant1.png
subject-03,1,1057,0.944850921630859,dog,car,0,1057_stg_s03_0_car_00_car8-clock2.png
subject-03,1,1058,1.34091091156006,bird,keyboard,0,1058_stg_s03_0_keyboard_00_keyboard5-oven2.png
subject-03,1,1059,0.895282030105591,cat,bottle,0,1059_stg_s03_0_bottle_00_bottle3-cat3.png
subject-03,1,1060,1.30746698379517,bottle,oven,0,1060_stg_s03_0_oven_00_oven6-chair3.png
subject-03,1,1061,1.01437187194824,bottle,cat,0,1061_stg_s03_0_cat_00_cat6-clock3.png
subject-03,1,1062,1.16431903839111,chair,chair,0,1062_stg_s03_0_chair_00_chair8-keyboard3.png
subject-03,1,1063,0.719053030014038,bottle,car,0,1063_stg_s03_0_car_00_car7-oven2.png
subject-03,1,1064,1.05308198928833,oven,elephant,0,1064_stg_s03_0_elephant_00_elephant6-car3.png
subject-03,1,1065,1.05980181694031,bear,bird,0,1065_stg_s03_0_bird_00_bird9-dog2.png
subject-03,1,1066,0.741450071334839,bottle,oven,0,1066_stg_s03_0_oven_00_oven9-boat2.png
subject-03,1,1067,0.864142894744873,cat,dog,0,1067_stg_s03_0_dog_00_dog3-keyboard1.png
subject-03,1,1068,0.70612907409668,bottle,keyboard,0,1068_stg_s03_0_keyboard_00_keyboard2-clock1.png
subject-03,1,1069,0.917623996734619,bird,bear,0,1069_stg_s03_0_bear_00_bear4-keyboard3.png
subject-03,1,1070,0.669061899185181,bottle,oven,0,1070_stg_s03_0_oven_00_oven3-car2.png
subject-03,1,1071,0.834918022155762,oven,boat,0,1071_stg_s03_0_boat_00_boat9-knife2.png
subject-03,1,1072,1.05525302886963,bottle,bottle,0,1072_stg_s03_0_bottle_00_bottle4-bicycle1.png
subject-03,1,1073,0.860934972763062,bottle,clock,0,1073_stg_s03_0_clock_00_clock6-bicycle1.png
subject-03,1,1074,1.03446388244629,chair,truck,0,1074_stg_s03_0_truck_00_truck3-car3.png
subject-03,1,1075,1.37682390213013,chair,bicycle,0,1075_stg_s03_0_bicycle_00_bicycle6-bicycle3.png
subject-03,1,1076,0.881901025772095,cat,truck,0,1076_stg_s03_0_truck_00_truck6-dog2.png
subject-03,1,1077,0.926440954208374,elephant,knife,0,1077_stg_s03_0_knife_00_knife3-cat1.png
subject-03,1,1078,0.976571083068848,bear,cat,0,1078_stg_s03_0_cat_00_cat4-dog3.png
subject-03,1,1079,0.890629053115845,bottle,chair,0,1079_stg_s03_0_chair_00_chair5-boat3.png
subject-03,1,1080,0.834527015686035,clock,truck,0,1080_stg_s03_0_truck_00_truck2-airplane3.png
subject-03,1,1081,0.954904079437256,bottle,clock,0,1081_stg_s03_0_clock_00_clock1-boat3.png
subject-03,1,1082,1.11241888999939,elephant,knife,0,1082_stg_s03_0_knife_00_knife2-cat3.png
subject-03,1,1083,1.04790496826172,elephant,bird,0,1083_stg_s03_0_bird_00_bird9-elephant2.png
subject-03,1,1084,1.05918097496033,bottle,elephant,0,1084_stg_s03_0_elephant_00_elephant5-bicycle3.png
subject-03,1,1085,0.878400087356567,elephant,bottle,0,1085_stg_s03_0_bottle_00_bottle4-dog2.png
subject-03,1,1086,1.11243081092834,elephant,cat,0,1086_stg_s03_0_cat_00_cat9-cat3.png
subject-03,1,1087,1.09383201599121,bottle,clock,0,1087_stg_s03_0_clock_00_clock6-oven1.png
subject-03,1,1088,1.07545399665833,bottle,keyboard,0,1088_stg_s03_0_keyboard_00_keyboard5-airplane3.png
subject-03,1,1089,0.858438014984131,oven,clock,0,1089_stg_s03_0_clock_00_clock4-chair1.png
subject-03,1,1090,0.878190040588379,elephant,elephant,0,1090_stg_s03_0_elephant_00_elephant8-elephant1.png
subject-03,1,1091,0.744223117828369,bottle,clock,0,1091_stg_s03_0_clock_00_clock10-boat2.png
