subj,session,trial,rt,object_response,category,condition,imagename
subject-05,1,1,1.2273530960083,truck,bottle,0,0001_stg_s05_0_bottle_00_bottle7-truck2.png
subject-05,1,2,1.02652096748352,bottle,bottle,0,0002_stg_s05_0_bottle_00_bottle1-bear1.png
subject-05,1,3,0.926670074462891,cat,cat,0,0003_stg_s05_0_cat_00_cat3-truck3.png
subject-05,1,4,0.788393020629883,clock,knife,0,0004_stg_s05_0_knife_00_knife3-keyboard3.png
subject-05,1,5,1.44806909561157,knife,bicycle,0,0005_stg_s05_0_bicycle_00_bicycle5-bear1.png
subject-05,1,6,1.11020588874817,bottle,cat,0,0006_stg_s05_0_cat_00_cat1-oven1.png
subject-05,1,7,0.895694017410278,cat,keyboard,0,0007_stg_s05_0_keyboard_00_keyboard1-chair2.png
subject-05,1,8,1.18567800521851,bottle,elephant,0,0008_stg_s05_0_elephant_00_elephant5-chair3.png
subject-05,1,9,NaN,na,elephant,0,0009_stg_s05_0_elephant_00_elephant8-dog1.png
subject-05,1,10,0.974982023239136,bottle,keyboard,0,0010_stg_s05_0_keyboard_00_keyboard4-knife2.png
subject-05,1,11,1.25072813034058,elephant,airplane,0,0011_stg_s05_0_airplane_00_airplane4-elephant1.png
subject-05,1,12,1.04994010925293,airplane,oven,0,0012_stg_s05_0_oven_00_oven8-chair1.png
subject-05,1,13,0.947833061218262,elephant,bird,0,0013_stg_s05_0_bird_00_bird6-elephant2.png
subject-05,1,14,0.79349684715271,bottle,bicycle,0,0014_stg_s05_0_bicycle_00_bicycle7-knife2.png
subject-05,1,15,0.847033977508545,oven,airplane,0,0015_stg_s05_0_airplane_00_airplane7-car1.png
subject-05,1,16,1.17638397216797,car,car,0,0016_stg_s05_0_car_00_car7-oven2.png
subject-05,1,17,0.800557851791382,elephant,knife,0,0017_stg_s05_0_knife_00_knife2-elephant2.png
subject-05,1,18,1.22912406921387,bird,bear,0,0018_stg_s05_0_bear_00_bear3-dog3.png
subject-05,1,19,0.82070517539978,oven,bottle,0,0019_stg_s05_0_bottle_00_bottle6-bicycle3.png
subject-05,1,20,1.09600186347961,clock,clock,0,0020_stg_s05_0_clock_00_clock9-bird2.png
subject-05,1,21,0.896232843399048,bottle,truck,0,0021_stg_s05_0_truck_00_truck3-clock3.png
subject-05,1,22,1.27192807197571,elephant,elephant,0,0022_stg_s05_0_elephant_00_elephant10-knife3.png
subject-05,1,23,0.779977083206177,cat,airplane,0,0023_stg_s05_0_airplane_00_airplane10-dog3.png
subject-05,1,24,1.00131106376648,elephant,bottle,0,0024_stg_s05_0_bottle_00_bottle7-elephant2.png
subject-05,1,25,1.1470799446106,bottle,oven,0,0025_stg_s05_0_oven_00_oven2-bear3.png
subject-05,1,26,1.50020790100098,clock,bird,0,0026_stg_s05_0_bird_00_bird7-bottle1.png
subject-05,1,27,1.07938718795776,chair,bird,0,0027_stg_s05_0_bird_00_bird6-car3.png
subject-05,1,28,0.868265151977539,elephant,boat,0,0028_stg_s05_0_boat_00_boat10-bear3.png
subject-05,1,29,1.17626094818115,cat,cat,0,0029_stg_s05_0_cat_00_cat5-dog3.png
subject-05,1,30,1.20048093795776,bottle,airplane,0,0030_stg_s05_0_airplane_00_airplane4-airplane1.png
subject-05,1,31,1.15406394004822,keyboard,keyboard,0,0031_stg_s05_0_keyboard_00_keyboard1-elephant3.png
subject-05,1,32,1.26767802238464,knife,bicycle,0,0032_stg_s05_0_bicycle_00_bicycle5-chair2.png
subject-05,1,33,1.10409998893738,bottle,chair,0,0033_stg_s05_0_chair_00_chair3-knife1.png
subject-05,1,34,1.31769585609436,bottle,elephant,0,0034_stg_s05_0_elephant_00_elephant10-bear1.png
subject-05,1,35,1.25867700576782,airplane,knife,0,0035_stg_s05_0_knife_00_knife2-bear2.png
subject-05,1,36,1.50000882148743,elephant,bottle,0,0036_stg_s05_0_bottle_00_bottle9-elephant2.png
subject-05,1,37,NaN,na,truck,0,0037_stg_s05_0_truck_00_truck6-bicycle1.png
subject-05,1,38,1.354572057724,cat,bird,0,0038_stg_s05_0_bird_00_bird3-cat1.png
subject-05,1,39,0.633031129837036,cat,bottle,0,0039_stg_s05_0_bottle_00_bottle10-dog1.png
subject-05,1,40,1.08484315872192,clock,dog,0,0040_stg_s05_0_dog_00_dog5-boat3.png
subject-05,1,41,0.980658054351807,boat,truck,0,0041_stg_s05_0_truck_00_truck6-knife2.png
subject-05,1,42,1.17197108268738,clock,dog,0,0042_stg_s05_0_dog_00_dog9-bottle1.png
subject-05,1,43,1.07921385765076,clock,clock,0,0043_stg_s05_0_clock_00_clock5-chair3.png
subject-05,1,44,1.36309695243835,bottle,bicycle,0,0044_stg_s05_0_bicycle_00_bicycle5-bottle3.png
subject-05,1,45,0.900890827178955,bottle,bear,0,0045_stg_s05_0_bear_00_bear5-airplane3.png
subject-05,1,46,1.3622100353241,knife,oven,0,0046_stg_s05_0_oven_00_oven6-bicycle1.png
subject-05,1,47,0.845433950424194,bottle,boat,0,0047_stg_s05_0_boat_00_boat2-bird1.png
subject-05,1,48,1.12141180038452,oven,oven,0,0048_stg_s05_0_oven_00_oven4-chair1.png
subject-05,1,49,0.983203887939453,elephant,boat,0,0049_stg_s05_0_boat_00_boat2-bear3.png
subject-05,1,50,0.621038913726807,elephant,boat,0,0050_stg_s05_0_boat_00_boat8-elephant1.png
subject-05,1,51,1.48119306564331,oven,clock,0,0051_stg_s05_0_clock_00_clock8-truck2.png
subject-05,1,52,1.16437602043152,bottle,truck,0,0052_stg_s05_0_truck_00_truck3-keyboard3.png
subject-05,1,53,0.925959825515747,oven,bear,0,0053_stg_s05_0_bear_00_bear2-car2.png
subject-05,1,54,0.795451164245605,oven,oven,0,0054_stg_s05_0_oven_00_oven5-dog3.png
subject-05,1,55,1.25513792037964,bottle,bicycle,0,0055_stg_s05_0_bicycle_00_bicycle8-clock3.png
subject-05,1,56,0.968883037567139,elephant,knife,0,0056_stg_s05_0_knife_00_knife10-elephant3.png
subject-05,1,57,NaN,na,bottle,0,0057_stg_s05_0_bottle_00_bottle8-bottle3.png
subject-05,1,58,0.983715772628784,bottle,cat,0,0058_stg_s05_0_cat_00_cat6-chair3.png
subject-05,1,59,1.48936009407043,bottle,dog,0,0059_stg_s05_0_dog_00_dog2-cat1.png
subject-05,1,60,1.32706904411316,knife,boat,0,0060_stg_s05_0_boat_00_boat6-clock2.png
subject-05,1,61,1.05207490921021,boat,bear,0,0061_stg_s05_0_bear_00_bear6-cat3.png
subject-05,1,62,1.02193880081177,bottle,cat,0,0062_stg_s05_0_cat_00_cat2-car3.png
subject-05,1,63,1.05202794075012,cat,bird,0,0063_stg_s05_0_bird_00_bird1-chair2.png
subject-05,1,64,1.21169209480286,chair,oven,0,0064_stg_s05_0_oven_00_oven8-cat3.png
subject-05,1,65,1.50007200241089,oven,cat,0,0065_stg_s05_0_cat_00_cat1-chair2.png
subject-05,1,66,1.04853487014771,bottle,car,0,0066_stg_s05_0_car_00_car9-truck3.png
subject-05,1,67,1.186359167099,chair,chair,0,0067_stg_s05_0_chair_00_chair8-bicycle3.png
subject-05,1,68,1.11003494262695,clock,car,0,0068_stg_s05_0_car_00_car9-bicycle2.png
subject-05,1,69,1.25551700592041,keyboard,bottle,0,0069_stg_s05_0_bottle_00_bottle4-bicycle1.png
subject-05,1,70,1.44768095016479,bottle,bear,0,0070_stg_s05_0_bear_00_bear6-bottle3.png
subject-05,1,71,1.34735989570618,knife,dog,0,0071_stg_s05_0_dog_00_dog4-airplane3.png
subject-05,1,72,1.40762495994568,knife,bird,0,0072_stg_s05_0_bird_00_bird1-knife3.png
subject-05,1,73,1.5,boat,boat,0,0073_stg_s05_0_boat_00_boat6-airplane2.png
subject-05,1,74,0.837230920791626,oven,airplane,0,0074_stg_s05_0_airplane_00_airplane10-truck1.png
subject-05,1,75,0.990543127059937,knife,airplane,0,0075_stg_s05_0_airplane_00_airplane6-knife1.png
subject-05,1,76,1.42773914337158,knife,car,0,0076_stg_s05_0_car_00_car3-airplane3.png
subject-05,1,77,1.25786519050598,clock,car,0,0077_stg_s05_0_car_00_car3-dog2.png
subject-05,1,78,1.45704388618469,bottle,airplane,0,0078_stg_s05_0_airplane_00_airplane3-dog1.png
subject-05,1,79,1.4783980846405,knife,boat,0,0079_stg_s05_0_boat_00_boat8-bird2.png
subject-05,1,80,0.8941810131073,bottle,cat,0,0080_stg_s05_0_cat_00_cat3-cat1.png
subject-05,1,81,0.874073028564453,clock,bottle,0,0081_stg_s05_0_bottle_00_bottle1-clock1.png
subject-05,1,82,1.10604405403137,knife,airplane,0,0082_stg_s05_0_airplane_00_airplane8-truck3.png
subject-05,1,83,1.04346585273743,oven,bottle,0,0083_stg_s05_0_bottle_00_bottle1-car1.png
subject-05,1,84,1.11143708229065,bottle,cat,0,0084_stg_s05_0_cat_00_cat4-oven1.png
subject-05,1,85,0.927320957183838,oven,bird,0,0085_stg_s05_0_bird_00_bird5-chair1.png
subject-05,1,86,1.1811249256134,knife,bottle,0,0086_stg_s05_0_bottle_00_bottle3-bird1.png
subject-05,1,87,1.15631794929504,oven,chair,0,0087_stg_s05_0_chair_00_chair8-bear1.png
subject-05,1,88,0.886636972427368,oven,bicycle,0,0088_stg_s05_0_bicycle_00_bicycle1-truck1.png
subject-05,1,89,1.10243105888367,knife,airplane,0,0089_stg_s05_0_airplane_00_airplane3-airplane2.png
subject-05,1,90,1.19377684593201,oven,oven,0,0090_stg_s05_0_oven_00_oven3-cat2.png
subject-05,1,91,1.25331902503967,clock,oven,0,0091_stg_s05_0_oven_00_oven5-bicycle1.png
subject-05,1,92,1.11495685577393,clock,elephant,0,0092_stg_s05_0_elephant_00_elephant4-bicycle2.png
subject-05,1,93,0.806686162948608,clock,elephant,0,0093_stg_s05_0_elephant_00_elephant2-clock1.png
subject-05,1,94,1.18210697174072,elephant,chair,0,0094_stg_s05_0_chair_00_chair9-elephant1.png
subject-05,1,95,1.50014185905457,keyboard,bottle,0,0095_stg_s05_0_bottle_00_bottle9-bottle1.png
subject-05,1,96,1.17360401153564,clock,clock,0,0096_stg_s05_0_clock_00_clock10-clock3.png
subject-05,1,97,0.886996984481812,clock,clock,0,0097_stg_s05_0_clock_00_clock1-clock2.png
subject-05,1,98,0.740141868591309,oven,truck,0,0098_stg_s05_0_truck_00_truck2-chair1.png
subject-05,1,99,0.961467981338501,chair,chair,0,0099_stg_s05_0_chair_00_chair10-dog1.png
subject-05,1,100,0.937572956085205,bottle,clock,0,0100_stg_s05_0_clock_00_clock5-oven1.png
subject-05,1,101,0.875411987304688,clock,bicycle,0,0101_stg_s05_0_bicycle_00_bicycle4-bicycle3.png
subject-05,1,102,1.4509220123291,chair,chair,0,0102_stg_s05_0_chair_00_chair3-dog2.png
subject-05,1,103,1.25020503997803,bottle,oven,0,0103_stg_s05_0_oven_00_oven9-airplane2.png
subject-05,1,104,1.16400599479675,bottle,car,0,0104_stg_s05_0_car_00_car9-bird1.png
subject-05,1,105,1.00327181816101,bird,bird,0,0105_stg_s05_0_bird_00_bird9-elephant2.png
subject-05,1,106,1.14665699005127,bottle,bottle,0,0106_stg_s05_0_bottle_00_bottle10-truck3.png
subject-05,1,107,1.11869192123413,chair,truck,0,0107_stg_s05_0_truck_00_truck3-dog3.png
subject-05,1,108,0.826370000839233,oven,dog,0,0108_stg_s05_0_dog_00_dog6-truck2.png
subject-05,1,109,0.926207065582275,bottle,airplane,0,0109_stg_s05_0_airplane_00_airplane5-oven3.png
subject-05,1,110,1.4423508644104,clock,oven,0,0110_stg_s05_0_oven_00_oven2-boat3.png
subject-05,1,111,1.20180296897888,bird,bird,0,0111_stg_s05_0_bird_00_bird3-dog1.png
subject-05,1,112,1.27734804153442,knife,bear,0,0112_stg_s05_0_bear_00_bear4-clock3.png
subject-05,1,113,1.48496198654175,truck,dog,0,0113_stg_s05_0_dog_00_dog1-chair1.png
subject-05,1,114,1.09025120735168,keyboard,elephant,0,0114_stg_s05_0_elephant_00_elephant5-bear2.png
subject-05,1,115,1.25610995292664,knife,knife,0,0115_stg_s05_0_knife_00_knife10-knife1.png
subject-05,1,116,0.923567056655884,bottle,car,0,0116_stg_s05_0_car_00_car10-chair1.png
subject-05,1,117,0.823727130889893,clock,knife,0,0117_stg_s05_0_knife_00_knife5-clock1.png
subject-05,1,118,1.50021409988403,clock,keyboard,0,0118_stg_s05_0_keyboard_00_keyboard5-airplane3.png
subject-05,1,119,1.03979182243347,clock,keyboard,0,0119_stg_s05_0_keyboard_00_keyboard8-keyboard2.png
subject-05,1,120,1.13194918632507,clock,elephant,0,0120_stg_s05_0_elephant_00_elephant5-bicycle3.png
subject-05,1,121,1.01167392730713,cat,elephant,0,0121_stg_s05_0_elephant_00_elephant10-keyboard1.png
subject-05,1,122,0.819273948669434,bottle,chair,0,0122_stg_s05_0_chair_00_chair7-truck3.png
subject-05,1,123,0.77048397064209,knife,bottle,0,0123_stg_s05_0_bottle_00_bottle1-cat3.png
subject-05,1,124,1.08340811729431,elephant,car,0,0124_stg_s05_0_car_00_car10-elephant2.png
subject-05,1,125,0.883460998535156,clock,chair,0,0125_stg_s05_0_chair_00_chair2-bear2.png
subject-05,1,126,1.46734094619751,bottle,boat,0,0126_stg_s05_0_boat_00_boat9-keyboard2.png
subject-05,1,127,1.13733506202698,elephant,bear,0,0127_stg_s05_0_bear_00_bear1-elephant1.png
subject-05,1,128,1.15073990821838,airplane,cat,0,0128_stg_s05_0_cat_00_cat7-airplane2.png
subject-05,1,129,0.666878938674927,cat,airplane,0,0129_stg_s05_0_airplane_00_airplane9-keyboard2.png
subject-05,1,130,0.804740905761719,oven,bear,0,0130_stg_s05_0_bear_00_bear10-truck1.png
subject-05,1,131,1.17209100723267,chair,boat,0,0131_stg_s05_0_boat_00_boat9-cat3.png
subject-05,1,132,1.25158500671387,bottle,clock,0,0132_stg_s05_0_clock_00_clock3-bird1.png
subject-05,1,133,1.50033903121948,elephant,cat,0,0133_stg_s05_0_cat_00_cat7-elephant1.png
subject-05,1,134,0.989008903503418,cat,bear,0,0134_stg_s05_0_bear_00_bear10-keyboard3.png
subject-05,1,135,1.3275260925293,bottle,bicycle,0,0135_stg_s05_0_bicycle_00_bicycle1-oven1.png
subject-05,1,136,1.00568580627441,elephant,boat,0,0136_stg_s05_0_boat_00_boat1-bear1.png
subject-05,1,137,0.951413869857788,clock,airplane,0,0137_stg_s05_0_airplane_00_airplane6-bottle2.png
subject-05,1,138,1.23301196098328,clock,clock,0,0138_stg_s05_0_clock_00_clock9-airplane1.png
subject-05,1,139,1.01918792724609,elephant,airplane,0,0139_stg_s05_0_airplane_00_airplane3-elephant1.png
subject-05,1,140,1.37747693061829,bottle,dog,0,0140_stg_s05_0_dog_00_dog9-airplane3.png
subject-05,1,141,1.31615686416626,dog,bear,0,0141_stg_s05_0_bear_00_bear1-bear3.png
subject-05,1,142,1.39954495429993,keyboard,bicycle,0,0142_stg_s05_0_bicycle_00_bicycle1-airplane2.png
subject-05,1,143,1.00873804092407,oven,bicycle,0,0143_stg_s05_0_bicycle_00_bicycle9-car1.png
subject-05,1,144,NaN,na,knife,0,0144_stg_s05_0_knife_00_knife9-bottle2.png
subject-05,1,145,1.00813508033752,cat,cat,0,0145_stg_s05_0_cat_00_cat7-clock3.png
subject-05,1,146,0.862241983413696,bottle,elephant,0,0146_stg_s05_0_elephant_00_elephant2-bottle3.png
subject-05,1,147,1.04539203643799,clock,chair,0,0147_stg_s05_0_chair_00_chair8-boat1.png
subject-05,1,148,1.02092790603638,clock,clock,0,0148_stg_s05_0_clock_00_clock4-bottle3.png
subject-05,1,149,1.30621099472046,elephant,chair,0,0149_stg_s05_0_chair_00_chair8-elephant1.png
subject-05,1,150,1.00598096847534,oven,clock,0,0150_stg_s05_0_clock_00_clock3-car2.png
subject-05,1,151,1.00262498855591,bird,bicycle,0,0151_stg_s05_0_bicycle_00_bicycle5-dog2.png
subject-05,1,152,0.985815048217773,clock,bear,0,0152_stg_s05_0_bear_00_bear3-airplane1.png
subject-05,1,153,0.869786024093628,elephant,clock,0,0153_stg_s05_0_clock_00_clock1-elephant2.png
subject-05,1,154,1.03589916229248,clock,bear,0,0154_stg_s05_0_bear_00_bear2-keyboard2.png
subject-05,1,155,0.919877052307129,bottle,dog,0,0155_stg_s05_0_dog_00_dog6-bird1.png
subject-05,1,156,0.971157073974609,keyboard,boat,0,0156_stg_s05_0_boat_00_boat5-bicycle3.png
subject-05,1,157,1.20537304878235,clock,chair,0,0157_stg_s05_0_chair_00_chair10-bicycle1.png
subject-05,1,158,1.18379092216492,car,keyboard,0,0158_stg_s05_0_keyboard_00_keyboard10-car1.png
subject-05,1,159,0.751069068908691,chair,chair,0,0159_stg_s05_0_chair_00_chair1-dog1.png
subject-05,1,160,1.50011587142944,clock,cat,0,0160_stg_s05_0_cat_00_cat10-bicycle1.png
subject-05,1,161,1.03428411483765,knife,knife,0,0161_stg_s05_0_knife_00_knife10-keyboard3.png
subject-05,1,162,1.02566885948181,cat,bicycle,0,0162_stg_s05_0_bicycle_00_bicycle9-airplane2.png
subject-05,1,163,0.785104036331177,oven,oven,0,0163_stg_s05_0_oven_00_oven9-chair1.png
subject-05,1,164,0.78451681137085,oven,bicycle,0,0164_stg_s05_0_bicycle_00_bicycle8-truck1.png
subject-05,1,165,0.984088897705078,cat,bird,0,0165_stg_s05_0_bird_00_bird1-airplane2.png
subject-05,1,166,1.50003099441528,chair,car,0,0166_stg_s05_0_car_00_car5-truck3.png
subject-05,1,167,1.3182110786438,knife,knife,0,0167_stg_s05_0_knife_00_knife10-bear3.png
subject-05,1,168,1.03989195823669,clock,car,0,0168_stg_s05_0_car_00_car1-keyboard2.png
subject-05,1,169,1.16958498954773,elephant,keyboard,0,0169_stg_s05_0_keyboard_00_keyboard2-elephant1.png
subject-05,1,170,1.1586229801178,oven,oven,0,0170_stg_s05_0_oven_00_oven10-cat2.png
subject-05,1,171,1.00459289550781,clock,chair,0,0171_stg_s05_0_chair_00_chair5-bottle3.png
subject-05,1,172,1.22848010063171,boat,truck,0,0172_stg_s05_0_truck_00_truck7-bird2.png
subject-05,1,173,0.903921127319336,keyboard,dog,0,0173_stg_s05_0_dog_00_dog4-keyboard2.png
subject-05,1,174,1.22582793235779,elephant,boat,0,0174_stg_s05_0_boat_00_boat4-elephant2.png
subject-05,1,175,1.09334087371826,bottle,bottle,0,0175_stg_s05_0_bottle_00_bottle4-truck1.png
subject-05,1,176,1.50016307830811,bottle,bear,0,0176_stg_s05_0_bear_00_bear4-knife1.png
subject-05,1,177,0.954785108566284,knife,chair,0,0177_stg_s05_0_chair_00_chair8-keyboard3.png
subject-05,1,178,NaN,na,knife,0,0178_stg_s05_0_knife_00_knife6-chair3.png
subject-05,1,179,0.97295093536377,boat,car,0,0179_stg_s05_0_car_00_car6-chair3.png
subject-05,1,180,1.22773313522339,oven,truck,0,0180_stg_s05_0_truck_00_truck2-bird2.png
subject-05,1,181,0.969583988189697,clock,cat,0,0181_stg_s05_0_cat_00_cat3-bicycle1.png
subject-05,1,182,0.984762907028198,clock,car,0,0182_stg_s05_0_car_00_car8-clock2.png
subject-05,1,183,1.08229494094849,oven,bear,0,0183_stg_s05_0_bear_00_bear5-chair1.png
subject-05,1,184,1.30762887001038,cat,bottle,0,0184_stg_s05_0_bottle_00_bottle1-keyboard3.png
subject-05,1,185,0.761498928070068,oven,airplane,0,0185_stg_s05_0_airplane_00_airplane4-truck2.png
subject-05,1,186,1.28266000747681,clock,dog,0,0186_stg_s05_0_dog_00_dog9-bicycle3.png
subject-05,1,187,1.35239696502686,bottle,keyboard,0,0187_stg_s05_0_keyboard_00_keyboard10-oven3.png
subject-05,1,188,NaN,na,knife,0,0188_stg_s05_0_knife_00_knife9-bird1.png
subject-05,1,189,NaN,na,airplane,0,0189_stg_s05_0_airplane_00_airplane4-bear3.png
subject-05,1,190,0.891246795654297,oven,keyboard,0,0190_stg_s05_0_keyboard_00_keyboard5-cat1.png
subject-05,1,191,1.07483816146851,clock,oven,0,0191_stg_s05_0_oven_00_oven5-bird1.png
subject-05,1,192,0.858581066131592,clock,clock,0,0192_stg_s05_0_clock_00_clock3-cat1.png
subject-05,1,193,0.779973983764648,elephant,knife,0,0193_stg_s05_0_knife_00_knife7-elephant2.png
subject-05,1,194,0.741451025009155,cat,bird,0,0194_stg_s05_0_bird_00_bird7-knife2.png
subject-05,1,195,1.39361596107483,bird,elephant,0,0195_stg_s05_0_elephant_00_elephant1-dog2.png
subject-05,1,196,0.955029010772705,clock,clock,0,0196_stg_s05_0_clock_00_clock6-bicycle1.png
subject-05,1,197,1.03104090690613,bear,clock,0,0197_stg_s05_0_clock_00_clock3-dog2.png
subject-05,1,198,1.0061821937561,clock,bottle,0,0198_stg_s05_0_bottle_00_bottle5-clock3.png
subject-05,1,199,0.84383487701416,clock,keyboard,0,0199_stg_s05_0_keyboard_00_keyboard2-clock1.png
subject-05,1,200,0.97275710105896,boat,elephant,0,0200_stg_s05_0_elephant_00_elephant8-truck3.png
subject-05,1,201,1.40793299674988,elephant,clock,0,0201_stg_s05_0_clock_00_clock2-elephant2.png
subject-05,1,202,1.4465000629425,dog,clock,0,0202_stg_s05_0_clock_00_clock6-chair3.png
subject-05,1,203,0.945767879486084,cat,bird,0,0203_stg_s05_0_bird_00_bird8-knife2.png
subject-05,1,204,0.859089136123657,boat,car,0,0204_stg_s05_0_car_00_car6-bicycle3.png
subject-05,1,205,0.834500074386597,oven,truck,0,0205_stg_s05_0_truck_00_truck9-airplane2.png
subject-05,1,206,0.849535942077637,cat,dog,0,0206_stg_s05_0_dog_00_dog1-bear1.png
subject-05,1,207,0.893413066864014,clock,keyboard,0,0207_stg_s05_0_keyboard_00_keyboard5-bicycle1.png
subject-05,1,208,1.2392840385437,cat,car,0,0208_stg_s05_0_car_00_car3-oven3.png
subject-05,1,209,0.855406045913696,oven,boat,0,0209_stg_s05_0_boat_00_boat7-truck2.png
subject-05,1,210,1.42348384857178,boat,elephant,0,0210_stg_s05_0_elephant_00_elephant2-boat1.png
subject-05,1,211,1.32310199737549,bottle,bicycle,0,0211_stg_s05_0_bicycle_00_bicycle10-dog3.png
subject-05,1,212,0.631310939788818,clock,clock,0,0212_stg_s05_0_clock_00_clock5-keyboard1.png
subject-05,1,213,0.952404975891113,cat,keyboard,0,0213_stg_s05_0_keyboard_00_keyboard6-chair1.png
subject-05,1,214,0.935967922210693,clock,cat,0,0214_stg_s05_0_cat_00_cat4-keyboard2.png
subject-05,1,215,0.8818039894104,car,cat,0,0215_stg_s05_0_cat_00_cat1-car2.png
subject-05,1,216,1.44926500320435,boat,chair,0,0216_stg_s05_0_chair_00_chair8-chair3.png
subject-05,1,217,0.849106073379517,elephant,keyboard,0,0217_stg_s05_0_keyboard_00_keyboard9-elephant2.png
subject-05,1,218,0.940865039825439,cat,cat,0,0218_stg_s05_0_cat_00_cat9-chair2.png
subject-05,1,219,1.46232390403748,clock,elephant,0,0219_stg_s05_0_elephant_00_elephant3-cat2.png
subject-05,1,220,1.50015187263489,bear,bear,0,0220_stg_s05_0_bear_00_bear5-boat2.png
subject-05,1,221,NaN,na,bicycle,0,0221_stg_s05_0_bicycle_00_bicycle4-car2.png
subject-05,1,222,1.08105897903442,clock,elephant,0,0222_stg_s05_0_elephant_00_elephant6-car3.png
subject-05,1,223,1.27214384078979,elephant,clock,0,0223_stg_s05_0_clock_00_clock5-elephant2.png
subject-05,1,224,1.10749197006226,clock,car,0,0224_stg_s05_0_car_00_car4-bird1.png
subject-05,1,225,0.86932897567749,oven,oven,0,0225_stg_s05_0_oven_00_oven4-car1.png
subject-05,1,226,1.26064205169678,car,clock,0,0226_stg_s05_0_clock_00_clock2-bottle3.png
subject-05,1,227,1.18161296844482,cat,boat,0,0227_stg_s05_0_boat_00_boat3-keyboard2.png
subject-05,1,228,1.15804386138916,clock,bear,0,0228_stg_s05_0_bear_00_bear10-clock1.png
subject-05,1,229,1.09578895568848,oven,bird,0,0229_stg_s05_0_bird_00_bird1-truck1.png
subject-05,1,230,0.971413850784302,clock,dog,0,0230_stg_s05_0_dog_00_dog3-keyboard1.png
subject-05,1,231,1.31820392608643,bottle,boat,0,0231_stg_s05_0_boat_00_boat5-knife2.png
subject-05,1,232,1.32517600059509,elephant,bicycle,0,0232_stg_s05_0_bicycle_00_bicycle5-elephant1.png
subject-05,1,233,1.00051212310791,clock,elephant,0,0233_stg_s05_0_elephant_00_elephant4-car3.png
subject-05,1,234,1.18452715873718,clock,clock,0,0234_stg_s05_0_clock_00_clock7-bottle2.png
subject-05,1,235,1.0903148651123,oven,elephant,0,0235_stg_s05_0_elephant_00_elephant6-bicycle1.png
subject-05,1,236,0.759631872177124,oven,knife,0,0236_stg_s05_0_knife_00_knife2-car3.png
subject-05,1,237,1.41189408302307,knife,knife,0,0237_stg_s05_0_knife_00_knife3-bear2.png
subject-05,1,238,1.00694298744202,boat,car,0,0238_stg_s05_0_car_00_car8-airplane3.png
subject-05,1,239,0.865992069244385,clock,elephant,0,0239_stg_s05_0_elephant_00_elephant7-clock2.png
subject-05,1,240,NaN,na,cat,0,0240_stg_s05_0_cat_00_cat4-cat3.png
subject-05,1,241,1.13306307792664,oven,cat,0,0241_stg_s05_0_cat_00_cat9-truck1.png
subject-05,1,242,0.83853006362915,clock,knife,0,0242_stg_s05_0_knife_00_knife4-keyboard1.png
subject-05,1,243,1.43046307563782,bottle,dog,0,0243_stg_s05_0_dog_00_dog1-boat3.png
subject-05,1,244,0.970420122146606,clock,cat,0,0244_stg_s05_0_cat_00_cat2-boat2.png
subject-05,1,245,1.13103890419006,bottle,dog,0,0245_stg_s05_0_dog_00_dog1-knife3.png
subject-05,1,246,1.17633414268494,clock,chair,0,0246_stg_s05_0_chair_00_chair1-clock2.png
subject-05,1,247,1.38193702697754,elephant,clock,0,0247_stg_s05_0_clock_00_clock3-elephant3.png
subject-05,1,248,1.50023221969604,elephant,keyboard,0,0248_stg_s05_0_keyboard_00_keyboard8-dog3.png
subject-05,1,249,1.2204921245575,cat,bear,0,0249_stg_s05_0_bear_00_bear4-truck3.png
subject-05,1,250,0.865222930908203,clock,knife,0,0250_stg_s05_0_knife_00_knife4-knife2.png
subject-05,1,251,1.17876195907593,oven,oven,0,0251_stg_s05_0_oven_00_oven10-truck2.png
subject-05,1,252,1.00785303115845,boat,elephant,0,0252_stg_s05_0_elephant_00_elephant3-knife1.png
subject-05,1,253,0.954071998596191,cat,bottle,0,0253_stg_s05_0_bottle_00_bottle5-keyboard2.png
subject-05,1,254,1.22979688644409,oven,clock,0,0254_stg_s05_0_clock_00_clock10-bird3.png
subject-05,1,255,1.06167197227478,bird,airplane,0,0255_stg_s05_0_airplane_00_airplane5-bird2.png
subject-05,1,256,1.08132314682007,boat,elephant,0,0256_stg_s05_0_elephant_00_elephant7-bird1.png
subject-05,1,257,1.43689298629761,chair,boat,0,0257_stg_s05_0_boat_00_boat2-bottle2.png
subject-05,1,258,0.714881896972656,cat,bird,0,0258_stg_s05_0_bird_00_bird2-airplane3.png
subject-05,1,259,0.948060989379883,clock,bottle,0,0259_stg_s05_0_bottle_00_bottle7-clock1.png
subject-05,1,260,1.03215384483337,clock,airplane,0,0260_stg_s05_0_airplane_00_airplane3-clock1.png
subject-05,1,261,0.977508068084717,oven,oven,0,0261_stg_s05_0_oven_00_oven9-oven1.png
subject-05,1,262,0.852780818939209,clock,oven,0,0262_stg_s05_0_oven_00_oven3-bear2.png
subject-05,1,263,0.735882043838501,bottle,bottle,0,0263_stg_s05_0_bottle_00_bottle6-bird1.png
subject-05,1,264,0.987313985824585,elephant,bear,0,0264_stg_s05_0_bear_00_bear8-elephant2.png
subject-05,1,265,1.43294906616211,boat,boat,0,0265_stg_s05_0_boat_00_boat9-bird1.png
subject-05,1,266,1.06313705444336,bear,bear,0,0266_stg_s05_0_bear_00_bear8-truck3.png
subject-05,1,267,1.20081520080566,oven,dog,0,0267_stg_s05_0_dog_00_dog8-keyboard3.png
subject-05,1,268,NaN,na,chair,0,0268_stg_s05_0_chair_00_chair2-keyboard2.png
subject-05,1,269,1.03605198860168,oven,airplane,0,0269_stg_s05_0_airplane_00_airplane5-knife1.png
subject-05,1,270,0.968398094177246,clock,bird,0,0270_stg_s05_0_bird_00_bird5-bicycle1.png
subject-05,1,271,NaN,na,bottle,0,0271_stg_s05_0_bottle_00_bottle4-dog2.png
subject-05,1,272,1.06622982025146,elephant,truck,0,0272_stg_s05_0_truck_00_truck10-elephant3.png
subject-05,1,273,0.873362064361572,elephant,knife,0,0273_stg_s05_0_knife_00_knife9-bear3.png
subject-05,1,274,1.37880802154541,keyboard,knife,0,0274_stg_s05_0_knife_00_knife8-bottle3.png
subject-05,1,275,1.27053189277649,knife,bicycle,0,0275_stg_s05_0_bicycle_00_bicycle7-oven1.png
subject-05,1,276,1.32437896728516,keyboard,dog,0,0276_stg_s05_0_dog_00_dog10-bicycle1.png
subject-05,1,277,1.40028285980225,airplane,elephant,0,0277_stg_s05_0_elephant_00_elephant7-car3.png
subject-05,1,278,0.816508054733276,airplane,airplane,0,0278_stg_s05_0_airplane_00_airplane9-car2.png
subject-05,1,279,1.05999088287354,keyboard,boat,0,0279_stg_s05_0_boat_00_boat4-knife2.png
subject-05,1,280,1.12164115905762,keyboard,clock,0,0280_stg_s05_0_clock_00_clock6-knife2.png
subject-05,1,281,1.45710492134094,keyboard,truck,0,0281_stg_s05_0_truck_00_truck3-bird2.png
subject-05,1,282,1.10669994354248,keyboard,car,0,0282_stg_s05_0_car_00_car5-knife2.png
subject-05,1,283,0.982303857803345,oven,truck,0,0283_stg_s05_0_truck_00_truck7-keyboard3.png
subject-05,1,284,NaN,na,dog,0,0284_stg_s05_0_dog_00_dog10-bottle1.png
subject-05,1,285,1.04808616638184,oven,keyboard,0,0285_stg_s05_0_keyboard_00_keyboard1-clock1.png
subject-05,1,286,1.00877094268799,chair,oven,0,0286_stg_s05_0_oven_00_oven7-cat1.png
subject-05,1,287,0.75848913192749,clock,truck,0,0287_stg_s05_0_truck_00_truck10-clock1.png
subject-05,1,288,1.04218292236328,boat,chair,0,0288_stg_s05_0_chair_00_chair10-airplane2.png
subject-05,1,289,1.50031089782715,chair,boat,0,0289_stg_s05_0_boat_00_boat4-chair2.png
subject-05,1,290,0.920559167861938,keyboard,knife,0,0290_stg_s05_0_knife_00_knife6-airplane1.png
subject-05,1,291,NaN,na,boat,0,0291_stg_s05_0_boat_00_boat6-bicycle2.png
subject-05,1,292,1.0394389629364,clock,airplane,0,0292_stg_s05_0_airplane_00_airplane3-keyboard2.png
subject-05,1,293,1.16127490997314,knife,keyboard,0,0293_stg_s05_0_keyboard_00_keyboard3-boat1.png
subject-05,1,294,0.86063289642334,keyboard,dog,0,0294_stg_s05_0_dog_00_dog6-bicycle1.png
subject-05,1,295,1.299320936203,oven,keyboard,0,0295_stg_s05_0_keyboard_00_keyboard4-clock2.png
subject-05,1,296,1.0857560634613,boat,chair,0,0296_stg_s05_0_chair_00_chair4-truck2.png
subject-05,1,297,NaN,na,cat,0,0297_stg_s05_0_cat_00_cat5-keyboard3.png
subject-05,1,298,1.08257412910461,knife,cat,0,0298_stg_s05_0_cat_00_cat6-keyboard3.png
subject-05,1,299,0.991409778594971,airplane,bear,0,0299_stg_s05_0_bear_00_bear4-oven2.png
subject-05,1,300,1.45110201835632,oven,car,0,0300_stg_s05_0_car_00_car8-chair1.png
subject-05,1,301,0.775119066238403,oven,dog,0,0301_stg_s05_0_dog_00_dog4-chair1.png
subject-05,1,302,1.12232398986816,boat,elephant,0,0302_stg_s05_0_elephant_00_elephant9-airplane2.png
subject-05,1,303,0.889714002609253,oven,airplane,0,0303_stg_s05_0_airplane_00_airplane7-truck1.png
subject-05,1,304,NaN,na,elephant,0,0304_stg_s05_0_elephant_00_elephant9-boat3.png
subject-05,1,305,1.36988091468811,keyboard,cat,0,0305_stg_s05_0_cat_00_cat7-boat3.png
subject-05,1,306,0.80794882774353,oven,truck,0,0306_stg_s05_0_truck_00_truck4-airplane3.png
subject-05,1,307,1.30406308174133,keyboard,boat,0,0307_stg_s05_0_boat_00_boat2-airplane1.png
subject-05,1,308,1.03366589546204,oven,oven,0,0308_stg_s05_0_oven_00_oven6-truck1.png
subject-05,1,309,NaN,na,airplane,0,0309_stg_s05_0_airplane_00_airplane7-bottle3.png
subject-05,1,310,1.02540898323059,cat,elephant,0,0310_stg_s05_0_elephant_00_elephant8-airplane3.png
subject-05,1,311,1.10944104194641,oven,boat,0,0311_stg_s05_0_boat_00_boat4-dog2.png
subject-05,1,312,0.693325996398926,clock,clock,0,0312_stg_s05_0_clock_00_clock3-bicycle2.png
subject-05,1,313,1.50023508071899,keyboard,airplane,0,0313_stg_s05_0_airplane_00_airplane2-bicycle1.png
subject-05,1,314,0.752532958984375,clock,airplane,0,0314_stg_s05_0_airplane_00_airplane8-clock2.png
subject-05,1,315,1.1955509185791,oven,dog,0,0315_stg_s05_0_dog_00_dog1-car2.png
subject-05,1,316,0.665802001953125,oven,car,0,0316_stg_s05_0_car_00_car3-boat1.png
subject-05,1,317,0.808398962020874,clock,clock,0,0317_stg_s05_0_clock_00_clock7-truck3.png
subject-05,1,318,0.832159996032715,keyboard,cat,0,0318_stg_s05_0_cat_00_cat4-airplane1.png
subject-05,1,319,1.01184582710266,elephant,dog,0,0319_stg_s05_0_dog_00_dog10-elephant1.png
subject-05,1,320,1.34722805023193,chair,oven,0,0320_stg_s05_0_oven_00_oven1-boat3.png
subject-05,1,321,1.06805896759033,keyboard,boat,0,0321_stg_s05_0_boat_00_boat8-bottle1.png
subject-05,1,322,1.00547909736633,elephant,elephant,0,0322_stg_s05_0_elephant_00_elephant8-oven3.png
subject-05,1,323,1.28895306587219,bottle,chair,0,0323_stg_s05_0_chair_00_chair7-bottle1.png
subject-05,1,324,0.965095043182373,cat,car,0,0324_stg_s05_0_car_00_car2-cat3.png
subject-05,1,325,1.02523708343506,bird,knife,0,0325_stg_s05_0_knife_00_knife5-oven2.png
subject-05,1,326,0.862963199615479,elephant,bird,0,0326_stg_s05_0_bird_00_bird8-elephant1.png
subject-05,1,327,0.846282005310059,oven,bird,0,0327_stg_s05_0_bird_00_bird7-truck2.png
subject-05,1,328,0.967384099960327,oven,bicycle,0,0328_stg_s05_0_bicycle_00_bicycle2-car2.png
subject-05,1,329,1.04292798042297,cat,dog,0,0329_stg_s05_0_dog_00_dog1-airplane3.png
subject-05,1,330,1.06466317176819,bottle,bottle,0,0330_stg_s05_0_bottle_00_bottle6-bottle3.png
subject-05,1,331,1.25642395019531,elephant,cat,0,0331_stg_s05_0_cat_00_cat2-elephant1.png
subject-05,1,332,1.29436993598938,keyboard,knife,0,0332_stg_s05_0_knife_00_knife8-cat2.png
subject-05,1,333,1.03529119491577,keyboard,dog,0,0333_stg_s05_0_dog_00_dog4-bicycle1.png
subject-05,1,334,1.11138892173767,bottle,cat,0,0334_stg_s05_0_cat_00_cat6-oven1.png
subject-05,1,335,1.50018501281738,bottle,bird,0,0335_stg_s05_0_bird_00_bird7-keyboard3.png
subject-05,1,336,1.46787691116333,knife,boat,0,0336_stg_s05_0_boat_00_boat2-keyboard1.png
subject-05,1,337,1.36718201637268,oven,chair,0,0337_stg_s05_0_chair_00_chair10-cat1.png
subject-05,1,338,1.45961689949036,clock,oven,0,0338_stg_s05_0_oven_00_oven10-oven3.png
subject-05,1,339,1.08131504058838,bottle,bird,0,0339_stg_s05_0_bird_00_bird10-cat1.png
subject-05,1,340,1.16471982002258,airplane,keyboard,0,0340_stg_s05_0_keyboard_00_keyboard9-airplane3.png
subject-05,1,341,0.994504928588867,oven,oven,0,0341_stg_s05_0_oven_00_oven2-chair1.png
subject-05,1,342,1.1756739616394,bottle,keyboard,0,0342_stg_s05_0_keyboard_00_keyboard9-keyboard2.png
subject-05,1,343,1.3975989818573,airplane,oven,0,0343_stg_s05_0_oven_00_oven1-dog3.png
subject-05,1,344,1.13778209686279,keyboard,oven,0,0344_stg_s05_0_oven_00_oven7-clock2.png
subject-05,1,345,1.1055269241333,bottle,car,0,0345_stg_s05_0_car_00_car4-bottle1.png
subject-05,1,346,1.16425585746765,chair,bird,0,0346_stg_s05_0_bird_00_bird6-bottle3.png
subject-05,1,347,1.50035309791565,bottle,bird,0,0347_stg_s05_0_bird_00_bird3-knife3.png
subject-05,1,348,1.0186460018158,knife,bottle,0,0348_stg_s05_0_bottle_00_bottle6-bear2.png
subject-05,1,349,0.716069936752319,oven,clock,0,0349_stg_s05_0_clock_00_clock1-car1.png
subject-05,1,350,1.10374712944031,bottle,knife,0,0350_stg_s05_0_knife_00_knife4-oven2.png
subject-05,1,351,1.05588507652283,oven,boat,0,0351_stg_s05_0_boat_00_boat6-truck3.png
subject-05,1,352,NaN,na,boat,0,0352_stg_s05_0_boat_00_boat7-oven3.png
subject-05,1,353,1.0849940776825,keyboard,knife,0,0353_stg_s05_0_knife_00_knife4-boat1.png
subject-05,1,354,1.24500107765198,boat,airplane,0,0354_stg_s05_0_airplane_00_airplane9-boat1.png
subject-05,1,355,0.852589845657349,boat,car,0,0355_stg_s05_0_car_00_car7-car1.png
subject-05,1,356,0.891078948974609,boat,dog,0,0356_stg_s05_0_dog_00_dog7-keyboard3.png
subject-05,1,357,0.926445007324219,oven,bottle,0,0357_stg_s05_0_bottle_00_bottle9-truck1.png
subject-05,1,358,0.758879899978638,elephant,bird,0,0358_stg_s05_0_bird_00_bird10-elephant2.png
subject-05,1,359,0.950492143630981,cat,car,0,0359_stg_s05_0_car_00_car4-car2.png
subject-05,1,360,0.847983121871948,oven,truck,0,0360_stg_s05_0_truck_00_truck2-keyboard1.png
subject-05,1,361,1.41084599494934,oven,keyboard,0,0361_stg_s05_0_keyboard_00_keyboard4-cat2.png
subject-05,1,362,1.17769408226013,keyboard,keyboard,0,0362_stg_s05_0_keyboard_00_keyboard5-oven2.png
subject-05,1,363,1.50024199485779,dog,bear,0,0363_stg_s05_0_bear_00_bear8-dog1.png
subject-05,1,364,0.950973033905029,oven,cat,0,0364_stg_s05_0_cat_00_cat8-car2.png
subject-05,1,365,0.704085826873779,boat,dog,0,0365_stg_s05_0_dog_00_dog8-chair3.png
subject-05,1,366,1.22592997550964,bottle,bear,0,0366_stg_s05_0_bear_00_bear8-knife3.png
subject-05,1,367,NaN,na,dog,0,0367_stg_s05_0_dog_00_dog3-bird2.png
subject-05,1,368,0.814718008041382,cat,cat,0,0368_stg_s05_0_cat_00_cat4-chair2.png
subject-05,1,369,1.36629891395569,boat,bicycle,0,0369_stg_s05_0_bicycle_00_bicycle4-chair2.png
subject-05,1,370,0.971431016921997,keyboard,keyboard,0,0370_stg_s05_0_keyboard_00_keyboard9-bicycle2.png
subject-05,1,371,0.878777980804443,oven,oven,0,0371_stg_s05_0_oven_00_oven9-boat2.png
subject-05,1,372,1.21449995040894,bottle,chair,0,0372_stg_s05_0_chair_00_chair8-knife2.png
subject-05,1,373,NaN,na,boat,0,0373_stg_s05_0_boat_00_boat7-elephant3.png
subject-05,1,374,1.05611681938171,keyboard,oven,0,0374_stg_s05_0_oven_00_oven5-airplane1.png
subject-05,1,375,0.945611000061035,elephant,boat,0,0375_stg_s05_0_boat_00_boat1-elephant3.png
subject-05,1,376,1.04567694664001,cat,chair,0,0376_stg_s05_0_chair_00_chair2-knife1.png
subject-05,1,377,0.775022983551025,oven,elephant,0,0377_stg_s05_0_elephant_00_elephant9-clock3.png
subject-05,1,378,1.06724214553833,elephant,dog,0,0378_stg_s05_0_dog_00_dog5-knife2.png
subject-05,1,379,1.33443307876587,chair,chair,0,0379_stg_s05_0_chair_00_chair7-clock3.png
subject-05,1,380,0.872673988342285,keyboard,bird,0,0380_stg_s05_0_bird_00_bird3-bird2.png
subject-05,1,381,1.50032496452332,airplane,oven,0,0381_stg_s05_0_oven_00_oven1-bird3.png
subject-05,1,382,1.22382998466492,keyboard,cat,0,0382_stg_s05_0_cat_00_cat5-bottle1.png
subject-05,1,383,1.10442590713501,bottle,elephant,0,0383_stg_s05_0_elephant_00_elephant8-boat2.png
subject-05,1,384,0.895349025726318,cat,bottle,0,0384_stg_s05_0_bottle_00_bottle10-clock2.png
subject-05,1,385,1.00892901420593,bottle,cat,0,0385_stg_s05_0_cat_00_cat10-bird2.png
subject-05,1,386,1.45959091186523,knife,knife,0,0386_stg_s05_0_knife_00_knife1-bird2.png
subject-05,1,387,1.22740197181702,knife,airplane,0,0387_stg_s05_0_airplane_00_airplane2-bird3.png
subject-05,1,388,0.894951820373535,elephant,bear,0,0388_stg_s05_0_bear_00_bear4-elephant2.png
subject-05,1,389,1.50028491020203,elephant,oven,0,0389_stg_s05_0_oven_00_oven4-elephant3.png
subject-05,1,390,1.22073101997375,boat,airplane,0,0390_stg_s05_0_airplane_00_airplane10-boat3.png
subject-05,1,391,1.00853991508484,elephant,bottle,0,0391_stg_s05_0_bottle_00_bottle5-elephant1.png
subject-05,1,392,1.13068008422852,bird,bottle,0,0392_stg_s05_0_bottle_00_bottle3-cat3.png
subject-05,1,393,0.968147993087769,bird,dog,0,0393_stg_s05_0_dog_00_dog10-dog1.png
subject-05,1,394,0.989341974258423,oven,chair,0,0394_stg_s05_0_chair_00_chair4-oven2.png
subject-05,1,395,0.673336029052734,cat,airplane,0,0395_stg_s05_0_airplane_00_airplane2-cat1.png
subject-05,1,396,0.879106044769287,bottle,keyboard,0,0396_stg_s05_0_keyboard_00_keyboard7-bottle1.png
subject-05,1,397,1.23880696296692,airplane,clock,0,0397_stg_s05_0_clock_00_clock1-bear1.png
subject-05,1,398,1.41435885429382,bottle,chair,0,0398_stg_s05_0_chair_00_chair5-cat3.png
subject-05,1,399,1.50005793571472,clock,keyboard,0,0399_stg_s05_0_keyboard_00_keyboard8-oven1.png
subject-05,1,400,0.839766025543213,cat,dog,0,0400_stg_s05_0_dog_00_dog3-bear3.png
subject-05,1,401,0.908582210540771,cat,bird,0,0401_stg_s05_0_bird_00_bird5-keyboard2.png
subject-05,1,402,1.37016820907593,keyboard,bird,0,0402_stg_s05_0_bird_00_bird7-oven3.png
subject-05,1,403,0.87564492225647,oven,dog,0,0403_stg_s05_0_dog_00_dog5-truck2.png
subject-05,1,404,1.08930802345276,oven,bear,0,0404_stg_s05_0_bear_00_bear2-airplane1.png
subject-05,1,405,1.45225214958191,bottle,clock,0,0405_stg_s05_0_clock_00_clock1-truck3.png
subject-05,1,406,1.0357358455658,chair,bicycle,0,0406_stg_s05_0_bicycle_00_bicycle6-dog2.png
subject-05,1,407,1.11909699440002,chair,bottle,0,0407_stg_s05_0_bottle_00_bottle10-car1.png
subject-05,1,408,1.47832298278809,bottle,dog,0,0408_stg_s05_0_dog_00_dog7-chair2.png
subject-05,1,409,1.08408188819885,boat,cat,0,0409_stg_s05_0_cat_00_cat5-airplane2.png
subject-05,1,410,0.938698053359985,cat,dog,0,0410_stg_s05_0_dog_00_dog2-knife3.png
subject-05,1,411,0.922008991241455,bottle,keyboard,0,0411_stg_s05_0_keyboard_00_keyboard2-bottle1.png
subject-05,1,412,1.48994302749634,car,car,0,0412_stg_s05_0_car_00_car4-boat1.png
subject-05,1,413,1.15738391876221,bottle,boat,0,0413_stg_s05_0_boat_00_boat1-truck3.png
subject-05,1,414,1.227215051651,bottle,airplane,0,0414_stg_s05_0_airplane_00_airplane3-chair3.png
subject-05,1,415,1.10406398773193,boat,elephant,0,0415_stg_s05_0_elephant_00_elephant4-bird1.png
subject-05,1,416,1.37163710594177,boat,dog,0,0416_stg_s05_0_dog_00_dog9-cat1.png
subject-05,1,417,0.695358991622925,oven,bear,0,0417_stg_s05_0_bear_00_bear3-car2.png
subject-05,1,418,1.33148002624512,car,knife,0,0418_stg_s05_0_knife_00_knife9-boat1.png
subject-05,1,419,0.969483137130737,keyboard,keyboard,0,0419_stg_s05_0_keyboard_00_keyboard7-boat2.png
subject-05,1,420,1.16075205802917,oven,cat,0,0420_stg_s05_0_cat_00_cat7-truck2.png
subject-05,1,421,1.50010800361633,clock,clock,0,0421_stg_s05_0_clock_00_clock1-boat3.png
subject-05,1,422,0.766681909561157,oven,oven,0,0422_stg_s05_0_oven_00_oven9-bird3.png
subject-05,1,423,1.31774091720581,bottle,bicycle,0,0423_stg_s05_0_bicycle_00_bicycle4-truck3.png
subject-05,1,424,0.785223007202148,oven,bird,0,0424_stg_s05_0_bird_00_bird10-chair1.png
subject-05,1,425,NaN,na,clock,0,0425_stg_s05_0_clock_00_clock3-keyboard3.png
subject-05,1,426,0.952327013015747,cat,truck,0,0426_stg_s05_0_truck_00_truck3-knife2.png
subject-05,1,427,1.15271401405334,bottle,knife,0,0427_stg_s05_0_knife_00_knife1-keyboard3.png
subject-05,1,428,1.03790402412415,oven,bird,0,0428_stg_s05_0_bird_00_bird9-chair1.png
subject-05,1,429,0.799861192703247,bottle,bottle,0,0429_stg_s05_0_bottle_00_bottle6-chair2.png
subject-05,1,430,1.35589194297791,cat,knife,0,0430_stg_s05_0_knife_00_knife8-truck3.png
subject-05,1,431,1.00171804428101,oven,boat,0,0431_stg_s05_0_boat_00_boat10-oven1.png
subject-05,1,432,0.722872972488403,oven,oven,0,0432_stg_s05_0_oven_00_oven10-boat2.png
subject-05,1,433,1.03632378578186,keyboard,knife,0,0433_stg_s05_0_knife_00_knife7-airplane3.png
subject-05,1,434,NaN,na,airplane,0,0434_stg_s05_0_airplane_00_airplane9-airplane2.png
subject-05,1,435,0.916710138320923,cat,airplane,0,0435_stg_s05_0_airplane_00_airplane7-cat3.png
subject-05,1,436,1.02211213111877,bottle,airplane,0,0436_stg_s05_0_airplane_00_airplane6-bear3.png
subject-05,1,437,1.11354207992554,cat,bird,0,0437_stg_s05_0_bird_00_bird8-chair1.png
subject-05,1,438,0.981474161148071,oven,bird,0,0438_stg_s05_0_bird_00_bird6-truck2.png
subject-05,1,439,1.04336905479431,oven,keyboard,0,0439_stg_s05_0_keyboard_00_keyboard1-airplane2.png
subject-05,1,440,0.756824970245361,elephant,car,0,0440_stg_s05_0_car_00_car6-elephant3.png
subject-05,1,441,1.17921113967896,dog,elephant,0,0441_stg_s05_0_elephant_00_elephant7-keyboard3.png
subject-05,1,442,1.50007796287537,keyboard,chair,0,0442_stg_s05_0_chair_00_chair4-cat2.png
subject-05,1,443,1.42808103561401,elephant,truck,0,0443_stg_s05_0_truck_00_truck2-elephant1.png
subject-05,1,444,1.04111218452454,cat,knife,0,0444_stg_s05_0_knife_00_knife6-clock2.png
subject-05,1,445,1.30071401596069,airplane,knife,0,0445_stg_s05_0_knife_00_knife10-dog1.png
subject-05,1,446,1.40939807891846,dog,bear,0,0446_stg_s05_0_bear_00_bear3-cat1.png
subject-05,1,447,1.33049511909485,oven,truck,0,0447_stg_s05_0_truck_00_truck5-truck1.png
subject-05,1,448,1.16014289855957,elephant,dog,0,0448_stg_s05_0_dog_00_dog5-elephant1.png
subject-05,1,449,1.32535910606384,elephant,truck,0,0449_stg_s05_0_truck_00_truck9-elephant1.png
subject-05,1,450,NaN,na,airplane,0,0450_stg_s05_0_airplane_00_airplane8-bird1.png
subject-05,1,451,0.716866970062256,cat,elephant,0,0451_stg_s05_0_elephant_00_elephant3-keyboard2.png
subject-05,1,452,1.50016713142395,cat,boat,0,0452_stg_s05_0_boat_00_boat6-cat1.png
subject-05,1,453,1.16006708145142,boat,keyboard,0,0453_stg_s05_0_keyboard_00_keyboard7-chair3.png
subject-05,1,454,1.00432085990906,boat,chair,0,0454_stg_s05_0_chair_00_chair9-keyboard2.png
subject-05,1,455,1.50018286705017,oven,elephant,0,0455_stg_s05_0_elephant_00_elephant3-chair1.png
subject-05,1,456,1.27671217918396,cat,cat,0,0456_stg_s05_0_cat_00_cat1-dog1.png
subject-05,1,457,1.03844594955444,clock,bird,0,0457_stg_s05_0_bird_00_bird3-truck3.png
subject-05,1,458,1.19860196113586,airplane,car,0,0458_stg_s05_0_car_00_car10-keyboard2.png
subject-05,1,459,1.12002897262573,bear,chair,0,0459_stg_s05_0_chair_00_chair9-bear1.png
subject-05,1,460,0.728075981140137,oven,knife,0,0460_stg_s05_0_knife_00_knife7-car2.png
subject-05,1,461,1.13400101661682,clock,keyboard,0,0461_stg_s05_0_keyboard_00_keyboard2-knife1.png
subject-05,1,462,1.23843193054199,bottle,clock,0,0462_stg_s05_0_clock_00_clock10-bottle1.png
subject-05,1,463,1.06525206565857,bottle,bottle,0,0463_stg_s05_0_bottle_00_bottle1-dog2.png
subject-05,1,464,1.23357009887695,cat,bird,0,0464_stg_s05_0_bird_00_bird5-cat2.png
subject-05,1,465,0.878456115722656,cat,elephant,0,0465_stg_s05_0_elephant_00_elephant6-knife2.png
subject-05,1,466,0.922413110733032,oven,truck,0,0466_stg_s05_0_truck_00_truck5-car1.png
subject-05,1,467,1.20627403259277,boat,dog,0,0467_stg_s05_0_dog_00_dog2-airplane2.png
subject-05,1,468,1.02741312980652,boat,car,0,0468_stg_s05_0_car_00_car6-truck3.png
subject-05,1,469,0.641216993331909,oven,elephant,0,0469_stg_s05_0_elephant_00_elephant3-truck1.png
subject-05,1,470,1.39307188987732,boat,bicycle,0,0470_stg_s05_0_bicycle_00_bicycle4-boat1.png
subject-05,1,471,1.16044902801514,bottle,bear,0,0471_stg_s05_0_bear_00_bear9-dog1.png
subject-05,1,472,1.20613408088684,cat,bottle,0,0472_stg_s05_0_bottle_00_bottle4-oven2.png
subject-05,1,473,0.999403953552246,bird,boat,0,0473_stg_s05_0_boat_00_boat9-dog2.png
subject-05,1,474,1.04498982429504,clock,clock,0,0474_stg_s05_0_clock_00_clock4-airplane1.png
subject-05,1,475,0.791522979736328,cat,dog,0,0475_stg_s05_0_dog_00_dog7-bird3.png
subject-05,1,476,0.842978954315186,cat,elephant,0,0476_stg_s05_0_elephant_00_elephant2-cat1.png
subject-05,1,477,1.37813091278076,cat,bird,0,0477_stg_s05_0_bird_00_bird2-dog2.png
subject-05,1,478,1.43251895904541,bird,bear,0,0478_stg_s05_0_bear_00_bear4-cat3.png
subject-05,1,479,1.2021119594574,bottle,airplane,0,0479_stg_s05_0_airplane_00_airplane4-bottle1.png
subject-05,1,480,1.26953101158142,boat,chair,0,0480_stg_s05_0_chair_00_chair7-airplane1.png
subject-05,1,481,1.09486889839172,oven,bird,0,0481_stg_s05_0_bird_00_bird8-car2.png
subject-05,1,482,0.762466907501221,bottle,bottle,0,0482_stg_s05_0_bottle_00_bottle3-bottle3.png
subject-05,1,483,0.783963918685913,oven,clock,0,0483_stg_s05_0_clock_00_clock7-boat3.png
subject-05,1,484,0.965571165084839,keyboard,airplane,0,0484_stg_s05_0_airplane_00_airplane7-bird3.png
subject-05,1,485,0.927480936050415,bottle,keyboard,0,0485_stg_s05_0_keyboard_00_keyboard6-bottle2.png
subject-05,1,486,1.13276410102844,bear,truck,0,0486_stg_s05_0_truck_00_truck1-car3.png
subject-05,1,487,1.04443192481995,bird,truck,0,0487_stg_s05_0_truck_00_truck6-cat2.png
subject-05,1,488,1.24140095710754,dog,dog,0,0488_stg_s05_0_dog_00_dog3-knife3.png
subject-05,1,489,1.26608300209045,bottle,dog,0,0489_stg_s05_0_dog_00_dog4-bird1.png
subject-05,1,490,1.02576994895935,clock,clock,0,0490_stg_s05_0_clock_00_clock8-boat1.png
subject-05,1,491,1.06964707374573,keyboard,elephant,0,0491_stg_s05_0_elephant_00_elephant7-knife2.png
subject-05,1,492,0.64552116394043,cat,clock,0,0492_stg_s05_0_clock_00_clock10-oven2.png
subject-05,1,493,0.733771800994873,oven,bicycle,0,0493_stg_s05_0_bicycle_00_bicycle6-cat1.png
subject-05,1,494,0.747262954711914,oven,dog,0,0494_stg_s05_0_dog_00_dog7-car2.png
subject-05,1,495,0.847015142440796,oven,airplane,0,0495_stg_s05_0_airplane_00_airplane2-bear1.png
subject-05,1,496,1.32887387275696,bottle,truck,0,0496_stg_s05_0_truck_00_truck4-boat3.png
subject-05,1,497,0.788197994232178,oven,oven,0,0497_stg_s05_0_oven_00_oven4-clock2.png
subject-05,1,498,1.30183291435242,clock,car,0,0498_stg_s05_0_car_00_car3-bottle3.png
subject-05,1,499,1.33162903785706,boat,keyboard,0,0499_stg_s05_0_keyboard_00_keyboard5-bear3.png
subject-05,1,500,0.983592987060547,bird,bicycle,0,0500_stg_s05_0_bicycle_00_bicycle9-bear1.png
subject-05,1,501,0.967288017272949,boat,oven,0,0501_stg_s05_0_oven_00_oven6-chair3.png
subject-05,1,502,0.88067102432251,keyboard,oven,0,0502_stg_s05_0_oven_00_oven9-bear2.png
subject-05,1,503,1.40846109390259,bottle,truck,0,0503_stg_s05_0_truck_00_truck1-cat1.png
subject-05,1,504,0.807703018188477,oven,chair,0,0504_stg_s05_0_chair_00_chair8-car1.png
subject-05,1,505,1.21379899978638,oven,bottle,0,0505_stg_s05_0_bottle_00_bottle5-airplane1.png
subject-05,1,506,1.18698287010193,cat,bird,0,0506_stg_s05_0_bird_00_bird10-bear2.png
subject-05,1,507,1.03397512435913,clock,clock,0,0507_stg_s05_0_clock_00_clock2-knife1.png
subject-05,1,508,1.19536685943604,airplane,bicycle,0,0508_stg_s05_0_bicycle_00_bicycle6-bicycle3.png
subject-05,1,509,1.03953719139099,bottle,cat,0,0509_stg_s05_0_cat_00_cat7-bottle1.png
subject-05,1,510,1.50001311302185,dog,truck,0,0510_stg_s05_0_truck_00_truck6-boat2.png
subject-05,1,511,0.938496828079224,keyboard,chair,0,0511_stg_s05_0_chair_00_chair8-oven1.png
subject-05,1,512,1.46846199035645,bird,clock,0,0512_stg_s05_0_clock_00_clock7-cat2.png
subject-05,1,513,0.955667018890381,bottle,bottle,0,0513_stg_s05_0_bottle_00_bottle2-knife3.png
subject-05,1,514,1.458899974823,bottle,cat,0,0514_stg_s05_0_cat_00_cat9-bicycle1.png
subject-05,1,515,1.07996392250061,keyboard,bicycle,0,0515_stg_s05_0_bicycle_00_bicycle1-bottle3.png
subject-05,1,516,0.979543924331665,cat,cat,0,0516_stg_s05_0_cat_00_cat2-bottle3.png
subject-05,1,517,0.793126106262207,oven,oven,0,0517_stg_s05_0_oven_00_oven8-knife2.png
subject-05,1,518,0.914464950561523,cat,cat,0,0518_stg_s05_0_cat_00_cat9-bird3.png
subject-05,1,519,0.941817045211792,clock,bottle,0,0519_stg_s05_0_bottle_00_bottle2-clock1.png
subject-05,1,520,1.20970392227173,bird,bear,0,0520_stg_s05_0_bear_00_bear3-bicycle2.png
subject-05,1,521,1.43139791488647,bird,chair,0,0521_stg_s05_0_chair_00_chair3-bicycle3.png
subject-05,1,522,1.37726092338562,bottle,car,0,0522_stg_s05_0_car_00_car6-bottle1.png
subject-05,1,523,1.15269804000854,bottle,bicycle,0,0523_stg_s05_0_bicycle_00_bicycle9-knife3.png
subject-05,1,524,1.50026702880859,bird,airplane,0,0524_stg_s05_0_airplane_00_airplane5-bear2.png
subject-05,1,525,1.14237308502197,cat,boat,0,0525_stg_s05_0_boat_00_boat6-bear1.png
subject-05,1,526,1.30173802375793,boat,boat,0,0526_stg_s05_0_boat_00_boat9-boat3.png
subject-05,1,527,1.04052090644836,clock,bicycle,0,0527_stg_s05_0_bicycle_00_bicycle4-clock3.png
subject-05,1,528,1.04632091522217,oven,dog,0,0528_stg_s05_0_dog_00_dog10-truck2.png
subject-05,1,529,1.28176712989807,bottle,elephant,0,0529_stg_s05_0_elephant_00_elephant1-bottle1.png
subject-05,1,530,1.00287199020386,cat,dog,0,0530_stg_s05_0_dog_00_dog3-dog1.png
subject-05,1,531,0.732716083526611,clock,clock,0,0531_stg_s05_0_clock_00_clock2-bicycle1.png
subject-05,1,532,1.2766740322113,knife,oven,0,0532_stg_s05_0_oven_00_oven6-bird1.png
subject-05,1,533,1.40673184394836,clock,chair,0,0533_stg_s05_0_chair_00_chair5-oven2.png
subject-05,1,534,0.958428859710693,oven,elephant,0,0534_stg_s05_0_elephant_00_elephant8-knife2.png
subject-05,1,535,1.26418805122375,keyboard,chair,0,0535_stg_s05_0_chair_00_chair5-truck3.png
subject-05,1,536,0.977699995040894,cat,elephant,0,0536_stg_s05_0_elephant_00_elephant9-bicycle2.png
subject-05,1,537,1.19397115707397,elephant,bird,0,0537_stg_s05_0_bird_00_bird9-bear3.png
subject-05,1,538,1.50040793418884,car,knife,0,0538_stg_s05_0_knife_00_knife8-boat1.png
subject-05,1,539,NaN,na,bear,0,0539_stg_s05_0_bear_00_bear10-knife2.png
subject-05,1,540,0.907035112380981,clock,knife,0,0540_stg_s05_0_knife_00_knife3-clock2.png
subject-05,1,541,1.279217004776,bear,dog,0,0541_stg_s05_0_dog_00_dog10-car3.png
subject-05,1,542,1.33902215957642,knife,boat,0,0542_stg_s05_0_boat_00_boat1-keyboard3.png
subject-05,1,543,1.2366828918457,bird,bird,0,0543_stg_s05_0_bird_00_bird1-bear1.png
subject-05,1,544,1.15397095680237,elephant,car,0,0544_stg_s05_0_car_00_car7-elephant3.png
subject-05,1,545,1.50024890899658,car,truck,0,0545_stg_s05_0_truck_00_truck5-dog3.png
subject-05,1,546,1.31899499893188,clock,elephant,0,0546_stg_s05_0_elephant_00_elephant2-bear3.png
subject-05,1,547,0.978211164474487,clock,keyboard,0,0547_stg_s05_0_keyboard_00_keyboard3-clock3.png
subject-05,1,548,1.15437602996826,clock,truck,0,0548_stg_s05_0_truck_00_truck3-bear3.png
subject-05,1,549,0.929807186126709,bear,chair,0,0549_stg_s05_0_chair_00_chair1-airplane2.png
subject-05,1,550,0.911325931549072,oven,oven,0,0550_stg_s05_0_oven_00_oven9-car2.png
subject-05,1,551,1.30924892425537,boat,bicycle,0,0551_stg_s05_0_bicycle_00_bicycle8-bird2.png
subject-05,1,552,1.12578010559082,clock,keyboard,0,0552_stg_s05_0_keyboard_00_keyboard4-bird1.png
subject-05,1,553,0.882360935211182,elephant,bicycle,0,0553_stg_s05_0_bicycle_00_bicycle10-elephant2.png
subject-05,1,554,1.1665370464325,clock,knife,0,0554_stg_s05_0_knife_00_knife5-cat2.png
subject-05,1,555,1.50007700920105,airplane,truck,0,0555_stg_s05_0_truck_00_truck1-chair2.png
subject-05,1,556,0.888853073120117,elephant,bear,0,0556_stg_s05_0_bear_00_bear10-elephant1.png
subject-05,1,557,1.19468188285828,bottle,keyboard,0,0557_stg_s05_0_keyboard_00_keyboard5-bird3.png
subject-05,1,558,1.1227560043335,clock,clock,0,0558_stg_s05_0_clock_00_clock4-boat3.png
subject-05,1,559,1.5003068447113,clock,car,0,0559_stg_s05_0_car_00_car9-keyboard2.png
subject-05,1,560,1.32829403877258,keyboard,elephant,0,0560_stg_s05_0_elephant_00_elephant1-airplane2.png
subject-05,1,561,1.1017119884491,cat,elephant,0,0561_stg_s05_0_elephant_00_elephant1-bear2.png
subject-05,1,562,1.23919892311096,keyboard,bear,0,0562_stg_s05_0_bear_00_bear10-bear2.png
subject-05,1,563,1.15331220626831,oven,clock,0,0563_stg_s05_0_clock_00_clock6-car2.png
subject-05,1,564,1.20530796051025,bottle,bottle,0,0564_stg_s05_0_bottle_00_bottle9-car3.png
subject-05,1,565,1.22713994979858,oven,car,0,0565_stg_s05_0_car_00_car7-dog3.png
subject-05,1,566,1.22735714912415,clock,bear,0,0566_stg_s05_0_bear_00_bear9-bottle2.png
subject-05,1,567,0.76317310333252,cat,cat,0,0567_stg_s05_0_cat_00_cat7-dog3.png
subject-05,1,568,1.0517270565033,bird,elephant,0,0568_stg_s05_0_elephant_00_elephant7-cat1.png
subject-05,1,569,1.23334693908691,bottle,chair,0,0569_stg_s05_0_chair_00_chair10-oven1.png
subject-05,1,570,0.686913967132568,clock,clock,0,0570_stg_s05_0_clock_00_clock2-clock3.png
subject-05,1,571,0.948591947555542,clock,bird,0,0571_stg_s05_0_bird_00_bird4-airplane1.png
subject-05,1,572,1.28635191917419,knife,bicycle,0,0572_stg_s05_0_bicycle_00_bicycle9-keyboard3.png
subject-05,1,573,1.13919997215271,dog,dog,0,0573_stg_s05_0_dog_00_dog8-oven3.png
subject-05,1,574,1.35195803642273,chair,car,0,0574_stg_s05_0_car_00_car1-dog2.png
subject-05,1,575,1.08180499076843,elephant,elephant,0,0575_stg_s05_0_elephant_00_elephant2-elephant3.png
subject-05,1,576,1.34793090820312,knife,bicycle,0,0576_stg_s05_0_bicycle_00_bicycle3-keyboard1.png
subject-05,1,577,0.923705101013184,oven,car,0,0577_stg_s05_0_car_00_car10-car1.png
subject-05,1,578,1.18324589729309,oven,keyboard,0,0578_stg_s05_0_keyboard_00_keyboard10-truck1.png
subject-05,1,579,1.50009417533875,dog,dog,0,0579_stg_s05_0_dog_00_dog9-chair2.png
subject-05,1,580,1.48693203926086,clock,chair,0,0580_stg_s05_0_chair_00_chair7-knife2.png
subject-05,1,581,0.710978984832764,boat,knife,0,0581_stg_s05_0_knife_00_knife9-airplane2.png
subject-05,1,582,1.25437998771667,knife,bicycle,0,0582_stg_s05_0_bicycle_00_bicycle1-knife3.png
subject-05,1,583,0.965344905853271,elephant,knife,0,0583_stg_s05_0_knife_00_knife1-elephant1.png
subject-05,1,584,1.20029711723328,keyboard,airplane,0,0584_stg_s05_0_airplane_00_airplane1-bicycle2.png
subject-05,1,585,1.50004506111145,airplane,boat,0,0585_stg_s05_0_boat_00_boat9-knife2.png
subject-05,1,586,NaN,na,cat,0,0586_stg_s05_0_cat_00_cat2-truck3.png
subject-05,1,587,0.741419076919556,oven,oven,0,0587_stg_s05_0_oven_00_oven2-oven3.png
subject-05,1,588,1.20166802406311,dog,car,0,0588_stg_s05_0_car_00_car4-bear3.png
subject-05,1,589,1.29918503761292,boat,airplane,0,0589_stg_s05_0_airplane_00_airplane4-boat3.png
subject-05,1,590,NaN,na,dog,0,0590_stg_s05_0_dog_00_dog4-bottle2.png
subject-05,1,591,1.20237302780151,elephant,elephant,0,0591_stg_s05_0_elephant_00_elephant8-elephant1.png
subject-05,1,592,0.902659177780151,clock,car,0,0592_stg_s05_0_car_00_car4-clock1.png
subject-05,1,593,0.876373052597046,clock,cat,0,0593_stg_s05_0_cat_00_cat4-clock2.png
subject-05,1,594,0.922417879104614,knife,airplane,0,0594_stg_s05_0_airplane_00_airplane3-oven1.png
subject-05,1,595,0.94176983833313,clock,bicycle,0,0595_stg_s05_0_bicycle_00_bicycle8-chair2.png
subject-05,1,596,1.42275285720825,oven,oven,0,0596_stg_s05_0_oven_00_oven2-car1.png
subject-05,1,597,1.50009608268738,oven,boat,0,0597_stg_s05_0_boat_00_boat8-oven1.png
subject-05,1,598,0.940953016281128,clock,dog,0,0598_stg_s05_0_dog_00_dog5-car3.png
subject-05,1,599,1.50015187263489,knife,bird,0,0599_stg_s05_0_bird_00_bird9-keyboard1.png
subject-05,1,600,1.22290301322937,keyboard,knife,0,0600_stg_s05_0_knife_00_knife1-airplane1.png
subject-05,1,601,1.3581690788269,knife,dog,0,0601_stg_s05_0_dog_00_dog7-oven2.png
subject-05,1,602,0.996568202972412,cat,cat,0,0602_stg_s05_0_cat_00_cat1-keyboard3.png
subject-05,1,603,0.859592914581299,clock,bird,0,0603_stg_s05_0_bird_00_bird4-bicycle2.png
subject-05,1,604,NaN,na,boat,0,0604_stg_s05_0_boat_00_boat2-oven3.png
subject-05,1,605,1.10061597824097,clock,bottle,0,0605_stg_s05_0_bottle_00_bottle7-boat3.png
subject-05,1,606,0.750910997390747,oven,dog,0,0606_stg_s05_0_dog_00_dog10-keyboard2.png
subject-05,1,607,0.708501815795898,clock,bird,0,0607_stg_s05_0_bird_00_bird4-clock1.png
subject-05,1,608,0.830065011978149,clock,knife,0,0608_stg_s05_0_knife_00_knife1-clock2.png
subject-05,1,609,1.11966991424561,bird,car,0,0609_stg_s05_0_car_00_car4-bicycle3.png
subject-05,1,610,1.30958604812622,cat,dog,0,0610_stg_s05_0_dog_00_dog9-bear3.png
subject-05,1,611,1.50019097328186,knife,bicycle,0,0611_stg_s05_0_bicycle_00_bicycle9-bird3.png
subject-05,1,612,0.991335868835449,airplane,airplane,0,0612_stg_s05_0_airplane_00_airplane9-oven2.png
subject-05,1,613,1.05070304870605,keyboard,boat,0,0613_stg_s05_0_boat_00_boat9-chair2.png
subject-05,1,614,1.15642213821411,knife,keyboard,0,0614_stg_s05_0_keyboard_00_keyboard9-bird1.png
subject-05,1,615,1.31625294685364,oven,clock,0,0615_stg_s05_0_clock_00_clock9-keyboard2.png
subject-05,1,616,1.50020599365234,chair,bottle,0,0616_stg_s05_0_bottle_00_bottle5-cat1.png
subject-05,1,617,0.941447019577026,keyboard,keyboard,0,0617_stg_s05_0_keyboard_00_keyboard3-bird3.png
subject-05,1,618,1.45525002479553,bear,bear,0,0618_stg_s05_0_bear_00_bear9-knife2.png
subject-05,1,619,0.777298927307129,cat,car,0,0619_stg_s05_0_car_00_car7-bird3.png
subject-05,1,620,0.961658000946045,clock,bottle,0,0620_stg_s05_0_bottle_00_bottle3-bear2.png
subject-05,1,621,NaN,na,oven,0,0621_stg_s05_0_oven_00_oven9-keyboard1.png
subject-05,1,622,1.44064378738403,boat,bird,0,0622_stg_s05_0_bird_00_bird5-airplane3.png
subject-05,1,623,0.962852954864502,clock,bear,0,0623_stg_s05_0_bear_00_bear8-airplane1.png
subject-05,1,624,1.44657111167908,car,bicycle,0,0624_stg_s05_0_bicycle_00_bicycle3-truck3.png
subject-05,1,625,0.690253019332886,oven,clock,0,0625_stg_s05_0_clock_00_clock10-truck2.png
subject-05,1,626,0.979567050933838,oven,truck,0,0626_stg_s05_0_truck_00_truck6-truck2.png
subject-05,1,627,1.16970491409302,oven,keyboard,0,0627_stg_s05_0_keyboard_00_keyboard6-car2.png
subject-05,1,628,1.49127292633057,boat,bear,0,0628_stg_s05_0_bear_00_bear5-bicycle3.png
subject-05,1,629,1.1352961063385,clock,car,0,0629_stg_s05_0_car_00_car9-clock2.png
subject-05,1,630,0.880345106124878,oven,boat,0,0630_stg_s05_0_boat_00_boat1-car2.png
subject-05,1,631,1.16190600395203,clock,elephant,0,0631_stg_s05_0_elephant_00_elephant4-boat3.png
subject-05,1,632,0.767266988754272,clock,boat,0,0632_stg_s05_0_boat_00_boat5-clock3.png
subject-05,1,633,1.28667306900024,clock,airplane,0,0633_stg_s05_0_airplane_00_airplane5-bicycle1.png
subject-05,1,634,1.20831513404846,elephant,bottle,0,0634_stg_s05_0_bottle_00_bottle2-elephant1.png
subject-05,1,635,1.03889298439026,chair,bird,0,0635_stg_s05_0_bird_00_bird2-bird2.png
subject-05,1,636,1.09837698936462,elephant,elephant,0,0636_stg_s05_0_elephant_00_elephant9-elephant3.png
subject-05,1,637,1.07147693634033,clock,bear,0,0637_stg_s05_0_bear_00_bear6-clock1.png
subject-05,1,638,0.739486217498779,keyboard,keyboard,0,0638_stg_s05_0_keyboard_00_keyboard8-truck3.png
subject-05,1,639,0.891207933425903,cat,oven,0,0639_stg_s05_0_oven_00_oven2-dog3.png
subject-05,1,640,0.658841133117676,oven,car,0,0640_stg_s05_0_car_00_car1-car2.png
subject-05,1,641,1.15684199333191,bottle,bear,0,0641_stg_s05_0_bear_00_bear6-boat3.png
subject-05,1,642,1.40038299560547,oven,knife,0,0642_stg_s05_0_knife_00_knife8-car2.png
subject-05,1,643,1.50018501281738,boat,bicycle,0,0643_stg_s05_0_bicycle_00_bicycle8-boat1.png
subject-05,1,644,1.50019478797913,boat,car,0,0644_stg_s05_0_car_00_car1-airplane1.png
subject-05,1,645,0.912766933441162,clock,car,0,0645_stg_s05_0_car_00_car5-bear3.png
subject-05,1,646,1.5002920627594,keyboard,keyboard,0,0646_stg_s05_0_keyboard_00_keyboard6-bear2.png
subject-05,1,647,0.949488878250122,clock,car,0,0647_stg_s05_0_car_00_car8-dog1.png
subject-05,1,648,1.50008702278137,bicycle,bicycle,0,0648_stg_s05_0_bicycle_00_bicycle3-bird1.png
subject-05,1,649,0.914899110794067,bottle,bird,0,0649_stg_s05_0_bird_00_bird8-bottle1.png
subject-05,1,650,1.50010299682617,cat,clock,0,0650_stg_s05_0_clock_00_clock8-oven3.png
subject-05,1,651,NaN,na,bottle,0,0651_stg_s05_0_bottle_00_bottle8-knife1.png
subject-05,1,652,0.926119089126587,oven,bottle,0,0652_stg_s05_0_bottle_00_bottle8-dog2.png
subject-05,1,653,NaN,na,boat,0,0653_stg_s05_0_boat_00_boat5-boat3.png
subject-05,1,654,0.95110297203064,cat,boat,0,0654_stg_s05_0_boat_00_boat3-cat3.png
subject-05,1,655,1.11850786209106,chair,keyboard,0,0655_stg_s05_0_keyboard_00_keyboard8-cat3.png
subject-05,1,656,0.89275598526001,cat,oven,0,0656_stg_s05_0_oven_00_oven3-clock3.png
subject-05,1,657,0.852177143096924,cat,dog,0,0657_stg_s05_0_dog_00_dog1-cat3.png
subject-05,1,658,1.38167786598206,knife,chair,0,0658_stg_s05_0_chair_00_chair8-clock3.png
subject-05,1,659,1.02626585960388,bottle,bicycle,0,0659_stg_s05_0_bicycle_00_bicycle4-bottle1.png
subject-05,1,660,1.08230710029602,cat,airplane,0,0660_stg_s05_0_airplane_00_airplane7-clock3.png
subject-05,1,661,1.4800169467926,chair,bicycle,0,0661_stg_s05_0_bicycle_00_bicycle2-dog1.png
subject-05,1,662,0.78563404083252,oven,oven,0,0662_stg_s05_0_oven_00_oven7-car3.png
subject-05,1,663,1.15347504615784,bottle,bird,0,0663_stg_s05_0_bird_00_bird3-oven1.png
subject-05,1,664,NaN,na,car,0,0664_stg_s05_0_car_00_car5-airplane3.png
subject-05,1,665,0.727847099304199,boat,airplane,0,0665_stg_s05_0_airplane_00_airplane6-chair3.png
subject-05,1,666,1.50015711784363,bird,airplane,0,0666_stg_s05_0_airplane_00_airplane5-dog3.png
subject-05,1,667,1.15101313591003,clock,car,0,0667_stg_s05_0_car_00_car8-knife2.png
subject-05,1,668,1.02736687660217,keyboard,keyboard,0,0668_stg_s05_0_keyboard_00_keyboard1-car3.png
subject-05,1,669,1.50043296813965,bottle,bear,0,0669_stg_s05_0_bear_00_bear3-chair2.png
subject-05,1,670,1.50028109550476,clock,chair,0,0670_stg_s05_0_chair_00_chair7-car2.png
subject-05,1,671,1.27883696556091,oven,bird,0,0671_stg_s05_0_bird_00_bird7-car2.png
subject-05,1,672,0.750347137451172,clock,bird,0,0672_stg_s05_0_bird_00_bird2-knife1.png
subject-05,1,673,1.13987994194031,chair,cat,0,0673_stg_s05_0_cat_00_cat6-bear1.png
subject-05,1,674,1.50032615661621,boat,car,0,0674_stg_s05_0_car_00_car2-chair1.png
subject-05,1,675,1.12711501121521,keyboard,truck,0,0675_stg_s05_0_truck_00_truck6-bear2.png
subject-05,1,676,1.32491898536682,bear,bottle,0,0676_stg_s05_0_bottle_00_bottle3-bicycle3.png
subject-05,1,677,0.745743989944458,oven,bear,0,0677_stg_s05_0_bear_00_bear2-bird3.png
subject-05,1,678,1.13569498062134,clock,elephant,0,0678_stg_s05_0_elephant_00_elephant1-oven2.png
subject-05,1,679,1.1494779586792,keyboard,bear,0,0679_stg_s05_0_bear_00_bear3-keyboard2.png
subject-05,1,680,1.50000500679016,boat,truck,0,0680_stg_s05_0_truck_00_truck9-boat3.png
subject-05,1,681,1.13916611671448,chair,chair,0,0681_stg_s05_0_chair_00_chair1-bear1.png
subject-05,1,682,0.845140933990479,cat,boat,0,0682_stg_s05_0_boat_00_boat1-bicycle2.png
subject-05,1,683,0.971457958221436,keyboard,keyboard,0,0683_stg_s05_0_keyboard_00_keyboard10-keyboard1.png
subject-05,1,684,0.968822002410889,boat,dog,0,0684_stg_s05_0_dog_00_dog3-boat1.png
subject-05,1,685,1.30026197433472,knife,bird,0,0685_stg_s05_0_bird_00_bird5-bird1.png
subject-05,1,686,0.944785833358765,oven,bicycle,0,0686_stg_s05_0_bicycle_00_bicycle6-car2.png
subject-05,1,687,1.47455477714539,dog,knife,0,0687_stg_s05_0_knife_00_knife1-car3.png
subject-05,1,688,1.36415696144104,bottle,cat,0,0688_stg_s05_0_cat_00_cat9-boat2.png
subject-05,1,689,1.50023102760315,cat,elephant,0,0689_stg_s05_0_elephant_00_elephant7-dog1.png
subject-05,1,690,0.724017858505249,oven,bear,0,0690_stg_s05_0_bear_00_bear5-bird1.png
subject-05,1,691,0.851788997650146,boat,boat,0,0691_stg_s05_0_boat_00_boat9-airplane2.png
subject-05,1,692,NaN,na,elephant,0,0692_stg_s05_0_elephant_00_elephant6-oven1.png
subject-05,1,693,1.35558104515076,bottle,elephant,0,0693_stg_s05_0_elephant_00_elephant6-bird1.png
subject-05,1,694,NaN,na,boat,0,0694_stg_s05_0_boat_00_boat7-boat2.png
subject-05,1,695,1.15051412582397,clock,bicycle,0,0695_stg_s05_0_bicycle_00_bicycle6-boat2.png
subject-05,1,696,0.78618597984314,cat,truck,0,0696_stg_s05_0_truck_00_truck1-bird1.png
subject-05,1,697,1.13816094398499,boat,truck,0,0697_stg_s05_0_truck_00_truck8-keyboard2.png
subject-05,1,698,1.06825017929077,oven,dog,0,0698_stg_s05_0_dog_00_dog2-bottle2.png
subject-05,1,699,1.45780801773071,chair,bear,0,0699_stg_s05_0_bear_00_bear10-chair2.png
subject-05,1,700,1.239089012146,elephant,car,0,0700_stg_s05_0_car_00_car4-elephant3.png
subject-05,1,701,1.06881308555603,boat,boat,0,0701_stg_s05_0_boat_00_boat3-airplane2.png
subject-05,1,702,1.00453090667725,elephant,elephant,0,0702_stg_s05_0_elephant_00_elephant10-elephant1.png
subject-05,1,703,NaN,na,bicycle,0,0703_stg_s05_0_bicycle_00_bicycle3-oven3.png
subject-05,1,704,1.2927520275116,boat,boat,0,0704_stg_s05_0_boat_00_boat4-boat3.png
subject-05,1,705,0.954782009124756,oven,keyboard,0,0705_stg_s05_0_keyboard_00_keyboard7-car3.png
subject-05,1,706,1.03639793395996,elephant,boat,0,0706_stg_s05_0_boat_00_boat6-elephant2.png
subject-05,1,707,1.17202711105347,cat,bear,0,0707_stg_s05_0_bear_00_bear6-bear1.png
subject-05,1,708,0.847440958023071,elephant,knife,0,0708_stg_s05_0_knife_00_knife9-elephant2.png
subject-05,1,709,1.32860994338989,airplane,knife,0,0709_stg_s05_0_knife_00_knife6-oven3.png
subject-05,1,710,1.40207600593567,cat,elephant,0,0710_stg_s05_0_elephant_00_elephant6-dog2.png
subject-05,1,711,0.923990964889526,boat,truck,0,0711_stg_s05_0_truck_00_truck4-oven2.png
subject-05,1,712,1.11028504371643,elephant,truck,0,0712_stg_s05_0_truck_00_truck8-elephant1.png
subject-05,1,713,1.38632392883301,knife,clock,0,0713_stg_s05_0_clock_00_clock4-oven1.png
subject-05,1,714,1.50007605552673,oven,bear,0,0714_stg_s05_0_bear_00_bear8-boat2.png
subject-05,1,715,1.50011515617371,clock,boat,0,0715_stg_s05_0_boat_00_boat3-clock3.png
subject-05,1,716,0.879391193389893,cat,bear,0,0716_stg_s05_0_bear_00_bear1-clock2.png
subject-05,1,717,NaN,na,bicycle,0,0717_stg_s05_0_bicycle_00_bicycle7-bear2.png
subject-05,1,718,1.01183891296387,clock,cat,0,0718_stg_s05_0_cat_00_cat3-oven2.png
subject-05,1,719,0.841783046722412,clock,boat,0,0719_stg_s05_0_boat_00_boat7-clock3.png
subject-05,1,720,0.823528051376343,bottle,bottle,0,0720_stg_s05_0_bottle_00_bottle5-knife1.png
subject-05,1,721,0.983206033706665,bottle,boat,0,0721_stg_s05_0_boat_00_boat6-bottle2.png
subject-05,1,722,0.872469902038574,cat,oven,0,0722_stg_s05_0_oven_00_oven4-dog1.png
subject-05,1,723,1.27007508277893,knife,knife,0,0723_stg_s05_0_knife_00_knife7-bird3.png
subject-05,1,724,1.50037288665771,chair,elephant,0,0724_stg_s05_0_elephant_00_elephant9-chair2.png
subject-05,1,725,1.18111896514893,boat,chair,0,0725_stg_s05_0_chair_00_chair4-chair3.png
subject-05,1,726,1.49197602272034,bird,dog,0,0726_stg_s05_0_dog_00_dog8-bear3.png
subject-05,1,727,1.26797699928284,chair,clock,0,0727_stg_s05_0_clock_00_clock6-bird3.png
subject-05,1,728,1.29538297653198,keyboard,knife,0,0728_stg_s05_0_knife_00_knife4-cat2.png
subject-05,1,729,1.26252603530884,cat,airplane,0,0729_stg_s05_0_airplane_00_airplane8-bicycle3.png
subject-05,1,730,1.35211992263794,elephant,bird,0,0730_stg_s05_0_bird_00_bird3-bear3.png
subject-05,1,731,1.00340604782104,boat,clock,0,0731_stg_s05_0_clock_00_clock9-chair3.png
subject-05,1,732,1.50010299682617,cat,oven,0,0732_stg_s05_0_oven_00_oven9-clock2.png
subject-05,1,733,1.11480498313904,keyboard,elephant,0,0733_stg_s05_0_elephant_00_elephant7-bottle3.png
subject-05,1,734,1.35827803611755,elephant,bicycle,0,0734_stg_s05_0_bicycle_00_bicycle7-elephant2.png
subject-05,1,735,0.931969165802002,keyboard,chair,0,0735_stg_s05_0_chair_00_chair8-airplane1.png
subject-05,1,736,0.790994882583618,oven,bear,0,0736_stg_s05_0_bear_00_bear6-car2.png
subject-05,1,737,1.04303598403931,chair,bottle,0,0737_stg_s05_0_bottle_00_bottle7-bear1.png
subject-05,1,738,1.09527993202209,boat,truck,0,0738_stg_s05_0_truck_00_truck5-keyboard1.png
subject-05,1,739,1.2633330821991,chair,keyboard,0,0739_stg_s05_0_keyboard_00_keyboard7-dog1.png
subject-05,1,740,1.09862017631531,clock,clock,0,0740_stg_s05_0_clock_00_clock7-bear2.png
subject-05,1,741,1.28204202651978,bottle,bottle,0,0741_stg_s05_0_bottle_00_bottle6-knife3.png
subject-05,1,742,NaN,na,knife,0,0742_stg_s05_0_knife_00_knife2-bicycle3.png
subject-05,1,743,0.838991165161133,cat,airplane,0,0743_stg_s05_0_airplane_00_airplane3-cat1.png
subject-05,1,744,1.50039887428284,bottle,elephant,0,0744_stg_s05_0_elephant_00_elephant2-airplane3.png
subject-05,1,745,NaN,na,truck,0,0745_stg_s05_0_truck_00_truck8-bottle2.png
subject-05,1,746,0.831478834152222,oven,oven,0,0746_stg_s05_0_oven_00_oven6-oven3.png
subject-05,1,747,1.15090203285217,bottle,bear,0,0747_stg_s05_0_bear_00_bear1-bicycle3.png
subject-05,1,748,1.50015807151794,bottle,chair,0,0748_stg_s05_0_chair_00_chair5-knife3.png
subject-05,1,749,1.50034093856812,keyboard,airplane,0,0749_stg_s05_0_airplane_00_airplane10-bear3.png
subject-05,1,750,NaN,na,elephant,0,0750_stg_s05_0_elephant_00_elephant8-clock2.png
subject-05,1,751,0.728342056274414,cat,bird,0,0751_stg_s05_0_bird_00_bird10-bird2.png
subject-05,1,752,1.40261292457581,boat,cat,0,0752_stg_s05_0_cat_00_cat9-bottle2.png
subject-05,1,753,1.2560350894928,clock,cat,0,0753_stg_s05_0_cat_00_cat9-knife2.png
subject-05,1,754,1.23708081245422,car,truck,0,0754_stg_s05_0_truck_00_truck3-car3.png
subject-05,1,755,1.1192319393158,boat,chair,0,0755_stg_s05_0_chair_00_chair4-keyboard2.png
subject-05,1,756,0.902437925338745,oven,chair,0,0756_stg_s05_0_chair_00_chair10-car2.png
subject-05,1,757,1.24385595321655,cat,cat,0,0757_stg_s05_0_cat_00_cat9-clock2.png
subject-05,1,758,0.635354042053223,elephant,truck,0,0758_stg_s05_0_truck_00_truck7-elephant2.png
subject-05,1,759,1.01150488853455,bottle,bottle,0,0759_stg_s05_0_bottle_00_bottle8-bicycle1.png
subject-05,1,760,0.8628089427948,bottle,truck,0,0760_stg_s05_0_truck_00_truck2-bottle3.png
subject-05,1,761,1.00651288032532,bird,cat,0,0761_stg_s05_0_cat_00_cat5-bear2.png
subject-05,1,762,1.11872410774231,clock,airplane,0,0762_stg_s05_0_airplane_00_airplane4-knife1.png
subject-05,1,763,1.21150183677673,airplane,bicycle,0,0763_stg_s05_0_bicycle_00_bicycle5-oven3.png
subject-05,1,764,1.4313337802887,elephant,knife,0,0764_stg_s05_0_knife_00_knife4-airplane3.png
subject-05,1,765,0.855960845947266,cat,bear,0,0765_stg_s05_0_bear_00_bear1-bird2.png
subject-05,1,766,0.867377042770386,bottle,dog,0,0766_stg_s05_0_dog_00_dog5-oven1.png
subject-05,1,767,0.994979858398438,airplane,knife,0,0767_stg_s05_0_knife_00_knife4-clock3.png
subject-05,1,768,0.959259986877441,boat,bottle,0,0768_stg_s05_0_bottle_00_bottle2-chair3.png
subject-05,1,769,1.21376609802246,cat,cat,0,0769_stg_s05_0_cat_00_cat8-bear1.png
subject-05,1,770,1.14157295227051,dog,knife,0,0770_stg_s05_0_knife_00_knife1-oven1.png
subject-05,1,771,0.855429887771606,oven,oven,0,0771_stg_s05_0_oven_00_oven3-car2.png
subject-05,1,772,1.5002019405365,chair,car,0,0772_stg_s05_0_car_00_car10-dog1.png
subject-05,1,773,NaN,na,keyboard,0,0773_stg_s05_0_keyboard_00_keyboard5-bottle1.png
subject-05,1,774,0.899440050125122,keyboard,airplane,0,0774_stg_s05_0_airplane_00_airplane10-airplane1.png
subject-05,1,775,NaN,na,chair,0,0775_stg_s05_0_chair_00_chair9-bottle3.png
subject-05,1,776,0.932697057723999,oven,truck,0,0776_stg_s05_0_truck_00_truck6-oven3.png
subject-05,1,777,0.667839050292969,boat,bird,0,0777_stg_s05_0_bird_00_bird6-airplane2.png
subject-05,1,778,1.47947812080383,oven,elephant,0,0778_stg_s05_0_elephant_00_elephant8-bird2.png
subject-05,1,779,0.922946929931641,oven,bird,0,0779_stg_s05_0_bird_00_bird7-boat1.png
subject-05,1,780,0.874729871749878,knife,truck,0,0780_stg_s05_0_truck_00_truck5-knife3.png
subject-05,1,781,1.31882095336914,clock,dog,0,0781_stg_s05_0_dog_00_dog6-clock1.png
subject-05,1,782,0.894707918167114,bottle,clock,0,0782_stg_s05_0_clock_00_clock10-knife3.png
subject-05,1,783,0.96853494644165,chair,bicycle,0,0783_stg_s05_0_bicycle_00_bicycle1-dog3.png
subject-05,1,784,0.750003099441528,clock,dog,0,0784_stg_s05_0_dog_00_dog4-clock1.png
subject-05,1,785,1.46388506889343,chair,airplane,0,0785_stg_s05_0_airplane_00_airplane1-chair2.png
subject-05,1,786,0.907140016555786,boat,chair,0,0786_stg_s05_0_chair_00_chair10-clock1.png
subject-05,1,787,1.49540400505066,bottle,oven,0,0787_stg_s05_0_oven_00_oven10-bicycle1.png
subject-05,1,788,1.1627049446106,clock,car,0,0788_stg_s05_0_car_00_car7-clock1.png
subject-05,1,789,1.2530689239502,oven,bear,0,0789_stg_s05_0_bear_00_bear6-chair1.png
subject-05,1,790,1.02072715759277,airplane,clock,0,0790_stg_s05_0_clock_00_clock8-keyboard1.png
subject-05,1,791,0.942408084869385,chair,bird,0,0791_stg_s05_0_bird_00_bird4-dog3.png
subject-05,1,792,0.949624061584473,clock,chair,0,0792_stg_s05_0_chair_00_chair3-car3.png
subject-05,1,793,1.46098279953003,cat,bottle,0,0793_stg_s05_0_bottle_00_bottle5-boat1.png
subject-05,1,794,0.944799184799194,oven,keyboard,0,0794_stg_s05_0_keyboard_00_keyboard3-car2.png
subject-05,1,795,0.750778913497925,clock,car,0,0795_stg_s05_0_car_00_car9-knife1.png
subject-05,1,796,1.14832210540771,keyboard,airplane,0,0796_stg_s05_0_airplane_00_airplane4-bicycle2.png
subject-05,1,797,NaN,na,chair,0,0797_stg_s05_0_chair_00_chair6-dog1.png
subject-05,1,798,0.945530891418457,oven,clock,0,0798_stg_s05_0_clock_00_clock4-chair1.png
subject-05,1,799,0.891825914382935,oven,knife,0,0799_stg_s05_0_knife_00_knife6-knife1.png
subject-05,1,800,1.13309097290039,bottle,bird,0,0800_stg_s05_0_bird_00_bird3-bottle2.png
subject-05,1,801,0.729237079620361,cat,dog,0,0801_stg_s05_0_dog_00_dog10-oven2.png
subject-05,1,802,1.32488608360291,chair,boat,0,0802_stg_s05_0_boat_00_boat7-cat3.png
subject-05,1,803,1.17662501335144,oven,oven,0,0803_stg_s05_0_oven_00_oven4-bicycle2.png
subject-05,1,804,0.9286789894104,oven,truck,0,0804_stg_s05_0_truck_00_truck7-boat1.png
subject-05,1,805,1.34829115867615,bottle,truck,0,0805_stg_s05_0_truck_00_truck4-bottle2.png
subject-05,1,806,NaN,na,bicycle,0,0806_stg_s05_0_bicycle_00_bicycle10-clock2.png
subject-05,1,807,1.26908993721008,keyboard,elephant,0,0807_stg_s05_0_elephant_00_elephant4-clock3.png
subject-05,1,808,1.27537608146667,keyboard,cat,0,0808_stg_s05_0_cat_00_cat1-airplane1.png
subject-05,1,809,1.27247786521912,bottle,bottle,0,0809_stg_s05_0_bottle_00_bottle8-bird1.png
subject-05,1,810,0.856261014938354,oven,airplane,0,0810_stg_s05_0_airplane_00_airplane5-bottle3.png
subject-05,1,811,0.754740953445435,clock,bird,0,0811_stg_s05_0_bird_00_bird2-clock3.png
subject-05,1,812,0.836537837982178,clock,bird,0,0812_stg_s05_0_bird_00_bird8-clock1.png
subject-05,1,813,1.03385710716248,keyboard,chair,0,0813_stg_s05_0_chair_00_chair7-boat3.png
subject-05,1,814,0.877429008483887,keyboard,car,0,0814_stg_s05_0_car_00_car10-bicycle2.png
subject-05,1,815,0.983668088912964,elephant,bicycle,0,0815_stg_s05_0_bicycle_00_bicycle1-elephant2.png
subject-05,1,816,1.441575050354,bird,knife,0,0816_stg_s05_0_knife_00_knife5-dog1.png
subject-05,1,817,1.18717789649963,boat,truck,0,0817_stg_s05_0_truck_00_truck2-oven3.png
subject-05,1,818,1.29123401641846,chair,cat,0,0818_stg_s05_0_cat_00_cat1-cat3.png
subject-05,1,819,0.713401079177856,oven,bicycle,0,0819_stg_s05_0_bicycle_00_bicycle9-chair1.png
subject-05,1,820,1.41701197624207,chair,keyboard,0,0820_stg_s05_0_keyboard_00_keyboard9-chair2.png
subject-05,1,821,1.02531814575195,keyboard,chair,0,0821_stg_s05_0_chair_00_chair4-bear2.png
subject-05,1,822,1.05298495292664,truck,airplane,0,0822_stg_s05_0_airplane_00_airplane5-boat3.png
subject-05,1,823,0.837483167648315,elephant,elephant,0,0823_stg_s05_0_elephant_00_elephant5-elephant1.png
subject-05,1,824,1.44964694976807,cat,bird,0,0824_stg_s05_0_bird_00_bird1-oven1.png
subject-05,1,825,1.47743201255798,keyboard,dog,0,0825_stg_s05_0_dog_00_dog10-clock1.png
subject-05,1,826,0.829048156738281,boat,bottle,0,0826_stg_s05_0_bottle_00_bottle3-airplane2.png
subject-05,1,827,0.910739183425903,cat,truck,0,0827_stg_s05_0_truck_00_truck9-chair3.png
subject-05,1,828,1.31637811660767,car,bottle,0,0828_stg_s05_0_bottle_00_bottle5-bird3.png
subject-05,1,829,0.843729972839355,elephant,dog,0,0829_stg_s05_0_dog_00_dog6-elephant2.png
subject-05,1,830,1.4498598575592,bottle,bear,0,0830_stg_s05_0_bear_00_bear5-bottle1.png
subject-05,1,831,1.50003814697266,chair,chair,0,0831_stg_s05_0_chair_00_chair5-boat3.png
subject-05,1,832,0.960813999176025,elephant,chair,0,0832_stg_s05_0_chair_00_chair6-elephant2.png
subject-05,1,833,0.996281147003174,elephant,bear,0,0833_stg_s05_0_bear_00_bear2-elephant1.png
subject-05,1,834,0.887003898620605,elephant,keyboard,0,0834_stg_s05_0_keyboard_00_keyboard6-elephant1.png
subject-05,1,835,1.03055310249329,keyboard,bicycle,0,0835_stg_s05_0_bicycle_00_bicycle1-bicycle3.png
subject-05,1,836,0.812790870666504,clock,keyboard,0,0836_stg_s05_0_keyboard_00_keyboard4-keyboard2.png
subject-05,1,837,1.20175909996033,knife,keyboard,0,0837_stg_s05_0_keyboard_00_keyboard4-oven2.png
subject-05,1,838,0.921247959136963,keyboard,airplane,0,0838_stg_s05_0_airplane_00_airplane1-clock1.png
subject-05,1,839,1.27281904220581,oven,truck,0,0839_stg_s05_0_truck_00_truck10-car3.png
subject-05,1,840,0.924697875976562,boat,bicycle,0,0840_stg_s05_0_bicycle_00_bicycle10-airplane2.png
subject-05,1,841,0.67641806602478,oven,oven,0,0841_stg_s05_0_oven_00_oven3-airplane1.png
subject-05,1,842,0.687856912612915,oven,chair,0,0842_stg_s05_0_chair_00_chair7-bird1.png
subject-05,1,843,1.35693693161011,knife,airplane,0,0843_stg_s05_0_airplane_00_airplane10-knife3.png
subject-05,1,844,1.50005912780762,keyboard,oven,0,0844_stg_s05_0_oven_00_oven1-clock3.png
subject-05,1,845,0.944735050201416,elephant,oven,0,0845_stg_s05_0_oven_00_oven5-elephant1.png
subject-05,1,846,0.912347078323364,bottle,bottle,0,0846_stg_s05_0_bottle_00_bottle5-truck1.png
subject-05,1,847,1.4621319770813,bottle,bottle,0,0847_stg_s05_0_bottle_00_bottle3-boat3.png
subject-05,1,848,1.09818196296692,cat,oven,0,0848_stg_s05_0_oven_00_oven4-knife2.png
subject-05,1,849,1.28162717819214,bottle,truck,0,0849_stg_s05_0_truck_00_truck2-clock1.png
subject-05,1,850,NaN,na,boat,0,0850_stg_s05_0_boat_00_boat3-bicycle2.png
subject-05,1,851,0.736896991729736,clock,bicycle,0,0851_stg_s05_0_bicycle_00_bicycle2-knife2.png
subject-05,1,852,NaN,na,truck,0,0852_stg_s05_0_truck_00_truck4-knife1.png
subject-05,1,853,1.04487895965576,keyboard,chair,0,0853_stg_s05_0_chair_00_chair6-bird2.png
subject-05,1,854,0.747982025146484,keyboard,chair,0,0854_stg_s05_0_chair_00_chair5-bicycle1.png
subject-05,1,855,0.908271074295044,oven,boat,0,0855_stg_s05_0_boat_00_boat6-car1.png
subject-05,1,856,1.12803506851196,bottle,knife,0,0856_stg_s05_0_knife_00_knife6-bird1.png
subject-05,1,857,0.787659168243408,oven,knife,0,0857_stg_s05_0_knife_00_knife1-chair1.png
subject-05,1,858,1.36958909034729,oven,clock,0,0858_stg_s05_0_clock_00_clock3-bear3.png
subject-05,1,859,1.15135908126831,bottle,boat,0,0859_stg_s05_0_boat_00_boat5-airplane1.png
subject-05,1,860,NaN,na,bird,0,0860_stg_s05_0_bird_00_bird5-oven3.png
subject-05,1,861,1.23854994773865,chair,keyboard,0,0861_stg_s05_0_keyboard_00_keyboard7-knife1.png
subject-05,1,862,1.27499008178711,bottle,car,0,0862_stg_s05_0_car_00_car3-bird2.png
subject-05,1,863,1.14332604408264,oven,bird,0,0863_stg_s05_0_bird_00_bird6-boat2.png
subject-05,1,864,1.43780493736267,airplane,keyboard,0,0864_stg_s05_0_keyboard_00_keyboard10-airplane3.png
subject-05,1,865,0.743796825408936,elephant,chair,0,0865_stg_s05_0_chair_00_chair1-elephant1.png
subject-05,1,866,0.879169940948486,keyboard,car,0,0866_stg_s05_0_car_00_car8-bicycle2.png
subject-05,1,867,1.14539098739624,cat,clock,0,0867_stg_s05_0_clock_00_clock7-bicycle1.png
subject-05,1,868,NaN,na,bicycle,0,0868_stg_s05_0_bicycle_00_bicycle5-cat1.png
subject-05,1,869,0.856906890869141,oven,bottle,0,0869_stg_s05_0_bottle_00_bottle7-oven2.png
subject-05,1,870,1.05429077148438,chair,clock,0,0870_stg_s05_0_clock_00_clock10-cat1.png
subject-05,1,871,1.03579711914062,cat,car,0,0871_stg_s05_0_car_00_car6-knife1.png
subject-05,1,872,NaN,na,airplane,0,0872_stg_s05_0_airplane_00_airplane9-truck1.png
subject-05,1,873,0.721052169799805,oven,elephant,0,0873_stg_s05_0_elephant_00_elephant8-bicycle3.png
subject-05,1,874,0.856252908706665,keyboard,bicycle,0,0874_stg_s05_0_bicycle_00_bicycle1-clock3.png
subject-05,1,875,0.902143955230713,cat,bear,0,0875_stg_s05_0_bear_00_bear7-oven3.png
subject-05,1,876,1.26533102989197,chair,dog,0,0876_stg_s05_0_dog_00_dog8-dog3.png
subject-05,1,877,1.44155597686768,clock,dog,0,0877_stg_s05_0_dog_00_dog3-elephant2.png
subject-05,1,878,0.771414995193481,cat,truck,0,0878_stg_s05_0_truck_00_truck3-oven2.png
subject-05,1,879,0.753103017807007,keyboard,chair,0,0879_stg_s05_0_chair_00_chair10-bottle3.png
subject-05,1,880,1.05610394477844,elephant,airplane,0,0880_stg_s05_0_airplane_00_airplane1-elephant1.png
subject-05,1,881,1.18370890617371,bottle,truck,0,0881_stg_s05_0_truck_00_truck7-chair2.png
subject-05,1,882,1.10326504707336,chair,bird,0,0882_stg_s05_0_bird_00_bird4-cat3.png
subject-05,1,883,0.987206935882568,oven,chair,0,0883_stg_s05_0_chair_00_chair5-car1.png
subject-05,1,884,0.790647029876709,boat,bottle,0,0884_stg_s05_0_bottle_00_bottle6-boat3.png
subject-05,1,885,1.35632610321045,oven,oven,0,0885_stg_s05_0_oven_00_oven4-bottle2.png
subject-05,1,886,0.794144868850708,keyboard,keyboard,0,0886_stg_s05_0_keyboard_00_keyboard5-keyboard1.png
subject-05,1,887,1.08926606178284,oven,bottle,0,0887_stg_s05_0_bottle_00_bottle5-chair1.png
subject-05,1,888,NaN,na,cat,0,0888_stg_s05_0_cat_00_cat7-knife2.png
subject-05,1,889,0.839308023452759,cat,boat,0,0889_stg_s05_0_boat_00_boat10-cat1.png
subject-05,1,890,1.42813515663147,bottle,dog,0,0890_stg_s05_0_dog_00_dog8-bottle2.png
subject-05,1,891,0.972363948822021,bird,oven,0,0891_stg_s05_0_oven_00_oven6-airplane3.png
subject-05,1,892,1.43256306648254,cat,bottle,0,0892_stg_s05_0_bottle_00_bottle5-oven2.png
subject-05,1,893,1.17611908912659,keyboard,chair,0,0893_stg_s05_0_chair_00_chair9-chair3.png
subject-05,1,894,0.97357702255249,clock,knife,0,0894_stg_s05_0_knife_00_knife3-knife1.png
subject-05,1,895,0.900779962539673,elephant,airplane,0,0895_stg_s05_0_airplane_00_airplane6-keyboard3.png
subject-05,1,896,1.1422221660614,oven,truck,0,0896_stg_s05_0_truck_00_truck10-bicycle1.png
subject-05,1,897,1.06426692008972,cat,chair,0,0897_stg_s05_0_chair_00_chair9-bird3.png
subject-05,1,898,1.48396301269531,keyboard,keyboard,0,0898_stg_s05_0_keyboard_00_keyboard9-boat2.png
subject-05,1,899,1.2655827999115,clock,bear,0,0899_stg_s05_0_bear_00_bear4-boat2.png
subject-05,1,900,0.825632810592651,bottle,bird,0,0900_stg_s05_0_bird_00_bird1-clock3.png
subject-05,1,901,1.06981706619263,bottle,elephant,0,0901_stg_s05_0_elephant_00_elephant6-bottle2.png
subject-05,1,902,0.813482999801636,keyboard,cat,0,0902_stg_s05_0_cat_00_cat5-bicycle3.png
subject-05,1,903,0.98188591003418,chair,oven,0,0903_stg_s05_0_oven_00_oven10-bear1.png
subject-05,1,904,0.841262102127075,chair,boat,0,0904_stg_s05_0_boat_00_boat1-bird3.png
subject-05,1,905,0.945388793945312,chair,boat,0,0905_stg_s05_0_boat_00_boat3-dog3.png
subject-05,1,906,1.45139622688293,oven,boat,0,0906_stg_s05_0_boat_00_boat5-car3.png
subject-05,1,907,1.06510400772095,cat,bear,0,0907_stg_s05_0_bear_00_bear7-clock1.png
subject-05,1,908,1.00038909912109,oven,car,0,0908_stg_s05_0_car_00_car8-bear1.png
subject-05,1,909,NaN,na,bicycle,0,0909_stg_s05_0_bicycle_00_bicycle7-truck3.png
subject-05,1,910,0.755607128143311,bottle,dog,0,0910_stg_s05_0_dog_00_dog6-cat1.png
subject-05,1,911,1.27520203590393,bottle,airplane,0,0911_stg_s05_0_airplane_00_airplane4-cat3.png
subject-05,1,912,1.15682983398438,dog,car,0,0912_stg_s05_0_car_00_car10-bottle3.png
subject-05,1,913,NaN,na,truck,0,0913_stg_s05_0_truck_00_truck10-truck3.png
subject-05,1,914,1.33586096763611,bottle,truck,0,0914_stg_s05_0_truck_00_truck7-oven2.png
subject-05,1,915,0.903975963592529,clock,clock,0,0915_stg_s05_0_clock_00_clock8-bear2.png
subject-05,1,916,0.823912858963013,bottle,cat,0,0916_stg_s05_0_cat_00_cat5-knife2.png
subject-05,1,917,0.789411783218384,chair,chair,0,0917_stg_s05_0_chair_00_chair5-clock2.png
subject-05,1,918,1.28794598579407,airplane,knife,0,0918_stg_s05_0_knife_00_knife2-cat3.png
subject-05,1,919,1.31020998954773,bottle,elephant,0,0919_stg_s05_0_elephant_00_elephant2-bird1.png
subject-05,1,920,1.12375688552856,cat,car,0,0920_stg_s05_0_car_00_car6-bear1.png
subject-05,1,921,1.2358238697052,bottle,bottle,0,0921_stg_s05_0_bottle_00_bottle7-keyboard2.png
subject-05,1,922,1.07171106338501,bottle,cat,0,0922_stg_s05_0_cat_00_cat2-knife3.png
subject-05,1,923,0.854874134063721,clock,cat,0,0923_stg_s05_0_cat_00_cat10-clock1.png
subject-05,1,924,1.08313512802124,clock,airplane,0,0924_stg_s05_0_airplane_00_airplane9-clock1.png
subject-05,1,925,1.16540193557739,keyboard,bird,0,0925_stg_s05_0_bird_00_bird2-car3.png
subject-05,1,926,NaN,na,bottle,0,0926_stg_s05_0_bottle_00_bottle8-elephant3.png
subject-05,1,927,1.5004301071167,bottle,knife,0,0927_stg_s05_0_knife_00_knife6-dog2.png
subject-05,1,928,0.907655000686646,clock,bear,0,0928_stg_s05_0_bear_00_bear10-cat2.png
subject-05,1,929,1.15737199783325,keyboard,clock,0,0929_stg_s05_0_clock_00_clock4-knife1.png
subject-05,1,930,0.673494815826416,boat,airplane,0,0930_stg_s05_0_airplane_00_airplane7-keyboard1.png
subject-05,1,931,0.931396961212158,cat,keyboard,0,0931_stg_s05_0_keyboard_00_keyboard8-airplane2.png
subject-05,1,932,0.690973997116089,cat,cat,0,0932_stg_s05_0_cat_00_cat3-bear2.png
subject-05,1,933,1.50010704994202,bottle,knife,0,0933_stg_s05_0_knife_00_knife4-bear1.png
subject-05,1,934,0.89680814743042,chair,keyboard,0,0934_stg_s05_0_keyboard_00_keyboard1-bird2.png
subject-05,1,935,1.11697316169739,bird,car,0,0935_stg_s05_0_car_00_car7-airplane2.png
subject-05,1,936,1.00075888633728,chair,chair,0,0936_stg_s05_0_chair_00_chair10-bird3.png
subject-05,1,937,1.50034689903259,chair,knife,0,0937_stg_s05_0_knife_00_knife2-dog1.png
subject-05,1,938,0.88187313079834,chair,bicycle,0,0938_stg_s05_0_bicycle_00_bicycle9-cat3.png
subject-05,1,939,0.795685052871704,clock,truck,0,0939_stg_s05_0_truck_00_truck1-knife1.png
subject-05,1,940,1.01529788970947,clock,bear,0,0940_stg_s05_0_bear_00_bear2-cat2.png
subject-05,1,941,NaN,na,knife,0,0941_stg_s05_0_knife_00_knife5-knife3.png
subject-05,1,942,0.973109006881714,clock,car,0,0942_stg_s05_0_car_00_car9-cat1.png
subject-05,1,943,1.24687504768372,elephant,airplane,0,0943_stg_s05_0_airplane_00_airplane10-elephant1.png
subject-05,1,944,NaN,na,bird,0,0944_stg_s05_0_bird_00_bird1-boat1.png
subject-05,1,945,1.31868886947632,clock,bear,0,0945_stg_s05_0_bear_00_bear8-bicycle3.png
subject-05,1,946,0.839769124984741,bottle,oven,0,0946_stg_s05_0_oven_00_oven2-bottle1.png
subject-05,1,947,0.86775803565979,airplane,clock,0,0947_stg_s05_0_clock_00_clock4-car2.png
subject-05,1,948,1.16513895988464,clock,chair,0,0948_stg_s05_0_chair_00_chair1-cat3.png
subject-05,1,949,1.38194012641907,chair,keyboard,0,0949_stg_s05_0_keyboard_00_keyboard5-knife2.png
subject-05,1,950,1.04160499572754,chair,chair,0,0950_stg_s05_0_chair_00_chair5-keyboard2.png
subject-05,1,951,1.33120608329773,bottle,cat,0,0951_stg_s05_0_cat_00_cat9-dog2.png
subject-05,1,952,1.08871507644653,boat,knife,0,0952_stg_s05_0_knife_00_knife6-boat3.png
subject-05,1,953,1.46259689331055,keyboard,keyboard,0,0953_stg_s05_0_keyboard_00_keyboard7-oven2.png
subject-05,1,954,0.962255001068115,oven,keyboard,0,0954_stg_s05_0_keyboard_00_keyboard7-truck2.png
subject-05,1,955,NaN,na,clock,0,0955_stg_s05_0_clock_00_clock8-airplane2.png
subject-05,1,956,0.767128944396973,cat,cat,0,0956_stg_s05_0_cat_00_cat8-bird2.png
subject-05,1,957,1.31909394264221,car,bear,0,0957_stg_s05_0_bear_00_bear7-bear2.png
subject-05,1,958,1.21466898918152,airplane,truck,0,0958_stg_s05_0_truck_00_truck8-cat2.png
subject-05,1,959,1.37190890312195,cat,oven,0,0959_stg_s05_0_oven_00_oven6-bear2.png
subject-05,1,960,0.971714019775391,oven,chair,0,0960_stg_s05_0_chair_00_chair1-chair1.png
subject-05,1,961,1.07528591156006,clock,bird,0,0961_stg_s05_0_bird_00_bird1-bicycle2.png
subject-05,1,962,1.2358570098877,cat,oven,0,0962_stg_s05_0_oven_00_oven8-keyboard3.png
subject-05,1,963,0.910933017730713,bottle,knife,0,0963_stg_s05_0_knife_00_knife1-dog1.png
subject-05,1,964,NaN,na,dog,0,0964_stg_s05_0_dog_00_dog9-car1.png
subject-05,1,965,1.30350804328918,cat,bottle,0,0965_stg_s05_0_bottle_00_bottle6-oven3.png
subject-05,1,966,1.01504921913147,oven,bicycle,0,0966_stg_s05_0_bicycle_00_bicycle5-car3.png
subject-05,1,967,1.09117197990417,cat,car,0,0967_stg_s05_0_car_00_car5-cat1.png
subject-05,1,968,0.74083399772644,keyboard,keyboard,0,0968_stg_s05_0_keyboard_00_keyboard3-cat1.png
subject-05,1,969,1.23860001564026,clock,oven,0,0969_stg_s05_0_oven_00_oven1-cat1.png
subject-05,1,970,0.843986988067627,oven,elephant,0,0970_stg_s05_0_elephant_00_elephant5-truck1.png
subject-05,1,971,NaN,na,boat,0,0971_stg_s05_0_boat_00_boat1-oven1.png
subject-05,1,972,1.02024388313293,oven,bottle,0,0972_stg_s05_0_bottle_00_bottle9-oven2.png
subject-05,1,973,0.850352048873901,bottle,cat,0,0973_stg_s05_0_cat_00_cat10-bottle1.png
subject-05,1,974,0.762181043624878,clock,knife,0,0974_stg_s05_0_knife_00_knife9-chair1.png
subject-05,1,975,0.959974050521851,boat,elephant,0,0975_stg_s05_0_elephant_00_elephant5-car1.png
subject-05,1,976,1.18799901008606,chair,keyboard,0,0976_stg_s05_0_keyboard_00_keyboard6-dog2.png
subject-05,1,977,0.772056102752686,chair,cat,0,0977_stg_s05_0_cat_00_cat4-dog3.png
subject-05,1,978,0.961750030517578,oven,boat,0,0978_stg_s05_0_boat_00_boat8-truck2.png
subject-05,1,979,1.36587595939636,keyboard,keyboard,0,0979_stg_s05_0_keyboard_00_keyboard9-cat1.png
subject-05,1,980,1.01143598556519,cat,bird,0,0980_stg_s05_0_bird_00_bird1-keyboard3.png
subject-05,1,981,1.03090620040894,truck,truck,0,0981_stg_s05_0_truck_00_truck2-boat3.png
subject-05,1,982,0.780279159545898,cat,dog,0,0982_stg_s05_0_dog_00_dog4-cat3.png
subject-05,1,983,NaN,na,elephant,0,0983_stg_s05_0_elephant_00_elephant6-cat2.png
subject-05,1,984,1.50004005432129,oven,bottle,0,0984_stg_s05_0_bottle_00_bottle6-airplane1.png
subject-05,1,985,NaN,na,knife,0,0985_stg_s05_0_knife_00_knife10-chair1.png
subject-05,1,986,0.607883930206299,elephant,keyboard,0,0986_stg_s05_0_keyboard_00_keyboard3-elephant2.png
subject-05,1,987,1.04139995574951,clock,clock,0,0987_stg_s05_0_clock_00_clock6-truck3.png
subject-05,1,988,1.06898188591003,bottle,bottle,0,0988_stg_s05_0_bottle_00_bottle10-bear2.png
subject-05,1,989,0.729059934616089,boat,bottle,0,0989_stg_s05_0_bottle_00_bottle9-cat2.png
subject-05,1,990,0.679412841796875,chair,bicycle,0,0990_stg_s05_0_bicycle_00_bicycle5-keyboard3.png
subject-05,1,991,1.22021412849426,car,truck,0,0991_stg_s05_0_truck_00_truck1-bicycle3.png
subject-05,1,992,1.18641591072083,bottle,oven,0,0992_stg_s05_0_oven_00_oven7-oven1.png
subject-05,1,993,1.31467890739441,airplane,truck,0,0993_stg_s05_0_truck_00_truck5-cat3.png
subject-05,1,994,1.06113505363464,cat,elephant,0,0994_stg_s05_0_elephant_00_elephant2-keyboard3.png
subject-05,1,995,0.921138048171997,bottle,clock,0,0995_stg_s05_0_clock_00_clock6-bottle1.png
subject-05,1,996,1.0193018913269,keyboard,dog,0,0996_stg_s05_0_dog_00_dog2-bicycle2.png
subject-05,1,997,0.893419027328491,chair,airplane,0,0997_stg_s05_0_airplane_00_airplane2-dog1.png
subject-05,1,998,1.03704190254211,oven,knife,0,0998_stg_s05_0_knife_00_knife6-truck1.png
subject-05,1,999,1.05635404586792,oven,bear,0,0999_stg_s05_0_bear_00_bear7-truck1.png
subject-05,1,1000,1.08629608154297,boat,keyboard,0,1000_stg_s05_0_keyboard_00_keyboard4-truck3.png
subject-05,1,1001,1.00151109695435,clock,keyboard,0,1001_stg_s05_0_keyboard_00_keyboard6-bicycle1.png
subject-05,1,1002,1.01266312599182,keyboard,cat,0,1002_stg_s05_0_cat_00_cat10-oven2.png
subject-05,1,1003,0.848189830780029,boat,boat,0,1003_stg_s05_0_boat_00_boat8-knife1.png
subject-05,1,1004,0.824062824249268,boat,oven,0,1004_stg_s05_0_oven_00_oven5-keyboard2.png
subject-05,1,1005,0.960698843002319,boat,bicycle,0,1005_stg_s05_0_bicycle_00_bicycle6-airplane2.png
subject-05,1,1006,NaN,na,oven,0,1006_stg_s05_0_oven_00_oven3-boat3.png
subject-05,1,1007,NaN,na,bear,0,1007_stg_s05_0_bear_00_bear7-bicycle2.png
subject-05,1,1008,1.00477600097656,keyboard,oven,0,1008_stg_s05_0_oven_00_oven3-knife1.png
subject-05,1,1009,1.37054681777954,chair,bottle,0,1009_stg_s05_0_bottle_00_bottle1-chair2.png
subject-05,1,1010,0.976131916046143,bottle,bottle,0,1010_stg_s05_0_bottle_00_bottle4-car3.png
subject-05,1,1011,1.11176490783691,elephant,oven,0,1011_stg_s05_0_oven_00_oven7-elephant1.png
subject-05,1,1012,1.08576107025146,bottle,bicycle,0,1012_stg_s05_0_bicycle_00_bicycle4-oven3.png
subject-05,1,1013,1.40470790863037,chair,chair,0,1013_stg_s05_0_chair_00_chair7-cat1.png
subject-05,1,1014,1.25700688362122,chair,chair,0,1014_stg_s05_0_chair_00_chair9-bicycle3.png
subject-05,1,1015,NaN,na,bird,0,1015_stg_s05_0_bird_00_bird3-boat3.png
subject-05,1,1016,1.07510995864868,airplane,clock,0,1016_stg_s05_0_clock_00_clock1-dog2.png
subject-05,1,1017,0.910892009735107,airplane,boat,0,1017_stg_s05_0_boat_00_boat4-bicycle3.png
subject-05,1,1018,1.24637603759766,cat,cat,0,1018_stg_s05_0_cat_00_cat4-car2.png
subject-05,1,1019,1.50004482269287,boat,bicycle,0,1019_stg_s05_0_bicycle_00_bicycle7-clock3.png
subject-05,1,1020,1.19586586952209,chair,oven,0,1020_stg_s05_0_oven_00_oven4-keyboard3.png
subject-05,1,1021,0.986173868179321,chair,bicycle,0,1021_stg_s05_0_bicycle_00_bicycle4-keyboard3.png
subject-05,1,1022,1.35184192657471,car,car,0,1022_stg_s05_0_car_00_car4-oven2.png
subject-05,1,1023,1.26329708099365,clock,clock,0,1023_stg_s05_0_clock_00_clock7-car1.png
subject-05,1,1024,0.800629854202271,oven,knife,0,1024_stg_s05_0_knife_00_knife2-truck2.png
subject-05,1,1025,1.27311611175537,truck,airplane,0,1025_stg_s05_0_airplane_00_airplane5-chair3.png
subject-05,1,1026,1.4092059135437,cat,clock,0,1026_stg_s05_0_clock_00_clock7-dog2.png
subject-05,1,1027,0.900201797485352,keyboard,keyboard,0,1027_stg_s05_0_keyboard_00_keyboard6-knife2.png
subject-05,1,1028,1.18170499801636,oven,truck,0,1028_stg_s05_0_truck_00_truck7-truck2.png
subject-05,1,1029,1.43922996520996,cat,bird,0,1029_stg_s05_0_bird_00_bird7-cat3.png
subject-05,1,1030,0.978117942810059,boat,truck,0,1030_stg_s05_0_truck_00_truck2-airplane3.png
subject-05,1,1031,1.28434109687805,cat,clock,0,1031_stg_s05_0_clock_00_clock8-cat1.png
subject-05,1,1032,0.98428201675415,elephant,cat,0,1032_stg_s05_0_cat_00_cat5-elephant2.png
subject-05,1,1033,1.00660610198975,bottle,elephant,0,1033_stg_s05_0_elephant_00_elephant3-oven1.png
subject-05,1,1034,0.836733102798462,clock,boat,0,1034_stg_s05_0_boat_00_boat9-clock1.png
subject-05,1,1035,1.0268030166626,bottle,bottle,0,1035_stg_s05_0_bottle_00_bottle8-keyboard3.png
subject-05,1,1036,0.694993019104004,clock,bird,0,1036_stg_s05_0_bird_00_bird10-clock1.png
subject-05,1,1037,0.962550163269043,oven,car,0,1037_stg_s05_0_car_00_car3-truck1.png
subject-05,1,1038,0.877171993255615,keyboard,keyboard,0,1038_stg_s05_0_keyboard_00_keyboard9-bear2.png
subject-05,1,1039,1.06867289543152,bottle,bicycle,0,1039_stg_s05_0_bicycle_00_bicycle2-bird3.png
subject-05,1,1040,1.20515394210815,cat,truck,0,1040_stg_s05_0_truck_00_truck4-bear1.png
subject-05,1,1041,0.926492929458618,clock,clock,0,1041_stg_s05_0_clock_00_clock10-airplane1.png
subject-05,1,1042,1.46207690238953,elephant,dog,0,1042_stg_s05_0_dog_00_dog4-elephant2.png
subject-05,1,1043,1.50017285346985,bottle,car,0,1043_stg_s05_0_car_00_car5-bottle1.png
subject-05,1,1044,1.07390213012695,cat,dog,0,1044_stg_s05_0_dog_00_dog4-truck2.png
subject-05,1,1045,0.757808923721313,oven,truck,0,1045_stg_s05_0_truck_00_truck2-car3.png
subject-05,1,1046,0.733422994613647,boat,truck,0,1046_stg_s05_0_truck_00_truck5-airplane2.png
subject-05,1,1047,1.00758194923401,elephant,car,0,1047_stg_s05_0_car_00_car3-elephant3.png
subject-05,1,1048,1.02896618843079,keyboard,truck,0,1048_stg_s05_0_truck_00_truck5-bird2.png
subject-05,1,1049,1.39498805999756,cat,car,0,1049_stg_s05_0_car_00_car7-bear1.png
subject-05,1,1050,0.732944965362549,clock,bear,0,1050_stg_s05_0_bear_00_bear9-keyboard3.png
subject-05,1,1051,1.07684397697449,cat,oven,0,1051_stg_s05_0_oven_00_oven7-dog2.png
subject-05,1,1052,0.7984619140625,oven,car,0,1052_stg_s05_0_car_00_car2-knife3.png
subject-05,1,1053,1.07459807395935,bottle,oven,0,1053_stg_s05_0_oven_00_oven7-bottle1.png
subject-05,1,1054,1.17287683486938,knife,bear,0,1054_stg_s05_0_bear_00_bear5-oven3.png
subject-05,1,1055,1.46460103988647,boat,elephant,0,1055_stg_s05_0_elephant_00_elephant7-airplane3.png
subject-05,1,1056,1.2632429599762,truck,truck,0,1056_stg_s05_0_truck_00_truck1-clock3.png
subject-05,1,1057,1.15602707862854,dog,dog,0,1057_stg_s05_0_dog_00_dog9-boat1.png
subject-05,1,1058,NaN,na,clock,0,1058_stg_s05_0_clock_00_clock4-bird3.png
subject-05,1,1059,1.2970449924469,oven,airplane,0,1059_stg_s05_0_airplane_00_airplane4-car1.png
subject-05,1,1060,NaN,na,clock,0,1060_stg_s05_0_clock_00_clock5-clock2.png
subject-05,1,1061,1.19557905197144,keyboard,cat,0,1061_stg_s05_0_cat_00_cat8-bicycle3.png
subject-05,1,1062,1.47699594497681,airplane,car,0,1062_stg_s05_0_car_00_car6-boat1.png
subject-05,1,1063,NaN,na,truck,0,1063_stg_s05_0_truck_00_truck9-bottle2.png
subject-05,1,1064,0.748188018798828,oven,boat,0,1064_stg_s05_0_boat_00_boat10-truck1.png
subject-05,1,1065,0.899345874786377,cat,car,0,1065_stg_s05_0_car_00_car7-boat3.png
subject-05,1,1066,0.896749973297119,boat,boat,0,1066_stg_s05_0_boat_00_boat6-knife2.png
subject-05,1,1067,1.12732815742493,elephant,boat,0,1067_stg_s05_0_boat_00_boat7-bottle1.png
subject-05,1,1068,1.50027799606323,truck,bear,0,1068_stg_s05_0_bear_00_bear3-bird3.png
subject-05,1,1069,0.954300880432129,bottle,bottle,0,1069_stg_s05_0_bottle_00_bottle2-bottle3.png
subject-05,1,1070,0.868576049804688,keyboard,bicycle,0,1070_stg_s05_0_bicycle_00_bicycle7-bicycle2.png
subject-05,1,1071,0.996783018112183,keyboard,knife,0,1071_stg_s05_0_knife_00_knife7-chair2.png
subject-05,1,1072,0.932401895523071,cat,knife,0,1072_stg_s05_0_knife_00_knife4-car2.png
subject-05,1,1073,NaN,na,clock,0,1073_stg_s05_0_clock_00_clock2-dog1.png
subject-05,1,1074,0.764157056808472,keyboard,keyboard,0,1074_stg_s05_0_keyboard_00_keyboard9-truck3.png
subject-05,1,1075,1.30017590522766,clock,bottle,0,1075_stg_s05_0_bottle_00_bottle7-cat2.png
subject-05,1,1076,1.02955198287964,bottle,chair,0,1076_stg_s05_0_chair_00_chair3-bottle3.png
subject-05,1,1077,1.2410740852356,bottle,knife,0,1077_stg_s05_0_knife_00_knife2-bird1.png
subject-05,1,1078,1.35485196113586,keyboard,bird,0,1078_stg_s05_0_bird_00_bird9-bicycle3.png
subject-05,1,1079,1.06016993522644,keyboard,keyboard,0,1079_stg_s05_0_keyboard_00_keyboard10-boat2.png
subject-05,1,1080,1.11178803443909,oven,bottle,0,1080_stg_s05_0_bottle_00_bottle9-bicycle1.png
subject-05,1,1081,1.05753302574158,keyboard,clock,0,1081_stg_s05_0_clock_00_clock2-bear2.png
subject-05,1,1082,0.939461946487427,clock,chair,0,1082_stg_s05_0_chair_00_chair2-boat1.png
subject-05,1,1083,1.29115009307861,bottle,car,0,1083_stg_s05_0_car_00_car8-cat1.png
subject-05,1,1084,1.05861902236938,oven,bottle,0,1084_stg_s05_0_bottle_00_bottle9-keyboard1.png
subject-05,1,1085,1.17240285873413,bottle,cat,0,1085_stg_s05_0_cat_00_cat1-bird1.png
subject-05,1,1086,1.47777414321899,bottle,boat,0,1086_stg_s05_0_boat_00_boat4-bird1.png
subject-05,1,1087,1.50045800209045,bird,clock,0,1087_stg_s05_0_clock_00_clock10-dog3.png
subject-05,1,1088,1.22745394706726,bicycle,knife,0,1088_stg_s05_0_knife_00_knife10-oven3.png
subject-05,1,1089,1.07342982292175,clock,knife,0,1089_stg_s05_0_knife_00_knife5-bicycle2.png
subject-05,1,1090,1.14752602577209,boat,knife,0,1090_stg_s05_0_knife_00_knife7-bottle3.png
subject-05,1,1091,0.925884962081909,bird,dog,0,1091_stg_s05_0_dog_00_dog2-dog3.png
subject-05,1,1092,0.902077913284302,bottle,bicycle,0,1092_stg_s05_0_bicycle_00_bicycle1-bird1.png
subject-05,1,1093,1.30543208122253,airplane,bird,0,1093_stg_s05_0_bird_00_bird7-bird2.png
subject-05,1,1094,1.07316899299622,bottle,knife,0,1094_stg_s05_0_knife_00_knife3-cat1.png
subject-05,1,1095,1.10268878936768,car,elephant,0,1095_stg_s05_0_elephant_00_elephant1-boat2.png
subject-05,1,1096,NaN,na,car,0,1096_stg_s05_0_car_00_car7-keyboard3.png
subject-05,1,1097,1.35239410400391,elephant,bicycle,0,1097_stg_s05_0_bicycle_00_bicycle3-elephant2.png
subject-05,1,1098,1.17428803443909,oven,knife,0,1098_stg_s05_0_knife_00_knife1-truck2.png
subject-05,1,1099,1.2401270866394,bottle,knife,0,1099_stg_s05_0_knife_00_knife5-keyboard3.png
subject-05,1,1100,1.28591799736023,knife,bird,0,1100_stg_s05_0_bird_00_bird8-keyboard2.png
subject-05,1,1101,0.875658988952637,keyboard,knife,0,1101_stg_s05_0_knife_00_knife8-bicycle1.png
subject-05,1,1102,0.805782079696655,cat,cat,0,1102_stg_s05_0_cat_00_cat9-cat3.png
subject-05,1,1103,0.856780052185059,keyboard,keyboard,0,1103_stg_s05_0_keyboard_00_keyboard1-bear2.png
subject-05,1,1104,1.50040912628174,boat,knife,0,1104_stg_s05_0_knife_00_knife2-bottle2.png
subject-05,1,1105,1.02268600463867,bird,truck,0,1105_stg_s05_0_truck_00_truck8-dog3.png
subject-05,1,1106,0.836136102676392,chair,cat,0,1106_stg_s05_0_cat_00_cat10-bear1.png
subject-05,1,1107,1.5001208782196,cat,bear,0,1107_stg_s05_0_bear_00_bear7-dog3.png
subject-05,1,1108,0.964209079742432,keyboard,dog,0,1108_stg_s05_0_dog_00_dog10-airplane1.png
subject-05,1,1109,1.0841281414032,keyboard,bicycle,0,1109_stg_s05_0_bicycle_00_bicycle8-bear2.png
