subj,session,trial,rt,object_response,category,condition,imagename
subject-08,1,1,1.04023313522339,clock,chair,0,0001_stg_s08_0_chair_00_chair5-cat3.png
subject-08,1,2,1.00028491020203,elephant,bottle,0,0002_stg_s08_0_bottle_00_bottle6-oven3.png
subject-08,1,3,1.04357409477234,elephant,bicycle,0,0003_stg_s08_0_bicycle_00_bicycle1-knife3.png
subject-08,1,4,1.12593698501587,keyboard,bird,0,0004_stg_s08_0_bird_00_bird2-bird2.png
subject-08,1,5,1.44537210464478,bottle,bicycle,0,0005_stg_s08_0_bicycle_00_bicycle7-truck3.png
subject-08,1,6,1.50030708312988,car,car,0,0006_stg_s08_0_car_00_car10-bicycle2.png
subject-08,1,7,0.980072975158691,truck,bird,0,0007_stg_s08_0_bird_00_bird6-truck2.png
subject-08,1,8,1.18598008155823,elephant,car,0,0008_stg_s08_0_car_00_car9-bird1.png
subject-08,1,9,1.00537800788879,knife,knife,0,0009_stg_s08_0_knife_00_knife7-chair2.png
subject-08,1,10,1.18151688575745,knife,boat,0,0010_stg_s08_0_boat_00_boat6-bear1.png
subject-08,1,11,1.22583103179932,airplane,boat,0,0011_stg_s08_0_boat_00_boat2-bear3.png
subject-08,1,12,1.13973999023438,car,knife,0,0012_stg_s08_0_knife_00_knife1-car3.png
subject-08,1,13,0.975196838378906,cat,airplane,0,0013_stg_s08_0_airplane_00_airplane3-dog1.png
subject-08,1,14,0.957568168640137,dog,car,0,0014_stg_s08_0_car_00_car5-bear3.png
subject-08,1,15,0.917201042175293,bottle,knife,0,0015_stg_s08_0_knife_00_knife2-bottle2.png
subject-08,1,16,1.32093596458435,truck,keyboard,0,0016_stg_s08_0_keyboard_00_keyboard4-keyboard2.png
subject-08,1,17,0.856381893157959,oven,clock,0,0017_stg_s08_0_clock_00_clock8-oven3.png
subject-08,1,18,0.8593590259552,keyboard,chair,0,0018_stg_s08_0_chair_00_chair8-bicycle3.png
subject-08,1,19,0.756568908691406,keyboard,keyboard,0,0019_stg_s08_0_keyboard_00_keyboard1-clock1.png
subject-08,1,20,0.976365089416504,knife,boat,0,0020_stg_s08_0_boat_00_boat1-bicycle2.png
subject-08,1,21,1.07451605796814,bicycle,dog,0,0021_stg_s08_0_dog_00_dog4-airplane3.png
subject-08,1,22,0.959244966506958,car,chair,0,0022_stg_s08_0_chair_00_chair5-car1.png
subject-08,1,23,0.794271945953369,boat,cat,0,0023_stg_s08_0_cat_00_cat8-bicycle3.png
subject-08,1,24,1.22022390365601,chair,clock,0,0024_stg_s08_0_clock_00_clock5-oven1.png
subject-08,1,25,1.20171999931335,keyboard,airplane,0,0025_stg_s08_0_airplane_00_airplane3-car1.png
subject-08,1,26,0.878012895584106,bear,clock,0,0026_stg_s08_0_clock_00_clock9-bird2.png
subject-08,1,27,0.859776973724365,bear,car,0,0027_stg_s08_0_car_00_car7-keyboard3.png
subject-08,1,28,1.01165580749512,car,truck,0,0028_stg_s08_0_truck_00_truck7-chair2.png
subject-08,1,29,1.03932213783264,bird,clock,0,0029_stg_s08_0_clock_00_clock8-truck2.png
subject-08,1,30,0.837805986404419,bird,bird,0,0030_stg_s08_0_bird_00_bird8-knife2.png
subject-08,1,31,1.32706809043884,airplane,car,0,0031_stg_s08_0_car_00_car9-cat1.png
subject-08,1,32,1.0547821521759,knife,airplane,0,0032_stg_s08_0_airplane_00_airplane7-keyboard1.png
subject-08,1,33,1.32803797721863,bear,dog,0,0033_stg_s08_0_dog_00_dog1-bear1.png
subject-08,1,34,0.956312894821167,elephant,airplane,0,0034_stg_s08_0_airplane_00_airplane1-elephant1.png
subject-08,1,35,1.16216897964478,oven,keyboard,0,0035_stg_s08_0_keyboard_00_keyboard10-boat2.png
subject-08,1,36,1.09049582481384,clock,truck,0,0036_stg_s08_0_truck_00_truck5-car1.png
subject-08,1,37,1.5004141330719,dog,truck,0,0037_stg_s08_0_truck_00_truck5-cat3.png
subject-08,1,38,1.49574613571167,bird,dog,0,0038_stg_s08_0_dog_00_dog4-cat3.png
subject-08,1,39,0.932996988296509,knife,knife,0,0039_stg_s08_0_knife_00_knife8-bicycle1.png
subject-08,1,40,0.96141505241394,clock,car,0,0040_stg_s08_0_car_00_car6-knife1.png
subject-08,1,41,1.16500306129456,chair,truck,0,0041_stg_s08_0_truck_00_truck3-knife2.png
subject-08,1,42,1.02383208274841,bottle,bird,0,0042_stg_s08_0_bird_00_bird1-clock3.png
subject-08,1,43,1.13092303276062,elephant,bottle,0,0043_stg_s08_0_bottle_00_bottle7-elephant2.png
subject-08,1,44,1.46380996704102,elephant,elephant,0,0044_stg_s08_0_elephant_00_elephant10-elephant1.png
subject-08,1,45,1.12400484085083,boat,keyboard,0,0045_stg_s08_0_keyboard_00_keyboard6-chair1.png
subject-08,1,46,0.868212938308716,keyboard,bear,0,0046_stg_s08_0_bear_00_bear3-car2.png
subject-08,1,47,0.852653980255127,boat,oven,0,0047_stg_s08_0_oven_00_oven8-keyboard3.png
subject-08,1,48,1.37897181510925,oven,knife,0,0048_stg_s08_0_knife_00_knife4-airplane3.png
subject-08,1,49,0.908608198165894,keyboard,bird,0,0049_stg_s08_0_bird_00_bird5-dog2.png
subject-08,1,50,0.97688102722168,truck,bird,0,0050_stg_s08_0_bird_00_bird2-car3.png
subject-08,1,51,0.854046106338501,bird,knife,0,0051_stg_s08_0_knife_00_knife7-airplane3.png
subject-08,1,52,0.989686012268066,airplane,clock,0,0052_stg_s08_0_clock_00_clock7-keyboard2.png
subject-08,1,53,1.20947194099426,bicycle,clock,0,0053_stg_s08_0_clock_00_clock10-knife3.png
subject-08,1,54,1.02200078964233,airplane,bear,0,0054_stg_s08_0_bear_00_bear4-clock3.png
subject-08,1,55,0.736195087432861,clock,oven,0,0055_stg_s08_0_oven_00_oven5-bicycle1.png
subject-08,1,56,0.634020090103149,boat,airplane,0,0056_stg_s08_0_airplane_00_airplane4-car1.png
subject-08,1,57,0.901664972305298,bird,clock,0,0057_stg_s08_0_clock_00_clock7-car1.png
subject-08,1,58,0.867204189300537,chair,chair,0,0058_stg_s08_0_chair_00_chair7-chair1.png
subject-08,1,59,0.826880931854248,bottle,elephant,0,0059_stg_s08_0_elephant_00_elephant7-clock2.png
subject-08,1,60,0.925241947174072,dog,knife,0,0060_stg_s08_0_knife_00_knife6-knife1.png
subject-08,1,61,1.33662390708923,bicycle,truck,0,0061_stg_s08_0_truck_00_truck5-truck1.png
subject-08,1,62,1.26372408866882,cat,bottle,0,0062_stg_s08_0_bottle_00_bottle1-dog2.png
subject-08,1,63,0.992644071578979,bird,bicycle,0,0063_stg_s08_0_bicycle_00_bicycle1-chair1.png
subject-08,1,64,0.881679058074951,car,truck,0,0064_stg_s08_0_truck_00_truck4-bear1.png
subject-08,1,65,0.490777969360352,oven,car,0,0065_stg_s08_0_car_00_car7-boat3.png
subject-08,1,66,0.772823095321655,oven,cat,0,0066_stg_s08_0_cat_00_cat4-truck3.png
subject-08,1,67,0.938910961151123,chair,car,0,0067_stg_s08_0_car_00_car5-knife2.png
subject-08,1,68,0.928233861923218,keyboard,chair,0,0068_stg_s08_0_chair_00_chair4-keyboard2.png
subject-08,1,69,0.925624132156372,bicycle,cat,0,0069_stg_s08_0_cat_00_cat4-car2.png
subject-08,1,70,1.03690981864929,elephant,knife,0,0070_stg_s08_0_knife_00_knife8-boat1.png
subject-08,1,71,1.22713804244995,bottle,bear,0,0071_stg_s08_0_bear_00_bear9-bottle2.png
subject-08,1,72,1.49218606948853,bicycle,bear,0,0072_stg_s08_0_bear_00_bear5-oven3.png
subject-08,1,73,0.897497177124023,knife,bottle,0,0073_stg_s08_0_bottle_00_bottle1-keyboard3.png
subject-08,1,74,NaN,na,boat,0,0074_stg_s08_0_boat_00_boat5-car3.png
subject-08,1,75,1.17715215682983,car,clock,0,0075_stg_s08_0_clock_00_clock4-airplane1.png
subject-08,1,76,1.38909387588501,truck,cat,0,0076_stg_s08_0_cat_00_cat4-knife1.png
subject-08,1,77,1.04850506782532,oven,bottle,0,0077_stg_s08_0_bottle_00_bottle3-chair3.png
subject-08,1,78,0.770090103149414,chair,bear,0,0078_stg_s08_0_bear_00_bear8-knife3.png
subject-08,1,79,0.919596195220947,elephant,bicycle,0,0079_stg_s08_0_bicycle_00_bicycle1-elephant2.png
subject-08,1,80,0.879516124725342,keyboard,clock,0,0080_stg_s08_0_clock_00_clock1-clock2.png
subject-08,1,81,0.945192813873291,bottle,cat,0,0081_stg_s08_0_cat_00_cat5-bottle1.png
subject-08,1,82,0.966992855072021,airplane,keyboard,0,0082_stg_s08_0_keyboard_00_keyboard2-elephant1.png
subject-08,1,83,0.694669961929321,bicycle,car,0,0083_stg_s08_0_car_00_car2-chair1.png
subject-08,1,84,1.12251591682434,bird,chair,0,0084_stg_s08_0_chair_00_chair3-airplane2.png
subject-08,1,85,0.912593126296997,bird,knife,0,0085_stg_s08_0_knife_00_knife5-cat2.png
subject-08,1,86,0.764049053192139,car,airplane,0,0086_stg_s08_0_airplane_00_airplane9-keyboard2.png
subject-08,1,87,0.831498861312866,boat,dog,0,0087_stg_s08_0_dog_00_dog4-clock1.png
subject-08,1,88,0.75974702835083,truck,cat,0,0088_stg_s08_0_cat_00_cat1-airplane1.png
subject-08,1,89,1.10396194458008,bottle,car,0,0089_stg_s08_0_car_00_car8-knife2.png
subject-08,1,90,0.902328014373779,chair,bird,0,0090_stg_s08_0_bird_00_bird10-bicycle1.png
subject-08,1,91,1.20789408683777,chair,keyboard,0,0091_stg_s08_0_keyboard_00_keyboard6-bear2.png
subject-08,1,92,0.9654541015625,airplane,bear,0,0092_stg_s08_0_bear_00_bear5-boat2.png
subject-08,1,93,0.888267993927002,knife,chair,0,0093_stg_s08_0_chair_00_chair7-car2.png
subject-08,1,94,1.42955994606018,car,bicycle,0,0094_stg_s08_0_bicycle_00_bicycle1-clock3.png
subject-08,1,95,0.675363063812256,elephant,airplane,0,0095_stg_s08_0_airplane_00_airplane4-elephant1.png
subject-08,1,96,0.910789966583252,elephant,airplane,0,0096_stg_s08_0_airplane_00_airplane4-bear3.png
subject-08,1,97,1.007080078125,truck,car,0,0097_stg_s08_0_car_00_car3-truck1.png
subject-08,1,98,0.853404998779297,bird,bird,0,0098_stg_s08_0_bird_00_bird5-chair1.png
subject-08,1,99,1.50003290176392,elephant,keyboard,0,0099_stg_s08_0_keyboard_00_keyboard9-elephant2.png
subject-08,1,100,0.754637002944946,bottle,dog,0,0100_stg_s08_0_dog_00_dog7-knife3.png
subject-08,1,101,0.860628843307495,airplane,clock,0,0101_stg_s08_0_clock_00_clock10-oven2.png
subject-08,1,102,0.858691930770874,elephant,knife,0,0102_stg_s08_0_knife_00_knife9-elephant2.png
subject-08,1,103,1.01635003089905,oven,bottle,0,0103_stg_s08_0_bottle_00_bottle7-airplane3.png
subject-08,1,104,0.973994970321655,elephant,elephant,0,0104_stg_s08_0_elephant_00_elephant7-bear3.png
subject-08,1,105,0.904111862182617,car,boat,0,0105_stg_s08_0_boat_00_boat6-clock2.png
subject-08,1,106,0.823843955993652,bird,bicycle,0,0106_stg_s08_0_bicycle_00_bicycle5-chair2.png
subject-08,1,107,1.25919413566589,knife,elephant,0,0107_stg_s08_0_elephant_00_elephant3-oven1.png
subject-08,1,108,0.949532985687256,bicycle,elephant,0,0108_stg_s08_0_elephant_00_elephant8-knife2.png
subject-08,1,109,0.917461156845093,knife,dog,0,0109_stg_s08_0_dog_00_dog7-bird3.png
subject-08,1,110,1.01249217987061,airplane,bicycle,0,0110_stg_s08_0_bicycle_00_bicycle5-bear1.png
subject-08,1,111,1.06972312927246,clock,oven,0,0111_stg_s08_0_oven_00_oven10-cat2.png
subject-08,1,112,0.791234970092773,boat,clock,0,0112_stg_s08_0_clock_00_clock6-car2.png
subject-08,1,113,0.640799999237061,chair,boat,0,0113_stg_s08_0_boat_00_boat1-car2.png
subject-08,1,114,1.0079939365387,elephant,car,0,0114_stg_s08_0_car_00_car3-dog2.png
subject-08,1,115,1.15055704116821,knife,keyboard,0,0115_stg_s08_0_keyboard_00_keyboard10-keyboard1.png
subject-08,1,116,0.888395071029663,truck,elephant,0,0116_stg_s08_0_elephant_00_elephant9-dog3.png
subject-08,1,117,1.23301696777344,cat,elephant,0,0117_stg_s08_0_elephant_00_elephant2-clock1.png
subject-08,1,118,0.75232982635498,bird,airplane,0,0118_stg_s08_0_airplane_00_airplane5-chair3.png
subject-08,1,119,1.04975891113281,car,dog,0,0119_stg_s08_0_dog_00_dog2-dog3.png
subject-08,1,120,0.831859111785889,bicycle,knife,0,0120_stg_s08_0_knife_00_knife7-bird3.png
subject-08,1,121,1.01297807693481,elephant,bear,0,0121_stg_s08_0_bear_00_bear10-elephant1.png
subject-08,1,122,0.9654221534729,airplane,oven,0,0122_stg_s08_0_oven_00_oven10-oven3.png
subject-08,1,123,1.33974385261536,airplane,cat,0,0123_stg_s08_0_cat_00_cat3-bear2.png
subject-08,1,124,1.10769200325012,keyboard,keyboard,0,0124_stg_s08_0_keyboard_00_keyboard7-chair3.png
subject-08,1,125,0.75153112411499,airplane,clock,0,0125_stg_s08_0_clock_00_clock3-car2.png
subject-08,1,126,1.2249870300293,car,truck,0,0126_stg_s08_0_truck_00_truck2-bird2.png
subject-08,1,127,1.02025079727173,bird,boat,0,0127_stg_s08_0_boat_00_boat2-keyboard1.png
subject-08,1,128,1.12651205062866,chair,elephant,0,0128_stg_s08_0_elephant_00_elephant9-airplane2.png
subject-08,1,129,1.16166710853577,bicycle,bird,0,0129_stg_s08_0_bird_00_bird6-airplane2.png
subject-08,1,130,1.12266302108765,dog,car,0,0130_stg_s08_0_car_00_car10-bottle3.png
subject-08,1,131,0.925519227981567,airplane,oven,0,0131_stg_s08_0_oven_00_oven3-airplane1.png
subject-08,1,132,0.785252094268799,knife,knife,0,0132_stg_s08_0_knife_00_knife3-keyboard3.png
subject-08,1,133,0.759044170379639,dog,oven,0,0133_stg_s08_0_oven_00_oven2-bicycle1.png
subject-08,1,134,1.05778098106384,truck,chair,0,0134_stg_s08_0_chair_00_chair1-truck3.png
subject-08,1,135,1.16911697387695,cat,bottle,0,0135_stg_s08_0_bottle_00_bottle2-knife3.png
subject-08,1,136,0.716045141220093,bird,bear,0,0136_stg_s08_0_bear_00_bear4-car3.png
subject-08,1,137,0.881298065185547,keyboard,oven,0,0137_stg_s08_0_oven_00_oven4-elephant3.png
subject-08,1,138,0.911627054214478,oven,truck,0,0138_stg_s08_0_truck_00_truck10-clock1.png
subject-08,1,139,1.24854302406311,car,clock,0,0139_stg_s08_0_clock_00_clock6-chair3.png
subject-08,1,140,0.938566923141479,clock,truck,0,0140_stg_s08_0_truck_00_truck10-bicycle1.png
subject-08,1,141,0.72250509262085,elephant,bird,0,0141_stg_s08_0_bird_00_bird6-elephant2.png
subject-08,1,142,1.15618991851807,knife,keyboard,0,0142_stg_s08_0_keyboard_00_keyboard4-oven2.png
subject-08,1,143,1.06997799873352,bear,airplane,0,0143_stg_s08_0_airplane_00_airplane4-cat3.png
subject-08,1,144,0.843716859817505,airplane,boat,0,0144_stg_s08_0_boat_00_boat1-keyboard3.png
subject-08,1,145,0.987781047821045,bicycle,boat,0,0145_stg_s08_0_boat_00_boat3-airplane2.png
subject-08,1,146,0.747869968414307,cat,oven,0,0146_stg_s08_0_oven_00_oven4-bicycle2.png
subject-08,1,147,0.821426868438721,dog,bear,0,0147_stg_s08_0_bear_00_bear1-bear3.png
subject-08,1,148,1.03518390655518,elephant,boat,0,0148_stg_s08_0_boat_00_boat6-elephant2.png
subject-08,1,149,1.14203786849976,truck,bird,0,0149_stg_s08_0_bird_00_bird5-bird1.png
subject-08,1,150,1.00028705596924,bird,bottle,0,0150_stg_s08_0_bottle_00_bottle6-dog3.png
subject-08,1,151,0.92248797416687,clock,bear,0,0151_stg_s08_0_bear_00_bear10-chair2.png
subject-08,1,152,0.980358839035034,elephant,bottle,0,0152_stg_s08_0_bottle_00_bottle8-elephant3.png
subject-08,1,153,0.80225396156311,oven,airplane,0,0153_stg_s08_0_airplane_00_airplane6-knife1.png
subject-08,1,154,0.776250123977661,dog,truck,0,0154_stg_s08_0_truck_00_truck8-cat2.png
subject-08,1,155,0.79482889175415,cat,bear,0,0155_stg_s08_0_bear_00_bear7-bear2.png
subject-08,1,156,0.768588066101074,boat,bear,0,0156_stg_s08_0_bear_00_bear2-knife2.png
subject-08,1,157,1.50012612342834,keyboard,chair,0,0157_stg_s08_0_chair_00_chair3-car3.png
subject-08,1,158,1.0187931060791,chair,cat,0,0158_stg_s08_0_cat_00_cat10-bicycle1.png
subject-08,1,159,0.846345901489258,knife,chair,0,0159_stg_s08_0_chair_00_chair10-oven1.png
subject-08,1,160,1.28294205665588,airplane,truck,0,0160_stg_s08_0_truck_00_truck4-airplane3.png
subject-08,1,161,0.896274089813232,cat,keyboard,0,0161_stg_s08_0_keyboard_00_keyboard1-bear2.png
subject-08,1,162,0.816226959228516,car,oven,0,0162_stg_s08_0_oven_00_oven6-truck1.png
subject-08,1,163,0.768115043640137,bird,boat,0,0163_stg_s08_0_boat_00_boat1-chair3.png
subject-08,1,164,0.858088970184326,keyboard,clock,0,0164_stg_s08_0_clock_00_clock6-bird3.png
subject-08,1,165,1.03236794471741,dog,bird,0,0165_stg_s08_0_bird_00_bird10-bear2.png
subject-08,1,166,0.862369775772095,elephant,bird,0,0166_stg_s08_0_bird_00_bird4-dog3.png
subject-08,1,167,0.811753034591675,bicycle,chair,0,0167_stg_s08_0_chair_00_chair8-airplane1.png
subject-08,1,168,1.0336709022522,clock,car,0,0168_stg_s08_0_car_00_car2-bird3.png
subject-08,1,169,1.12960982322693,keyboard,truck,0,0169_stg_s08_0_truck_00_truck3-bird2.png
subject-08,1,170,0.704764127731323,airplane,bottle,0,0170_stg_s08_0_bottle_00_bottle5-knife1.png
subject-08,1,171,1.02489304542542,car,car,0,0171_stg_s08_0_car_00_car2-car3.png
subject-08,1,172,0.66104793548584,elephant,clock,0,0172_stg_s08_0_clock_00_clock1-elephant2.png
subject-08,1,173,0.934367179870605,chair,elephant,0,0173_stg_s08_0_elephant_00_elephant5-bottle2.png
subject-08,1,174,0.970128059387207,cat,dog,0,0174_stg_s08_0_dog_00_dog1-dog2.png
subject-08,1,175,0.930120944976807,keyboard,cat,0,0175_stg_s08_0_cat_00_cat7-knife2.png
subject-08,1,176,1.01967906951904,truck,elephant,0,0176_stg_s08_0_elephant_00_elephant7-airplane3.png
subject-08,1,177,0.955684900283813,knife,boat,0,0177_stg_s08_0_boat_00_boat9-bird1.png
subject-08,1,178,0.928844928741455,elephant,car,0,0178_stg_s08_0_car_00_car10-elephant2.png
subject-08,1,179,1.03537392616272,bear,keyboard,0,0179_stg_s08_0_keyboard_00_keyboard6-bicycle1.png
subject-08,1,180,1.08474397659302,dog,keyboard,0,0180_stg_s08_0_keyboard_00_keyboard7-dog1.png
subject-08,1,181,1.39061808586121,bird,bird,0,0181_stg_s08_0_bird_00_bird2-airplane3.png
subject-08,1,182,1.01288390159607,cat,elephant,0,0182_stg_s08_0_elephant_00_elephant6-cat2.png
subject-08,1,183,0.770452976226807,clock,bottle,0,0183_stg_s08_0_bottle_00_bottle7-clock1.png
subject-08,1,184,0.705770969390869,elephant,airplane,0,0184_stg_s08_0_airplane_00_airplane10-elephant1.png
subject-08,1,185,1.03329205513,bird,cat,0,0185_stg_s08_0_cat_00_cat7-airplane2.png
subject-08,1,186,1.50000214576721,bicycle,bird,0,0186_stg_s08_0_bird_00_bird3-truck3.png
subject-08,1,187,0.775845050811768,elephant,keyboard,0,0187_stg_s08_0_keyboard_00_keyboard3-elephant2.png
subject-08,1,188,0.919976949691772,airplane,keyboard,0,0188_stg_s08_0_keyboard_00_keyboard5-bird3.png
subject-08,1,189,1.07944512367249,knife,bear,0,0189_stg_s08_0_bear_00_bear9-keyboard3.png
subject-08,1,190,0.815294981002808,truck,cat,0,0190_stg_s08_0_cat_00_cat1-chair2.png
subject-08,1,191,0.951607942581177,knife,bottle,0,0191_stg_s08_0_bottle_00_bottle6-knife3.png
subject-08,1,192,0.804141044616699,keyboard,bird,0,0192_stg_s08_0_bird_00_bird5-keyboard2.png
subject-08,1,193,0.780862092971802,bird,boat,0,0193_stg_s08_0_boat_00_boat9-airplane2.png
subject-08,1,194,1.27845597267151,oven,dog,0,0194_stg_s08_0_dog_00_dog3-keyboard1.png
subject-08,1,195,0.814821004867554,oven,bottle,0,0195_stg_s08_0_bottle_00_bottle5-chair1.png
subject-08,1,196,1.01266384124756,dog,bear,0,0196_stg_s08_0_bear_00_bear6-bear1.png
subject-08,1,197,0.794901847839355,cat,car,0,0197_stg_s08_0_car_00_car7-clock1.png
subject-08,1,198,0.79241418838501,knife,airplane,0,0198_stg_s08_0_airplane_00_airplane3-oven1.png
subject-08,1,199,0.774868965148926,clock,dog,0,0199_stg_s08_0_dog_00_dog10-bottle1.png
subject-08,1,200,1.13274216651917,bottle,car,0,0200_stg_s08_0_car_00_car4-bottle1.png
subject-08,1,201,0.786350011825562,elephant,bottle,0,0201_stg_s08_0_bottle_00_bottle1-bear1.png
subject-08,1,202,0.960822105407715,oven,oven,0,0202_stg_s08_0_oven_00_oven1-bird3.png
subject-08,1,203,0.951170921325684,bottle,airplane,0,0203_stg_s08_0_airplane_00_airplane6-bottle2.png
subject-08,1,204,0.857959985733032,elephant,bird,0,0204_stg_s08_0_bird_00_bird1-elephant2.png
subject-08,1,205,NaN,na,knife,0,0205_stg_s08_0_knife_00_knife8-bottle3.png
subject-08,1,206,0.861552953720093,elephant,elephant,0,0206_stg_s08_0_elephant_00_elephant6-dog2.png
subject-08,1,207,0.874106884002686,knife,oven,0,0207_stg_s08_0_oven_00_oven6-bird1.png
subject-08,1,208,0.863275051116943,bottle,bird,0,0208_stg_s08_0_bird_00_bird1-chair2.png
subject-08,1,209,0.993340015411377,elephant,car,0,0209_stg_s08_0_car_00_car4-elephant3.png
subject-08,1,210,0.729422807693481,bird,car,0,0210_stg_s08_0_car_00_car4-boat1.png
subject-08,1,211,0.979161977767944,knife,bear,0,0211_stg_s08_0_bear_00_bear7-oven3.png
subject-08,1,212,0.868797063827515,elephant,clock,0,0212_stg_s08_0_clock_00_clock2-elephant2.png
subject-08,1,213,0.950721025466919,bicycle,boat,0,0213_stg_s08_0_boat_00_boat9-bear3.png
subject-08,1,214,1.18257403373718,airplane,elephant,0,0214_stg_s08_0_elephant_00_elephant4-oven1.png
subject-08,1,215,0.880517959594727,truck,clock,0,0215_stg_s08_0_clock_00_clock6-clock2.png
subject-08,1,216,0.764023065567017,elephant,truck,0,0216_stg_s08_0_truck_00_truck9-elephant1.png
subject-08,1,217,0.714315891265869,car,bicycle,0,0217_stg_s08_0_bicycle_00_bicycle3-oven3.png
subject-08,1,218,1.07462096214294,dog,oven,0,0218_stg_s08_0_oven_00_oven3-cat2.png
subject-08,1,219,1.14839506149292,bottle,chair,0,0219_stg_s08_0_chair_00_chair9-bicycle3.png
subject-08,1,220,0.815558195114136,oven,oven,0,0220_stg_s08_0_oven_00_oven1-cat1.png
subject-08,1,221,0.735430955886841,boat,keyboard,0,0221_stg_s08_0_keyboard_00_keyboard5-knife2.png
subject-08,1,222,0.974617958068848,bird,dog,0,0222_stg_s08_0_dog_00_dog3-boat1.png
subject-08,1,223,0.95663595199585,car,keyboard,0,0223_stg_s08_0_keyboard_00_keyboard1-chair2.png
subject-08,1,224,0.893347024917603,bottle,airplane,0,0224_stg_s08_0_airplane_00_airplane3-cat1.png
subject-08,1,225,1.50013303756714,knife,car,0,0225_stg_s08_0_car_00_car4-clock1.png
subject-08,1,226,0.904818773269653,airplane,truck,0,0226_stg_s08_0_truck_00_truck1-bicycle3.png
subject-08,1,227,1.05444979667664,airplane,cat,0,0227_stg_s08_0_cat_00_cat6-clock3.png
subject-08,1,228,0.998286962509155,chair,airplane,0,0228_stg_s08_0_airplane_00_airplane4-dog2.png
subject-08,1,229,0.912551879882812,dog,bird,0,0229_stg_s08_0_bird_00_bird5-bear3.png
subject-08,1,230,1.04848408699036,bird,keyboard,0,0230_stg_s08_0_keyboard_00_keyboard3-car2.png
subject-08,1,231,0.746237993240356,knife,keyboard,0,0231_stg_s08_0_keyboard_00_keyboard5-oven2.png
subject-08,1,232,0.711782932281494,clock,bottle,0,0232_stg_s08_0_bottle_00_bottle6-bird1.png
subject-08,1,233,0.795923948287964,cat,bear,0,0233_stg_s08_0_bear_00_bear3-cat1.png
subject-08,1,234,0.89942193031311,car,airplane,0,0234_stg_s08_0_airplane_00_airplane9-car2.png
subject-08,1,235,0.767361164093018,bear,elephant,0,0235_stg_s08_0_elephant_00_elephant5-bear2.png
subject-08,1,236,0.911283016204834,dog,cat,0,0236_stg_s08_0_cat_00_cat1-dog1.png
subject-08,1,237,0.847817897796631,bottle,bottle,0,0237_stg_s08_0_bottle_00_bottle3-boat3.png
subject-08,1,238,0.921645164489746,airplane,boat,0,0238_stg_s08_0_boat_00_boat2-airplane1.png
subject-08,1,239,0.874000787734985,car,car,0,0239_stg_s08_0_car_00_car8-clock2.png
subject-08,1,240,0.774786949157715,elephant,boat,0,0240_stg_s08_0_boat_00_boat7-elephant3.png
subject-08,1,241,1.14152097702026,clock,dog,0,0241_stg_s08_0_dog_00_dog5-car3.png
subject-08,1,242,0.817188024520874,knife,cat,0,0242_stg_s08_0_cat_00_cat4-keyboard2.png
subject-08,1,243,0.905971050262451,bicycle,bird,0,0243_stg_s08_0_bird_00_bird7-bird2.png
subject-08,1,244,0.917621850967407,keyboard,bottle,0,0244_stg_s08_0_bottle_00_bottle1-bird3.png
subject-08,1,245,0.916198968887329,knife,bird,0,0245_stg_s08_0_bird_00_bird3-oven1.png
subject-08,1,246,1.08940815925598,keyboard,bear,0,0246_stg_s08_0_bear_00_bear7-clock1.png
subject-08,1,247,1.29609704017639,bicycle,truck,0,0247_stg_s08_0_truck_00_truck1-car3.png
subject-08,1,248,0.89948296546936,boat,cat,0,0248_stg_s08_0_cat_00_cat10-airplane3.png
subject-08,1,249,0.714077949523926,oven,elephant,0,0249_stg_s08_0_elephant_00_elephant4-clock3.png
subject-08,1,250,1.2035870552063,bird,bicycle,0,0250_stg_s08_0_bicycle_00_bicycle9-bird3.png
subject-08,1,251,0.847227096557617,cat,bear,0,0251_stg_s08_0_bear_00_bear10-bear2.png
subject-08,1,252,1.10803699493408,bird,keyboard,0,0252_stg_s08_0_keyboard_00_keyboard8-dog3.png
subject-08,1,253,1.2576367855072,elephant,knife,0,0253_stg_s08_0_knife_00_knife1-elephant1.png
subject-08,1,254,NaN,na,dog,0,0254_stg_s08_0_dog_00_dog4-bicycle1.png
subject-08,1,255,1.13377809524536,dog,keyboard,0,0255_stg_s08_0_keyboard_00_keyboard1-dog3.png
subject-08,1,256,1.09337282180786,boat,bicycle,0,0256_stg_s08_0_bicycle_00_bicycle5-bottle3.png
subject-08,1,257,0.996176958084106,knife,chair,0,0257_stg_s08_0_chair_00_chair7-bird1.png
subject-08,1,258,1.35427689552307,cat,bicycle,0,0258_stg_s08_0_bicycle_00_bicycle9-bear1.png
subject-08,1,259,1.03580188751221,dog,knife,0,0259_stg_s08_0_knife_00_knife3-cat1.png
subject-08,1,260,0.911478996276855,dog,truck,0,0260_stg_s08_0_truck_00_truck8-dog3.png
subject-08,1,261,0.809309959411621,knife,bottle,0,0261_stg_s08_0_bottle_00_bottle3-knife3.png
subject-08,1,262,0.761702060699463,bear,chair,0,0262_stg_s08_0_chair_00_chair9-dog2.png
subject-08,1,263,1.14359712600708,airplane,keyboard,0,0263_stg_s08_0_keyboard_00_keyboard1-airplane2.png
subject-08,1,264,1.0031430721283,boat,knife,0,0264_stg_s08_0_knife_00_knife7-boat3.png
subject-08,1,265,0.66893482208252,car,dog,0,0265_stg_s08_0_dog_00_dog3-clock1.png
subject-08,1,266,1.14271402359009,dog,cat,0,0266_stg_s08_0_cat_00_cat10-bear1.png
subject-08,1,267,0.90336012840271,chair,airplane,0,0267_stg_s08_0_airplane_00_airplane7-boat2.png
subject-08,1,268,1.20162391662598,keyboard,oven,0,0268_stg_s08_0_oven_00_oven2-bird2.png
subject-08,1,269,0.729239940643311,boat,truck,0,0269_stg_s08_0_truck_00_truck7-truck2.png
subject-08,1,270,0.858751773834229,knife,knife,0,0270_stg_s08_0_knife_00_knife4-clock3.png
subject-08,1,271,0.946432113647461,bicycle,oven,0,0271_stg_s08_0_oven_00_oven2-car1.png
subject-08,1,272,1.14687490463257,clock,elephant,0,0272_stg_s08_0_elephant_00_elephant2-truck2.png
subject-08,1,273,0.69654393196106,elephant,elephant,0,0273_stg_s08_0_elephant_00_elephant5-elephant1.png
subject-08,1,274,1.10201692581177,keyboard,clock,0,0274_stg_s08_0_clock_00_clock6-bicycle1.png
subject-08,1,275,1.35220122337341,knife,airplane,0,0275_stg_s08_0_airplane_00_airplane9-oven2.png
subject-08,1,276,0.712239980697632,car,airplane,0,0276_stg_s08_0_airplane_00_airplane10-truck1.png
subject-08,1,277,0.758909940719604,elephant,truck,0,0277_stg_s08_0_truck_00_truck7-elephant2.png
subject-08,1,278,0.794849872589111,truck,bear,0,0278_stg_s08_0_bear_00_bear3-bird3.png
subject-08,1,279,0.752060174942017,boat,clock,0,0279_stg_s08_0_clock_00_clock5-chair3.png
subject-08,1,280,0.926589012145996,bird,bottle,0,0280_stg_s08_0_bottle_00_bottle5-keyboard2.png
subject-08,1,281,0.770029067993164,boat,bicycle,0,0281_stg_s08_0_bicycle_00_bicycle10-airplane2.png
subject-08,1,282,0.929798126220703,keyboard,airplane,0,0282_stg_s08_0_airplane_00_airplane1-clock1.png
subject-08,1,283,0.750084161758423,oven,bottle,0,0283_stg_s08_0_bottle_00_bottle6-bottle3.png
subject-08,1,284,0.763561010360718,knife,bear,0,0284_stg_s08_0_bear_00_bear10-keyboard3.png
subject-08,1,285,0.777585983276367,bottle,boat,0,0285_stg_s08_0_boat_00_boat7-boat2.png
subject-08,1,286,0.860137939453125,chair,oven,0,0286_stg_s08_0_oven_00_oven2-dog3.png
subject-08,1,287,1.01019597053528,bicycle,bear,0,0287_stg_s08_0_bear_00_bear7-truck1.png
subject-08,1,288,1.13973522186279,bottle,cat,0,0288_stg_s08_0_cat_00_cat9-bottle2.png
subject-08,1,289,0.911031007766724,clock,airplane,0,0289_stg_s08_0_airplane_00_airplane5-bottle3.png
subject-08,1,290,0.709405183792114,elephant,bear,0,0290_stg_s08_0_bear_00_bear4-elephant2.png
subject-08,1,291,1.01550579071045,boat,oven,0,0291_stg_s08_0_oven_00_oven4-chair1.png
subject-08,1,292,0.758759021759033,keyboard,bird,0,0292_stg_s08_0_bird_00_bird10-chair1.png
subject-08,1,293,NaN,na,keyboard,0,0293_stg_s08_0_keyboard_00_keyboard7-clock3.png
subject-08,1,294,0.758677005767822,airplane,bottle,0,0294_stg_s08_0_bottle_00_bottle5-oven2.png
subject-08,1,295,0.727223873138428,bird,bottle,0,0295_stg_s08_0_bottle_00_bottle6-boat3.png
subject-08,1,296,0.987067937850952,car,dog,0,0296_stg_s08_0_dog_00_dog1-bird1.png
subject-08,1,297,0.853023052215576,cat,clock,0,0297_stg_s08_0_clock_00_clock7-cat2.png
subject-08,1,298,0.704898118972778,dog,car,0,0298_stg_s08_0_car_00_car5-cat1.png
subject-08,1,299,0.833100080490112,bear,oven,0,0299_stg_s08_0_oven_00_oven9-bear2.png
subject-08,1,300,0.730610847473145,car,bear,0,0300_stg_s08_0_bear_00_bear5-chair1.png
subject-08,1,301,0.661535978317261,chair,dog,0,0301_stg_s08_0_dog_00_dog9-bicycle3.png
subject-08,1,302,0.657258987426758,clock,knife,0,0302_stg_s08_0_knife_00_knife3-clock2.png
subject-08,1,303,0.770699024200439,elephant,boat,0,0303_stg_s08_0_boat_00_boat1-elephant3.png
subject-08,1,304,1.13712882995605,bird,truck,0,0304_stg_s08_0_truck_00_truck6-dog2.png
subject-08,1,305,0.734727144241333,keyboard,boat,0,0305_stg_s08_0_boat_00_boat5-knife2.png
subject-08,1,306,0.740569114685059,car,car,0,0306_stg_s08_0_car_00_car10-chair1.png
subject-08,1,307,0.739041090011597,elephant,oven,0,0307_stg_s08_0_oven_00_oven6-elephant2.png
subject-08,1,308,0.783304214477539,bear,bottle,0,0308_stg_s08_0_bottle_00_bottle3-bird1.png
subject-08,1,309,1.18095016479492,clock,chair,0,0309_stg_s08_0_chair_00_chair5-keyboard2.png
subject-08,1,310,1.07107019424438,airplane,bottle,0,0310_stg_s08_0_bottle_00_bottle5-truck1.png
subject-08,1,311,0.82850980758667,truck,airplane,0,0311_stg_s08_0_airplane_00_airplane9-truck1.png
subject-08,1,312,0.674598932266235,cat,keyboard,0,0312_stg_s08_0_keyboard_00_keyboard9-cat1.png
subject-08,1,313,0.678423881530762,boat,car,0,0313_stg_s08_0_car_00_car6-chair3.png
subject-08,1,314,1.00602293014526,truck,bicycle,0,0314_stg_s08_0_bicycle_00_bicycle6-boat2.png
subject-08,1,315,1.21113300323486,dog,elephant,0,0315_stg_s08_0_elephant_00_elephant1-dog2.png
subject-08,1,316,0.89417290687561,bicycle,elephant,0,0316_stg_s08_0_elephant_00_elephant6-car3.png
subject-08,1,317,1.12498307228088,elephant,elephant,0,0317_stg_s08_0_elephant_00_elephant2-elephant3.png
subject-08,1,318,1.05308699607849,car,bottle,0,0318_stg_s08_0_bottle_00_bottle7-keyboard2.png
subject-08,1,319,1.11907482147217,boat,airplane,0,0319_stg_s08_0_airplane_00_airplane3-airplane2.png
subject-08,1,320,0.616590023040771,cat,car,0,0320_stg_s08_0_car_00_car4-cat3.png
subject-08,1,321,1.31957697868347,bottle,car,0,0321_stg_s08_0_car_00_car6-bottle1.png
subject-08,1,322,0.787562131881714,elephant,knife,0,0322_stg_s08_0_knife_00_knife10-elephant3.png
subject-08,1,323,0.778601169586182,clock,dog,0,0323_stg_s08_0_dog_00_dog4-bottle2.png
subject-08,1,324,0.93828010559082,dog,bear,0,0324_stg_s08_0_bear_00_bear9-dog1.png
subject-08,1,325,0.736008882522583,knife,oven,0,0325_stg_s08_0_oven_00_oven9-oven1.png
subject-08,1,326,1.02958798408508,keyboard,keyboard,0,0326_stg_s08_0_keyboard_00_keyboard2-bicycle3.png
subject-08,1,327,1.18027806282043,bottle,bicycle,0,0327_stg_s08_0_bicycle_00_bicycle9-bottle1.png
subject-08,1,328,0.680910110473633,bicycle,keyboard,0,0328_stg_s08_0_keyboard_00_keyboard4-clock2.png
subject-08,1,329,0.870818853378296,elephant,dog,0,0329_stg_s08_0_dog_00_dog5-elephant1.png
subject-08,1,330,0.815694808959961,cat,cat,0,0330_stg_s08_0_cat_00_cat4-dog3.png
subject-08,1,331,0.745378971099854,elephant,cat,0,0331_stg_s08_0_cat_00_cat5-elephant2.png
subject-08,1,332,0.64038610458374,boat,boat,0,0332_stg_s08_0_boat_00_boat4-boat3.png
subject-08,1,333,0.922967910766602,dog,knife,0,0333_stg_s08_0_knife_00_knife1-dog1.png
subject-08,1,334,0.920519113540649,truck,bear,0,0334_stg_s08_0_bear_00_bear5-bicycle3.png
subject-08,1,335,0.834443092346191,airplane,bird,0,0335_stg_s08_0_bird_00_bird3-bird2.png
subject-08,1,336,0.869863986968994,knife,knife,0,0336_stg_s08_0_knife_00_knife10-keyboard3.png
subject-08,1,337,0.651787996292114,cat,car,0,0337_stg_s08_0_car_00_car10-dog1.png
subject-08,1,338,1.12517809867859,car,bicycle,0,0338_stg_s08_0_bicycle_00_bicycle4-truck3.png
subject-08,1,339,0.877442836761475,keyboard,cat,0,0339_stg_s08_0_cat_00_cat3-truck3.png
subject-08,1,340,1.48107981681824,dog,airplane,0,0340_stg_s08_0_airplane_00_airplane7-cat3.png
subject-08,1,341,1.01726102828979,chair,knife,0,0341_stg_s08_0_knife_00_knife5-truck3.png
subject-08,1,342,0.822840929031372,elephant,bear,0,0342_stg_s08_0_bear_00_bear1-elephant1.png
subject-08,1,343,0.866679906845093,cat,airplane,0,0343_stg_s08_0_airplane_00_airplane2-cat1.png
subject-08,1,344,0.81079888343811,car,airplane,0,0344_stg_s08_0_airplane_00_airplane7-truck1.png
subject-08,1,345,1.11468696594238,bottle,cat,0,0345_stg_s08_0_cat_00_cat4-chair2.png
subject-08,1,346,NaN,na,boat,0,0346_stg_s08_0_boat_00_boat6-airplane2.png
subject-08,1,347,0.931915998458862,airplane,oven,0,0347_stg_s08_0_oven_00_oven10-truck2.png
subject-08,1,348,0.859519004821777,bicycle,bottle,0,0348_stg_s08_0_bottle_00_bottle4-bicycle1.png
subject-08,1,349,0.77336597442627,keyboard,elephant,0,0349_stg_s08_0_elephant_00_elephant2-airplane3.png
subject-08,1,350,0.847434043884277,car,dog,0,0350_stg_s08_0_dog_00_dog7-oven2.png
subject-08,1,351,0.861495971679688,boat,bird,0,0351_stg_s08_0_bird_00_bird7-knife2.png
subject-08,1,352,0.942800998687744,knife,dog,0,0352_stg_s08_0_dog_00_dog3-truck2.png
subject-08,1,353,1.30120706558228,chair,knife,0,0353_stg_s08_0_knife_00_knife8-car2.png
subject-08,1,354,0.901005029678345,bear,truck,0,0354_stg_s08_0_truck_00_truck9-boat3.png
subject-08,1,355,1.07544302940369,boat,bottle,0,0355_stg_s08_0_bottle_00_bottle1-car1.png
subject-08,1,356,0.919398069381714,airplane,elephant,0,0356_stg_s08_0_elephant_00_elephant4-chair3.png
subject-08,1,357,1.04725098609924,bottle,bear,0,0357_stg_s08_0_bear_00_bear10-bottle1.png
subject-08,1,358,1.07549691200256,dog,knife,0,0358_stg_s08_0_knife_00_knife4-cat2.png
subject-08,1,359,1.37322211265564,bird,bicycle,0,0359_stg_s08_0_bicycle_00_bicycle2-bird3.png
subject-08,1,360,1.14084386825562,bird,bear,0,0360_stg_s08_0_bear_00_bear3-chair2.png
subject-08,1,361,1.02263402938843,knife,keyboard,0,0361_stg_s08_0_keyboard_00_keyboard5-keyboard1.png
subject-08,1,362,0.766711950302124,cat,dog,0,0362_stg_s08_0_dog_00_dog10-dog1.png
subject-08,1,363,0.940452814102173,car,car,0,0363_stg_s08_0_car_00_car1-chair3.png
subject-08,1,364,0.788544178009033,elephant,chair,0,0364_stg_s08_0_chair_00_chair1-elephant1.png
subject-08,1,365,1.09418296813965,keyboard,bear,0,0365_stg_s08_0_bear_00_bear5-bird1.png
subject-08,1,366,0.868332862854004,chair,car,0,0366_stg_s08_0_car_00_car10-car1.png
subject-08,1,367,1.1122829914093,truck,keyboard,0,0367_stg_s08_0_keyboard_00_keyboard3-bird3.png
subject-08,1,368,1.47720003128052,boat,dog,0,0368_stg_s08_0_dog_00_dog9-car1.png
subject-08,1,369,1.16190505027771,car,truck,0,0369_stg_s08_0_truck_00_truck4-boat3.png
subject-08,1,370,1.01967883110046,bird,car,0,0370_stg_s08_0_car_00_car8-airplane3.png
subject-08,1,371,1.14161396026611,elephant,keyboard,0,0371_stg_s08_0_keyboard_00_keyboard3-bicycle2.png
subject-08,1,372,1.07759499549866,oven,bird,0,0372_stg_s08_0_bird_00_bird6-car3.png
subject-08,1,373,1.35603404045105,chair,clock,0,0373_stg_s08_0_clock_00_clock5-clock2.png
subject-08,1,374,1.36753106117249,bottle,boat,0,0374_stg_s08_0_boat_00_boat4-bottle2.png
subject-08,1,375,1.27358198165894,elephant,cat,0,0375_stg_s08_0_cat_00_cat3-elephant2.png
subject-08,1,376,1.43056511878967,cat,keyboard,0,0376_stg_s08_0_keyboard_00_keyboard6-dog2.png
subject-08,1,377,NaN,na,boat,0,0377_stg_s08_0_boat_00_boat7-keyboard3.png
subject-08,1,378,0.92597508430481,truck,chair,0,0378_stg_s08_0_chair_00_chair8-car1.png
subject-08,1,379,1.34589004516602,airplane,bicycle,0,0379_stg_s08_0_bicycle_00_bicycle8-truck1.png
subject-08,1,380,1.07318115234375,bicycle,chair,0,0380_stg_s08_0_chair_00_chair5-bird1.png
subject-08,1,381,0.992660999298096,boat,airplane,0,0381_stg_s08_0_airplane_00_airplane1-bicycle2.png
subject-08,1,382,1.0056037902832,dog,bird,0,0382_stg_s08_0_bird_00_bird4-cat3.png
subject-08,1,383,0.984462022781372,car,oven,0,0383_stg_s08_0_oven_00_oven3-knife1.png
subject-08,1,384,0.830459833145142,bird,clock,0,0384_stg_s08_0_clock_00_clock4-car2.png
subject-08,1,385,0.87248706817627,cat,bottle,0,0385_stg_s08_0_bottle_00_bottle1-cat3.png
subject-08,1,386,0.886384010314941,bottle,clock,0,0386_stg_s08_0_clock_00_clock10-bottle1.png
subject-08,1,387,0.951723098754883,keyboard,keyboard,0,0387_stg_s08_0_keyboard_00_keyboard8-keyboard2.png
subject-08,1,388,1.24746990203857,dog,bear,0,0388_stg_s08_0_bear_00_bear7-dog3.png
subject-08,1,389,0.96083402633667,bicycle,chair,0,0389_stg_s08_0_chair_00_chair3-bottle3.png
subject-08,1,390,0.996423006057739,dog,oven,0,0390_stg_s08_0_oven_00_oven5-dog3.png
subject-08,1,391,1.49492907524109,truck,bottle,0,0391_stg_s08_0_bottle_00_bottle4-airplane1.png
subject-08,1,392,1.46819090843201,knife,cat,0,0392_stg_s08_0_cat_00_cat3-oven2.png
subject-08,1,393,1.01220107078552,airplane,bicycle,0,0393_stg_s08_0_bicycle_00_bicycle4-airplane1.png
subject-08,1,394,0.734357118606567,cat,clock,0,0394_stg_s08_0_clock_00_clock2-dog1.png
subject-08,1,395,1.04109597206116,car,truck,0,0395_stg_s08_0_truck_00_truck2-car3.png
subject-08,1,396,1.39835619926453,chair,dog,0,0396_stg_s08_0_dog_00_dog5-boat3.png
subject-08,1,397,1.11307096481323,bottle,elephant,0,0397_stg_s08_0_elephant_00_elephant3-truck1.png
subject-08,1,398,0.988667011260986,chair,dog,0,0398_stg_s08_0_dog_00_dog1-knife3.png
subject-08,1,399,0.762882947921753,clock,chair,0,0399_stg_s08_0_chair_00_chair10-bottle3.png
subject-08,1,400,0.830924034118652,bottle,keyboard,0,0400_stg_s08_0_keyboard_00_keyboard5-bottle1.png
subject-08,1,401,0.58333683013916,bicycle,bear,0,0401_stg_s08_0_bear_00_bear4-keyboard3.png
subject-08,1,402,0.809693098068237,bottle,keyboard,0,0402_stg_s08_0_keyboard_00_keyboard2-bottle1.png
subject-08,1,403,0.853308200836182,knife,cat,0,0403_stg_s08_0_cat_00_cat1-keyboard3.png
subject-08,1,404,0.941581964492798,airplane,bear,0,0404_stg_s08_0_bear_00_bear9-knife2.png
subject-08,1,405,0.834157943725586,car,dog,0,0405_stg_s08_0_dog_00_dog5-knife2.png
subject-08,1,406,0.715687036514282,elephant,bottle,0,0406_stg_s08_0_bottle_00_bottle2-elephant1.png
subject-08,1,407,0.943492889404297,elephant,cat,0,0407_stg_s08_0_cat_00_cat7-elephant1.png
subject-08,1,408,0.965461015701294,bottle,clock,0,0408_stg_s08_0_clock_00_clock5-bicycle1.png
subject-08,1,409,1.17614698410034,chair,cat,0,0409_stg_s08_0_cat_00_cat1-oven1.png
subject-08,1,410,1.00480198860168,dog,knife,0,0410_stg_s08_0_knife_00_knife9-bird1.png
subject-08,1,411,NaN,na,cat,0,0411_stg_s08_0_cat_00_cat9-bicycle1.png
subject-08,1,412,1.01628684997559,cat,car,0,0412_stg_s08_0_car_00_car6-bicycle3.png
subject-08,1,413,0.760336875915527,bottle,car,0,0413_stg_s08_0_car_00_car5-bottle1.png
subject-08,1,414,0.641803979873657,cat,elephant,0,0414_stg_s08_0_elephant_00_elephant10-bear1.png
subject-08,1,415,0.701699018478394,dog,bird,0,0415_stg_s08_0_bird_00_bird9-dog2.png
subject-08,1,416,1.00564193725586,cat,boat,0,0416_stg_s08_0_boat_00_boat9-dog2.png
subject-08,1,417,0.727516889572144,dog,car,0,0417_stg_s08_0_car_00_car6-bear1.png
subject-08,1,418,0.855533838272095,bird,bottle,0,0418_stg_s08_0_bottle_00_bottle9-cat2.png
subject-08,1,419,0.991912841796875,bottle,clock,0,0419_stg_s08_0_clock_00_clock6-bottle1.png
subject-08,1,420,0.865139961242676,clock,bicycle,0,0420_stg_s08_0_bicycle_00_bicycle8-chair2.png
subject-08,1,421,0.887377023696899,cat,car,0,0421_stg_s08_0_car_00_car8-dog1.png
subject-08,1,422,1.22932291030884,keyboard,knife,0,0422_stg_s08_0_knife_00_knife6-bird1.png
subject-08,1,423,0.880963087081909,keyboard,bear,0,0423_stg_s08_0_bear_00_bear2-airplane1.png
subject-08,1,424,0.886559963226318,car,knife,0,0424_stg_s08_0_knife_00_knife5-clock1.png
subject-08,1,425,0.784142971038818,dog,knife,0,0425_stg_s08_0_knife_00_knife2-cat3.png
subject-08,1,426,1.12064790725708,chair,clock,0,0426_stg_s08_0_clock_00_clock2-knife1.png
subject-08,1,427,0.735661029815674,knife,bicycle,0,0427_stg_s08_0_bicycle_00_bicycle4-keyboard3.png
subject-08,1,428,0.866077899932861,car,elephant,0,0428_stg_s08_0_elephant_00_elephant8-clock2.png
subject-08,1,429,0.925989866256714,boat,chair,0,0429_stg_s08_0_chair_00_chair1-chair1.png
subject-08,1,430,1.25124907493591,elephant,bird,0,0430_stg_s08_0_bird_00_bird7-boat1.png
subject-08,1,431,0.978890895843506,boat,elephant,0,0431_stg_s08_0_elephant_00_elephant2-boat1.png
subject-08,1,432,0.963106870651245,bird,chair,0,0432_stg_s08_0_chair_00_chair10-cat1.png
subject-08,1,433,0.690742015838623,cat,knife,0,0433_stg_s08_0_knife_00_knife6-truck1.png
subject-08,1,434,1.13489317893982,truck,car,0,0434_stg_s08_0_car_00_car8-boat3.png
subject-08,1,435,0.90032696723938,keyboard,truck,0,0435_stg_s08_0_truck_00_truck4-bottle2.png
subject-08,1,436,0.982730865478516,dog,oven,0,0436_stg_s08_0_oven_00_oven8-cat3.png
subject-08,1,437,1.03479194641113,bird,bottle,0,0437_stg_s08_0_bottle_00_bottle2-chair3.png
subject-08,1,438,0.885773897171021,chair,oven,0,0438_stg_s08_0_oven_00_oven9-car2.png
subject-08,1,439,0.66759991645813,oven,airplane,0,0439_stg_s08_0_airplane_00_airplane3-clock1.png
subject-08,1,440,0.674325942993164,cat,keyboard,0,0440_stg_s08_0_keyboard_00_keyboard5-bear3.png
subject-08,1,441,0.710270881652832,clock,bear,0,0441_stg_s08_0_bear_00_bear6-clock1.png
subject-08,1,442,0.783612012863159,bicycle,truck,0,0442_stg_s08_0_truck_00_truck2-bicycle2.png
subject-08,1,443,1.1276159286499,truck,bicycle,0,0443_stg_s08_0_bicycle_00_bicycle6-car2.png
subject-08,1,444,1.11709403991699,cat,airplane,0,0444_stg_s08_0_airplane_00_airplane6-bear3.png
subject-08,1,445,0.828626155853271,car,oven,0,0445_stg_s08_0_oven_00_oven3-clock3.png
subject-08,1,446,0.84033203125,elephant,car,0,0446_stg_s08_0_car_00_car6-elephant3.png
subject-08,1,447,NaN,na,chair,0,0447_stg_s08_0_chair_00_chair5-truck3.png
subject-08,1,448,0.65986704826355,keyboard,keyboard,0,0448_stg_s08_0_keyboard_00_keyboard10-airplane3.png
subject-08,1,449,0.841993093490601,clock,bicycle,0,0449_stg_s08_0_bicycle_00_bicycle7-bicycle2.png
subject-08,1,450,0.915679216384888,cat,dog,0,0450_stg_s08_0_dog_00_dog8-dog3.png
subject-08,1,451,0.697296857833862,knife,boat,0,0451_stg_s08_0_boat_00_boat1-oven1.png
subject-08,1,452,1.01675391197205,boat,elephant,0,0452_stg_s08_0_elephant_00_elephant7-bottle3.png
subject-08,1,453,0.984251022338867,bottle,boat,0,0453_stg_s08_0_boat_00_boat9-clock1.png
subject-08,1,454,1.01256990432739,clock,bear,0,0454_stg_s08_0_bear_00_bear1-bird2.png
subject-08,1,455,0.94881796836853,keyboard,oven,0,0455_stg_s08_0_oven_00_oven10-airplane2.png
subject-08,1,456,0.746124982833862,elephant,knife,0,0456_stg_s08_0_knife_00_knife9-bear3.png
subject-08,1,457,NaN,na,keyboard,0,0457_stg_s08_0_keyboard_00_keyboard1-elephant3.png
subject-08,1,458,1.00913596153259,bicycle,truck,0,0458_stg_s08_0_truck_00_truck6-truck2.png
subject-08,1,459,1.04555606842041,car,airplane,0,0459_stg_s08_0_airplane_00_airplane9-boat1.png
subject-08,1,460,0.814050912857056,elephant,bicycle,0,0460_stg_s08_0_bicycle_00_bicycle8-bear2.png
subject-08,1,461,1.1870288848877,keyboard,bicycle,0,0461_stg_s08_0_bicycle_00_bicycle4-bicycle3.png
subject-08,1,462,0.738778114318848,boat,clock,0,0462_stg_s08_0_clock_00_clock7-boat3.png
subject-08,1,463,0.561012029647827,oven,car,0,0463_stg_s08_0_car_00_car3-bottle3.png
subject-08,1,464,0.750847101211548,chair,truck,0,0464_stg_s08_0_truck_00_truck2-elephant1.png
subject-08,1,465,0.987791061401367,bird,chair,0,0465_stg_s08_0_chair_00_chair7-cat1.png
subject-08,1,466,1.16962194442749,cat,oven,0,0466_stg_s08_0_oven_00_oven5-airplane1.png
subject-08,1,467,1.50023484230042,bicycle,knife,0,0467_stg_s08_0_knife_00_knife4-keyboard1.png
subject-08,1,468,1.14919900894165,dog,bicycle,0,0468_stg_s08_0_bicycle_00_bicycle2-dog1.png
subject-08,1,469,0.692818880081177,bicycle,boat,0,0469_stg_s08_0_boat_00_boat6-truck3.png
subject-08,1,470,0.806737899780273,elephant,chair,0,0470_stg_s08_0_chair_00_chair9-elephant1.png
subject-08,1,471,0.805110216140747,car,truck,0,0471_stg_s08_0_truck_00_truck6-oven3.png
subject-08,1,472,0.803771018981934,knife,truck,0,0472_stg_s08_0_truck_00_truck7-keyboard3.png
subject-08,1,473,1.10554599761963,oven,oven,0,0473_stg_s08_0_oven_00_oven4-truck3.png
subject-08,1,474,1.07056379318237,chair,boat,0,0474_stg_s08_0_boat_00_boat4-bird1.png
subject-08,1,475,0.809072017669678,boat,bicycle,0,0475_stg_s08_0_bicycle_00_bicycle7-bear2.png
subject-08,1,476,1.06150794029236,cat,cat,0,0476_stg_s08_0_cat_00_cat3-cat1.png
subject-08,1,477,0.927616119384766,knife,bicycle,0,0477_stg_s08_0_bicycle_00_bicycle2-keyboard2.png
subject-08,1,478,0.765082836151123,oven,truck,0,0478_stg_s08_0_truck_00_truck2-clock1.png
subject-08,1,479,0.654791116714478,clock,truck,0,0479_stg_s08_0_truck_00_truck2-boat3.png
subject-08,1,480,1.29929685592651,car,clock,0,0480_stg_s08_0_clock_00_clock9-keyboard2.png
subject-08,1,481,1.50001287460327,truck,bicycle,0,0481_stg_s08_0_bicycle_00_bicycle6-bicycle3.png
subject-08,1,482,0.824998140335083,oven,dog,0,0482_stg_s08_0_dog_00_dog10-bicycle1.png
subject-08,1,483,0.876826047897339,keyboard,clock,0,0483_stg_s08_0_clock_00_clock8-keyboard1.png
subject-08,1,484,0.753568172454834,dog,knife,0,0484_stg_s08_0_knife_00_knife10-bear3.png
subject-08,1,485,0.994919776916504,car,bottle,0,0485_stg_s08_0_bottle_00_bottle3-bicycle3.png
subject-08,1,486,0.778753042221069,cat,airplane,0,0486_stg_s08_0_airplane_00_airplane2-bear1.png
subject-08,1,487,0.743757963180542,bicycle,boat,0,0487_stg_s08_0_boat_00_boat8-knife1.png
subject-08,1,488,0.757750988006592,clock,chair,0,0488_stg_s08_0_chair_00_chair8-knife2.png
subject-08,1,489,0.924387216567993,chair,bicycle,0,0489_stg_s08_0_bicycle_00_bicycle9-chair1.png
subject-08,1,490,0.754448890686035,keyboard,dog,0,0490_stg_s08_0_dog_00_dog6-truck2.png
subject-08,1,491,0.72029185295105,elephant,bottle,0,0491_stg_s08_0_bottle_00_bottle9-elephant2.png
subject-08,1,492,0.964348077774048,airplane,chair,0,0492_stg_s08_0_chair_00_chair7-truck3.png
subject-08,1,493,0.816309928894043,elephant,truck,0,0493_stg_s08_0_truck_00_truck3-bear3.png
subject-08,1,494,1.06812500953674,dog,truck,0,0494_stg_s08_0_truck_00_truck3-dog3.png
subject-08,1,495,0.912616968154907,car,oven,0,0495_stg_s08_0_oven_00_oven5-bird1.png
subject-08,1,496,1.30814003944397,bottle,knife,0,0496_stg_s08_0_knife_00_knife6-oven3.png
subject-08,1,497,0.897723197937012,airplane,boat,0,0497_stg_s08_0_boat_00_boat7-oven3.png
subject-08,1,498,0.933667898178101,keyboard,elephant,0,0498_stg_s08_0_elephant_00_elephant9-boat3.png
subject-08,1,499,0.885072946548462,knife,bear,0,0499_stg_s08_0_bear_00_bear2-oven1.png
subject-08,1,500,0.816227912902832,oven,bear,0,0500_stg_s08_0_bear_00_bear6-bottle3.png
subject-08,1,501,0.727421998977661,elephant,elephant,0,0501_stg_s08_0_elephant_00_elephant8-elephant1.png
subject-08,1,502,0.71777606010437,car,oven,0,0502_stg_s08_0_oven_00_oven9-keyboard1.png
subject-08,1,503,0.655547857284546,cat,bird,0,0503_stg_s08_0_bird_00_bird1-boat1.png
subject-08,1,504,1.05948090553284,boat,bicycle,0,0504_stg_s08_0_bicycle_00_bicycle6-airplane2.png
subject-08,1,505,0.935956954956055,truck,knife,0,0505_stg_s08_0_knife_00_knife3-bear2.png
subject-08,1,506,1.37972497940063,airplane,elephant,0,0506_stg_s08_0_elephant_00_elephant5-truck1.png
subject-08,1,507,NaN,na,clock,0,0507_stg_s08_0_clock_00_clock3-keyboard3.png
subject-08,1,508,1.28096795082092,car,elephant,0,0508_stg_s08_0_elephant_00_elephant6-bird1.png
subject-08,1,509,0.949198007583618,bottle,airplane,0,0509_stg_s08_0_airplane_00_airplane2-bottle1.png
subject-08,1,510,0.77170205116272,bicycle,cat,0,0510_stg_s08_0_cat_00_cat6-chair3.png
subject-08,1,511,0.931723117828369,bird,bicycle,0,0511_stg_s08_0_bicycle_00_bicycle9-airplane2.png
subject-08,1,512,0.9272780418396,keyboard,truck,0,0512_stg_s08_0_truck_00_truck1-knife1.png
subject-08,1,513,0.618928194046021,boat,chair,0,0513_stg_s08_0_chair_00_chair6-truck2.png
subject-08,1,514,0.592306852340698,elephant,keyboard,0,0514_stg_s08_0_keyboard_00_keyboard6-elephant1.png
subject-08,1,515,1.19813203811646,keyboard,elephant,0,0515_stg_s08_0_elephant_00_elephant6-knife2.png
subject-08,1,516,0.672111034393311,car,keyboard,0,0516_stg_s08_0_keyboard_00_keyboard4-knife2.png
subject-08,1,517,1.02397394180298,truck,bottle,0,0517_stg_s08_0_bottle_00_bottle6-airplane1.png
subject-08,1,518,0.838147878646851,cat,keyboard,0,0518_stg_s08_0_keyboard_00_keyboard9-bicycle2.png
subject-08,1,519,0.711750984191895,dog,truck,0,0519_stg_s08_0_truck_00_truck5-dog3.png
subject-08,1,520,0.796221971511841,bicycle,clock,0,0520_stg_s08_0_clock_00_clock3-elephant3.png
subject-08,1,521,0.962193012237549,car,dog,0,0521_stg_s08_0_dog_00_dog8-oven3.png
subject-08,1,522,0.843261957168579,airplane,knife,0,0522_stg_s08_0_knife_00_knife5-bicycle2.png
subject-08,1,523,1.04087805747986,oven,car,0,0523_stg_s08_0_car_00_car9-truck3.png
subject-08,1,524,0.833192110061646,elephant,oven,0,0524_stg_s08_0_oven_00_oven3-elephant3.png
subject-08,1,525,0.822946071624756,bear,keyboard,0,0525_stg_s08_0_keyboard_00_keyboard4-bird1.png
subject-08,1,526,1.15985798835754,bicycle,bottle,0,0526_stg_s08_0_bottle_00_bottle5-boat1.png
subject-08,1,527,NaN,na,cat,0,0527_stg_s08_0_cat_00_cat10-clock1.png
subject-08,1,528,0.814802885055542,bird,oven,0,0528_stg_s08_0_oven_00_oven6-bicycle1.png
subject-08,1,529,1.08794498443604,car,clock,0,0529_stg_s08_0_clock_00_clock1-car1.png
subject-08,1,530,0.799065113067627,dog,knife,0,0530_stg_s08_0_knife_00_knife10-dog1.png
subject-08,1,531,1.16792011260986,knife,clock,0,0531_stg_s08_0_clock_00_clock4-oven1.png
subject-08,1,532,0.749270915985107,boat,bottle,0,0532_stg_s08_0_bottle_00_bottle8-bicycle1.png
subject-08,1,533,0.609399080276489,keyboard,cat,0,0533_stg_s08_0_cat_00_cat5-airplane2.png
subject-08,1,534,0.774934053421021,truck,dog,0,0534_stg_s08_0_dog_00_dog8-clock2.png
subject-08,1,535,0.758535146713257,bird,oven,0,0535_stg_s08_0_oven_00_oven4-knife2.png
subject-08,1,536,1.01629495620728,keyboard,bird,0,0536_stg_s08_0_bird_00_bird5-truck2.png
subject-08,1,537,1.20964813232422,bottle,clock,0,0537_stg_s08_0_clock_00_clock8-chair2.png
subject-08,1,538,0.828845024108887,chair,clock,0,0538_stg_s08_0_clock_00_clock4-bottle3.png
subject-08,1,539,0.863988161087036,bottle,bear,0,0539_stg_s08_0_bear_00_bear5-bottle1.png
subject-08,1,540,0.63801097869873,clock,airplane,0,0540_stg_s08_0_airplane_00_airplane10-airplane1.png
subject-08,1,541,0.774291038513184,oven,cat,0,0541_stg_s08_0_cat_00_cat4-airplane1.png
subject-08,1,542,0.918421983718872,knife,bird,0,0542_stg_s08_0_bird_00_bird1-knife3.png
subject-08,1,543,1.3073890209198,elephant,car,0,0543_stg_s08_0_car_00_car3-elephant3.png
subject-08,1,544,0.638348817825317,cat,dog,0,0544_stg_s08_0_dog_00_dog5-bear3.png
subject-08,1,545,0.873434066772461,dog,bear,0,0545_stg_s08_0_bear_00_bear3-dog3.png
subject-08,1,546,0.686195850372314,car,bicycle,0,0546_stg_s08_0_bicycle_00_bicycle7-knife2.png
subject-08,1,547,1.03014302253723,truck,elephant,0,0547_stg_s08_0_elephant_00_elephant7-knife2.png
subject-08,1,548,0.668720960617065,oven,truck,0,0548_stg_s08_0_truck_00_truck2-bottle3.png
subject-08,1,549,0.858566045761108,knife,bear,0,0549_stg_s08_0_bear_00_bear1-airplane3.png
subject-08,1,550,0.740432024002075,bottle,keyboard,0,0550_stg_s08_0_keyboard_00_keyboard4-bottle2.png
subject-08,1,551,0.7845299243927,keyboard,keyboard,0,0551_stg_s08_0_keyboard_00_keyboard9-truck3.png
subject-08,1,552,0.698408842086792,dog,airplane,0,0552_stg_s08_0_airplane_00_airplane2-dog1.png
subject-08,1,553,1.07281708717346,clock,clock,0,0553_stg_s08_0_clock_00_clock2-bicycle1.png
subject-08,1,554,1.35516691207886,dog,keyboard,0,0554_stg_s08_0_keyboard_00_keyboard7-bear2.png
subject-08,1,555,0.752583980560303,chair,boat,0,0555_stg_s08_0_boat_00_boat4-car3.png
subject-08,1,556,0.765953063964844,bird,elephant,0,0556_stg_s08_0_elephant_00_elephant4-bird1.png
subject-08,1,557,0.702319860458374,cat,car,0,0557_stg_s08_0_car_00_car7-bear1.png
subject-08,1,558,0.95989990234375,bird,bottle,0,0558_stg_s08_0_bottle_00_bottle10-boat3.png
subject-08,1,559,0.665422916412354,boat,car,0,0559_stg_s08_0_car_00_car6-truck3.png
subject-08,1,560,0.817235946655273,knife,car,0,0560_stg_s08_0_car_00_car2-knife3.png
subject-08,1,561,0.783193111419678,elephant,bird,0,0561_stg_s08_0_bird_00_bird2-dog2.png
subject-08,1,562,1.04302191734314,airplane,clock,0,0562_stg_s08_0_clock_00_clock10-bird3.png
subject-08,1,563,0.778811931610107,knife,cat,0,0563_stg_s08_0_cat_00_cat2-knife3.png
subject-08,1,564,0.8143150806427,bicycle,clock,0,0564_stg_s08_0_clock_00_clock10-clock3.png
subject-08,1,565,0.819733858108521,elephant,cat,0,0565_stg_s08_0_cat_00_cat10-elephant3.png
subject-08,1,566,1.30756998062134,bottle,oven,0,0566_stg_s08_0_oven_00_oven4-bottle2.png
subject-08,1,567,0.929901838302612,elephant,elephant,0,0567_stg_s08_0_elephant_00_elephant9-elephant3.png
subject-08,1,568,1.0658860206604,boat,keyboard,0,0568_stg_s08_0_keyboard_00_keyboard7-knife1.png
subject-08,1,569,0.831151008605957,bird,truck,0,0569_stg_s08_0_truck_00_truck6-cat2.png
subject-08,1,570,1.02083706855774,keyboard,clock,0,0570_stg_s08_0_clock_00_clock8-boat1.png
subject-08,1,571,0.659446954727173,bottle,keyboard,0,0571_stg_s08_0_keyboard_00_keyboard6-bottle2.png
subject-08,1,572,1.0323269367218,truck,chair,0,0572_stg_s08_0_chair_00_chair9-boat2.png
subject-08,1,573,0.607861995697021,elephant,knife,0,0573_stg_s08_0_knife_00_knife2-elephant2.png
subject-08,1,574,0.965714931488037,knife,keyboard,0,0574_stg_s08_0_keyboard_00_keyboard9-keyboard2.png
subject-08,1,575,0.909677028656006,bicycle,bird,0,0575_stg_s08_0_bird_00_bird9-bicycle3.png
subject-08,1,576,1.19124889373779,truck,car,0,0576_stg_s08_0_car_00_car1-car2.png
subject-08,1,577,0.797019958496094,bear,car,0,0577_stg_s08_0_car_00_car7-dog3.png
subject-08,1,578,0.840201139450073,keyboard,dog,0,0578_stg_s08_0_dog_00_dog10-car3.png
subject-08,1,579,0.985594034194946,bottle,bottle,0,0579_stg_s08_0_bottle_00_bottle2-bottle3.png
subject-08,1,580,1.10406303405762,elephant,dog,0,0580_stg_s08_0_dog_00_dog9-bear3.png
subject-08,1,581,0.931327104568481,knife,car,0,0581_stg_s08_0_car_00_car3-oven3.png
subject-08,1,582,0.782958030700684,airplane,boat,0,0582_stg_s08_0_boat_00_boat5-clock3.png
subject-08,1,583,0.763409852981567,bicycle,oven,0,0583_stg_s08_0_oven_00_oven2-oven3.png
subject-08,1,584,0.892451047897339,clock,boat,0,0584_stg_s08_0_boat_00_boat6-bottle2.png
subject-08,1,585,0.806531190872192,bottle,car,0,0585_stg_s08_0_car_00_car8-bicycle2.png
subject-08,1,586,0.81142783164978,bird,chair,0,0586_stg_s08_0_chair_00_chair8-chair3.png
subject-08,1,587,0.893654823303223,boat,knife,0,0587_stg_s08_0_knife_00_knife10-chair1.png
subject-08,1,588,1.31363201141357,truck,bear,0,0588_stg_s08_0_bear_00_bear1-clock2.png
subject-08,1,589,1.19589781761169,bicycle,dog,0,0589_stg_s08_0_dog_00_dog9-boat1.png
subject-08,1,590,0.788111925125122,bottle,cat,0,0590_stg_s08_0_cat_00_cat9-boat2.png
subject-08,1,591,0.853610992431641,bottle,boat,0,0591_stg_s08_0_boat_00_boat8-bottle1.png
subject-08,1,592,0.775662899017334,airplane,car,0,0592_stg_s08_0_car_00_car4-bird1.png
subject-08,1,593,0.888030052185059,knife,airplane,0,0593_stg_s08_0_airplane_00_airplane2-bird3.png
subject-08,1,594,0.739955902099609,bird,oven,0,0594_stg_s08_0_oven_00_oven6-chair3.png
subject-08,1,595,0.686368942260742,boat,truck,0,0595_stg_s08_0_truck_00_truck6-bicycle1.png
subject-08,1,596,0.789913177490234,car,bird,0,0596_stg_s08_0_bird_00_bird2-knife1.png
subject-08,1,597,0.573788166046143,chair,knife,0,0597_stg_s08_0_knife_00_knife9-airplane2.png
subject-08,1,598,0.76430606842041,bottle,dog,0,0598_stg_s08_0_dog_00_dog9-bottle1.png
subject-08,1,599,0.753762006759644,elephant,bird,0,0599_stg_s08_0_bird_00_bird8-elephant1.png
subject-08,1,600,0.813896894454956,dog,knife,0,0600_stg_s08_0_knife_00_knife6-dog2.png
subject-08,1,601,0.971629858016968,clock,chair,0,0601_stg_s08_0_chair_00_chair1-clock2.png
subject-08,1,602,0.731792211532593,bird,boat,0,0602_stg_s08_0_boat_00_boat6-knife2.png
subject-08,1,603,1.06714200973511,bottle,elephant,0,0603_stg_s08_0_elephant_00_elephant6-bottle2.png
subject-08,1,604,1.01104497909546,bicycle,car,0,0604_stg_s08_0_car_00_car9-clock2.png
subject-08,1,605,0.924686908721924,car,knife,0,0605_stg_s08_0_knife_00_knife3-knife1.png
subject-08,1,606,NaN,na,bird,0,0606_stg_s08_0_bird_00_bird3-cat1.png
subject-08,1,607,0.766332149505615,bird,airplane,0,0607_stg_s08_0_airplane_00_airplane3-chair3.png
subject-08,1,608,0.878054141998291,elephant,bicycle,0,0608_stg_s08_0_bicycle_00_bicycle5-elephant1.png
subject-08,1,609,0.645652055740356,airplane,bear,0,0609_stg_s08_0_bear_00_bear3-truck3.png
subject-08,1,610,0.866559982299805,knife,airplane,0,0610_stg_s08_0_airplane_00_airplane3-keyboard2.png
subject-08,1,611,0.580084085464478,bottle,cat,0,0611_stg_s08_0_cat_00_cat7-bottle1.png
subject-08,1,612,1.08370089530945,cat,keyboard,0,0612_stg_s08_0_keyboard_00_keyboard8-cat3.png
subject-08,1,613,0.705960035324097,elephant,bicycle,0,0613_stg_s08_0_bicycle_00_bicycle1-bear1.png
subject-08,1,614,0.774367809295654,bottle,airplane,0,0614_stg_s08_0_airplane_00_airplane4-bottle1.png
subject-08,1,615,0.726722955703735,boat,bicycle,0,0615_stg_s08_0_bicycle_00_bicycle2-bicycle1.png
subject-08,1,616,0.794396162033081,bird,chair,0,0616_stg_s08_0_chair_00_chair4-truck2.png
subject-08,1,617,0.792807817459106,dog,oven,0,0617_stg_s08_0_oven_00_oven2-bear3.png
subject-08,1,618,0.682646036148071,bicycle,bottle,0,0618_stg_s08_0_bottle_00_bottle1-clock1.png
subject-08,1,619,0.8645920753479,truck,bird,0,0619_stg_s08_0_bird_00_bird8-car2.png
subject-08,1,620,1.36271905899048,dog,cat,0,0620_stg_s08_0_cat_00_cat1-cat3.png
subject-08,1,621,0.768224000930786,bicycle,car,0,0621_stg_s08_0_car_00_car4-bicycle3.png
subject-08,1,622,0.657401084899902,airplane,bicycle,0,0622_stg_s08_0_bicycle_00_bicycle4-oven3.png
subject-08,1,623,1.20792484283447,knife,bird,0,0623_stg_s08_0_bird_00_bird7-keyboard3.png
subject-08,1,624,0.999497890472412,keyboard,boat,0,0624_stg_s08_0_boat_00_boat8-bird2.png
subject-08,1,625,0.836136102676392,dog,truck,0,0625_stg_s08_0_truck_00_truck1-bear1.png
subject-08,1,626,0.781960964202881,cat,clock,0,0626_stg_s08_0_clock_00_clock3-dog2.png
subject-08,1,627,0.793037891387939,elephant,bicycle,0,0627_stg_s08_0_bicycle_00_bicycle3-elephant2.png
subject-08,1,628,0.682749032974243,car,knife,0,0628_stg_s08_0_knife_00_knife8-truck3.png
subject-08,1,629,0.618757963180542,cat,boat,0,0629_stg_s08_0_boat_00_boat6-cat1.png
subject-08,1,630,0.678223133087158,boat,bottle,0,0630_stg_s08_0_bottle_00_bottle3-bottle3.png
subject-08,1,631,0.820105075836182,truck,car,0,0631_stg_s08_0_car_00_car7-car1.png
subject-08,1,632,0.603461980819702,keyboard,truck,0,0632_stg_s08_0_truck_00_truck6-bottle3.png
subject-08,1,633,0.969299077987671,knife,cat,0,0633_stg_s08_0_cat_00_cat5-keyboard3.png
subject-08,1,634,0.836970090866089,airplane,oven,0,0634_stg_s08_0_oven_00_oven7-car3.png
subject-08,1,635,0.777679920196533,bottle,bird,0,0635_stg_s08_0_bird_00_bird8-bottle1.png
subject-08,1,636,0.821146011352539,bicycle,bottle,0,0636_stg_s08_0_bottle_00_bottle10-clock2.png
subject-08,1,637,0.72035813331604,clock,oven,0,0637_stg_s08_0_oven_00_oven1-clock3.png
subject-08,1,638,0.633877992630005,oven,car,0,0638_stg_s08_0_car_00_car9-bicycle2.png
subject-08,1,639,0.845201969146729,knife,chair,0,0639_stg_s08_0_chair_00_chair8-oven1.png
subject-08,1,640,0.675561189651489,dog,chair,0,0640_stg_s08_0_chair_00_chair10-dog1.png
subject-08,1,641,1.04555106163025,car,chair,0,0641_stg_s08_0_chair_00_chair5-boat3.png
subject-08,1,642,0.605863809585571,boat,boat,0,0642_stg_s08_0_boat_00_boat3-bicycle2.png
subject-08,1,643,0.749063968658447,keyboard,clock,0,0643_stg_s08_0_clock_00_clock4-bird3.png
subject-08,1,644,1.22370004653931,oven,airplane,0,0644_stg_s08_0_airplane_00_airplane5-bicycle1.png
subject-08,1,645,0.715227127075195,bird,chair,0,0645_stg_s08_0_chair_00_chair8-boat1.png
subject-08,1,646,0.890072107315063,knife,bear,0,0646_stg_s08_0_bear_00_bear10-oven1.png
subject-08,1,647,0.72552490234375,truck,dog,0,0647_stg_s08_0_dog_00_dog10-airplane1.png
subject-08,1,648,0.963615894317627,bear,cat,0,0648_stg_s08_0_cat_00_cat8-car2.png
subject-08,1,649,1.11335206031799,car,knife,0,0649_stg_s08_0_knife_00_knife1-bird2.png
subject-08,1,650,0.827049970626831,chair,elephant,0,0650_stg_s08_0_elephant_00_elephant7-car3.png
subject-08,1,651,0.654220104217529,oven,bottle,0,0651_stg_s08_0_bottle_00_bottle6-bicycle3.png
subject-08,1,652,1.06769013404846,knife,chair,0,0652_stg_s08_0_chair_00_chair1-oven3.png
subject-08,1,653,0.94688892364502,bicycle,oven,0,0653_stg_s08_0_oven_00_oven9-boat2.png
subject-08,1,654,1.0388708114624,airplane,bicycle,0,0654_stg_s08_0_bicycle_00_bicycle8-clock3.png
subject-08,1,655,0.705134868621826,boat,airplane,0,0655_stg_s08_0_airplane_00_airplane7-car1.png
subject-08,1,656,0.635386943817139,boat,boat,0,0656_stg_s08_0_boat_00_boat10-boat3.png
subject-08,1,657,0.733614206314087,knife,keyboard,0,0657_stg_s08_0_keyboard_00_keyboard9-bird1.png
subject-08,1,658,1.01284193992615,cat,clock,0,0658_stg_s08_0_clock_00_clock8-bear2.png
subject-08,1,659,0.965138912200928,truck,bottle,0,0659_stg_s08_0_bottle_00_bottle9-keyboard1.png
subject-08,1,660,0.725925922393799,bird,bicycle,0,0660_stg_s08_0_bicycle_00_bicycle1-airplane2.png
subject-08,1,661,1.50023698806763,keyboard,bird,0,0661_stg_s08_0_bird_00_bird5-oven3.png
subject-08,1,662,0.837017774581909,bottle,truck,0,0662_stg_s08_0_truck_00_truck9-bottle2.png
subject-08,1,663,0.757291078567505,chair,bear,0,0663_stg_s08_0_bear_00_bear3-keyboard2.png
subject-08,1,664,1.19331812858582,bottle,keyboard,0,0664_stg_s08_0_keyboard_00_keyboard7-bottle1.png
subject-08,1,665,0.815335035324097,cat,dog,0,0665_stg_s08_0_dog_00_dog9-cat1.png
subject-08,1,666,0.922117948532104,elephant,boat,0,0666_stg_s08_0_boat_00_boat8-elephant1.png
subject-08,1,667,0.765990972518921,clock,cat,0,0667_stg_s08_0_cat_00_cat6-keyboard3.png
subject-08,1,668,1.2723560333252,clock,boat,0,0668_stg_s08_0_boat_00_boat9-chair2.png
subject-08,1,669,0.869894027709961,clock,bird,0,0669_stg_s08_0_bird_00_bird2-clock3.png
subject-08,1,670,0.659532070159912,bottle,elephant,0,0670_stg_s08_0_elephant_00_elephant1-bottle1.png
subject-08,1,671,1.31744718551636,truck,bird,0,0671_stg_s08_0_bird_00_bird1-truck1.png
subject-08,1,672,1.04544806480408,dog,dog,0,0672_stg_s08_0_dog_00_dog2-cat1.png
subject-08,1,673,1.19198894500732,bird,bicycle,0,0673_stg_s08_0_bicycle_00_bicycle8-boat1.png
subject-08,1,674,0.697504043579102,cat,chair,0,0674_stg_s08_0_chair_00_chair2-bear2.png
subject-08,1,675,1.17186903953552,knife,truck,0,0675_stg_s08_0_truck_00_truck2-airplane3.png
subject-08,1,676,1.30037498474121,dog,airplane,0,0676_stg_s08_0_airplane_00_airplane10-bear3.png
subject-08,1,677,0.705802917480469,airplane,bear,0,0677_stg_s08_0_bear_00_bear2-bird3.png
subject-08,1,678,1.06544184684753,dog,elephant,0,0678_stg_s08_0_elephant_00_elephant7-dog1.png
subject-08,1,679,0.893846035003662,knife,elephant,0,0679_stg_s08_0_elephant_00_elephant1-keyboard3.png
subject-08,1,680,0.894169092178345,dog,knife,0,0680_stg_s08_0_knife_00_knife5-dog1.png
subject-08,1,681,0.70569896697998,chair,car,0,0681_stg_s08_0_car_00_car5-airplane3.png
subject-08,1,682,1.0117781162262,bottle,car,0,0682_stg_s08_0_car_00_car5-truck3.png
subject-08,1,683,0.618342876434326,clock,clock,0,0683_stg_s08_0_clock_00_clock2-clock3.png
subject-08,1,684,0.876405000686646,car,bottle,0,0684_stg_s08_0_bottle_00_bottle8-dog2.png
subject-08,1,685,0.874109029769897,boat,dog,0,0685_stg_s08_0_dog_00_dog6-bird1.png
subject-08,1,686,0.863776922225952,keyboard,chair,0,0686_stg_s08_0_chair_00_chair7-clock3.png
subject-08,1,687,0.907575130462646,dog,bottle,0,0687_stg_s08_0_bottle_00_bottle10-dog1.png
subject-08,1,688,0.943833827972412,dog,cat,0,0688_stg_s08_0_cat_00_cat9-cat3.png
subject-08,1,689,0.933686017990112,truck,bicycle,0,0689_stg_s08_0_bicycle_00_bicycle3-bird1.png
subject-08,1,690,0.893558025360107,bicycle,bottle,0,0690_stg_s08_0_bottle_00_bottle9-car3.png
subject-08,1,691,0.753899812698364,bird,chair,0,0691_stg_s08_0_chair_00_chair1-airplane2.png
subject-08,1,692,1.08203315734863,car,bottle,0,0692_stg_s08_0_bottle_00_bottle4-truck1.png
subject-08,1,693,0.912720203399658,knife,dog,0,0693_stg_s08_0_dog_00_dog8-keyboard3.png
subject-08,1,694,0.594423055648804,cat,bird,0,0694_stg_s08_0_bird_00_bird10-cat1.png
subject-08,1,695,0.889322996139526,dog,car,0,0695_stg_s08_0_car_00_car1-dog2.png
subject-08,1,696,0.756694793701172,bird,chair,0,0696_stg_s08_0_chair_00_chair9-chair3.png
subject-08,1,697,0.846757888793945,bicycle,elephant,0,0697_stg_s08_0_elephant_00_elephant5-car1.png
subject-08,1,698,1.30388498306274,keyboard,bird,0,0698_stg_s08_0_bird_00_bird7-oven3.png
subject-08,1,699,0.948621988296509,dog,clock,0,0699_stg_s08_0_clock_00_clock10-cat1.png
subject-08,1,700,0.992342948913574,truck,cat,0,0700_stg_s08_0_cat_00_cat5-bicycle3.png
subject-08,1,701,0.882230997085571,knife,keyboard,0,0701_stg_s08_0_keyboard_00_keyboard7-oven2.png
subject-08,1,702,0.771998882293701,elephant,bird,0,0702_stg_s08_0_bird_00_bird9-elephant2.png
subject-08,1,703,0.715748071670532,boat,bicycle,0,0703_stg_s08_0_bicycle_00_bicycle1-boat3.png
subject-08,1,704,0.507414102554321,oven,elephant,0,0704_stg_s08_0_elephant_00_elephant8-bicycle3.png
subject-08,1,705,0.886690855026245,dog,oven,0,0705_stg_s08_0_oven_00_oven1-dog3.png
subject-08,1,706,1.03880405426025,clock,keyboard,0,0706_stg_s08_0_keyboard_00_keyboard2-clock1.png
subject-08,1,707,1.11297082901001,bird,truck,0,0707_stg_s08_0_truck_00_truck9-airplane2.png
subject-08,1,708,0.796899080276489,dog,dog,0,0708_stg_s08_0_dog_00_dog1-cat3.png
subject-08,1,709,0.800252914428711,chair,bird,0,0709_stg_s08_0_bird_00_bird5-airplane3.png
subject-08,1,710,0.852827072143555,keyboard,knife,0,0710_stg_s08_0_knife_00_knife9-bicycle1.png
subject-08,1,711,0.696433067321777,dog,truck,0,0711_stg_s08_0_truck_00_truck1-dog1.png
subject-08,1,712,0.678120851516724,cat,elephant,0,0712_stg_s08_0_elephant_00_elephant8-dog1.png
subject-08,1,713,0.713393926620483,truck,truck,0,0713_stg_s08_0_truck_00_truck2-keyboard1.png
subject-08,1,714,0.848887920379639,knife,dog,0,0714_stg_s08_0_dog_00_dog4-keyboard2.png
subject-08,1,715,0.79289698600769,dog,chair,0,0715_stg_s08_0_chair_00_chair4-bear2.png
subject-08,1,716,0.812944889068604,bottle,boat,0,0716_stg_s08_0_boat_00_boat7-bottle1.png
subject-08,1,717,0.951117038726807,clock,bear,0,0717_stg_s08_0_bear_00_bear9-boat2.png
subject-08,1,718,0.854202032089233,keyboard,airplane,0,0718_stg_s08_0_airplane_00_airplane9-clock1.png
subject-08,1,719,1.33093214035034,knife,bicycle,0,0719_stg_s08_0_bicycle_00_bicycle1-oven1.png
subject-08,1,720,0.782541990280151,elephant,airplane,0,0720_stg_s08_0_airplane_00_airplane3-elephant1.png
subject-08,1,721,0.643081903457642,car,boat,0,0721_stg_s08_0_boat_00_boat7-truck2.png
subject-08,1,722,0.863458871841431,airplane,keyboard,0,0722_stg_s08_0_keyboard_00_keyboard7-boat2.png
subject-08,1,723,0.753125905990601,keyboard,elephant,0,0723_stg_s08_0_elephant_00_elephant2-bottle3.png
subject-08,1,724,0.934737920761108,knife,elephant,0,0724_stg_s08_0_elephant_00_elephant3-keyboard2.png
subject-08,1,725,0.743448972702026,clock,bottle,0,0725_stg_s08_0_bottle_00_bottle9-oven2.png
subject-08,1,726,0.81653904914856,knife,car,0,0726_stg_s08_0_car_00_car1-oven3.png
subject-08,1,727,0.698724985122681,dog,boat,0,0727_stg_s08_0_boat_00_boat6-dog1.png
subject-08,1,728,0.958433866500854,cat,airplane,0,0728_stg_s08_0_airplane_00_airplane10-dog3.png
subject-08,1,729,0.931904077529907,car,bear,0,0729_stg_s08_0_bear_00_bear2-car2.png
subject-08,1,730,0.721354007720947,elephant,oven,0,0730_stg_s08_0_oven_00_oven5-elephant1.png
subject-08,1,731,NaN,na,dog,0,0731_stg_s08_0_dog_00_dog6-bicycle1.png
subject-08,1,732,0.92999005317688,bear,oven,0,0732_stg_s08_0_oven_00_oven3-bear2.png
subject-08,1,733,0.907339096069336,airplane,airplane,0,0733_stg_s08_0_airplane_00_airplane2-bicycle1.png
subject-08,1,734,0.729495048522949,cat,dog,0,0734_stg_s08_0_dog_00_dog6-cat1.png
subject-08,1,735,0.90840220451355,boat,dog,0,0735_stg_s08_0_dog_00_dog1-car2.png
subject-08,1,736,0.735975980758667,bottle,airplane,0,0736_stg_s08_0_airplane_00_airplane1-chair2.png
subject-08,1,737,0.895771026611328,bird,chair,0,0737_stg_s08_0_chair_00_chair4-chair3.png
subject-08,1,738,0.663881063461304,elephant,bottle,0,0738_stg_s08_0_bottle_00_bottle5-elephant1.png
subject-08,1,739,1.26002192497253,keyboard,bicycle,0,0739_stg_s08_0_bicycle_00_bicycle1-bicycle3.png
subject-08,1,740,0.974036931991577,truck,truck,0,0740_stg_s08_0_truck_00_truck4-knife1.png
subject-08,1,741,0.642141103744507,oven,clock,0,0741_stg_s08_0_clock_00_clock10-truck2.png
subject-08,1,742,0.869843006134033,clock,dog,0,0742_stg_s08_0_dog_00_dog6-clock1.png
subject-08,1,743,0.722017049789429,keyboard,bear,0,0743_stg_s08_0_bear_00_bear7-bicycle2.png
subject-08,1,744,0.841691017150879,knife,bird,0,0744_stg_s08_0_bird_00_bird1-keyboard3.png
subject-08,1,745,1.00136590003967,knife,cat,0,0745_stg_s08_0_cat_00_cat4-oven1.png
subject-08,1,746,0.913370132446289,bicycle,bicycle,0,0746_stg_s08_0_bicycle_00_bicycle2-knife2.png
subject-08,1,747,1.05731415748596,knife,bear,0,0747_stg_s08_0_bear_00_bear2-keyboard2.png
subject-08,1,748,1.19310998916626,oven,chair,0,0748_stg_s08_0_chair_00_chair2-boat1.png
subject-08,1,749,0.644294023513794,keyboard,cat,0,0749_stg_s08_0_cat_00_cat7-boat3.png
subject-08,1,750,0.850169897079468,bottle,chair,0,0750_stg_s08_0_chair_00_chair7-bottle1.png
subject-08,1,751,1.42449903488159,keyboard,bird,0,0751_stg_s08_0_bird_00_bird8-clock1.png
subject-08,1,752,0.808607816696167,clock,bicycle,0,0752_stg_s08_0_bicycle_00_bicycle9-car1.png
subject-08,1,753,1.09601521492004,bird,knife,0,0753_stg_s08_0_knife_00_knife6-bicycle1.png
subject-08,1,754,NaN,na,truck,0,0754_stg_s08_0_truck_00_truck5-bird2.png
subject-08,1,755,0.962948083877563,elephant,cat,0,0755_stg_s08_0_cat_00_cat2-elephant1.png
subject-08,1,756,1.10720896720886,keyboard,oven,0,0756_stg_s08_0_oven_00_oven9-airplane2.png
subject-08,1,757,0.942567110061646,airplane,bird,0,0757_stg_s08_0_bird_00_bird3-boat3.png
subject-08,1,758,0.840886831283569,boat,bottle,0,0758_stg_s08_0_bottle_00_bottle8-keyboard3.png
subject-08,1,759,0.854093074798584,dog,elephant,0,0759_stg_s08_0_elephant_00_elephant7-cat1.png
subject-08,1,760,0.852406024932861,truck,boat,0,0760_stg_s08_0_boat_00_boat10-truck1.png
subject-08,1,761,1.05074381828308,car,elephant,0,0761_stg_s08_0_elephant_00_elephant8-airplane3.png
subject-08,1,762,0.819203853607178,bicycle,bottle,0,0762_stg_s08_0_bottle_00_bottle7-boat3.png
subject-08,1,763,0.854920864105225,knife,oven,0,0763_stg_s08_0_oven_00_oven7-keyboard1.png
subject-08,1,764,0.874361991882324,bird,boat,0,0764_stg_s08_0_boat_00_boat5-bicycle3.png
subject-08,1,765,0.751173973083496,knife,airplane,0,0765_stg_s08_0_airplane_00_airplane10-oven2.png
subject-08,1,766,1.01944708824158,knife,truck,0,0766_stg_s08_0_truck_00_truck8-keyboard2.png
subject-08,1,767,1.17759585380554,keyboard,oven,0,0767_stg_s08_0_oven_00_oven4-car1.png
subject-08,1,768,0.820960998535156,truck,chair,0,0768_stg_s08_0_chair_00_chair7-airplane1.png
subject-08,1,769,0.823837995529175,bird,dog,0,0769_stg_s08_0_dog_00_dog8-chair3.png
subject-08,1,770,0.805375814437866,keyboard,bird,0,0770_stg_s08_0_bird_00_bird6-bottle3.png
subject-08,1,771,0.777891874313354,elephant,clock,0,0771_stg_s08_0_clock_00_clock4-elephant2.png
subject-08,1,772,0.830036878585815,cat,keyboard,0,0772_stg_s08_0_keyboard_00_keyboard4-cat2.png
subject-08,1,773,0.703740835189819,bottle,bicycle,0,0773_stg_s08_0_bicycle_00_bicycle2-bottle1.png
subject-08,1,774,0.668081045150757,knife,knife,0,0774_stg_s08_0_knife_00_knife2-bird1.png
subject-08,1,775,0.78818678855896,airplane,bear,0,0775_stg_s08_0_bear_00_bear6-boat3.png
subject-08,1,776,0.814643859863281,dog,bear,0,0776_stg_s08_0_bear_00_bear4-cat3.png
subject-08,1,777,1.03705286979675,bear,oven,0,0777_stg_s08_0_oven_00_oven7-dog2.png
subject-08,1,778,0.848413944244385,bird,clock,0,0778_stg_s08_0_clock_00_clock9-chair3.png
subject-08,1,779,0.933439970016479,bird,knife,0,0779_stg_s08_0_knife_00_knife4-knife2.png
subject-08,1,780,0.706343173980713,chair,clock,0,0780_stg_s08_0_clock_00_clock5-keyboard1.png
subject-08,1,781,0.650802850723267,truck,elephant,0,0781_stg_s08_0_elephant_00_elephant8-bird2.png
subject-08,1,782,0.718451976776123,boat,oven,0,0782_stg_s08_0_oven_00_oven10-bicycle1.png
subject-08,1,783,0.583637952804565,keyboard,bottle,0,0783_stg_s08_0_bottle_00_bottle10-car1.png
subject-08,1,784,0.597973108291626,clock,cat,0,0784_stg_s08_0_cat_00_cat7-clock3.png
subject-08,1,785,0.733273983001709,car,keyboard,0,0785_stg_s08_0_keyboard_00_keyboard10-car1.png
subject-08,1,786,0.66851806640625,bottle,knife,0,0786_stg_s08_0_knife_00_knife9-bottle2.png
subject-08,1,787,1.26679015159607,bottle,oven,0,0787_stg_s08_0_oven_00_oven7-bottle1.png
subject-08,1,788,0.894592046737671,bottle,bicycle,0,0788_stg_s08_0_bicycle_00_bicycle4-bottle1.png
subject-08,1,789,0.724241971969604,clock,truck,0,0789_stg_s08_0_truck_00_truck3-chair2.png
subject-08,1,790,0.735968828201294,dog,dog,0,0790_stg_s08_0_dog_00_dog8-bear3.png
subject-08,1,791,0.717559814453125,bicycle,elephant,0,0791_stg_s08_0_elephant_00_elephant10-keyboard1.png
subject-08,1,792,0.922977924346924,airplane,dog,0,0792_stg_s08_0_dog_00_dog1-chair1.png
subject-08,1,793,0.74500298500061,clock,dog,0,0793_stg_s08_0_dog_00_dog10-clock1.png
subject-08,1,794,0.735842943191528,keyboard,oven,0,0794_stg_s08_0_oven_00_oven2-truck3.png
subject-08,1,795,0.858202219009399,truck,cat,0,0795_stg_s08_0_cat_00_cat3-bicycle1.png
subject-08,1,796,0.72652006149292,clock,truck,0,0796_stg_s08_0_truck_00_truck3-clock3.png
subject-08,1,797,1.05053806304932,bird,bottle,0,0797_stg_s08_0_bottle_00_bottle6-bear2.png
subject-08,1,798,0.702017068862915,elephant,bear,0,0798_stg_s08_0_bear_00_bear2-elephant1.png
subject-08,1,799,0.714311838150024,bear,clock,0,0799_stg_s08_0_clock_00_clock5-airplane1.png
subject-08,1,800,1.17429399490356,boat,bear,0,0800_stg_s08_0_bear_00_bear4-knife1.png
subject-08,1,801,NaN,na,clock,0,0801_stg_s08_0_clock_00_clock3-cat1.png
subject-08,1,802,0.829586029052734,keyboard,chair,0,0802_stg_s08_0_chair_00_chair10-clock1.png
subject-08,1,803,0.959172010421753,knife,bicycle,0,0803_stg_s08_0_bicycle_00_bicycle9-knife3.png
subject-08,1,804,0.811419010162354,cat,bird,0,0804_stg_s08_0_bird_00_bird5-cat2.png
subject-08,1,805,0.825674057006836,dog,cat,0,0805_stg_s08_0_cat_00_cat2-car3.png
subject-08,1,806,0.907670974731445,cat,bicycle,0,0806_stg_s08_0_bicycle_00_bicycle10-elephant2.png
subject-08,1,807,0.767910957336426,car,car,0,0807_stg_s08_0_car_00_car1-clock2.png
subject-08,1,808,0.87438702583313,clock,car,0,0808_stg_s08_0_car_00_car9-keyboard2.png
subject-08,1,809,0.831099033355713,bear,elephant,0,0809_stg_s08_0_elephant_00_elephant1-oven2.png
subject-08,1,810,0.928882122039795,bicycle,boat,0,0810_stg_s08_0_boat_00_boat2-oven3.png
subject-08,1,811,0.83514404296875,dog,dog,0,0811_stg_s08_0_dog_00_dog6-elephant2.png
subject-08,1,812,0.686116933822632,airplane,airplane,0,0812_stg_s08_0_airplane_00_airplane5-boat3.png
subject-08,1,813,1.08168196678162,dog,cat,0,0813_stg_s08_0_cat_00_cat5-dog3.png
subject-08,1,814,1.08009719848633,airplane,keyboard,0,0814_stg_s08_0_keyboard_00_keyboard8-oven1.png
subject-08,1,815,0.794193029403687,knife,cat,0,0815_stg_s08_0_cat_00_cat5-knife2.png
subject-08,1,816,0.808351039886475,truck,airplane,0,0816_stg_s08_0_airplane_00_airplane4-truck2.png
subject-08,1,817,0.759158849716187,bicycle,truck,0,0817_stg_s08_0_truck_00_truck6-boat2.png
subject-08,1,818,1.08713412284851,car,airplane,0,0818_stg_s08_0_airplane_00_airplane8-chair1.png
subject-08,1,819,1.10233306884766,dog,knife,0,0819_stg_s08_0_knife_00_knife2-bear2.png
subject-08,1,820,0.932604789733887,elephant,dog,0,0820_stg_s08_0_dog_00_dog4-elephant2.png
subject-08,1,821,0.906476020812988,truck,clock,0,0821_stg_s08_0_clock_00_clock4-chair1.png
subject-08,1,822,0.750365972518921,car,car,0,0822_stg_s08_0_car_00_car8-chair1.png
subject-08,1,823,0.757108926773071,keyboard,oven,0,0823_stg_s08_0_oven_00_oven10-boat2.png
subject-08,1,824,0.819658994674683,boat,boat,0,0824_stg_s08_0_boat_00_boat7-chair1.png
subject-08,1,825,1.50037288665771,dog,cat,0,0825_stg_s08_0_cat_00_cat8-bird2.png
subject-08,1,826,1.1122100353241,boat,bicycle,0,0826_stg_s08_0_bicycle_00_bicycle7-clock3.png
subject-08,1,827,0.764392852783203,airplane,car,0,0827_stg_s08_0_car_00_car6-boat1.png
subject-08,1,828,NaN,na,car,0,0828_stg_s08_0_car_00_car7-oven2.png
subject-08,1,829,0.955065965652466,dog,elephant,0,0829_stg_s08_0_elephant_00_elephant1-bear2.png
subject-08,1,830,0.828285932540894,bicycle,elephant,0,0830_stg_s08_0_elephant_00_elephant8-boat2.png
subject-08,1,831,0.951267004013062,truck,boat,0,0831_stg_s08_0_boat_00_boat5-airplane1.png
subject-08,1,832,0.894710063934326,boat,truck,0,0832_stg_s08_0_truck_00_truck9-truck3.png
subject-08,1,833,0.99256706237793,knife,bottle,0,0833_stg_s08_0_bottle_00_bottle8-bird1.png
subject-08,1,834,0.844624996185303,keyboard,bear,0,0834_stg_s08_0_bear_00_bear8-bicycle3.png
subject-08,1,835,1.18925595283508,bottle,boat,0,0835_stg_s08_0_boat_00_boat1-truck3.png
subject-08,1,836,1.43844699859619,dog,bicycle,0,0836_stg_s08_0_bicycle_00_bicycle9-cat3.png
subject-08,1,837,1.12212109565735,elephant,boat,0,0837_stg_s08_0_boat_00_boat4-elephant2.png
subject-08,1,838,0.603371858596802,cat,chair,0,0838_stg_s08_0_chair_00_chair9-bear1.png
subject-08,1,839,0.593047142028809,chair,airplane,0,0839_stg_s08_0_airplane_00_airplane9-airplane2.png
subject-08,1,840,0.644595861434937,oven,clock,0,0840_stg_s08_0_clock_00_clock7-truck3.png
subject-08,1,841,0.476469039916992,clock,oven,0,0841_stg_s08_0_oven_00_oven7-oven1.png
subject-08,1,842,1.02025604248047,bicycle,dog,0,0842_stg_s08_0_dog_00_dog8-boat3.png
subject-08,1,843,0.726720094680786,knife,oven,0,0843_stg_s08_0_oven_00_oven4-keyboard3.png
subject-08,1,844,0.96992301940918,clock,chair,0,0844_stg_s08_0_chair_00_chair8-clock3.png
subject-08,1,845,0.75140380859375,keyboard,bottle,0,0845_stg_s08_0_bottle_00_bottle10-truck3.png
subject-08,1,846,0.636024951934814,oven,bottle,0,0846_stg_s08_0_bottle_00_bottle8-knife1.png
subject-08,1,847,1.08819484710693,car,airplane,0,0847_stg_s08_0_airplane_00_airplane4-knife1.png
subject-08,1,848,0.67057991027832,cat,knife,0,0848_stg_s08_0_knife_00_knife4-bear1.png
subject-08,1,849,0.830054044723511,bear,elephant,0,0849_stg_s08_0_elephant_00_elephant1-chair1.png
subject-08,1,850,0.611624002456665,cat,bicycle,0,0850_stg_s08_0_bicycle_00_bicycle5-cat1.png
subject-08,1,851,0.901319026947021,chair,bear,0,0851_stg_s08_0_bear_00_bear10-truck1.png
subject-08,1,852,0.960714101791382,airplane,knife,0,0852_stg_s08_0_knife_00_knife1-airplane1.png
subject-08,1,853,0.629305124282837,car,airplane,0,0853_stg_s08_0_airplane_00_airplane7-clock3.png
subject-08,1,854,1.31051707267761,truck,keyboard,0,0854_stg_s08_0_keyboard_00_keyboard7-truck2.png
subject-08,1,855,0.65357494354248,cat,boat,0,0855_stg_s08_0_boat_00_boat10-cat1.png
subject-08,1,856,0.773518085479736,boat,bird,0,0856_stg_s08_0_bird_00_bird8-chair1.png
subject-08,1,857,0.511681079864502,chair,boat,0,0857_stg_s08_0_boat_00_boat9-boat3.png
subject-08,1,858,0.931962013244629,car,elephant,0,0858_stg_s08_0_elephant_00_elephant5-chair3.png
subject-08,1,859,0.899026870727539,knife,truck,0,0859_stg_s08_0_truck_00_truck2-oven3.png
subject-08,1,860,0.865024089813232,keyboard,elephant,0,0860_stg_s08_0_elephant_00_elephant8-oven3.png
subject-08,1,861,1.28678703308105,truck,oven,0,0861_stg_s08_0_oven_00_oven9-bird3.png
subject-08,1,862,0.977249145507812,car,airplane,0,0862_stg_s08_0_airplane_00_airplane8-oven2.png
subject-08,1,863,0.83686900138855,knife,dog,0,0863_stg_s08_0_dog_00_dog5-oven1.png
subject-08,1,864,1.02684092521667,airplane,bird,0,0864_stg_s08_0_bird_00_bird8-keyboard2.png
subject-08,1,865,0.840227842330933,dog,bear,0,0865_stg_s08_0_bear_00_bear6-cat3.png
subject-08,1,866,0.875799179077148,bird,truck,0,0866_stg_s08_0_truck_00_truck3-bicycle1.png
subject-08,1,867,0.773550987243652,keyboard,bicycle,0,0867_stg_s08_0_bicycle_00_bicycle3-keyboard1.png
subject-08,1,868,1.16304588317871,bicycle,knife,0,0868_stg_s08_0_knife_00_knife6-bottle3.png
subject-08,1,869,0.669650077819824,cat,truck,0,0869_stg_s08_0_truck_00_truck3-cat1.png
subject-08,1,870,0.734908819198608,car,bear,0,0870_stg_s08_0_bear_00_bear8-airplane1.png
subject-08,1,871,0.686655044555664,bear,chair,0,0871_stg_s08_0_chair_00_chair5-bicycle1.png
subject-08,1,872,1.13816905021667,bottle,boat,0,0872_stg_s08_0_boat_00_boat4-chair2.png
subject-08,1,873,0.682857036590576,chair,elephant,0,0873_stg_s08_0_elephant_00_elephant10-knife3.png
subject-08,1,874,0.73471999168396,oven,bicycle,0,0874_stg_s08_0_bicycle_00_bicycle1-bottle3.png
subject-08,1,875,0.557341814041138,car,airplane,0,0875_stg_s08_0_airplane_00_airplane4-bicycle2.png
subject-08,1,876,0.755117177963257,keyboard,elephant,0,0876_stg_s08_0_elephant_00_elephant3-knife1.png
subject-08,1,877,0.769348859786987,airplane,clock,0,0877_stg_s08_0_clock_00_clock10-airplane1.png
subject-08,1,878,0.607735157012939,dog,boat,0,0878_stg_s08_0_boat_00_boat1-bear1.png
subject-08,1,879,0.59854793548584,bicycle,boat,0,0879_stg_s08_0_boat_00_boat2-bird1.png
subject-08,1,880,0.82873010635376,truck,car,0,0880_stg_s08_0_car_00_car5-keyboard3.png
subject-08,1,881,0.586308002471924,keyboard,truck,0,0881_stg_s08_0_truck_00_truck5-keyboard1.png
subject-08,1,882,0.959627151489258,car,clock,0,0882_stg_s08_0_clock_00_clock6-truck3.png
subject-08,1,883,1.01959896087646,chair,oven,0,0883_stg_s08_0_oven_00_oven3-truck1.png
subject-08,1,884,0.771841049194336,knife,knife,0,0884_stg_s08_0_knife_00_knife1-keyboard3.png
subject-08,1,885,0.799026012420654,airplane,knife,0,0885_stg_s08_0_knife_00_knife5-knife3.png
subject-08,1,886,0.705015182495117,dog,bottle,0,0886_stg_s08_0_bottle_00_bottle10-bear2.png
subject-08,1,887,0.895409107208252,bird,bottle,0,0887_stg_s08_0_bottle_00_bottle2-car2.png
subject-08,1,888,0.57110595703125,chair,bird,0,0888_stg_s08_0_bird_00_bird3-bottle2.png
subject-08,1,889,0.607149124145508,cat,airplane,0,0889_stg_s08_0_airplane_00_airplane5-bear2.png
subject-08,1,890,1.11074781417847,keyboard,clock,0,0890_stg_s08_0_clock_00_clock10-boat2.png
subject-08,1,891,0.824239015579224,bottle,bottle,0,0891_stg_s08_0_bottle_00_bottle1-chair2.png
subject-08,1,892,0.684085845947266,oven,bottle,0,0892_stg_s08_0_bottle_00_bottle9-bicycle1.png
subject-08,1,893,0.631112098693848,boat,keyboard,0,0893_stg_s08_0_keyboard_00_keyboard6-car2.png
subject-08,1,894,0.642848968505859,cat,boat,0,0894_stg_s08_0_boat_00_boat3-dog3.png
subject-08,1,895,0.626957893371582,knife,bicycle,0,0895_stg_s08_0_bicycle_00_bicycle5-keyboard3.png
subject-08,1,896,0.739145994186401,clock,airplane,0,0896_stg_s08_0_airplane_00_airplane4-airplane1.png
subject-08,1,897,0.782876968383789,dog,cat,0,0897_stg_s08_0_cat_00_cat2-cat1.png
subject-08,1,898,1.19646501541138,cat,keyboard,0,0898_stg_s08_0_keyboard_00_keyboard5-cat1.png
subject-08,1,899,0.686373949050903,elephant,oven,0,0899_stg_s08_0_oven_00_oven7-elephant1.png
subject-08,1,900,0.829843044281006,keyboard,boat,0,0900_stg_s08_0_boat_00_boat3-chair3.png
subject-08,1,901,0.741979837417603,bird,boat,0,0901_stg_s08_0_boat_00_boat1-bird3.png
subject-08,1,902,1.20153212547302,car,cat,0,0902_stg_s08_0_cat_00_cat9-clock2.png
subject-08,1,903,0.791455030441284,boat,knife,0,0903_stg_s08_0_knife_00_knife6-clock2.png
subject-08,1,904,0.767568826675415,truck,dog,0,0904_stg_s08_0_dog_00_dog4-truck2.png
subject-08,1,905,0.856557130813599,knife,bicycle,0,0905_stg_s08_0_bicycle_00_bicycle9-keyboard3.png
subject-08,1,906,0.707828998565674,airplane,elephant,0,0906_stg_s08_0_elephant_00_elephant7-keyboard3.png
subject-08,1,907,0.774111032485962,keyboard,clock,0,0907_stg_s08_0_clock_00_clock7-bear2.png
subject-08,1,908,0.820385932922363,car,bottle,0,0908_stg_s08_0_bottle_00_bottle9-truck1.png
subject-08,1,909,0.92418098449707,oven,bicycle,0,0909_stg_s08_0_bicycle_00_bicycle3-truck3.png
subject-08,1,910,0.753923177719116,chair,knife,0,0910_stg_s08_0_knife_00_knife7-car2.png
subject-08,1,911,0.851777076721191,cat,clock,0,0911_stg_s08_0_clock_00_clock1-bear1.png
subject-08,1,912,0.846369028091431,bicycle,bird,0,0912_stg_s08_0_bird_00_bird9-chair1.png
subject-08,1,913,0.881936073303223,car,cat,0,0913_stg_s08_0_cat_00_cat6-oven1.png
subject-08,1,914,0.993630886077881,cat,bottle,0,0914_stg_s08_0_bottle_00_bottle3-bear2.png
subject-08,1,915,0.865110874176025,chair,truck,0,0915_stg_s08_0_truck_00_truck5-airplane2.png
subject-08,1,916,1.02540898323059,bicycle,elephant,0,0916_stg_s08_0_elephant_00_elephant5-bicycle3.png
subject-08,1,917,NaN,na,airplane,0,0917_stg_s08_0_airplane_00_airplane8-bird1.png
subject-08,1,918,0.796102046966553,keyboard,keyboard,0,0918_stg_s08_0_keyboard_00_keyboard9-airplane3.png
subject-08,1,919,0.73200798034668,clock,car,0,0919_stg_s08_0_car_00_car9-knife1.png
subject-08,1,920,0.908287048339844,dog,bear,0,0920_stg_s08_0_bear_00_bear2-cat2.png
subject-08,1,921,1.16591191291809,bottle,oven,0,0921_stg_s08_0_oven_00_oven8-knife2.png
subject-08,1,922,0.74963116645813,bird,airplane,0,0922_stg_s08_0_airplane_00_airplane8-truck3.png
subject-08,1,923,0.677486896514893,car,boat,0,0923_stg_s08_0_boat_00_boat7-clock3.png
subject-08,1,924,0.870298147201538,elephant,truck,0,0924_stg_s08_0_truck_00_truck10-elephant3.png
subject-08,1,925,1.4896080493927,truck,cat,0,0925_stg_s08_0_cat_00_cat1-bird1.png
subject-08,1,926,0.619388103485107,airplane,keyboard,0,0926_stg_s08_0_keyboard_00_keyboard2-knife1.png
subject-08,1,927,1.13104200363159,airplane,chair,0,0927_stg_s08_0_chair_00_chair9-bird3.png
subject-08,1,928,0.545152902603149,oven,cat,0,0928_stg_s08_0_cat_00_cat10-keyboard1.png
subject-08,1,929,0.643281936645508,keyboard,chair,0,0929_stg_s08_0_chair_00_chair10-bird3.png
subject-08,1,930,0.749191999435425,dog,bicycle,0,0930_stg_s08_0_bicycle_00_bicycle5-dog2.png
subject-08,1,931,0.724604845046997,cat,truck,0,0931_stg_s08_0_truck_00_truck6-bear2.png
subject-08,1,932,0.914350986480713,elephant,dog,0,0932_stg_s08_0_dog_00_dog3-elephant2.png
subject-08,1,933,0.596488952636719,clock,bird,0,0933_stg_s08_0_bird_00_bird4-clock1.png
subject-08,1,934,0.840619087219238,truck,bird,0,0934_stg_s08_0_bird_00_bird9-keyboard1.png
subject-08,1,935,0.683974027633667,elephant,bicycle,0,0935_stg_s08_0_bicycle_00_bicycle7-elephant2.png
subject-08,1,936,0.806051969528198,dog,chair,0,0936_stg_s08_0_chair_00_chair1-dog1.png
subject-08,1,937,1.00371193885803,car,oven,0,0937_stg_s08_0_oven_00_oven9-chair1.png
subject-08,1,938,0.860297918319702,cat,chair,0,0938_stg_s08_0_chair_00_chair6-dog1.png
subject-08,1,939,0.579431056976318,clock,keyboard,0,0939_stg_s08_0_keyboard_00_keyboard6-knife2.png
subject-08,1,940,0.555852890014648,oven,bicycle,0,0940_stg_s08_0_bicycle_00_bicycle1-truck1.png
subject-08,1,941,0.991822957992554,airplane,truck,0,0941_stg_s08_0_truck_00_truck6-clock2.png
subject-08,1,942,0.914108037948608,bear,boat,0,0942_stg_s08_0_boat_00_boat9-cat3.png
subject-08,1,943,0.766162872314453,knife,dog,0,0943_stg_s08_0_dog_00_dog3-knife3.png
subject-08,1,944,0.942193984985352,car,chair,0,0944_stg_s08_0_chair_00_chair7-knife2.png
subject-08,1,945,0.715290069580078,keyboard,dog,0,0945_stg_s08_0_dog_00_dog5-truck2.png
subject-08,1,946,0.751127958297729,cat,clock,0,0946_stg_s08_0_clock_00_clock2-bear2.png
subject-08,1,947,0.672498941421509,bottle,bottle,0,0947_stg_s08_0_bottle_00_bottle9-bottle1.png
subject-08,1,948,0.787435054779053,chair,bottle,0,0948_stg_s08_0_bottle_00_bottle4-car3.png
subject-08,1,949,1.13606309890747,truck,truck,0,0949_stg_s08_0_truck_00_truck7-oven2.png
subject-08,1,950,1.12064790725708,car,oven,0,0950_stg_s08_0_oven_00_oven6-airplane3.png
subject-08,1,951,0.688298940658569,cat,clock,0,0951_stg_s08_0_clock_00_clock8-cat1.png
subject-08,1,952,0.749492883682251,clock,knife,0,0952_stg_s08_0_knife_00_knife1-clock2.png
subject-08,1,953,0.763576984405518,keyboard,bicycle,0,0953_stg_s08_0_bicycle_00_bicycle4-car2.png
subject-08,1,954,0.936882972717285,bicycle,boat,0,0954_stg_s08_0_boat_00_boat5-boat3.png
subject-08,1,955,0.743364095687866,dog,chair,0,0955_stg_s08_0_chair_00_chair8-bear1.png
subject-08,1,956,0.787024021148682,knife,airplane,0,0956_stg_s08_0_airplane_00_airplane5-oven3.png
subject-08,1,957,0.825942993164062,keyboard,boat,0,0957_stg_s08_0_boat_00_boat3-car3.png
subject-08,1,958,1.0699348449707,car,keyboard,0,0958_stg_s08_0_keyboard_00_keyboard3-boat1.png
subject-08,1,959,0.654019117355347,cat,car,0,0959_stg_s08_0_car_00_car8-cat1.png
subject-08,1,960,0.643594980239868,clock,truck,0,0960_stg_s08_0_truck_00_truck1-chair2.png
subject-08,1,961,0.971903800964355,knife,chair,0,0961_stg_s08_0_chair_00_chair9-keyboard2.png
subject-08,1,962,0.956070184707642,airplane,truck,0,0962_stg_s08_0_truck_00_truck1-clock3.png
subject-08,1,963,0.761447191238403,dog,boat,0,0963_stg_s08_0_boat_00_boat7-cat3.png
subject-08,1,964,1.11123490333557,clock,chair,0,0964_stg_s08_0_chair_00_chair9-bottle3.png
subject-08,1,965,0.794915914535522,keyboard,chair,0,0965_stg_s08_0_chair_00_chair3-knife1.png
subject-08,1,966,0.585452079772949,boat,bear,0,0966_stg_s08_0_bear_00_bear8-boat2.png
subject-08,1,967,0.821048021316528,dog,bottle,0,0967_stg_s08_0_bottle_00_bottle7-cat2.png
subject-08,1,968,1.21319603919983,bear,cat,0,0968_stg_s08_0_cat_00_cat10-bird2.png
subject-08,1,969,0.601710796356201,chair,bottle,0,0969_stg_s08_0_bottle_00_bottle7-oven2.png
subject-08,1,970,0.605607986450195,clock,bird,0,0970_stg_s08_0_bird_00_bird10-clock1.png
subject-08,1,971,0.910958051681519,keyboard,airplane,0,0971_stg_s08_0_airplane_00_airplane7-bottle3.png
subject-08,1,972,0.976613998413086,truck,knife,0,0972_stg_s08_0_knife_00_knife2-car3.png
subject-08,1,973,0.836459159851074,bird,clock,0,0973_stg_s08_0_clock_00_clock8-airplane2.png
subject-08,1,974,0.726301193237305,clock,cat,0,0974_stg_s08_0_cat_00_cat4-clock2.png
subject-08,1,975,0.823596954345703,knife,dog,0,0975_stg_s08_0_dog_00_dog4-oven1.png
subject-08,1,976,0.808866024017334,keyboard,oven,0,0976_stg_s08_0_oven_00_oven9-clock2.png
subject-08,1,977,0.744626998901367,chair,keyboard,0,0977_stg_s08_0_keyboard_00_keyboard10-oven3.png
subject-08,1,978,0.863181114196777,knife,dog,0,0978_stg_s08_0_dog_00_dog7-keyboard3.png
subject-08,1,979,1.22620391845703,clock,bicycle,0,0979_stg_s08_0_bicycle_00_bicycle5-oven3.png
subject-08,1,980,0.724725008010864,keyboard,knife,0,0980_stg_s08_0_knife_00_knife1-oven1.png
subject-08,1,981,0.660340070724487,cat,bear,0,0981_stg_s08_0_bear_00_bear10-cat2.png
subject-08,1,982,0.695421934127808,bicycle,truck,0,0982_stg_s08_0_truck_00_truck7-bird2.png
subject-08,1,983,1.19378399848938,bear,bicycle,0,0983_stg_s08_0_bicycle_00_bicycle8-bird2.png
subject-08,1,984,0.869828939437866,dog,cat,0,0984_stg_s08_0_cat_00_cat8-bear1.png
subject-08,1,985,0.881008863449097,cat,truck,0,0985_stg_s08_0_truck_00_truck7-bear2.png
subject-08,1,986,0.978600978851318,bottle,clock,0,0986_stg_s08_0_clock_00_clock7-bottle2.png
subject-08,1,987,0.714962959289551,bird,airplane,0,0987_stg_s08_0_airplane_00_airplane6-chair3.png
subject-08,1,988,0.72006893157959,car,truck,0,0988_stg_s08_0_truck_00_truck9-chair3.png
subject-08,1,989,0.956606149673462,dog,knife,0,0989_stg_s08_0_knife_00_knife2-dog1.png
subject-08,1,990,1.06166791915894,cat,bird,0,0990_stg_s08_0_bird_00_bird5-car2.png
subject-08,1,991,1.09020209312439,knife,boat,0,0991_stg_s08_0_boat_00_boat8-oven1.png
subject-08,1,992,0.773936033248901,keyboard,knife,0,0992_stg_s08_0_knife_00_knife2-truck2.png
subject-08,1,993,1.28086400032043,clock,bicycle,0,0993_stg_s08_0_bicycle_00_bicycle4-chair2.png
subject-08,1,994,0.941510915756226,chair,chair,0,0994_stg_s08_0_chair_00_chair7-boat3.png
subject-08,1,995,0.716711044311523,clock,bottle,0,0995_stg_s08_0_bottle_00_bottle5-clock3.png
subject-08,1,996,0.836848020553589,dog,cat,0,0996_stg_s08_0_cat_00_cat9-dog2.png
subject-08,1,997,0.980551958084106,keyboard,clock,0,0997_stg_s08_0_clock_00_clock6-knife2.png
subject-08,1,998,0.786212921142578,car,oven,0,0998_stg_s08_0_oven_00_oven3-bottle3.png
subject-08,1,999,0.737933158874512,chair,clock,0,0999_stg_s08_0_clock_00_clock1-boat3.png
subject-08,1,1000,1.30369305610657,truck,truck,0,1000_stg_s08_0_truck_00_truck3-keyboard3.png
subject-08,1,1001,1.07182884216309,car,knife,0,1001_stg_s08_0_knife_00_knife5-oven2.png
subject-08,1,1002,0.747968912124634,keyboard,car,0,1002_stg_s08_0_car_00_car5-oven2.png
subject-08,1,1003,0.645777940750122,cat,boat,0,1003_stg_s08_0_boat_00_boat3-cat3.png
subject-08,1,1004,0.935721874237061,boat,oven,0,1004_stg_s08_0_oven_00_oven2-chair1.png
subject-08,1,1005,1.04716801643372,bird,bird,0,1005_stg_s08_0_bird_00_bird6-boat2.png
subject-08,1,1006,0.998439073562622,bird,bottle,0,1006_stg_s08_0_bottle_00_bottle3-airplane2.png
subject-08,1,1007,0.743038892745972,chair,dog,0,1007_stg_s08_0_dog_00_dog2-bicycle2.png
subject-08,1,1008,1.30308318138123,bicycle,boat,0,1008_stg_s08_0_boat_00_boat4-knife2.png
subject-08,1,1009,0.763053894042969,bird,bird,0,1009_stg_s08_0_bird_00_bird1-airplane2.png
subject-08,1,1010,0.906053781509399,keyboard,car,0,1010_stg_s08_0_car_00_car1-keyboard2.png
subject-08,1,1011,0.933523893356323,dog,clock,0,1011_stg_s08_0_clock_00_clock9-cat1.png
subject-08,1,1012,0.985532999038696,truck,oven,0,1012_stg_s08_0_oven_00_oven1-boat3.png
subject-08,1,1013,0.637686967849731,oven,keyboard,0,1013_stg_s08_0_keyboard_00_keyboard8-airplane2.png
subject-08,1,1014,0.873039960861206,knife,elephant,0,1014_stg_s08_0_elephant_00_elephant6-oven1.png
subject-08,1,1015,0.7567458152771,dog,bicycle,0,1015_stg_s08_0_bicycle_00_bicycle1-dog3.png
subject-08,1,1016,0.747178077697754,knife,bear,0,1016_stg_s08_0_bear_00_bear5-airplane3.png
subject-08,1,1017,0.969601154327393,airplane,airplane,0,1017_stg_s08_0_airplane_00_airplane5-knife1.png
subject-08,1,1018,0.743304014205933,dog,bear,0,1018_stg_s08_0_bear_00_bear2-dog1.png
subject-08,1,1019,0.750054836273193,cat,boat,0,1019_stg_s08_0_boat_00_boat8-dog3.png
subject-08,1,1020,0.763948917388916,boat,chair,0,1020_stg_s08_0_chair_00_chair8-keyboard3.png
subject-08,1,1021,0.670002937316895,elephant,bird,0,1021_stg_s08_0_bird_00_bird10-elephant2.png
subject-08,1,1022,1.20598196983337,bicycle,cat,0,1022_stg_s08_0_cat_00_cat9-chair2.png
subject-08,1,1023,1.18733406066895,elephant,airplane,0,1023_stg_s08_0_airplane_00_airplane5-bird2.png
subject-08,1,1024,1.23946094512939,keyboard,cat,0,1024_stg_s08_0_cat_00_cat2-boat2.png
subject-08,1,1025,0.867151021957397,dog,bird,0,1025_stg_s08_0_bird_00_bird1-bear1.png
subject-08,1,1026,0.665086984634399,oven,chair,0,1026_stg_s08_0_chair_00_chair2-knife1.png
subject-08,1,1027,0.70901894569397,knife,cat,0,1027_stg_s08_0_cat_00_cat10-oven2.png
subject-08,1,1028,0.822968006134033,airplane,car,0,1028_stg_s08_0_car_00_car3-boat1.png
subject-08,1,1029,0.707515001296997,keyboard,car,0,1029_stg_s08_0_car_00_car4-oven2.png
subject-08,1,1030,0.759277105331421,knife,airplane,0,1030_stg_s08_0_airplane_00_airplane6-keyboard3.png
subject-08,1,1031,0.671474933624268,car,airplane,0,1031_stg_s08_0_airplane_00_airplane9-knife3.png
subject-08,1,1032,0.676748991012573,truck,knife,0,1032_stg_s08_0_knife_00_knife1-truck2.png
subject-08,1,1033,0.760869979858398,keyboard,elephant,0,1033_stg_s08_0_elephant_00_elephant4-boat3.png
subject-08,1,1034,1.5002110004425,bottle,clock,0,1034_stg_s08_0_clock_00_clock9-airplane1.png
subject-08,1,1035,1.08742904663086,chair,oven,0,1035_stg_s08_0_oven_00_oven7-clock2.png
subject-08,1,1036,0.785088062286377,oven,clock,0,1036_stg_s08_0_clock_00_clock3-bird1.png
subject-08,1,1037,0.631274938583374,car,dog,0,1037_stg_s08_0_dog_00_dog10-truck2.png
subject-08,1,1038,1.09169507026672,bird,bear,0,1038_stg_s08_0_bear_00_bear6-car2.png
subject-08,1,1039,0.71346116065979,airplane,chair,0,1039_stg_s08_0_chair_00_chair4-oven2.png
subject-08,1,1040,0.803369998931885,dog,car,0,1040_stg_s08_0_car_00_car8-bear1.png
subject-08,1,1041,0.676220893859863,bear,dog,0,1041_stg_s08_0_dog_00_dog3-dog1.png
subject-08,1,1042,0.86105489730835,airplane,keyboard,0,1042_stg_s08_0_keyboard_00_keyboard9-boat2.png
subject-08,1,1043,0.742720127105713,cat,knife,0,1043_stg_s08_0_knife_00_knife2-bicycle3.png
subject-08,1,1044,1.07024216651917,car,knife,0,1044_stg_s08_0_knife_00_knife10-knife1.png
subject-08,1,1045,0.775372982025146,bird,car,0,1045_stg_s08_0_car_00_car4-car2.png
subject-08,1,1046,0.827336072921753,keyboard,keyboard,0,1046_stg_s08_0_keyboard_00_keyboard3-clock3.png
subject-08,1,1047,0.762718915939331,truck,oven,0,1047_stg_s08_0_oven_00_oven3-car2.png
subject-08,1,1048,0.776276826858521,dog,clock,0,1048_stg_s08_0_clock_00_clock10-dog3.png
subject-08,1,1049,0.899034976959229,bicycle,cat,0,1049_stg_s08_0_cat_00_cat2-truck3.png
subject-08,1,1050,0.61371898651123,cat,truck,0,1050_stg_s08_0_truck_00_truck1-cat1.png
subject-08,1,1051,0.657904863357544,airplane,keyboard,0,1051_stg_s08_0_keyboard_00_keyboard7-car3.png
subject-08,1,1052,0.755681991577148,car,airplane,0,1052_stg_s08_0_airplane_00_airplane10-car3.png
subject-08,1,1053,0.869018077850342,boat,airplane,0,1053_stg_s08_0_airplane_00_airplane7-bird3.png
subject-08,1,1054,0.872756958007812,oven,cat,0,1054_stg_s08_0_cat_00_cat1-boat1.png
subject-08,1,1055,0.595208883285522,chair,cat,0,1055_stg_s08_0_cat_00_cat5-boat1.png
subject-08,1,1056,0.900413036346436,knife,boat,0,1056_stg_s08_0_boat_00_boat10-oven1.png
subject-08,1,1057,0.831195116043091,cat,knife,0,1057_stg_s08_0_knife_00_knife8-cat2.png
subject-08,1,1058,0.688493013381958,dog,bicycle,0,1058_stg_s08_0_bicycle_00_bicycle7-cat1.png
subject-08,1,1059,0.849406957626343,bear,cat,0,1059_stg_s08_0_cat_00_cat4-bird2.png
subject-08,1,1060,0.757408857345581,car,elephant,0,1060_stg_s08_0_elephant_00_elephant6-bicycle1.png
subject-08,1,1061,0.593685865402222,elephant,bear,0,1061_stg_s08_0_bear_00_bear8-elephant2.png
subject-08,1,1062,0.799811124801636,oven,truck,0,1062_stg_s08_0_truck_00_truck3-car3.png
subject-08,1,1063,0.622205972671509,truck,truck,0,1063_stg_s08_0_truck_00_truck10-truck3.png
subject-08,1,1064,0.72777795791626,airplane,keyboard,0,1064_stg_s08_0_keyboard_00_keyboard1-bird2.png
subject-08,1,1065,0.863685846328735,knife,bicycle,0,1065_stg_s08_0_bicycle_00_bicycle4-knife3.png
subject-08,1,1066,0.701550006866455,car,airplane,0,1066_stg_s08_0_airplane_00_airplane8-bicycle3.png
subject-08,1,1067,0.659388780593872,elephant,chair,0,1067_stg_s08_0_chair_00_chair8-elephant1.png
subject-08,1,1068,1.15756297111511,dog,elephant,0,1068_stg_s08_0_elephant_00_elephant3-cat2.png
subject-08,1,1069,0.901199102401733,knife,bear,0,1069_stg_s08_0_bear_00_bear4-oven2.png
subject-08,1,1070,0.723713159561157,dog,bird,0,1070_stg_s08_0_bird_00_bird3-bear3.png
subject-08,1,1071,0.637737989425659,cat,cat,0,1071_stg_s08_0_cat_00_cat9-bird3.png
subject-08,1,1072,0.951431035995483,truck,knife,0,1072_stg_s08_0_knife_00_knife4-boat1.png
subject-08,1,1073,0.711365222930908,airplane,airplane,0,1073_stg_s08_0_airplane_00_airplane10-knife3.png
subject-08,1,1074,0.855293989181519,keyboard,bottle,0,1074_stg_s08_0_bottle_00_bottle5-airplane1.png
subject-08,1,1075,0.761317014694214,chair,bicycle,0,1075_stg_s08_0_bicycle_00_bicycle1-bird1.png
subject-08,1,1076,0.935153961181641,bicycle,dog,0,1076_stg_s08_0_dog_00_dog2-bottle2.png
subject-08,1,1077,0.811011075973511,oven,bear,0,1077_stg_s08_0_bear_00_bear3-bicycle2.png
subject-08,1,1078,0.768926858901978,knife,bird,0,1078_stg_s08_0_bird_00_bird3-knife3.png
subject-08,1,1079,0.828517913818359,dog,airplane,0,1079_stg_s08_0_airplane_00_airplane10-cat2.png
subject-08,1,1080,0.818530082702637,bird,truck,0,1080_stg_s08_0_truck_00_truck2-chair1.png
subject-08,1,1081,0.975014925003052,oven,keyboard,0,1081_stg_s08_0_keyboard_00_keyboard1-car3.png
subject-08,1,1082,0.78016209602356,bottle,chair,0,1082_stg_s08_0_chair_00_chair5-clock2.png
subject-08,1,1083,0.853910207748413,cat,car,0,1083_stg_s08_0_car_00_car2-cat3.png
subject-08,1,1084,0.721317052841187,bottle,boat,0,1084_stg_s08_0_boat_00_boat2-bottle2.png
subject-08,1,1085,0.835623025894165,truck,dog,0,1085_stg_s08_0_dog_00_dog1-boat3.png
subject-08,1,1086,0.779720067977905,car,bird,0,1086_stg_s08_0_bird_00_bird10-bird2.png
subject-08,1,1087,1.30715107917786,keyboard,oven,0,1087_stg_s08_0_oven_00_oven5-bottle3.png
subject-08,1,1088,0.799878120422363,bicycle,bicycle,0,1088_stg_s08_0_bicycle_00_bicycle5-car3.png
subject-08,1,1089,0.904029846191406,dog,bicycle,0,1089_stg_s08_0_bicycle_00_bicycle6-cat1.png
subject-08,1,1090,0.780038118362427,cat,bicycle,0,1090_stg_s08_0_bicycle_00_bicycle4-cat1.png
subject-08,1,1091,0.932021856307983,truck,airplane,0,1091_stg_s08_0_airplane_00_airplane8-clock2.png
subject-08,1,1092,0.860165119171143,elephant,truck,0,1092_stg_s08_0_truck_00_truck6-knife2.png
subject-08,1,1093,1.22847008705139,airplane,dog,0,1093_stg_s08_0_dog_00_dog3-bird2.png
subject-08,1,1094,0.89411997795105,car,bear,0,1094_stg_s08_0_bear_00_bear10-clock1.png
subject-08,1,1095,0.670269012451172,cat,bird,0,1095_stg_s08_0_bird_00_bird7-cat3.png
subject-08,1,1096,0.769059896469116,cat,keyboard,0,1096_stg_s08_0_keyboard_00_keyboard3-cat1.png
