subj,session,trial,rt,object_response,category,condition,imagename
subject-02,1,1,1.08298492431641,cat,truck,0,0001_stg_s02_0_truck_00_truck9-chair3.png
subject-02,1,2,0.536566972732544,cat,cat,0,0002_stg_s02_0_cat_00_cat7-clock3.png
subject-02,1,3,0.588479042053223,chair,chair,0,0003_stg_s02_0_chair_00_chair1-chair1.png
subject-02,1,4,0.455873966217041,car,car,0,0004_stg_s02_0_car_00_car9-clock2.png
subject-02,1,5,0.608380079269409,clock,bottle,0,0005_stg_s02_0_bottle_00_bottle9-keyboard1.png
subject-02,1,6,0.751194953918457,oven,oven,0,0006_stg_s02_0_oven_00_oven10-cat2.png
subject-02,1,7,0.602825880050659,bottle,bottle,0,0007_stg_s02_0_bottle_00_bottle7-airplane3.png
subject-02,1,8,0.632843971252441,clock,clock,0,0008_stg_s02_0_clock_00_clock10-dog3.png
subject-02,1,9,0.577114105224609,chair,chair,0,0009_stg_s02_0_chair_00_chair7-clock3.png
subject-02,1,10,0.874387979507446,keyboard,keyboard,0,0010_stg_s02_0_keyboard_00_keyboard5-bottle1.png
subject-02,1,11,0.833858013153076,truck,car,0,0011_stg_s02_0_car_00_car5-airplane3.png
subject-02,1,12,0.95582914352417,car,car,0,0012_stg_s02_0_car_00_car2-bird3.png
subject-02,1,13,0.907480955123901,truck,truck,0,0013_stg_s02_0_truck_00_truck9-elephant1.png
subject-02,1,14,0.983527898788452,truck,truck,0,0014_stg_s02_0_truck_00_truck3-cat1.png
subject-02,1,15,0.577115058898926,clock,knife,0,0015_stg_s02_0_knife_00_knife3-clock2.png
subject-02,1,16,1.33490085601807,dog,dog,0,0016_stg_s02_0_dog_00_dog4-chair1.png
subject-02,1,17,0.818297147750854,bird,bird,0,0017_stg_s02_0_bird_00_bird7-bird2.png
subject-02,1,18,1.01314902305603,elephant,bear,0,0018_stg_s02_0_bear_00_bear6-bear1.png
subject-02,1,19,0.758773803710938,knife,knife,0,0019_stg_s02_0_knife_00_knife6-bottle3.png
subject-02,1,20,0.672642946243286,bear,bear,0,0020_stg_s02_0_bear_00_bear5-bottle1.png
subject-02,1,21,0.762717962265015,elephant,bear,0,0021_stg_s02_0_bear_00_bear7-truck1.png
subject-02,1,22,0.760396957397461,keyboard,truck,0,0022_stg_s02_0_truck_00_truck3-keyboard3.png
subject-02,1,23,0.689954996109009,clock,boat,0,0023_stg_s02_0_boat_00_boat3-keyboard2.png
subject-02,1,24,0.462788105010986,clock,clock,0,0024_stg_s02_0_clock_00_clock3-car2.png
subject-02,1,25,0.738557100296021,knife,knife,0,0025_stg_s02_0_knife_00_knife5-bicycle2.png
subject-02,1,26,0.906427145004272,bear,elephant,0,0026_stg_s02_0_elephant_00_elephant4-boat3.png
subject-02,1,27,0.528586864471436,cat,cat,0,0027_stg_s02_0_cat_00_cat5-airplane2.png
subject-02,1,28,1.42399287223816,elephant,bear,0,0028_stg_s02_0_bear_00_bear3-truck3.png
subject-02,1,29,0.837313890457153,clock,boat,0,0029_stg_s02_0_boat_00_boat6-dog1.png
subject-02,1,30,0.604518890380859,bottle,bottle,0,0030_stg_s02_0_bottle_00_bottle7-boat3.png
subject-02,1,31,0.702080965042114,oven,oven,0,0031_stg_s02_0_oven_00_oven4-elephant3.png
subject-02,1,32,0.94550085067749,dog,dog,0,0032_stg_s02_0_dog_00_dog9-bottle1.png
subject-02,1,33,0.900676965713501,oven,oven,0,0033_stg_s02_0_oven_00_oven3-boat3.png
subject-02,1,34,0.760568857192993,elephant,elephant,0,0034_stg_s02_0_elephant_00_elephant9-dog3.png
subject-02,1,35,0.879696130752563,bird,bird,0,0035_stg_s02_0_bird_00_bird5-bear3.png
subject-02,1,36,0.76990818977356,chair,chair,0,0036_stg_s02_0_chair_00_chair10-bottle3.png
subject-02,1,37,0.90733003616333,truck,airplane,0,0037_stg_s02_0_airplane_00_airplane4-bicycle2.png
subject-02,1,38,0.589585065841675,boat,airplane,0,0038_stg_s02_0_airplane_00_airplane10-dog3.png
subject-02,1,39,0.689558982849121,airplane,airplane,0,0039_stg_s02_0_airplane_00_airplane7-bird3.png
subject-02,1,40,0.908812999725342,bird,bird,0,0040_stg_s02_0_bird_00_bird9-dog2.png
subject-02,1,41,0.816979169845581,elephant,elephant,0,0041_stg_s02_0_elephant_00_elephant10-elephant1.png
subject-02,1,42,1.07758092880249,bird,bear,0,0042_stg_s02_0_bear_00_bear6-car2.png
subject-02,1,43,0.9131019115448,keyboard,keyboard,0,0043_stg_s02_0_keyboard_00_keyboard1-elephant3.png
subject-02,1,44,0.810372829437256,clock,clock,0,0044_stg_s02_0_clock_00_clock5-airplane1.png
subject-02,1,45,0.70234203338623,chair,chair,0,0045_stg_s02_0_chair_00_chair4-truck2.png
subject-02,1,46,0.7380211353302,bear,bear,0,0046_stg_s02_0_bear_00_bear10-elephant1.png
subject-02,1,47,0.606065988540649,cat,cat,0,0047_stg_s02_0_cat_00_cat6-oven1.png
subject-02,1,48,0.623368978500366,bird,bird,0,0048_stg_s02_0_bird_00_bird1-bear1.png
subject-02,1,49,0.613059997558594,bottle,bottle,0,0049_stg_s02_0_bottle_00_bottle9-bottle1.png
subject-02,1,50,0.680485963821411,knife,knife,0,0050_stg_s02_0_knife_00_knife10-knife1.png
subject-02,1,51,0.945830106735229,bicycle,bicycle,0,0051_stg_s02_0_bicycle_00_bicycle4-knife3.png
subject-02,1,52,0.959365129470825,cat,dog,0,0052_stg_s02_0_dog_00_dog10-keyboard2.png
subject-02,1,53,0.627201080322266,bicycle,bicycle,0,0053_stg_s02_0_bicycle_00_bicycle4-keyboard3.png
subject-02,1,54,0.624558925628662,dog,dog,0,0054_stg_s02_0_dog_00_dog9-bear3.png
subject-02,1,55,0.81470513343811,elephant,elephant,0,0055_stg_s02_0_elephant_00_elephant6-oven1.png
subject-02,1,56,0.752519845962524,knife,knife,0,0056_stg_s02_0_knife_00_knife5-knife3.png
subject-02,1,57,0.704385042190552,bicycle,bicycle,0,0057_stg_s02_0_bicycle_00_bicycle4-boat1.png
subject-02,1,58,0.534507036209106,bottle,bottle,0,0058_stg_s02_0_bottle_00_bottle6-knife3.png
subject-02,1,59,0.66209602355957,chair,chair,0,0059_stg_s02_0_chair_00_chair5-boat3.png
subject-02,1,60,0.683929920196533,bird,bird,0,0060_stg_s02_0_bird_00_bird6-car3.png
subject-02,1,61,0.935930967330933,knife,boat,0,0061_stg_s02_0_boat_00_boat4-car3.png
subject-02,1,62,0.733678102493286,keyboard,keyboard,0,0062_stg_s02_0_keyboard_00_keyboard6-bicycle1.png
subject-02,1,63,0.715189933776855,truck,truck,0,0063_stg_s02_0_truck_00_truck5-car1.png
subject-02,1,64,0.929621934890747,truck,truck,0,0064_stg_s02_0_truck_00_truck2-car3.png
subject-02,1,65,1.18887996673584,boat,boat,0,0065_stg_s02_0_boat_00_boat6-clock2.png
subject-02,1,66,0.710798978805542,oven,bottle,0,0066_stg_s02_0_bottle_00_bottle1-keyboard3.png
subject-02,1,67,0.624530076980591,cat,cat,0,0067_stg_s02_0_cat_00_cat2-bottle3.png
subject-02,1,68,0.722355842590332,bird,bird,0,0068_stg_s02_0_bird_00_bird8-car2.png
subject-02,1,69,0.82832407951355,knife,airplane,0,0069_stg_s02_0_airplane_00_airplane4-knife1.png
subject-02,1,70,0.934180974960327,keyboard,keyboard,0,0070_stg_s02_0_keyboard_00_keyboard9-boat2.png
subject-02,1,71,0.680546045303345,truck,truck,0,0071_stg_s02_0_truck_00_truck2-boat3.png
subject-02,1,72,0.670110940933228,chair,chair,0,0072_stg_s02_0_chair_00_chair9-bicycle3.png
subject-02,1,73,0.575549125671387,truck,truck,0,0073_stg_s02_0_truck_00_truck5-bird2.png
subject-02,1,74,1.00328898429871,boat,boat,0,0074_stg_s02_0_boat_00_boat3-chair3.png
subject-02,1,75,0.471256971359253,chair,chair,0,0075_stg_s02_0_chair_00_chair10-oven1.png
subject-02,1,76,0.831423044204712,knife,knife,0,0076_stg_s02_0_knife_00_knife1-car3.png
subject-02,1,77,0.766574859619141,elephant,bird,0,0077_stg_s02_0_bird_00_bird3-bear3.png
subject-02,1,78,0.550419807434082,truck,truck,0,0078_stg_s02_0_truck_00_truck10-clock1.png
subject-02,1,79,0.754024982452393,car,car,0,0079_stg_s02_0_car_00_car10-car1.png
subject-02,1,80,0.775444984436035,bird,cat,0,0080_stg_s02_0_cat_00_cat10-airplane3.png
subject-02,1,81,0.918898105621338,dog,dog,0,0081_stg_s02_0_dog_00_dog8-bear3.png
subject-02,1,82,0.716944932937622,bird,bird,0,0082_stg_s02_0_bird_00_bird5-car2.png
subject-02,1,83,0.701372861862183,bird,bird,0,0083_stg_s02_0_bird_00_bird3-truck3.png
subject-02,1,84,0.967388868331909,bottle,bottle,0,0084_stg_s02_0_bottle_00_bottle9-oven2.png
subject-02,1,85,0.672509908676147,elephant,elephant,0,0085_stg_s02_0_elephant_00_elephant1-dog2.png
subject-02,1,86,0.888947010040283,oven,cat,0,0086_stg_s02_0_cat_00_cat10-oven2.png
subject-02,1,87,0.632936000823975,car,car,0,0087_stg_s02_0_car_00_car4-clock1.png
subject-02,1,88,0.868886947631836,bear,bear,0,0088_stg_s02_0_bear_00_bear1-clock2.png
subject-02,1,89,0.837372064590454,truck,truck,0,0089_stg_s02_0_truck_00_truck1-clock3.png
subject-02,1,90,0.613296985626221,bottle,bottle,0,0090_stg_s02_0_bottle_00_bottle10-dog1.png
subject-02,1,91,1.0245349407196,elephant,elephant,0,0091_stg_s02_0_elephant_00_elephant6-dog2.png
subject-02,1,92,1.0519540309906,bicycle,bicycle,0,0092_stg_s02_0_bicycle_00_bicycle5-oven3.png
subject-02,1,93,0.898290157318115,elephant,elephant,0,0093_stg_s02_0_elephant_00_elephant3-oven1.png
subject-02,1,94,0.849982976913452,bottle,bottle,0,0094_stg_s02_0_bottle_00_bottle9-car3.png
subject-02,1,95,0.763935089111328,dog,dog,0,0095_stg_s02_0_dog_00_dog9-bicycle3.png
subject-02,1,96,0.738173007965088,elephant,elephant,0,0096_stg_s02_0_elephant_00_elephant6-bird1.png
subject-02,1,97,0.789813995361328,knife,knife,0,0097_stg_s02_0_knife_00_knife9-boat1.png
subject-02,1,98,1.50009298324585,bear,bear,0,0098_stg_s02_0_bear_00_bear9-bottle2.png
subject-02,1,99,0.539837121963501,cat,cat,0,0099_stg_s02_0_cat_00_cat1-airplane1.png
subject-02,1,100,0.707708120346069,bottle,bottle,0,0100_stg_s02_0_bottle_00_bottle8-keyboard3.png
subject-02,1,101,0.675255060195923,oven,elephant,0,0101_stg_s02_0_elephant_00_elephant2-keyboard3.png
subject-02,1,102,0.711596012115479,airplane,airplane,0,0102_stg_s02_0_airplane_00_airplane10-car3.png
subject-02,1,103,0.73376202583313,knife,knife,0,0103_stg_s02_0_knife_00_knife4-oven2.png
subject-02,1,104,0.753631114959717,dog,dog,0,0104_stg_s02_0_dog_00_dog3-bear3.png
subject-02,1,105,0.591422080993652,cat,cat,0,0105_stg_s02_0_cat_00_cat2-knife3.png
subject-02,1,106,0.710717916488647,knife,knife,0,0106_stg_s02_0_knife_00_knife1-clock2.png
subject-02,1,107,0.616302013397217,car,car,0,0107_stg_s02_0_car_00_car9-keyboard2.png
subject-02,1,108,0.589561939239502,oven,oven,0,0108_stg_s02_0_oven_00_oven9-boat2.png
subject-02,1,109,0.657463073730469,bear,bear,0,0109_stg_s02_0_bear_00_bear4-knife1.png
subject-02,1,110,0.890712022781372,truck,truck,0,0110_stg_s02_0_truck_00_truck3-car3.png
subject-02,1,111,1.20520710945129,bear,bear,0,0111_stg_s02_0_bear_00_bear9-dog1.png
subject-02,1,112,0.656170129776001,boat,boat,0,0112_stg_s02_0_boat_00_boat1-bear1.png
subject-02,1,113,0.6616370677948,clock,clock,0,0113_stg_s02_0_clock_00_clock1-boat3.png
subject-02,1,114,0.721428155899048,dog,dog,0,0114_stg_s02_0_dog_00_dog1-cat3.png
subject-02,1,115,0.781385898590088,knife,bird,0,0115_stg_s02_0_bird_00_bird3-knife3.png
subject-02,1,116,0.771337032318115,clock,clock,0,0116_stg_s02_0_clock_00_clock3-keyboard3.png
subject-02,1,117,1.06924104690552,knife,knife,0,0117_stg_s02_0_knife_00_knife1-truck2.png
subject-02,1,118,0.629000902175903,bottle,bottle,0,0118_stg_s02_0_bottle_00_bottle5-boat1.png
subject-02,1,119,0.810593843460083,oven,oven,0,0119_stg_s02_0_oven_00_oven6-chair3.png
subject-02,1,120,0.624036073684692,bottle,bottle,0,0120_stg_s02_0_bottle_00_bottle5-keyboard2.png
subject-02,1,121,0.601915836334229,bicycle,bicycle,0,0121_stg_s02_0_bicycle_00_bicycle6-car2.png
subject-02,1,122,0.645786046981812,bear,bear,0,0122_stg_s02_0_bear_00_bear8-bicycle3.png
subject-02,1,123,0.629611968994141,oven,boat,0,0123_stg_s02_0_boat_00_boat9-keyboard2.png
subject-02,1,124,0.679233074188232,bird,bear,0,0124_stg_s02_0_bear_00_bear6-cat3.png
subject-02,1,125,0.800981044769287,bird,bird,0,0125_stg_s02_0_bird_00_bird7-car2.png
subject-02,1,126,0.71453595161438,truck,truck,0,0126_stg_s02_0_truck_00_truck7-boat1.png
subject-02,1,127,0.591813087463379,chair,chair,0,0127_stg_s02_0_chair_00_chair1-clock2.png
subject-02,1,128,0.527694940567017,bird,bird,0,0128_stg_s02_0_bird_00_bird5-truck2.png
subject-02,1,129,0.841877937316895,knife,knife,0,0129_stg_s02_0_knife_00_knife3-bear2.png
subject-02,1,130,0.815270900726318,bicycle,bicycle,0,0130_stg_s02_0_bicycle_00_bicycle1-airplane2.png
subject-02,1,131,0.658569097518921,clock,clock,0,0131_stg_s02_0_clock_00_clock6-oven1.png
subject-02,1,132,1.0488109588623,bird,dog,0,0132_stg_s02_0_dog_00_dog3-boat1.png
subject-02,1,133,0.861912965774536,bottle,bottle,0,0133_stg_s02_0_bottle_00_bottle7-clock1.png
subject-02,1,134,1.03044509887695,dog,bear,0,0134_stg_s02_0_bear_00_bear6-boat3.png
subject-02,1,135,0.573982000350952,bear,bear,0,0135_stg_s02_0_bear_00_bear1-bicycle3.png
subject-02,1,136,0.582513093948364,bird,bird,0,0136_stg_s02_0_bird_00_bird9-chair1.png
subject-02,1,137,0.75616192817688,car,car,0,0137_stg_s02_0_car_00_car6-elephant3.png
subject-02,1,138,0.600228071212769,cat,cat,0,0138_stg_s02_0_cat_00_cat9-truck1.png
subject-02,1,139,0.636033058166504,chair,chair,0,0139_stg_s02_0_chair_00_chair8-bear1.png
subject-02,1,140,0.911779880523682,clock,clock,0,0140_stg_s02_0_clock_00_clock9-airplane1.png
subject-02,1,141,0.893491983413696,truck,truck,0,0141_stg_s02_0_truck_00_truck6-dog2.png
subject-02,1,142,0.69925594329834,car,bird,0,0142_stg_s02_0_bird_00_bird8-keyboard2.png
subject-02,1,143,0.735343933105469,bicycle,bicycle,0,0143_stg_s02_0_bicycle_00_bicycle2-bird3.png
subject-02,1,144,0.657310962677002,bear,bear,0,0144_stg_s02_0_bear_00_bear2-cat2.png
subject-02,1,145,0.879900932312012,airplane,airplane,0,0145_stg_s02_0_airplane_00_airplane1-elephant1.png
subject-02,1,146,0.853291034698486,oven,keyboard,0,0146_stg_s02_0_keyboard_00_keyboard4-bird1.png
subject-02,1,147,0.851679086685181,truck,truck,0,0147_stg_s02_0_truck_00_truck1-bird1.png
subject-02,1,148,1.00335311889648,elephant,elephant,0,0148_stg_s02_0_elephant_00_elephant1-chair1.png
subject-02,1,149,0.693250894546509,bottle,bottle,0,0149_stg_s02_0_bottle_00_bottle6-bird1.png
subject-02,1,150,0.769277811050415,dog,dog,0,0150_stg_s02_0_dog_00_dog8-oven3.png
subject-02,1,151,0.589027881622314,oven,oven,0,0151_stg_s02_0_oven_00_oven2-bear3.png
subject-02,1,152,0.865170001983643,knife,boat,0,0152_stg_s02_0_boat_00_boat8-bottle1.png
subject-02,1,153,0.701256990432739,keyboard,keyboard,0,0153_stg_s02_0_keyboard_00_keyboard9-airplane3.png
subject-02,1,154,0.799247026443481,airplane,airplane,0,0154_stg_s02_0_airplane_00_airplane7-clock3.png
subject-02,1,155,0.543563842773438,clock,clock,0,0155_stg_s02_0_clock_00_clock8-boat1.png
subject-02,1,156,0.787235975265503,dog,dog,0,0156_stg_s02_0_dog_00_dog7-keyboard3.png
subject-02,1,157,0.609189033508301,boat,boat,0,0157_stg_s02_0_boat_00_boat9-cat3.png
subject-02,1,158,0.820690870285034,car,car,0,0158_stg_s02_0_car_00_car7-bear1.png
subject-02,1,159,0.727082014083862,bear,elephant,0,0159_stg_s02_0_elephant_00_elephant1-keyboard3.png
subject-02,1,160,0.624696969985962,bottle,bottle,0,0160_stg_s02_0_bottle_00_bottle4-car3.png
subject-02,1,161,0.82181191444397,bicycle,bicycle,0,0161_stg_s02_0_bicycle_00_bicycle1-elephant2.png
subject-02,1,162,0.698073863983154,car,car,0,0162_stg_s02_0_car_00_car8-bicycle2.png
subject-02,1,163,0.571737051010132,oven,airplane,0,0163_stg_s02_0_airplane_00_airplane3-keyboard2.png
subject-02,1,164,1.00737500190735,dog,dog,0,0164_stg_s02_0_dog_00_dog3-elephant2.png
subject-02,1,165,0.613214015960693,car,car,0,0165_stg_s02_0_car_00_car3-boat1.png
subject-02,1,166,0.719144105911255,keyboard,keyboard,0,0166_stg_s02_0_keyboard_00_keyboard1-bear2.png
subject-02,1,167,0.792953968048096,bottle,bottle,0,0167_stg_s02_0_bottle_00_bottle4-airplane1.png
subject-02,1,168,0.652146816253662,knife,knife,0,0168_stg_s02_0_knife_00_knife6-boat3.png
subject-02,1,169,0.947767972946167,keyboard,keyboard,0,0169_stg_s02_0_keyboard_00_keyboard5-dog3.png
subject-02,1,170,0.653069019317627,bicycle,bicycle,0,0170_stg_s02_0_bicycle_00_bicycle5-dog2.png
subject-02,1,171,0.975291013717651,car,car,0,0171_stg_s02_0_car_00_car1-chair3.png
subject-02,1,172,0.918492078781128,bear,bear,0,0172_stg_s02_0_bear_00_bear1-airplane3.png
subject-02,1,173,0.778604984283447,bottle,bottle,0,0173_stg_s02_0_bottle_00_bottle1-bear1.png
subject-02,1,174,0.705986022949219,elephant,elephant,0,0174_stg_s02_0_elephant_00_elephant4-clock3.png
subject-02,1,175,0.687894105911255,dog,dog,0,0175_stg_s02_0_dog_00_dog10-clock1.png
subject-02,1,176,0.755057096481323,bottle,bottle,0,0176_stg_s02_0_bottle_00_bottle10-clock2.png
subject-02,1,177,0.598511934280396,bird,bird,0,0177_stg_s02_0_bird_00_bird8-clock1.png
subject-02,1,178,0.742640972137451,keyboard,keyboard,0,0178_stg_s02_0_keyboard_00_keyboard3-bird3.png
subject-02,1,179,0.578600883483887,truck,truck,0,0179_stg_s02_0_truck_00_truck5-airplane2.png
subject-02,1,180,0.860541105270386,bicycle,boat,0,0180_stg_s02_0_boat_00_boat7-clock3.png
subject-02,1,181,0.666161060333252,bottle,bottle,0,0181_stg_s02_0_bottle_00_bottle3-chair3.png
subject-02,1,182,0.771610021591187,elephant,elephant,0,0182_stg_s02_0_elephant_00_elephant1-bear2.png
subject-02,1,183,0.537433862686157,bicycle,bicycle,0,0183_stg_s02_0_bicycle_00_bicycle2-bottle1.png
subject-02,1,184,0.683973073959351,bicycle,bicycle,0,0184_stg_s02_0_bicycle_00_bicycle9-keyboard3.png
subject-02,1,185,1.47967791557312,elephant,bear,0,0185_stg_s02_0_bear_00_bear2-elephant1.png
subject-02,1,186,1.12325692176819,keyboard,keyboard,0,0186_stg_s02_0_keyboard_00_keyboard7-truck2.png
subject-02,1,187,0.869012832641602,knife,boat,0,0187_stg_s02_0_boat_00_boat8-elephant1.png
subject-02,1,188,0.747393846511841,car,car,0,0188_stg_s02_0_car_00_car2-chair1.png
subject-02,1,189,0.798846006393433,keyboard,knife,0,0189_stg_s02_0_knife_00_knife2-truck2.png
subject-02,1,190,0.918421030044556,boat,chair,0,0190_stg_s02_0_chair_00_chair5-bird1.png
subject-02,1,191,0.477720975875854,clock,clock,0,0191_stg_s02_0_clock_00_clock5-keyboard1.png
subject-02,1,192,0.764984846115112,cat,cat,0,0192_stg_s02_0_cat_00_cat10-bird2.png
subject-02,1,193,0.762630939483643,chair,chair,0,0193_stg_s02_0_chair_00_chair5-bicycle1.png
subject-02,1,194,0.637897968292236,bicycle,bicycle,0,0194_stg_s02_0_bicycle_00_bicycle10-clock2.png
subject-02,1,195,0.673257112503052,chair,chair,0,0195_stg_s02_0_chair_00_chair10-bicycle1.png
subject-02,1,196,0.555146932601929,boat,boat,0,0196_stg_s02_0_boat_00_boat7-chair1.png
subject-02,1,197,0.599000215530396,chair,chair,0,0197_stg_s02_0_chair_00_chair10-car2.png
subject-02,1,198,0.805117130279541,bird,knife,0,0198_stg_s02_0_knife_00_knife7-bottle3.png
subject-02,1,199,0.823915004730225,bottle,bottle,0,0199_stg_s02_0_bottle_00_bottle1-car1.png
subject-02,1,200,0.583605051040649,bottle,bottle,0,0200_stg_s02_0_bottle_00_bottle3-knife3.png
subject-02,1,201,0.632828950881958,truck,truck,0,0201_stg_s02_0_truck_00_truck5-truck1.png
subject-02,1,202,0.884996891021729,knife,knife,0,0202_stg_s02_0_knife_00_knife6-bird1.png
subject-02,1,203,0.64520001411438,bird,bird,0,0203_stg_s02_0_bird_00_bird8-bottle1.png
subject-02,1,204,0.664613962173462,keyboard,keyboard,0,0204_stg_s02_0_keyboard_00_keyboard3-boat1.png
subject-02,1,205,0.616508007049561,boat,airplane,0,0205_stg_s02_0_airplane_00_airplane5-knife1.png
subject-02,1,206,0.676268815994263,truck,truck,0,0206_stg_s02_0_truck_00_truck3-chair2.png
subject-02,1,207,0.85773491859436,bear,bear,0,0207_stg_s02_0_bear_00_bear9-boat2.png
subject-02,1,208,0.663318872451782,car,car,0,0208_stg_s02_0_car_00_car6-bear1.png
subject-02,1,209,0.491076946258545,oven,oven,0,0209_stg_s02_0_oven_00_oven2-car1.png
subject-02,1,210,0.65054178237915,keyboard,keyboard,0,0210_stg_s02_0_keyboard_00_keyboard3-clock3.png
subject-02,1,211,1.06246280670166,knife,boat,0,0211_stg_s02_0_boat_00_boat6-bottle2.png
subject-02,1,212,0.552417993545532,clock,clock,0,0212_stg_s02_0_clock_00_clock3-bicycle2.png
subject-02,1,213,0.792110919952393,bicycle,bicycle,0,0213_stg_s02_0_bicycle_00_bicycle5-bottle3.png
subject-02,1,214,0.952150106430054,knife,knife,0,0214_stg_s02_0_knife_00_knife7-bird3.png
subject-02,1,215,0.528133153915405,car,car,0,0215_stg_s02_0_car_00_car5-bear3.png
subject-02,1,216,0.521764039993286,oven,oven,0,0216_stg_s02_0_oven_00_oven3-airplane1.png
subject-02,1,217,0.69578218460083,truck,truck,0,0217_stg_s02_0_truck_00_truck9-boat3.png
subject-02,1,218,0.6630699634552,bottle,bottle,0,0218_stg_s02_0_bottle_00_bottle8-bird1.png
subject-02,1,219,0.504643201828003,clock,clock,0,0219_stg_s02_0_clock_00_clock6-chair3.png
subject-02,1,220,0.626705884933472,car,car,0,0220_stg_s02_0_car_00_car4-elephant3.png
subject-02,1,221,0.778609991073608,keyboard,keyboard,0,0221_stg_s02_0_keyboard_00_keyboard1-clock1.png
subject-02,1,222,0.827594995498657,dog,dog,0,0222_stg_s02_0_dog_00_dog8-chair3.png
subject-02,1,223,0.824938058853149,boat,knife,0,0223_stg_s02_0_knife_00_knife4-airplane3.png
subject-02,1,224,0.944761991500854,airplane,airplane,0,0224_stg_s02_0_airplane_00_airplane6-keyboard3.png
subject-02,1,225,0.828049898147583,bicycle,bicycle,0,0225_stg_s02_0_bicycle_00_bicycle8-boat1.png
subject-02,1,226,0.586352109909058,clock,clock,0,0226_stg_s02_0_clock_00_clock5-chair3.png
subject-02,1,227,0.899538993835449,keyboard,keyboard,0,0227_stg_s02_0_keyboard_00_keyboard4-oven2.png
subject-02,1,228,1.36501383781433,airplane,cat,0,0228_stg_s02_0_cat_00_cat4-knife1.png
subject-02,1,229,0.716283798217773,airplane,airplane,0,0229_stg_s02_0_airplane_00_airplane10-elephant1.png
subject-02,1,230,0.597723960876465,cat,cat,0,0230_stg_s02_0_cat_00_cat3-bicycle1.png
subject-02,1,231,0.779219150543213,truck,truck,0,0231_stg_s02_0_truck_00_truck4-bear1.png
subject-02,1,232,1.09852504730225,knife,knife,0,0232_stg_s02_0_knife_00_knife7-airplane3.png
subject-02,1,233,0.482367038726807,cat,cat,0,0233_stg_s02_0_cat_00_cat2-truck3.png
subject-02,1,234,0.479809999465942,clock,clock,0,0234_stg_s02_0_clock_00_clock8-truck2.png
subject-02,1,235,0.724007129669189,dog,dog,0,0235_stg_s02_0_dog_00_dog6-elephant2.png
subject-02,1,236,1.26891016960144,airplane,airplane,0,0236_stg_s02_0_airplane_00_airplane10-truck1.png
subject-02,1,237,0.666622161865234,dog,dog,0,0237_stg_s02_0_dog_00_dog1-bear1.png
subject-02,1,238,0.764074087142944,clock,clock,0,0238_stg_s02_0_clock_00_clock5-elephant2.png
subject-02,1,239,0.674063920974731,bicycle,bicycle,0,0239_stg_s02_0_bicycle_00_bicycle7-bicycle2.png
subject-02,1,240,0.723737001419067,bottle,bottle,0,0240_stg_s02_0_bottle_00_bottle6-bicycle3.png
subject-02,1,241,0.699643135070801,oven,oven,0,0241_stg_s02_0_oven_00_oven10-bear1.png
subject-02,1,242,0.535465955734253,clock,clock,0,0242_stg_s02_0_clock_00_clock7-dog2.png
subject-02,1,243,0.886989116668701,elephant,elephant,0,0243_stg_s02_0_elephant_00_elephant2-truck2.png
subject-02,1,244,0.676836013793945,car,car,0,0244_stg_s02_0_car_00_car1-oven3.png
subject-02,1,245,0.782474994659424,knife,knife,0,0245_stg_s02_0_knife_00_knife8-cat2.png
subject-02,1,246,0.61893105506897,chair,chair,0,0246_stg_s02_0_chair_00_chair7-car2.png
subject-02,1,247,0.800655126571655,airplane,airplane,0,0247_stg_s02_0_airplane_00_airplane8-truck3.png
subject-02,1,248,0.484461069107056,boat,boat,0,0248_stg_s02_0_boat_00_boat2-airplane1.png
subject-02,1,249,0.596817016601562,chair,chair,0,0249_stg_s02_0_chair_00_chair10-airplane2.png
subject-02,1,250,0.618447065353394,oven,oven,0,0250_stg_s02_0_oven_00_oven2-dog3.png
subject-02,1,251,0.832180976867676,dog,dog,0,0251_stg_s02_0_dog_00_dog9-chair2.png
subject-02,1,252,0.651337146759033,boat,boat,0,0252_stg_s02_0_boat_00_boat7-oven3.png
subject-02,1,253,0.719405174255371,elephant,elephant,0,0253_stg_s02_0_elephant_00_elephant6-bottle2.png
subject-02,1,254,0.660744905471802,car,car,0,0254_stg_s02_0_car_00_car7-elephant3.png
subject-02,1,255,0.574532985687256,clock,clock,0,0255_stg_s02_0_clock_00_clock8-airplane2.png
subject-02,1,256,0.64211106300354,car,car,0,0256_stg_s02_0_car_00_car7-airplane2.png
subject-02,1,257,0.975865840911865,knife,truck,0,0257_stg_s02_0_truck_00_truck5-knife3.png
subject-02,1,258,0.749381065368652,bottle,bottle,0,0258_stg_s02_0_bottle_00_bottle1-chair2.png
subject-02,1,259,0.640956878662109,oven,oven,0,0259_stg_s02_0_oven_00_oven5-bird1.png
subject-02,1,260,0.731612205505371,bird,bird,0,0260_stg_s02_0_bird_00_bird1-truck1.png
subject-02,1,261,0.79106879234314,bicycle,bicycle,0,0261_stg_s02_0_bicycle_00_bicycle7-truck3.png
subject-02,1,262,0.905838966369629,bicycle,cat,0,0262_stg_s02_0_cat_00_cat4-car2.png
subject-02,1,263,0.757764101028442,elephant,knife,0,0263_stg_s02_0_knife_00_knife9-elephant2.png
subject-02,1,264,0.577749013900757,bird,bird,0,0264_stg_s02_0_bird_00_bird2-dog2.png
subject-02,1,265,0.662659883499146,elephant,elephant,0,0265_stg_s02_0_elephant_00_elephant4-car3.png
subject-02,1,266,0.690345048904419,airplane,airplane,0,0266_stg_s02_0_airplane_00_airplane7-cat3.png
subject-02,1,267,0.750158071517944,elephant,elephant,0,0267_stg_s02_0_elephant_00_elephant10-bear1.png
subject-02,1,268,0.715342998504639,airplane,bear,0,0268_stg_s02_0_bear_00_bear6-chair1.png
subject-02,1,269,0.73511004447937,dog,dog,0,0269_stg_s02_0_dog_00_dog4-bicycle1.png
subject-02,1,270,0.840626001358032,knife,boat,0,0270_stg_s02_0_boat_00_boat4-dog2.png
subject-02,1,271,0.646298170089722,chair,chair,0,0271_stg_s02_0_chair_00_chair7-truck3.png
subject-02,1,272,0.481816053390503,cat,cat,0,0272_stg_s02_0_cat_00_cat2-cat1.png
subject-02,1,273,0.677604198455811,truck,truck,0,0273_stg_s02_0_truck_00_truck8-bottle2.png
subject-02,1,274,0.661296129226685,airplane,airplane,0,0274_stg_s02_0_airplane_00_airplane6-bear3.png
subject-02,1,275,0.672766923904419,car,car,0,0275_stg_s02_0_car_00_car9-cat1.png
subject-02,1,276,0.649103879928589,airplane,airplane,0,0276_stg_s02_0_airplane_00_airplane3-oven1.png
subject-02,1,277,0.684963941574097,airplane,airplane,0,0277_stg_s02_0_airplane_00_airplane9-airplane2.png
subject-02,1,278,0.758370161056519,bicycle,dog,0,0278_stg_s02_0_dog_00_dog7-chair2.png
subject-02,1,279,0.85682487487793,bicycle,bicycle,0,0279_stg_s02_0_bicycle_00_bicycle10-dog3.png
subject-02,1,280,0.852375984191895,truck,truck,0,0280_stg_s02_0_truck_00_truck3-knife2.png
subject-02,1,281,0.695639848709106,bottle,bottle,0,0281_stg_s02_0_bottle_00_bottle3-airplane2.png
subject-02,1,282,0.638817071914673,airplane,airplane,0,0282_stg_s02_0_airplane_00_airplane6-bottle2.png
subject-02,1,283,0.842402935028076,elephant,elephant,0,0283_stg_s02_0_elephant_00_elephant2-bottle3.png
subject-02,1,284,0.588706016540527,bird,bird,0,0284_stg_s02_0_bird_00_bird10-clock1.png
subject-02,1,285,0.776382923126221,chair,chair,0,0285_stg_s02_0_chair_00_chair2-bear2.png
subject-02,1,286,0.640333890914917,car,car,0,0286_stg_s02_0_car_00_car4-oven2.png
subject-02,1,287,0.67615795135498,boat,boat,0,0287_stg_s02_0_boat_00_boat1-bird3.png
subject-02,1,288,0.711448907852173,dog,dog,0,0288_stg_s02_0_dog_00_dog4-clock1.png
subject-02,1,289,0.609089851379395,boat,boat,0,0289_stg_s02_0_boat_00_boat5-clock3.png
subject-02,1,290,0.831228017807007,bird,boat,0,0290_stg_s02_0_boat_00_boat7-cat3.png
subject-02,1,291,0.821447134017944,airplane,boat,0,0291_stg_s02_0_boat_00_boat8-oven1.png
subject-02,1,292,0.6493239402771,chair,chair,0,0292_stg_s02_0_chair_00_chair7-chair1.png
subject-02,1,293,0.539098024368286,cat,cat,0,0293_stg_s02_0_cat_00_cat5-elephant2.png
subject-02,1,294,0.715102910995483,boat,keyboard,0,0294_stg_s02_0_keyboard_00_keyboard9-elephant2.png
subject-02,1,295,0.473242044448853,bird,bird,0,0295_stg_s02_0_bird_00_bird5-bicycle1.png
subject-02,1,296,0.800897836685181,elephant,elephant,0,0296_stg_s02_0_elephant_00_elephant1-oven2.png
subject-02,1,297,0.669886112213135,cat,cat,0,0297_stg_s02_0_cat_00_cat8-bird2.png
subject-02,1,298,0.705397844314575,car,car,0,0298_stg_s02_0_car_00_car4-bear3.png
subject-02,1,299,0.452178001403809,clock,clock,0,0299_stg_s02_0_clock_00_clock8-chair2.png
subject-02,1,300,0.355314016342163,cat,cat,0,0300_stg_s02_0_cat_00_cat5-bear2.png
subject-02,1,301,0.590774059295654,bottle,bottle,0,0301_stg_s02_0_bottle_00_bottle2-knife3.png
subject-02,1,302,0.610225915908813,chair,chair,0,0302_stg_s02_0_chair_00_chair8-chair3.png
subject-02,1,303,0.932600975036621,dog,dog,0,0303_stg_s02_0_dog_00_dog10-oven2.png
subject-02,1,304,0.544265985488892,boat,boat,0,0304_stg_s02_0_boat_00_boat5-bicycle3.png
subject-02,1,305,0.80472993850708,truck,truck,0,0305_stg_s02_0_truck_00_truck3-bear3.png
subject-02,1,306,0.531679153442383,clock,clock,0,0306_stg_s02_0_clock_00_clock5-oven1.png
subject-02,1,307,0.60512900352478,oven,oven,0,0307_stg_s02_0_oven_00_oven3-bear2.png
subject-02,1,308,0.626917123794556,dog,dog,0,0308_stg_s02_0_dog_00_dog6-bird1.png
subject-02,1,309,0.653843879699707,airplane,airplane,0,0309_stg_s02_0_airplane_00_airplane10-bear3.png
subject-02,1,310,0.627824068069458,chair,chair,0,0310_stg_s02_0_chair_00_chair5-cat3.png
subject-02,1,311,0.650321006774902,chair,chair,0,0311_stg_s02_0_chair_00_chair1-bear1.png
subject-02,1,312,0.49354100227356,boat,boat,0,0312_stg_s02_0_boat_00_boat8-knife1.png
subject-02,1,313,0.597085952758789,airplane,knife,0,0313_stg_s02_0_knife_00_knife10-oven3.png
subject-02,1,314,1.01668214797974,dog,dog,0,0314_stg_s02_0_dog_00_dog5-knife2.png
subject-02,1,315,0.614387989044189,bicycle,bicycle,0,0315_stg_s02_0_bicycle_00_bicycle5-elephant1.png
subject-02,1,316,0.720668077468872,elephant,bear,0,0316_stg_s02_0_bear_00_bear3-bicycle2.png
subject-02,1,317,0.618070125579834,oven,oven,0,0317_stg_s02_0_oven_00_oven4-truck3.png
subject-02,1,318,0.491713047027588,clock,clock,0,0318_stg_s02_0_clock_00_clock6-knife2.png
subject-02,1,319,0.648608922958374,bicycle,bicycle,0,0319_stg_s02_0_bicycle_00_bicycle4-bicycle3.png
subject-02,1,320,0.725345849990845,oven,oven,0,0320_stg_s02_0_oven_00_oven3-elephant3.png
subject-02,1,321,0.76957893371582,keyboard,keyboard,0,0321_stg_s02_0_keyboard_00_keyboard5-cat1.png
subject-02,1,322,0.758831977844238,boat,truck,0,0322_stg_s02_0_truck_00_truck6-bear2.png
subject-02,1,323,0.786257982254028,airplane,airplane,0,0323_stg_s02_0_airplane_00_airplane4-boat3.png
subject-02,1,324,0.529953956604004,cat,cat,0,0324_stg_s02_0_cat_00_cat10-bottle1.png
subject-02,1,325,0.628034830093384,oven,oven,0,0325_stg_s02_0_oven_00_oven3-knife1.png
subject-02,1,326,0.702162981033325,airplane,airplane,0,0326_stg_s02_0_airplane_00_airplane4-elephant1.png
subject-02,1,327,0.676093101501465,chair,chair,0,0327_stg_s02_0_chair_00_chair8-clock3.png
subject-02,1,328,0.74970006942749,dog,dog,0,0328_stg_s02_0_dog_00_dog2-cat1.png
subject-02,1,329,1.04724788665771,bear,bear,0,0329_stg_s02_0_bear_00_bear1-elephant1.png
subject-02,1,330,0.723765850067139,bear,bear,0,0330_stg_s02_0_bear_00_bear3-chair2.png
subject-02,1,331,0.521242141723633,clock,clock,0,0331_stg_s02_0_clock_00_clock8-keyboard1.png
subject-02,1,332,0.48685097694397,car,car,0,0332_stg_s02_0_car_00_car3-elephant3.png
subject-02,1,333,1.30664491653442,cat,bear,0,0333_stg_s02_0_bear_00_bear6-bird2.png
subject-02,1,334,0.628581047058105,knife,knife,0,0334_stg_s02_0_knife_00_knife8-truck3.png
subject-02,1,335,0.433990955352783,cat,cat,0,0335_stg_s02_0_cat_00_cat6-bear1.png
subject-02,1,336,0.800812005996704,dog,elephant,0,0336_stg_s02_0_elephant_00_elephant2-cat1.png
subject-02,1,337,0.673860788345337,oven,oven,0,0337_stg_s02_0_oven_00_oven9-knife3.png
subject-02,1,338,0.625671148300171,clock,clock,0,0338_stg_s02_0_clock_00_clock5-clock2.png
subject-02,1,339,1.12926602363586,truck,oven,0,0339_stg_s02_0_oven_00_oven7-cat1.png
subject-02,1,340,0.75832200050354,boat,boat,0,0340_stg_s02_0_boat_00_boat3-airplane2.png
subject-02,1,341,0.432318925857544,cat,cat,0,0341_stg_s02_0_cat_00_cat1-dog1.png
subject-02,1,342,0.546159982681274,cat,cat,0,0342_stg_s02_0_cat_00_cat10-bear1.png
subject-02,1,343,0.611736059188843,airplane,airplane,0,0343_stg_s02_0_airplane_00_airplane9-car2.png
subject-02,1,344,0.731305122375488,clock,clock,0,0344_stg_s02_0_clock_00_clock6-bottle1.png
subject-02,1,345,0.591362953186035,bicycle,bicycle,0,0345_stg_s02_0_bicycle_00_bicycle10-airplane2.png
subject-02,1,346,0.57056999206543,bottle,bottle,0,0346_stg_s02_0_bottle_00_bottle2-clock1.png
subject-02,1,347,0.658691883087158,car,car,0,0347_stg_s02_0_car_00_car2-car3.png
subject-02,1,348,0.524049997329712,airplane,airplane,0,0348_stg_s02_0_airplane_00_airplane9-truck1.png
subject-02,1,349,0.567883014678955,truck,truck,0,0349_stg_s02_0_truck_00_truck2-keyboard1.png
subject-02,1,350,0.855503082275391,cat,cat,0,0350_stg_s02_0_cat_00_cat4-oven1.png
subject-02,1,351,0.623538017272949,knife,knife,0,0351_stg_s02_0_knife_00_knife1-elephant1.png
subject-02,1,352,0.613499879837036,car,car,0,0352_stg_s02_0_car_00_car8-cat1.png
subject-02,1,353,0.472491979598999,car,car,0,0353_stg_s02_0_car_00_car4-car2.png
subject-02,1,354,0.623081207275391,bird,bird,0,0354_stg_s02_0_bird_00_bird5-keyboard2.png
subject-02,1,355,0.506867170333862,cat,cat,0,0355_stg_s02_0_cat_00_cat5-bottle1.png
subject-02,1,356,0.550427913665771,bicycle,bicycle,0,0356_stg_s02_0_bicycle_00_bicycle2-knife2.png
subject-02,1,357,0.510441064834595,boat,boat,0,0357_stg_s02_0_boat_00_boat10-cat1.png
subject-02,1,358,0.683835029602051,airplane,airplane,0,0358_stg_s02_0_airplane_00_airplane9-clock1.png
subject-02,1,359,0.566027164459229,bear,bear,0,0359_stg_s02_0_bear_00_bear2-dog1.png
subject-02,1,360,0.601660013198853,bottle,bottle,0,0360_stg_s02_0_bottle_00_bottle8-bicycle1.png
subject-02,1,361,0.548670053482056,knife,knife,0,0361_stg_s02_0_knife_00_knife5-dog1.png
subject-02,1,362,0.836503982543945,bear,bear,0,0362_stg_s02_0_bear_00_bear4-oven2.png
subject-02,1,363,0.880038022994995,car,car,0,0363_stg_s02_0_car_00_car3-bird2.png
subject-02,1,364,0.745821952819824,elephant,elephant,0,0364_stg_s02_0_elephant_00_elephant8-knife2.png
subject-02,1,365,0.705996990203857,bear,bear,0,0365_stg_s02_0_bear_00_bear4-truck3.png
subject-02,1,366,0.766914129257202,bird,cat,0,0366_stg_s02_0_cat_00_cat5-keyboard3.png
subject-02,1,367,0.586444139480591,clock,clock,0,0367_stg_s02_0_clock_00_clock1-car1.png
subject-02,1,368,0.575764894485474,dog,dog,0,0368_stg_s02_0_dog_00_dog5-bear3.png
subject-02,1,369,0.556976079940796,oven,oven,0,0369_stg_s02_0_oven_00_oven4-bicycle2.png
subject-02,1,370,0.700942993164062,bear,bear,0,0370_stg_s02_0_bear_00_bear5-oven3.png
subject-02,1,371,0.613005876541138,bird,bird,0,0371_stg_s02_0_bird_00_bird7-knife2.png
subject-02,1,372,0.465092897415161,clock,clock,0,0372_stg_s02_0_clock_00_clock10-bird3.png
subject-02,1,373,0.463476896286011,bird,bird,0,0373_stg_s02_0_bird_00_bird7-truck2.png
subject-02,1,374,0.691329002380371,elephant,keyboard,0,0374_stg_s02_0_keyboard_00_keyboard3-elephant2.png
subject-02,1,375,0.726499080657959,airplane,airplane,0,0375_stg_s02_0_airplane_00_airplane5-bicycle1.png
subject-02,1,376,0.740708827972412,dog,elephant,0,0376_stg_s02_0_elephant_00_elephant4-bird1.png
subject-02,1,377,0.752263069152832,airplane,airplane,0,0377_stg_s02_0_airplane_00_airplane4-bottle1.png
subject-02,1,378,0.601897001266479,cat,cat,0,0378_stg_s02_0_cat_00_cat7-airplane2.png
subject-02,1,379,0.494049072265625,clock,clock,0,0379_stg_s02_0_clock_00_clock10-truck2.png
subject-02,1,380,0.505312919616699,clock,clock,0,0380_stg_s02_0_clock_00_clock7-bicycle1.png
subject-02,1,381,0.457455158233643,bottle,bottle,0,0381_stg_s02_0_bottle_00_bottle5-knife1.png
subject-02,1,382,0.547890186309814,boat,boat,0,0382_stg_s02_0_boat_00_boat9-clock1.png
subject-02,1,383,0.70556902885437,bicycle,bicycle,0,0383_stg_s02_0_bicycle_00_bicycle9-cat3.png
subject-02,1,384,0.657556056976318,truck,truck,0,0384_stg_s02_0_truck_00_truck2-bottle3.png
subject-02,1,385,0.89312481880188,keyboard,keyboard,0,0385_stg_s02_0_keyboard_00_keyboard4-knife2.png
subject-02,1,386,1.09666109085083,dog,bear,0,0386_stg_s02_0_bear_00_bear10-bottle1.png
subject-02,1,387,0.874244928359985,dog,dog,0,0387_stg_s02_0_dog_00_dog10-truck2.png
subject-02,1,388,0.642409086227417,car,car,0,0388_stg_s02_0_car_00_car7-keyboard3.png
subject-02,1,389,0.654181957244873,bottle,bottle,0,0389_stg_s02_0_bottle_00_bottle4-dog2.png
subject-02,1,390,0.673540830612183,bottle,knife,0,0390_stg_s02_0_knife_00_knife9-bottle2.png
subject-02,1,391,0.655774831771851,knife,knife,0,0391_stg_s02_0_knife_00_knife6-oven3.png
subject-02,1,392,0.536939859390259,oven,oven,0,0392_stg_s02_0_oven_00_oven6-truck1.png
subject-02,1,393,0.588425874710083,chair,chair,0,0393_stg_s02_0_chair_00_chair5-bottle3.png
subject-02,1,394,0.677596092224121,bottle,bottle,0,0394_stg_s02_0_bottle_00_bottle9-elephant2.png
subject-02,1,395,0.526762008666992,oven,oven,0,0395_stg_s02_0_oven_00_oven3-bottle3.png
subject-02,1,396,0.732448101043701,elephant,elephant,0,0396_stg_s02_0_elephant_00_elephant9-chair2.png
subject-02,1,397,0.752772092819214,car,car,0,0397_stg_s02_0_car_00_car7-car1.png
subject-02,1,398,0.626436948776245,elephant,elephant,0,0398_stg_s02_0_elephant_00_elephant8-cat1.png
subject-02,1,399,0.845916032791138,elephant,elephant,0,0399_stg_s02_0_elephant_00_elephant2-bird1.png
subject-02,1,400,0.897599935531616,elephant,bear,0,0400_stg_s02_0_bear_00_bear4-clock3.png
subject-02,1,401,1.07156085968018,keyboard,keyboard,0,0401_stg_s02_0_keyboard_00_keyboard6-chair1.png
subject-02,1,402,0.661716938018799,bear,bear,0,0402_stg_s02_0_bear_00_bear8-knife3.png
subject-02,1,403,0.437008857727051,bottle,bottle,0,0403_stg_s02_0_bottle_00_bottle4-oven2.png
subject-02,1,404,0.586804151535034,oven,chair,0,0404_stg_s02_0_chair_00_chair6-bird2.png
subject-02,1,405,0.685065984725952,bird,dog,0,0405_stg_s02_0_dog_00_dog8-keyboard3.png
subject-02,1,406,0.612221956253052,clock,boat,0,0406_stg_s02_0_boat_00_boat1-keyboard3.png
subject-02,1,407,0.617978096008301,oven,oven,0,0407_stg_s02_0_oven_00_oven4-dog1.png
subject-02,1,408,0.58378791809082,cat,cat,0,0408_stg_s02_0_cat_00_cat7-boat3.png
subject-02,1,409,0.681571960449219,elephant,bird,0,0409_stg_s02_0_bird_00_bird6-elephant2.png
subject-02,1,410,0.579915046691895,bicycle,bicycle,0,0410_stg_s02_0_bicycle_00_bicycle3-bird1.png
subject-02,1,411,0.491852998733521,clock,clock,0,0411_stg_s02_0_clock_00_clock7-car1.png
subject-02,1,412,0.559851884841919,car,car,0,0412_stg_s02_0_car_00_car8-chair1.png
subject-02,1,413,0.855219841003418,boat,boat,0,0413_stg_s02_0_boat_00_boat5-car3.png
subject-02,1,414,0.531622171401978,bird,bird,0,0414_stg_s02_0_bird_00_bird5-bird1.png
subject-02,1,415,0.743005990982056,cat,dog,0,0415_stg_s02_0_dog_00_dog3-bird2.png
subject-02,1,416,0.632382869720459,airplane,airplane,0,0416_stg_s02_0_airplane_00_airplane10-airplane1.png
subject-02,1,417,0.589718818664551,boat,boat,0,0417_stg_s02_0_boat_00_boat10-truck1.png
subject-02,1,418,0.609816074371338,car,car,0,0418_stg_s02_0_car_00_car10-chair1.png
subject-02,1,419,0.439910173416138,oven,oven,0,0419_stg_s02_0_oven_00_oven5-dog3.png
subject-02,1,420,0.635771036148071,keyboard,keyboard,0,0420_stg_s02_0_keyboard_00_keyboard5-bear3.png
subject-02,1,421,0.884947061538696,knife,airplane,0,0421_stg_s02_0_airplane_00_airplane4-keyboard3.png
subject-02,1,422,0.669378995895386,chair,chair,0,0422_stg_s02_0_chair_00_chair1-dog1.png
subject-02,1,423,0.659419059753418,oven,oven,0,0423_stg_s02_0_oven_00_oven6-knife3.png
subject-02,1,424,0.500720977783203,car,car,0,0424_stg_s02_0_car_00_car8-boat3.png
subject-02,1,425,0.560914039611816,clock,clock,0,0425_stg_s02_0_clock_00_clock7-boat3.png
subject-02,1,426,0.742120981216431,knife,knife,0,0426_stg_s02_0_knife_00_knife4-keyboard1.png
subject-02,1,427,0.591852903366089,knife,knife,0,0427_stg_s02_0_knife_00_knife4-clock3.png
subject-02,1,428,0.519643068313599,knife,knife,0,0428_stg_s02_0_knife_00_knife9-bicycle1.png
subject-02,1,429,0.571789979934692,car,car,0,0429_stg_s02_0_car_00_car4-cat3.png
subject-02,1,430,0.577681064605713,bicycle,bicycle,0,0430_stg_s02_0_bicycle_00_bicycle5-chair2.png
subject-02,1,431,0.751796007156372,boat,car,0,0431_stg_s02_0_car_00_car6-chair3.png
subject-02,1,432,0.617571830749512,bottle,bottle,0,0432_stg_s02_0_bottle_00_bottle6-airplane1.png
subject-02,1,433,0.653747797012329,elephant,elephant,0,0433_stg_s02_0_elephant_00_elephant5-elephant1.png
subject-02,1,434,0.851632118225098,bird,bird,0,0434_stg_s02_0_bird_00_bird10-elephant2.png
subject-02,1,435,0.601130962371826,chair,chair,0,0435_stg_s02_0_chair_00_chair9-keyboard2.png
subject-02,1,436,0.612812042236328,bicycle,bicycle,0,0436_stg_s02_0_bicycle_00_bicycle9-bear1.png
subject-02,1,437,0.810461044311523,boat,boat,0,0437_stg_s02_0_boat_00_boat6-airplane2.png
subject-02,1,438,0.606200933456421,bear,bear,0,0438_stg_s02_0_bear_00_bear3-cat1.png
subject-02,1,439,0.541637897491455,bicycle,bicycle,0,0439_stg_s02_0_bicycle_00_bicycle6-boat2.png
subject-02,1,440,0.694056987762451,bird,bird,0,0440_stg_s02_0_bird_00_bird10-chair1.png
subject-02,1,441,0.551361083984375,chair,chair,0,0441_stg_s02_0_chair_00_chair1-truck3.png
subject-02,1,442,0.449050188064575,oven,oven,0,0442_stg_s02_0_oven_00_oven10-airplane2.png
subject-02,1,443,0.522666931152344,oven,oven,0,0443_stg_s02_0_oven_00_oven1-boat3.png
subject-02,1,444,0.642076969146729,keyboard,knife,0,0444_stg_s02_0_knife_00_knife10-chair1.png
subject-02,1,445,0.670362949371338,elephant,elephant,0,0445_stg_s02_0_elephant_00_elephant9-boat3.png
subject-02,1,446,0.697822093963623,car,car,0,0446_stg_s02_0_car_00_car1-dog2.png
subject-02,1,447,0.617815971374512,truck,truck,0,0447_stg_s02_0_truck_00_truck6-knife2.png
subject-02,1,448,0.593590974807739,oven,oven,0,0448_stg_s02_0_oven_00_oven4-clock2.png
subject-02,1,449,0.975466012954712,boat,dog,0,0449_stg_s02_0_dog_00_dog6-truck2.png
subject-02,1,450,0.925871133804321,elephant,elephant,0,0450_stg_s02_0_elephant_00_elephant3-knife1.png
subject-02,1,451,0.73966908454895,car,boat,0,0451_stg_s02_0_boat_00_boat8-truck2.png
subject-02,1,452,1.27565002441406,bicycle,bicycle,0,0452_stg_s02_0_bicycle_00_bicycle1-knife3.png
subject-02,1,453,1.16295289993286,bottle,bottle,0,0453_stg_s02_0_bottle_00_bottle9-cat2.png
subject-02,1,454,0.815377950668335,bottle,boat,0,0454_stg_s02_0_boat_00_boat6-bicycle2.png
subject-02,1,455,0.613165855407715,oven,oven,0,0455_stg_s02_0_oven_00_oven4-keyboard3.png
subject-02,1,456,0.547636032104492,oven,oven,0,0456_stg_s02_0_oven_00_oven2-bird2.png
subject-02,1,457,0.575331926345825,clock,clock,0,0457_stg_s02_0_clock_00_clock8-bear2.png
subject-02,1,458,0.525112867355347,clock,clock,0,0458_stg_s02_0_clock_00_clock10-cat1.png
subject-02,1,459,0.830612182617188,keyboard,keyboard,0,0459_stg_s02_0_keyboard_00_keyboard6-bear2.png
subject-02,1,460,0.520387172698975,clock,clock,0,0460_stg_s02_0_clock_00_clock7-bear2.png
subject-02,1,461,0.509751081466675,chair,chair,0,0461_stg_s02_0_chair_00_chair8-knife2.png
subject-02,1,462,0.674885988235474,bicycle,bicycle,0,0462_stg_s02_0_bicycle_00_bicycle6-dog2.png
subject-02,1,463,0.748641967773438,dog,bird,0,0463_stg_s02_0_bird_00_bird1-keyboard3.png
subject-02,1,464,0.598337888717651,boat,boat,0,0464_stg_s02_0_boat_00_boat9-chair2.png
subject-02,1,465,0.56597113609314,clock,clock,0,0465_stg_s02_0_clock_00_clock10-airplane1.png
subject-02,1,466,0.470157146453857,cat,cat,0,0466_stg_s02_0_cat_00_cat9-chair2.png
subject-02,1,467,0.551810026168823,bird,bird,0,0467_stg_s02_0_bird_00_bird5-dog2.png
subject-02,1,468,0.665369033813477,car,car,0,0468_stg_s02_0_car_00_car8-airplane3.png
subject-02,1,469,0.577316045761108,bottle,keyboard,0,0469_stg_s02_0_keyboard_00_keyboard4-bottle2.png
subject-02,1,470,0.591649055480957,oven,oven,0,0470_stg_s02_0_oven_00_oven9-keyboard1.png
subject-02,1,471,0.633206844329834,chair,chair,0,0471_stg_s02_0_chair_00_chair9-boat2.png
subject-02,1,472,0.680052995681763,truck,truck,0,0472_stg_s02_0_truck_00_truck1-cat1.png
subject-02,1,473,0.721664905548096,truck,truck,0,0473_stg_s02_0_truck_00_truck1-chair2.png
subject-02,1,474,0.568691968917847,keyboard,keyboard,0,0474_stg_s02_0_keyboard_00_keyboard5-knife2.png
subject-02,1,475,0.626726865768433,bird,bird,0,0475_stg_s02_0_bird_00_bird5-airplane3.png
subject-02,1,476,0.507688045501709,chair,chair,0,0476_stg_s02_0_chair_00_chair9-bottle3.png
subject-02,1,477,0.926656007766724,airplane,airplane,0,0477_stg_s02_0_airplane_00_airplane5-bear2.png
subject-02,1,478,0.479444026947021,boat,boat,0,0478_stg_s02_0_boat_00_boat9-airplane2.png
subject-02,1,479,0.683184146881104,chair,chair,0,0479_stg_s02_0_chair_00_chair7-knife2.png
subject-02,1,480,0.527096033096313,bicycle,bicycle,0,0480_stg_s02_0_bicycle_00_bicycle4-bottle1.png
subject-02,1,481,0.540715932846069,chair,elephant,0,0481_stg_s02_0_elephant_00_elephant8-truck3.png
subject-02,1,482,0.545212984085083,car,car,0,0482_stg_s02_0_car_00_car5-keyboard3.png
subject-02,1,483,1.2649188041687,car,boat,0,0483_stg_s02_0_boat_00_boat3-dog3.png
subject-02,1,484,0.808135032653809,keyboard,keyboard,0,0484_stg_s02_0_keyboard_00_keyboard10-airplane3.png
subject-02,1,485,0.506922006607056,bicycle,bicycle,0,0485_stg_s02_0_bicycle_00_bicycle4-airplane1.png
subject-02,1,486,0.574649095535278,bear,bear,0,0486_stg_s02_0_bear_00_bear5-boat2.png
subject-02,1,487,0.616440057754517,bird,bird,0,0487_stg_s02_0_bird_00_bird2-clock3.png
subject-02,1,488,0.568252086639404,airplane,airplane,0,0488_stg_s02_0_airplane_00_airplane4-bird3.png
subject-02,1,489,0.645849943161011,truck,truck,0,0489_stg_s02_0_truck_00_truck2-airplane3.png
subject-02,1,490,0.603602886199951,oven,oven,0,0490_stg_s02_0_oven_00_oven4-knife2.png
subject-02,1,491,0.622255086898804,bird,bird,0,0491_stg_s02_0_bird_00_bird7-boat1.png
subject-02,1,492,0.711090087890625,bird,airplane,0,0492_stg_s02_0_airplane_00_airplane2-cat1.png
subject-02,1,493,0.563442945480347,keyboard,keyboard,0,0493_stg_s02_0_keyboard_00_keyboard7-boat2.png
subject-02,1,494,0.713107109069824,chair,chair,0,0494_stg_s02_0_chair_00_chair3-airplane2.png
subject-02,1,495,0.486316919326782,oven,oven,0,0495_stg_s02_0_oven_00_oven9-bird3.png
subject-02,1,496,1.28255200386047,cat,bear,0,0496_stg_s02_0_bear_00_bear10-car2.png
subject-02,1,497,0.579959869384766,chair,chair,0,0497_stg_s02_0_chair_00_chair8-boat1.png
subject-02,1,498,0.669789791107178,bird,knife,0,0498_stg_s02_0_knife_00_knife2-bottle2.png
subject-02,1,499,0.497500896453857,oven,oven,0,0499_stg_s02_0_oven_00_oven9-chair1.png
subject-02,1,500,0.771605968475342,elephant,elephant,0,0500_stg_s02_0_elephant_00_elephant7-dog1.png
subject-02,1,501,0.829103946685791,cat,cat,0,0501_stg_s02_0_cat_00_cat8-bicycle3.png
subject-02,1,502,0.689685106277466,car,car,0,0502_stg_s02_0_car_00_car5-oven2.png
subject-02,1,503,0.625251054763794,keyboard,keyboard,0,0503_stg_s02_0_keyboard_00_keyboard1-chair2.png
subject-02,1,504,0.623057126998901,cat,cat,0,0504_stg_s02_0_cat_00_cat4-cat3.png
subject-02,1,505,0.518341064453125,oven,oven,0,0505_stg_s02_0_oven_00_oven3-truck1.png
subject-02,1,506,0.61567211151123,bicycle,bicycle,0,0506_stg_s02_0_bicycle_00_bicycle9-chair1.png
subject-02,1,507,0.590185880661011,clock,clock,0,0507_stg_s02_0_clock_00_clock4-knife1.png
subject-02,1,508,0.617562055587769,bicycle,bicycle,0,0508_stg_s02_0_bicycle_00_bicycle8-chair2.png
subject-02,1,509,1.30533194541931,airplane,knife,0,0509_stg_s02_0_knife_00_knife6-airplane1.png
subject-02,1,510,0.664881944656372,dog,dog,0,0510_stg_s02_0_dog_00_dog10-dog1.png
subject-02,1,511,0.739281892776489,bottle,bottle,0,0511_stg_s02_0_bottle_00_bottle6-oven3.png
subject-02,1,512,0.464946031570435,clock,clock,0,0512_stg_s02_0_clock_00_clock3-elephant3.png
subject-02,1,513,0.865392923355103,chair,chair,0,0513_stg_s02_0_chair_00_chair2-knife1.png
subject-02,1,514,0.467597007751465,bear,bear,0,0514_stg_s02_0_bear_00_bear8-dog1.png
subject-02,1,515,0.595643997192383,airplane,airplane,0,0515_stg_s02_0_airplane_00_airplane5-bottle3.png
subject-02,1,516,0.777604818344116,car,car,0,0516_stg_s02_0_car_00_car4-boat1.png
subject-02,1,517,0.658991098403931,chair,chair,0,0517_stg_s02_0_chair_00_chair4-oven2.png
subject-02,1,518,0.862431049346924,knife,knife,0,0518_stg_s02_0_knife_00_knife10-dog1.png
subject-02,1,519,0.676486968994141,truck,truck,0,0519_stg_s02_0_truck_00_truck6-cat2.png
subject-02,1,520,0.89661717414856,bicycle,dog,0,0520_stg_s02_0_dog_00_dog2-knife3.png
subject-02,1,521,0.757192134857178,dog,dog,0,0521_stg_s02_0_dog_00_dog3-knife3.png
subject-02,1,522,0.755037069320679,truck,truck,0,0522_stg_s02_0_truck_00_truck10-bicycle1.png
subject-02,1,523,0.66612696647644,airplane,airplane,0,0523_stg_s02_0_airplane_00_airplane5-chair3.png
subject-02,1,524,0.51778507232666,oven,oven,0,0524_stg_s02_0_oven_00_oven10-bicycle1.png
subject-02,1,525,0.492048978805542,clock,clock,0,0525_stg_s02_0_clock_00_clock8-oven3.png
subject-02,1,526,0.619878053665161,bird,bird,0,0526_stg_s02_0_bird_00_bird8-knife2.png
subject-02,1,527,0.693110942840576,chair,chair,0,0527_stg_s02_0_chair_00_chair4-bear2.png
subject-02,1,528,0.752876996994019,car,boat,0,0528_stg_s02_0_boat_00_boat3-cat3.png
subject-02,1,529,0.864392042160034,bird,bear,0,0529_stg_s02_0_bear_00_bear10-chair2.png
subject-02,1,530,0.554028987884521,boat,boat,0,0530_stg_s02_0_boat_00_boat9-bird1.png
subject-02,1,531,0.689795970916748,airplane,airplane,0,0531_stg_s02_0_airplane_00_airplane7-bottle3.png
subject-02,1,532,0.679491996765137,car,car,0,0532_stg_s02_0_car_00_car10-dog1.png
subject-02,1,533,0.915415048599243,bicycle,bicycle,0,0533_stg_s02_0_bicycle_00_bicycle1-bottle3.png
subject-02,1,534,0.635341167449951,bear,bear,0,0534_stg_s02_0_bear_00_bear8-truck3.png
subject-02,1,535,0.66332483291626,oven,oven,0,0535_stg_s02_0_oven_00_oven6-bear2.png
subject-02,1,536,0.930984973907471,bear,bear,0,0536_stg_s02_0_bear_00_bear10-oven1.png
subject-02,1,537,0.805057048797607,truck,car,0,0537_stg_s02_0_car_00_car2-knife3.png
subject-02,1,538,0.962460994720459,knife,knife,0,0538_stg_s02_0_knife_00_knife4-boat1.png
subject-02,1,539,0.65467095375061,dog,dog,0,0539_stg_s02_0_dog_00_dog1-bird1.png
subject-02,1,540,0.74953293800354,knife,knife,0,0540_stg_s02_0_knife_00_knife6-knife1.png
subject-02,1,541,0.577564001083374,chair,chair,0,0541_stg_s02_0_chair_00_chair2-boat1.png
subject-02,1,542,0.666946887969971,dog,dog,0,0542_stg_s02_0_dog_00_dog3-dog1.png
subject-02,1,543,0.778635025024414,truck,truck,0,0543_stg_s02_0_truck_00_truck5-keyboard1.png
subject-02,1,544,0.67020583152771,keyboard,keyboard,0,0544_stg_s02_0_keyboard_00_keyboard6-bottle2.png
subject-02,1,545,0.504287004470825,bicycle,bicycle,0,0545_stg_s02_0_bicycle_00_bicycle7-oven1.png
subject-02,1,546,0.592787981033325,clock,clock,0,0546_stg_s02_0_clock_00_clock1-bear1.png
subject-02,1,547,0.566293954849243,chair,chair,0,0547_stg_s02_0_chair_00_chair3-bottle3.png
subject-02,1,548,0.915785074234009,bird,bear,0,0548_stg_s02_0_bear_00_bear10-truck1.png
subject-02,1,549,0.624917984008789,knife,knife,0,0549_stg_s02_0_knife_00_knife3-knife1.png
subject-02,1,550,0.65261697769165,keyboard,keyboard,0,0550_stg_s02_0_keyboard_00_keyboard4-cat2.png
subject-02,1,551,0.59640097618103,clock,clock,0,0551_stg_s02_0_clock_00_clock4-airplane1.png
subject-02,1,552,0.63786792755127,clock,clock,0,0552_stg_s02_0_clock_00_clock4-car2.png
subject-02,1,553,0.527359008789062,clock,clock,0,0553_stg_s02_0_clock_00_clock4-bottle3.png
subject-02,1,554,0.47111701965332,bottle,bottle,0,0554_stg_s02_0_bottle_00_bottle9-bicycle1.png
subject-02,1,555,0.65303111076355,cat,cat,0,0555_stg_s02_0_cat_00_cat9-clock2.png
subject-02,1,556,0.662099838256836,knife,knife,0,0556_stg_s02_0_knife_00_knife9-bear3.png
subject-02,1,557,0.641549825668335,bottle,bottle,0,0557_stg_s02_0_bottle_00_bottle8-elephant3.png
subject-02,1,558,0.625587940216064,bird,bird,0,0558_stg_s02_0_bird_00_bird3-bird2.png
subject-02,1,559,0.645887851715088,bear,bear,0,0559_stg_s02_0_bear_00_bear3-airplane1.png
subject-02,1,560,0.697633028030396,car,car,0,0560_stg_s02_0_car_00_car8-truck3.png
subject-02,1,561,0.701109886169434,elephant,elephant,0,0561_stg_s02_0_elephant_00_elephant2-airplane3.png
subject-02,1,562,0.737497091293335,dog,dog,0,0562_stg_s02_0_dog_00_dog1-chair1.png
subject-02,1,563,0.451068878173828,truck,truck,0,0563_stg_s02_0_truck_00_truck10-car3.png
subject-02,1,564,0.684279203414917,truck,truck,0,0564_stg_s02_0_truck_00_truck3-bird2.png
subject-02,1,565,0.522536039352417,truck,truck,0,0565_stg_s02_0_truck_00_truck3-bicycle1.png
subject-02,1,566,0.564665079116821,knife,knife,0,0566_stg_s02_0_knife_00_knife6-dog2.png
subject-02,1,567,0.633136034011841,elephant,elephant,0,0567_stg_s02_0_elephant_00_elephant1-car3.png
subject-02,1,568,0.698338031768799,airplane,airplane,0,0568_stg_s02_0_airplane_00_airplane3-car1.png
subject-02,1,569,0.710119009017944,bear,bear,0,0569_stg_s02_0_bear_00_bear2-airplane1.png
subject-02,1,570,0.529515981674194,chair,chair,0,0570_stg_s02_0_chair_00_chair8-bicycle3.png
subject-02,1,571,0.543117046356201,chair,chair,0,0571_stg_s02_0_chair_00_chair3-knife1.png
subject-02,1,572,0.663431167602539,airplane,airplane,0,0572_stg_s02_0_airplane_00_airplane8-chair1.png
subject-02,1,573,0.690890073776245,keyboard,keyboard,0,0573_stg_s02_0_keyboard_00_keyboard9-bicycle2.png
subject-02,1,574,0.542326927185059,oven,oven,0,0574_stg_s02_0_oven_00_oven7-clock2.png
subject-02,1,575,0.508730173110962,cat,cat,0,0575_stg_s02_0_cat_00_cat10-bicycle1.png
subject-02,1,576,0.498043060302734,boat,boat,0,0576_stg_s02_0_boat_00_boat9-bear3.png
subject-02,1,577,0.550158977508545,truck,truck,0,0577_stg_s02_0_truck_00_truck2-bird2.png
subject-02,1,578,0.501767873764038,bicycle,bicycle,0,0578_stg_s02_0_bicycle_00_bicycle6-airplane2.png
subject-02,1,579,0.543720960617065,bird,bird,0,0579_stg_s02_0_bird_00_bird9-elephant2.png
subject-02,1,580,0.719901084899902,chair,chair,0,0580_stg_s02_0_chair_00_chair6-truck2.png
subject-02,1,581,0.556519031524658,airplane,airplane,0,0581_stg_s02_0_airplane_00_airplane2-bicycle1.png
subject-02,1,582,0.576123952865601,chair,chair,0,0582_stg_s02_0_chair_00_chair1-cat3.png
subject-02,1,583,0.628015041351318,airplane,airplane,0,0583_stg_s02_0_airplane_00_airplane7-car1.png
subject-02,1,584,0.433712005615234,bird,bird,0,0584_stg_s02_0_bird_00_bird8-boat3.png
subject-02,1,585,0.817387104034424,elephant,elephant,0,0585_stg_s02_0_elephant_00_elephant5-bicycle3.png
subject-02,1,586,0.51478099822998,cat,cat,0,0586_stg_s02_0_cat_00_cat7-bottle1.png
subject-02,1,587,0.534577131271362,airplane,airplane,0,0587_stg_s02_0_airplane_00_airplane10-cat2.png
subject-02,1,588,0.548502922058105,truck,truck,0,0588_stg_s02_0_truck_00_truck1-bicycle3.png
subject-02,1,589,0.552034139633179,airplane,airplane,0,0589_stg_s02_0_airplane_00_airplane2-dog1.png
subject-02,1,590,0.787846803665161,bird,bird,0,0590_stg_s02_0_bird_00_bird4-cat3.png
subject-02,1,591,0.553055047988892,truck,truck,0,0591_stg_s02_0_truck_00_truck5-cat3.png
subject-02,1,592,0.572201013565063,cat,cat,0,0592_stg_s02_0_cat_00_cat5-dog3.png
subject-02,1,593,0.548198938369751,boat,boat,0,0593_stg_s02_0_boat_00_boat3-car3.png
subject-02,1,594,0.628219127655029,keyboard,keyboard,0,0594_stg_s02_0_keyboard_00_keyboard3-car2.png
subject-02,1,595,0.533712148666382,oven,oven,0,0595_stg_s02_0_oven_00_oven4-bottle2.png
subject-02,1,596,0.56178617477417,bird,bird,0,0596_stg_s02_0_bird_00_bird1-boat1.png
subject-02,1,597,0.572534799575806,elephant,elephant,0,0597_stg_s02_0_elephant_00_elephant6-car3.png
subject-02,1,598,0.532699823379517,oven,oven,0,0598_stg_s02_0_oven_00_oven10-oven3.png
subject-02,1,599,0.622231960296631,keyboard,keyboard,0,0599_stg_s02_0_keyboard_00_keyboard1-bird2.png
subject-02,1,600,0.841807126998901,knife,knife,0,0600_stg_s02_0_knife_00_knife2-bicycle3.png
subject-02,1,601,0.591395139694214,dog,dog,0,0601_stg_s02_0_dog_00_dog6-bicycle1.png
subject-02,1,602,0.742856025695801,elephant,elephant,0,0602_stg_s02_0_elephant_00_elephant7-bottle3.png
subject-02,1,603,0.960508108139038,bird,elephant,0,0603_stg_s02_0_elephant_00_elephant10-keyboard1.png
subject-02,1,604,1.13379216194153,keyboard,keyboard,0,0604_stg_s02_0_keyboard_00_keyboard10-keyboard1.png
subject-02,1,605,0.731683015823364,keyboard,keyboard,0,0605_stg_s02_0_keyboard_00_keyboard9-bird1.png
subject-02,1,606,0.496134996414185,car,car,0,0606_stg_s02_0_car_00_car8-bear1.png
subject-02,1,607,0.556521892547607,bird,bird,0,0607_stg_s02_0_bird_00_bird4-bicycle2.png
subject-02,1,608,0.575618982315063,dog,dog,0,0608_stg_s02_0_dog_00_dog8-dog3.png
subject-02,1,609,0.794987201690674,airplane,airplane,0,0609_stg_s02_0_airplane_00_airplane5-dog3.png
subject-02,1,610,0.590284824371338,bottle,bottle,0,0610_stg_s02_0_bottle_00_bottle6-bear2.png
subject-02,1,611,0.672111034393311,oven,bird,0,0611_stg_s02_0_bird_00_bird3-oven1.png
subject-02,1,612,0.692037105560303,knife,knife,0,0612_stg_s02_0_knife_00_knife5-truck3.png
subject-02,1,613,0.573501110076904,keyboard,keyboard,0,0613_stg_s02_0_keyboard_00_keyboard6-boat2.png
subject-02,1,614,0.563135862350464,keyboard,keyboard,0,0614_stg_s02_0_keyboard_00_keyboard9-keyboard2.png
subject-02,1,615,0.685541152954102,elephant,elephant,0,0615_stg_s02_0_elephant_00_elephant8-bicycle3.png
subject-02,1,616,0.619647979736328,keyboard,keyboard,0,0616_stg_s02_0_keyboard_00_keyboard7-oven2.png
subject-02,1,617,0.541688203811646,airplane,airplane,0,0617_stg_s02_0_airplane_00_airplane7-boat2.png
subject-02,1,618,0.607284069061279,boat,boat,0,0618_stg_s02_0_boat_00_boat3-bicycle2.png
subject-02,1,619,0.518228054046631,oven,oven,0,0619_stg_s02_0_oven_00_oven3-cat2.png
subject-02,1,620,0.823707103729248,bear,cat,0,0620_stg_s02_0_cat_00_cat9-boat2.png
subject-02,1,621,0.521587133407593,chair,chair,0,0621_stg_s02_0_chair_00_chair7-boat3.png
subject-02,1,622,0.534040927886963,cat,cat,0,0622_stg_s02_0_cat_00_cat10-keyboard1.png
subject-02,1,623,0.493539810180664,oven,bottle,0,0623_stg_s02_0_bottle_00_bottle7-keyboard2.png
subject-02,1,624,0.513469934463501,bear,bear,0,0624_stg_s02_0_bear_00_bear7-dog3.png
subject-02,1,625,0.600914001464844,keyboard,keyboard,0,0625_stg_s02_0_keyboard_00_keyboard2-bicycle3.png
subject-02,1,626,0.635102033615112,keyboard,keyboard,0,0626_stg_s02_0_keyboard_00_keyboard9-cat1.png
subject-02,1,627,0.563008069992065,truck,truck,0,0627_stg_s02_0_truck_00_truck6-boat2.png
subject-02,1,628,1.24249887466431,bird,bird,0,0628_stg_s02_0_bird_00_bird10-bird2.png
subject-02,1,629,0.623878955841064,oven,oven,0,0629_stg_s02_0_oven_00_oven9-oven1.png
subject-02,1,630,0.662184953689575,elephant,elephant,0,0630_stg_s02_0_elephant_00_elephant7-airplane3.png
subject-02,1,631,0.581301212310791,truck,truck,0,0631_stg_s02_0_truck_00_truck8-cat2.png
subject-02,1,632,0.541083097457886,oven,oven,0,0632_stg_s02_0_oven_00_oven2-bicycle1.png
subject-02,1,633,0.674718141555786,knife,knife,0,0633_stg_s02_0_knife_00_knife4-cat2.png
subject-02,1,634,0.579952001571655,bear,bear,0,0634_stg_s02_0_bear_00_bear1-bear3.png
subject-02,1,635,0.445912837982178,clock,clock,0,0635_stg_s02_0_clock_00_clock2-knife1.png
subject-02,1,636,0.443199872970581,oven,oven,0,0636_stg_s02_0_oven_00_oven2-boat3.png
subject-02,1,637,0.738392114639282,clock,bicycle,0,0637_stg_s02_0_bicycle_00_bicycle5-keyboard3.png
subject-02,1,638,0.836017847061157,bird,cat,0,0638_stg_s02_0_cat_00_cat4-bird2.png
subject-02,1,639,0.450263023376465,clock,clock,0,0639_stg_s02_0_clock_00_clock10-knife3.png
subject-02,1,640,0.485979080200195,bird,bird,0,0640_stg_s02_0_bird_00_bird1-clock3.png
subject-02,1,641,0.981420993804932,knife,boat,0,0641_stg_s02_0_boat_00_boat6-elephant2.png
subject-02,1,642,0.571400165557861,bottle,bottle,0,0642_stg_s02_0_bottle_00_bottle6-dog3.png
subject-02,1,643,1.15303802490234,dog,dog,0,0643_stg_s02_0_dog_00_dog3-truck2.png
subject-02,1,644,0.667056083679199,bicycle,bicycle,0,0644_stg_s02_0_bicycle_00_bicycle1-truck1.png
subject-02,1,645,0.748256921768188,keyboard,keyboard,0,0645_stg_s02_0_keyboard_00_keyboard7-bottle1.png
subject-02,1,646,0.667913913726807,elephant,elephant,0,0646_stg_s02_0_elephant_00_elephant8-clock2.png
subject-02,1,647,0.717216968536377,oven,oven,0,0647_stg_s02_0_oven_00_oven5-keyboard2.png
subject-02,1,648,0.460660219192505,cat,cat,0,0648_stg_s02_0_cat_00_cat3-bear2.png
subject-02,1,649,0.512163877487183,oven,oven,0,0649_stg_s02_0_oven_00_oven2-bottle1.png
subject-02,1,650,0.838284969329834,car,car,0,0650_stg_s02_0_car_00_car3-truck1.png
subject-02,1,651,0.797868967056274,dog,bear,0,0651_stg_s02_0_bear_00_bear1-bird2.png
subject-02,1,652,0.678407907485962,elephant,elephant,0,0652_stg_s02_0_elephant_00_elephant7-car3.png
subject-02,1,653,0.490069150924683,oven,oven,0,0653_stg_s02_0_oven_00_oven5-airplane1.png
subject-02,1,654,1.01871109008789,airplane,airplane,0,0654_stg_s02_0_airplane_00_airplane8-clock2.png
subject-02,1,655,0.486662864685059,clock,clock,0,0655_stg_s02_0_clock_00_clock9-bird2.png
subject-02,1,656,0.89900803565979,elephant,clock,0,0656_stg_s02_0_clock_00_clock1-elephant2.png
subject-02,1,657,0.872697114944458,elephant,elephant,0,0657_stg_s02_0_elephant_00_elephant1-boat2.png
subject-02,1,658,0.508530139923096,clock,clock,0,0658_stg_s02_0_clock_00_clock2-bear2.png
subject-02,1,659,0.598162889480591,boat,airplane,0,0659_stg_s02_0_airplane_00_airplane3-clock1.png
subject-02,1,660,0.480071067810059,boat,boat,0,0660_stg_s02_0_boat_00_boat5-boat3.png
subject-02,1,661,1.02368521690369,dog,dog,0,0661_stg_s02_0_dog_00_dog1-car2.png
subject-02,1,662,0.729773998260498,car,car,0,0662_stg_s02_0_car_00_car8-dog1.png
subject-02,1,663,0.916891098022461,airplane,airplane,0,0663_stg_s02_0_airplane_00_airplane6-chair3.png
subject-02,1,664,0.944823980331421,boat,airplane,0,0664_stg_s02_0_airplane_00_airplane4-car1.png
subject-02,1,665,0.642902851104736,elephant,elephant,0,0665_stg_s02_0_elephant_00_elephant9-elephant3.png
subject-02,1,666,0.649369955062866,cat,cat,0,0666_stg_s02_0_cat_00_cat3-elephant2.png
subject-02,1,667,NaN,na,boat,0,0667_stg_s02_0_boat_00_boat4-boat3.png
subject-02,1,668,NaN,na,elephant,0,0668_stg_s02_0_elephant_00_elephant3-truck1.png
subject-02,1,669,0.669153928756714,car,car,0,0669_stg_s02_0_car_00_car4-bicycle3.png
subject-02,1,670,0.572721004486084,bottle,bottle,0,0670_stg_s02_0_bottle_00_bottle10-truck3.png
subject-02,1,671,0.530455112457275,cat,bottle,0,0671_stg_s02_0_bottle_00_bottle7-bear1.png
subject-02,1,672,0.615323066711426,car,car,0,0672_stg_s02_0_car_00_car9-bird1.png
subject-02,1,673,1.02642297744751,bicycle,bicycle,0,0673_stg_s02_0_bicycle_00_bicycle5-bear1.png
subject-02,1,674,0.608373880386353,bicycle,bicycle,0,0674_stg_s02_0_bicycle_00_bicycle9-knife3.png
subject-02,1,675,0.790369033813477,keyboard,keyboard,0,0675_stg_s02_0_keyboard_00_keyboard7-dog1.png
subject-02,1,676,0.658347129821777,bird,bird,0,0676_stg_s02_0_bird_00_bird2-airplane3.png
subject-02,1,677,0.678828001022339,elephant,elephant,0,0677_stg_s02_0_elephant_00_elephant6-cat2.png
subject-02,1,678,0.653012990951538,truck,truck,0,0678_stg_s02_0_truck_00_truck7-bird2.png
subject-02,1,679,0.610312938690186,truck,truck,0,0679_stg_s02_0_truck_00_truck1-knife1.png
subject-02,1,680,0.524219989776611,cat,cat,0,0680_stg_s02_0_cat_00_cat4-dog3.png
subject-02,1,681,0.705627918243408,car,car,0,0681_stg_s02_0_car_00_car8-knife2.png
subject-02,1,682,0.80171799659729,airplane,airplane,0,0682_stg_s02_0_airplane_00_airplane3-elephant1.png
subject-02,1,683,0.607736110687256,keyboard,keyboard,0,0683_stg_s02_0_keyboard_00_keyboard8-dog3.png
subject-02,1,684,0.842633008956909,dog,dog,0,0684_stg_s02_0_dog_00_dog7-car2.png
subject-02,1,685,0.4705810546875,bicycle,bicycle,0,0685_stg_s02_0_bicycle_00_bicycle9-bottle1.png
subject-02,1,686,0.766319990158081,truck,car,0,0686_stg_s02_0_car_00_car5-truck3.png
subject-02,1,687,0.466127157211304,bottle,bottle,0,0687_stg_s02_0_bottle_00_bottle1-dog2.png
subject-02,1,688,0.662793159484863,bird,bird,0,0688_stg_s02_0_bird_00_bird6-boat2.png
subject-02,1,689,0.552250862121582,oven,oven,0,0689_stg_s02_0_oven_00_oven8-knife2.png
subject-02,1,690,0.533277034759521,truck,truck,0,0690_stg_s02_0_truck_00_truck6-bottle3.png
subject-02,1,691,0.636862993240356,bicycle,bicycle,0,0691_stg_s02_0_bicycle_00_bicycle7-elephant2.png
subject-02,1,692,0.68010401725769,car,car,0,0692_stg_s02_0_car_00_car1-clock2.png
subject-02,1,693,0.437589168548584,oven,oven,0,0693_stg_s02_0_oven_00_oven3-clock3.png
subject-02,1,694,0.603333950042725,keyboard,keyboard,0,0694_stg_s02_0_keyboard_00_keyboard6-elephant1.png
subject-02,1,695,0.685214996337891,dog,dog,0,0695_stg_s02_0_dog_00_dog5-oven1.png
subject-02,1,696,0.790245771408081,bicycle,bicycle,0,0696_stg_s02_0_bicycle_00_bicycle4-oven3.png
subject-02,1,697,0.501775979995728,oven,oven,0,0697_stg_s02_0_oven_00_oven9-bear2.png
subject-02,1,698,0.46699595451355,clock,clock,0,0698_stg_s02_0_clock_00_clock1-dog2.png
subject-02,1,699,0.6249680519104,dog,dog,0,0699_stg_s02_0_dog_00_dog4-bottle2.png
subject-02,1,700,0.721681118011475,elephant,elephant,0,0700_stg_s02_0_elephant_00_elephant6-knife2.png
subject-02,1,701,0.611391067504883,dog,cat,0,0701_stg_s02_0_cat_00_cat1-keyboard3.png
subject-02,1,702,0.439289093017578,clock,clock,0,0702_stg_s02_0_clock_00_clock2-dog1.png
subject-02,1,703,0.480310916900635,bird,bird,0,0703_stg_s02_0_bird_00_bird4-dog3.png
subject-02,1,704,0.424621820449829,cat,cat,0,0704_stg_s02_0_cat_00_cat3-cat1.png
subject-02,1,705,0.501075983047485,car,car,0,0705_stg_s02_0_car_00_car10-bicycle2.png
subject-02,1,706,0.558434963226318,keyboard,keyboard,0,0706_stg_s02_0_keyboard_00_keyboard10-boat2.png
subject-02,1,707,0.55616307258606,dog,dog,0,0707_stg_s02_0_dog_00_dog9-airplane3.png
subject-02,1,708,1.00654220581055,elephant,elephant,0,0708_stg_s02_0_elephant_00_elephant8-dog1.png
subject-02,1,709,0.666074991226196,knife,knife,0,0709_stg_s02_0_knife_00_knife8-boat1.png
subject-02,1,710,0.585708856582642,car,car,0,0710_stg_s02_0_car_00_car5-bottle1.png
subject-02,1,711,0.459555864334106,clock,clock,0,0711_stg_s02_0_clock_00_clock8-knife1.png
subject-02,1,712,0.732639074325562,elephant,elephant,0,0712_stg_s02_0_elephant_00_elephant8-boat2.png
subject-02,1,713,0.805783033370972,airplane,airplane,0,0713_stg_s02_0_airplane_00_airplane3-airplane2.png
subject-02,1,714,0.579883813858032,bird,bird,0,0714_stg_s02_0_bird_00_bird2-car3.png
subject-02,1,715,0.491513967514038,bottle,bottle,0,0715_stg_s02_0_bottle_00_bottle5-oven2.png
subject-02,1,716,0.464767932891846,bicycle,bicycle,0,0716_stg_s02_0_bicycle_00_bicycle7-knife2.png
subject-02,1,717,0.487231016159058,clock,clock,0,0717_stg_s02_0_clock_00_clock4-oven1.png
subject-02,1,718,0.481265068054199,bird,bird,0,0718_stg_s02_0_bird_00_bird4-clock1.png
subject-02,1,719,0.730771064758301,oven,knife,0,0719_stg_s02_0_knife_00_knife9-bird1.png
subject-02,1,720,0.820657968521118,dog,dog,0,0720_stg_s02_0_dog_00_dog7-knife3.png
subject-02,1,721,0.598205089569092,chair,chair,0,0721_stg_s02_0_chair_00_chair7-airplane1.png
subject-02,1,722,0.75600790977478,dog,dog,0,0722_stg_s02_0_dog_00_dog8-clock2.png
subject-02,1,723,0.675432920455933,truck,truck,0,0723_stg_s02_0_truck_00_truck7-bear2.png
subject-02,1,724,0.878622055053711,airplane,airplane,0,0724_stg_s02_0_airplane_00_airplane10-oven2.png
subject-02,1,725,0.601079940795898,car,car,0,0725_stg_s02_0_car_00_car9-truck3.png
subject-02,1,726,0.553531885147095,clock,boat,0,0726_stg_s02_0_boat_00_boat4-bicycle3.png
subject-02,1,727,0.551692962646484,truck,truck,0,0727_stg_s02_0_truck_00_truck10-truck3.png
subject-02,1,728,0.609596967697144,airplane,airplane,0,0728_stg_s02_0_airplane_00_airplane10-boat3.png
subject-02,1,729,0.591624021530151,clock,clock,0,0729_stg_s02_0_clock_00_clock6-truck3.png
subject-02,1,730,1.19527792930603,knife,knife,0,0730_stg_s02_0_knife_00_knife1-airplane1.png
subject-02,1,731,0.554709911346436,clock,clock,0,0731_stg_s02_0_clock_00_clock1-clock2.png
subject-02,1,732,0.598140001296997,chair,chair,0,0732_stg_s02_0_chair_00_chair1-oven3.png
subject-02,1,733,0.709599018096924,bird,cat,0,0733_stg_s02_0_cat_00_cat4-keyboard2.png
subject-02,1,734,0.637018918991089,knife,knife,0,0734_stg_s02_0_knife_00_knife4-knife2.png
subject-02,1,735,0.629063129425049,bottle,bottle,0,0735_stg_s02_0_bottle_00_bottle5-cat1.png
subject-02,1,736,0.88904595375061,bicycle,bicycle,0,0736_stg_s02_0_bicycle_00_bicycle6-bicycle3.png
subject-02,1,737,0.838435888290405,bottle,keyboard,0,0737_stg_s02_0_keyboard_00_keyboard7-chair3.png
subject-02,1,738,0.636718988418579,truck,truck,0,0738_stg_s02_0_truck_00_truck6-oven3.png
subject-02,1,739,0.594448804855347,bear,bear,0,0739_stg_s02_0_bear_00_bear2-bird3.png
subject-02,1,740,0.737504959106445,chair,chair,0,0740_stg_s02_0_chair_00_chair1-airplane2.png
subject-02,1,741,0.527683019638062,car,car,0,0741_stg_s02_0_car_00_car6-boat1.png
subject-02,1,742,0.455157041549683,bird,bird,0,0742_stg_s02_0_bird_00_bird9-bear3.png
subject-02,1,743,0.743025779724121,cat,dog,0,0743_stg_s02_0_dog_00_dog2-bicycle2.png
subject-02,1,744,0.748516082763672,truck,truck,0,0744_stg_s02_0_truck_00_truck2-oven3.png
subject-02,1,745,0.57557201385498,bicycle,bicycle,0,0745_stg_s02_0_bicycle_00_bicycle5-car3.png
subject-02,1,746,0.625881910324097,truck,truck,0,0746_stg_s02_0_truck_00_truck9-truck3.png
subject-02,1,747,0.477617025375366,cat,cat,0,0747_stg_s02_0_cat_00_cat10-elephant3.png
subject-02,1,748,0.713322877883911,dog,dog,0,0748_stg_s02_0_dog_00_dog4-truck2.png
subject-02,1,749,0.608997106552124,keyboard,keyboard,0,0749_stg_s02_0_keyboard_00_keyboard7-car3.png
subject-02,1,750,0.552114963531494,truck,truck,0,0750_stg_s02_0_truck_00_truck7-oven2.png
subject-02,1,751,0.555878162384033,cat,cat,0,0751_stg_s02_0_cat_00_cat5-boat1.png
subject-02,1,752,0.645624876022339,cat,cat,0,0752_stg_s02_0_cat_00_cat5-knife2.png
subject-02,1,753,0.605561017990112,bear,bear,0,0753_stg_s02_0_bear_00_bear8-elephant2.png
subject-02,1,754,0.633239984512329,bear,bear,0,0754_stg_s02_0_bear_00_bear2-car2.png
subject-02,1,755,1.12909388542175,boat,boat,0,0755_stg_s02_0_boat_00_boat10-bear3.png
subject-02,1,756,1.31061506271362,bear,bear,0,0756_stg_s02_0_bear_00_bear10-cat2.png
subject-02,1,757,0.641388893127441,elephant,elephant,0,0757_stg_s02_0_elephant_00_elephant5-bottle2.png
subject-02,1,758,0.522511959075928,boat,boat,0,0758_stg_s02_0_boat_00_boat9-boat3.png
subject-02,1,759,0.55059289932251,boat,boat,0,0759_stg_s02_0_boat_00_boat10-oven1.png
subject-02,1,760,0.518818855285645,oven,oven,0,0760_stg_s02_0_oven_00_oven5-bicycle1.png
subject-02,1,761,0.730823993682861,truck,truck,0,0761_stg_s02_0_truck_00_truck8-dog3.png
subject-02,1,762,0.834496021270752,elephant,elephant,0,0762_stg_s02_0_elephant_00_elephant3-chair1.png
subject-02,1,763,0.531378030776978,boat,boat,0,0763_stg_s02_0_boat_00_boat10-boat3.png
subject-02,1,764,0.667918920516968,oven,oven,0,0764_stg_s02_0_oven_00_oven9-clock2.png
subject-02,1,765,0.649322986602783,bottle,bottle,0,0765_stg_s02_0_bottle_00_bottle10-car1.png
subject-02,1,766,0.97696590423584,cat,airplane,0,0766_stg_s02_0_airplane_00_airplane5-oven3.png
subject-02,1,767,0.651098966598511,car,car,0,0767_stg_s02_0_car_00_car3-airplane3.png
subject-02,1,768,0.924887895584106,bottle,boat,0,0768_stg_s02_0_boat_00_boat1-chair3.png
subject-02,1,769,0.748358011245728,oven,keyboard,0,0769_stg_s02_0_keyboard_00_keyboard4-keyboard2.png
subject-02,1,770,0.60026216506958,bottle,bottle,0,0770_stg_s02_0_bottle_00_bottle2-elephant1.png
subject-02,1,771,0.660252094268799,bicycle,bicycle,0,0771_stg_s02_0_bicycle_00_bicycle9-car1.png
subject-02,1,772,1.05656814575195,dog,dog,0,0772_stg_s02_0_dog_00_dog10-bottle1.png
subject-02,1,773,0.709959030151367,cat,cat,0,0773_stg_s02_0_cat_00_cat1-oven1.png
subject-02,1,774,0.699584007263184,bear,bear,0,0774_stg_s02_0_bear_00_bear10-clock1.png
subject-02,1,775,0.687092065811157,car,car,0,0775_stg_s02_0_car_00_car6-knife1.png
subject-02,1,776,0.562918186187744,boat,boat,0,0776_stg_s02_0_boat_00_boat9-dog2.png
subject-02,1,777,0.713117837905884,keyboard,keyboard,0,0777_stg_s02_0_keyboard_00_keyboard9-truck3.png
subject-02,1,778,0.518563985824585,bear,bear,0,0778_stg_s02_0_bear_00_bear5-chair1.png
subject-02,1,779,0.554512977600098,oven,oven,0,0779_stg_s02_0_oven_00_oven5-elephant1.png
subject-02,1,780,0.714539051055908,bear,bear,0,0780_stg_s02_0_bear_00_bear5-bicycle3.png
subject-02,1,781,0.680328130722046,bird,bird,0,0781_stg_s02_0_bird_00_bird1-airplane2.png
subject-02,1,782,0.792074918746948,keyboard,keyboard,0,0782_stg_s02_0_keyboard_00_keyboard4-clock2.png
subject-02,1,783,0.80542516708374,keyboard,keyboard,0,0783_stg_s02_0_keyboard_00_keyboard10-car1.png
subject-02,1,784,0.693115949630737,bear,bear,0,0784_stg_s02_0_bear_00_bear9-keyboard3.png
subject-02,1,785,0.882717847824097,truck,truck,0,0785_stg_s02_0_truck_00_truck2-clock1.png
subject-02,1,786,0.642028093338013,keyboard,keyboard,0,0786_stg_s02_0_keyboard_00_keyboard5-keyboard1.png
subject-02,1,787,0.615827083587646,bird,bird,0,0787_stg_s02_0_bird_00_bird1-chair2.png
subject-02,1,788,0.597779035568237,boat,boat,0,0788_stg_s02_0_boat_00_boat1-elephant3.png
subject-02,1,789,0.479375123977661,clock,clock,0,0789_stg_s02_0_clock_00_clock6-bicycle1.png
subject-02,1,790,0.622742891311646,bicycle,bicycle,0,0790_stg_s02_0_bicycle_00_bicycle1-boat3.png
subject-02,1,791,0.667162895202637,cat,cat,0,0791_stg_s02_0_cat_00_cat9-cat3.png
subject-02,1,792,0.473119974136353,bicycle,bicycle,0,0792_stg_s02_0_bicycle_00_bicycle8-bird2.png
subject-02,1,793,0.954908847808838,boat,boat,0,0793_stg_s02_0_boat_00_boat8-bird2.png
subject-02,1,794,0.590695858001709,cat,bear,0,0794_stg_s02_0_bear_00_bear6-clock1.png
subject-02,1,795,1.40395593643188,car,boat,0,0795_stg_s02_0_boat_00_boat3-clock3.png
subject-02,1,796,0.687324047088623,knife,knife,0,0796_stg_s02_0_knife_00_knife8-car2.png
subject-02,1,797,0.778139114379883,car,car,0,0797_stg_s02_0_car_00_car3-oven3.png
subject-02,1,798,0.629270076751709,bear,bear,0,0798_stg_s02_0_bear_00_bear10-bear2.png
subject-02,1,799,0.670958995819092,keyboard,keyboard,0,0799_stg_s02_0_keyboard_00_keyboard10-oven3.png
subject-02,1,800,0.792330980300903,bicycle,bicycle,0,0800_stg_s02_0_bicycle_00_bicycle9-bird3.png
subject-02,1,801,0.909065961837769,cat,airplane,0,0801_stg_s02_0_airplane_00_airplane3-cat1.png
subject-02,1,802,0.614650011062622,bottle,bottle,0,0802_stg_s02_0_bottle_00_bottle4-truck1.png
subject-02,1,803,0.688436031341553,bottle,bottle,0,0803_stg_s02_0_bottle_00_bottle6-chair2.png
subject-02,1,804,0.800003051757812,elephant,knife,0,0804_stg_s02_0_knife_00_knife7-elephant2.png
subject-02,1,805,0.659735918045044,car,car,0,0805_stg_s02_0_car_00_car10-bottle3.png
subject-02,1,806,0.832801818847656,knife,knife,0,0806_stg_s02_0_knife_00_knife2-car3.png
subject-02,1,807,0.492385864257812,bird,bird,0,0807_stg_s02_0_bird_00_bird10-cat1.png
subject-02,1,808,0.680333852767944,clock,clock,0,0808_stg_s02_0_clock_00_clock9-keyboard2.png
subject-02,1,809,0.54759407043457,dog,dog,0,0809_stg_s02_0_dog_00_dog6-cat1.png
subject-02,1,810,0.681403875350952,bicycle,bicycle,0,0810_stg_s02_0_bicycle_00_bicycle1-bear1.png
subject-02,1,811,0.778810024261475,knife,airplane,0,0811_stg_s02_0_airplane_00_airplane4-truck2.png
subject-02,1,812,0.844568014144897,truck,truck,0,0812_stg_s02_0_truck_00_truck3-oven2.png
subject-02,1,813,0.645253896713257,car,car,0,0813_stg_s02_0_car_00_car8-clock2.png
subject-02,1,814,0.530720949172974,clock,clock,0,0814_stg_s02_0_clock_00_clock9-cat1.png
subject-02,1,815,0.712785959243774,elephant,elephant,0,0815_stg_s02_0_elephant_00_elephant6-truck3.png
subject-02,1,816,0.661864995956421,bicycle,bicycle,0,0816_stg_s02_0_bicycle_00_bicycle3-oven3.png
subject-02,1,817,0.468177795410156,boat,boat,0,0817_stg_s02_0_boat_00_boat1-bicycle2.png
subject-02,1,818,0.465758085250854,clock,clock,0,0818_stg_s02_0_clock_00_clock10-bottle1.png
subject-02,1,819,0.431699991226196,cat,cat,0,0819_stg_s02_0_cat_00_cat2-car3.png
subject-02,1,820,0.74512791633606,knife,knife,0,0820_stg_s02_0_knife_00_knife8-bottle3.png
subject-02,1,821,0.780457973480225,boat,boat,0,0821_stg_s02_0_boat_00_boat4-bird1.png
subject-02,1,822,0.709112882614136,truck,truck,0,0822_stg_s02_0_truck_00_truck3-dog3.png
subject-02,1,823,0.852894067764282,airplane,airplane,0,0823_stg_s02_0_airplane_00_airplane7-keyboard1.png
subject-02,1,824,0.793046951293945,elephant,elephant,0,0824_stg_s02_0_elephant_00_elephant2-elephant3.png
subject-02,1,825,0.582677125930786,truck,truck,0,0825_stg_s02_0_truck_00_truck5-dog3.png
subject-02,1,826,0.688532829284668,car,car,0,0826_stg_s02_0_car_00_car6-bicycle3.png
subject-02,1,827,0.615962028503418,elephant,elephant,0,0827_stg_s02_0_elephant_00_elephant5-car1.png
subject-02,1,828,0.895356893539429,bird,bird,0,0828_stg_s02_0_bird_00_bird1-elephant2.png
subject-02,1,829,0.67979097366333,bird,bird,0,0829_stg_s02_0_bird_00_bird7-oven3.png
subject-02,1,830,0.67526388168335,clock,clock,0,0830_stg_s02_0_clock_00_clock3-bear3.png
subject-02,1,831,0.580834150314331,bird,bird,0,0831_stg_s02_0_bird_00_bird7-keyboard3.png
subject-02,1,832,0.686628103256226,cat,boat,0,0832_stg_s02_0_boat_00_boat7-truck2.png
subject-02,1,833,0.636486053466797,dog,dog,0,0833_stg_s02_0_dog_00_dog5-elephant1.png
subject-02,1,834,0.771726131439209,elephant,elephant,0,0834_stg_s02_0_elephant_00_elephant7-keyboard3.png
subject-02,1,835,1.14562892913818,bird,boat,0,0835_stg_s02_0_boat_00_boat6-truck3.png
subject-02,1,836,0.842867851257324,car,car,0,0836_stg_s02_0_car_00_car7-oven2.png
subject-02,1,837,0.849349975585938,truck,truck,0,0837_stg_s02_0_truck_00_truck1-car3.png
subject-02,1,838,0.815210103988647,chair,chair,0,0838_stg_s02_0_chair_00_chair4-chair3.png
subject-02,1,839,0.618428945541382,keyboard,keyboard,0,0839_stg_s02_0_keyboard_00_keyboard4-truck3.png
subject-02,1,840,0.908226013183594,dog,dog,0,0840_stg_s02_0_dog_00_dog4-oven1.png
subject-02,1,841,0.780642032623291,keyboard,keyboard,0,0841_stg_s02_0_keyboard_00_keyboard3-bicycle2.png
subject-02,1,842,0.738092184066772,bear,bear,0,0842_stg_s02_0_bear_00_bear8-boat2.png
subject-02,1,843,0.519716024398804,bottle,bottle,0,0843_stg_s02_0_bottle_00_bottle10-bear2.png
subject-02,1,844,0.73894190788269,oven,oven,0,0844_stg_s02_0_oven_00_oven10-truck2.png
subject-02,1,845,0.465986967086792,clock,clock,0,0845_stg_s02_0_clock_00_clock9-chair3.png
subject-02,1,846,0.685755014419556,elephant,elephant,0,0846_stg_s02_0_elephant_00_elephant3-keyboard2.png
subject-02,1,847,1.16691517829895,boat,boat,0,0847_stg_s02_0_boat_00_boat4-elephant2.png
subject-02,1,848,1.12466788291931,knife,boat,0,0848_stg_s02_0_boat_00_boat6-cat1.png
subject-02,1,849,0.785018920898438,knife,knife,0,0849_stg_s02_0_knife_00_knife2-bird1.png
subject-02,1,850,0.642344951629639,car,car,0,0850_stg_s02_0_car_00_car5-cat1.png
subject-02,1,851,0.57994818687439,bottle,bottle,0,0851_stg_s02_0_bottle_00_bottle1-clock1.png
subject-02,1,852,0.645865917205811,truck,truck,0,0852_stg_s02_0_truck_00_truck6-clock2.png
subject-02,1,853,0.589057922363281,clock,clock,0,0853_stg_s02_0_clock_00_clock4-bird3.png
subject-02,1,854,0.876600027084351,knife,knife,0,0854_stg_s02_0_knife_00_knife2-dog1.png
subject-02,1,855,0.573927879333496,chair,chair,0,0855_stg_s02_0_chair_00_chair9-elephant1.png
subject-02,1,856,0.840414047241211,dog,dog,0,0856_stg_s02_0_dog_00_dog1-knife3.png
subject-02,1,857,0.822123050689697,bottle,bottle,0,0857_stg_s02_0_bottle_00_bottle1-bird3.png
subject-02,1,858,0.527547121047974,clock,clock,0,0858_stg_s02_0_clock_00_clock10-oven2.png
subject-02,1,859,0.541513204574585,chair,chair,0,0859_stg_s02_0_chair_00_chair8-airplane1.png
subject-02,1,860,0.668801069259644,clock,clock,0,0860_stg_s02_0_clock_00_clock3-cat1.png
subject-02,1,861,0.742633819580078,keyboard,keyboard,0,0861_stg_s02_0_keyboard_00_keyboard3-cat1.png
subject-02,1,862,0.764526128768921,bird,airplane,0,0862_stg_s02_0_airplane_00_airplane4-bear3.png
subject-02,1,863,0.676513910293579,knife,knife,0,0863_stg_s02_0_knife_00_knife1-chair1.png
subject-02,1,864,0.553254842758179,bird,bird,0,0864_stg_s02_0_bird_00_bird9-bottle3.png
subject-02,1,865,0.394668102264404,clock,clock,0,0865_stg_s02_0_clock_00_clock2-bottle3.png
subject-02,1,866,0.546074867248535,chair,chair,0,0866_stg_s02_0_chair_00_chair7-bird1.png
subject-02,1,867,0.50621485710144,bicycle,bicycle,0,0867_stg_s02_0_bicycle_00_bicycle10-boat3.png
subject-02,1,868,0.658656120300293,oven,oven,0,0868_stg_s02_0_oven_00_oven8-keyboard3.png
subject-02,1,869,0.70051908493042,keyboard,keyboard,0,0869_stg_s02_0_keyboard_00_keyboard8-truck3.png
subject-02,1,870,0.560024976730347,bicycle,bicycle,0,0870_stg_s02_0_bicycle_00_bicycle7-bear2.png
subject-02,1,871,0.488303184509277,bottle,bottle,0,0871_stg_s02_0_bottle_00_bottle3-bicycle3.png
subject-02,1,872,0.532284021377563,truck,truck,0,0872_stg_s02_0_truck_00_truck4-oven2.png
subject-02,1,873,0.614463806152344,bear,bear,0,0873_stg_s02_0_bear_00_bear4-elephant2.png
subject-02,1,874,0.465056896209717,bottle,bottle,0,0874_stg_s02_0_bottle_00_bottle1-cat3.png
subject-02,1,875,0.623035907745361,truck,truck,0,0875_stg_s02_0_truck_00_truck6-truck2.png
subject-02,1,876,0.606868028640747,oven,chair,0,0876_stg_s02_0_chair_00_chair6-elephant2.png
subject-02,1,877,1.07874917984009,cat,cat,0,0877_stg_s02_0_cat_00_cat4-truck3.png
subject-02,1,878,0.570307970046997,dog,dog,0,0878_stg_s02_0_dog_00_dog1-airplane3.png
subject-02,1,879,0.544317007064819,cat,cat,0,0879_stg_s02_0_cat_00_cat7-knife2.png
subject-02,1,880,0.695720911026001,knife,knife,0,0880_stg_s02_0_knife_00_knife9-airplane2.png
subject-02,1,881,0.631969213485718,cat,cat,0,0881_stg_s02_0_cat_00_cat9-dog2.png
subject-02,1,882,0.653883934020996,chair,chair,0,0882_stg_s02_0_chair_00_chair5-oven2.png
subject-02,1,883,0.669481039047241,keyboard,keyboard,0,0883_stg_s02_0_keyboard_00_keyboard5-bird3.png
subject-02,1,884,0.689052104949951,truck,truck,0,0884_stg_s02_0_truck_00_truck1-bear1.png
subject-02,1,885,0.603005886077881,bird,bird,0,0885_stg_s02_0_bird_00_bird10-bear2.png
subject-02,1,886,0.493308067321777,clock,clock,0,0886_stg_s02_0_clock_00_clock1-truck3.png
subject-02,1,887,0.54507303237915,clock,boat,0,0887_stg_s02_0_boat_00_boat4-chair2.png
subject-02,1,888,0.778462886810303,bird,bird,0,0888_stg_s02_0_bird_00_bird2-bird2.png
subject-02,1,889,0.562834024429321,boat,boat,0,0889_stg_s02_0_boat_00_boat7-elephant3.png
subject-02,1,890,1.03415298461914,bird,bird,0,0890_stg_s02_0_bird_00_bird3-boat3.png
subject-02,1,891,0.548241853713989,keyboard,keyboard,0,0891_stg_s02_0_keyboard_00_keyboard5-airplane3.png
subject-02,1,892,0.461689949035645,boat,boat,0,0892_stg_s02_0_boat_00_boat5-airplane1.png
subject-02,1,893,0.627382040023804,cat,cat,0,0893_stg_s02_0_cat_00_cat5-chair3.png
subject-02,1,894,0.647513151168823,car,car,0,0894_stg_s02_0_car_00_car9-knife1.png
subject-02,1,895,0.693203926086426,bear,bear,0,0895_stg_s02_0_bear_00_bear3-bird3.png
subject-02,1,896,0.997642040252686,bicycle,bicycle,0,0896_stg_s02_0_bicycle_00_bicycle8-bear2.png
subject-02,1,897,0.620358943939209,bottle,bottle,0,0897_stg_s02_0_bottle_00_bottle3-boat3.png
subject-02,1,898,0.678247928619385,bicycle,bicycle,0,0898_stg_s02_0_bicycle_00_bicycle8-truck1.png
subject-02,1,899,0.478652000427246,bird,bird,0,0899_stg_s02_0_bird_00_bird5-cat2.png
subject-02,1,900,0.735946893692017,cat,cat,0,0900_stg_s02_0_cat_00_cat3-oven2.png
subject-02,1,901,0.580227136611938,bird,bird,0,0901_stg_s02_0_bird_00_bird7-bottle1.png
subject-02,1,902,0.591942071914673,elephant,elephant,0,0902_stg_s02_0_elephant_00_elephant8-oven3.png
subject-02,1,903,0.681792974472046,oven,oven,0,0903_stg_s02_0_oven_00_oven6-airplane3.png
subject-02,1,904,0.541723966598511,bottle,bottle,0,0904_stg_s02_0_bottle_00_bottle8-bottle3.png
subject-02,1,905,1.02981305122375,truck,truck,0,0905_stg_s02_0_truck_00_truck2-bicycle2.png
subject-02,1,906,0.488966941833496,oven,oven,0,0906_stg_s02_0_oven_00_oven5-bottle3.png
subject-02,1,907,0.670976877212524,oven,oven,0,0907_stg_s02_0_oven_00_oven7-oven1.png
subject-02,1,908,0.944658994674683,knife,knife,0,0908_stg_s02_0_knife_00_knife5-keyboard3.png
subject-02,1,909,0.520382881164551,bicycle,bicycle,0,0909_stg_s02_0_bicycle_00_bicycle8-clock3.png
subject-02,1,910,0.623488903045654,boat,boat,0,0910_stg_s02_0_boat_00_boat2-bird1.png
subject-02,1,911,0.821553945541382,dog,dog,0,0911_stg_s02_0_dog_00_dog9-boat1.png
subject-02,1,912,0.642025947570801,bicycle,bicycle,0,0912_stg_s02_0_bicycle_00_bicycle4-truck3.png
subject-02,1,913,0.569232940673828,oven,oven,0,0913_stg_s02_0_oven_00_oven1-clock3.png
subject-02,1,914,0.629436016082764,dog,dog,0,0914_stg_s02_0_dog_00_dog4-elephant2.png
subject-02,1,915,0.640902042388916,bear,bear,0,0915_stg_s02_0_bear_00_bear2-oven1.png
subject-02,1,916,0.592554807662964,clock,clock,0,0916_stg_s02_0_clock_00_clock5-bicycle1.png
subject-02,1,917,0.612578868865967,chair,chair,0,0917_stg_s02_0_chair_00_chair10-cat1.png
subject-02,1,918,0.439903020858765,boat,boat,0,0918_stg_s02_0_boat_00_boat1-car2.png
subject-02,1,919,0.57552695274353,bottle,bottle,0,0919_stg_s02_0_bottle_00_bottle6-bottle3.png
subject-02,1,920,0.665280103683472,bird,bird,0,0920_stg_s02_0_bird_00_bird3-cat1.png
subject-02,1,921,0.501367092132568,boat,boat,0,0921_stg_s02_0_boat_00_boat1-oven1.png
subject-02,1,922,0.728789091110229,dog,dog,0,0922_stg_s02_0_dog_00_dog7-oven2.png
subject-02,1,923,0.450481176376343,cat,cat,0,0923_stg_s02_0_cat_00_cat6-clock3.png
subject-02,1,924,0.627459049224854,bicycle,bicycle,0,0924_stg_s02_0_bicycle_00_bicycle1-chair1.png
subject-02,1,925,0.64729905128479,knife,knife,0,0925_stg_s02_0_knife_00_knife10-bear3.png
subject-02,1,926,0.49180793762207,clock,clock,0,0926_stg_s02_0_clock_00_clock6-clock2.png
subject-02,1,927,0.65161395072937,bicycle,bicycle,0,0927_stg_s02_0_bicycle_00_bicycle4-cat1.png
subject-02,1,928,0.587443113327026,bird,bird,0,0928_stg_s02_0_bird_00_bird1-knife3.png
subject-02,1,929,0.637243032455444,truck,truck,0,0929_stg_s02_0_truck_00_truck9-airplane2.png
subject-02,1,930,0.881013870239258,elephant,elephant,0,0930_stg_s02_0_elephant_00_elephant7-bird1.png
subject-02,1,931,0.770831108093262,elephant,elephant,0,0931_stg_s02_0_elephant_00_elephant2-clock1.png
subject-02,1,932,0.77413010597229,cat,cat,0,0932_stg_s02_0_cat_00_cat4-chair2.png
subject-02,1,933,0.687544822692871,car,car,0,0933_stg_s02_0_car_00_car7-dog3.png
subject-02,1,934,0.46961784362793,boat,boat,0,0934_stg_s02_0_boat_00_boat2-keyboard1.png
subject-02,1,935,0.635318994522095,elephant,elephant,0,0935_stg_s02_0_elephant_00_elephant5-bear2.png
subject-02,1,936,0.678807020187378,bear,bear,0,0936_stg_s02_0_bear_00_bear8-bear1.png
subject-02,1,937,0.513928174972534,clock,clock,0,0937_stg_s02_0_clock_00_clock6-car2.png
subject-02,1,938,0.628948926925659,knife,knife,0,0938_stg_s02_0_knife_00_knife10-elephant3.png
subject-02,1,939,0.619040012359619,bottle,bottle,0,0939_stg_s02_0_bottle_00_bottle5-elephant1.png
subject-02,1,940,0.570585966110229,bicycle,bicycle,0,0940_stg_s02_0_bicycle_00_bicycle7-clock3.png
subject-02,1,941,0.621224880218506,bottle,bottle,0,0941_stg_s02_0_bottle_00_bottle3-bear2.png
subject-02,1,942,0.748023986816406,bear,bear,0,0942_stg_s02_0_bear_00_bear10-knife2.png
subject-02,1,943,0.683738946914673,chair,chair,0,0943_stg_s02_0_chair_00_chair6-dog1.png
subject-02,1,944,0.767702102661133,dog,dog,0,0944_stg_s02_0_dog_00_dog5-car3.png
subject-02,1,945,1.00166082382202,elephant,elephant,0,0945_stg_s02_0_elephant_00_elephant1-airplane2.png
subject-02,1,946,0.514674186706543,clock,clock,0,0946_stg_s02_0_clock_00_clock8-cat1.png
subject-02,1,947,0.672465085983276,knife,knife,0,0947_stg_s02_0_knife_00_knife1-bird2.png
subject-02,1,948,0.716370105743408,airplane,airplane,0,0948_stg_s02_0_airplane_00_airplane7-truck1.png
subject-02,1,949,0.506315946578979,chair,chair,0,0949_stg_s02_0_chair_00_chair3-car3.png
subject-02,1,950,0.557797908782959,cat,cat,0,0950_stg_s02_0_cat_00_cat9-bird3.png
subject-02,1,951,0.555583953857422,elephant,elephant,0,0951_stg_s02_0_elephant_00_elephant8-airplane3.png
subject-02,1,952,0.621163129806519,dog,dog,0,0952_stg_s02_0_dog_00_dog6-clock1.png
subject-02,1,953,0.734316825866699,bird,bird,0,0953_stg_s02_0_bird_00_bird6-truck2.png
subject-02,1,954,0.716253995895386,truck,truck,0,0954_stg_s02_0_truck_00_truck4-knife1.png
subject-02,1,955,0.635648012161255,bottle,bottle,0,0955_stg_s02_0_bottle_00_bottle2-chair3.png
subject-02,1,956,0.43661904335022,clock,clock,0,0956_stg_s02_0_clock_00_clock6-bird3.png
subject-02,1,957,0.994036912918091,knife,knife,0,0957_stg_s02_0_knife_00_knife1-keyboard3.png
subject-02,1,958,0.621913909912109,oven,oven,0,0958_stg_s02_0_oven_00_oven8-cat3.png
subject-02,1,959,0.736650943756104,knife,knife,0,0959_stg_s02_0_knife_00_knife5-clock1.png
subject-02,1,960,1.10467600822449,knife,knife,0,0960_stg_s02_0_knife_00_knife5-cat2.png
subject-02,1,961,0.608477115631104,bicycle,bicycle,0,0961_stg_s02_0_bicycle_00_bicycle1-bicycle3.png
subject-02,1,962,0.660911798477173,bird,bird,0,0962_stg_s02_0_bird_00_bird5-oven3.png
subject-02,1,963,0.512387990951538,bicycle,bicycle,0,0963_stg_s02_0_bicycle_00_bicycle2-bicycle1.png
subject-02,1,964,0.547709941864014,bottle,bottle,0,0964_stg_s02_0_bottle_00_bottle7-truck2.png
subject-02,1,965,0.937242031097412,knife,knife,0,0965_stg_s02_0_knife_00_knife6-truck1.png
subject-02,1,966,0.696907997131348,bicycle,bicycle,0,0966_stg_s02_0_bicycle_00_bicycle1-bird1.png
subject-02,1,967,0.640700817108154,bottle,bottle,0,0967_stg_s02_0_bottle_00_bottle8-dog2.png
subject-02,1,968,0.644262790679932,keyboard,keyboard,0,0968_stg_s02_0_keyboard_00_keyboard5-bicycle1.png
subject-02,1,969,0.788226842880249,bicycle,bicycle,0,0969_stg_s02_0_bicycle_00_bicycle1-clock3.png
subject-02,1,970,0.739957094192505,elephant,elephant,0,0970_stg_s02_0_elephant_00_elephant9-bicycle2.png
subject-02,1,971,0.98956298828125,dog,dog,0,0971_stg_s02_0_dog_00_dog3-keyboard1.png
subject-02,1,972,0.748682022094727,clock,clock,0,0972_stg_s02_0_clock_00_clock7-cat2.png
subject-02,1,973,0.51423716545105,bird,bird,0,0973_stg_s02_0_bird_00_bird8-elephant1.png
subject-02,1,974,0.649971008300781,elephant,elephant,0,0974_stg_s02_0_elephant_00_elephant2-bear3.png
subject-02,1,975,0.869929075241089,bottle,bottle,0,0975_stg_s02_0_bottle_00_bottle3-bird1.png
subject-02,1,976,0.559463024139404,clock,clock,0,0976_stg_s02_0_clock_00_clock2-clock3.png
subject-02,1,977,0.541025876998901,bottle,bottle,0,0977_stg_s02_0_bottle_00_bottle4-bicycle1.png
subject-02,1,978,0.654661893844604,cat,cat,0,0978_stg_s02_0_cat_00_cat6-chair3.png
subject-02,1,979,0.558027029037476,boat,boat,0,0979_stg_s02_0_boat_00_boat5-knife2.png
subject-02,1,980,0.539214849472046,cat,cat,0,0980_stg_s02_0_cat_00_cat5-car2.png
subject-02,1,981,0.669286012649536,knife,knife,0,0981_stg_s02_0_knife_00_knife1-dog1.png
subject-02,1,982,0.526808023452759,car,car,0,0982_stg_s02_0_car_00_car3-bottle3.png
subject-02,1,983,0.546870946884155,chair,chair,0,0983_stg_s02_0_chair_00_chair5-knife3.png
subject-02,1,984,1.05263805389404,knife,boat,0,0984_stg_s02_0_boat_00_boat7-keyboard3.png
subject-02,1,985,0.612519979476929,truck,truck,0,0985_stg_s02_0_truck_00_truck4-airplane3.png
subject-02,1,986,0.44629979133606,bicycle,bicycle,0,0986_stg_s02_0_bicycle_00_bicycle10-elephant2.png
subject-02,1,987,0.681514024734497,car,car,0,0987_stg_s02_0_car_00_car6-truck3.png
subject-02,1,988,0.72623610496521,chair,chair,0,0988_stg_s02_0_chair_00_chair7-cat1.png
subject-02,1,989,0.518174886703491,car,car,0,0989_stg_s02_0_car_00_car7-clock1.png
subject-02,1,990,0.516687870025635,boat,boat,0,0990_stg_s02_0_boat_00_boat8-dog3.png
subject-02,1,991,1.43667602539062,cat,bear,0,0991_stg_s02_0_bear_00_bear10-keyboard3.png
subject-02,1,992,0.550903081893921,boat,bear,0,0992_stg_s02_0_bear_00_bear4-car3.png
subject-02,1,993,0.591308832168579,chair,chair,0,0993_stg_s02_0_chair_00_chair5-car1.png
subject-02,1,994,0.651021957397461,car,car,0,0994_stg_s02_0_car_00_car7-bird3.png
subject-02,1,995,0.825122833251953,truck,truck,0,0995_stg_s02_0_truck_00_truck4-boat3.png
subject-02,1,996,0.698726892471313,boat,knife,0,0996_stg_s02_0_knife_00_knife7-boat3.png
subject-02,1,997,0.589020967483521,dog,dog,0,0997_stg_s02_0_dog_00_dog4-cat3.png
subject-02,1,998,0.556348085403442,oven,oven,0,0998_stg_s02_0_oven_00_oven2-oven3.png
subject-02,1,999,0.535544872283936,truck,truck,0,0999_stg_s02_0_truck_00_truck10-airplane1.png
subject-02,1,1000,0.532701015472412,clock,clock,0,1000_stg_s02_0_clock_00_clock10-boat2.png
subject-02,1,1001,0.522884845733643,bottle,bottle,0,1001_stg_s02_0_bottle_00_bottle6-boat3.png
subject-02,1,1002,0.567911148071289,boat,boat,0,1002_stg_s02_0_boat_00_boat6-car1.png
subject-02,1,1003,0.76515793800354,airplane,airplane,0,1003_stg_s02_0_airplane_00_airplane2-bottle1.png
subject-02,1,1004,0.646557092666626,chair,chair,0,1004_stg_s02_0_chair_00_chair9-dog2.png
subject-02,1,1005,0.544475078582764,oven,oven,0,1005_stg_s02_0_oven_00_oven1-cat1.png
subject-02,1,1006,0.573174953460693,bottle,bottle,0,1006_stg_s02_0_bottle_00_bottle5-chair1.png
subject-02,1,1007,0.878125905990601,keyboard,keyboard,0,1007_stg_s02_0_keyboard_00_keyboard7-bear2.png
subject-02,1,1008,0.69717001914978,bottle,bottle,0,1008_stg_s02_0_bottle_00_bottle5-airplane1.png
subject-02,1,1009,0.632972002029419,cat,cat,0,1009_stg_s02_0_cat_00_cat8-car2.png
subject-02,1,1010,0.652420997619629,elephant,elephant,0,1010_stg_s02_0_elephant_00_elephant1-bottle1.png
subject-02,1,1011,0.718384027481079,bird,bird,0,1011_stg_s02_0_bird_00_bird5-chair1.png
subject-02,1,1012,0.610705852508545,boat,boat,0,1012_stg_s02_0_boat_00_boat2-bottle2.png
subject-02,1,1013,0.638325929641724,knife,knife,0,1013_stg_s02_0_knife_00_knife8-bicycle1.png
subject-02,1,1014,0.449663877487183,cat,cat,0,1014_stg_s02_0_cat_00_cat1-car2.png
subject-02,1,1015,0.609330177307129,bear,bear,0,1015_stg_s02_0_bear_00_bear8-airplane1.png
subject-02,1,1016,0.759761810302734,bear,bear,0,1016_stg_s02_0_bear_00_bear3-car2.png
subject-02,1,1017,0.619803190231323,chair,chair,0,1017_stg_s02_0_chair_00_chair3-dog2.png
subject-02,1,1018,0.501192092895508,car,car,0,1018_stg_s02_0_car_00_car6-bottle1.png
subject-02,1,1019,0.461016893386841,chair,chair,0,1019_stg_s02_0_chair_00_chair2-keyboard2.png
subject-02,1,1020,0.59699821472168,oven,oven,0,1020_stg_s02_0_oven_00_oven1-bird3.png
subject-02,1,1021,0.77845287322998,knife,knife,0,1021_stg_s02_0_knife_00_knife1-oven1.png
subject-02,1,1022,0.676751136779785,keyboard,keyboard,0,1022_stg_s02_0_keyboard_00_keyboard7-clock3.png
subject-02,1,1023,0.759018898010254,dog,dog,0,1023_stg_s02_0_dog_00_dog10-car3.png
subject-02,1,1024,1.24033689498901,elephant,elephant,0,1024_stg_s02_0_elephant_00_elephant4-oven1.png
subject-02,1,1025,0.790952920913696,elephant,elephant,0,1025_stg_s02_0_elephant_00_elephant7-knife2.png
subject-02,1,1026,0.658928871154785,bicycle,bicycle,0,1026_stg_s02_0_bicycle_00_bicycle2-keyboard2.png
subject-02,1,1027,0.594194173812866,elephant,elephant,0,1027_stg_s02_0_elephant_00_elephant3-cat2.png
subject-02,1,1028,0.551704883575439,clock,clock,0,1028_stg_s02_0_clock_00_clock2-bicycle1.png
subject-02,1,1029,0.796343088150024,bird,bird,0,1029_stg_s02_0_bird_00_bird2-knife1.png
subject-02,1,1030,0.98554515838623,bear,bear,0,1030_stg_s02_0_bear_00_bear7-bicycle2.png
subject-02,1,1031,0.567153930664062,oven,oven,0,1031_stg_s02_0_oven_00_oven7-elephant1.png
subject-02,1,1032,0.648336887359619,car,car,0,1032_stg_s02_0_car_00_car10-elephant2.png
subject-02,1,1033,0.668713092803955,chair,chair,0,1033_stg_s02_0_chair_00_chair9-chair3.png
subject-02,1,1034,0.76031494140625,chair,chair,0,1034_stg_s02_0_chair_00_chair10-bird3.png
subject-02,1,1035,0.771991968154907,bear,bear,0,1035_stg_s02_0_bear_00_bear7-bear2.png
subject-02,1,1036,0.667340040206909,bird,bird,0,1036_stg_s02_0_bird_00_bird9-keyboard1.png
subject-02,1,1037,0.510688066482544,oven,oven,0,1037_stg_s02_0_oven_00_oven2-chair1.png
subject-02,1,1038,0.686976909637451,bear,elephant,0,1038_stg_s02_0_elephant_00_elephant4-chair3.png
subject-02,1,1039,0.540069103240967,cat,cat,0,1039_stg_s02_0_cat_00_cat6-keyboard3.png
subject-02,1,1040,0.783617973327637,truck,truck,0,1040_stg_s02_0_truck_00_truck3-clock3.png
subject-02,1,1041,0.581535816192627,bear,bear,0,1041_stg_s02_0_bear_00_bear1-chair2.png
subject-02,1,1042,0.66363000869751,airplane,airplane,0,1042_stg_s02_0_airplane_00_airplane1-clock1.png
subject-02,1,1043,0.644637107849121,bear,bear,0,1043_stg_s02_0_bear_00_bear2-knife2.png
subject-02,1,1044,0.772715091705322,dog,dog,0,1044_stg_s02_0_dog_00_dog5-truck2.png
subject-02,1,1045,0.975863933563232,knife,knife,0,1045_stg_s02_0_knife_00_knife10-keyboard3.png
subject-02,1,1046,0.519800901412964,oven,oven,0,1046_stg_s02_0_oven_00_oven6-bicycle1.png
subject-02,1,1047,0.46283483505249,oven,oven,0,1047_stg_s02_0_oven_00_oven6-oven3.png
subject-02,1,1048,0.696219205856323,elephant,elephant,0,1048_stg_s02_0_elephant_00_elephant10-knife3.png
subject-02,1,1049,0.880290985107422,bear,bear,0,1049_stg_s02_0_bear_00_bear2-keyboard2.png
subject-02,1,1050,0.738085031509399,bird,bird,0,1050_stg_s02_0_bird_00_bird6-airplane2.png
subject-02,1,1051,0.551783084869385,oven,oven,0,1051_stg_s02_0_oven_00_oven9-airplane2.png
subject-02,1,1052,0.61717677116394,bird,bird,0,1052_stg_s02_0_bird_00_bird3-dog1.png
subject-02,1,1053,0.676342010498047,oven,oven,0,1053_stg_s02_0_oven_00_oven9-car2.png
subject-02,1,1054,0.574265956878662,keyboard,keyboard,0,1054_stg_s02_0_keyboard_00_keyboard8-chair2.png
subject-02,1,1055,0.840456008911133,keyboard,knife,0,1055_stg_s02_0_knife_00_knife6-chair3.png
subject-02,1,1056,0.798002958297729,elephant,elephant,0,1056_stg_s02_0_elephant_00_elephant9-airplane2.png
subject-02,1,1057,0.765585899353027,dog,dog,0,1057_stg_s02_0_dog_00_dog1-boat3.png
subject-02,1,1058,0.556025981903076,elephant,elephant,0,1058_stg_s02_0_elephant_00_elephant2-boat1.png
subject-02,1,1059,0.516113996505737,chair,chair,0,1059_stg_s02_0_chair_00_chair10-clock1.png
subject-02,1,1060,0.544144153594971,dog,dog,0,1060_stg_s02_0_dog_00_dog8-bottle2.png
subject-02,1,1061,0.687263011932373,keyboard,keyboard,0,1061_stg_s02_0_keyboard_00_keyboard1-airplane2.png
subject-02,1,1062,0.539823055267334,chair,chair,0,1062_stg_s02_0_chair_00_chair10-dog1.png
subject-02,1,1063,0.634939908981323,knife,knife,0,1063_stg_s02_0_knife_00_knife3-cat1.png
subject-02,1,1064,1.20888996124268,bottle,bottle,0,1064_stg_s02_0_bottle_00_bottle7-elephant2.png
subject-02,1,1065,0.576493978500366,bottle,bottle,0,1065_stg_s02_0_bottle_00_bottle5-clock3.png
subject-02,1,1066,0.726141929626465,airplane,airplane,0,1066_stg_s02_0_airplane_00_airplane4-cat3.png
subject-02,1,1067,0.502517938613892,car,car,0,1067_stg_s02_0_car_00_car10-keyboard2.png
subject-02,1,1068,0.60813307762146,oven,oven,0,1068_stg_s02_0_oven_00_oven1-dog3.png
subject-02,1,1069,0.444232940673828,oven,oven,0,1069_stg_s02_0_oven_00_oven7-dog2.png
subject-02,1,1070,0.541853189468384,keyboard,keyboard,0,1070_stg_s02_0_keyboard_00_keyboard8-keyboard2.png
subject-02,1,1071,0.653377056121826,dog,truck,0,1071_stg_s02_0_truck_00_truck7-keyboard3.png
subject-02,1,1072,0.543131828308105,bicycle,bicycle,0,1072_stg_s02_0_bicycle_00_bicycle5-cat1.png
subject-02,1,1073,0.432929039001465,boat,boat,0,1073_stg_s02_0_boat_00_boat7-boat2.png
subject-02,1,1074,0.544554948806763,cat,dog,0,1074_stg_s02_0_dog_00_dog2-bottle2.png
subject-02,1,1075,0.634682893753052,dog,dog,0,1075_stg_s02_0_dog_00_dog2-airplane2.png
subject-02,1,1076,0.561975002288818,bicycle,bicycle,0,1076_stg_s02_0_bicycle_00_bicycle3-keyboard1.png
subject-02,1,1077,0.530072927474976,car,car,0,1077_stg_s02_0_car_00_car7-boat3.png
subject-02,1,1078,0.698097229003906,knife,knife,0,1078_stg_s02_0_knife_00_knife5-oven2.png
subject-02,1,1079,0.97317099571228,knife,knife,0,1079_stg_s02_0_knife_00_knife4-car2.png
subject-02,1,1080,0.754849195480347,elephant,elephant,0,1080_stg_s02_0_elephant_00_elephant8-elephant1.png
subject-02,1,1081,0.630395889282227,cat,cat,0,1081_stg_s02_0_cat_00_cat9-bottle2.png
subject-02,1,1082,0.91758394241333,airplane,airplane,0,1082_stg_s02_0_airplane_00_airplane3-chair3.png
subject-02,1,1083,0.663727045059204,airplane,airplane,0,1083_stg_s02_0_airplane_00_airplane3-dog1.png
subject-02,1,1084,0.567580938339233,truck,truck,0,1084_stg_s02_0_truck_00_truck7-truck2.png
subject-02,1,1085,0.588974952697754,bear,bear,0,1085_stg_s02_0_bear_00_bear5-bird1.png
subject-02,1,1086,0.55468487739563,airplane,airplane,0,1086_stg_s02_0_airplane_00_airplane2-bird3.png
subject-02,1,1087,0.503450870513916,bicycle,bicycle,0,1087_stg_s02_0_bicycle_00_bicycle4-car2.png
subject-02,1,1088,0.647025108337402,truck,truck,0,1088_stg_s02_0_truck_00_truck8-elephant1.png
subject-02,1,1089,0.704264879226685,cat,cat,0,1089_stg_s02_0_cat_00_cat9-knife2.png
subject-02,1,1090,0.526144027709961,cat,cat,0,1090_stg_s02_0_cat_00_cat7-truck2.png
subject-02,1,1091,0.545619964599609,chair,chair,0,1091_stg_s02_0_chair_00_chair4-cat2.png
subject-02,1,1092,0.581385850906372,dog,dog,0,1092_stg_s02_0_dog_00_dog4-keyboard2.png
subject-02,1,1093,0.834235191345215,bear,bear,0,1093_stg_s02_0_bear_00_bear7-oven3.png
