subj,session,trial,rt,object_response,category,condition,imagename
subject-06,1,1,0.901810169219971,clock,oven,0,0001_stg_s06_0_oven_00_oven2-oven3.png
subject-06,1,2,1.06379199028015,cat,bird,0,0002_stg_s06_0_bird_00_bird2-dog2.png
subject-06,1,3,1.04233002662659,bird,car,0,0003_stg_s06_0_car_00_car1-dog2.png
subject-06,1,4,NaN,na,boat,0,0004_stg_s06_0_boat_00_boat10-boat3.png
subject-06,1,5,1.32043099403381,clock,boat,0,0005_stg_s06_0_boat_00_boat3-bicycle2.png
subject-06,1,6,1.39626407623291,bird,bird,0,0006_stg_s06_0_bird_00_bird10-chair1.png
subject-06,1,7,1.16615509986877,knife,knife,0,0007_stg_s06_0_knife_00_knife2-bear2.png
subject-06,1,8,NaN,na,elephant,0,0008_stg_s06_0_elephant_00_elephant9-elephant3.png
subject-06,1,9,NaN,na,bicycle,0,0009_stg_s06_0_bicycle_00_bicycle9-airplane2.png
subject-06,1,10,0.997188806533813,dog,dog,0,0010_stg_s06_0_dog_00_dog2-dog3.png
subject-06,1,11,1.40277814865112,bottle,keyboard,0,0011_stg_s06_0_keyboard_00_keyboard6-bicycle1.png
subject-06,1,12,1.25664591789246,bottle,bottle,0,0012_stg_s06_0_bottle_00_bottle2-bottle3.png
subject-06,1,13,1.16418313980103,elephant,bicycle,0,0013_stg_s06_0_bicycle_00_bicycle2-dog1.png
subject-06,1,14,NaN,na,bottle,0,0014_stg_s06_0_bottle_00_bottle9-cat2.png
subject-06,1,15,NaN,na,knife,0,0015_stg_s06_0_knife_00_knife3-bear2.png
subject-06,1,16,0.821511030197144,cat,bottle,0,0016_stg_s06_0_bottle_00_bottle9-elephant2.png
subject-06,1,17,1.00523781776428,bottle,bird,0,0017_stg_s06_0_bird_00_bird8-keyboard2.png
subject-06,1,18,0.997100114822388,keyboard,boat,0,0018_stg_s06_0_boat_00_boat7-chair1.png
subject-06,1,19,1.30458903312683,elephant,elephant,0,0019_stg_s06_0_elephant_00_elephant2-bear3.png
subject-06,1,20,1.17405915260315,bottle,keyboard,0,0020_stg_s06_0_keyboard_00_keyboard10-airplane3.png
subject-06,1,21,1.23386812210083,bear,truck,0,0021_stg_s06_0_truck_00_truck5-dog3.png
subject-06,1,22,0.981932878494263,oven,chair,0,0022_stg_s06_0_chair_00_chair3-bicycle3.png
subject-06,1,23,0.973931074142456,bottle,knife,0,0023_stg_s06_0_knife_00_knife4-car2.png
subject-06,1,24,1.2817919254303,knife,chair,0,0024_stg_s06_0_chair_00_chair8-clock3.png
subject-06,1,25,1.24882197380066,boat,dog,0,0025_stg_s06_0_dog_00_dog8-clock2.png
subject-06,1,26,NaN,na,truck,0,0026_stg_s06_0_truck_00_truck2-oven3.png
subject-06,1,27,1.13956308364868,clock,bicycle,0,0027_stg_s06_0_bicycle_00_bicycle6-cat1.png
subject-06,1,28,0.72331690788269,clock,bottle,0,0028_stg_s06_0_bottle_00_bottle10-clock2.png
subject-06,1,29,0.693917036056519,bottle,knife,0,0029_stg_s06_0_knife_00_knife9-bottle2.png
subject-06,1,30,1.28523302078247,oven,bird,0,0030_stg_s06_0_bird_00_bird5-bird1.png
subject-06,1,31,1.14681696891785,knife,bird,0,0031_stg_s06_0_bird_00_bird1-airplane2.png
subject-06,1,32,1.12273216247559,oven,oven,0,0032_stg_s06_0_oven_00_oven4-truck3.png
subject-06,1,33,0.845839977264404,cat,cat,0,0033_stg_s06_0_cat_00_cat2-elephant1.png
subject-06,1,34,0.899257898330688,clock,oven,0,0034_stg_s06_0_oven_00_oven2-car1.png
subject-06,1,35,1.12086987495422,car,clock,0,0035_stg_s06_0_clock_00_clock6-chair3.png
subject-06,1,36,1.13727903366089,elephant,bear,0,0036_stg_s06_0_bear_00_bear3-cat1.png
subject-06,1,37,NaN,na,chair,0,0037_stg_s06_0_chair_00_chair5-oven2.png
subject-06,1,38,1.24362516403198,clock,boat,0,0038_stg_s06_0_boat_00_boat7-truck2.png
subject-06,1,39,1.30563616752625,knife,elephant,0,0039_stg_s06_0_elephant_00_elephant1-car3.png
subject-06,1,40,1.0193920135498,boat,bottle,0,0040_stg_s06_0_bottle_00_bottle10-bear2.png
subject-06,1,41,1.15137100219727,dog,chair,0,0041_stg_s06_0_chair_00_chair4-keyboard2.png
subject-06,1,42,1.17493987083435,boat,oven,0,0042_stg_s06_0_oven_00_oven6-bicycle1.png
subject-06,1,43,0.853403091430664,clock,chair,0,0043_stg_s06_0_chair_00_chair4-oven2.png
subject-06,1,44,1.12924790382385,knife,elephant,0,0044_stg_s06_0_elephant_00_elephant7-keyboard3.png
subject-06,1,45,1.02037382125854,bottle,oven,0,0045_stg_s06_0_oven_00_oven5-bird1.png
subject-06,1,46,1.23121690750122,car,car,0,0046_stg_s06_0_car_00_car2-knife3.png
subject-06,1,47,1.50030422210693,knife,bird,0,0047_stg_s06_0_bird_00_bird5-truck2.png
subject-06,1,48,1.09305500984192,airplane,bird,0,0048_stg_s06_0_bird_00_bird2-knife1.png
subject-06,1,49,0.763669967651367,clock,airplane,0,0049_stg_s06_0_airplane_00_airplane3-clock1.png
subject-06,1,50,0.868144989013672,bottle,boat,0,0050_stg_s06_0_boat_00_boat8-knife1.png
subject-06,1,51,1.259526014328,bottle,bear,0,0051_stg_s06_0_bear_00_bear10-truck1.png
subject-06,1,52,1.48332500457764,bottle,boat,0,0052_stg_s06_0_boat_00_boat6-cat1.png
subject-06,1,53,0.859321117401123,knife,knife,0,0053_stg_s06_0_knife_00_knife9-boat1.png
subject-06,1,54,1.39192199707031,car,bird,0,0054_stg_s06_0_bird_00_bird9-chair1.png
subject-06,1,55,1.27765011787415,car,bottle,0,0055_stg_s06_0_bottle_00_bottle5-truck1.png
subject-06,1,56,0.952908039093018,car,bird,0,0056_stg_s06_0_bird_00_bird5-chair1.png
subject-06,1,57,1.18224000930786,knife,airplane,0,0057_stg_s06_0_airplane_00_airplane9-truck1.png
subject-06,1,58,1.50014305114746,airplane,bottle,0,0058_stg_s06_0_bottle_00_bottle6-chair2.png
subject-06,1,59,0.989588022232056,clock,clock,0,0059_stg_s06_0_clock_00_clock2-bottle3.png
subject-06,1,60,NaN,na,elephant,0,0060_stg_s06_0_elephant_00_elephant6-bird1.png
subject-06,1,61,1.03868293762207,clock,chair,0,0061_stg_s06_0_chair_00_chair3-bottle3.png
subject-06,1,62,1.26213908195496,bottle,bottle,0,0062_stg_s06_0_bottle_00_bottle1-chair2.png
subject-06,1,63,0.986063003540039,clock,dog,0,0063_stg_s06_0_dog_00_dog10-airplane1.png
subject-06,1,64,1.04609394073486,bear,bottle,0,0064_stg_s06_0_bottle_00_bottle1-keyboard3.png
subject-06,1,65,NaN,na,elephant,0,0065_stg_s06_0_elephant_00_elephant6-car3.png
subject-06,1,66,1.1231050491333,car,car,0,0066_stg_s06_0_car_00_car7-elephant3.png
subject-06,1,67,0.700899839401245,clock,elephant,0,0067_stg_s06_0_elephant_00_elephant1-bottle1.png
subject-06,1,68,0.792121887207031,clock,airplane,0,0068_stg_s06_0_airplane_00_airplane9-keyboard2.png
subject-06,1,69,1.39251184463501,clock,bird,0,0069_stg_s06_0_bird_00_bird7-bottle1.png
subject-06,1,70,NaN,na,chair,0,0070_stg_s06_0_chair_00_chair5-keyboard2.png
subject-06,1,71,0.896404027938843,chair,chair,0,0071_stg_s06_0_chair_00_chair10-oven1.png
subject-06,1,72,1.33395195007324,boat,car,0,0072_stg_s06_0_car_00_car4-clock1.png
subject-06,1,73,0.754606008529663,clock,boat,0,0073_stg_s06_0_boat_00_boat8-bottle1.png
subject-06,1,74,1.22366189956665,knife,bicycle,0,0074_stg_s06_0_bicycle_00_bicycle7-clock3.png
subject-06,1,75,1.08311700820923,bicycle,bottle,0,0075_stg_s06_0_bottle_00_bottle7-keyboard2.png
subject-06,1,76,1.36127901077271,elephant,elephant,0,0076_stg_s06_0_elephant_00_elephant7-clock2.png
subject-06,1,77,1.42318916320801,cat,car,0,0077_stg_s06_0_car_00_car6-bear1.png
subject-06,1,78,0.900686025619507,cat,clock,0,0078_stg_s06_0_clock_00_clock10-cat1.png
subject-06,1,79,1.17547011375427,airplane,elephant,0,0079_stg_s06_0_elephant_00_elephant2-bird1.png
subject-06,1,80,1.22114396095276,knife,boat,0,0080_stg_s06_0_boat_00_boat1-keyboard3.png
subject-06,1,81,1.32873606681824,clock,clock,0,0081_stg_s06_0_clock_00_clock8-bear2.png
subject-06,1,82,1.38016700744629,car,car,0,0082_stg_s06_0_car_00_car5-cat1.png
subject-06,1,83,NaN,na,elephant,0,0083_stg_s06_0_elephant_00_elephant9-bicycle2.png
subject-06,1,84,NaN,na,car,0,0084_stg_s06_0_car_00_car9-truck3.png
subject-06,1,85,0.962337970733643,boat,bicycle,0,0085_stg_s06_0_bicycle_00_bicycle1-bicycle3.png
subject-06,1,86,1.50011801719666,elephant,elephant,0,0086_stg_s06_0_elephant_00_elephant4-boat3.png
subject-06,1,87,NaN,na,cat,0,0087_stg_s06_0_cat_00_cat10-oven2.png
subject-06,1,88,0.811174154281616,clock,clock,0,0088_stg_s06_0_clock_00_clock7-cat2.png
subject-06,1,89,NaN,na,cat,0,0089_stg_s06_0_cat_00_cat2-knife3.png
subject-06,1,90,1.14477109909058,cat,cat,0,0090_stg_s06_0_cat_00_cat5-bicycle3.png
subject-06,1,91,1.50001406669617,dog,cat,0,0091_stg_s06_0_cat_00_cat4-cat3.png
subject-06,1,92,0.992371082305908,clock,dog,0,0092_stg_s06_0_dog_00_dog8-chair3.png
subject-06,1,93,1.44363784790039,elephant,bottle,0,0093_stg_s06_0_bottle_00_bottle7-bear1.png
subject-06,1,94,1.17510890960693,elephant,knife,0,0094_stg_s06_0_knife_00_knife9-elephant2.png
subject-06,1,95,1.20557403564453,oven,oven,0,0095_stg_s06_0_oven_00_oven4-clock2.png
subject-06,1,96,1.18390798568726,boat,knife,0,0096_stg_s06_0_knife_00_knife6-dog2.png
subject-06,1,97,1.08386898040771,clock,knife,0,0097_stg_s06_0_knife_00_knife8-bicycle1.png
subject-06,1,98,1.46173191070557,chair,chair,0,0098_stg_s06_0_chair_00_chair9-bicycle3.png
subject-06,1,99,0.883394002914429,knife,knife,0,0099_stg_s06_0_knife_00_knife5-bicycle2.png
subject-06,1,100,NaN,na,bear,0,0100_stg_s06_0_bear_00_bear2-dog1.png
subject-06,1,101,0.874392986297607,boat,airplane,0,0101_stg_s06_0_airplane_00_airplane3-airplane2.png
subject-06,1,102,1.25007510185242,dog,dog,0,0102_stg_s06_0_dog_00_dog2-cat1.png
subject-06,1,103,1.50004696846008,cat,bear,0,0103_stg_s06_0_bear_00_bear1-chair2.png
subject-06,1,104,1.09488296508789,clock,clock,0,0104_stg_s06_0_clock_00_clock4-oven1.png
subject-06,1,105,NaN,na,keyboard,0,0105_stg_s06_0_keyboard_00_keyboard9-cat1.png
subject-06,1,106,1.04765486717224,boat,airplane,0,0106_stg_s06_0_airplane_00_airplane7-bird3.png
subject-06,1,107,1.17709708213806,cat,boat,0,0107_stg_s06_0_boat_00_boat2-bear3.png
subject-06,1,108,NaN,na,knife,0,0108_stg_s06_0_knife_00_knife1-chair1.png
subject-06,1,109,1.31407904624939,knife,bottle,0,0109_stg_s06_0_bottle_00_bottle9-keyboard1.png
subject-06,1,110,1.3355278968811,airplane,boat,0,0110_stg_s06_0_boat_00_boat4-chair2.png
subject-06,1,111,NaN,na,bear,0,0111_stg_s06_0_bear_00_bear5-bird1.png
subject-06,1,112,1.17516016960144,knife,bird,0,0112_stg_s06_0_bird_00_bird6-truck2.png
subject-06,1,113,1.27561902999878,clock,car,0,0113_stg_s06_0_car_00_car4-oven2.png
subject-06,1,114,1.24264001846313,knife,knife,0,0114_stg_s06_0_knife_00_knife8-bottle3.png
subject-06,1,115,1.35809302330017,cat,boat,0,0115_stg_s06_0_boat_00_boat10-cat1.png
subject-06,1,116,1.15803813934326,clock,boat,0,0116_stg_s06_0_boat_00_boat2-airplane1.png
subject-06,1,117,1.15320777893066,dog,car,0,0117_stg_s06_0_car_00_car4-bear3.png
subject-06,1,118,1.33171606063843,cat,cat,0,0118_stg_s06_0_cat_00_cat10-bear1.png
subject-06,1,119,1.20823502540588,bottle,bird,0,0119_stg_s06_0_bird_00_bird3-bottle2.png
subject-06,1,120,1.33739185333252,dog,oven,0,0120_stg_s06_0_oven_00_oven6-elephant2.png
subject-06,1,121,1.16903305053711,knife,airplane,0,0121_stg_s06_0_airplane_00_airplane4-boat3.png
subject-06,1,122,1.30654883384705,knife,bird,0,0122_stg_s06_0_bird_00_bird8-knife2.png
subject-06,1,123,1.33517599105835,cat,oven,0,0123_stg_s06_0_oven_00_oven10-bear1.png
subject-06,1,124,0.959892988204956,boat,chair,0,0124_stg_s06_0_chair_00_chair5-bird1.png
subject-06,1,125,0.843178033828735,clock,boat,0,0125_stg_s06_0_boat_00_boat9-keyboard2.png
subject-06,1,126,1.18846106529236,oven,cat,0,0126_stg_s06_0_cat_00_cat8-car2.png
subject-06,1,127,0.942562103271484,oven,airplane,0,0127_stg_s06_0_airplane_00_airplane9-car2.png
subject-06,1,128,0.925734043121338,clock,chair,0,0128_stg_s06_0_chair_00_chair5-knife3.png
subject-06,1,129,1.21260499954224,oven,keyboard,0,0129_stg_s06_0_keyboard_00_keyboard7-car3.png
subject-06,1,130,1.12009310722351,cat,airplane,0,0130_stg_s06_0_airplane_00_airplane2-bear1.png
subject-06,1,131,NaN,na,bird,0,0131_stg_s06_0_bird_00_bird1-truck1.png
subject-06,1,132,0.872697114944458,bear,airplane,0,0132_stg_s06_0_airplane_00_airplane4-bicycle2.png
subject-06,1,133,1.43234395980835,knife,car,0,0133_stg_s06_0_car_00_car2-bird3.png
subject-06,1,134,1.16985082626343,knife,bear,0,0134_stg_s06_0_bear_00_bear2-knife2.png
subject-06,1,135,1.18540000915527,knife,oven,0,0135_stg_s06_0_oven_00_oven7-car3.png
subject-06,1,136,1.39291501045227,boat,cat,0,0136_stg_s06_0_cat_00_cat4-knife1.png
subject-06,1,137,0.75891900062561,clock,chair,0,0137_stg_s06_0_chair_00_chair5-clock2.png
subject-06,1,138,1.12633204460144,cat,car,0,0138_stg_s06_0_car_00_car8-dog1.png
subject-06,1,139,1.27080011367798,bird,bear,0,0139_stg_s06_0_bear_00_bear7-truck1.png
subject-06,1,140,1.44639706611633,car,oven,0,0140_stg_s06_0_oven_00_oven1-cat1.png
subject-06,1,141,1.39213681221008,dog,knife,0,0141_stg_s06_0_knife_00_knife1-dog1.png
subject-06,1,142,1.18346214294434,bird,dog,0,0142_stg_s06_0_dog_00_dog1-car2.png
subject-06,1,143,1.50015687942505,dog,boat,0,0143_stg_s06_0_boat_00_boat7-cat3.png
subject-06,1,144,1.42597484588623,keyboard,keyboard,0,0144_stg_s06_0_keyboard_00_keyboard2-bottle1.png
subject-06,1,145,1.27155494689941,bird,chair,0,0145_stg_s06_0_chair_00_chair5-bottle3.png
subject-06,1,146,NaN,na,knife,0,0146_stg_s06_0_knife_00_knife6-bicycle1.png
subject-06,1,147,1.06254816055298,bear,knife,0,0147_stg_s06_0_knife_00_knife3-cat1.png
subject-06,1,148,1.26996517181396,bear,bear,0,0148_stg_s06_0_bear_00_bear10-bear2.png
subject-06,1,149,NaN,na,bird,0,0149_stg_s06_0_bird_00_bird8-elephant1.png
subject-06,1,150,1.41288900375366,cat,bird,0,0150_stg_s06_0_bird_00_bird10-elephant2.png
subject-06,1,151,NaN,na,elephant,0,0151_stg_s06_0_elephant_00_elephant4-oven1.png
subject-06,1,152,0.953873872756958,boat,dog,0,0152_stg_s06_0_dog_00_dog10-car3.png
subject-06,1,153,1.12376689910889,cat,chair,0,0153_stg_s06_0_chair_00_chair3-dog2.png
subject-06,1,154,1.50036811828613,elephant,keyboard,0,0154_stg_s06_0_keyboard_00_keyboard6-bear2.png
subject-06,1,155,1.21516489982605,clock,bird,0,0155_stg_s06_0_bird_00_bird10-clock1.png
subject-06,1,156,1.24482202529907,bottle,clock,0,0156_stg_s06_0_clock_00_clock3-cat1.png
subject-06,1,157,1.17721199989319,knife,bicycle,0,0157_stg_s06_0_bicycle_00_bicycle9-knife3.png
subject-06,1,158,1.12863993644714,bear,bear,0,0158_stg_s06_0_bear_00_bear8-bicycle3.png
subject-06,1,159,NaN,na,truck,0,0159_stg_s06_0_truck_00_truck7-oven2.png
subject-06,1,160,1.35250306129456,car,airplane,0,0160_stg_s06_0_airplane_00_airplane8-truck3.png
subject-06,1,161,0.944570064544678,car,bicycle,0,0161_stg_s06_0_bicycle_00_bicycle4-truck3.png
subject-06,1,162,0.956693887710571,elephant,airplane,0,0162_stg_s06_0_airplane_00_airplane3-elephant1.png
subject-06,1,163,1.44846296310425,cat,cat,0,0163_stg_s06_0_cat_00_cat8-bear1.png
subject-06,1,164,1.3861391544342,knife,bottle,0,0164_stg_s06_0_bottle_00_bottle6-bird1.png
subject-06,1,165,NaN,na,knife,0,0165_stg_s06_0_knife_00_knife7-chair2.png
subject-06,1,166,NaN,na,chair,0,0166_stg_s06_0_chair_00_chair9-boat2.png
subject-06,1,167,0.630696058273315,boat,dog,0,0167_stg_s06_0_dog_00_dog9-bottle1.png
subject-06,1,168,1.26061296463013,airplane,bear,0,0168_stg_s06_0_bear_00_bear6-clock1.png
subject-06,1,169,1.23826885223389,bird,truck,0,0169_stg_s06_0_truck_00_truck6-truck2.png
subject-06,1,170,1.26782011985779,bird,keyboard,0,0170_stg_s06_0_keyboard_00_keyboard2-knife1.png
subject-06,1,171,0.763657808303833,knife,knife,0,0171_stg_s06_0_knife_00_knife6-oven3.png
subject-06,1,172,1.32517504692078,bottle,bicycle,0,0172_stg_s06_0_bicycle_00_bicycle1-oven1.png
subject-06,1,173,0.992878913879395,cat,truck,0,0173_stg_s06_0_truck_00_truck1-cat1.png
subject-06,1,174,1.22249913215637,bicycle,oven,0,0174_stg_s06_0_oven_00_oven4-knife2.png
subject-06,1,175,1.36239504814148,knife,boat,0,0175_stg_s06_0_boat_00_boat9-bird1.png
subject-06,1,176,1.00975203514099,dog,cat,0,0176_stg_s06_0_cat_00_cat1-dog1.png
subject-06,1,177,1.50037002563477,clock,chair,0,0177_stg_s06_0_chair_00_chair8-airplane1.png
subject-06,1,178,1.5000159740448,truck,dog,0,0178_stg_s06_0_dog_00_dog8-boat3.png
subject-06,1,179,1.42091202735901,knife,elephant,0,0179_stg_s06_0_elephant_00_elephant6-oven1.png
subject-06,1,180,NaN,na,boat,0,0180_stg_s06_0_boat_00_boat7-bottle1.png
subject-06,1,181,1.26657295227051,bird,elephant,0,0181_stg_s06_0_elephant_00_elephant7-bottle3.png
subject-06,1,182,1.39544606208801,bird,knife,0,0182_stg_s06_0_knife_00_knife8-boat1.png
subject-06,1,183,1.45483899116516,bicycle,boat,0,0183_stg_s06_0_boat_00_boat3-clock3.png
subject-06,1,184,0.854470014572144,boat,truck,0,0184_stg_s06_0_truck_00_truck6-knife2.png
subject-06,1,185,0.986672163009644,elephant,airplane,0,0185_stg_s06_0_airplane_00_airplane10-elephant1.png
subject-06,1,186,0.924372911453247,dog,clock,0,0186_stg_s06_0_clock_00_clock10-clock3.png
subject-06,1,187,1.50000500679016,bird,bird,0,0187_stg_s06_0_bird_00_bird5-bicycle1.png
subject-06,1,188,1.10454106330872,bird,airplane,0,0188_stg_s06_0_airplane_00_airplane7-car1.png
subject-06,1,189,1.03668212890625,clock,bicycle,0,0189_stg_s06_0_bicycle_00_bicycle4-airplane1.png
subject-06,1,190,0.866283178329468,bottle,boat,0,0190_stg_s06_0_boat_00_boat3-chair3.png
subject-06,1,191,NaN,na,elephant,0,0191_stg_s06_0_elephant_00_elephant2-boat1.png
subject-06,1,192,0.846802949905396,bird,airplane,0,0192_stg_s06_0_airplane_00_airplane4-car1.png
subject-06,1,193,NaN,na,bottle,0,0193_stg_s06_0_bottle_00_bottle6-knife3.png
subject-06,1,194,1.08054995536804,bird,oven,0,0194_stg_s06_0_oven_00_oven2-boat3.png
subject-06,1,195,1.13380002975464,elephant,keyboard,0,0195_stg_s06_0_keyboard_00_keyboard8-oven1.png
subject-06,1,196,1.12590599060059,bird,chair,0,0196_stg_s06_0_chair_00_chair10-car2.png
subject-06,1,197,1.10145401954651,boat,oven,0,0197_stg_s06_0_oven_00_oven2-bottle1.png
subject-06,1,198,0.987427949905396,clock,boat,0,0198_stg_s06_0_boat_00_boat6-clock2.png
subject-06,1,199,1.50017809867859,elephant,bottle,0,0199_stg_s06_0_bottle_00_bottle2-elephant1.png
subject-06,1,200,NaN,na,cat,0,0200_stg_s06_0_cat_00_cat8-bicycle3.png
subject-06,1,201,1.20065021514893,cat,keyboard,0,0201_stg_s06_0_keyboard_00_keyboard8-dog3.png
subject-06,1,202,0.870446920394897,elephant,truck,0,0202_stg_s06_0_truck_00_truck9-elephant1.png
subject-06,1,203,1.42174911499023,clock,car,0,0203_stg_s06_0_car_00_car1-keyboard2.png
subject-06,1,204,1.50001311302185,dog,dog,0,0204_stg_s06_0_dog_00_dog9-cat1.png
subject-06,1,205,1.05197715759277,cat,dog,0,0205_stg_s06_0_dog_00_dog1-bear1.png
subject-06,1,206,0.913011074066162,cat,keyboard,0,0206_stg_s06_0_keyboard_00_keyboard5-bird3.png
subject-06,1,207,1.21300792694092,bear,bear,0,0207_stg_s06_0_bear_00_bear3-bicycle2.png
subject-06,1,208,0.920650959014893,clock,bear,0,0208_stg_s06_0_bear_00_bear3-keyboard2.png
subject-06,1,209,1.24232912063599,elephant,oven,0,0209_stg_s06_0_oven_00_oven7-clock2.png
subject-06,1,210,1.30442094802856,dog,bear,0,0210_stg_s06_0_bear_00_bear4-keyboard3.png
subject-06,1,211,1.44180917739868,bird,boat,0,0211_stg_s06_0_boat_00_boat8-bird2.png
subject-06,1,212,0.879441976547241,bird,airplane,0,0212_stg_s06_0_airplane_00_airplane4-knife1.png
subject-06,1,213,1.31673717498779,cat,oven,0,0213_stg_s06_0_oven_00_oven10-cat2.png
subject-06,1,214,1.07539892196655,boat,chair,0,0214_stg_s06_0_chair_00_chair7-knife2.png
subject-06,1,215,1.18903398513794,knife,knife,0,0215_stg_s06_0_knife_00_knife4-boat1.png
subject-06,1,216,1.34278011322021,dog,dog,0,0216_stg_s06_0_dog_00_dog10-bicycle1.png
subject-06,1,217,1.4976909160614,chair,truck,0,0217_stg_s06_0_truck_00_truck7-keyboard3.png
subject-06,1,218,1.34341597557068,cat,clock,0,0218_stg_s06_0_clock_00_clock3-dog2.png
subject-06,1,219,0.991674900054932,truck,bottle,0,0219_stg_s06_0_bottle_00_bottle7-oven2.png
subject-06,1,220,0.805207014083862,clock,dog,0,0220_stg_s06_0_dog_00_dog3-keyboard1.png
subject-06,1,221,0.82854700088501,elephant,cat,0,0221_stg_s06_0_cat_00_cat10-elephant3.png
subject-06,1,222,1.50001382827759,car,truck,0,0222_stg_s06_0_truck_00_truck9-airplane2.png
subject-06,1,223,1.12503504753113,bicycle,boat,0,0223_stg_s06_0_boat_00_boat2-bird1.png
subject-06,1,224,0.938827991485596,bird,clock,0,0224_stg_s06_0_clock_00_clock1-car1.png
subject-06,1,225,1.50040793418884,chair,chair,0,0225_stg_s06_0_chair_00_chair10-bird3.png
subject-06,1,226,1.27873206138611,cat,bird,0,0226_stg_s06_0_bird_00_bird9-elephant2.png
subject-06,1,227,1.40041303634644,oven,bicycle,0,0227_stg_s06_0_bicycle_00_bicycle8-clock3.png
subject-06,1,228,NaN,na,boat,0,0228_stg_s06_0_boat_00_boat1-bicycle2.png
subject-06,1,229,0.829823970794678,clock,bicycle,0,0229_stg_s06_0_bicycle_00_bicycle4-oven3.png
subject-06,1,230,1.42956209182739,clock,clock,0,0230_stg_s06_0_clock_00_clock6-bird3.png
subject-06,1,231,1.10076379776001,bird,cat,0,0231_stg_s06_0_cat_00_cat9-boat2.png
subject-06,1,232,1.28449392318726,airplane,keyboard,0,0232_stg_s06_0_keyboard_00_keyboard1-bear2.png
subject-06,1,233,0.854166984558105,boat,bottle,0,0233_stg_s06_0_bottle_00_bottle3-bird1.png
subject-06,1,234,0.975649833679199,cat,elephant,0,0234_stg_s06_0_elephant_00_elephant1-keyboard3.png
subject-06,1,235,1.49938583374023,bird,bottle,0,0235_stg_s06_0_bottle_00_bottle3-boat3.png
subject-06,1,236,1.23756098747253,bird,oven,0,0236_stg_s06_0_oven_00_oven3-car2.png
subject-06,1,237,0.724256038665771,clock,bear,0,0237_stg_s06_0_bear_00_bear3-airplane1.png
subject-06,1,238,1.00909090042114,dog,dog,0,0238_stg_s06_0_dog_00_dog2-bicycle2.png
subject-06,1,239,1.24613809585571,bird,elephant,0,0239_stg_s06_0_elephant_00_elephant3-truck1.png
subject-06,1,240,1.34595489501953,car,oven,0,0240_stg_s06_0_oven_00_oven4-bottle2.png
subject-06,1,241,1.08438897132874,elephant,truck,0,0241_stg_s06_0_truck_00_truck2-elephant1.png
subject-06,1,242,1.15470790863037,dog,car,0,0242_stg_s06_0_car_00_car7-bear1.png
subject-06,1,243,1.04620313644409,airplane,bottle,0,0243_stg_s06_0_bottle_00_bottle8-bird1.png
subject-06,1,244,1.50025701522827,elephant,oven,0,0244_stg_s06_0_oven_00_oven4-elephant3.png
subject-06,1,245,1.34357786178589,dog,bottle,0,0245_stg_s06_0_bottle_00_bottle1-bear1.png
subject-06,1,246,0.905552864074707,car,car,0,0246_stg_s06_0_car_00_car5-airplane3.png
subject-06,1,247,0.763983011245728,clock,keyboard,0,0247_stg_s06_0_keyboard_00_keyboard4-clock2.png
subject-06,1,248,0.749650955200195,bird,chair,0,0248_stg_s06_0_chair_00_chair1-chair1.png
subject-06,1,249,1.31004881858826,bird,airplane,0,0249_stg_s06_0_airplane_00_airplane1-bicycle2.png
subject-06,1,250,1.39331197738647,dog,car,0,0250_stg_s06_0_car_00_car4-cat3.png
subject-06,1,251,1.19282197952271,knife,bird,0,0251_stg_s06_0_bird_00_bird1-oven1.png
subject-06,1,252,NaN,na,oven,0,0252_stg_s06_0_oven_00_oven3-cat2.png
subject-06,1,253,1.26828098297119,dog,bicycle,0,0253_stg_s06_0_bicycle_00_bicycle9-cat3.png
subject-06,1,254,1.32785201072693,bird,cat,0,0254_stg_s06_0_cat_00_cat3-elephant2.png
subject-06,1,255,0.935180902481079,car,knife,0,0255_stg_s06_0_knife_00_knife7-boat3.png
subject-06,1,256,1.50005006790161,clock,bear,0,0256_stg_s06_0_bear_00_bear5-boat2.png
subject-06,1,257,0.931509017944336,knife,knife,0,0257_stg_s06_0_knife_00_knife6-bird1.png
subject-06,1,258,0.772199153900146,clock,clock,0,0258_stg_s06_0_clock_00_clock3-car2.png
subject-06,1,259,0.822347164154053,bear,bear,0,0259_stg_s06_0_bear_00_bear8-bear1.png
subject-06,1,260,0.697894096374512,chair,chair,0,0260_stg_s06_0_chair_00_chair10-airplane2.png
subject-06,1,261,0.973222017288208,boat,cat,0,0261_stg_s06_0_cat_00_cat1-keyboard3.png
subject-06,1,262,1.21089601516724,truck,truck,0,0262_stg_s06_0_truck_00_truck1-knife1.png
subject-06,1,263,0.964892148971558,cat,cat,0,0263_stg_s06_0_cat_00_cat7-dog3.png
subject-06,1,264,1.01090598106384,dog,dog,0,0264_stg_s06_0_dog_00_dog8-dog3.png
subject-06,1,265,1.23501300811768,car,car,0,0265_stg_s06_0_car_00_car8-truck3.png
subject-06,1,266,1.06435108184814,bicycle,bicycle,0,0266_stg_s06_0_bicycle_00_bicycle3-keyboard1.png
subject-06,1,267,1.0179979801178,cat,elephant,0,0267_stg_s06_0_elephant_00_elephant5-bear2.png
subject-06,1,268,0.923336029052734,boat,cat,0,0268_stg_s06_0_cat_00_cat5-airplane2.png
subject-06,1,269,1.33126187324524,knife,dog,0,0269_stg_s06_0_dog_00_dog1-airplane3.png
subject-06,1,270,0.923737049102783,knife,cat,0,0270_stg_s06_0_cat_00_cat5-knife2.png
subject-06,1,271,0.999269008636475,airplane,bottle,0,0271_stg_s06_0_bottle_00_bottle3-knife3.png
subject-06,1,272,1.36068820953369,car,car,0,0272_stg_s06_0_car_00_car7-boat3.png
subject-06,1,273,1.26094794273376,bear,bear,0,0273_stg_s06_0_bear_00_bear1-bicycle3.png
subject-06,1,274,0.960414886474609,truck,truck,0,0274_stg_s06_0_truck_00_truck9-truck3.png
subject-06,1,275,1.09779715538025,car,oven,0,0275_stg_s06_0_oven_00_oven2-truck3.png
subject-06,1,276,1.17356705665588,cat,bird,0,0276_stg_s06_0_bird_00_bird10-bird2.png
subject-06,1,277,0.757714033126831,keyboard,truck,0,0277_stg_s06_0_truck_00_truck5-keyboard1.png
subject-06,1,278,0.797558069229126,clock,chair,0,0278_stg_s06_0_chair_00_chair9-dog2.png
subject-06,1,279,1.2572169303894,cat,bottle,0,0279_stg_s06_0_bottle_00_bottle7-cat2.png
subject-06,1,280,0.827168941497803,bird,bicycle,0,0280_stg_s06_0_bicycle_00_bicycle7-cat1.png
subject-06,1,281,1.15674209594727,car,car,0,0281_stg_s06_0_car_00_car5-oven2.png
subject-06,1,282,1.17855596542358,car,chair,0,0282_stg_s06_0_chair_00_chair6-truck2.png
subject-06,1,283,0.872672080993652,boat,bird,0,0283_stg_s06_0_bird_00_bird1-boat1.png
subject-06,1,284,0.840366125106812,car,dog,0,0284_stg_s06_0_dog_00_dog6-truck2.png
subject-06,1,285,0.993926048278809,cat,bicycle,0,0285_stg_s06_0_bicycle_00_bicycle5-dog2.png
subject-06,1,286,NaN,na,elephant,0,0286_stg_s06_0_elephant_00_elephant9-airplane2.png
subject-06,1,287,0.793498992919922,dog,airplane,0,0287_stg_s06_0_airplane_00_airplane10-bear3.png
subject-06,1,288,1.2530529499054,elephant,boat,0,0288_stg_s06_0_boat_00_boat1-elephant3.png
subject-06,1,289,1.10729503631592,airplane,airplane,0,0289_stg_s06_0_airplane_00_airplane6-keyboard3.png
subject-06,1,290,1.39985918998718,knife,airplane,0,0290_stg_s06_0_airplane_00_airplane8-bird1.png
subject-06,1,291,0.815943956375122,cat,chair,0,0291_stg_s06_0_chair_00_chair5-cat3.png
subject-06,1,292,0.907428026199341,bird,knife,0,0292_stg_s06_0_knife_00_knife6-knife1.png
subject-06,1,293,0.914541959762573,boat,bottle,0,0293_stg_s06_0_bottle_00_bottle6-oven3.png
subject-06,1,294,1.36623215675354,car,car,0,0294_stg_s06_0_car_00_car2-chair1.png
subject-06,1,295,1.09025096893311,keyboard,bottle,0,0295_stg_s06_0_bottle_00_bottle5-knife1.png
subject-06,1,296,1.01160287857056,bird,bear,0,0296_stg_s06_0_bear_00_bear6-bottle3.png
subject-06,1,297,0.811020851135254,bird,bird,0,0297_stg_s06_0_bird_00_bird9-bottle3.png
subject-06,1,298,0.916275978088379,cat,boat,0,0298_stg_s06_0_boat_00_boat9-clock1.png
subject-06,1,299,0.9564049243927,bear,bicycle,0,0299_stg_s06_0_bicycle_00_bicycle4-chair2.png
subject-06,1,300,0.748623847961426,cat,clock,0,0300_stg_s06_0_clock_00_clock4-bird3.png
subject-06,1,301,0.864372968673706,elephant,boat,0,0301_stg_s06_0_boat_00_boat8-elephant1.png
subject-06,1,302,1.40000891685486,dog,bear,0,0302_stg_s06_0_bear_00_bear9-keyboard3.png
subject-06,1,303,0.853535890579224,boat,clock,0,0303_stg_s06_0_clock_00_clock3-bird1.png
subject-06,1,304,0.999443054199219,knife,bottle,0,0304_stg_s06_0_bottle_00_bottle5-keyboard2.png
subject-06,1,305,0.893467903137207,knife,keyboard,0,0305_stg_s06_0_keyboard_00_keyboard9-bird1.png
subject-06,1,306,1.16064190864563,bird,cat,0,0306_stg_s06_0_cat_00_cat6-clock3.png
subject-06,1,307,1.06823801994324,bird,clock,0,0307_stg_s06_0_clock_00_clock5-chair3.png
subject-06,1,308,0.928373098373413,bird,knife,0,0308_stg_s06_0_knife_00_knife10-knife1.png
subject-06,1,309,0.811830043792725,boat,cat,0,0309_stg_s06_0_cat_00_cat1-airplane1.png
subject-06,1,310,0.989368915557861,car,clock,0,0310_stg_s06_0_clock_00_clock8-truck2.png
subject-06,1,311,1.065101146698,clock,truck,0,0311_stg_s06_0_truck_00_truck3-clock3.png
subject-06,1,312,0.918691873550415,car,car,0,0312_stg_s06_0_car_00_car7-oven2.png
subject-06,1,313,0.902456998825073,elephant,elephant,0,0313_stg_s06_0_elephant_00_elephant8-bird2.png
subject-06,1,314,0.761697053909302,boat,truck,0,0314_stg_s06_0_truck_00_truck6-boat2.png
subject-06,1,315,0.993385076522827,oven,chair,0,0315_stg_s06_0_chair_00_chair7-bird1.png
subject-06,1,316,1.0541570186615,oven,oven,0,0316_stg_s06_0_oven_00_oven9-chair1.png
subject-06,1,317,0.9309241771698,clock,keyboard,0,0317_stg_s06_0_keyboard_00_keyboard10-keyboard1.png
subject-06,1,318,0.803010225296021,cat,boat,0,0318_stg_s06_0_boat_00_boat4-elephant2.png
subject-06,1,319,1.12417697906494,bird,bird,0,0319_stg_s06_0_bird_00_bird4-clock1.png
subject-06,1,320,1.03967881202698,dog,truck,0,0320_stg_s06_0_truck_00_truck8-dog3.png
subject-06,1,321,0.983151912689209,oven,oven,0,0321_stg_s06_0_oven_00_oven9-car2.png
subject-06,1,322,0.921009063720703,clock,oven,0,0322_stg_s06_0_oven_00_oven6-knife3.png
subject-06,1,323,0.928447961807251,boat,boat,0,0323_stg_s06_0_boat_00_boat6-car1.png
subject-06,1,324,1.35895395278931,bird,elephant,0,0324_stg_s06_0_elephant_00_elephant1-chair1.png
subject-06,1,325,0.999848127365112,keyboard,keyboard,0,0325_stg_s06_0_keyboard_00_keyboard7-boat2.png
subject-06,1,326,1.46150803565979,keyboard,bottle,0,0326_stg_s06_0_bottle_00_bottle4-truck1.png
subject-06,1,327,0.837547063827515,clock,bear,0,0327_stg_s06_0_bear_00_bear2-cat2.png
subject-06,1,328,1.01525020599365,keyboard,keyboard,0,0328_stg_s06_0_keyboard_00_keyboard5-oven2.png
subject-06,1,329,1.25888419151306,dog,bicycle,0,0329_stg_s06_0_bicycle_00_bicycle1-bear1.png
subject-06,1,330,0.82818603515625,cat,car,0,0330_stg_s06_0_car_00_car7-dog3.png
subject-06,1,331,1.14172577857971,elephant,car,0,0331_stg_s06_0_car_00_car3-elephant3.png
subject-06,1,332,1.22530794143677,clock,clock,0,0332_stg_s06_0_clock_00_clock8-airplane2.png
subject-06,1,333,0.794728994369507,bird,keyboard,0,0333_stg_s06_0_keyboard_00_keyboard6-bottle2.png
subject-06,1,334,1.29301309585571,bear,boat,0,0334_stg_s06_0_boat_00_boat6-knife2.png
subject-06,1,335,1.1302969455719,car,car,0,0335_stg_s06_0_car_00_car6-truck3.png
subject-06,1,336,1.00771379470825,bird,dog,0,0336_stg_s06_0_dog_00_dog1-chair1.png
subject-06,1,337,1.00540494918823,car,car,0,0337_stg_s06_0_car_00_car6-bicycle3.png
subject-06,1,338,0.929314136505127,car,keyboard,0,0338_stg_s06_0_keyboard_00_keyboard8-truck3.png
subject-06,1,339,0.829077959060669,clock,dog,0,0339_stg_s06_0_dog_00_dog4-bottle2.png
subject-06,1,340,1.15133118629456,dog,clock,0,0340_stg_s06_0_clock_00_clock2-elephant2.png
subject-06,1,341,0.988438844680786,cat,cat,0,0341_stg_s06_0_cat_00_cat2-bottle3.png
subject-06,1,342,0.910502195358276,bear,bear,0,0342_stg_s06_0_bear_00_bear4-oven2.png
subject-06,1,343,1.0025269985199,bird,cat,0,0343_stg_s06_0_cat_00_cat10-bicycle1.png
subject-06,1,344,1.23993587493896,elephant,cat,0,0344_stg_s06_0_cat_00_cat5-bear2.png
subject-06,1,345,1.44592189788818,cat,truck,0,0345_stg_s06_0_truck_00_truck1-chair2.png
subject-06,1,346,1.16938400268555,knife,airplane,0,0346_stg_s06_0_airplane_00_airplane3-oven1.png
subject-06,1,347,1.06707501411438,cat,bicycle,0,0347_stg_s06_0_bicycle_00_bicycle2-bicycle1.png
subject-06,1,348,1.35047316551208,knife,airplane,0,0348_stg_s06_0_airplane_00_airplane3-chair3.png
subject-06,1,349,1.15001082420349,bird,boat,0,0349_stg_s06_0_boat_00_boat5-car3.png
subject-06,1,350,1.14975214004517,cat,clock,0,0350_stg_s06_0_clock_00_clock7-bottle2.png
subject-06,1,351,0.925673961639404,car,boat,0,0351_stg_s06_0_boat_00_boat9-boat3.png
subject-06,1,352,0.79614782333374,cat,cat,0,0352_stg_s06_0_cat_00_cat10-bird2.png
subject-06,1,353,0.809693098068237,bird,bottle,0,0353_stg_s06_0_bottle_00_bottle4-car3.png
subject-06,1,354,1.14781308174133,dog,elephant,0,0354_stg_s06_0_elephant_00_elephant5-bottle2.png
subject-06,1,355,0.893583059310913,boat,dog,0,0355_stg_s06_0_dog_00_dog4-airplane3.png
subject-06,1,356,1.20942497253418,truck,dog,0,0356_stg_s06_0_dog_00_dog1-bird1.png
subject-06,1,357,0.947247982025146,bird,bird,0,0357_stg_s06_0_bird_00_bird4-dog3.png
subject-06,1,358,NaN,na,clock,0,0358_stg_s06_0_clock_00_clock7-truck3.png
subject-06,1,359,0.843909978866577,car,truck,0,0359_stg_s06_0_truck_00_truck2-car3.png
subject-06,1,360,0.711732864379883,clock,boat,0,0360_stg_s06_0_boat_00_boat2-keyboard1.png
subject-06,1,361,1.08184099197388,boat,cat,0,0361_stg_s06_0_cat_00_cat10-airplane3.png
subject-06,1,362,0.973282098770142,oven,truck,0,0362_stg_s06_0_truck_00_truck6-dog2.png
subject-06,1,363,0.764693975448608,cat,bicycle,0,0363_stg_s06_0_bicycle_00_bicycle9-bear1.png
subject-06,1,364,0.803234100341797,clock,bear,0,0364_stg_s06_0_bear_00_bear7-oven3.png
subject-06,1,365,0.948606014251709,bear,chair,0,0365_stg_s06_0_chair_00_chair1-cat3.png
subject-06,1,366,1.40078687667847,dog,knife,0,0366_stg_s06_0_knife_00_knife8-cat2.png
subject-06,1,367,1.00044202804565,dog,truck,0,0367_stg_s06_0_truck_00_truck7-bear2.png
subject-06,1,368,0.77921199798584,cat,bottle,0,0368_stg_s06_0_bottle_00_bottle5-cat1.png
subject-06,1,369,1.22540402412415,dog,elephant,0,0369_stg_s06_0_elephant_00_elephant3-cat2.png
subject-06,1,370,1.12296795845032,cat,truck,0,0370_stg_s06_0_truck_00_truck3-dog3.png
subject-06,1,371,1.22691082954407,clock,bottle,0,0371_stg_s06_0_bottle_00_bottle6-airplane1.png
subject-06,1,372,0.948337078094482,bear,elephant,0,0372_stg_s06_0_elephant_00_elephant8-airplane3.png
subject-06,1,373,1.2575249671936,bird,bottle,0,0373_stg_s06_0_bottle_00_bottle6-bottle3.png
subject-06,1,374,1.3025369644165,elephant,cat,0,0374_stg_s06_0_cat_00_cat2-boat2.png
subject-06,1,375,1.13241314888,cat,keyboard,0,0375_stg_s06_0_keyboard_00_keyboard7-truck2.png
subject-06,1,376,0.995489120483398,elephant,knife,0,0376_stg_s06_0_knife_00_knife10-elephant3.png
subject-06,1,377,1.37106895446777,elephant,chair,0,0377_stg_s06_0_chair_00_chair6-dog1.png
subject-06,1,378,1.36282801628113,cat,knife,0,0378_stg_s06_0_knife_00_knife4-clock3.png
subject-06,1,379,0.930716037750244,dog,keyboard,0,0379_stg_s06_0_keyboard_00_keyboard9-elephant2.png
subject-06,1,380,0.971234083175659,bird,chair,0,0380_stg_s06_0_chair_00_chair8-boat1.png
subject-06,1,381,0.930865049362183,clock,bottle,0,0381_stg_s06_0_bottle_00_bottle9-bicycle1.png
subject-06,1,382,0.768431901931763,bird,dog,0,0382_stg_s06_0_dog_00_dog7-car2.png
subject-06,1,383,0.881818056106567,bird,bicycle,0,0383_stg_s06_0_bicycle_00_bicycle8-boat1.png
subject-06,1,384,0.827679872512817,cat,elephant,0,0384_stg_s06_0_elephant_00_elephant6-cat2.png
subject-06,1,385,0.835303068161011,knife,keyboard,0,0385_stg_s06_0_keyboard_00_keyboard4-oven2.png
subject-06,1,386,0.903140068054199,cat,elephant,0,0386_stg_s06_0_elephant_00_elephant6-knife2.png
subject-06,1,387,1.0544261932373,car,knife,0,0387_stg_s06_0_knife_00_knife9-airplane2.png
subject-06,1,388,NaN,na,airplane,0,0388_stg_s06_0_airplane_00_airplane5-dog3.png
subject-06,1,389,1.48354387283325,bear,keyboard,0,0389_stg_s06_0_keyboard_00_keyboard1-clock1.png
subject-06,1,390,1.40572190284729,truck,truck,0,0390_stg_s06_0_truck_00_truck5-truck1.png
subject-06,1,391,1.22744488716125,airplane,boat,0,0391_stg_s06_0_boat_00_boat7-oven3.png
subject-06,1,392,1.29787516593933,cat,chair,0,0392_stg_s06_0_chair_00_chair8-keyboard3.png
subject-06,1,393,0.790659189224243,cat,chair,0,0393_stg_s06_0_chair_00_chair2-bear2.png
subject-06,1,394,1.12022304534912,car,clock,0,0394_stg_s06_0_clock_00_clock4-chair1.png
subject-06,1,395,1.29609894752502,oven,bird,0,0395_stg_s06_0_bird_00_bird8-bottle1.png
subject-06,1,396,1.22049593925476,dog,chair,0,0396_stg_s06_0_chair_00_chair4-bear2.png
subject-06,1,397,1.14981698989868,car,boat,0,0397_stg_s06_0_boat_00_boat6-airplane2.png
subject-06,1,398,1.16448712348938,dog,chair,0,0398_stg_s06_0_chair_00_chair10-dog1.png
subject-06,1,399,1.13441610336304,elephant,airplane,0,0399_stg_s06_0_airplane_00_airplane4-elephant1.png
subject-06,1,400,0.818092107772827,elephant,bird,0,0400_stg_s06_0_bird_00_bird1-elephant2.png
subject-06,1,401,1.11043810844421,oven,truck,0,0401_stg_s06_0_truck_00_truck3-keyboard3.png
subject-06,1,402,1.10804510116577,cat,car,0,0402_stg_s06_0_car_00_car9-bicycle2.png
subject-06,1,403,0.946051836013794,bird,knife,0,0403_stg_s06_0_knife_00_knife2-bicycle3.png
subject-06,1,404,1.22170400619507,boat,bottle,0,0404_stg_s06_0_bottle_00_bottle8-bottle3.png
subject-06,1,405,1.06818008422852,bear,bicycle,0,0405_stg_s06_0_bicycle_00_bicycle6-dog2.png
subject-06,1,406,NaN,na,bottle,0,0406_stg_s06_0_bottle_00_bottle9-bottle1.png
subject-06,1,407,1.22193598747253,truck,clock,0,0407_stg_s06_0_clock_00_clock7-boat3.png
subject-06,1,408,0.927148103713989,dog,dog,0,0408_stg_s06_0_dog_00_dog9-chair2.png
subject-06,1,409,1.06471014022827,bear,bear,0,0409_stg_s06_0_bear_00_bear9-bottle2.png
subject-06,1,410,0.910791158676147,elephant,dog,0,0410_stg_s06_0_dog_00_dog5-elephant1.png
subject-06,1,411,0.940291166305542,boat,bird,0,0411_stg_s06_0_bird_00_bird2-airplane3.png
subject-06,1,412,1.27842092514038,bicycle,bicycle,0,0412_stg_s06_0_bicycle_00_bicycle9-bird3.png
subject-06,1,413,1.20831513404846,dog,clock,0,0413_stg_s06_0_clock_00_clock8-chair2.png
subject-06,1,414,1.23903584480286,bird,elephant,0,0414_stg_s06_0_elephant_00_elephant7-car3.png
subject-06,1,415,1.03374195098877,cat,car,0,0415_stg_s06_0_car_00_car6-knife1.png
subject-06,1,416,0.917344093322754,cat,clock,0,0416_stg_s06_0_clock_00_clock10-oven2.png
subject-06,1,417,0.992727994918823,car,car,0,0417_stg_s06_0_car_00_car3-airplane3.png
subject-06,1,418,1.11455202102661,truck,cat,0,0418_stg_s06_0_cat_00_cat5-chair3.png
subject-06,1,419,1.37457895278931,dog,car,0,0419_stg_s06_0_car_00_car2-cat3.png
subject-06,1,420,0.921280860900879,car,boat,0,0420_stg_s06_0_boat_00_boat3-airplane2.png
subject-06,1,421,0.972568035125732,oven,truck,0,0421_stg_s06_0_truck_00_truck4-airplane3.png
subject-06,1,422,0.921406984329224,elephant,bicycle,0,0422_stg_s06_0_bicycle_00_bicycle5-elephant1.png
subject-06,1,423,0.951057910919189,bird,bird,0,0423_stg_s06_0_bird_00_bird2-car3.png
subject-06,1,424,0.97288703918457,elephant,elephant,0,0424_stg_s06_0_elephant_00_elephant4-clock3.png
subject-06,1,425,1.21922302246094,car,bear,0,0425_stg_s06_0_bear_00_bear10-keyboard3.png
subject-06,1,426,1.36274790763855,car,car,0,0426_stg_s06_0_car_00_car8-knife2.png
subject-06,1,427,1.19988107681274,truck,bottle,0,0427_stg_s06_0_bottle_00_bottle8-bicycle1.png
subject-06,1,428,1.46763896942139,truck,truck,0,0428_stg_s06_0_truck_00_truck4-bottle2.png
subject-06,1,429,1.3052818775177,cat,elephant,0,0429_stg_s06_0_elephant_00_elephant6-bicycle1.png
subject-06,1,430,1.50045704841614,car,chair,0,0430_stg_s06_0_chair_00_chair10-clock1.png
subject-06,1,431,1.46518588066101,dog,truck,0,0431_stg_s06_0_truck_00_truck6-cat2.png
subject-06,1,432,1.16314005851746,clock,bird,0,0432_stg_s06_0_bird_00_bird4-airplane1.png
subject-06,1,433,0.946532011032104,clock,dog,0,0433_stg_s06_0_dog_00_dog2-bottle2.png
subject-06,1,434,0.999851226806641,knife,bird,0,0434_stg_s06_0_bird_00_bird3-knife3.png
subject-06,1,435,1.24346899986267,bicycle,keyboard,0,0435_stg_s06_0_keyboard_00_keyboard9-boat2.png
subject-06,1,436,1.26486897468567,bird,bird,0,0436_stg_s06_0_bird_00_bird8-chair1.png
subject-06,1,437,1.14060807228088,dog,chair,0,0437_stg_s06_0_chair_00_chair1-dog1.png
subject-06,1,438,1.30837893486023,cat,bear,0,0438_stg_s06_0_bear_00_bear7-bicycle2.png
subject-06,1,439,0.992083072662354,cat,airplane,0,0439_stg_s06_0_airplane_00_airplane5-bird2.png
subject-06,1,440,1.24550008773804,dog,bear,0,0440_stg_s06_0_bear_00_bear10-cat2.png
subject-06,1,441,0.767343044281006,clock,clock,0,0441_stg_s06_0_clock_00_clock6-knife2.png
subject-06,1,442,0.813692092895508,clock,truck,0,0442_stg_s06_0_truck_00_truck2-bicycle2.png
subject-06,1,443,0.914050102233887,car,knife,0,0443_stg_s06_0_knife_00_knife6-truck1.png
subject-06,1,444,1.30398607254028,truck,car,0,0444_stg_s06_0_car_00_car1-clock2.png
subject-06,1,445,1.18761205673218,car,truck,0,0445_stg_s06_0_truck_00_truck2-chair1.png
subject-06,1,446,1.00929188728333,cat,oven,0,0446_stg_s06_0_oven_00_oven2-bird2.png
subject-06,1,447,1.50020289421082,knife,cat,0,0447_stg_s06_0_cat_00_cat3-truck3.png
subject-06,1,448,1.20125699043274,dog,bird,0,0448_stg_s06_0_bird_00_bird9-bear3.png
subject-06,1,449,1.28559494018555,bird,airplane,0,0449_stg_s06_0_airplane_00_airplane7-bottle3.png
subject-06,1,450,1.40991592407227,cat,bicycle,0,0450_stg_s06_0_bicycle_00_bicycle7-elephant2.png
subject-06,1,451,0.853458881378174,elephant,keyboard,0,0451_stg_s06_0_keyboard_00_keyboard6-elephant1.png
subject-06,1,452,0.974947929382324,clock,elephant,0,0452_stg_s06_0_elephant_00_elephant3-oven1.png
subject-06,1,453,0.921014070510864,clock,boat,0,0453_stg_s06_0_boat_00_boat4-car3.png
subject-06,1,454,1.12621402740479,bottle,bottle,0,0454_stg_s06_0_bottle_00_bottle10-car1.png
subject-06,1,455,0.925691843032837,bottle,car,0,0455_stg_s06_0_car_00_car6-bottle1.png
subject-06,1,456,0.909536838531494,car,bottle,0,0456_stg_s06_0_bottle_00_bottle7-airplane3.png
subject-06,1,457,0.584757804870605,clock,knife,0,0457_stg_s06_0_knife_00_knife3-clock2.png
subject-06,1,458,0.836930990219116,clock,cat,0,0458_stg_s06_0_cat_00_cat4-clock2.png
subject-06,1,459,0.828541994094849,boat,bicycle,0,0459_stg_s06_0_bicycle_00_bicycle4-car2.png
subject-06,1,460,0.771625995635986,cat,bear,0,0460_stg_s06_0_bear_00_bear4-truck3.png
subject-06,1,461,0.838878870010376,dog,oven,0,0461_stg_s06_0_oven_00_oven4-dog1.png
subject-06,1,462,0.639234066009521,clock,dog,0,0462_stg_s06_0_dog_00_dog3-bird2.png
subject-06,1,463,NaN,na,chair,0,0463_stg_s06_0_chair_00_chair9-bird3.png
subject-06,1,464,1.19834804534912,dog,bicycle,0,0464_stg_s06_0_bicycle_00_bicycle5-chair2.png
subject-06,1,465,1.17411303520203,bird,keyboard,0,0465_stg_s06_0_keyboard_00_keyboard3-bird3.png
subject-06,1,466,0.716058969497681,clock,cat,0,0466_stg_s06_0_cat_00_cat5-boat1.png
subject-06,1,467,0.791506052017212,clock,chair,0,0467_stg_s06_0_chair_00_chair9-keyboard2.png
subject-06,1,468,1.13554096221924,oven,dog,0,0468_stg_s06_0_dog_00_dog3-boat1.png
subject-06,1,469,1.14279103279114,chair,knife,0,0469_stg_s06_0_knife_00_knife1-keyboard3.png
subject-06,1,470,1.37877821922302,chair,keyboard,0,0470_stg_s06_0_keyboard_00_keyboard5-bottle1.png
subject-06,1,471,0.797842979431152,clock,clock,0,0471_stg_s06_0_clock_00_clock2-clock3.png
subject-06,1,472,1.07128810882568,boat,bicycle,0,0472_stg_s06_0_bicycle_00_bicycle9-bottle1.png
subject-06,1,473,1.07136201858521,knife,clock,0,0473_stg_s06_0_clock_00_clock7-bear2.png
subject-06,1,474,0.98503589630127,bicycle,oven,0,0474_stg_s06_0_oven_00_oven5-keyboard2.png
subject-06,1,475,0.876538991928101,car,car,0,0475_stg_s06_0_car_00_car7-car1.png
subject-06,1,476,0.989582061767578,bottle,dog,0,0476_stg_s06_0_dog_00_dog8-bottle2.png
subject-06,1,477,1.08704710006714,bird,airplane,0,0477_stg_s06_0_airplane_00_airplane2-cat1.png
subject-06,1,478,1.38632416725159,truck,boat,0,0478_stg_s06_0_boat_00_boat8-truck2.png
subject-06,1,479,0.908838033676147,bicycle,bicycle,0,0479_stg_s06_0_bicycle_00_bicycle4-keyboard3.png
subject-06,1,480,0.873995780944824,clock,bottle,0,0480_stg_s06_0_bottle_00_bottle2-clock1.png
subject-06,1,481,0.609596967697144,clock,bear,0,0481_stg_s06_0_bear_00_bear8-airplane1.png
subject-06,1,482,1.17724418640137,chair,airplane,0,0482_stg_s06_0_airplane_00_airplane10-oven2.png
subject-06,1,483,1.03860402107239,dog,bicycle,0,0483_stg_s06_0_bicycle_00_bicycle1-elephant2.png
subject-06,1,484,1.0063099861145,cat,clock,0,0484_stg_s06_0_clock_00_clock2-knife1.png
subject-06,1,485,0.729336023330688,elephant,bear,0,0485_stg_s06_0_bear_00_bear4-elephant2.png
subject-06,1,486,1.29117298126221,cat,knife,0,0486_stg_s06_0_knife_00_knife5-dog1.png
subject-06,1,487,0.590685129165649,clock,oven,0,0487_stg_s06_0_oven_00_oven5-airplane1.png
subject-06,1,488,1.14252901077271,bear,oven,0,0488_stg_s06_0_oven_00_oven8-cat3.png
subject-06,1,489,1.10226583480835,car,oven,0,0489_stg_s06_0_oven_00_oven10-airplane2.png
subject-06,1,490,0.693992137908936,boat,keyboard,0,0490_stg_s06_0_keyboard_00_keyboard5-cat1.png
subject-06,1,491,0.785912036895752,elephant,clock,0,0491_stg_s06_0_clock_00_clock3-elephant3.png
subject-06,1,492,0.991281986236572,clock,airplane,0,0492_stg_s06_0_airplane_00_airplane7-boat2.png
subject-06,1,493,0.937724113464355,dog,cat,0,0493_stg_s06_0_cat_00_cat5-dog3.png
subject-06,1,494,1.39737010002136,boat,bottle,0,0494_stg_s06_0_bottle_00_bottle2-car2.png
subject-06,1,495,1.09627890586853,bottle,boat,0,0495_stg_s06_0_boat_00_boat7-boat2.png
subject-06,1,496,1.17223310470581,keyboard,keyboard,0,0496_stg_s06_0_keyboard_00_keyboard5-bicycle1.png
subject-06,1,497,0.909856081008911,clock,clock,0,0497_stg_s06_0_clock_00_clock6-bottle1.png
subject-06,1,498,0.939702987670898,boat,bear,0,0498_stg_s06_0_bear_00_bear3-truck3.png
subject-06,1,499,0.97411584854126,car,knife,0,0499_stg_s06_0_knife_00_knife5-clock1.png
subject-06,1,500,1.05013704299927,clock,keyboard,0,0500_stg_s06_0_keyboard_00_keyboard8-chair2.png
subject-06,1,501,1.07910799980164,chair,bird,0,0501_stg_s06_0_bird_00_bird9-keyboard1.png
subject-06,1,502,1.0089259147644,oven,knife,0,0502_stg_s06_0_knife_00_knife5-keyboard3.png
subject-06,1,503,1.18483090400696,truck,elephant,0,0503_stg_s06_0_elephant_00_elephant5-car1.png
subject-06,1,504,1.14486193656921,bird,oven,0,0504_stg_s06_0_oven_00_oven3-bottle3.png
subject-06,1,505,1.04439997673035,bird,chair,0,0505_stg_s06_0_chair_00_chair9-chair3.png
subject-06,1,506,1.1498692035675,cat,clock,0,0506_stg_s06_0_clock_00_clock6-bicycle1.png
subject-06,1,507,0.955473899841309,dog,keyboard,0,0507_stg_s06_0_keyboard_00_keyboard6-dog2.png
subject-06,1,508,0.7173011302948,clock,elephant,0,0508_stg_s06_0_elephant_00_elephant5-chair3.png
subject-06,1,509,1.43179798126221,dog,cat,0,0509_stg_s06_0_cat_00_cat1-cat3.png
subject-06,1,510,1.09930109977722,oven,oven,0,0510_stg_s06_0_oven_00_oven9-bird3.png
subject-06,1,511,1.04573106765747,bird,chair,0,0511_stg_s06_0_chair_00_chair10-cat1.png
subject-06,1,512,1.18352007865906,car,bicycle,0,0512_stg_s06_0_bicycle_00_bicycle9-keyboard3.png
subject-06,1,513,0.815826892852783,cat,boat,0,0513_stg_s06_0_boat_00_boat7-keyboard3.png
subject-06,1,514,0.883686065673828,dog,oven,0,0514_stg_s06_0_oven_00_oven7-dog2.png
subject-06,1,515,1.26791501045227,car,cat,0,0515_stg_s06_0_cat_00_cat3-oven2.png
subject-06,1,516,0.935834169387817,dog,boat,0,0516_stg_s06_0_boat_00_boat6-dog1.png
subject-06,1,517,1.11966395378113,cat,truck,0,0517_stg_s06_0_truck_00_truck7-bird2.png
subject-06,1,518,1.20358300209045,car,bear,0,0518_stg_s06_0_bear_00_bear2-keyboard2.png
subject-06,1,519,0.819537878036499,bear,elephant,0,0519_stg_s06_0_elephant_00_elephant8-cat1.png
subject-06,1,520,0.850200891494751,cat,bottle,0,0520_stg_s06_0_bottle_00_bottle4-dog2.png
subject-06,1,521,0.925436973571777,car,airplane,0,0521_stg_s06_0_airplane_00_airplane8-chair1.png
subject-06,1,522,0.855599880218506,truck,bicycle,0,0522_stg_s06_0_bicycle_00_bicycle4-boat1.png
subject-06,1,523,0.930983066558838,dog,dog,0,0523_stg_s06_0_dog_00_dog1-cat3.png
subject-06,1,524,0.930783987045288,elephant,clock,0,0524_stg_s06_0_clock_00_clock1-elephant2.png
subject-06,1,525,0.998668909072876,clock,knife,0,0525_stg_s06_0_knife_00_knife3-keyboard3.png
subject-06,1,526,0.795914173126221,cat,keyboard,0,0526_stg_s06_0_keyboard_00_keyboard7-dog1.png
subject-06,1,527,0.971759080886841,car,airplane,0,0527_stg_s06_0_airplane_00_airplane9-oven2.png
subject-06,1,528,1.05502605438232,car,bear,0,0528_stg_s06_0_bear_00_bear8-truck3.png
subject-06,1,529,0.98907995223999,elephant,knife,0,0529_stg_s06_0_knife_00_knife9-bear3.png
subject-06,1,530,1.22436594963074,oven,keyboard,0,0530_stg_s06_0_keyboard_00_keyboard4-truck3.png
subject-06,1,531,1.00034809112549,bird,oven,0,0531_stg_s06_0_oven_00_oven4-chair1.png
subject-06,1,532,0.959565877914429,clock,dog,0,0532_stg_s06_0_dog_00_dog5-boat3.png
subject-06,1,533,1.15122604370117,dog,bottle,0,0533_stg_s06_0_bottle_00_bottle6-bicycle3.png
subject-06,1,534,1.50028610229492,cat,oven,0,0534_stg_s06_0_oven_00_oven5-bicycle1.png
subject-06,1,535,0.673007965087891,elephant,dog,0,0535_stg_s06_0_dog_00_dog3-elephant2.png
subject-06,1,536,0.775544881820679,clock,bottle,0,0536_stg_s06_0_bottle_00_bottle5-boat1.png
subject-06,1,537,1.35920286178589,boat,airplane,0,0537_stg_s06_0_airplane_00_airplane6-chair3.png
subject-06,1,538,1.08945822715759,airplane,airplane,0,0538_stg_s06_0_airplane_00_airplane7-airplane3.png
subject-06,1,539,0.843652009963989,cat,oven,0,0539_stg_s06_0_oven_00_oven3-clock3.png
subject-06,1,540,1.34916996955872,knife,clock,0,0540_stg_s06_0_clock_00_clock5-oven1.png
subject-06,1,541,1.43269515037537,knife,keyboard,0,0541_stg_s06_0_keyboard_00_keyboard8-airplane2.png
subject-06,1,542,1.36284708976746,oven,cat,0,0542_stg_s06_0_cat_00_cat1-oven1.png
subject-06,1,543,1.32487988471985,clock,bicycle,0,0543_stg_s06_0_bicycle_00_bicycle6-boat2.png
subject-06,1,544,0.885142087936401,bottle,cat,0,0544_stg_s06_0_cat_00_cat10-bottle1.png
subject-06,1,545,1.36899304389954,knife,bear,0,0545_stg_s06_0_bear_00_bear2-car2.png
subject-06,1,546,1.35261297225952,dog,boat,0,0546_stg_s06_0_boat_00_boat6-elephant2.png
subject-06,1,547,1.41203904151917,dog,bear,0,0547_stg_s06_0_bear_00_bear6-cat3.png
subject-06,1,548,1.00374102592468,boat,keyboard,0,0548_stg_s06_0_keyboard_00_keyboard3-boat1.png
subject-06,1,549,1.01752686500549,car,boat,0,0549_stg_s06_0_boat_00_boat10-truck1.png
subject-06,1,550,1.31051015853882,bear,bicycle,0,0550_stg_s06_0_bicycle_00_bicycle7-knife2.png
subject-06,1,551,0.972326040267944,truck,knife,0,0551_stg_s06_0_knife_00_knife6-boat3.png
subject-06,1,552,1.01594591140747,boat,airplane,0,0552_stg_s06_0_airplane_00_airplane10-knife3.png
subject-06,1,553,1.09165716171265,dog,clock,0,0553_stg_s06_0_clock_00_clock2-dog1.png
subject-06,1,554,1.12185001373291,car,oven,0,0554_stg_s06_0_oven_00_oven3-truck1.png
subject-06,1,555,0.881108045578003,oven,keyboard,0,0555_stg_s06_0_keyboard_00_keyboard9-keyboard2.png
subject-06,1,556,1.17828392982483,elephant,elephant,0,0556_stg_s06_0_elephant_00_elephant5-bicycle3.png
subject-06,1,557,1.13976502418518,cat,bird,0,0557_stg_s06_0_bird_00_bird3-bird2.png
subject-06,1,558,0.915672063827515,dog,knife,0,0558_stg_s06_0_knife_00_knife2-cat3.png
subject-06,1,559,1.26682209968567,car,airplane,0,0559_stg_s06_0_airplane_00_airplane9-boat1.png
subject-06,1,560,0.72658896446228,cat,cat,0,0560_stg_s06_0_cat_00_cat7-clock3.png
subject-06,1,561,0.886492967605591,truck,truck,0,0561_stg_s06_0_truck_00_truck2-airplane3.png
subject-06,1,562,1.34609293937683,bottle,airplane,0,0562_stg_s06_0_airplane_00_airplane10-dog3.png
subject-06,1,563,1.28372311592102,clock,keyboard,0,0563_stg_s06_0_keyboard_00_keyboard3-car2.png
subject-06,1,564,0.976412057876587,oven,dog,0,0564_stg_s06_0_dog_00_dog8-keyboard3.png
subject-06,1,565,1.30044078826904,bird,bottle,0,0565_stg_s06_0_bottle_00_bottle9-truck1.png
subject-06,1,566,1.07427597045898,car,boat,0,0566_stg_s06_0_boat_00_boat8-oven1.png
subject-06,1,567,1.16015195846558,truck,elephant,0,0567_stg_s06_0_elephant_00_elephant8-truck3.png
subject-06,1,568,1.01976108551025,bottle,keyboard,0,0568_stg_s06_0_keyboard_00_keyboard4-bottle2.png
subject-06,1,569,1.15785503387451,dog,elephant,0,0569_stg_s06_0_elephant_00_elephant7-bear3.png
subject-06,1,570,0.82542610168457,cat,knife,0,0570_stg_s06_0_knife_00_knife2-elephant2.png
subject-06,1,571,1.22318410873413,car,dog,0,0571_stg_s06_0_dog_00_dog2-airplane2.png
subject-06,1,572,NaN,na,elephant,0,0572_stg_s06_0_elephant_00_elephant2-truck2.png
subject-06,1,573,1.2659740447998,cat,clock,0,0573_stg_s06_0_clock_00_clock1-clock2.png
subject-06,1,574,0.979840993881226,dog,keyboard,0,0574_stg_s06_0_keyboard_00_keyboard5-knife2.png
subject-06,1,575,1.00404810905457,dog,chair,0,0575_stg_s06_0_chair_00_chair10-bicycle1.png
subject-06,1,576,0.875253915786743,elephant,bear,0,0576_stg_s06_0_bear_00_bear1-elephant1.png
subject-06,1,577,0.972519874572754,elephant,elephant,0,0577_stg_s06_0_elephant_00_elephant8-elephant1.png
subject-06,1,578,0.991859912872314,knife,oven,0,0578_stg_s06_0_oven_00_oven6-bird1.png
subject-06,1,579,0.916721820831299,bear,bear,0,0579_stg_s06_0_bear_00_bear7-dog3.png
subject-06,1,580,0.876623153686523,cat,clock,0,0580_stg_s06_0_clock_00_clock3-bicycle2.png
subject-06,1,581,0.85989785194397,dog,oven,0,0581_stg_s06_0_oven_00_oven5-dog3.png
subject-06,1,582,0.949509859085083,cat,chair,0,0582_stg_s06_0_chair_00_chair6-bird2.png
subject-06,1,583,1.47951602935791,car,elephant,0,0583_stg_s06_0_elephant_00_elephant1-airplane2.png
subject-06,1,584,1.26876592636108,boat,clock,0,0584_stg_s06_0_clock_00_clock9-bird2.png
subject-06,1,585,1.24459099769592,truck,bicycle,0,0585_stg_s06_0_bicycle_00_bicycle7-truck3.png
subject-06,1,586,0.882392883300781,dog,knife,0,0586_stg_s06_0_knife_00_knife2-dog1.png
subject-06,1,587,0.71141791343689,clock,airplane,0,0587_stg_s06_0_airplane_00_airplane9-clock1.png
subject-06,1,588,1.10073304176331,dog,boat,0,0588_stg_s06_0_boat_00_boat6-bear1.png
subject-06,1,589,1.13018393516541,airplane,bottle,0,0589_stg_s06_0_bottle_00_bottle5-oven2.png
subject-06,1,590,1.0768461227417,boat,car,0,0590_stg_s06_0_car_00_car6-chair3.png
subject-06,1,591,1.15280199050903,car,keyboard,0,0591_stg_s06_0_keyboard_00_keyboard5-keyboard1.png
subject-06,1,592,1.10384798049927,clock,chair,0,0592_stg_s06_0_chair_00_chair7-bottle1.png
subject-06,1,593,1.43434476852417,bird,bottle,0,0593_stg_s06_0_bottle_00_bottle1-car1.png
subject-06,1,594,1.18568992614746,bird,airplane,0,0594_stg_s06_0_airplane_00_airplane10-car3.png
subject-06,1,595,1.09346008300781,car,bear,0,0595_stg_s06_0_bear_00_bear5-chair1.png
subject-06,1,596,0.947949171066284,oven,car,0,0596_stg_s06_0_car_00_car5-keyboard3.png
subject-06,1,597,1.22164988517761,truck,clock,0,0597_stg_s06_0_clock_00_clock8-cat1.png
subject-06,1,598,1.20582509040833,truck,truck,0,0598_stg_s06_0_truck_00_truck3-chair2.png
subject-06,1,599,0.938925981521606,oven,bicycle,0,0599_stg_s06_0_bicycle_00_bicycle5-keyboard3.png
subject-06,1,600,1.08239102363586,cat,bear,0,0600_stg_s06_0_bear_00_bear9-knife2.png
subject-06,1,601,0.928133964538574,clock,car,0,0601_stg_s06_0_car_00_car1-airplane1.png
subject-06,1,602,0.950443983078003,knife,bicycle,0,0602_stg_s06_0_bicycle_00_bicycle7-oven1.png
subject-06,1,603,0.959049940109253,chair,chair,0,0603_stg_s06_0_chair_00_chair2-keyboard2.png
subject-06,1,604,1.09428691864014,knife,cat,0,0604_stg_s06_0_cat_00_cat9-knife2.png
subject-06,1,605,1.14776682853699,boat,oven,0,0605_stg_s06_0_oven_00_oven6-airplane3.png
subject-06,1,606,1.4298849105835,bird,dog,0,0606_stg_s06_0_dog_00_dog6-cat1.png
subject-06,1,607,0.675303936004639,clock,airplane,0,0607_stg_s06_0_airplane_00_airplane4-airplane1.png
subject-06,1,608,1.01331996917725,bottle,bear,0,0608_stg_s06_0_bear_00_bear8-boat2.png
subject-06,1,609,1.00260615348816,bottle,bicycle,0,0609_stg_s06_0_bicycle_00_bicycle4-bottle1.png
subject-06,1,610,1.37047505378723,car,oven,0,0610_stg_s06_0_oven_00_oven6-truck1.png
subject-06,1,611,1.50004482269287,car,clock,0,0611_stg_s06_0_clock_00_clock10-bird3.png
subject-06,1,612,1.05155801773071,chair,airplane,0,0612_stg_s06_0_airplane_00_airplane8-oven2.png
subject-06,1,613,0.827023029327393,cat,bottle,0,0613_stg_s06_0_bottle_00_bottle1-cat3.png
subject-06,1,614,1.27876591682434,truck,truck,0,0614_stg_s06_0_truck_00_truck8-bottle2.png
subject-06,1,615,1.061842918396,cat,bear,0,0615_stg_s06_0_bear_00_bear3-dog3.png
subject-06,1,616,1.4216639995575,clock,keyboard,0,0616_stg_s06_0_keyboard_00_keyboard7-knife1.png
subject-06,1,617,1.42760992050171,dog,bicycle,0,0617_stg_s06_0_bicycle_00_bicycle8-bear2.png
subject-06,1,618,1.15855288505554,bird,car,0,0618_stg_s06_0_car_00_car2-car3.png
subject-06,1,619,1.28007411956787,knife,elephant,0,0619_stg_s06_0_elephant_00_elephant7-knife2.png
subject-06,1,620,NaN,na,dog,0,0620_stg_s06_0_dog_00_dog4-keyboard2.png
subject-06,1,621,0.985235929489136,oven,dog,0,0621_stg_s06_0_dog_00_dog4-oven1.png
subject-06,1,622,0.931296110153198,knife,bird,0,0622_stg_s06_0_bird_00_bird6-oven1.png
subject-06,1,623,1.22156810760498,bear,elephant,0,0623_stg_s06_0_elephant_00_elephant4-bird1.png
subject-06,1,624,0.682924032211304,cat,oven,0,0624_stg_s06_0_oven_00_oven4-bicycle2.png
subject-06,1,625,1.50006580352783,clock,clock,0,0625_stg_s06_0_clock_00_clock10-airplane1.png
subject-06,1,626,0.688395977020264,bird,chair,0,0626_stg_s06_0_chair_00_chair5-car1.png
subject-06,1,627,0.794288873672485,car,car,0,0627_stg_s06_0_car_00_car7-airplane2.png
subject-06,1,628,1.23181891441345,car,boat,0,0628_stg_s06_0_boat_00_boat9-airplane2.png
subject-06,1,629,1.04532694816589,knife,knife,0,0629_stg_s06_0_knife_00_knife5-oven2.png
subject-06,1,630,0.821348905563354,bird,clock,0,0630_stg_s06_0_clock_00_clock4-bottle3.png
subject-06,1,631,1.50046420097351,dog,cat,0,0631_stg_s06_0_cat_00_cat10-keyboard1.png
subject-06,1,632,1.0785801410675,dog,chair,0,0632_stg_s06_0_chair_00_chair9-bear1.png
subject-06,1,633,0.954336166381836,boat,airplane,0,0633_stg_s06_0_airplane_00_airplane1-clock1.png
subject-06,1,634,0.683346033096313,cat,bottle,0,0634_stg_s06_0_bottle_00_bottle6-dog3.png
subject-06,1,635,0.797225952148438,bird,car,0,0635_stg_s06_0_car_00_car10-car1.png
subject-06,1,636,0.964726209640503,car,cat,0,0636_stg_s06_0_cat_00_cat7-boat3.png
subject-06,1,637,1.24607110023499,bear,elephant,0,0637_stg_s06_0_elephant_00_elephant2-bottle3.png
subject-06,1,638,1.0161600112915,bear,car,0,0638_stg_s06_0_car_00_car4-bottle1.png
subject-06,1,639,1.00959706306458,dog,bicycle,0,0639_stg_s06_0_bicycle_00_bicycle5-cat1.png
subject-06,1,640,1.21735811233521,knife,knife,0,0640_stg_s06_0_knife_00_knife1-oven1.png
subject-06,1,641,1.09316396713257,elephant,cat,0,0641_stg_s06_0_cat_00_cat5-elephant2.png
subject-06,1,642,1.11488199234009,clock,cat,0,0642_stg_s06_0_cat_00_cat1-boat1.png
subject-06,1,643,1.09132599830627,truck,truck,0,0643_stg_s06_0_truck_00_truck3-car3.png
subject-06,1,644,0.867812871932983,clock,car,0,0644_stg_s06_0_car_00_car9-knife1.png
subject-06,1,645,0.988677024841309,cat,cat,0,0645_stg_s06_0_cat_00_cat4-dog3.png
subject-06,1,646,0.718466997146606,clock,boat,0,0646_stg_s06_0_boat_00_boat7-clock3.png
subject-06,1,647,0.748196125030518,clock,airplane,0,0647_stg_s06_0_airplane_00_airplane10-airplane1.png
subject-06,1,648,1.10537791252136,oven,truck,0,0648_stg_s06_0_truck_00_truck10-clock1.png
subject-06,1,649,1.50027394294739,chair,chair,0,0649_stg_s06_0_chair_00_chair1-bear1.png
subject-06,1,650,0.859287023544312,bear,bear,0,0650_stg_s06_0_bear_00_bear5-bicycle3.png
subject-06,1,651,0.903079032897949,elephant,chair,0,0651_stg_s06_0_chair_00_chair9-elephant1.png
subject-06,1,652,0.932852983474731,knife,airplane,0,0652_stg_s06_0_airplane_00_airplane5-oven3.png
subject-06,1,653,1.39217305183411,bottle,bottle,0,0653_stg_s06_0_bottle_00_bottle1-bird3.png
subject-06,1,654,0.751366853713989,bird,cat,0,0654_stg_s06_0_cat_00_cat9-bottle2.png
subject-06,1,655,0.925233840942383,bear,bear,0,0655_stg_s06_0_bear_00_bear1-clock2.png
subject-06,1,656,0.850069999694824,clock,bicycle,0,0656_stg_s06_0_bicycle_00_bicycle2-knife2.png
subject-06,1,657,0.833907842636108,car,truck,0,0657_stg_s06_0_truck_00_truck10-car3.png
subject-06,1,658,0.839832067489624,cat,car,0,0658_stg_s06_0_car_00_car3-dog2.png
subject-06,1,659,0.961141109466553,cat,boat,0,0659_stg_s06_0_boat_00_boat9-bear3.png
subject-06,1,660,0.766993999481201,bird,knife,0,0660_stg_s06_0_knife_00_knife7-car2.png
subject-06,1,661,1.4428379535675,truck,car,0,0661_stg_s06_0_car_00_car8-airplane3.png
subject-06,1,662,0.997072219848633,car,chair,0,0662_stg_s06_0_chair_00_chair7-car2.png
subject-06,1,663,0.978974103927612,cat,bear,0,0663_stg_s06_0_bear_00_bear4-clock3.png
subject-06,1,664,0.665000915527344,clock,knife,0,0664_stg_s06_0_knife_00_knife4-cat2.png
subject-06,1,665,1.20846891403198,bottle,bottle,0,0665_stg_s06_0_bottle_00_bottle5-bird3.png
subject-06,1,666,1.16036796569824,cat,boat,0,0666_stg_s06_0_boat_00_boat9-chair2.png
subject-06,1,667,0.765757083892822,bird,car,0,0667_stg_s06_0_car_00_car10-bottle3.png
subject-06,1,668,0.749765872955322,elephant,oven,0,0668_stg_s06_0_oven_00_oven5-elephant1.png
subject-06,1,669,1.00936412811279,car,cat,0,0669_stg_s06_0_cat_00_cat7-truck2.png
subject-06,1,670,1.21466302871704,car,airplane,0,0670_stg_s06_0_airplane_00_airplane8-bicycle3.png
subject-06,1,671,0.950517892837524,dog,truck,0,0671_stg_s06_0_truck_00_truck1-dog1.png
subject-06,1,672,0.517887115478516,clock,bottle,0,0672_stg_s06_0_bottle_00_bottle4-airplane1.png
subject-06,1,673,0.856097936630249,knife,boat,0,0673_stg_s06_0_boat_00_boat5-knife2.png
subject-06,1,674,1.11089706420898,oven,knife,0,0674_stg_s06_0_knife_00_knife2-bird1.png
subject-06,1,675,1.40890407562256,car,car,0,0675_stg_s06_0_car_00_car7-bird3.png
subject-06,1,676,1.13892102241516,bottle,chair,0,0676_stg_s06_0_chair_00_chair2-boat1.png
subject-06,1,677,0.69243597984314,clock,knife,0,0677_stg_s06_0_knife_00_knife1-airplane1.png
subject-06,1,678,1.24986481666565,dog,dog,0,0678_stg_s06_0_dog_00_dog5-bear3.png
subject-06,1,679,0.97455906867981,oven,dog,0,0679_stg_s06_0_dog_00_dog10-keyboard2.png
subject-06,1,680,1.28640508651733,truck,bear,0,0680_stg_s06_0_bear_00_bear4-boat2.png
subject-06,1,681,1.45673608779907,truck,bicycle,0,0681_stg_s06_0_bicycle_00_bicycle6-car2.png
subject-06,1,682,1.13222694396973,bird,bicycle,0,0682_stg_s06_0_bicycle_00_bicycle4-bicycle3.png
subject-06,1,683,1.00048518180847,bird,oven,0,0683_stg_s06_0_oven_00_oven9-boat2.png
subject-06,1,684,0.967327833175659,knife,bear,0,0684_stg_s06_0_bear_00_bear2-oven1.png
subject-06,1,685,1.10300803184509,boat,bicycle,0,0685_stg_s06_0_bicycle_00_bicycle1-chair1.png
subject-06,1,686,1.31647801399231,elephant,bear,0,0686_stg_s06_0_bear_00_bear10-elephant1.png
subject-06,1,687,1.38465905189514,car,boat,0,0687_stg_s06_0_boat_00_boat3-car3.png
subject-06,1,688,1.21445608139038,clock,boat,0,0688_stg_s06_0_boat_00_boat6-bottle2.png
subject-06,1,689,1.22011303901672,clock,oven,0,0689_stg_s06_0_oven_00_oven3-elephant3.png
subject-06,1,690,1.24989700317383,knife,elephant,0,0690_stg_s06_0_elephant_00_elephant8-knife2.png
subject-06,1,691,1.15007090568542,bicycle,car,0,0691_stg_s06_0_car_00_car1-oven3.png
subject-06,1,692,1.11336612701416,car,keyboard,0,0692_stg_s06_0_keyboard_00_keyboard1-airplane2.png
subject-06,1,693,1.02724599838257,dog,bear,0,0693_stg_s06_0_bear_00_bear4-cat3.png
subject-06,1,694,0.942384004592896,elephant,knife,0,0694_stg_s06_0_knife_00_knife3-knife1.png
subject-06,1,695,0.878509998321533,bird,truck,0,0695_stg_s06_0_truck_00_truck2-bottle3.png
subject-06,1,696,0.959458827972412,elephant,bottle,0,0696_stg_s06_0_bottle_00_bottle5-elephant1.png
subject-06,1,697,1.00507783889771,elephant,car,0,0697_stg_s06_0_car_00_car4-elephant3.png
subject-06,1,698,1.10246205329895,car,truck,0,0698_stg_s06_0_truck_00_truck2-clock1.png
subject-06,1,699,0.794191122055054,car,dog,0,0699_stg_s06_0_dog_00_dog10-truck2.png
subject-06,1,700,0.732402801513672,oven,airplane,0,0700_stg_s06_0_airplane_00_airplane4-keyboard3.png
subject-06,1,701,0.914411067962646,cat,bird,0,0701_stg_s06_0_bird_00_bird5-dog2.png
subject-06,1,702,1.00583600997925,bird,bear,0,0702_stg_s06_0_bear_00_bear4-car3.png
subject-06,1,703,1.18705487251282,dog,elephant,0,0703_stg_s06_0_elephant_00_elephant9-chair2.png
subject-06,1,704,1.30398488044739,clock,cat,0,0704_stg_s06_0_cat_00_cat5-bottle1.png
subject-06,1,705,1.017657995224,oven,cat,0,0705_stg_s06_0_cat_00_cat4-keyboard2.png
subject-06,1,706,0.777181148529053,elephant,elephant,0,0706_stg_s06_0_elephant_00_elephant2-elephant3.png
subject-06,1,707,1.16100811958313,bird,airplane,0,0707_stg_s06_0_airplane_00_airplane6-bottle2.png
subject-06,1,708,1.17462205886841,knife,cat,0,0708_stg_s06_0_cat_00_cat7-bottle1.png
subject-06,1,709,0.766801834106445,car,knife,0,0709_stg_s06_0_knife_00_knife8-truck3.png
subject-06,1,710,1.10252285003662,dog,knife,0,0710_stg_s06_0_knife_00_knife1-bird2.png
subject-06,1,711,1.1856791973114,oven,airplane,0,0711_stg_s06_0_airplane_00_airplane7-keyboard1.png
subject-06,1,712,0.945487976074219,car,cat,0,0712_stg_s06_0_cat_00_cat5-car2.png
subject-06,1,713,1.28887319564819,cat,bear,0,0713_stg_s06_0_bear_00_bear1-bird2.png
subject-06,1,714,1.0730619430542,car,dog,0,0714_stg_s06_0_dog_00_dog4-truck2.png
subject-06,1,715,0.972482919692993,car,keyboard,0,0715_stg_s06_0_keyboard_00_keyboard10-truck1.png
subject-06,1,716,0.916178941726685,dog,boat,0,0716_stg_s06_0_boat_00_boat9-cat3.png
subject-06,1,717,1.31393098831177,keyboard,dog,0,0717_stg_s06_0_dog_00_dog10-bottle1.png
subject-06,1,718,NaN,na,dog,0,0718_stg_s06_0_dog_00_dog7-chair2.png
subject-06,1,719,1.10460186004639,bird,keyboard,0,0719_stg_s06_0_keyboard_00_keyboard10-car1.png
subject-06,1,720,1.10442996025085,bicycle,bicycle,0,0720_stg_s06_0_bicycle_00_bicycle4-clock3.png
subject-06,1,721,0.992127895355225,cat,boat,0,0721_stg_s06_0_boat_00_boat10-bear3.png
subject-06,1,722,0.676594972610474,oven,car,0,0722_stg_s06_0_car_00_car7-keyboard3.png
subject-06,1,723,1.05809712409973,dog,truck,0,0723_stg_s06_0_truck_00_truck6-bear2.png
subject-06,1,724,0.825092077255249,bird,bird,0,0724_stg_s06_0_bird_00_bird6-bottle3.png
subject-06,1,725,1.03666210174561,bear,cat,0,0725_stg_s06_0_cat_00_cat8-bird2.png
subject-06,1,726,1.06650900840759,truck,truck,0,0726_stg_s06_0_truck_00_truck9-chair3.png
subject-06,1,727,0.82554292678833,keyboard,keyboard,0,0727_stg_s06_0_keyboard_00_keyboard1-chair2.png
subject-06,1,728,0.931205034255981,cat,cat,0,0728_stg_s06_0_cat_00_cat9-clock2.png
subject-06,1,729,0.915112972259521,bear,bear,0,0729_stg_s06_0_bear_00_bear8-knife3.png
subject-06,1,730,1.17511892318726,car,truck,0,0730_stg_s06_0_truck_00_truck9-boat3.png
subject-06,1,731,1.26650500297546,car,clock,0,0731_stg_s06_0_clock_00_clock5-clock2.png
subject-06,1,732,0.841871976852417,cat,car,0,0732_stg_s06_0_car_00_car8-bicycle2.png
subject-06,1,733,0.885519981384277,knife,dog,0,0733_stg_s06_0_dog_00_dog9-boat1.png
subject-06,1,734,0.977981090545654,cat,keyboard,0,0734_stg_s06_0_keyboard_00_keyboard9-bear2.png
subject-06,1,735,0.976197957992554,dog,bear,0,0735_stg_s06_0_bear_00_bear1-airplane3.png
subject-06,1,736,0.635268926620483,elephant,boat,0,0736_stg_s06_0_boat_00_boat7-elephant3.png
subject-06,1,737,0.866636991500854,bear,dog,0,0737_stg_s06_0_dog_00_dog2-knife3.png
subject-06,1,738,0.958386898040771,car,car,0,0738_stg_s06_0_car_00_car8-chair1.png
subject-06,1,739,1.17230200767517,truck,elephant,0,0739_stg_s06_0_elephant_00_elephant8-oven3.png
subject-06,1,740,0.95763087272644,car,bicycle,0,0740_stg_s06_0_bicycle_00_bicycle10-airplane2.png
subject-06,1,741,0.895537853240967,car,boat,0,0741_stg_s06_0_boat_00_boat6-truck3.png
subject-06,1,742,1.07222008705139,bird,keyboard,0,0742_stg_s06_0_keyboard_00_keyboard1-car3.png
subject-06,1,743,1.42380595207214,bear,dog,0,0743_stg_s06_0_dog_00_dog4-cat3.png
subject-06,1,744,0.969686985015869,clock,clock,0,0744_stg_s06_0_clock_00_clock1-truck3.png
subject-06,1,745,0.700656890869141,clock,dog,0,0745_stg_s06_0_dog_00_dog3-clock1.png
subject-06,1,746,1.09252309799194,airplane,bird,0,0746_stg_s06_0_bird_00_bird4-bicycle2.png
subject-06,1,747,1.30375385284424,car,bear,0,0747_stg_s06_0_bear_00_bear3-chair2.png
subject-06,1,748,1.01183700561523,cat,oven,0,0748_stg_s06_0_oven_00_oven2-dog3.png
subject-06,1,749,0.977328062057495,truck,car,0,0749_stg_s06_0_car_00_car4-boat1.png
subject-06,1,750,0.861216068267822,bird,cat,0,0750_stg_s06_0_cat_00_cat10-clock1.png
subject-06,1,751,1.18362379074097,cat,boat,0,0751_stg_s06_0_boat_00_boat1-bird3.png
subject-06,1,752,1.26758790016174,bear,airplane,0,0752_stg_s06_0_airplane_00_airplane2-bicycle1.png
subject-06,1,753,1.39741897583008,elephant,airplane,0,0753_stg_s06_0_airplane_00_airplane5-bicycle1.png
subject-06,1,754,NaN,na,oven,0,0754_stg_s06_0_oven_00_oven10-bicycle1.png
subject-06,1,755,0.908293962478638,knife,knife,0,0755_stg_s06_0_knife_00_knife7-airplane3.png
subject-06,1,756,1.11400103569031,truck,bottle,0,0756_stg_s06_0_bottle_00_bottle10-boat3.png
subject-06,1,757,0.957823991775513,clock,bird,0,0757_stg_s06_0_bird_00_bird6-boat2.png
subject-06,1,758,1.36309003829956,cat,bird,0,0758_stg_s06_0_bird_00_bird4-cat3.png
subject-06,1,759,0.717242956161499,bird,knife,0,0759_stg_s06_0_knife_00_knife2-car3.png
subject-06,1,760,0.985527038574219,cat,clock,0,0760_stg_s06_0_clock_00_clock3-bear3.png
subject-06,1,761,0.975502967834473,dog,bottle,0,0761_stg_s06_0_bottle_00_bottle1-clock1.png
subject-06,1,762,1.006098985672,bear,chair,0,0762_stg_s06_0_chair_00_chair5-bicycle1.png
subject-06,1,763,0.919627904891968,oven,truck,0,0763_stg_s06_0_truck_00_truck8-keyboard2.png
subject-06,1,764,1.33366394042969,car,keyboard,0,0764_stg_s06_0_keyboard_00_keyboard6-chair1.png
subject-06,1,765,0.70146107673645,bird,bird,0,0765_stg_s06_0_bird_00_bird9-dog2.png
subject-06,1,766,0.868988037109375,car,knife,0,0766_stg_s06_0_knife_00_knife1-truck2.png
subject-06,1,767,1.1363570690155,car,oven,0,0767_stg_s06_0_oven_00_oven8-chair1.png
subject-06,1,768,0.765551090240479,cat,elephant,0,0768_stg_s06_0_elephant_00_elephant2-cat1.png
subject-06,1,769,0.842097043991089,knife,boat,0,0769_stg_s06_0_boat_00_boat10-oven1.png
subject-06,1,770,1.04594087600708,truck,keyboard,0,0770_stg_s06_0_keyboard_00_keyboard10-oven3.png
subject-06,1,771,0.783297061920166,cat,cat,0,0771_stg_s06_0_cat_00_cat3-bear2.png
subject-06,1,772,0.835264921188354,clock,clock,0,0772_stg_s06_0_clock_00_clock4-boat3.png
subject-06,1,773,0.972625970840454,car,dog,0,0773_stg_s06_0_dog_00_dog9-car1.png
subject-06,1,774,1.02400016784668,cat,bear,0,0774_stg_s06_0_bear_00_bear9-dog1.png
subject-06,1,775,0.862720966339111,knife,cat,0,0775_stg_s06_0_cat_00_cat7-airplane2.png
subject-06,1,776,0.884584188461304,clock,bottle,0,0776_stg_s06_0_bottle_00_bottle5-airplane1.png
subject-06,1,777,0.690381050109863,clock,clock,0,0777_stg_s06_0_clock_00_clock4-car2.png
subject-06,1,778,0.603888034820557,clock,cat,0,0778_stg_s06_0_cat_00_cat4-airplane1.png
subject-06,1,779,0.879555940628052,car,car,0,0779_stg_s06_0_car_00_car4-bicycle3.png
subject-06,1,780,0.777592897415161,oven,keyboard,0,0780_stg_s06_0_keyboard_00_keyboard4-keyboard2.png
subject-06,1,781,0.77552604675293,bird,knife,0,0781_stg_s06_0_knife_00_knife7-bottle3.png
subject-06,1,782,1.1052770614624,bird,knife,0,0782_stg_s06_0_knife_00_knife5-cat2.png
subject-06,1,783,1.09493589401245,oven,oven,0,0783_stg_s06_0_oven_00_oven10-oven3.png
subject-06,1,784,0.90054178237915,chair,chair,0,0784_stg_s06_0_chair_00_chair3-car3.png
subject-06,1,785,1.1442859172821,car,oven,0,0785_stg_s06_0_oven_00_oven6-chair3.png
subject-06,1,786,NaN,na,keyboard,0,0786_stg_s06_0_keyboard_00_keyboard3-bicycle2.png
subject-06,1,787,0.863006830215454,bird,elephant,0,0787_stg_s06_0_elephant_00_elephant3-chair1.png
subject-06,1,788,1.42268085479736,cat,keyboard,0,0788_stg_s06_0_keyboard_00_keyboard1-bird2.png
subject-06,1,789,1.13162899017334,truck,truck,0,0789_stg_s06_0_truck_00_truck1-clock3.png
subject-06,1,790,1.1591260433197,knife,knife,0,0790_stg_s06_0_knife_00_knife4-airplane3.png
subject-06,1,791,1.15098190307617,bird,clock,0,0791_stg_s06_0_clock_00_clock10-dog3.png
subject-06,1,792,0.940929174423218,car,bird,0,0792_stg_s06_0_bird_00_bird3-truck3.png
subject-06,1,793,1.05404090881348,boat,airplane,0,0793_stg_s06_0_airplane_00_airplane7-truck1.png
subject-06,1,794,1.06774711608887,car,car,0,0794_stg_s06_0_car_00_car6-boat1.png
subject-06,1,795,1.09741306304932,oven,oven,0,0795_stg_s06_0_oven_00_oven3-knife1.png
subject-06,1,796,0.727001905441284,oven,oven,0,0796_stg_s06_0_oven_00_oven1-clock3.png
subject-06,1,797,1.06848692893982,elephant,keyboard,0,0797_stg_s06_0_keyboard_00_keyboard3-elephant2.png
subject-06,1,798,1.28145718574524,bird,dog,0,0798_stg_s06_0_dog_00_dog6-bicycle1.png
subject-06,1,799,1.04104399681091,car,car,0,0799_stg_s06_0_car_00_car3-truck1.png
subject-06,1,800,1.2760488986969,truck,bird,0,0800_stg_s06_0_bird_00_bird3-boat3.png
subject-06,1,801,0.83067798614502,bottle,knife,0,0801_stg_s06_0_knife_00_knife2-bottle2.png
subject-06,1,802,1.12810897827148,dog,boat,0,0802_stg_s06_0_boat_00_boat3-cat3.png
subject-06,1,803,0.979895830154419,keyboard,keyboard,0,0803_stg_s06_0_keyboard_00_keyboard5-airplane3.png
subject-06,1,804,0.977644920349121,oven,truck,0,0804_stg_s06_0_truck_00_truck3-oven2.png
subject-06,1,805,1.23718690872192,car,airplane,0,0805_stg_s06_0_airplane_00_airplane1-chair2.png
subject-06,1,806,1.02909398078918,airplane,cat,0,0806_stg_s06_0_cat_00_cat9-bird3.png
subject-06,1,807,0.859176158905029,bear,bear,0,0807_stg_s06_0_bear_00_bear5-airplane3.png
subject-06,1,808,0.948457956314087,chair,chair,0,0808_stg_s06_0_chair_00_chair7-truck3.png
subject-06,1,809,1.42446303367615,bottle,boat,0,0809_stg_s06_0_boat_00_boat6-bicycle2.png
subject-06,1,810,0.830315113067627,clock,airplane,0,0810_stg_s06_0_airplane_00_airplane8-clock2.png
subject-06,1,811,1.28245115280151,bottle,clock,0,0811_stg_s06_0_clock_00_clock10-bottle1.png
subject-06,1,812,0.828031063079834,clock,knife,0,0812_stg_s06_0_knife_00_knife1-clock2.png
subject-06,1,813,1.43981409072876,dog,dog,0,0813_stg_s06_0_dog_00_dog8-bear3.png
subject-06,1,814,0.99324893951416,bear,car,0,0814_stg_s06_0_car_00_car10-bicycle2.png
subject-06,1,815,0.736798048019409,bird,boat,0,0815_stg_s06_0_boat_00_boat4-bicycle3.png
subject-06,1,816,0.874994039535522,knife,car,0,0816_stg_s06_0_car_00_car5-bottle1.png
subject-06,1,817,0.718552112579346,car,bird,0,0817_stg_s06_0_bird_00_bird5-airplane3.png
subject-06,1,818,1.10819697380066,car,bird,0,0818_stg_s06_0_bird_00_bird5-car2.png
subject-06,1,819,0.762076139450073,elephant,knife,0,0819_stg_s06_0_knife_00_knife7-elephant2.png
subject-06,1,820,1.31097292900085,car,clock,0,0820_stg_s06_0_clock_00_clock2-bicycle1.png
subject-06,1,821,0.910538911819458,cat,dog,0,0821_stg_s06_0_dog_00_dog4-elephant2.png
subject-06,1,822,1.3462119102478,oven,elephant,0,0822_stg_s06_0_elephant_00_elephant1-oven2.png
subject-06,1,823,0.689661979675293,oven,truck,0,0823_stg_s06_0_truck_00_truck4-oven2.png
subject-06,1,824,0.919392824172974,bird,bottle,0,0824_stg_s06_0_bottle_00_bottle4-bicycle1.png
subject-06,1,825,1.05481195449829,car,chair,0,0825_stg_s06_0_chair_00_chair8-chair3.png
subject-06,1,826,0.825461864471436,knife,bird,0,0826_stg_s06_0_bird_00_bird3-oven1.png
subject-06,1,827,1.4529550075531,knife,clock,0,0827_stg_s06_0_clock_00_clock6-oven1.png
subject-06,1,828,0.844293832778931,dog,airplane,0,0828_stg_s06_0_airplane_00_airplane2-dog1.png
subject-06,1,829,0.972859859466553,oven,dog,0,0829_stg_s06_0_dog_00_dog10-oven2.png
subject-06,1,830,0.734242916107178,clock,clock,0,0830_stg_s06_0_clock_00_clock5-airplane1.png
subject-06,1,831,0.62455415725708,bottle,bicycle,0,0831_stg_s06_0_bicycle_00_bicycle2-bottle1.png
subject-06,1,832,0.945450067520142,car,dog,0,0832_stg_s06_0_dog_00_dog1-boat3.png
subject-06,1,833,1.11347579956055,knife,bicycle,0,0833_stg_s06_0_bicycle_00_bicycle3-bird1.png
subject-06,1,834,0.864995956420898,bottle,dog,0,0834_stg_s06_0_dog_00_dog4-bicycle1.png
subject-06,1,835,1.23898386955261,car,clock,0,0835_stg_s06_0_clock_00_clock10-truck2.png
subject-06,1,836,0.901150941848755,bird,bird,0,0836_stg_s06_0_bird_00_bird7-boat1.png
subject-06,1,837,1.34258508682251,car,chair,0,0837_stg_s06_0_chair_00_chair5-boat3.png
subject-06,1,838,0.950402021408081,truck,elephant,0,0838_stg_s06_0_elephant_00_elephant9-boat3.png
subject-06,1,839,0.826539039611816,knife,bear,0,0839_stg_s06_0_bear_00_bear10-oven1.png
subject-06,1,840,1.00773215293884,dog,airplane,0,0840_stg_s06_0_airplane_00_airplane3-dog1.png
subject-06,1,841,1.25196599960327,bird,elephant,0,0841_stg_s06_0_elephant_00_elephant7-bird1.png
subject-06,1,842,1.11905097961426,car,bicycle,0,0842_stg_s06_0_bicycle_00_bicycle1-clock3.png
subject-06,1,843,0.840281009674072,boat,airplane,0,0843_stg_s06_0_airplane_00_airplane5-knife1.png
subject-06,1,844,0.860649108886719,elephant,elephant,0,0844_stg_s06_0_elephant_00_elephant10-elephant1.png
subject-06,1,845,1.13611507415771,cat,elephant,0,0845_stg_s06_0_elephant_00_elephant10-bear1.png
subject-06,1,846,0.75791597366333,bird,cat,0,0846_stg_s06_0_cat_00_cat9-truck1.png
subject-06,1,847,1.13178181648254,car,chair,0,0847_stg_s06_0_chair_00_chair1-truck3.png
subject-06,1,848,1.50008893013,truck,dog,0,0848_stg_s06_0_dog_00_dog3-knife3.png
subject-06,1,849,0.828779935836792,bird,bicycle,0,0849_stg_s06_0_bicycle_00_bicycle2-car2.png
subject-06,1,850,1.08067011833191,bird,airplane,0,0850_stg_s06_0_airplane_00_airplane5-chair3.png
subject-06,1,851,1.03179287910461,oven,bird,0,0851_stg_s06_0_bird_00_bird5-keyboard2.png
subject-06,1,852,1.12385702133179,keyboard,bear,0,0852_stg_s06_0_bear_00_bear10-knife2.png
subject-06,1,853,1.07669711112976,chair,oven,0,0853_stg_s06_0_oven_00_oven1-bird3.png
subject-06,1,854,0.874685049057007,chair,chair,0,0854_stg_s06_0_chair_00_chair7-clock3.png
subject-06,1,855,1.00428581237793,oven,boat,0,0855_stg_s06_0_boat_00_boat3-keyboard2.png
subject-06,1,856,0.701367855072021,bird,knife,0,0856_stg_s06_0_knife_00_knife1-car3.png
subject-06,1,857,1.03680515289307,boat,airplane,0,0857_stg_s06_0_airplane_00_airplane4-bird3.png
subject-06,1,858,0.774336814880371,bottle,bear,0,0858_stg_s06_0_bear_00_bear10-chair2.png
subject-06,1,859,1.00973606109619,dog,boat,0,0859_stg_s06_0_boat_00_boat8-dog3.png
subject-06,1,860,0.92403507232666,car,bottle,0,0860_stg_s06_0_bottle_00_bottle2-chair3.png
subject-06,1,861,0.883723020553589,clock,bear,0,0861_stg_s06_0_bear_00_bear2-airplane1.png
subject-06,1,862,1.05442690849304,truck,bottle,0,0862_stg_s06_0_bottle_00_bottle8-dog2.png
subject-06,1,863,1.0902681350708,car,bicycle,0,0863_stg_s06_0_bicycle_00_bicycle8-truck1.png
subject-06,1,864,0.673545122146606,clock,elephant,0,0864_stg_s06_0_elephant_00_elephant3-knife1.png
subject-06,1,865,0.917266130447388,bear,oven,0,0865_stg_s06_0_oven_00_oven9-bear2.png
subject-06,1,866,0.93932580947876,clock,clock,0,0866_stg_s06_0_clock_00_clock8-boat1.png
subject-06,1,867,0.812741041183472,clock,truck,0,0867_stg_s06_0_truck_00_truck10-airplane1.png
subject-06,1,868,0.642477035522461,car,cat,0,0868_stg_s06_0_cat_00_cat4-truck3.png
subject-06,1,869,1.20178198814392,knife,dog,0,0869_stg_s06_0_dog_00_dog1-knife3.png
subject-06,1,870,0.969635009765625,dog,bird,0,0870_stg_s06_0_bird_00_bird3-dog1.png
subject-06,1,871,0.875113010406494,bottle,keyboard,0,0871_stg_s06_0_keyboard_00_keyboard10-boat2.png
subject-06,1,872,0.94060206413269,elephant,keyboard,0,0872_stg_s06_0_keyboard_00_keyboard3-clock3.png
subject-06,1,873,0.840549945831299,bird,airplane,0,0873_stg_s06_0_airplane_00_airplane5-bottle3.png
subject-06,1,874,0.78459095954895,cat,clock,0,0874_stg_s06_0_clock_00_clock1-dog2.png
subject-06,1,875,0.944567918777466,cat,elephant,0,0875_stg_s06_0_elephant_00_elephant6-dog2.png
subject-06,1,876,0.727969884872437,knife,boat,0,0876_stg_s06_0_boat_00_boat2-oven3.png
subject-06,1,877,1.06329894065857,truck,truck,0,0877_stg_s06_0_truck_00_truck7-truck2.png
subject-06,1,878,NaN,na,bird,0,0878_stg_s06_0_bird_00_bird6-car3.png
subject-06,1,879,0.828949928283691,car,cat,0,0879_stg_s06_0_cat_00_cat6-chair3.png
subject-06,1,880,0.966943025588989,dog,truck,0,0880_stg_s06_0_truck_00_truck3-bear3.png
subject-06,1,881,1.1263279914856,cat,chair,0,0881_stg_s06_0_chair_00_chair4-truck2.png
subject-06,1,882,0.978358030319214,car,boat,0,0882_stg_s06_0_boat_00_boat1-chair3.png
subject-06,1,883,1.05493593215942,bird,car,0,0883_stg_s06_0_car_00_car4-bird1.png
subject-06,1,884,1.06945896148682,bottle,clock,0,0884_stg_s06_0_clock_00_clock6-clock2.png
subject-06,1,885,1.50005507469177,knife,boat,0,0885_stg_s06_0_boat_00_boat9-knife2.png
subject-06,1,886,0.83404803276062,car,boat,0,0886_stg_s06_0_boat_00_boat4-boat3.png
subject-06,1,887,1.04824209213257,car,bicycle,0,0887_stg_s06_0_bicycle_00_bicycle9-chair1.png
subject-06,1,888,1.37067294120789,cat,car,0,0888_stg_s06_0_car_00_car9-cat1.png
subject-06,1,889,1.11653304100037,dog,truck,0,0889_stg_s06_0_truck_00_truck4-bear1.png
subject-06,1,890,0.738030195236206,knife,cat,0,0890_stg_s06_0_cat_00_cat4-oven1.png
subject-06,1,891,1.01540684700012,elephant,knife,0,0891_stg_s06_0_knife_00_knife1-elephant1.png
subject-06,1,892,1.06643891334534,bird,elephant,0,0892_stg_s06_0_elephant_00_elephant7-cat1.png
subject-06,1,893,1.32618093490601,bear,dog,0,0893_stg_s06_0_dog_00_dog3-bear3.png
subject-06,1,894,0.810081005096436,bear,bird,0,0894_stg_s06_0_bird_00_bird10-bear2.png
subject-06,1,895,1.04641008377075,car,knife,0,0895_stg_s06_0_knife_00_knife10-chair1.png
subject-06,1,896,1.04644703865051,clock,boat,0,0896_stg_s06_0_boat_00_boat4-knife2.png
subject-06,1,897,1.30381298065186,car,bicycle,0,0897_stg_s06_0_bicycle_00_bicycle1-airplane2.png
subject-06,1,898,0.733821153640747,elephant,keyboard,0,0898_stg_s06_0_keyboard_00_keyboard1-elephant3.png
subject-06,1,899,1.25576376914978,chair,truck,0,0899_stg_s06_0_truck_00_truck7-boat1.png
subject-06,1,900,0.753225088119507,oven,bird,0,0900_stg_s06_0_bird_00_bird1-keyboard3.png
subject-06,1,901,1.02060484886169,car,bear,0,0901_stg_s06_0_bear_00_bear6-chair1.png
subject-06,1,902,1.1048948764801,clock,bottle,0,0902_stg_s06_0_bottle_00_bottle3-bicycle3.png
subject-06,1,903,1.02672410011292,elephant,car,0,0903_stg_s06_0_car_00_car10-elephant2.png
subject-06,1,904,0.940497159957886,bottle,boat,0,0904_stg_s06_0_boat_00_boat4-bottle2.png
subject-06,1,905,1.33024001121521,car,bottle,0,0905_stg_s06_0_bottle_00_bottle3-chair3.png
subject-06,1,906,0.959979057312012,clock,dog,0,0906_stg_s06_0_dog_00_dog4-clock1.png
subject-06,1,907,0.803328990936279,elephant,elephant,0,0907_stg_s06_0_elephant_00_elephant5-elephant1.png
subject-06,1,908,0.903465986251831,clock,boat,0,0908_stg_s06_0_boat_00_boat5-clock3.png
subject-06,1,909,0.916966915130615,bird,bird,0,0909_stg_s06_0_bird_00_bird9-bicycle3.png
subject-06,1,910,0.777031898498535,clock,bicycle,0,0910_stg_s06_0_bicycle_00_bicycle10-clock2.png
subject-06,1,911,0.97510290145874,car,bear,0,0911_stg_s06_0_bear_00_bear3-car2.png
subject-06,1,912,1.22715187072754,truck,airplane,0,0912_stg_s06_0_airplane_00_airplane3-car1.png
subject-06,1,913,1.03237819671631,car,elephant,0,0913_stg_s06_0_elephant_00_elephant4-car3.png
subject-06,1,914,1.10808396339417,car,truck,0,0914_stg_s06_0_truck_00_truck6-bottle3.png
subject-06,1,915,0.73729419708252,oven,keyboard,0,0915_stg_s06_0_keyboard_00_keyboard7-oven2.png
subject-06,1,916,1.15165591239929,oven,dog,0,0916_stg_s06_0_dog_00_dog7-oven2.png
subject-06,1,917,1.5003650188446,bear,bear,0,0917_stg_s06_0_bear_00_bear3-bird3.png
subject-06,1,918,1.5000159740448,chair,oven,0,0918_stg_s06_0_oven_00_oven4-keyboard3.png
subject-06,1,919,1.43188881874084,bear,bicycle,0,0919_stg_s06_0_bicycle_00_bicycle7-bicycle2.png
subject-06,1,920,0.66954779624939,clock,chair,0,0920_stg_s06_0_chair_00_chair1-clock2.png
subject-06,1,921,0.991560935974121,car,dog,0,0921_stg_s06_0_dog_00_dog5-car3.png
subject-06,1,922,1.15657615661621,car,knife,0,0922_stg_s06_0_knife_00_knife5-truck3.png
subject-06,1,923,0.632565975189209,oven,bottle,0,0923_stg_s06_0_bottle_00_bottle8-keyboard3.png
subject-06,1,924,1.47064685821533,bird,bicycle,0,0924_stg_s06_0_bicycle_00_bicycle6-bicycle3.png
subject-06,1,925,0.74565577507019,bird,truck,0,0925_stg_s06_0_truck_00_truck1-bird1.png
subject-06,1,926,1.03594589233398,knife,boat,0,0926_stg_s06_0_boat_00_boat1-oven1.png
subject-06,1,927,0.979633092880249,bird,bicycle,0,0927_stg_s06_0_bicycle_00_bicycle9-car1.png
subject-06,1,928,1.20969295501709,bird,bird,0,0928_stg_s06_0_bird_00_bird8-clock1.png
subject-06,1,929,1.07004904747009,cat,chair,0,0929_stg_s06_0_chair_00_chair4-cat2.png
subject-06,1,930,1.29151201248169,truck,car,0,0930_stg_s06_0_car_00_car5-knife2.png
subject-06,1,931,1.14326310157776,car,truck,0,0931_stg_s06_0_truck_00_truck4-boat3.png
subject-06,1,932,1.34965682029724,car,knife,0,0932_stg_s06_0_knife_00_knife8-car2.png
subject-06,1,933,0.911402940750122,bird,elephant,0,0933_stg_s06_0_elephant_00_elephant6-truck3.png
subject-06,1,934,1.00096201896667,cat,bird,0,0934_stg_s06_0_bird_00_bird10-bicycle1.png
subject-06,1,935,0.998800992965698,dog,knife,0,0935_stg_s06_0_knife_00_knife6-clock2.png
subject-06,1,936,1.18215203285217,car,airplane,0,0936_stg_s06_0_airplane_00_airplane4-truck2.png
subject-06,1,937,1.23394179344177,knife,chair,0,0937_stg_s06_0_chair_00_chair8-oven1.png
subject-06,1,938,0.763720035552979,elephant,bird,0,0938_stg_s06_0_bird_00_bird6-elephant2.png
subject-06,1,939,1.24087715148926,bird,clock,0,0939_stg_s06_0_clock_00_clock9-cat1.png
subject-06,1,940,1.16851186752319,truck,bicycle,0,0940_stg_s06_0_bicycle_00_bicycle3-truck3.png
subject-06,1,941,1.19076609611511,boat,bird,0,0941_stg_s06_0_bird_00_bird7-knife2.png
subject-06,1,942,0.844444036483765,oven,cat,0,0942_stg_s06_0_cat_00_cat5-keyboard3.png
subject-06,1,943,0.788380861282349,bird,keyboard,0,0943_stg_s06_0_keyboard_00_keyboard6-car2.png
subject-06,1,944,0.825562000274658,elephant,truck,0,0944_stg_s06_0_truck_00_truck7-elephant2.png
subject-06,1,945,0.777232885360718,clock,knife,0,0945_stg_s06_0_knife_00_knife6-airplane1.png
subject-06,1,946,0.866485118865967,bird,bicycle,0,0946_stg_s06_0_bicycle_00_bicycle5-car3.png
subject-06,1,947,1.3248028755188,dog,keyboard,0,0947_stg_s06_0_keyboard_00_keyboard8-cat3.png
subject-06,1,948,0.954240083694458,bottle,airplane,0,0948_stg_s06_0_airplane_00_airplane2-bottle1.png
subject-06,1,949,0.867834091186523,oven,clock,0,0949_stg_s06_0_clock_00_clock10-knife3.png
subject-06,1,950,1.27345609664917,truck,truck,0,0950_stg_s06_0_truck_00_truck10-truck3.png
subject-06,1,951,1.06557512283325,bird,cat,0,0951_stg_s06_0_cat_00_cat4-bird2.png
subject-06,1,952,1.05503797531128,clock,chair,0,0952_stg_s06_0_chair_00_chair8-knife2.png
subject-06,1,953,0.917243003845215,oven,elephant,0,0953_stg_s06_0_elephant_00_elephant3-keyboard2.png
subject-06,1,954,1.08249497413635,clock,dog,0,0954_stg_s06_0_dog_00_dog9-airplane3.png
subject-06,1,955,1.2967369556427,knife,chair,0,0955_stg_s06_0_chair_00_chair3-airplane2.png
subject-06,1,956,1.11844110488892,knife,oven,0,0956_stg_s06_0_oven_00_oven9-airplane2.png
subject-06,1,957,0.818587779998779,dog,car,0,0957_stg_s06_0_car_00_car5-bear3.png
subject-06,1,958,0.88411808013916,elephant,cat,0,0958_stg_s06_0_cat_00_cat7-elephant1.png
subject-06,1,959,1.43624997138977,bird,clock,0,0959_stg_s06_0_clock_00_clock7-dog2.png
subject-06,1,960,0.62757396697998,clock,chair,0,0960_stg_s06_0_chair_00_chair7-airplane1.png
subject-06,1,961,1.17938804626465,knife,car,0,0961_stg_s06_0_car_00_car3-oven3.png
subject-06,1,962,1.45562720298767,clock,elephant,0,0962_stg_s06_0_elephant_00_elephant1-boat2.png
subject-06,1,963,1.22325587272644,knife,bear,0,0963_stg_s06_0_bear_00_bear5-oven3.png
subject-06,1,964,0.845271110534668,dog,bottle,0,0964_stg_s06_0_bottle_00_bottle10-dog1.png
subject-06,1,965,0.935427904129028,bird,bear,0,0965_stg_s06_0_bear_00_bear10-car2.png
subject-06,1,966,1.3494029045105,car,car,0,0966_stg_s06_0_car_00_car10-chair1.png
subject-06,1,967,1.39297199249268,bottle,oven,0,0967_stg_s06_0_oven_00_oven10-boat2.png
subject-06,1,968,1.13653302192688,bird,keyboard,0,0968_stg_s06_0_keyboard_00_keyboard3-cat1.png
subject-06,1,969,0.512212991714478,clock,clock,0,0969_stg_s06_0_clock_00_clock9-airplane1.png
subject-06,1,970,0.918459177017212,truck,truck,0,0970_stg_s06_0_truck_00_truck10-bicycle1.png
subject-06,1,971,1.19840598106384,oven,elephant,0,0971_stg_s06_0_elephant_00_elephant8-boat2.png
subject-06,1,972,1.33491897583008,keyboard,keyboard,0,0972_stg_s06_0_keyboard_00_keyboard8-keyboard2.png
subject-06,1,973,1.26458811759949,car,bottle,0,0973_stg_s06_0_bottle_00_bottle10-truck3.png
subject-06,1,974,0.894214868545532,bird,car,0,0974_stg_s06_0_car_00_car7-clock1.png
subject-06,1,975,1.16051888465881,bird,bicycle,0,0975_stg_s06_0_bicycle_00_bicycle4-cat1.png
subject-06,1,976,1.26606297492981,car,dog,0,0976_stg_s06_0_dog_00_dog3-truck2.png
subject-06,1,977,1.41243004798889,bottle,bicycle,0,0977_stg_s06_0_bicycle_00_bicycle8-chair2.png
subject-06,1,978,1.00269794464111,knife,cat,0,0978_stg_s06_0_cat_00_cat1-bird1.png
subject-06,1,979,1.03239011764526,car,bottle,0,0979_stg_s06_0_bottle_00_bottle7-truck2.png
subject-06,1,980,0.854614019393921,truck,clock,0,0980_stg_s06_0_clock_00_clock6-car2.png
subject-06,1,981,1.40419292449951,truck,chair,0,0981_stg_s06_0_chair_00_chair9-bottle3.png
subject-06,1,982,0.719964981079102,oven,oven,0,0982_stg_s06_0_oven_00_oven6-oven3.png
subject-06,1,983,0.985812902450562,elephant,car,0,0983_stg_s06_0_car_00_car6-elephant3.png
subject-06,1,984,0.985730171203613,bird,elephant,0,0984_stg_s06_0_elephant_00_elephant7-airplane3.png
subject-06,1,985,0.707188129425049,car,bird,0,0985_stg_s06_0_bird_00_bird7-car2.png
subject-06,1,986,0.921916007995605,dog,boat,0,0986_stg_s06_0_boat_00_boat1-bear1.png
subject-06,1,987,1.19055891036987,dog,car,0,0987_stg_s06_0_car_00_car10-dog1.png
subject-06,1,988,1.14981198310852,bicycle,bicycle,0,0988_stg_s06_0_bicycle_00_bicycle2-bird3.png
subject-06,1,989,0.831599950790405,cat,knife,0,0989_stg_s06_0_knife_00_knife4-bear1.png
subject-06,1,990,1.1830039024353,truck,bicycle,0,0990_stg_s06_0_bicycle_00_bicycle10-boat3.png
subject-06,1,991,1.31328105926514,car,airplane,0,0991_stg_s06_0_airplane_00_airplane9-airplane2.png
subject-06,1,992,1.19783997535706,dog,bicycle,0,0992_stg_s06_0_bicycle_00_bicycle1-dog3.png
subject-06,1,993,0.941503047943115,bird,knife,0,0993_stg_s06_0_knife_00_knife6-bottle3.png
subject-06,1,994,1.0503249168396,car,airplane,0,0994_stg_s06_0_airplane_00_airplane10-truck1.png
subject-06,1,995,0.817662954330444,clock,bear,0,0995_stg_s06_0_bear_00_bear8-bottle1.png
subject-06,1,996,1.17012500762939,bird,airplane,0,0996_stg_s06_0_airplane_00_airplane7-clock3.png
subject-06,1,997,0.897420167922974,dog,knife,0,0997_stg_s06_0_knife_00_knife10-bear3.png
subject-06,1,998,NaN,na,dog,0,0998_stg_s06_0_dog_00_dog4-bird1.png
subject-06,1,999,1.10078096389771,car,chair,0,0999_stg_s06_0_chair_00_chair7-cat1.png
subject-06,1,1000,0.84620213508606,oven,dog,0,1000_stg_s06_0_dog_00_dog7-keyboard3.png
subject-06,1,1001,0.918556928634644,bird,oven,0,1001_stg_s06_0_oven_00_oven3-boat3.png
subject-06,1,1002,1.22228598594666,knife,dog,0,1002_stg_s06_0_dog_00_dog6-bird1.png
subject-06,1,1003,1.19853210449219,bird,airplane,0,1003_stg_s06_0_airplane_00_airplane3-cat1.png
subject-06,1,1004,1.30429196357727,truck,airplane,0,1004_stg_s06_0_airplane_00_airplane10-boat3.png
subject-06,1,1005,1.14249920845032,car,oven,0,1005_stg_s06_0_oven_00_oven9-oven1.png
subject-06,1,1006,1.16197490692139,elephant,airplane,0,1006_stg_s06_0_airplane_00_airplane10-cat2.png
subject-06,1,1007,0.746118068695068,bird,chair,0,1007_stg_s06_0_chair_00_chair8-car1.png
subject-06,1,1008,0.875880002975464,elephant,bottle,0,1008_stg_s06_0_bottle_00_bottle7-elephant2.png
subject-06,1,1009,0.973121166229248,car,bird,0,1009_stg_s06_0_bird_00_bird1-clock3.png
subject-06,1,1010,0.917536973953247,bird,bottle,0,1010_stg_s06_0_bottle_00_bottle3-bear2.png
subject-06,1,1011,1.00197911262512,cat,dog,0,1011_stg_s06_0_dog_00_dog1-dog2.png
subject-06,1,1012,1.07573390007019,bird,clock,0,1012_stg_s06_0_clock_00_clock5-bicycle1.png
subject-06,1,1013,0.980882883071899,bottle,bear,0,1013_stg_s06_0_bear_00_bear10-bottle1.png
subject-06,1,1014,1.02672100067139,clock,car,0,1014_stg_s06_0_car_00_car8-clock2.png
subject-06,1,1015,0.762928009033203,car,bird,0,1015_stg_s06_0_bird_00_bird8-boat3.png
subject-06,1,1016,1.06115007400513,truck,truck,0,1016_stg_s06_0_truck_00_truck2-keyboard1.png
subject-06,1,1017,0.974974155426025,cat,airplane,0,1017_stg_s06_0_airplane_00_airplane4-cat3.png
subject-06,1,1018,0.874531984329224,dog,bird,0,1018_stg_s06_0_bird_00_bird3-bear3.png
subject-06,1,1019,0.804931163787842,car,boat,0,1019_stg_s06_0_boat_00_boat1-truck3.png
subject-06,1,1020,0.794463157653809,oven,oven,0,1020_stg_s06_0_oven_00_oven9-clock2.png
subject-06,1,1021,0.970595121383667,car,truck,0,1021_stg_s06_0_truck_00_truck5-airplane2.png
subject-06,1,1022,1.14416599273682,truck,truck,0,1022_stg_s06_0_truck_00_truck9-bottle2.png
subject-06,1,1023,1.05784106254578,car,truck,0,1023_stg_s06_0_truck_00_truck2-boat3.png
subject-06,1,1024,1.1480929851532,bird,keyboard,0,1024_stg_s06_0_keyboard_00_keyboard7-bear2.png
subject-06,1,1025,1.00606989860535,knife,cat,0,1025_stg_s06_0_cat_00_cat6-oven1.png
subject-06,1,1026,0.968805074691772,truck,truck,0,1026_stg_s06_0_truck_00_truck3-bird2.png
subject-06,1,1027,0.988181114196777,clock,bottle,0,1027_stg_s06_0_bottle_00_bottle5-clock3.png
subject-06,1,1028,0.815430164337158,car,bottle,0,1028_stg_s06_0_bottle_00_bottle3-airplane2.png
subject-06,1,1029,0.853606939315796,bird,airplane,0,1029_stg_s06_0_airplane_00_airplane5-bear2.png
subject-06,1,1030,0.691903829574585,clock,elephant,0,1030_stg_s06_0_elephant_00_elephant2-airplane3.png
subject-06,1,1031,1.01957297325134,dog,knife,0,1031_stg_s06_0_knife_00_knife10-dog1.png
subject-06,1,1032,1.20091009140015,knife,bird,0,1032_stg_s06_0_bird_00_bird5-oven3.png
subject-06,1,1033,0.762846946716309,oven,car,0,1033_stg_s06_0_car_00_car9-keyboard2.png
subject-06,1,1034,1.05281496047974,car,bird,0,1034_stg_s06_0_bird_00_bird7-truck2.png
subject-06,1,1035,1.50023007392883,truck,truck,0,1035_stg_s06_0_truck_00_truck3-knife2.png
subject-06,1,1036,1.21037077903748,dog,dog,0,1036_stg_s06_0_dog_00_dog3-dog1.png
subject-06,1,1037,0.862308979034424,elephant,airplane,0,1037_stg_s06_0_airplane_00_airplane8-elephant3.png
subject-06,1,1038,1.21415114402771,bird,bottle,0,1038_stg_s06_0_bottle_00_bottle7-boat3.png
subject-06,1,1039,1.12825012207031,bear,elephant,0,1039_stg_s06_0_elephant_00_elephant8-bicycle3.png
subject-06,1,1040,1.08029389381409,knife,bicycle,0,1040_stg_s06_0_bicycle_00_bicycle4-knife3.png
subject-06,1,1041,0.880120992660522,knife,bicycle,0,1041_stg_s06_0_bicycle_00_bicycle1-knife3.png
subject-06,1,1042,1.07075691223145,truck,truck,0,1042_stg_s06_0_truck_00_truck4-knife1.png
subject-06,1,1043,1.01732206344604,cat,boat,0,1043_stg_s06_0_boat_00_boat3-dog3.png
subject-06,1,1044,1.12286400794983,dog,keyboard,0,1044_stg_s06_0_keyboard_00_keyboard1-dog3.png
subject-06,1,1045,0.92023491859436,bird,keyboard,0,1045_stg_s06_0_keyboard_00_keyboard2-bicycle3.png
subject-06,1,1046,0.801558971405029,truck,truck,0,1046_stg_s06_0_truck_00_truck5-car1.png
subject-06,1,1047,1.04776906967163,bear,bottle,0,1047_stg_s06_0_bottle_00_bottle6-bear2.png
subject-06,1,1048,0.875256061553955,bird,cat,0,1048_stg_s06_0_cat_00_cat3-bicycle1.png
subject-06,1,1049,0.889657020568848,car,car,0,1049_stg_s06_0_car_00_car5-truck3.png
subject-06,1,1050,1.32415795326233,dog,airplane,0,1050_stg_s06_0_airplane_00_airplane4-dog2.png
subject-06,1,1051,0.991761922836304,truck,car,0,1051_stg_s06_0_car_00_car1-car2.png
subject-06,1,1052,0.873389959335327,clock,bicycle,0,1052_stg_s06_0_bicycle_00_bicycle2-keyboard2.png
subject-06,1,1053,1.0505108833313,bird,bird,0,1053_stg_s06_0_bird_00_bird3-cat1.png
subject-06,1,1054,1.19657492637634,car,car,0,1054_stg_s06_0_car_00_car8-boat3.png
subject-06,1,1055,1.49427604675293,elephant,bottle,0,1055_stg_s06_0_bottle_00_bottle8-elephant3.png
subject-06,1,1056,0.900161981582642,car,bottle,0,1056_stg_s06_0_bottle_00_bottle8-knife1.png
subject-06,1,1057,0.773409128189087,bird,oven,0,1057_stg_s06_0_oven_00_oven6-bear2.png
subject-06,1,1058,0.986798048019409,knife,oven,0,1058_stg_s06_0_oven_00_oven7-cat1.png
subject-06,1,1059,0.892919778823853,cat,airplane,0,1059_stg_s06_0_airplane_00_airplane7-cat3.png
subject-06,1,1060,0.930489063262939,clock,bird,0,1060_stg_s06_0_bird_00_bird5-cat2.png
subject-06,1,1061,0.949877023696899,dog,airplane,0,1061_stg_s06_0_airplane_00_airplane6-bear3.png
subject-06,1,1062,0.910493135452271,oven,airplane,0,1062_stg_s06_0_airplane_00_airplane3-keyboard2.png
subject-06,1,1063,1.46189999580383,car,knife,0,1063_stg_s06_0_knife_00_knife7-bird3.png
subject-06,1,1064,0.884186029434204,bird,car,0,1064_stg_s06_0_car_00_car8-cat1.png
subject-06,1,1065,0.797624111175537,cat,truck,0,1065_stg_s06_0_truck_00_truck5-cat3.png
subject-06,1,1066,0.809255123138428,oven,oven,0,1066_stg_s06_0_oven_00_oven8-knife2.png
subject-06,1,1067,0.985024929046631,dog,bear,0,1067_stg_s06_0_bear_00_bear2-bird3.png
subject-06,1,1068,1.38220405578613,truck,bicycle,0,1068_stg_s06_0_bicycle_00_bicycle1-boat3.png
subject-06,1,1069,0.918086051940918,elephant,chair,0,1069_stg_s06_0_chair_00_chair6-elephant2.png
subject-06,1,1070,1.01570391654968,bird,clock,0,1070_stg_s06_0_clock_00_clock8-knife1.png
subject-06,1,1071,1.38417601585388,bird,chair,0,1071_stg_s06_0_chair_00_chair8-bicycle3.png
subject-06,1,1072,1.02744293212891,knife,car,0,1072_stg_s06_0_car_00_car9-bird1.png
subject-06,1,1073,1.24969696998596,car,oven,0,1073_stg_s06_0_oven_00_oven2-chair1.png
subject-06,1,1074,0.79541015625,cat,cat,0,1074_stg_s06_0_cat_00_cat2-cat1.png
subject-06,1,1075,0.771759033203125,oven,oven,0,1075_stg_s06_0_oven_00_oven9-keyboard1.png
subject-06,1,1076,1.12982988357544,bottle,clock,0,1076_stg_s06_0_clock_00_clock4-airplane1.png
subject-06,1,1077,1.03905510902405,car,chair,0,1077_stg_s06_0_chair_00_chair4-chair3.png
subject-06,1,1078,0.806887865066528,clock,boat,0,1078_stg_s06_0_boat_00_boat5-airplane1.png
subject-06,1,1079,NaN,na,cat,0,1079_stg_s06_0_cat_00_cat4-chair2.png
subject-06,1,1080,0.927107095718384,car,car,0,1080_stg_s06_0_car_00_car4-car2.png
subject-06,1,1081,1.11663794517517,dog,dog,0,1081_stg_s06_0_dog_00_dog9-bear3.png
subject-06,1,1082,1.14395380020142,clock,bear,0,1082_stg_s06_0_bear_00_bear10-clock1.png
subject-06,1,1083,0.895066976547241,keyboard,keyboard,0,1083_stg_s06_0_keyboard_00_keyboard9-airplane3.png
subject-06,1,1084,0.786885023117065,bird,chair,0,1084_stg_s06_0_chair_00_chair10-bottle3.png
subject-06,1,1085,1.07684993743896,car,elephant,0,1085_stg_s06_0_elephant_00_elephant5-truck1.png
subject-06,1,1086,1.1036331653595,truck,clock,0,1086_stg_s06_0_clock_00_clock7-bicycle1.png
subject-06,1,1087,1.04259204864502,elephant,oven,0,1087_stg_s06_0_oven_00_oven7-elephant1.png
subject-06,1,1088,0.748584985733032,boat,keyboard,0,1088_stg_s06_0_keyboard_00_keyboard9-truck3.png
subject-06,1,1089,1.04042792320251,car,boat,0,1089_stg_s06_0_boat_00_boat5-bicycle3.png
subject-06,1,1090,0.827356100082397,cat,dog,0,1090_stg_s06_0_dog_00_dog9-bicycle3.png
subject-06,1,1091,1.07345104217529,bear,bear,0,1091_stg_s06_0_bear_00_bear4-knife1.png
subject-06,1,1092,0.779613971710205,bear,oven,0,1092_stg_s06_0_oven_00_oven2-bear3.png
subject-06,1,1093,0.947589159011841,truck,truck,0,1093_stg_s06_0_truck_00_truck2-bird2.png
subject-06,1,1094,1.11298012733459,car,clock,0,1094_stg_s06_0_clock_00_clock10-boat2.png
subject-06,1,1095,1.27595210075378,bird,elephant,0,1095_stg_s06_0_elephant_00_elephant9-dog3.png
subject-06,1,1096,0.835255146026611,cat,keyboard,0,1096_stg_s06_0_keyboard_00_keyboard9-bicycle2.png
subject-06,1,1097,0.787373065948486,car,dog,0,1097_stg_s06_0_dog_00_dog5-truck2.png
subject-06,1,1098,0.692720174789429,cat,car,0,1098_stg_s06_0_car_00_car3-bird2.png
subject-06,1,1099,0.7518630027771,knife,truck,0,1099_stg_s06_0_truck_00_truck5-knife3.png
subject-06,1,1100,1.05004119873047,elephant,clock,0,1100_stg_s06_0_clock_00_clock5-elephant2.png
subject-06,1,1101,1.09388303756714,bird,cat,0,1101_stg_s06_0_cat_00_cat2-car3.png
subject-06,1,1102,0.878083944320679,bird,bicycle,0,1102_stg_s06_0_bicycle_00_bicycle1-truck1.png
subject-06,1,1103,1.11376214027405,elephant,elephant,0,1103_stg_s06_0_elephant_00_elephant9-clock3.png
subject-06,1,1104,0.70305609703064,oven,car,0,1104_stg_s06_0_car_00_car10-keyboard2.png
subject-06,1,1105,0.838563919067383,bottle,bear,0,1105_stg_s06_0_bear_00_bear5-bottle1.png
subject-06,1,1106,1.01401901245117,elephant,elephant,0,1106_stg_s06_0_elephant_00_elephant1-dog2.png
subject-06,1,1107,0.741467952728271,clock,bird,0,1107_stg_s06_0_bird_00_bird2-clock3.png
subject-06,1,1108,1.39318799972534,dog,elephant,0,1108_stg_s06_0_elephant_00_elephant4-bicycle2.png
subject-06,1,1109,1.02317118644714,knife,knife,0,1109_stg_s06_0_knife_00_knife4-keyboard1.png
subject-06,1,1110,1.00520300865173,car,bird,0,1110_stg_s06_0_bird_00_bird1-bicycle2.png
subject-06,1,1111,0.697026014328003,cat,car,0,1111_stg_s06_0_car_00_car8-bear1.png
subject-06,1,1112,1.12546992301941,bear,elephant,0,1112_stg_s06_0_elephant_00_elephant1-bear2.png
subject-06,1,1113,0.80134391784668,oven,oven,0,1113_stg_s06_0_oven_00_oven8-keyboard3.png
